,subjID,experimentName,versionName,sequenceName,url,selected_row,windowWidth,windowHeight,screenWidth,screenHeight,startDate,startTime,trial,stimulus,duration,actual_depth,depth_estimate,trial_RT,log_sceneDuration,unitSelection,seq_filepath,experimentTime,totalTime,age,gender
0,577833,DepthScenes,duration_manipulation_targetAtFixation,jsons/VE125_randls_73.json,http://54.235.29.9/FacialAge/BNav_EC2/DepthDuration/v2_depth_duration_MTurk/v2_DepthDuration_HTML.html#83,83,1364,768,1364,768,8-21-2022,11-39-43,1,depth_duration_stimuli/001011_2014-06-08_23-18-54_260595134347_rgbf000044-resize_4/001011_2014-06-08_23-18-54_260595134347_rgbf000044-resize_4-target.png,125,2.4730000000000003,5.0,9303,123,feet,jsons/VE125_randls_73.json,987037,1218047,29,Man
1,577833,DepthScenes,duration_manipulation_targetAtFixation,jsons/VE125_randls_73.json,http://54.235.29.9/FacialAge/BNav_EC2/DepthDuration/v2_depth_duration_MTurk/v2_DepthDuration_HTML.html#83,83,1364,768,1364,768,8-21-2022,11-39-43,2,depth_duration_stimuli/002875_2014-06-01_15-19-00_094959634447_rgbf000151-resize_1/002875_2014-06-01_15-19-00_094959634447_rgbf000151-resize_1-target.png,125,1.9675,4.0,4074,120,feet,jsons/VE125_randls_73.json,987037,1218047,29,Man
2,577833,DepthScenes,duration_manipulation_targetAtFixation,jsons/VE125_randls_73.json,http://54.235.29.9/FacialAge/BNav_EC2/DepthDuration/v2_depth_duration_MTurk/v2_DepthDuration_HTML.html#83,83,1364,768,1364,768,8-21-2022,11-39-43,3,depth_duration_stimuli/000810_2014-06-08_17-20-01_260595134347_rgbf000105-resize_0/000810_2014-06-08_17-20-01_260595134347_rgbf000105-resize_0-target.png,125,1.4865,4.0,5032,125,feet,jsons/VE125_randls_73.json,987037,1218047,29,Man
3,577833,DepthScenes,duration_manipulation_targetAtFixation,jsons/VE125_randls_73.json,http://54.235.29.9/FacialAge/BNav_EC2/DepthDuration/v2_depth_duration_MTurk/v2_DepthDuration_HTML.html#83,83,1364,768,1364,768,8-21-2022,11-39-43,4,depth_duration_stimuli/001214_2014-06-17_16-13-55_260595134347_rgbf000111-resize_0/001214_2014-06-17_16-13-55_260595134347_rgbf000111-resize_0-target.png,125,2.6505,3.0,3957,125,feet,jsons/VE125_randls_73.json,987037,1218047,29,Man
4,577833,DepthScenes,duration_manipulation_targetAtFixation,jsons/VE125_randls_73.json,http://54.235.29.9/FacialAge/BNav_EC2/DepthDuration/v2_depth_duration_MTurk/v2_DepthDuration_HTML.html#83,83,1364,768,1364,768,8-21-2022,11-39-43,5,depth_duration_stimuli/003292_2014-05-14_21-53-49_094959634447_rgbf000100-resize_2/003292_2014-05-14_21-53-49_094959634447_rgbf000100-resize_2-target.png,125,3.4815,4.0,4734,130,feet,jsons/VE125_randls_73.json,987037,1218047,29,Man
5,577833,DepthScenes,duration_manipulation_targetAtFixation,jsons/VE125_randls_73.json,http://54.235.29.9/FacialAge/BNav_EC2/DepthDuration/v2_depth_duration_MTurk/v2_DepthDuration_HTML.html#83,83,1364,768,1364,768,8-21-2022,11-39-43,6,depth_duration_stimuli/002639_2014-06-24_14-51-37_094959634447_rgbf000074-resize_4/002639_2014-06-24_14-51-37_094959634447_rgbf000074-resize_4-target.png,125,4.0375,5.0,3976,124,feet,jsons/VE125_randls_73.json,987037,1218047,29,Man
6,577833,DepthScenes,duration_manipulation_targetAtFixation,jsons/VE125_randls_73.json,http://54.235.29.9/FacialAge/BNav_EC2/DepthDuration/v2_depth_duration_MTurk/v2_DepthDuration_HTML.html#83,83,1364,768,1364,768,8-21-2022,11-39-43,7,depth_duration_stimuli/001066_2014-06-08_22-03-20_260595134347_rgbf000066-resize_4/001066_2014-06-08_22-03-20_260595134347_rgbf000066-resize_4-target.png,125,4.2330000000000005,5.0,4811,125,feet,jsons/VE125_randls_73.json,987037,1218047,29,Man
7,577833,DepthScenes,duration_manipulation_targetAtFixation,jsons/VE125_randls_73.json,http://54.235.29.9/FacialAge/BNav_EC2/DepthDuration/v2_depth_duration_MTurk/v2_DepthDuration_HTML.html#83,83,1364,768,1364,768,8-21-2022,11-39-43,8,depth_duration_stimuli/000742_2014-06-08_18-48-09_260595134347_rgbf000164-resize_4/000742_2014-06-08_18-48-09_260595134347_rgbf000164-resize_4-target.png,125,4.632,5.0,10068,127,feet,jsons/VE125_randls_73.json,987037,1218047,29,Man
8,577833,DepthScenes,duration_manipulation_targetAtFixation,jsons/VE125_randls_73.json,http://54.235.29.9/FacialAge/BNav_EC2/DepthDuration/v2_depth_duration_MTurk/v2_DepthDuration_HTML.html#83,83,1364,768,1364,768,8-21-2022,11-39-43,9,depth_duration_stimuli/001555_2014-06-20_17-12-10_260595134347_rgbf000065-resize_4/001555_2014-06-20_17-12-10_260595134347_rgbf000065-resize_4-target.png,125,1.633,2.0,5314,164,feet,jsons/VE125_randls_73.json,987037,1218047,29,Man
9,577833,DepthScenes,duration_manipulation_targetAtFixation,jsons/VE125_randls_73.json,http://54.235.29.9/FacialAge/BNav_EC2/DepthDuration/v2_depth_duration_MTurk/v2_DepthDuration_HTML.html#83,83,1364,768,1364,768,8-21-2022,11-39-43,10,depth_duration_stimuli/000103_2014-05-14_22-01-17_260595134347_rgbf000152-resize_5/000103_2014-05-14_22-01-17_260595134347_rgbf000152-resize_5-target.png,125,1.993,4.0,3615,118,feet,jsons/VE125_randls_73.json,987037,1218047,29,Man
10,577833,DepthScenes,duration_manipulation_targetAtFixation,jsons/VE125_randls_73.json,http://54.235.29.9/FacialAge/BNav_EC2/DepthDuration/v2_depth_duration_MTurk/v2_DepthDuration_HTML.html#83,83,1364,768,1364,768,8-21-2022,11-39-43,11,depth_duration_stimuli/000682_2014-06-08_23-14-58_260595134347_rgbf000041-resize_5/000682_2014-06-08_23-14-58_260595134347_rgbf000041-resize_5-target.png,125,2.7239999999999998,5.0,5181,122,feet,jsons/VE125_randls_73.json,987037,1218047,29,Man
11,577833,DepthScenes,duration_manipulation_targetAtFixation,jsons/VE125_randls_73.json,http://54.235.29.9/FacialAge/BNav_EC2/DepthDuration/v2_depth_duration_MTurk/v2_DepthDuration_HTML.html#83,83,1364,768,1364,768,8-21-2022,11-39-43,12,depth_duration_stimuli/001650_2014-06-20_12-09-00_260595134347_rgbf000087-resize_3/001650_2014-06-20_12-09-00_260595134347_rgbf000087-resize_3-target.png,125,1.9505,2.0,3484,131,feet,jsons/VE125_randls_73.json,987037,1218047,29,Man
12,577833,DepthScenes,duration_manipulation_targetAtFixation,jsons/VE125_randls_73.json,http://54.235.29.9/FacialAge/BNav_EC2/DepthDuration/v2_depth_duration_MTurk/v2_DepthDuration_HTML.html#83,83,1364,768,1364,768,8-21-2022,11-39-43,13,depth_duration_stimuli/000569_2014-06-09_22-51-47_260595134347_rgbf000141-resize_3/000569_2014-06-09_22-51-47_260595134347_rgbf000141-resize-original.jpg,125,4.512,0.0,4510,121,feet,jsons/VE125_randls_73.json,987037,1218047,29,Man
13,577833,DepthScenes,duration_manipulation_targetAtFixation,jsons/VE125_randls_73.json,http://54.235.29.9/FacialAge/BNav_EC2/DepthDuration/v2_depth_duration_MTurk/v2_DepthDuration_HTML.html#83,83,1364,768,1364,768,8-21-2022,11-39-43,14,depth_duration_stimuli/000368_2014-06-09_15-53-01_260595134347_rgbf000155-resize_2/000368_2014-06-09_15-53-01_260595134347_rgbf000155-resize_2-target.png,125,2.4859999999999998,2.0,4257,142,feet,jsons/VE125_randls_73.json,987037,1218047,29,Man
14,577833,DepthScenes,duration_manipulation_targetAtFixation,jsons/VE125_randls_73.json,http://54.235.29.9/FacialAge/BNav_EC2/DepthDuration/v2_depth_duration_MTurk/v2_DepthDuration_HTML.html#83,83,1364,768,1364,768,8-21-2022,11-39-43,15,depth_duration_stimuli/002678_2014-06-13_16-15-32_094959634447_rgbf000151-resize_6/002678_2014-06-13_16-15-32_094959634447_rgbf000151-resize_6-target.png,125,2.1830000000000003,3.0,4354,139,feet,jsons/VE125_randls_73.json,987037,1218047,29,Man
15,577833,DepthScenes,duration_manipulation_targetAtFixation,jsons/VE125_randls_73.json,http://54.235.29.9/FacialAge/BNav_EC2/DepthDuration/v2_depth_duration_MTurk/v2_DepthDuration_HTML.html#83,83,1364,768,1364,768,8-21-2022,11-39-43,16,depth_duration_stimuli/000009_2014-05-26_14-32-05_260595134347_rgbf000034-resize_3/000009_2014-05-26_14-32-05_260595134347_rgbf000034-resize_3-target.png,125,3.8715,6.0,7332,156,feet,jsons/VE125_randls_73.json,987037,1218047,29,Man
16,577833,DepthScenes,duration_manipulation_targetAtFixation,jsons/VE125_randls_73.json,http://54.235.29.9/FacialAge/BNav_EC2/DepthDuration/v2_depth_duration_MTurk/v2_DepthDuration_HTML.html#83,83,1364,768,1364,768,8-21-2022,11-39-43,17,depth_duration_stimuli/001828_2014-06-26_21-40-03_260595134347_rgbf000024-resize_0/001828_2014-06-26_21-40-03_260595134347_rgbf000024-resize_0-target.png,125,4.8260000000000005,5.0,3893,175,feet,jsons/VE125_randls_73.json,987037,1218047,29,Man
17,577833,DepthScenes,duration_manipulation_targetAtFixation,jsons/VE125_randls_73.json,http://54.235.29.9/FacialAge/BNav_EC2/DepthDuration/v2_depth_duration_MTurk/v2_DepthDuration_HTML.html#83,83,1364,768,1364,768,8-21-2022,11-39-43,18,depth_duration_stimuli/002663_2014-06-13_15-50-26_094959634447_rgbf000075-resize_1/002663_2014-06-13_15-50-26_094959634447_rgbf000075-resize_1-target.png,125,4.7495,5.0,5275,147,feet,jsons/VE125_randls_73.json,987037,1218047,29,Man
18,577833,DepthScenes,duration_manipulation_targetAtFixation,jsons/VE125_randls_73.json,http://54.235.29.9/FacialAge/BNav_EC2/DepthDuration/v2_depth_duration_MTurk/v2_DepthDuration_HTML.html#83,83,1364,768,1364,768,8-21-2022,11-39-43,19,depth_duration_stimuli/000409_2014-06-04_19-23-33_260595134347_rgbf000067-resize_0/000409_2014-06-04_19-23-33_260595134347_rgbf000067-resize_0-target.png,125,3.7335,4.0,4182,125,feet,jsons/VE125_randls_73.json,987037,1218047,29,Man
19,577833,DepthScenes,duration_manipulation_targetAtFixation,jsons/VE125_randls_73.json,http://54.235.29.9/FacialAge/BNav_EC2/DepthDuration/v2_depth_duration_MTurk/v2_DepthDuration_HTML.html#83,83,1364,768,1364,768,8-21-2022,11-39-43,20,depth_duration_stimuli/000736_2014-06-08_18-24-15_260595134347_rgbf000206-resize_3/000736_2014-06-08_18-24-15_260595134347_rgbf000206-resize_3-target.png,125,3.515,4.0,5712,124,feet,jsons/VE125_randls_73.json,987037,1218047,29,Man
20,577833,DepthScenes,duration_manipulation_targetAtFixation,jsons/VE125_randls_73.json,http://54.235.29.9/FacialAge/BNav_EC2/DepthDuration/v2_depth_duration_MTurk/v2_DepthDuration_HTML.html#83,83,1364,768,1364,768,8-21-2022,11-39-43,21,depth_duration_stimuli/000137_2014-05-20_17-04-49_260595134347_rgbf000120-resize_1/000137_2014-05-20_17-04-49_260595134347_rgbf000120-resize_1-target.png,125,3.786,5.0,3254,135,feet,jsons/VE125_randls_73.json,987037,1218047,29,Man
21,577833,DepthScenes,duration_manipulation_targetAtFixation,jsons/VE125_randls_73.json,http://54.235.29.9/FacialAge/BNav_EC2/DepthDuration/v2_depth_duration_MTurk/v2_DepthDuration_HTML.html#83,83,1364,768,1364,768,8-21-2022,11-39-43,22,depth_duration_stimuli/000447_2014-06-08_16-15-46_260595134347_rgbf000130-resize_1/000447_2014-06-08_16-15-46_260595134347_rgbf000130-resize_1-target.png,125,4.479,4.0,5346,215,feet,jsons/VE125_randls_73.json,987037,1218047,29,Man
22,577833,DepthScenes,duration_manipulation_targetAtFixation,jsons/VE125_randls_73.json,http://54.235.29.9/FacialAge/BNav_EC2/DepthDuration/v2_depth_duration_MTurk/v2_DepthDuration_HTML.html#83,83,1364,768,1364,768,8-21-2022,11-39-43,23,depth_duration_stimuli/001447_2014-06-19_17-00-32_260595134347_rgbf000082-resize_5/001447_2014-06-19_17-00-32_260595134347_rgbf000082-resize_5-target.png,125,4.13775,4.0,3610,112,feet,jsons/VE125_randls_73.json,987037,1218047,29,Man
23,577833,DepthScenes,duration_manipulation_targetAtFixation,jsons/VE125_randls_73.json,http://54.235.29.9/FacialAge/BNav_EC2/DepthDuration/v2_depth_duration_MTurk/v2_DepthDuration_HTML.html#83,83,1364,768,1364,768,8-21-2022,11-39-43,24,depth_duration_stimuli/002279_2014-06-28_18-55-32_260595134347_rgbf000040-resize_5/002279_2014-06-28_18-55-32_260595134347_rgbf000040-resize_5-target.png,125,1.5043333333333,2.0,5055,141,feet,jsons/VE125_randls_73.json,987037,1218047,29,Man
24,577833,DepthScenes,duration_manipulation_targetAtFixation,jsons/VE125_randls_73.json,http://54.235.29.9/FacialAge/BNav_EC2/DepthDuration/v2_depth_duration_MTurk/v2_DepthDuration_HTML.html#83,83,1364,768,1364,768,8-21-2022,11-39-43,25,depth_duration_stimuli/000635_2014-06-08_16-38-42_260595134347_rgbf000106-resize_1/000635_2014-06-08_16-38-42_260595134347_rgbf000106-resize_1-target.png,125,2.074,3.0,7238,132,feet,jsons/VE125_randls_73.json,987037,1218047,29,Man
25,577833,DepthScenes,duration_manipulation_targetAtFixation,jsons/VE125_randls_73.json,http://54.235.29.9/FacialAge/BNav_EC2/DepthDuration/v2_depth_duration_MTurk/v2_DepthDuration_HTML.html#83,83,1364,768,1364,768,8-21-2022,11-39-43,26,depth_duration_stimuli/000906_2014-06-08_13-35-43_260595134347_rgbf000155-resize_1/000906_2014-06-08_13-35-43_260595134347_rgbf000155-resize_1-target.png,125,2.8489999999999998,4.0,4460,125,feet,jsons/VE125_randls_73.json,987037,1218047,29,Man
26,577833,DepthScenes,duration_manipulation_targetAtFixation,jsons/VE125_randls_73.json,http://54.235.29.9/FacialAge/BNav_EC2/DepthDuration/v2_depth_duration_MTurk/v2_DepthDuration_HTML.html#83,83,1364,768,1364,768,8-21-2022,11-39-43,27,depth_duration_stimuli/002805_2014-06-22_19-54-03_094959634447_rgbf000079-resize_1/002805_2014-06-22_19-54-03_094959634447_rgbf000079-resize_1-target.png,125,3.1439999999999997,4.0,4325,125,feet,jsons/VE125_randls_73.json,987037,1218047,29,Man
27,577833,DepthScenes,duration_manipulation_targetAtFixation,jsons/VE125_randls_73.json,http://54.235.29.9/FacialAge/BNav_EC2/DepthDuration/v2_depth_duration_MTurk/v2_DepthDuration_HTML.html#83,83,1364,768,1364,768,8-21-2022,11-39-43,28,depth_duration_stimuli/000436_2014-06-09_22-25-11_260595134347_rgbf000137-resize_1/000436_2014-06-09_22-25-11_260595134347_rgbf000137-resize_1-target.png,125,4.0705,5.0,4364,125,feet,jsons/VE125_randls_73.json,987037,1218047,29,Man
28,577833,DepthScenes,duration_manipulation_targetAtFixation,jsons/VE125_randls_73.json,http://54.235.29.9/FacialAge/BNav_EC2/DepthDuration/v2_depth_duration_MTurk/v2_DepthDuration_HTML.html#83,83,1364,768,1364,768,8-21-2022,11-39-43,29,depth_duration_stimuli/002444_2014-06-28_20-32-08_260595134347_rgbf000027-resize_0/002444_2014-06-28_20-32-08_260595134347_rgbf000027-resize_0-target.png,125,4.388999999999999,5.0,3187,121,feet,jsons/VE125_randls_73.json,987037,1218047,29,Man
29,577833,DepthScenes,duration_manipulation_targetAtFixation,jsons/VE125_randls_73.json,http://54.235.29.9/FacialAge/BNav_EC2/DepthDuration/v2_depth_duration_MTurk/v2_DepthDuration_HTML.html#83,83,1364,768,1364,768,8-21-2022,11-39-43,30,depth_duration_stimuli/000375_2014-06-08_11-17-29_260595134347_rgbf000133-resize_2/000375_2014-06-08_11-17-29_260595134347_rgbf000133-resize-original.jpg,125,4.718,0.0,4916,125,feet,jsons/VE125_randls_73.json,987037,1218047,29,Man
30,577833,DepthScenes,duration_manipulation_targetAtFixation,jsons/VE125_randls_73.json,http://54.235.29.9/FacialAge/BNav_EC2/DepthDuration/v2_depth_duration_MTurk/v2_DepthDuration_HTML.html#83,83,1364,768,1364,768,8-21-2022,11-39-43,31,depth_duration_stimuli/000493_2014-06-09_21-01-18_260595134347_rgbf000196-resize_3/000493_2014-06-09_21-01-18_260595134347_rgbf000196-resize_3-target.png,125,3.44,3.0,7741,120,feet,jsons/VE125_randls_73.json,987037,1218047,29,Man
31,577833,DepthScenes,duration_manipulation_targetAtFixation,jsons/VE125_randls_73.json,http://54.235.29.9/FacialAge/BNav_EC2/DepthDuration/v2_depth_duration_MTurk/v2_DepthDuration_HTML.html#83,83,1364,768,1364,768,8-21-2022,11-39-43,32,depth_duration_stimuli/000191_2014-05-12_17-07-38_260595134347_rgbf000199-resize_0/000191_2014-05-12_17-07-38_260595134347_rgbf000199-resize_0-target.png,125,3.7995,5.0,3315,127,feet,jsons/VE125_randls_73.json,987037,1218047,29,Man
32,577833,DepthScenes,duration_manipulation_targetAtFixation,jsons/VE125_randls_73.json,http://54.235.29.9/FacialAge/BNav_EC2/DepthDuration/v2_depth_duration_MTurk/v2_DepthDuration_HTML.html#83,83,1364,768,1364,768,8-21-2022,11-39-43,33,depth_duration_stimuli/000917_2014-06-09_22-45-29_260595134347_rgbf000149-resize_3/000917_2014-06-09_22-45-29_260595134347_rgbf000149-resize_3-target.png,125,4.1865,4.0,5306,123,feet,jsons/VE125_randls_73.json,987037,1218047,29,Man
33,577833,DepthScenes,duration_manipulation_targetAtFixation,jsons/VE125_randls_73.json,http://54.235.29.9/FacialAge/BNav_EC2/DepthDuration/v2_depth_duration_MTurk/v2_DepthDuration_HTML.html#83,83,1364,768,1364,768,8-21-2022,11-39-43,34,depth_duration_stimuli/002323_2014-06-28_20-01-54_260595134347_rgbf000051-resize_4/002323_2014-06-28_20-01-54_260595134347_rgbf000051-resize_4-target.png,125,3.7310000000000003,5.0,4945,125,feet,jsons/VE125_randls_73.json,987037,1218047,29,Man
34,577833,DepthScenes,duration_manipulation_targetAtFixation,jsons/VE125_randls_73.json,http://54.235.29.9/FacialAge/BNav_EC2/DepthDuration/v2_depth_duration_MTurk/v2_DepthDuration_HTML.html#83,83,1364,768,1364,768,8-21-2022,11-39-43,35,depth_duration_stimuli/000878_2014-06-08_22-52-45_260595134347_rgbf000045-resize_2/000878_2014-06-08_22-52-45_260595134347_rgbf000045-resize_2-target.png,125,2.092,3.0,4924,127,feet,jsons/VE125_randls_73.json,987037,1218047,29,Man
35,577833,DepthScenes,duration_manipulation_targetAtFixation,jsons/VE125_randls_73.json,http://54.235.29.9/FacialAge/BNav_EC2/DepthDuration/v2_depth_duration_MTurk/v2_DepthDuration_HTML.html#83,83,1364,768,1364,768,8-21-2022,11-39-43,36,depth_duration_stimuli/002953_2014-06-08_17-32-18_094959634447_rgbf000059-resize_5/002953_2014-06-08_17-32-18_094959634447_rgbf000059-resize_5-target.png,125,1.551,3.0,3457,113,feet,jsons/VE125_randls_73.json,987037,1218047,29,Man
36,577833,DepthScenes,duration_manipulation_targetAtFixation,jsons/VE125_randls_73.json,http://54.235.29.9/FacialAge/BNav_EC2/DepthDuration/v2_depth_duration_MTurk/v2_DepthDuration_HTML.html#83,83,1364,768,1364,768,8-21-2022,11-39-43,37,depth_duration_stimuli/000758_2014-06-08_22-05-08_260595134347_rgbf000085-resize_0/000758_2014-06-08_22-05-08_260595134347_rgbf000085-resize_0-target.png,125,3.3810000000000002,5.0,5057,122,feet,jsons/VE125_randls_73.json,987037,1218047,29,Man
37,577833,DepthScenes,duration_manipulation_targetAtFixation,jsons/VE125_randls_73.json,http://54.235.29.9/FacialAge/BNav_EC2/DepthDuration/v2_depth_duration_MTurk/v2_DepthDuration_HTML.html#83,83,1364,768,1364,768,8-21-2022,11-39-43,38,depth_duration_stimuli/000854_2014-06-09_19-43-13_260595134347_rgbf000066-resize_0/000854_2014-06-09_19-43-13_260595134347_rgbf000066-resize_0-target.png,125,3.068,4.0,4229,128,feet,jsons/VE125_randls_73.json,987037,1218047,29,Man
38,577833,DepthScenes,duration_manipulation_targetAtFixation,jsons/VE125_randls_73.json,http://54.235.29.9/FacialAge/BNav_EC2/DepthDuration/v2_depth_duration_MTurk/v2_DepthDuration_HTML.html#83,83,1364,768,1364,768,8-21-2022,11-39-43,39,depth_duration_stimuli/002153_2014-06-25_21-27-18_260595134347_rgbf000038-resize_5/002153_2014-06-25_21-27-18_260595134347_rgbf000038-resize_5-target.png,125,2.505,4.0,6899,127,feet,jsons/VE125_randls_73.json,987037,1218047,29,Man
39,577833,DepthScenes,duration_manipulation_targetAtFixation,jsons/VE125_randls_73.json,http://54.235.29.9/FacialAge/BNav_EC2/DepthDuration/v2_depth_duration_MTurk/v2_DepthDuration_HTML.html#83,83,1364,768,1364,768,8-21-2022,11-39-43,40,depth_duration_stimuli/002660_2014-06-13_15-44-18_094959634447_rgbf001878-resize_2/002660_2014-06-13_15-44-18_094959634447_rgbf001878-resize_2-target.png,125,3.576,5.0,3950,126,feet,jsons/VE125_randls_73.json,987037,1218047,29,Man
40,577833,DepthScenes,duration_manipulation_targetAtFixation,jsons/VE125_randls_73.json,http://54.235.29.9/FacialAge/BNav_EC2/DepthDuration/v2_depth_duration_MTurk/v2_DepthDuration_HTML.html#83,83,1364,768,1364,768,8-21-2022,11-39-43,41,depth_duration_stimuli/001055_2014-06-08_18-45-35_260595134347_rgbf000111-resize_4/001055_2014-06-08_18-45-35_260595134347_rgbf000111-resize_4-target.png,125,2.4290000000000003,5.0,5434,124,feet,jsons/VE125_randls_73.json,987037,1218047,29,Man
41,577833,DepthScenes,duration_manipulation_targetAtFixation,jsons/VE125_randls_73.json,http://54.235.29.9/FacialAge/BNav_EC2/DepthDuration/v2_depth_duration_MTurk/v2_DepthDuration_HTML.html#83,83,1364,768,1364,768,8-21-2022,11-39-43,42,depth_duration_stimuli/000549_2014-06-08_22-10-24_260595134347_rgbf000247-resize_3/000549_2014-06-08_22-10-24_260595134347_rgbf000247-resize_3-target.png,125,1.841,2.0,3732,144,feet,jsons/VE125_randls_73.json,987037,1218047,29,Man
42,577833,DepthScenes,duration_manipulation_targetAtFixation,jsons/VE125_randls_73.json,http://54.235.29.9/FacialAge/BNav_EC2/DepthDuration/v2_depth_duration_MTurk/v2_DepthDuration_HTML.html#83,83,1364,768,1364,768,8-21-2022,11-39-43,43,depth_duration_stimuli/002725_2014-06-22_11-47-51_094959634447_rgbf000070-resize_1/002725_2014-06-22_11-47-51_094959634447_rgbf000070-resize_1-target.png,125,2.195,4.0,5105,126,feet,jsons/VE125_randls_73.json,987037,1218047,29,Man
43,577833,DepthScenes,duration_manipulation_targetAtFixation,jsons/VE125_randls_73.json,http://54.235.29.9/FacialAge/BNav_EC2/DepthDuration/v2_depth_duration_MTurk/v2_DepthDuration_HTML.html#83,83,1364,768,1364,768,8-21-2022,11-39-43,44,depth_duration_stimuli/002344_2014-06-28_20-06-29_260595134347_rgbf000030-resize_1/002344_2014-06-28_20-06-29_260595134347_rgbf000030-resize_1-target.png,125,1.5795,2.0,3722,123,feet,jsons/VE125_randls_73.json,987037,1218047,29,Man
44,577833,DepthScenes,duration_manipulation_targetAtFixation,jsons/VE125_randls_73.json,http://54.235.29.9/FacialAge/BNav_EC2/DepthDuration/v2_depth_duration_MTurk/v2_DepthDuration_HTML.html#83,83,1364,768,1364,768,8-21-2022,11-39-43,45,depth_duration_stimuli/000787_2014-06-08_22-33-53_260595134347_rgbf000175-resize_1/000787_2014-06-08_22-33-53_260595134347_rgbf000175-resize-original.jpg,125,4.784,0.0,3731,106,feet,jsons/VE125_randls_73.json,987037,1218047,29,Man
45,577833,DepthScenes,duration_manipulation_targetAtFixation,jsons/VE125_randls_73.json,http://54.235.29.9/FacialAge/BNav_EC2/DepthDuration/v2_depth_duration_MTurk/v2_DepthDuration_HTML.html#83,83,1364,768,1364,768,8-21-2022,11-39-43,46,depth_duration_stimuli/002784_2014-06-22_19-26-30_094959634447_rgbf000083-resize_3/002784_2014-06-22_19-26-30_094959634447_rgbf000083-resize_3-target.png,125,1.8046666666667,2.0,6856,125,feet,jsons/VE125_randls_73.json,987037,1218047,29,Man
46,577833,DepthScenes,duration_manipulation_targetAtFixation,jsons/VE125_randls_73.json,http://54.235.29.9/FacialAge/BNav_EC2/DepthDuration/v2_depth_duration_MTurk/v2_DepthDuration_HTML.html#83,83,1364,768,1364,768,8-21-2022,11-39-43,47,depth_duration_stimuli/001100_2014-06-15_17-46-26_260595134347_rgbf000225-resize_2/001100_2014-06-15_17-46-26_260595134347_rgbf000225-resize_2-target.png,125,2.24,2.0,4243,127,feet,jsons/VE125_randls_73.json,987037,1218047,29,Man
47,577833,DepthScenes,duration_manipulation_targetAtFixation,jsons/VE125_randls_73.json,http://54.235.29.9/FacialAge/BNav_EC2/DepthDuration/v2_depth_duration_MTurk/v2_DepthDuration_HTML.html#83,83,1364,768,1364,768,8-21-2022,11-39-43,48,depth_duration_stimuli/001016_2014-06-09_16-16-10_260595134347_rgbf000112-resize_5/001016_2014-06-09_16-16-10_260595134347_rgbf000112-resize_5-target.png,125,1.6565,3.0,6381,125,feet,jsons/VE125_randls_73.json,987037,1218047,29,Man
48,577833,DepthScenes,duration_manipulation_targetAtFixation,jsons/VE125_randls_73.json,http://54.235.29.9/FacialAge/BNav_EC2/DepthDuration/v2_depth_duration_MTurk/v2_DepthDuration_HTML.html#83,83,1364,768,1364,768,8-21-2022,11-39-43,49,depth_duration_stimuli/002340_2014-06-28_20-05-46_260595134347_rgbf000113-resize_0/002340_2014-06-28_20-05-46_260595134347_rgbf000113-resize_0-target.png,125,2.4735,4.0,3512,125,feet,jsons/VE125_randls_73.json,987037,1218047,29,Man
49,577833,DepthScenes,duration_manipulation_targetAtFixation,jsons/VE125_randls_73.json,http://54.235.29.9/FacialAge/BNav_EC2/DepthDuration/v2_depth_duration_MTurk/v2_DepthDuration_HTML.html#83,83,1364,768,1364,768,8-21-2022,11-39-43,50,depth_duration_stimuli/003621_2014-05-23_18-06-08_094959634447_rgbf000101-resize_1/003621_2014-05-23_18-06-08_094959634447_rgbf000101-resize_1-target.png,125,3.9835,5.0,6220,121,feet,jsons/VE125_randls_73.json,987037,1218047,29,Man
50,577833,DepthScenes,duration_manipulation_targetAtFixation,jsons/VE125_randls_73.json,http://54.235.29.9/FacialAge/BNav_EC2/DepthDuration/v2_depth_duration_MTurk/v2_DepthDuration_HTML.html#83,83,1364,768,1364,768,8-21-2022,11-39-43,51,depth_duration_stimuli/001584_2014-06-20_11-07-43_260595134347_rgbf000002-resize_1/001584_2014-06-20_11-07-43_260595134347_rgbf000002-resize_1-target.png,125,3.53,4.0,4081,128,feet,jsons/VE125_randls_73.json,987037,1218047,29,Man
51,577833,DepthScenes,duration_manipulation_targetAtFixation,jsons/VE125_randls_73.json,http://54.235.29.9/FacialAge/BNav_EC2/DepthDuration/v2_depth_duration_MTurk/v2_DepthDuration_HTML.html#83,83,1364,768,1364,768,8-21-2022,11-39-43,52,depth_duration_stimuli/002549_2014-06-24_13-41-39_094959634447_rgbf000022-resize_3/002549_2014-06-24_13-41-39_094959634447_rgbf000022-resize_3-target.png,125,1.476,2.0,7161,125,feet,jsons/VE125_randls_73.json,987037,1218047,29,Man
52,577833,DepthScenes,duration_manipulation_targetAtFixation,jsons/VE125_randls_73.json,http://54.235.29.9/FacialAge/BNav_EC2/DepthDuration/v2_depth_duration_MTurk/v2_DepthDuration_HTML.html#83,83,1364,768,1364,768,8-21-2022,11-39-43,53,depth_duration_stimuli/002750_2014-06-22_19-08-03_094959634447_rgbf000094-resize_4/002750_2014-06-22_19-08-03_094959634447_rgbf000094-resize_4-target.png,125,2.354,4.0,4956,126,feet,jsons/VE125_randls_73.json,987037,1218047,29,Man
53,577833,DepthScenes,duration_manipulation_targetAtFixation,jsons/VE125_randls_73.json,http://54.235.29.9/FacialAge/BNav_EC2/DepthDuration/v2_depth_duration_MTurk/v2_DepthDuration_HTML.html#83,83,1364,768,1364,768,8-21-2022,11-39-43,54,depth_duration_stimuli/002570_2014-06-24_13-59-54_094959634447_rgbf000059-resize_0/002570_2014-06-24_13-59-54_094959634447_rgbf000059-resize_0-target.png,125,4.037,4.5,7582,124,feet,jsons/VE125_randls_73.json,987037,1218047,29,Man
54,577833,DepthScenes,duration_manipulation_targetAtFixation,jsons/VE125_randls_73.json,http://54.235.29.9/FacialAge/BNav_EC2/DepthDuration/v2_depth_duration_MTurk/v2_DepthDuration_HTML.html#83,83,1364,768,1364,768,8-21-2022,11-39-43,55,depth_duration_stimuli/002467_2014-06-28_20-38-07_260595134347_rgbf000026-resize_2/002467_2014-06-28_20-38-07_260595134347_rgbf000026-resize_2-target.png,125,4.742,5.0,4466,125,feet,jsons/VE125_randls_73.json,987037,1218047,29,Man
55,577833,DepthScenes,duration_manipulation_targetAtFixation,jsons/VE125_randls_73.json,http://54.235.29.9/FacialAge/BNav_EC2/DepthDuration/v2_depth_duration_MTurk/v2_DepthDuration_HTML.html#83,83,1364,768,1364,768,8-21-2022,11-39-43,56,depth_duration_stimuli/001029_2014-06-08_13-17-57_260595134347_rgbf000065-resize_1/001029_2014-06-08_13-17-57_260595134347_rgbf000065-resize_1-target.png,125,3.0835,3.0,5058,117,feet,jsons/VE125_randls_73.json,987037,1218047,29,Man
56,577833,DepthScenes,duration_manipulation_targetAtFixation,jsons/VE125_randls_73.json,http://54.235.29.9/FacialAge/BNav_EC2/DepthDuration/v2_depth_duration_MTurk/v2_DepthDuration_HTML.html#83,83,1364,768,1364,768,8-21-2022,11-39-43,57,depth_duration_stimuli/000677_2014-06-08_23-10-32_260595134347_rgbf000158-resize_6/000677_2014-06-08_23-10-32_260595134347_rgbf000158-resize_6-target.png,125,3.556,4.0,3551,144,feet,jsons/VE125_randls_73.json,987037,1218047,29,Man
57,577833,DepthScenes,duration_manipulation_targetAtFixation,jsons/VE125_randls_73.json,http://54.235.29.9/FacialAge/BNav_EC2/DepthDuration/v2_depth_duration_MTurk/v2_DepthDuration_HTML.html#83,83,1364,768,1364,768,8-21-2022,11-39-43,58,depth_duration_stimuli/001808_2014-06-26_20-50-58_260595134347_rgbf000029-resize_1/001808_2014-06-26_20-50-58_260595134347_rgbf000029-resize_1-target.png,125,4.249,5.0,4393,138,feet,jsons/VE125_randls_73.json,987037,1218047,29,Man
58,577833,DepthScenes,duration_manipulation_targetAtFixation,jsons/VE125_randls_73.json,http://54.235.29.9/FacialAge/BNav_EC2/DepthDuration/v2_depth_duration_MTurk/v2_DepthDuration_HTML.html#83,83,1364,768,1364,768,8-21-2022,11-39-43,59,depth_duration_stimuli/001815_2014-06-26_20-52-55_260595134347_rgbf000020-resize_0/001815_2014-06-26_20-52-55_260595134347_rgbf000020-resize_0-target.png,125,3.3865,5.0,5029,126,feet,jsons/VE125_randls_73.json,987037,1218047,29,Man
59,577833,DepthScenes,duration_manipulation_targetAtFixation,jsons/VE125_randls_73.json,http://54.235.29.9/FacialAge/BNav_EC2/DepthDuration/v2_depth_duration_MTurk/v2_DepthDuration_HTML.html#83,83,1364,768,1364,768,8-21-2022,11-39-43,60,depth_duration_stimuli/001806_2014-06-26_20-50-20_260595134347_rgbf000091-resize_1/001806_2014-06-26_20-50-20_260595134347_rgbf000091-resize_1-target.png,125,2.7305,2.0,3832,125,feet,jsons/VE125_randls_73.json,987037,1218047,29,Man
60,577833,DepthScenes,duration_manipulation_targetAtFixation,jsons/VE125_randls_73.json,http://54.235.29.9/FacialAge/BNav_EC2/DepthDuration/v2_depth_duration_MTurk/v2_DepthDuration_HTML.html#83,83,1364,768,1364,768,8-21-2022,11-39-43,61,depth_duration_stimuli/001617_2014-06-20_11-35-32_260595134347_rgbf000066-resize_1/001617_2014-06-20_11-35-32_260595134347_rgbf000066-resize_1-target.png,125,3.7910000000000004,3.0,3344,123,feet,jsons/VE125_randls_73.json,987037,1218047,29,Man
61,577833,DepthScenes,duration_manipulation_targetAtFixation,jsons/VE125_randls_73.json,http://54.235.29.9/FacialAge/BNav_EC2/DepthDuration/v2_depth_duration_MTurk/v2_DepthDuration_HTML.html#83,83,1364,768,1364,768,8-21-2022,11-39-43,62,depth_duration_stimuli/001158_2014-06-17_15-32-16_260595134347_rgbf000138-resize_2/001158_2014-06-17_15-32-16_260595134347_rgbf000138-resize_2-target.png,125,4.5315,5.0,3570,126,feet,jsons/VE125_randls_73.json,987037,1218047,29,Man
62,577833,DepthScenes,duration_manipulation_targetAtFixation,jsons/VE125_randls_73.json,http://54.235.29.9/FacialAge/BNav_EC2/DepthDuration/v2_depth_duration_MTurk/v2_DepthDuration_HTML.html#83,83,1364,768,1364,768,8-21-2022,11-39-43,63,depth_duration_stimuli/000556_2014-06-09_22-42-56_260595134347_rgbf000214-resize_1/000556_2014-06-09_22-42-56_260595134347_rgbf000214-resize_1-target.png,125,4.8415,0.0,3085,120,feet,jsons/VE125_randls_73.json,987037,1218047,29,Man
63,577833,DepthScenes,duration_manipulation_targetAtFixation,jsons/VE125_randls_73.json,http://54.235.29.9/FacialAge/BNav_EC2/DepthDuration/v2_depth_duration_MTurk/v2_DepthDuration_HTML.html#83,83,1364,768,1364,768,8-21-2022,11-39-43,64,depth_duration_stimuli/002039_2014-06-24_20-22-38_260595134347_rgbf000084-resize_1/002039_2014-06-24_20-22-38_260595134347_rgbf000084-resize_1-target.png,125,4.408,5.0,3500,123,feet,jsons/VE125_randls_73.json,987037,1218047,29,Man
64,577833,DepthScenes,duration_manipulation_targetAtFixation,jsons/VE125_randls_73.json,http://54.235.29.9/FacialAge/BNav_EC2/DepthDuration/v2_depth_duration_MTurk/v2_DepthDuration_HTML.html#83,83,1364,768,1364,768,8-21-2022,11-39-43,65,depth_duration_stimuli/002103_2014-06-25_20-00-40_260595134347_rgbf000049-resize_0/002103_2014-06-25_20-00-40_260595134347_rgbf000049-resize_0-target.png,125,4.105,0.0,2765,130,feet,jsons/VE125_randls_73.json,987037,1218047,29,Man
65,577833,DepthScenes,duration_manipulation_targetAtFixation,jsons/VE125_randls_73.json,http://54.235.29.9/FacialAge/BNav_EC2/DepthDuration/v2_depth_duration_MTurk/v2_DepthDuration_HTML.html#83,83,1364,768,1364,768,8-21-2022,11-39-43,66,depth_duration_stimuli/001222_2014-06-17_16-24-06_260595134347_rgbf000073-resize_0/001222_2014-06-17_16-24-06_260595134347_rgbf000073-resize-original.jpg,125,1.4385,0.0,3449,126,feet,jsons/VE125_randls_73.json,987037,1218047,29,Man
66,577833,DepthScenes,duration_manipulation_targetAtFixation,jsons/VE125_randls_73.json,http://54.235.29.9/FacialAge/BNav_EC2/DepthDuration/v2_depth_duration_MTurk/v2_DepthDuration_HTML.html#83,83,1364,768,1364,768,8-21-2022,11-39-43,67,depth_duration_stimuli/001449_2014-06-19_17-01-27_260595134347_rgbf000116-resize_2/001449_2014-06-19_17-01-27_260595134347_rgbf000116-resize_2-target.png,125,3.452,4.0,3571,125,feet,jsons/VE125_randls_73.json,987037,1218047,29,Man
67,577833,DepthScenes,duration_manipulation_targetAtFixation,jsons/VE125_randls_73.json,http://54.235.29.9/FacialAge/BNav_EC2/DepthDuration/v2_depth_duration_MTurk/v2_DepthDuration_HTML.html#83,83,1364,768,1364,768,8-21-2022,11-39-43,68,depth_duration_stimuli/001450_2014-06-19_17-02-03_260595134347_rgbf000203-resize_4/001450_2014-06-19_17-02-03_260595134347_rgbf000203-resize_4-target.png,125,4.0106666666667,0.0,2781,126,feet,jsons/VE125_randls_73.json,987037,1218047,29,Man
68,577833,DepthScenes,duration_manipulation_targetAtFixation,jsons/VE125_randls_73.json,http://54.235.29.9/FacialAge/BNav_EC2/DepthDuration/v2_depth_duration_MTurk/v2_DepthDuration_HTML.html#83,83,1364,768,1364,768,8-21-2022,11-39-43,69,depth_duration_stimuli/001199_2014-06-17_16-03-48_260595134347_rgbf000077-resize_0/001199_2014-06-17_16-03-48_260595134347_rgbf000077-resize_0-target.png,125,3.4375,4.0,3364,125,feet,jsons/VE125_randls_73.json,987037,1218047,29,Man
69,577833,DepthScenes,duration_manipulation_targetAtFixation,jsons/VE125_randls_73.json,http://54.235.29.9/FacialAge/BNav_EC2/DepthDuration/v2_depth_duration_MTurk/v2_DepthDuration_HTML.html#83,83,1364,768,1364,768,8-21-2022,11-39-43,70,depth_duration_stimuli/000502_2014-06-08_23-02-32_260595134347_rgbf000063-resize_4/000502_2014-06-08_23-02-32_260595134347_rgbf000063-resize_4-target.png,125,2.431,0.0,2511,124,feet,jsons/VE125_randls_73.json,987037,1218047,29,Man
70,577833,DepthScenes,duration_manipulation_targetAtFixation,jsons/VE125_randls_73.json,http://54.235.29.9/FacialAge/BNav_EC2/DepthDuration/v2_depth_duration_MTurk/v2_DepthDuration_HTML.html#83,83,1364,768,1364,768,8-21-2022,11-39-43,71,depth_duration_stimuli/000469_2014-06-09_19-42-10_260595134347_rgbf000081-resize_1/000469_2014-06-09_19-42-10_260595134347_rgbf000081-resize_1-target.png,125,1.652,2.0,3491,129,feet,jsons/VE125_randls_73.json,987037,1218047,29,Man
71,577833,DepthScenes,duration_manipulation_targetAtFixation,jsons/VE125_randls_73.json,http://54.235.29.9/FacialAge/BNav_EC2/DepthDuration/v2_depth_duration_MTurk/v2_DepthDuration_HTML.html#83,83,1364,768,1364,768,8-21-2022,11-39-43,72,depth_duration_stimuli/000483_2014-06-09_20-41-45_260595134347_rgbf000116-resize_4/000483_2014-06-09_20-41-45_260595134347_rgbf000116-resize_4-target.png,125,1.337,3.0,3100,123,feet,jsons/VE125_randls_73.json,987037,1218047,29,Man
72,577833,DepthScenes,duration_manipulation_targetAtFixation,jsons/VE125_randls_73.json,http://54.235.29.9/FacialAge/BNav_EC2/DepthDuration/v2_depth_duration_MTurk/v2_DepthDuration_HTML.html#83,83,1364,768,1364,768,8-21-2022,11-39-43,73,depth_duration_stimuli/002964_2014-06-08_17-46-11_094959634447_rgbf000091-resize_4/002964_2014-06-08_17-46-11_094959634447_rgbf000091-resize_4-target.png,125,1.6909999999999998,2.0,3471,128,feet,jsons/VE125_randls_73.json,987037,1218047,29,Man
73,577833,DepthScenes,duration_manipulation_targetAtFixation,jsons/VE125_randls_73.json,http://54.235.29.9/FacialAge/BNav_EC2/DepthDuration/v2_depth_duration_MTurk/v2_DepthDuration_HTML.html#83,83,1364,768,1364,768,8-21-2022,11-39-43,74,depth_duration_stimuli/002136_2014-06-25_21-18-03_260595134347_rgbf000109-resize_3/002136_2014-06-25_21-18-03_260595134347_rgbf000109-resize_3-target.png,125,1.9569999999999999,3.0,8721,129,feet,jsons/VE125_randls_73.json,987037,1218047,29,Man
74,577833,DepthScenes,duration_manipulation_targetAtFixation,jsons/VE125_randls_73.json,http://54.235.29.9/FacialAge/BNav_EC2/DepthDuration/v2_depth_duration_MTurk/v2_DepthDuration_HTML.html#83,83,1364,768,1364,768,8-21-2022,11-39-43,75,depth_duration_stimuli/001150_2014-06-17_15-27-34_260595134347_rgbf000108-resize_2/001150_2014-06-17_15-27-34_260595134347_rgbf000108-resize_2-target.png,125,4.0325,4.0,5352,125,feet,jsons/VE125_randls_73.json,987037,1218047,29,Man
75,577833,DepthScenes,duration_manipulation_targetAtFixation,jsons/VE125_randls_73.json,http://54.235.29.9/FacialAge/BNav_EC2/DepthDuration/v2_depth_duration_MTurk/v2_DepthDuration_HTML.html#83,83,1364,768,1364,768,8-21-2022,11-39-43,76,depth_duration_stimuli/000665_2014-06-09_20-42-35_260595134347_rgbf000110-resize_1/000665_2014-06-09_20-42-35_260595134347_rgbf000110-resize_1-target.png,125,3.057,4.0,3330,121,feet,jsons/VE125_randls_73.json,987037,1218047,29,Man
76,577833,DepthScenes,duration_manipulation_targetAtFixation,jsons/VE125_randls_73.json,http://54.235.29.9/FacialAge/BNav_EC2/DepthDuration/v2_depth_duration_MTurk/v2_DepthDuration_HTML.html#83,83,1364,768,1364,768,8-21-2022,11-39-43,77,depth_duration_stimuli/000414_2014-06-04_19-49-13_260595134347_rgbf000044-resize_0/000414_2014-06-04_19-49-13_260595134347_rgbf000044-resize_0-target.png,125,4.329,5.0,7562,132,feet,jsons/VE125_randls_73.json,987037,1218047,29,Man
77,577833,DepthScenes,duration_manipulation_targetAtFixation,jsons/VE125_randls_73.json,http://54.235.29.9/FacialAge/BNav_EC2/DepthDuration/v2_depth_duration_MTurk/v2_DepthDuration_HTML.html#83,83,1364,768,1364,768,8-21-2022,11-39-43,78,depth_duration_stimuli/003129_2014-05-12_10-48-10_094959634447_rgbf000100-resize_0/003129_2014-05-12_10-48-10_094959634447_rgbf000100-resize_0-target.png,125,4.9305,6.0,6057,118,feet,jsons/VE125_randls_73.json,987037,1218047,29,Man
78,577833,DepthScenes,duration_manipulation_targetAtFixation,jsons/VE125_randls_73.json,http://54.235.29.9/FacialAge/BNav_EC2/DepthDuration/v2_depth_duration_MTurk/v2_DepthDuration_HTML.html#83,83,1364,768,1364,768,8-21-2022,11-39-43,79,depth_duration_stimuli/000773_2014-06-08_22-24-54_260595134347_rgbf000093-resize_1/000773_2014-06-08_22-24-54_260595134347_rgbf000093-resize_1-target.png,125,4.973,5.0,9830,124,feet,jsons/VE125_randls_73.json,987037,1218047,29,Man
79,577833,DepthScenes,duration_manipulation_targetAtFixation,jsons/VE125_randls_73.json,http://54.235.29.9/FacialAge/BNav_EC2/DepthDuration/v2_depth_duration_MTurk/v2_DepthDuration_HTML.html#83,83,1364,768,1364,768,8-21-2022,11-39-43,80,depth_duration_stimuli/002414_2014-06-28_20-24-58_260595134347_rgbf000067-resize_4/002414_2014-06-28_20-24-58_260595134347_rgbf000067-resize_4-target.png,125,4.363,5.0,4055,124,feet,jsons/VE125_randls_73.json,987037,1218047,29,Man
80,577833,DepthScenes,duration_manipulation_targetAtFixation,jsons/VE125_randls_73.json,http://54.235.29.9/FacialAge/BNav_EC2/DepthDuration/v2_depth_duration_MTurk/v2_DepthDuration_HTML.html#83,83,1364,768,1364,768,8-21-2022,11-39-43,81,depth_duration_stimuli/002057_2014-06-24_21-00-13_260595134347_rgbf000120-resize_1/002057_2014-06-24_21-00-13_260595134347_rgbf000120-resize_1-target.png,125,2.967,5.0,7172,122,feet,jsons/VE125_randls_73.json,987037,1218047,29,Man
81,577833,DepthScenes,duration_manipulation_targetAtFixation,jsons/VE125_randls_73.json,http://54.235.29.9/FacialAge/BNav_EC2/DepthDuration/v2_depth_duration_MTurk/v2_DepthDuration_HTML.html#83,83,1364,768,1364,768,8-21-2022,11-39-43,82,depth_duration_stimuli/000709_2014-06-08_13-51-55_260595134347_rgbf000068-resize_3/000709_2014-06-08_13-51-55_260595134347_rgbf000068-resize_3-target.png,125,1.8030000000000002,2.0,3781,125,feet,jsons/VE125_randls_73.json,987037,1218047,29,Man
82,577833,DepthScenes,duration_manipulation_targetAtFixation,jsons/VE125_randls_73.json,http://54.235.29.9/FacialAge/BNav_EC2/DepthDuration/v2_depth_duration_MTurk/v2_DepthDuration_HTML.html#83,83,1364,768,1364,768,8-21-2022,11-39-43,83,depth_duration_stimuli/002600_2014-06-24_14-27-04_094959634447_rgbf000074-resize_2/002600_2014-06-24_14-27-04_094959634447_rgbf000074-resize_2-target.png,125,2.7575,3.0,6621,117,feet,jsons/VE125_randls_73.json,987037,1218047,29,Man
83,577833,DepthScenes,duration_manipulation_targetAtFixation,jsons/VE125_randls_73.json,http://54.235.29.9/FacialAge/BNav_EC2/DepthDuration/v2_depth_duration_MTurk/v2_DepthDuration_HTML.html#83,83,1364,768,1364,768,8-21-2022,11-39-43,84,depth_duration_stimuli/003228_2014-05-14_13-42-35_094959634447_rgbf000101-resize_1/003228_2014-05-14_13-42-35_094959634447_rgbf000101-resize_1-target.png,125,1.9680000000000002,2.0,4472,124,feet,jsons/VE125_randls_73.json,987037,1218047,29,Man
84,577833,DepthScenes,duration_manipulation_targetAtFixation,jsons/VE125_randls_73.json,http://54.235.29.9/FacialAge/BNav_EC2/DepthDuration/v2_depth_duration_MTurk/v2_DepthDuration_HTML.html#83,83,1364,768,1364,768,8-21-2022,11-39-43,85,depth_duration_stimuli/002213_2014-06-28_18-37-58_260595134347_rgbf000055-resize_1/002213_2014-06-28_18-37-58_260595134347_rgbf000055-resize_1-target.png,125,3.62,5.0,6399,124,feet,jsons/VE125_randls_73.json,987037,1218047,29,Man
85,577833,DepthScenes,duration_manipulation_targetAtFixation,jsons/VE125_randls_73.json,http://54.235.29.9/FacialAge/BNav_EC2/DepthDuration/v2_depth_duration_MTurk/v2_DepthDuration_HTML.html#83,83,1364,768,1364,768,8-21-2022,11-39-43,86,depth_duration_stimuli/000691_2014-06-08_13-08-50_260595134347_rgbf000132-resize_3/000691_2014-06-08_13-08-50_260595134347_rgbf000132-resize_3-target.png,125,4.1530000000000005,6.0,3573,129,feet,jsons/VE125_randls_73.json,987037,1218047,29,Man
86,577833,DepthScenes,duration_manipulation_targetAtFixation,jsons/VE125_randls_73.json,http://54.235.29.9/FacialAge/BNav_EC2/DepthDuration/v2_depth_duration_MTurk/v2_DepthDuration_HTML.html#83,83,1364,768,1364,768,8-21-2022,11-39-43,87,depth_duration_stimuli/002763_2014-06-22_19-13-10_094959634447_rgbf000075-resize_4/002763_2014-06-22_19-13-10_094959634447_rgbf000075-resize_4-target.png,125,1.68375,4.0,7261,124,feet,jsons/VE125_randls_73.json,987037,1218047,29,Man
87,577833,DepthScenes,duration_manipulation_targetAtFixation,jsons/VE125_randls_73.json,http://54.235.29.9/FacialAge/BNav_EC2/DepthDuration/v2_depth_duration_MTurk/v2_DepthDuration_HTML.html#83,83,1364,768,1364,768,8-21-2022,11-39-43,88,depth_duration_stimuli/002209_2014-06-28_18-36-10_260595134347_rgbf000051-resize_1/002209_2014-06-28_18-36-10_260595134347_rgbf000051-resize_1-target.png,125,2.057,3.0,3850,123,feet,jsons/VE125_randls_73.json,987037,1218047,29,Man
88,577833,DepthScenes,duration_manipulation_targetAtFixation,jsons/VE125_randls_73.json,http://54.235.29.9/FacialAge/BNav_EC2/DepthDuration/v2_depth_duration_MTurk/v2_DepthDuration_HTML.html#83,83,1364,768,1364,768,8-21-2022,11-39-43,89,depth_duration_stimuli/000486_2014-06-09_20-47-20_260595134347_rgbf000143-resize_2/000486_2014-06-09_20-47-20_260595134347_rgbf000143-resize_2-target.png,125,4.8325,3.0,6360,120,feet,jsons/VE125_randls_73.json,987037,1218047,29,Man
89,577833,DepthScenes,duration_manipulation_targetAtFixation,jsons/VE125_randls_73.json,http://54.235.29.9/FacialAge/BNav_EC2/DepthDuration/v2_depth_duration_MTurk/v2_DepthDuration_HTML.html#83,83,1364,768,1364,768,8-21-2022,11-39-43,90,depth_duration_stimuli/003083_2014-06-15_15-21-03_094959634447_rgbf000063-resize_1/003083_2014-06-15_15-21-03_094959634447_rgbf000063-resize_1-target.png,125,4.1405,5.0,3596,125,feet,jsons/VE125_randls_73.json,987037,1218047,29,Man
90,577833,DepthScenes,duration_manipulation_targetAtFixation,jsons/VE125_randls_73.json,http://54.235.29.9/FacialAge/BNav_EC2/DepthDuration/v2_depth_duration_MTurk/v2_DepthDuration_HTML.html#83,83,1364,768,1364,768,8-21-2022,11-39-43,91,depth_duration_stimuli/001110_2014-06-15_17-25-28_260595134347_rgbf000150-resize_1/001110_2014-06-15_17-25-28_260595134347_rgbf000150-resize_1-target.png,125,1.7115,3.0,5048,124,feet,jsons/VE125_randls_73.json,987037,1218047,29,Man
91,577833,DepthScenes,duration_manipulation_targetAtFixation,jsons/VE125_randls_73.json,http://54.235.29.9/FacialAge/BNav_EC2/DepthDuration/v2_depth_duration_MTurk/v2_DepthDuration_HTML.html#83,83,1364,768,1364,768,8-21-2022,11-39-43,92,depth_duration_stimuli/000927_2014-06-09_16-32-30_260595134347_rgbf000123-resize_3/000927_2014-06-09_16-32-30_260595134347_rgbf000123-resize_3-target.png,125,2.6785,0.0,7515,124,feet,jsons/VE125_randls_73.json,987037,1218047,29,Man
92,577833,DepthScenes,duration_manipulation_targetAtFixation,jsons/VE125_randls_73.json,http://54.235.29.9/FacialAge/BNav_EC2/DepthDuration/v2_depth_duration_MTurk/v2_DepthDuration_HTML.html#83,83,1364,768,1364,768,8-21-2022,11-39-43,93,depth_duration_stimuli/003070_2014-06-15_14-58-27_094959634447_rgbf000150-resize_3/003070_2014-06-15_14-58-27_094959634447_rgbf000150-resize_3-target.png,125,2.9415,4.0,5442,137,feet,jsons/VE125_randls_73.json,987037,1218047,29,Man
93,577833,DepthScenes,duration_manipulation_targetAtFixation,jsons/VE125_randls_73.json,http://54.235.29.9/FacialAge/BNav_EC2/DepthDuration/v2_depth_duration_MTurk/v2_DepthDuration_HTML.html#83,83,1364,768,1364,768,8-21-2022,11-39-43,94,depth_duration_stimuli/000943_2014-06-09_19-31-07_260595134347_rgbf000128-resize_1/000943_2014-06-09_19-31-07_260595134347_rgbf000128-resize_1-target.png,125,1.9765,4.0,9546,125,feet,jsons/VE125_randls_73.json,987037,1218047,29,Man
94,577833,DepthScenes,duration_manipulation_targetAtFixation,jsons/VE125_randls_73.json,http://54.235.29.9/FacialAge/BNav_EC2/DepthDuration/v2_depth_duration_MTurk/v2_DepthDuration_HTML.html#83,83,1364,768,1364,768,8-21-2022,11-39-43,95,depth_duration_stimuli/001059_2014-06-08_21-53-27_260595134347_rgbf000061-resize_4/001059_2014-06-08_21-53-27_260595134347_rgbf000061-resize_4-target.png,125,2.4185,3.0,5256,124,feet,jsons/VE125_randls_73.json,987037,1218047,29,Man
95,577833,DepthScenes,duration_manipulation_targetAtFixation,jsons/VE125_randls_73.json,http://54.235.29.9/FacialAge/BNav_EC2/DepthDuration/v2_depth_duration_MTurk/v2_DepthDuration_HTML.html#83,83,1364,768,1364,768,8-21-2022,11-39-43,96,depth_duration_stimuli/001032_2014-06-08_13-23-17_260595134347_rgbf000021-resize_3/001032_2014-06-08_13-23-17_260595134347_rgbf000021-resize_3-target.png,125,3.2725,3.0,3471,131,feet,jsons/VE125_randls_73.json,987037,1218047,29,Man
96,577833,DepthScenes,duration_manipulation_targetAtFixation,jsons/VE125_randls_73.json,http://54.235.29.9/FacialAge/BNav_EC2/DepthDuration/v2_depth_duration_MTurk/v2_DepthDuration_HTML.html#83,83,1364,768,1364,768,8-21-2022,11-39-43,97,depth_duration_stimuli/002748_2014-06-22_19-07-22_094959634447_rgbf000078-resize_1/002748_2014-06-22_19-07-22_094959634447_rgbf000078-resize_1-target.png,125,4.6705,6.0,5079,115,feet,jsons/VE125_randls_73.json,987037,1218047,29,Man
97,577833,DepthScenes,duration_manipulation_targetAtFixation,jsons/VE125_randls_73.json,http://54.235.29.9/FacialAge/BNav_EC2/DepthDuration/v2_depth_duration_MTurk/v2_DepthDuration_HTML.html#83,83,1364,768,1364,768,8-21-2022,11-39-43,98,depth_duration_stimuli/002995_2014-06-15_12-31-26_094959634447_rgbf000150-resize_1/002995_2014-06-15_12-31-26_094959634447_rgbf000150-resize_1-target.png,125,3.8360000000000003,5.0,4332,159,feet,jsons/VE125_randls_73.json,987037,1218047,29,Man
98,577833,DepthScenes,duration_manipulation_targetAtFixation,jsons/VE125_randls_73.json,http://54.235.29.9/FacialAge/BNav_EC2/DepthDuration/v2_depth_duration_MTurk/v2_DepthDuration_HTML.html#83,83,1364,768,1364,768,8-21-2022,11-39-43,99,depth_duration_stimuli/001540_2014-06-20_17-01-05_260595134347_rgbf000086-resize_2/001540_2014-06-20_17-01-05_260595134347_rgbf000086-resize-original.jpg,125,1.459,0.0,6806,149,feet,jsons/VE125_randls_73.json,987037,1218047,29,Man
99,577833,DepthScenes,duration_manipulation_targetAtFixation,jsons/VE125_randls_73.json,http://54.235.29.9/FacialAge/BNav_EC2/DepthDuration/v2_depth_duration_MTurk/v2_DepthDuration_HTML.html#83,83,1364,768,1364,768,8-21-2022,11-39-43,100,depth_duration_stimuli/002445_2014-06-28_20-32-16_260595134347_rgbf000029-resize_4/002445_2014-06-28_20-32-16_260595134347_rgbf000029-resize_4-target.png,125,2.5315,2.0,5889,124,feet,jsons/VE125_randls_73.json,987037,1218047,29,Man
100,577833,DepthScenes,duration_manipulation_targetAtFixation,jsons/VE125_randls_73.json,http://54.235.29.9/FacialAge/BNav_EC2/DepthDuration/v2_depth_duration_MTurk/v2_DepthDuration_HTML.html#83,83,1364,768,1364,768,8-21-2022,11-39-43,101,depth_duration_stimuli/000780_2014-06-08_22-28-29_260595134347_rgbf000126-resize_1/000780_2014-06-08_22-28-29_260595134347_rgbf000126-resize_1-target.png,125,3.3825,0.0,3147,121,feet,jsons/VE125_randls_73.json,987037,1218047,29,Man
101,577833,DepthScenes,duration_manipulation_targetAtFixation,jsons/VE125_randls_73.json,http://54.235.29.9/FacialAge/BNav_EC2/DepthDuration/v2_depth_duration_MTurk/v2_DepthDuration_HTML.html#83,83,1364,768,1364,768,8-21-2022,11-39-43,102,depth_duration_stimuli/000692_2014-06-08_13-09-42_260595134347_rgbf000199-resize_2/000692_2014-06-08_13-09-42_260595134347_rgbf000199-resize_2-target.png,125,3.661,4.0,5178,123,feet,jsons/VE125_randls_73.json,987037,1218047,29,Man
102,577833,DepthScenes,duration_manipulation_targetAtFixation,jsons/VE125_randls_73.json,http://54.235.29.9/FacialAge/BNav_EC2/DepthDuration/v2_depth_duration_MTurk/v2_DepthDuration_HTML.html#83,83,1364,768,1364,768,8-21-2022,11-39-43,103,depth_duration_stimuli/001094_2014-06-15_17-36-00_260595134347_rgbf000205-resize_0/001094_2014-06-15_17-36-00_260595134347_rgbf000205-resize_0-target.png,125,4.2175,5.0,3797,127,feet,jsons/VE125_randls_73.json,987037,1218047,29,Man
103,577833,DepthScenes,duration_manipulation_targetAtFixation,jsons/VE125_randls_73.json,http://54.235.29.9/FacialAge/BNav_EC2/DepthDuration/v2_depth_duration_MTurk/v2_DepthDuration_HTML.html#83,83,1364,768,1364,768,8-21-2022,11-39-43,104,depth_duration_stimuli/002043_2014-06-24_20-29-38_260595134347_rgbf000039-resize_4/002043_2014-06-24_20-29-38_260595134347_rgbf000039-resize_4-target.png,125,2.8435,4.0,5547,236,feet,jsons/VE125_randls_73.json,987037,1218047,29,Man
104,577833,DepthScenes,duration_manipulation_targetAtFixation,jsons/VE125_randls_73.json,http://54.235.29.9/FacialAge/BNav_EC2/DepthDuration/v2_depth_duration_MTurk/v2_DepthDuration_HTML.html#83,83,1364,768,1364,768,8-21-2022,11-39-43,105,depth_duration_stimuli/003048_2014-06-15_13-49-43_094959634447_rgbf000150-resize_1/003048_2014-06-15_13-49-43_094959634447_rgbf000150-resize_1-target.png,125,4.0035,5.0,3455,124,feet,jsons/VE125_randls_73.json,987037,1218047,29,Man
105,577833,DepthScenes,duration_manipulation_targetAtFixation,jsons/VE125_randls_73.json,http://54.235.29.9/FacialAge/BNav_EC2/DepthDuration/v2_depth_duration_MTurk/v2_DepthDuration_HTML.html#83,83,1364,768,1364,768,8-21-2022,11-39-43,106,depth_duration_stimuli/001244_2014-06-17_16-47-45_260595134347_rgbf000030-resize_4/001244_2014-06-17_16-47-45_260595134347_rgbf000030-resize_4-target.png,125,2.0425,3.0,8548,125,feet,jsons/VE125_randls_73.json,987037,1218047,29,Man
106,577833,DepthScenes,duration_manipulation_targetAtFixation,jsons/VE125_randls_73.json,http://54.235.29.9/FacialAge/BNav_EC2/DepthDuration/v2_depth_duration_MTurk/v2_DepthDuration_HTML.html#83,83,1364,768,1364,768,8-21-2022,11-39-43,107,depth_duration_stimuli/003495_2014-05-21_16-01-51_094959634447_rgbf000100-resize_3/003495_2014-05-21_16-01-51_094959634447_rgbf000100-resize_3-target.png,125,1.6255,2.0,6221,94,feet,jsons/VE125_randls_73.json,987037,1218047,29,Man
107,577833,DepthScenes,duration_manipulation_targetAtFixation,jsons/VE125_randls_73.json,http://54.235.29.9/FacialAge/BNav_EC2/DepthDuration/v2_depth_duration_MTurk/v2_DepthDuration_HTML.html#83,83,1364,768,1364,768,8-21-2022,11-39-43,108,depth_duration_stimuli/002988_2014-06-15_12-24-20_094959634447_rgbf000150-resize_1/002988_2014-06-15_12-24-20_094959634447_rgbf000150-resize_1-target.png,125,4.7669999999999995,6.0,7341,125,feet,jsons/VE125_randls_73.json,987037,1218047,29,Man
108,577833,DepthScenes,duration_manipulation_targetAtFixation,jsons/VE125_randls_73.json,http://54.235.29.9/FacialAge/BNav_EC2/DepthDuration/v2_depth_duration_MTurk/v2_DepthDuration_HTML.html#83,83,1364,768,1364,768,8-21-2022,11-39-43,109,depth_duration_stimuli/001052_2014-06-08_18-24-54_260595134347_rgbf000130-resize_1/001052_2014-06-08_18-24-54_260595134347_rgbf000130-resize_1-target.png,125,4.1045,6.0,3574,122,feet,jsons/VE125_randls_73.json,987037,1218047,29,Man
109,577833,DepthScenes,duration_manipulation_targetAtFixation,jsons/VE125_randls_73.json,http://54.235.29.9/FacialAge/BNav_EC2/DepthDuration/v2_depth_duration_MTurk/v2_DepthDuration_HTML.html#83,83,1364,768,1364,768,8-21-2022,11-39-43,110,depth_duration_stimuli/000642_2014-06-08_16-59-25_260595134347_rgbf000098-resize_2/000642_2014-06-08_16-59-25_260595134347_rgbf000098-resize_2-target.png,125,2.8815,3.0,4724,113,feet,jsons/VE125_randls_73.json,987037,1218047,29,Man
110,577833,DepthScenes,duration_manipulation_targetAtFixation,jsons/VE125_randls_73.json,http://54.235.29.9/FacialAge/BNav_EC2/DepthDuration/v2_depth_duration_MTurk/v2_DepthDuration_HTML.html#83,83,1364,768,1364,768,8-21-2022,11-39-43,111,depth_duration_stimuli/002425_2014-06-28_20-27-29_260595134347_rgbf000031-resize_8/002425_2014-06-28_20-27-29_260595134347_rgbf000031-resize_8-target.png,125,3.8960000000000004,5.0,3877,143,feet,jsons/VE125_randls_73.json,987037,1218047,29,Man
111,577833,DepthScenes,duration_manipulation_targetAtFixation,jsons/VE125_randls_73.json,http://54.235.29.9/FacialAge/BNav_EC2/DepthDuration/v2_depth_duration_MTurk/v2_DepthDuration_HTML.html#83,83,1364,768,1364,768,8-21-2022,11-39-43,112,depth_duration_stimuli/003534_2014-05-22_15-06-10_094959634447_rgbf000102-resize_4/003534_2014-05-22_15-06-10_094959634447_rgbf000102-resize_4-target.png,125,1.426,1.0,4494,137,feet,jsons/VE125_randls_73.json,987037,1218047,29,Man
112,577833,DepthScenes,duration_manipulation_targetAtFixation,jsons/VE125_randls_73.json,http://54.235.29.9/FacialAge/BNav_EC2/DepthDuration/v2_depth_duration_MTurk/v2_DepthDuration_HTML.html#83,83,1364,768,1364,768,8-21-2022,11-39-43,113,depth_duration_stimuli/002637_2014-06-24_14-51-13_094959634447_rgbf000066-resize_4/002637_2014-06-24_14-51-13_094959634447_rgbf000066-resize_4-target.png,125,1.9955,0.0,2900,138,feet,jsons/VE125_randls_73.json,987037,1218047,29,Man
113,577833,DepthScenes,duration_manipulation_targetAtFixation,jsons/VE125_randls_73.json,http://54.235.29.9/FacialAge/BNav_EC2/DepthDuration/v2_depth_duration_MTurk/v2_DepthDuration_HTML.html#83,83,1364,768,1364,768,8-21-2022,11-39-43,114,depth_duration_stimuli/002272_2014-06-28_18-53-56_260595134347_rgbf000067-resize_2/002272_2014-06-28_18-53-56_260595134347_rgbf000067-resize_2-target.png,125,1.138,2.0,4718,125,feet,jsons/VE125_randls_73.json,987037,1218047,29,Man
114,577833,DepthScenes,duration_manipulation_targetAtFixation,jsons/VE125_randls_73.json,http://54.235.29.9/FacialAge/BNav_EC2/DepthDuration/v2_depth_duration_MTurk/v2_DepthDuration_HTML.html#83,83,1364,768,1364,768,8-21-2022,11-39-43,115,depth_duration_stimuli/001571_2014-06-20_17-21-32_260595134347_rgbf000089-resize_1/001571_2014-06-20_17-21-32_260595134347_rgbf000089-resize_1-target.png,125,1.86,3.0,3498,126,feet,jsons/VE125_randls_73.json,987037,1218047,29,Man
115,577833,DepthScenes,duration_manipulation_targetAtFixation,jsons/VE125_randls_73.json,http://54.235.29.9/FacialAge/BNav_EC2/DepthDuration/v2_depth_duration_MTurk/v2_DepthDuration_HTML.html#83,83,1364,768,1364,768,8-21-2022,11-39-43,116,depth_duration_stimuli/001170_2014-06-17_15-43-44_260595134347_rgbf000096-resize_6/001170_2014-06-17_15-43-44_260595134347_rgbf000096-resize-original.jpg,125,1.1909999999999998,0.0,4649,138,feet,jsons/VE125_randls_73.json,987037,1218047,29,Man
116,577833,DepthScenes,duration_manipulation_targetAtFixation,jsons/VE125_randls_73.json,http://54.235.29.9/FacialAge/BNav_EC2/DepthDuration/v2_depth_duration_MTurk/v2_DepthDuration_HTML.html#83,83,1364,768,1364,768,8-21-2022,11-39-43,117,depth_duration_stimuli/002989_2014-06-15_12-25-03_094959634447_rgbf000150-resize_3/002989_2014-06-15_12-25-03_094959634447_rgbf000150-resize_3-target.png,125,4.1975,5.0,4436,124,feet,jsons/VE125_randls_73.json,987037,1218047,29,Man
117,577833,DepthScenes,duration_manipulation_targetAtFixation,jsons/VE125_randls_73.json,http://54.235.29.9/FacialAge/BNav_EC2/DepthDuration/v2_depth_duration_MTurk/v2_DepthDuration_HTML.html#83,83,1364,768,1364,768,8-21-2022,11-39-43,118,depth_duration_stimuli/000866_2014-06-09_20-45-42_260595134347_rgbf000139-resize_1/000866_2014-06-09_20-45-42_260595134347_rgbf000139-resize_1-target.png,125,3.2155,3.0,3295,131,feet,jsons/VE125_randls_73.json,987037,1218047,29,Man
118,577833,DepthScenes,duration_manipulation_targetAtFixation,jsons/VE125_randls_73.json,http://54.235.29.9/FacialAge/BNav_EC2/DepthDuration/v2_depth_duration_MTurk/v2_DepthDuration_HTML.html#83,83,1364,768,1364,768,8-21-2022,11-39-43,119,depth_duration_stimuli/001810_2014-06-26_20-51-35_260595134347_rgbf000040-resize_3/001810_2014-06-26_20-51-35_260595134347_rgbf000040-resize_3-target.png,125,2.2525,2.0,5906,39,feet,jsons/VE125_randls_73.json,987037,1218047,29,Man
119,577833,DepthScenes,duration_manipulation_targetAtFixation,jsons/VE125_randls_73.json,http://54.235.29.9/FacialAge/BNav_EC2/DepthDuration/v2_depth_duration_MTurk/v2_DepthDuration_HTML.html#83,83,1364,768,1364,768,8-21-2022,11-39-43,120,depth_duration_stimuli/003010_2014-06-15_12-54-35_094959634447_rgbf000112-resize_0/003010_2014-06-15_12-54-35_094959634447_rgbf000112-resize_0-target.png,125,3.1185,5.0,4428,134,feet,jsons/VE125_randls_73.json,987037,1218047,29,Man
120,577833,DepthScenes,duration_manipulation_targetAtFixation,jsons/VE125_randls_73.json,http://54.235.29.9/FacialAge/BNav_EC2/DepthDuration/v2_depth_duration_MTurk/v2_DepthDuration_HTML.html#83,83,1364,768,1364,768,8-21-2022,11-39-43,121,depth_duration_stimuli/000739_2014-06-08_18-45-58_260595134347_rgbf000068-resize_1/000739_2014-06-08_18-45-58_260595134347_rgbf000068-resize_1-target.png,125,3.534,4.0,6366,127,feet,jsons/VE125_randls_73.json,987037,1218047,29,Man
121,577833,DepthScenes,duration_manipulation_targetAtFixation,jsons/VE125_randls_73.json,http://54.235.29.9/FacialAge/BNav_EC2/DepthDuration/v2_depth_duration_MTurk/v2_DepthDuration_HTML.html#83,83,1364,768,1364,768,8-21-2022,11-39-43,122,depth_duration_stimuli/000734_2014-06-08_17-39-11_260595134347_rgbf000128-resize_2/000734_2014-06-08_17-39-11_260595134347_rgbf000128-resize_2-target.png,125,4.098,4.0,31469,121,feet,jsons/VE125_randls_73.json,987037,1218047,29,Man
122,577833,DepthScenes,duration_manipulation_targetAtFixation,jsons/VE125_randls_73.json,http://54.235.29.9/FacialAge/BNav_EC2/DepthDuration/v2_depth_duration_MTurk/v2_DepthDuration_HTML.html#83,83,1364,768,1364,768,8-21-2022,11-39-43,123,depth_duration_stimuli/000470_2014-06-09_19-42-40_260595134347_rgbf000094-resize_1/000470_2014-06-09_19-42-40_260595134347_rgbf000094-resize_1-target.png,125,1.831,2.0,5127,125,feet,jsons/VE125_randls_73.json,987037,1218047,29,Man
123,577833,DepthScenes,duration_manipulation_targetAtFixation,jsons/VE125_randls_73.json,http://54.235.29.9/FacialAge/BNav_EC2/DepthDuration/v2_depth_duration_MTurk/v2_DepthDuration_HTML.html#83,83,1364,768,1364,768,8-21-2022,11-39-43,124,depth_duration_stimuli/000109_2014-05-14_23-41-52_260595134347_rgbf000035-resize_9/000109_2014-05-14_23-41-52_260595134347_rgbf000035-resize_9-target.png,125,1.3545,2.0,3131,88,feet,jsons/VE125_randls_73.json,987037,1218047,29,Man
124,577833,DepthScenes,duration_manipulation_targetAtFixation,jsons/VE125_randls_73.json,http://54.235.29.9/FacialAge/BNav_EC2/DepthDuration/v2_depth_duration_MTurk/v2_DepthDuration_HTML.html#83,83,1364,768,1364,768,8-21-2022,11-39-43,125,depth_duration_stimuli/002905_2014-06-03_18-04-43_094959634447_rgbf000151-resize_2/002905_2014-06-03_18-04-43_094959634447_rgbf000151-resize_2-target.png,125,2.0295,3.0,7825,121,feet,jsons/VE125_randls_73.json,987037,1218047,29,Man
125,577833,DepthScenes,duration_manipulation_targetAtFixation,jsons/VE125_randls_73.json,http://54.235.29.9/FacialAge/BNav_EC2/DepthDuration/v2_depth_duration_MTurk/v2_DepthDuration_HTML.html#83,83,1364,768,1364,768,8-21-2022,11-39-43,126,depth_duration_stimuli/003423_2014-05-21_10-23-26_094959634447_rgbf002665-resize_2/003423_2014-05-21_10-23-26_094959634447_rgbf002665-resize_2-target.png,125,3.2575,3.0,28089,125,feet,jsons/VE125_randls_73.json,987037,1218047,29,Man
126,577833,DepthScenes,duration_manipulation_targetAtFixation,jsons/VE125_randls_73.json,http://54.235.29.9/FacialAge/BNav_EC2/DepthDuration/v2_depth_duration_MTurk/v2_DepthDuration_HTML.html#83,83,1364,768,1364,768,8-21-2022,11-39-43,127,depth_duration_stimuli/001570_2014-06-20_17-21-09_260595134347_rgbf000135-resize_4/001570_2014-06-20_17-21-09_260595134347_rgbf000135-resize_4-target.png,125,4.467,5.0,6241,123,feet,jsons/VE125_randls_73.json,987037,1218047,29,Man
127,577833,DepthScenes,duration_manipulation_targetAtFixation,jsons/VE125_randls_73.json,http://54.235.29.9/FacialAge/BNav_EC2/DepthDuration/v2_depth_duration_MTurk/v2_DepthDuration_HTML.html#83,83,1364,768,1364,768,8-21-2022,11-39-43,128,depth_duration_stimuli/001392_2014-06-19_16-07-59_260595134347_rgbf000046-resize_1/001392_2014-06-19_16-07-59_260595134347_rgbf000046-resize_1-target.png,125,4.135,3.0,3467,129,feet,jsons/VE125_randls_73.json,987037,1218047,29,Man
128,577833,DepthScenes,duration_manipulation_targetAtFixation,jsons/VE125_randls_73.json,http://54.235.29.9/FacialAge/BNav_EC2/DepthDuration/v2_depth_duration_MTurk/v2_DepthDuration_HTML.html#83,83,1364,768,1364,768,8-21-2022,11-39-43,129,depth_duration_stimuli/002509_2014-06-24_13-19-22_094959634447_rgbf000077-resize_0/002509_2014-06-24_13-19-22_094959634447_rgbf000077-resize_0-target.png,125,1.3065,1.0,5089,125,feet,jsons/VE125_randls_73.json,987037,1218047,29,Man
129,577833,DepthScenes,duration_manipulation_targetAtFixation,jsons/VE125_randls_73.json,http://54.235.29.9/FacialAge/BNav_EC2/DepthDuration/v2_depth_duration_MTurk/v2_DepthDuration_HTML.html#83,83,1364,768,1364,768,8-21-2022,11-39-43,130,depth_duration_stimuli/003338_2014-05-20_11-01-23_094959634447_rgbf000051-resize_6/003338_2014-05-20_11-01-23_094959634447_rgbf000051-resize_6-target.png,125,1.693,3.0,3186,126,feet,jsons/VE125_randls_73.json,987037,1218047,29,Man
130,577833,DepthScenes,duration_manipulation_targetAtFixation,jsons/VE125_randls_73.json,http://54.235.29.9/FacialAge/BNav_EC2/DepthDuration/v2_depth_duration_MTurk/v2_DepthDuration_HTML.html#83,83,1364,768,1364,768,8-21-2022,11-39-43,131,depth_duration_stimuli/000506_2014-06-08_23-21-00_260595134347_rgbf000070-resize_7/000506_2014-06-08_23-21-00_260595134347_rgbf000070-resize_7-target.png,125,4.0585,5.0,4508,123,feet,jsons/VE125_randls_73.json,987037,1218047,29,Man
131,577833,DepthScenes,duration_manipulation_targetAtFixation,jsons/VE125_randls_73.json,http://54.235.29.9/FacialAge/BNav_EC2/DepthDuration/v2_depth_duration_MTurk/v2_DepthDuration_HTML.html#83,83,1364,768,1364,768,8-21-2022,11-39-43,132,depth_duration_stimuli/003079_2014-06-15_15-18-20_094959634447_rgbf000152-resize_8/003079_2014-06-15_15-18-20_094959634447_rgbf000152-resize_8-target.png,125,2.8775,5.0,3443,125,feet,jsons/VE125_randls_73.json,987037,1218047,29,Man
132,577833,DepthScenes,duration_manipulation_targetAtFixation,jsons/VE125_randls_73.json,http://54.235.29.9/FacialAge/BNav_EC2/DepthDuration/v2_depth_duration_MTurk/v2_DepthDuration_HTML.html#83,83,1364,768,1364,768,8-21-2022,11-39-43,133,depth_duration_stimuli/001164_2014-06-17_15-35-46_260595134347_rgbf000085-resize_3/001164_2014-06-17_15-35-46_260595134347_rgbf000085-resize_3-target.png,125,2.354,4.0,6887,131,feet,jsons/VE125_randls_73.json,987037,1218047,29,Man
133,577833,DepthScenes,duration_manipulation_targetAtFixation,jsons/VE125_randls_73.json,http://54.235.29.9/FacialAge/BNav_EC2/DepthDuration/v2_depth_duration_MTurk/v2_DepthDuration_HTML.html#83,83,1364,768,1364,768,8-21-2022,11-39-43,134,depth_duration_stimuli/001136_2014-06-17_15-19-41_260595134347_rgbf000076-resize_3/001136_2014-06-17_15-19-41_260595134347_rgbf000076-resize_3-target.png,125,1.8655,3.0,9324,128,feet,jsons/VE125_randls_73.json,987037,1218047,29,Man
134,577833,DepthScenes,duration_manipulation_targetAtFixation,jsons/VE125_randls_73.json,http://54.235.29.9/FacialAge/BNav_EC2/DepthDuration/v2_depth_duration_MTurk/v2_DepthDuration_HTML.html#83,83,1364,768,1364,768,8-21-2022,11-39-43,135,depth_duration_stimuli/002072_2014-06-24_21-48-06_260595134347_rgbf000115-resize_0/002072_2014-06-24_21-48-06_260595134347_rgbf000115-resize-original.jpg,125,4.702,0.0,8115,121,feet,jsons/VE125_randls_73.json,987037,1218047,29,Man
135,577833,DepthScenes,duration_manipulation_targetAtFixation,jsons/VE125_randls_73.json,http://54.235.29.9/FacialAge/BNav_EC2/DepthDuration/v2_depth_duration_MTurk/v2_DepthDuration_HTML.html#83,83,1364,768,1364,768,8-21-2022,11-39-43,136,depth_duration_stimuli/000788_2014-06-08_22-34-36_260595134347_rgbf000131-resize_1/000788_2014-06-08_22-34-36_260595134347_rgbf000131-resize_1-target.png,125,3.359,3.0,7506,122,feet,jsons/VE125_randls_73.json,987037,1218047,29,Man
136,577833,DepthScenes,duration_manipulation_targetAtFixation,jsons/VE125_randls_73.json,http://54.235.29.9/FacialAge/BNav_EC2/DepthDuration/v2_depth_duration_MTurk/v2_DepthDuration_HTML.html#83,83,1364,768,1364,768,8-21-2022,11-39-43,137,depth_duration_stimuli/001235_2014-06-17_16-37-36_260595134347_rgbf000084-resize_4/001235_2014-06-17_16-37-36_260595134347_rgbf000084-resize_4-target.png,125,3.6605,4.0,3739,125,feet,jsons/VE125_randls_73.json,987037,1218047,29,Man
137,577833,DepthScenes,duration_manipulation_targetAtFixation,jsons/VE125_randls_73.json,http://54.235.29.9/FacialAge/BNav_EC2/DepthDuration/v2_depth_duration_MTurk/v2_DepthDuration_HTML.html#83,83,1364,768,1364,768,8-21-2022,11-39-43,138,depth_duration_stimuli/000522_2014-06-08_13-35-06_260595134347_rgbf000244-resize_1/000522_2014-06-08_13-35-06_260595134347_rgbf000244-resize_1-target.png,125,2.3715,2.0,5631,134,feet,jsons/VE125_randls_73.json,987037,1218047,29,Man
138,577833,DepthScenes,duration_manipulation_targetAtFixation,jsons/VE125_randls_73.json,http://54.235.29.9/FacialAge/BNav_EC2/DepthDuration/v2_depth_duration_MTurk/v2_DepthDuration_HTML.html#83,83,1364,768,1364,768,8-21-2022,11-39-43,139,depth_duration_stimuli/002949_2014-06-26_15-57-42_094959634447_rgbf000079-resize_1/002949_2014-06-26_15-57-42_094959634447_rgbf000079-resize_1-target.png,125,1.8915,3.0,3448,127,feet,jsons/VE125_randls_73.json,987037,1218047,29,Man
139,577833,DepthScenes,duration_manipulation_targetAtFixation,jsons/VE125_randls_73.json,http://54.235.29.9/FacialAge/BNav_EC2/DepthDuration/v2_depth_duration_MTurk/v2_DepthDuration_HTML.html#83,83,1364,768,1364,768,8-21-2022,11-39-43,140,depth_duration_stimuli/001092_2014-06-15_17-34-58_260595134347_rgbf000171-resize_3/001092_2014-06-15_17-34-58_260595134347_rgbf000171-resize_3-target.png,125,2.6935,3.0,4802,124,feet,jsons/VE125_randls_73.json,987037,1218047,29,Man
140,577833,DepthScenes,duration_manipulation_targetAtFixation,jsons/VE125_randls_73.json,http://54.235.29.9/FacialAge/BNav_EC2/DepthDuration/v2_depth_duration_MTurk/v2_DepthDuration_HTML.html#83,83,1364,768,1364,768,8-21-2022,11-39-43,141,depth_duration_stimuli/002545_2014-06-24_13-38-53_094959634447_rgbf000080-resize_4/002545_2014-06-24_13-38-53_094959634447_rgbf000080-resize_4-target.png,125,1.9205,4.0,3705,126,feet,jsons/VE125_randls_73.json,987037,1218047,29,Man
141,577833,DepthScenes,duration_manipulation_targetAtFixation,jsons/VE125_randls_73.json,http://54.235.29.9/FacialAge/BNav_EC2/DepthDuration/v2_depth_duration_MTurk/v2_DepthDuration_HTML.html#83,83,1364,768,1364,768,8-21-2022,11-39-43,142,depth_duration_stimuli/001167_2014-06-17_15-38-07_260595134347_rgbf000108-resize_0/001167_2014-06-17_15-38-07_260595134347_rgbf000108-resize_0-target.png,125,1.8505,2.0,8854,123,feet,jsons/VE125_randls_73.json,987037,1218047,29,Man
142,577833,DepthScenes,duration_manipulation_targetAtFixation,jsons/VE125_randls_73.json,http://54.235.29.9/FacialAge/BNav_EC2/DepthDuration/v2_depth_duration_MTurk/v2_DepthDuration_HTML.html#83,83,1364,768,1364,768,8-21-2022,11-39-43,143,depth_duration_stimuli/003587_2014-05-23_16-48-02_094959634447_rgbf002384-resize_2/003587_2014-05-23_16-48-02_094959634447_rgbf002384-resize_2-target.png,125,1.357,1.0,3205,124,feet,jsons/VE125_randls_73.json,987037,1218047,29,Man
143,577833,DepthScenes,duration_manipulation_targetAtFixation,jsons/VE125_randls_73.json,http://54.235.29.9/FacialAge/BNav_EC2/DepthDuration/v2_depth_duration_MTurk/v2_DepthDuration_HTML.html#83,83,1364,768,1364,768,8-21-2022,11-39-43,144,depth_duration_stimuli/001417_2014-06-19_16-25-36_260595134347_rgbf000115-resize_5/001417_2014-06-19_16-25-36_260595134347_rgbf000115-resize_5-target.png,125,4.6255,4.0,9612,125,feet,jsons/VE125_randls_73.json,987037,1218047,29,Man
144,577833,DepthScenes,duration_manipulation_targetAtFixation,jsons/VE125_randls_73.json,http://54.235.29.9/FacialAge/BNav_EC2/DepthDuration/v2_depth_duration_MTurk/v2_DepthDuration_HTML.html#83,83,1364,768,1364,768,8-21-2022,11-39-43,145,depth_duration_stimuli/003081_2014-06-15_15-19-16_094959634447_rgbf000150-resize_1/003081_2014-06-15_15-19-16_094959634447_rgbf000150-resize_1-target.png,125,3.9125,4.0,4331,99,feet,jsons/VE125_randls_73.json,987037,1218047,29,Man
145,577833,DepthScenes,duration_manipulation_targetAtFixation,jsons/VE125_randls_73.json,http://54.235.29.9/FacialAge/BNav_EC2/DepthDuration/v2_depth_duration_MTurk/v2_DepthDuration_HTML.html#83,83,1364,768,1364,768,8-21-2022,11-39-43,146,depth_duration_stimuli/001498_2014-06-19_17-45-14_260595134347_rgbf000129-resize_4/001498_2014-06-19_17-45-14_260595134347_rgbf000129-resize-original.jpg,125,1.4075,0.0,6165,129,feet,jsons/VE125_randls_73.json,987037,1218047,29,Man
146,577833,DepthScenes,duration_manipulation_targetAtFixation,jsons/VE125_randls_73.json,http://54.235.29.9/FacialAge/BNav_EC2/DepthDuration/v2_depth_duration_MTurk/v2_DepthDuration_HTML.html#83,83,1364,768,1364,768,8-21-2022,11-39-43,147,depth_duration_stimuli/001056_2014-06-08_18-46-44_260595134347_rgbf000068-resize_0/001056_2014-06-08_18-46-44_260595134347_rgbf000068-resize_0-target.png,125,2.6625,4.0,5706,125,feet,jsons/VE125_randls_73.json,987037,1218047,29,Man
147,577833,DepthScenes,duration_manipulation_targetAtFixation,jsons/VE125_randls_73.json,http://54.235.29.9/FacialAge/BNav_EC2/DepthDuration/v2_depth_duration_MTurk/v2_DepthDuration_HTML.html#83,83,1364,768,1364,768,8-21-2022,11-39-43,148,depth_duration_stimuli/002199_2014-06-28_18-33-56_260595134347_rgbf000074-resize_0/002199_2014-06-28_18-33-56_260595134347_rgbf000074-resize_0-target.png,125,1.996,2.0,3915,125,feet,jsons/VE125_randls_73.json,987037,1218047,29,Man
148,577833,DepthScenes,duration_manipulation_targetAtFixation,jsons/VE125_randls_73.json,http://54.235.29.9/FacialAge/BNav_EC2/DepthDuration/v2_depth_duration_MTurk/v2_DepthDuration_HTML.html#83,83,1364,768,1364,768,8-21-2022,11-39-43,149,depth_duration_stimuli/001175_2014-06-17_15-45-55_260595134347_rgbf000129-resize_4/001175_2014-06-17_15-45-55_260595134347_rgbf000129-resize_4-target.png,125,4.255,5.0,5265,126,feet,jsons/VE125_randls_73.json,987037,1218047,29,Man
149,577833,DepthScenes,duration_manipulation_targetAtFixation,jsons/VE125_randls_73.json,http://54.235.29.9/FacialAge/BNav_EC2/DepthDuration/v2_depth_duration_MTurk/v2_DepthDuration_HTML.html#83,83,1364,768,1364,768,8-21-2022,11-39-43,150,depth_duration_stimuli/003490_2014-05-21_15-50-11_094959634447_rgbf000101-resize_3/003490_2014-05-21_15-50-11_094959634447_rgbf000101-resize_3-target.png,125,3.6445,5.0,3473,126,feet,jsons/VE125_randls_73.json,987037,1218047,29,Man
150,577833,DepthScenes,duration_manipulation_targetAtFixation,jsons/VE125_randls_73.json,http://54.235.29.9/FacialAge/BNav_EC2/DepthDuration/v2_depth_duration_MTurk/v2_DepthDuration_HTML.html#83,83,1364,768,1364,768,8-21-2022,11-39-43,151,depth_duration_stimuli/002375_2014-06-28_20-13-44_260595134347_rgbf000032-resize_1/002375_2014-06-28_20-13-44_260595134347_rgbf000032-resize_1-target.png,125,4.0175,3.0,13370,125,feet,jsons/VE125_randls_73.json,987037,1218047,29,Man
151,577833,DepthScenes,duration_manipulation_targetAtFixation,jsons/VE125_randls_73.json,http://54.235.29.9/FacialAge/BNav_EC2/DepthDuration/v2_depth_duration_MTurk/v2_DepthDuration_HTML.html#83,83,1364,768,1364,768,8-21-2022,11-39-43,152,depth_duration_stimuli/002657_2014-06-13_15-29-54_094959634447_rgbf000150-resize_1/002657_2014-06-13_15-29-54_094959634447_rgbf000150-resize_1-target.png,125,4.919,4.0,5306,134,feet,jsons/VE125_randls_73.json,987037,1218047,29,Man
152,577833,DepthScenes,duration_manipulation_targetAtFixation,jsons/VE125_randls_73.json,http://54.235.29.9/FacialAge/BNav_EC2/DepthDuration/v2_depth_duration_MTurk/v2_DepthDuration_HTML.html#83,83,1364,768,1364,768,8-21-2022,11-39-43,153,depth_duration_stimuli/002118_2014-06-25_20-32-08_260595134347_rgbf000078-resize_1/002118_2014-06-25_20-32-08_260595134347_rgbf000078-resize_1-target.png,125,2.6460000000000004,3.0,18812,120,feet,jsons/VE125_randls_73.json,987037,1218047,29,Man
153,577833,DepthScenes,duration_manipulation_targetAtFixation,jsons/VE125_randls_73.json,http://54.235.29.9/FacialAge/BNav_EC2/DepthDuration/v2_depth_duration_MTurk/v2_DepthDuration_HTML.html#83,83,1364,768,1364,768,8-21-2022,11-39-43,154,depth_duration_stimuli/001516_2014-06-20_16-25-09_260595134347_rgbf000076-resize_2/001516_2014-06-20_16-25-09_260595134347_rgbf000076-resize_2-target.png,125,1.7445,4.0,3951,119,feet,jsons/VE125_randls_73.json,987037,1218047,29,Man
154,577833,DepthScenes,duration_manipulation_targetAtFixation,jsons/VE125_randls_73.json,http://54.235.29.9/FacialAge/BNav_EC2/DepthDuration/v2_depth_duration_MTurk/v2_DepthDuration_HTML.html#83,83,1364,768,1364,768,8-21-2022,11-39-43,155,depth_duration_stimuli/000929_2014-06-09_16-33-19_260595134347_rgbf000139-resize_0/000929_2014-06-09_16-33-19_260595134347_rgbf000139-resize_0-target.png,125,2.8680000000000003,3.0,5911,125,feet,jsons/VE125_randls_73.json,987037,1218047,29,Man
155,577833,DepthScenes,duration_manipulation_targetAtFixation,jsons/VE125_randls_73.json,http://54.235.29.9/FacialAge/BNav_EC2/DepthDuration/v2_depth_duration_MTurk/v2_DepthDuration_HTML.html#83,83,1364,768,1364,768,8-21-2022,11-39-43,156,depth_duration_stimuli/000457_2014-06-08_16-52-43_260595134347_rgbf000199-resize_1/000457_2014-06-08_16-52-43_260595134347_rgbf000199-resize_1-target.png,125,3.6489999999999996,4.0,3678,120,feet,jsons/VE125_randls_73.json,987037,1218047,29,Man
156,577833,DepthScenes,duration_manipulation_targetAtFixation,jsons/VE125_randls_73.json,http://54.235.29.9/FacialAge/BNav_EC2/DepthDuration/v2_depth_duration_MTurk/v2_DepthDuration_HTML.html#83,83,1364,768,1364,768,8-21-2022,11-39-43,157,depth_duration_stimuli/001133_2014-06-17_14-49-16_260595134347_rgbf000100-resize_0/001133_2014-06-17_14-49-16_260595134347_rgbf000100-resize_0-target.png,125,4.2115,4.0,5931,125,feet,jsons/VE125_randls_73.json,987037,1218047,29,Man
157,577833,DepthScenes,duration_manipulation_targetAtFixation,jsons/VE125_randls_73.json,http://54.235.29.9/FacialAge/BNav_EC2/DepthDuration/v2_depth_duration_MTurk/v2_DepthDuration_HTML.html#83,83,1364,768,1364,768,8-21-2022,11-39-43,158,depth_duration_stimuli/001132_2014-06-17_14-48-54_260595134347_rgbf000100-resize_2/001132_2014-06-17_14-48-54_260595134347_rgbf000100-resize_2-target.png,125,3.753,5.0,3675,138,feet,jsons/VE125_randls_73.json,987037,1218047,29,Man
158,577833,DepthScenes,duration_manipulation_targetAtFixation,jsons/VE125_randls_73.json,http://54.235.29.9/FacialAge/BNav_EC2/DepthDuration/v2_depth_duration_MTurk/v2_DepthDuration_HTML.html#83,83,1364,768,1364,768,8-21-2022,11-39-43,159,depth_duration_stimuli/003492_2014-05-21_15-50-55_094959634447_rgbf000828-resize_1/003492_2014-05-21_15-50-55_094959634447_rgbf000828-resize_1-target.png,125,4.06875,6.0,9651,112,feet,jsons/VE125_randls_73.json,987037,1218047,29,Man
159,577833,DepthScenes,duration_manipulation_targetAtFixation,jsons/VE125_randls_73.json,http://54.235.29.9/FacialAge/BNav_EC2/DepthDuration/v2_depth_duration_MTurk/v2_DepthDuration_HTML.html#83,83,1364,768,1364,768,8-21-2022,11-39-43,160,depth_duration_stimuli/002568_2014-06-24_13-59-21_094959634447_rgbf000062-resize_4/002568_2014-06-24_13-59-21_094959634447_rgbf000062-resize_4-target.png,125,3.015,0.0,4147,125,feet,jsons/VE125_randls_73.json,987037,1218047,29,Man
160,577833,DepthScenes,duration_manipulation_targetAtFixation,jsons/VE125_randls_73.json,http://54.235.29.9/FacialAge/BNav_EC2/DepthDuration/v2_depth_duration_MTurk/v2_DepthDuration_HTML.html#83,83,1364,768,1364,768,8-21-2022,11-39-43,161,depth_duration_stimuli/002630_2014-06-24_14-47-50_094959634447_rgbf000055-resize_1/002630_2014-06-24_14-47-50_094959634447_rgbf000055-resize_1-target.png,125,3.0095,4.0,15836,129,feet,jsons/VE125_randls_73.json,987037,1218047,29,Man
161,577833,DepthScenes,duration_manipulation_targetAtFixation,jsons/VE125_randls_73.json,http://54.235.29.9/FacialAge/BNav_EC2/DepthDuration/v2_depth_duration_MTurk/v2_DepthDuration_HTML.html#83,83,1364,768,1364,768,8-21-2022,11-39-43,162,depth_duration_stimuli/002758_2014-06-22_19-11-20_094959634447_rgbf000128-resize_1/002758_2014-06-22_19-11-20_094959634447_rgbf000128-resize_1-target.png,125,2.555,4.0,3523,126,feet,jsons/VE125_randls_73.json,987037,1218047,29,Man
162,577833,DepthScenes,duration_manipulation_targetAtFixation,jsons/VE125_randls_73.json,http://54.235.29.9/FacialAge/BNav_EC2/DepthDuration/v2_depth_duration_MTurk/v2_DepthDuration_HTML.html#83,83,1364,768,1364,768,8-21-2022,11-39-43,163,depth_duration_stimuli/002788_2014-06-22_19-36-03_094959634447_rgbf000088-resize_2/002788_2014-06-22_19-36-03_094959634447_rgbf000088-resize_2-target.png,125,1.6465,4.0,4662,140,feet,jsons/VE125_randls_73.json,987037,1218047,29,Man
163,577833,DepthScenes,duration_manipulation_targetAtFixation,jsons/VE125_randls_73.json,http://54.235.29.9/FacialAge/BNav_EC2/DepthDuration/v2_depth_duration_MTurk/v2_DepthDuration_HTML.html#83,83,1364,768,1364,768,8-21-2022,11-39-43,164,depth_duration_stimuli/000749_2014-06-08_21-55-06_260595134347_rgbf000070-resize_2/000749_2014-06-08_21-55-06_260595134347_rgbf000070-resize_2-target.png,125,2.331,4.0,4540,124,feet,jsons/VE125_randls_73.json,987037,1218047,29,Man
