,subjID,experimentName,versionName,sequenceName,url,selected_row,windowWidth,windowHeight,screenWidth,screenHeight,startDate,startTime,trial,stimulus,duration,actual_depth,depth_estimate,trial_RT,log_sceneDuration,unitSelection,seq_filepath,experimentTime,totalTime,age,gender
0,579243,DepthScenes,duration_manipulation_targetAtFixation,jsons/VE125_randls_18.json,http://54.235.29.9/FacialAge/BNav_EC2/DepthDuration/v2_depth_duration_MTurk/v2_DepthDuration_HTML.html#60,60,1240,698,1364,768,8-29-2022,7-41-43,1,depth_duration_stimuli/002509_2014-06-24_13-19-22_094959634447_rgbf000077-resize_0/002509_2014-06-24_13-19-22_094959634447_rgbf000077-resize_0-target.png,125,1.3065,1,8995,124,meters,jsons/VE125_randls_18.json,2309126,2521342,25,Man
1,579243,DepthScenes,duration_manipulation_targetAtFixation,jsons/VE125_randls_18.json,http://54.235.29.9/FacialAge/BNav_EC2/DepthDuration/v2_depth_duration_MTurk/v2_DepthDuration_HTML.html#60,60,1240,698,1364,768,8-29-2022,7-41-43,2,depth_duration_stimuli/003338_2014-05-20_11-01-23_094959634447_rgbf000051-resize_6/003338_2014-05-20_11-01-23_094959634447_rgbf000051-resize_6-target.png,125,1.693,1,59982,175,meters,jsons/VE125_randls_18.json,2309126,2521342,25,Man
2,579243,DepthScenes,duration_manipulation_targetAtFixation,jsons/VE125_randls_18.json,http://54.235.29.9/FacialAge/BNav_EC2/DepthDuration/v2_depth_duration_MTurk/v2_DepthDuration_HTML.html#60,60,1240,698,1364,768,8-29-2022,7-41-43,3,depth_duration_stimuli/002375_2014-06-28_20-13-44_260595134347_rgbf000032-resize_1/002375_2014-06-28_20-13-44_260595134347_rgbf000032-resize_1-target.png,125,4.0175,0,37938,153,meters,jsons/VE125_randls_18.json,2309126,2521342,25,Man
3,579243,DepthScenes,duration_manipulation_targetAtFixation,jsons/VE125_randls_18.json,http://54.235.29.9/FacialAge/BNav_EC2/DepthDuration/v2_depth_duration_MTurk/v2_DepthDuration_HTML.html#60,60,1240,698,1364,768,8-29-2022,7-41-43,4,depth_duration_stimuli/002657_2014-06-13_15-29-54_094959634447_rgbf000150-resize_1/002657_2014-06-13_15-29-54_094959634447_rgbf000150-resize_1-target.png,125,4.919,1,62131,124,meters,jsons/VE125_randls_18.json,2309126,2521342,25,Man
4,579243,DepthScenes,duration_manipulation_targetAtFixation,jsons/VE125_randls_18.json,http://54.235.29.9/FacialAge/BNav_EC2/DepthDuration/v2_depth_duration_MTurk/v2_DepthDuration_HTML.html#60,60,1240,698,1364,768,8-29-2022,7-41-43,5,depth_duration_stimuli/001110_2014-06-15_17-25-28_260595134347_rgbf000150-resize_1/001110_2014-06-15_17-25-28_260595134347_rgbf000150-resize_1-target.png,125,1.7115,0,7495,124,meters,jsons/VE125_randls_18.json,2309126,2521342,25,Man
5,579243,DepthScenes,duration_manipulation_targetAtFixation,jsons/VE125_randls_18.json,http://54.235.29.9/FacialAge/BNav_EC2/DepthDuration/v2_depth_duration_MTurk/v2_DepthDuration_HTML.html#60,60,1240,698,1364,768,8-29-2022,7-41-43,6,depth_duration_stimuli/000927_2014-06-09_16-32-30_260595134347_rgbf000123-resize_3/000927_2014-06-09_16-32-30_260595134347_rgbf000123-resize_3-target.png,125,2.6785,0,9406,172,meters,jsons/VE125_randls_18.json,2309126,2521342,25,Man
6,579243,DepthScenes,duration_manipulation_targetAtFixation,jsons/VE125_randls_18.json,http://54.235.29.9/FacialAge/BNav_EC2/DepthDuration/v2_depth_duration_MTurk/v2_DepthDuration_HTML.html#60,60,1240,698,1364,768,8-29-2022,7-41-43,7,depth_duration_stimuli/000692_2014-06-08_13-09-42_260595134347_rgbf000199-resize_2/000692_2014-06-08_13-09-42_260595134347_rgbf000199-resize_2-target.png,125,3.661,1,18303,124,meters,jsons/VE125_randls_18.json,2309126,2521342,25,Man
7,579243,DepthScenes,duration_manipulation_targetAtFixation,jsons/VE125_randls_18.json,http://54.235.29.9/FacialAge/BNav_EC2/DepthDuration/v2_depth_duration_MTurk/v2_DepthDuration_HTML.html#60,60,1240,698,1364,768,8-29-2022,7-41-43,8,depth_duration_stimuli/001094_2014-06-15_17-36-00_260595134347_rgbf000205-resize_0/001094_2014-06-15_17-36-00_260595134347_rgbf000205-resize_0-target.png,125,4.2175,0,5209,128,meters,jsons/VE125_randls_18.json,2309126,2521342,25,Man
8,579243,DepthScenes,duration_manipulation_targetAtFixation,jsons/VE125_randls_18.json,http://54.235.29.9/FacialAge/BNav_EC2/DepthDuration/v2_depth_duration_MTurk/v2_DepthDuration_HTML.html#60,60,1240,698,1364,768,8-29-2022,7-41-43,9,depth_duration_stimuli/001417_2014-06-19_16-25-36_260595134347_rgbf000115-resize_5/001417_2014-06-19_16-25-36_260595134347_rgbf000115-resize_5-target.png,125,4.6255,0,12081,123,meters,jsons/VE125_randls_18.json,2309126,2521342,25,Man
9,579243,DepthScenes,duration_manipulation_targetAtFixation,jsons/VE125_randls_18.json,http://54.235.29.9/FacialAge/BNav_EC2/DepthDuration/v2_depth_duration_MTurk/v2_DepthDuration_HTML.html#60,60,1240,698,1364,768,8-29-2022,7-41-43,10,depth_duration_stimuli/003081_2014-06-15_15-19-16_094959634447_rgbf000150-resize_1/003081_2014-06-15_15-19-16_094959634447_rgbf000150-resize_1-target.png,125,3.9125,1,10817,124,meters,jsons/VE125_randls_18.json,2309126,2521342,25,Man
10,579243,DepthScenes,duration_manipulation_targetAtFixation,jsons/VE125_randls_18.json,http://54.235.29.9/FacialAge/BNav_EC2/DepthDuration/v2_depth_duration_MTurk/v2_DepthDuration_HTML.html#60,60,1240,698,1364,768,8-29-2022,7-41-43,11,depth_duration_stimuli/001055_2014-06-08_18-45-35_260595134347_rgbf000111-resize_4/001055_2014-06-08_18-45-35_260595134347_rgbf000111-resize_4-target.png,125,2.4290000000000003,0,9202,123,meters,jsons/VE125_randls_18.json,2309126,2521342,25,Man
11,579243,DepthScenes,duration_manipulation_targetAtFixation,jsons/VE125_randls_18.json,http://54.235.29.9/FacialAge/BNav_EC2/DepthDuration/v2_depth_duration_MTurk/v2_DepthDuration_HTML.html#60,60,1240,698,1364,768,8-29-2022,7-41-43,12,depth_duration_stimuli/000549_2014-06-08_22-10-24_260595134347_rgbf000247-resize_3/000549_2014-06-08_22-10-24_260595134347_rgbf000247-resize_3-target.png,125,1.841,1,5169,129,meters,jsons/VE125_randls_18.json,2309126,2521342,25,Man
12,579243,DepthScenes,duration_manipulation_targetAtFixation,jsons/VE125_randls_18.json,http://54.235.29.9/FacialAge/BNav_EC2/DepthDuration/v2_depth_duration_MTurk/v2_DepthDuration_HTML.html#60,60,1240,698,1364,768,8-29-2022,7-41-43,13,depth_duration_stimuli/000569_2014-06-09_22-51-47_260595134347_rgbf000141-resize_3/000569_2014-06-09_22-51-47_260595134347_rgbf000141-resize-original.jpg,125,4.512,0,5371,127,meters,jsons/VE125_randls_18.json,2309126,2521342,25,Man
13,579243,DepthScenes,duration_manipulation_targetAtFixation,jsons/VE125_randls_18.json,http://54.235.29.9/FacialAge/BNav_EC2/DepthDuration/v2_depth_duration_MTurk/v2_DepthDuration_HTML.html#60,60,1240,698,1364,768,8-29-2022,7-41-43,14,depth_duration_stimuli/001175_2014-06-17_15-45-55_260595134347_rgbf000129-resize_4/001175_2014-06-17_15-45-55_260595134347_rgbf000129-resize_4-target.png,125,4.255,0,9233,124,meters,jsons/VE125_randls_18.json,2309126,2521342,25,Man
14,579243,DepthScenes,duration_manipulation_targetAtFixation,jsons/VE125_randls_18.json,http://54.235.29.9/FacialAge/BNav_EC2/DepthDuration/v2_depth_duration_MTurk/v2_DepthDuration_HTML.html#60,60,1240,698,1364,768,8-29-2022,7-41-43,15,depth_duration_stimuli/003490_2014-05-21_15-50-11_094959634447_rgbf000101-resize_3/003490_2014-05-21_15-50-11_094959634447_rgbf000101-resize_3-target.png,125,3.6445,1,8666,122,meters,jsons/VE125_randls_18.json,2309126,2521342,25,Man
15,579243,DepthScenes,duration_manipulation_targetAtFixation,jsons/VE125_randls_18.json,http://54.235.29.9/FacialAge/BNav_EC2/DepthDuration/v2_depth_duration_MTurk/v2_DepthDuration_HTML.html#60,60,1240,698,1364,768,8-29-2022,7-41-43,16,depth_duration_stimuli/000788_2014-06-08_22-34-36_260595134347_rgbf000131-resize_1/000788_2014-06-08_22-34-36_260595134347_rgbf000131-resize_1-target.png,125,3.359,1,8862,129,meters,jsons/VE125_randls_18.json,2309126,2521342,25,Man
16,579243,DepthScenes,duration_manipulation_targetAtFixation,jsons/VE125_randls_18.json,http://54.235.29.9/FacialAge/BNav_EC2/DepthDuration/v2_depth_duration_MTurk/v2_DepthDuration_HTML.html#60,60,1240,698,1364,768,8-29-2022,7-41-43,17,depth_duration_stimuli/001235_2014-06-17_16-37-36_260595134347_rgbf000084-resize_4/001235_2014-06-17_16-37-36_260595134347_rgbf000084-resize_4-target.png,125,3.6605,1,9978,128,meters,jsons/VE125_randls_18.json,2309126,2521342,25,Man
17,579243,DepthScenes,duration_manipulation_targetAtFixation,jsons/VE125_randls_18.json,http://54.235.29.9/FacialAge/BNav_EC2/DepthDuration/v2_depth_duration_MTurk/v2_DepthDuration_HTML.html#60,60,1240,698,1364,768,8-29-2022,7-41-43,18,depth_duration_stimuli/000436_2014-06-09_22-25-11_260595134347_rgbf000137-resize_1/000436_2014-06-09_22-25-11_260595134347_rgbf000137-resize_1-target.png,125,4.0705,1,11082,125,meters,jsons/VE125_randls_18.json,2309126,2521342,25,Man
18,579243,DepthScenes,duration_manipulation_targetAtFixation,jsons/VE125_randls_18.json,http://54.235.29.9/FacialAge/BNav_EC2/DepthDuration/v2_depth_duration_MTurk/v2_DepthDuration_HTML.html#60,60,1240,698,1364,768,8-29-2022,7-41-43,19,depth_duration_stimuli/002444_2014-06-28_20-32-08_260595134347_rgbf000027-resize_0/002444_2014-06-28_20-32-08_260595134347_rgbf000027-resize_0-target.png,125,4.388999999999999,1,119416,125,meters,jsons/VE125_randls_18.json,2309126,2521342,25,Man
19,579243,DepthScenes,duration_manipulation_targetAtFixation,jsons/VE125_randls_18.json,http://54.235.29.9/FacialAge/BNav_EC2/DepthDuration/v2_depth_duration_MTurk/v2_DepthDuration_HTML.html#60,60,1240,698,1364,768,8-29-2022,7-41-43,20,depth_duration_stimuli/002570_2014-06-24_13-59-54_094959634447_rgbf000059-resize_0/002570_2014-06-24_13-59-54_094959634447_rgbf000059-resize_0-target.png,125,4.037,1,101510,128,meters,jsons/VE125_randls_18.json,2309126,2521342,25,Man
20,579243,DepthScenes,duration_manipulation_targetAtFixation,jsons/VE125_randls_18.json,http://54.235.29.9/FacialAge/BNav_EC2/DepthDuration/v2_depth_duration_MTurk/v2_DepthDuration_HTML.html#60,60,1240,698,1364,768,8-29-2022,7-41-43,21,depth_duration_stimuli/002467_2014-06-28_20-38-07_260595134347_rgbf000026-resize_2/002467_2014-06-28_20-38-07_260595134347_rgbf000026-resize_2-target.png,125,4.742,0,12610,124,meters,jsons/VE125_randls_18.json,2309126,2521342,25,Man
21,579243,DepthScenes,duration_manipulation_targetAtFixation,jsons/VE125_randls_18.json,http://54.235.29.9/FacialAge/BNav_EC2/DepthDuration/v2_depth_duration_MTurk/v2_DepthDuration_HTML.html#60,60,1240,698,1364,768,8-29-2022,7-41-43,22,depth_duration_stimuli/002988_2014-06-15_12-24-20_094959634447_rgbf000150-resize_1/002988_2014-06-15_12-24-20_094959634447_rgbf000150-resize_1-target.png,125,4.7669999999999995,1,32414,88,meters,jsons/VE125_randls_18.json,2309126,2521342,25,Man
22,579243,DepthScenes,duration_manipulation_targetAtFixation,jsons/VE125_randls_18.json,http://54.235.29.9/FacialAge/BNav_EC2/DepthDuration/v2_depth_duration_MTurk/v2_DepthDuration_HTML.html#60,60,1240,698,1364,768,8-29-2022,7-41-43,23,depth_duration_stimuli/001052_2014-06-08_18-24-54_260595134347_rgbf000130-resize_1/001052_2014-06-08_18-24-54_260595134347_rgbf000130-resize_1-target.png,125,4.1045,0,13448,124,meters,jsons/VE125_randls_18.json,2309126,2521342,25,Man
23,579243,DepthScenes,duration_manipulation_targetAtFixation,jsons/VE125_randls_18.json,http://54.235.29.9/FacialAge/BNav_EC2/DepthDuration/v2_depth_duration_MTurk/v2_DepthDuration_HTML.html#60,60,1240,698,1364,768,8-29-2022,7-41-43,24,depth_duration_stimuli/000739_2014-06-08_18-45-58_260595134347_rgbf000068-resize_1/000739_2014-06-08_18-45-58_260595134347_rgbf000068-resize_1-target.png,125,3.534,1,10283,146,meters,jsons/VE125_randls_18.json,2309126,2521342,25,Man
24,579243,DepthScenes,duration_manipulation_targetAtFixation,jsons/VE125_randls_18.json,http://54.235.29.9/FacialAge/BNav_EC2/DepthDuration/v2_depth_duration_MTurk/v2_DepthDuration_HTML.html#60,60,1240,698,1364,768,8-29-2022,7-41-43,25,depth_duration_stimuli/000734_2014-06-08_17-39-11_260595134347_rgbf000128-resize_2/000734_2014-06-08_17-39-11_260595134347_rgbf000128-resize_2-target.png,125,4.098,1,9069,86,meters,jsons/VE125_randls_18.json,2309126,2521342,25,Man
25,579243,DepthScenes,duration_manipulation_targetAtFixation,jsons/VE125_randls_18.json,http://54.235.29.9/FacialAge/BNav_EC2/DepthDuration/v2_depth_duration_MTurk/v2_DepthDuration_HTML.html#60,60,1240,698,1364,768,8-29-2022,7-41-43,26,depth_duration_stimuli/002279_2014-06-28_18-55-32_260595134347_rgbf000040-resize_5/002279_2014-06-28_18-55-32_260595134347_rgbf000040-resize_5-target.png,125,1.5043333333333,1,5433,153,meters,jsons/VE125_randls_18.json,2309126,2521342,25,Man
26,579243,DepthScenes,duration_manipulation_targetAtFixation,jsons/VE125_randls_18.json,http://54.235.29.9/FacialAge/BNav_EC2/DepthDuration/v2_depth_duration_MTurk/v2_DepthDuration_HTML.html#60,60,1240,698,1364,768,8-29-2022,7-41-43,27,depth_duration_stimuli/000635_2014-06-08_16-38-42_260595134347_rgbf000106-resize_1/000635_2014-06-08_16-38-42_260595134347_rgbf000106-resize_1-target.png,125,2.074,1,8340,125,meters,jsons/VE125_randls_18.json,2309126,2521342,25,Man
27,579243,DepthScenes,duration_manipulation_targetAtFixation,jsons/VE125_randls_18.json,http://54.235.29.9/FacialAge/BNav_EC2/DepthDuration/v2_depth_duration_MTurk/v2_DepthDuration_HTML.html#60,60,1240,698,1364,768,8-29-2022,7-41-43,28,depth_duration_stimuli/001133_2014-06-17_14-49-16_260595134347_rgbf000100-resize_0/001133_2014-06-17_14-49-16_260595134347_rgbf000100-resize_0-target.png,125,4.2115,1,5261,120,meters,jsons/VE125_randls_18.json,2309126,2521342,25,Man
28,579243,DepthScenes,duration_manipulation_targetAtFixation,jsons/VE125_randls_18.json,http://54.235.29.9/FacialAge/BNav_EC2/DepthDuration/v2_depth_duration_MTurk/v2_DepthDuration_HTML.html#60,60,1240,698,1364,768,8-29-2022,7-41-43,29,depth_duration_stimuli/001132_2014-06-17_14-48-54_260595134347_rgbf000100-resize_2/001132_2014-06-17_14-48-54_260595134347_rgbf000100-resize_2-target.png,125,3.753,1,4874,135,meters,jsons/VE125_randls_18.json,2309126,2521342,25,Man
29,579243,DepthScenes,duration_manipulation_targetAtFixation,jsons/VE125_randls_18.json,http://54.235.29.9/FacialAge/BNav_EC2/DepthDuration/v2_depth_duration_MTurk/v2_DepthDuration_HTML.html#60,60,1240,698,1364,768,8-29-2022,7-41-43,30,depth_duration_stimuli/000375_2014-06-08_11-17-29_260595134347_rgbf000133-resize_2/000375_2014-06-08_11-17-29_260595134347_rgbf000133-resize-original.jpg,125,4.718,0,7275,1,meters,jsons/VE125_randls_18.json,2309126,2521342,25,Man
30,579243,DepthScenes,duration_manipulation_targetAtFixation,jsons/VE125_randls_18.json,http://54.235.29.9/FacialAge/BNav_EC2/DepthDuration/v2_depth_duration_MTurk/v2_DepthDuration_HTML.html#60,60,1240,698,1364,768,8-29-2022,7-41-43,31,depth_duration_stimuli/001029_2014-06-08_13-17-57_260595134347_rgbf000065-resize_1/001029_2014-06-08_13-17-57_260595134347_rgbf000065-resize_1-target.png,125,3.0835,1,7321,131,meters,jsons/VE125_randls_18.json,2309126,2521342,25,Man
31,579243,DepthScenes,duration_manipulation_targetAtFixation,jsons/VE125_randls_18.json,http://54.235.29.9/FacialAge/BNav_EC2/DepthDuration/v2_depth_duration_MTurk/v2_DepthDuration_HTML.html#60,60,1240,698,1364,768,8-29-2022,7-41-43,32,depth_duration_stimuli/000677_2014-06-08_23-10-32_260595134347_rgbf000158-resize_6/000677_2014-06-08_23-10-32_260595134347_rgbf000158-resize_6-target.png,125,3.556,1,5517,118,meters,jsons/VE125_randls_18.json,2309126,2521342,25,Man
32,579243,DepthScenes,duration_manipulation_targetAtFixation,jsons/VE125_randls_18.json,http://54.235.29.9/FacialAge/BNav_EC2/DepthDuration/v2_depth_duration_MTurk/v2_DepthDuration_HTML.html#60,60,1240,698,1364,768,8-29-2022,7-41-43,33,depth_duration_stimuli/001066_2014-06-08_22-03-20_260595134347_rgbf000066-resize_4/001066_2014-06-08_22-03-20_260595134347_rgbf000066-resize_4-target.png,125,4.2330000000000005,1,7239,121,meters,jsons/VE125_randls_18.json,2309126,2521342,25,Man
33,579243,DepthScenes,duration_manipulation_targetAtFixation,jsons/VE125_randls_18.json,http://54.235.29.9/FacialAge/BNav_EC2/DepthDuration/v2_depth_duration_MTurk/v2_DepthDuration_HTML.html#60,60,1240,698,1364,768,8-29-2022,7-41-43,34,depth_duration_stimuli/000742_2014-06-08_18-48-09_260595134347_rgbf000164-resize_4/000742_2014-06-08_18-48-09_260595134347_rgbf000164-resize_4-target.png,125,4.632,0,7748,174,meters,jsons/VE125_randls_18.json,2309126,2521342,25,Man
34,579243,DepthScenes,duration_manipulation_targetAtFixation,jsons/VE125_randls_18.json,http://54.235.29.9/FacialAge/BNav_EC2/DepthDuration/v2_depth_duration_MTurk/v2_DepthDuration_HTML.html#60,60,1240,698,1364,768,8-29-2022,7-41-43,35,depth_duration_stimuli/001059_2014-06-08_21-53-27_260595134347_rgbf000061-resize_4/001059_2014-06-08_21-53-27_260595134347_rgbf000061-resize_4-target.png,125,2.4185,0,7854,127,meters,jsons/VE125_randls_18.json,2309126,2521342,25,Man
35,579243,DepthScenes,duration_manipulation_targetAtFixation,jsons/VE125_randls_18.json,http://54.235.29.9/FacialAge/BNav_EC2/DepthDuration/v2_depth_duration_MTurk/v2_DepthDuration_HTML.html#60,60,1240,698,1364,768,8-29-2022,7-41-43,36,depth_duration_stimuli/001032_2014-06-08_13-23-17_260595134347_rgbf000021-resize_3/001032_2014-06-08_13-23-17_260595134347_rgbf000021-resize_3-target.png,125,3.2725,0,4980,124,meters,jsons/VE125_randls_18.json,2309126,2521342,25,Man
36,579243,DepthScenes,duration_manipulation_targetAtFixation,jsons/VE125_randls_18.json,http://54.235.29.9/FacialAge/BNav_EC2/DepthDuration/v2_depth_duration_MTurk/v2_DepthDuration_HTML.html#60,60,1240,698,1364,768,8-29-2022,7-41-43,37,depth_duration_stimuli/000506_2014-06-08_23-21-00_260595134347_rgbf000070-resize_7/000506_2014-06-08_23-21-00_260595134347_rgbf000070-resize_7-target.png,125,4.0585,0,7615,86,meters,jsons/VE125_randls_18.json,2309126,2521342,25,Man
37,579243,DepthScenes,duration_manipulation_targetAtFixation,jsons/VE125_randls_18.json,http://54.235.29.9/FacialAge/BNav_EC2/DepthDuration/v2_depth_duration_MTurk/v2_DepthDuration_HTML.html#60,60,1240,698,1364,768,8-29-2022,7-41-43,38,depth_duration_stimuli/003079_2014-06-15_15-18-20_094959634447_rgbf000152-resize_8/003079_2014-06-15_15-18-20_094959634447_rgbf000152-resize_8-target.png,125,2.8775,0,4255,125,meters,jsons/VE125_randls_18.json,2309126,2521342,25,Man
38,579243,DepthScenes,duration_manipulation_targetAtFixation,jsons/VE125_randls_18.json,http://54.235.29.9/FacialAge/BNav_EC2/DepthDuration/v2_depth_duration_MTurk/v2_DepthDuration_HTML.html#60,60,1240,698,1364,768,8-29-2022,7-41-43,39,depth_duration_stimuli/001056_2014-06-08_18-46-44_260595134347_rgbf000068-resize_0/001056_2014-06-08_18-46-44_260595134347_rgbf000068-resize_0-target.png,125,2.6625,1,5122,124,meters,jsons/VE125_randls_18.json,2309126,2521342,25,Man
39,579243,DepthScenes,duration_manipulation_targetAtFixation,jsons/VE125_randls_18.json,http://54.235.29.9/FacialAge/BNav_EC2/DepthDuration/v2_depth_duration_MTurk/v2_DepthDuration_HTML.html#60,60,1240,698,1364,768,8-29-2022,7-41-43,40,depth_duration_stimuli/002199_2014-06-28_18-33-56_260595134347_rgbf000074-resize_0/002199_2014-06-28_18-33-56_260595134347_rgbf000074-resize_0-target.png,125,1.996,1,4918,125,meters,jsons/VE125_randls_18.json,2309126,2521342,25,Man
40,579243,DepthScenes,duration_manipulation_targetAtFixation,jsons/VE125_randls_18.json,http://54.235.29.9/FacialAge/BNav_EC2/DepthDuration/v2_depth_duration_MTurk/v2_DepthDuration_HTML.html#60,60,1240,698,1364,768,8-29-2022,7-41-43,41,depth_duration_stimuli/000368_2014-06-09_15-53-01_260595134347_rgbf000155-resize_2/000368_2014-06-09_15-53-01_260595134347_rgbf000155-resize_2-target.png,125,2.4859999999999998,1,4963,120,meters,jsons/VE125_randls_18.json,2309126,2521342,25,Man
41,579243,DepthScenes,duration_manipulation_targetAtFixation,jsons/VE125_randls_18.json,http://54.235.29.9/FacialAge/BNav_EC2/DepthDuration/v2_depth_duration_MTurk/v2_DepthDuration_HTML.html#60,60,1240,698,1364,768,8-29-2022,7-41-43,42,depth_duration_stimuli/002678_2014-06-13_16-15-32_094959634447_rgbf000151-resize_6/002678_2014-06-13_16-15-32_094959634447_rgbf000151-resize_6-target.png,125,2.1830000000000003,0,13189,104,meters,jsons/VE125_randls_18.json,2309126,2521342,25,Man
42,579243,DepthScenes,duration_manipulation_targetAtFixation,jsons/VE125_randls_18.json,http://54.235.29.9/FacialAge/BNav_EC2/DepthDuration/v2_depth_duration_MTurk/v2_DepthDuration_HTML.html#60,60,1240,698,1364,768,8-29-2022,7-41-43,43,depth_duration_stimuli/001016_2014-06-09_16-16-10_260595134347_rgbf000112-resize_5/001016_2014-06-09_16-16-10_260595134347_rgbf000112-resize_5-target.png,125,1.6565,0,8533,137,meters,jsons/VE125_randls_18.json,2309126,2521342,25,Man
43,579243,DepthScenes,duration_manipulation_targetAtFixation,jsons/VE125_randls_18.json,http://54.235.29.9/FacialAge/BNav_EC2/DepthDuration/v2_depth_duration_MTurk/v2_DepthDuration_HTML.html#60,60,1240,698,1364,768,8-29-2022,7-41-43,44,depth_duration_stimuli/002340_2014-06-28_20-05-46_260595134347_rgbf000113-resize_0/002340_2014-06-28_20-05-46_260595134347_rgbf000113-resize_0-target.png,125,2.4735,0,8809,126,meters,jsons/VE125_randls_18.json,2309126,2521342,25,Man
44,579243,DepthScenes,duration_manipulation_targetAtFixation,jsons/VE125_randls_18.json,http://54.235.29.9/FacialAge/BNav_EC2/DepthDuration/v2_depth_duration_MTurk/v2_DepthDuration_HTML.html#60,60,1240,698,1364,768,8-29-2022,7-41-43,45,depth_duration_stimuli/000787_2014-06-08_22-33-53_260595134347_rgbf000175-resize_1/000787_2014-06-08_22-33-53_260595134347_rgbf000175-resize-original.jpg,125,4.784,0,20106,126,meters,jsons/VE125_randls_18.json,2309126,2521342,25,Man
45,579243,DepthScenes,duration_manipulation_targetAtFixation,jsons/VE125_randls_18.json,http://54.235.29.9/FacialAge/BNav_EC2/DepthDuration/v2_depth_duration_MTurk/v2_DepthDuration_HTML.html#60,60,1240,698,1364,768,8-29-2022,7-41-43,46,depth_duration_stimuli/000929_2014-06-09_16-33-19_260595134347_rgbf000139-resize_0/000929_2014-06-09_16-33-19_260595134347_rgbf000139-resize_0-target.png,125,2.8680000000000003,1,9960,133,meters,jsons/VE125_randls_18.json,2309126,2521342,25,Man
46,579243,DepthScenes,duration_manipulation_targetAtFixation,jsons/VE125_randls_18.json,http://54.235.29.9/FacialAge/BNav_EC2/DepthDuration/v2_depth_duration_MTurk/v2_DepthDuration_HTML.html#60,60,1240,698,1364,768,8-29-2022,7-41-43,47,depth_duration_stimuli/000457_2014-06-08_16-52-43_260595134347_rgbf000199-resize_1/000457_2014-06-08_16-52-43_260595134347_rgbf000199-resize_1-target.png,125,3.6489999999999996,1,14399,132,meters,jsons/VE125_randls_18.json,2309126,2521342,25,Man
47,579243,DepthScenes,duration_manipulation_targetAtFixation,jsons/VE125_randls_18.json,http://54.235.29.9/FacialAge/BNav_EC2/DepthDuration/v2_depth_duration_MTurk/v2_DepthDuration_HTML.html#60,60,1240,698,1364,768,8-29-2022,7-41-43,48,depth_duration_stimuli/000522_2014-06-08_13-35-06_260595134347_rgbf000244-resize_1/000522_2014-06-08_13-35-06_260595134347_rgbf000244-resize_1-target.png,125,2.3715,0,13837,126,meters,jsons/VE125_randls_18.json,2309126,2521342,25,Man
48,579243,DepthScenes,duration_manipulation_targetAtFixation,jsons/VE125_randls_18.json,http://54.235.29.9/FacialAge/BNav_EC2/DepthDuration/v2_depth_duration_MTurk/v2_DepthDuration_HTML.html#60,60,1240,698,1364,768,8-29-2022,7-41-43,49,depth_duration_stimuli/002949_2014-06-26_15-57-42_094959634447_rgbf000079-resize_1/002949_2014-06-26_15-57-42_094959634447_rgbf000079-resize_1-target.png,125,1.8915,0,13937,130,meters,jsons/VE125_randls_18.json,2309126,2521342,25,Man
49,579243,DepthScenes,duration_manipulation_targetAtFixation,jsons/VE125_randls_18.json,http://54.235.29.9/FacialAge/BNav_EC2/DepthDuration/v2_depth_duration_MTurk/v2_DepthDuration_HTML.html#60,60,1240,698,1364,768,8-29-2022,7-41-43,50,depth_duration_stimuli/000414_2014-06-04_19-49-13_260595134347_rgbf000044-resize_0/000414_2014-06-04_19-49-13_260595134347_rgbf000044-resize_0-target.png,125,4.329,1,15754,48,meters,jsons/VE125_randls_18.json,2309126,2521342,25,Man
50,579243,DepthScenes,duration_manipulation_targetAtFixation,jsons/VE125_randls_18.json,http://54.235.29.9/FacialAge/BNav_EC2/DepthDuration/v2_depth_duration_MTurk/v2_DepthDuration_HTML.html#60,60,1240,698,1364,768,8-29-2022,7-41-43,51,depth_duration_stimuli/003129_2014-05-12_10-48-10_094959634447_rgbf000100-resize_0/003129_2014-05-12_10-48-10_094959634447_rgbf000100-resize_0-target.png,125,4.9305,1,18895,127,meters,jsons/VE125_randls_18.json,2309126,2521342,25,Man
51,579243,DepthScenes,duration_manipulation_targetAtFixation,jsons/VE125_randls_18.json,http://54.235.29.9/FacialAge/BNav_EC2/DepthDuration/v2_depth_duration_MTurk/v2_DepthDuration_HTML.html#60,60,1240,698,1364,768,8-29-2022,7-41-43,52,depth_duration_stimuli/000758_2014-06-08_22-05-08_260595134347_rgbf000085-resize_0/000758_2014-06-08_22-05-08_260595134347_rgbf000085-resize_0-target.png,125,3.3810000000000002,0,30394,123,meters,jsons/VE125_randls_18.json,2309126,2521342,25,Man
52,579243,DepthScenes,duration_manipulation_targetAtFixation,jsons/VE125_randls_18.json,http://54.235.29.9/FacialAge/BNav_EC2/DepthDuration/v2_depth_duration_MTurk/v2_DepthDuration_HTML.html#60,60,1240,698,1364,768,8-29-2022,7-41-43,53,depth_duration_stimuli/000854_2014-06-09_19-43-13_260595134347_rgbf000066-resize_0/000854_2014-06-09_19-43-13_260595134347_rgbf000066-resize_0-target.png,125,3.068,1,6761,125,meters,jsons/VE125_randls_18.json,2309126,2521342,25,Man
53,579243,DepthScenes,duration_manipulation_targetAtFixation,jsons/VE125_randls_18.json,http://54.235.29.9/FacialAge/BNav_EC2/DepthDuration/v2_depth_duration_MTurk/v2_DepthDuration_HTML.html#60,60,1240,698,1364,768,8-29-2022,7-41-43,54,depth_duration_stimuli/000486_2014-06-09_20-47-20_260595134347_rgbf000143-resize_2/000486_2014-06-09_20-47-20_260595134347_rgbf000143-resize_2-target.png,125,4.8325,0,6099,124,meters,jsons/VE125_randls_18.json,2309126,2521342,25,Man
54,579243,DepthScenes,duration_manipulation_targetAtFixation,jsons/VE125_randls_18.json,http://54.235.29.9/FacialAge/BNav_EC2/DepthDuration/v2_depth_duration_MTurk/v2_DepthDuration_HTML.html#60,60,1240,698,1364,768,8-29-2022,7-41-43,55,depth_duration_stimuli/003083_2014-06-15_15-21-03_094959634447_rgbf000063-resize_1/003083_2014-06-15_15-21-03_094959634447_rgbf000063-resize_1-target.png,125,4.1405,0,18082,125,meters,jsons/VE125_randls_18.json,2309126,2521342,25,Man
55,579243,DepthScenes,duration_manipulation_targetAtFixation,jsons/VE125_randls_18.json,http://54.235.29.9/FacialAge/BNav_EC2/DepthDuration/v2_depth_duration_MTurk/v2_DepthDuration_HTML.html#60,60,1240,698,1364,768,8-29-2022,7-41-43,56,depth_duration_stimuli/000773_2014-06-08_22-24-54_260595134347_rgbf000093-resize_1/000773_2014-06-08_22-24-54_260595134347_rgbf000093-resize_1-target.png,125,4.973,0,14589,124,meters,jsons/VE125_randls_18.json,2309126,2521342,25,Man
56,579243,DepthScenes,duration_manipulation_targetAtFixation,jsons/VE125_randls_18.json,http://54.235.29.9/FacialAge/BNav_EC2/DepthDuration/v2_depth_duration_MTurk/v2_DepthDuration_HTML.html#60,60,1240,698,1364,768,8-29-2022,7-41-43,57,depth_duration_stimuli/002414_2014-06-28_20-24-58_260595134347_rgbf000067-resize_4/002414_2014-06-28_20-24-58_260595134347_rgbf000067-resize_4-target.png,125,4.363,0,6982,124,meters,jsons/VE125_randls_18.json,2309126,2521342,25,Man
57,579243,DepthScenes,duration_manipulation_targetAtFixation,jsons/VE125_randls_18.json,http://54.235.29.9/FacialAge/BNav_EC2/DepthDuration/v2_depth_duration_MTurk/v2_DepthDuration_HTML.html#60,60,1240,698,1364,768,8-29-2022,7-41-43,58,depth_duration_stimuli/000493_2014-06-09_21-01-18_260595134347_rgbf000196-resize_3/000493_2014-06-09_21-01-18_260595134347_rgbf000196-resize_3-target.png,125,3.44,0,9509,118,meters,jsons/VE125_randls_18.json,2309126,2521342,25,Man
58,579243,DepthScenes,duration_manipulation_targetAtFixation,jsons/VE125_randls_18.json,http://54.235.29.9/FacialAge/BNav_EC2/DepthDuration/v2_depth_duration_MTurk/v2_DepthDuration_HTML.html#60,60,1240,698,1364,768,8-29-2022,7-41-43,59,depth_duration_stimuli/000191_2014-05-12_17-07-38_260595134347_rgbf000199-resize_0/000191_2014-05-12_17-07-38_260595134347_rgbf000199-resize_0-target.png,125,3.7995,0,12552,186,meters,jsons/VE125_randls_18.json,2309126,2521342,25,Man
59,579243,DepthScenes,duration_manipulation_targetAtFixation,jsons/VE125_randls_18.json,http://54.235.29.9/FacialAge/BNav_EC2/DepthDuration/v2_depth_duration_MTurk/v2_DepthDuration_HTML.html#60,60,1240,698,1364,768,8-29-2022,7-41-43,60,depth_duration_stimuli/002153_2014-06-25_21-27-18_260595134347_rgbf000038-resize_5/002153_2014-06-25_21-27-18_260595134347_rgbf000038-resize_5-target.png,125,2.505,0,6428,42,meters,jsons/VE125_randls_18.json,2309126,2521342,25,Man
60,579243,DepthScenes,duration_manipulation_targetAtFixation,jsons/VE125_randls_18.json,http://54.235.29.9/FacialAge/BNav_EC2/DepthDuration/v2_depth_duration_MTurk/v2_DepthDuration_HTML.html#60,60,1240,698,1364,768,8-29-2022,7-41-43,61,depth_duration_stimuli/002660_2014-06-13_15-44-18_094959634447_rgbf001878-resize_2/002660_2014-06-13_15-44-18_094959634447_rgbf001878-resize_2-target.png,125,3.576,1,9270,125,meters,jsons/VE125_randls_18.json,2309126,2521342,25,Man
61,579243,DepthScenes,duration_manipulation_targetAtFixation,jsons/VE125_randls_18.json,http://54.235.29.9/FacialAge/BNav_EC2/DepthDuration/v2_depth_duration_MTurk/v2_DepthDuration_HTML.html#60,60,1240,698,1364,768,8-29-2022,7-41-43,62,depth_duration_stimuli/002748_2014-06-22_19-07-22_094959634447_rgbf000078-resize_1/002748_2014-06-22_19-07-22_094959634447_rgbf000078-resize_1-target.png,125,4.6705,0,7149,148,meters,jsons/VE125_randls_18.json,2309126,2521342,25,Man
62,579243,DepthScenes,duration_manipulation_targetAtFixation,jsons/VE125_randls_18.json,http://54.235.29.9/FacialAge/BNav_EC2/DepthDuration/v2_depth_duration_MTurk/v2_DepthDuration_HTML.html#60,60,1240,698,1364,768,8-29-2022,7-41-43,63,depth_duration_stimuli/002995_2014-06-15_12-31-26_094959634447_rgbf000150-resize_1/002995_2014-06-15_12-31-26_094959634447_rgbf000150-resize_1-target.png,125,3.8360000000000003,0,17868,125,meters,jsons/VE125_randls_18.json,2309126,2521342,25,Man
63,579243,DepthScenes,duration_manipulation_targetAtFixation,jsons/VE125_randls_18.json,http://54.235.29.9/FacialAge/BNav_EC2/DepthDuration/v2_depth_duration_MTurk/v2_DepthDuration_HTML.html#60,60,1240,698,1364,768,8-29-2022,7-41-43,64,depth_duration_stimuli/001092_2014-06-15_17-34-58_260595134347_rgbf000171-resize_3/001092_2014-06-15_17-34-58_260595134347_rgbf000171-resize_3-target.png,125,2.6935,0,10247,123,meters,jsons/VE125_randls_18.json,2309126,2521342,25,Man
64,579243,DepthScenes,duration_manipulation_targetAtFixation,jsons/VE125_randls_18.json,http://54.235.29.9/FacialAge/BNav_EC2/DepthDuration/v2_depth_duration_MTurk/v2_DepthDuration_HTML.html#60,60,1240,698,1364,768,8-29-2022,7-41-43,65,depth_duration_stimuli/002545_2014-06-24_13-38-53_094959634447_rgbf000080-resize_4/002545_2014-06-24_13-38-53_094959634447_rgbf000080-resize_4-target.png,125,1.9205,1,5160,149,meters,jsons/VE125_randls_18.json,2309126,2521342,25,Man
65,579243,DepthScenes,duration_manipulation_targetAtFixation,jsons/VE125_randls_18.json,http://54.235.29.9/FacialAge/BNav_EC2/DepthDuration/v2_depth_duration_MTurk/v2_DepthDuration_HTML.html#60,60,1240,698,1364,768,8-29-2022,7-41-43,66,depth_duration_stimuli/001222_2014-06-17_16-24-06_260595134347_rgbf000073-resize_0/001222_2014-06-17_16-24-06_260595134347_rgbf000073-resize-original.jpg,125,1.4385,0,10770,169,meters,jsons/VE125_randls_18.json,2309126,2521342,25,Man
66,579243,DepthScenes,duration_manipulation_targetAtFixation,jsons/VE125_randls_18.json,http://54.235.29.9/FacialAge/BNav_EC2/DepthDuration/v2_depth_duration_MTurk/v2_DepthDuration_HTML.html#60,60,1240,698,1364,768,8-29-2022,7-41-43,67,depth_duration_stimuli/001555_2014-06-20_17-12-10_260595134347_rgbf000065-resize_4/001555_2014-06-20_17-12-10_260595134347_rgbf000065-resize_4-target.png,125,1.633,1,12121,124,meters,jsons/VE125_randls_18.json,2309126,2521342,25,Man
67,579243,DepthScenes,duration_manipulation_targetAtFixation,jsons/VE125_randls_18.json,http://54.235.29.9/FacialAge/BNav_EC2/DepthDuration/v2_depth_duration_MTurk/v2_DepthDuration_HTML.html#60,60,1240,698,1364,768,8-29-2022,7-41-43,68,depth_duration_stimuli/000103_2014-05-14_22-01-17_260595134347_rgbf000152-resize_5/000103_2014-05-14_22-01-17_260595134347_rgbf000152-resize_5-target.png,125,1.993,1,8713,176,meters,jsons/VE125_randls_18.json,2309126,2521342,25,Man
68,579243,DepthScenes,duration_manipulation_targetAtFixation,jsons/VE125_randls_18.json,http://54.235.29.9/FacialAge/BNav_EC2/DepthDuration/v2_depth_duration_MTurk/v2_DepthDuration_HTML.html#60,60,1240,698,1364,768,8-29-2022,7-41-43,69,depth_duration_stimuli/000447_2014-06-08_16-15-46_260595134347_rgbf000130-resize_1/000447_2014-06-08_16-15-46_260595134347_rgbf000130-resize_1-target.png,125,4.479,1,10323,125,meters,jsons/VE125_randls_18.json,2309126,2521342,25,Man
69,579243,DepthScenes,duration_manipulation_targetAtFixation,jsons/VE125_randls_18.json,http://54.235.29.9/FacialAge/BNav_EC2/DepthDuration/v2_depth_duration_MTurk/v2_DepthDuration_HTML.html#60,60,1240,698,1364,768,8-29-2022,7-41-43,70,depth_duration_stimuli/001447_2014-06-19_17-00-32_260595134347_rgbf000082-resize_5/001447_2014-06-19_17-00-32_260595134347_rgbf000082-resize_5-target.png,125,4.13775,1,13935,133,meters,jsons/VE125_randls_18.json,2309126,2521342,25,Man
70,579243,DepthScenes,duration_manipulation_targetAtFixation,jsons/VE125_randls_18.json,http://54.235.29.9/FacialAge/BNav_EC2/DepthDuration/v2_depth_duration_MTurk/v2_DepthDuration_HTML.html#60,60,1240,698,1364,768,8-29-2022,7-41-43,71,depth_duration_stimuli/001808_2014-06-26_20-50-58_260595134347_rgbf000029-resize_1/001808_2014-06-26_20-50-58_260595134347_rgbf000029-resize_1-target.png,125,4.249,1,19846,1,meters,jsons/VE125_randls_18.json,2309126,2521342,25,Man
71,579243,DepthScenes,duration_manipulation_targetAtFixation,jsons/VE125_randls_18.json,http://54.235.29.9/FacialAge/BNav_EC2/DepthDuration/v2_depth_duration_MTurk/v2_DepthDuration_HTML.html#60,60,1240,698,1364,768,8-29-2022,7-41-43,72,depth_duration_stimuli/001815_2014-06-26_20-52-55_260595134347_rgbf000020-resize_0/001815_2014-06-26_20-52-55_260595134347_rgbf000020-resize_0-target.png,125,3.3865,1,15380,198,meters,jsons/VE125_randls_18.json,2309126,2521342,25,Man
72,579243,DepthScenes,duration_manipulation_targetAtFixation,jsons/VE125_randls_18.json,http://54.235.29.9/FacialAge/BNav_EC2/DepthDuration/v2_depth_duration_MTurk/v2_DepthDuration_HTML.html#60,60,1240,698,1364,768,8-29-2022,7-41-43,73,depth_duration_stimuli/000469_2014-06-09_19-42-10_260595134347_rgbf000081-resize_1/000469_2014-06-09_19-42-10_260595134347_rgbf000081-resize_1-target.png,125,1.652,0,8435,139,meters,jsons/VE125_randls_18.json,2309126,2521342,25,Man
73,579243,DepthScenes,duration_manipulation_targetAtFixation,jsons/VE125_randls_18.json,http://54.235.29.9/FacialAge/BNav_EC2/DepthDuration/v2_depth_duration_MTurk/v2_DepthDuration_HTML.html#60,60,1240,698,1364,768,8-29-2022,7-41-43,74,depth_duration_stimuli/000483_2014-06-09_20-41-45_260595134347_rgbf000116-resize_4/000483_2014-06-09_20-41-45_260595134347_rgbf000116-resize_4-target.png,125,1.337,1,4682,179,meters,jsons/VE125_randls_18.json,2309126,2521342,25,Man
74,579243,DepthScenes,duration_manipulation_targetAtFixation,jsons/VE125_randls_18.json,http://54.235.29.9/FacialAge/BNav_EC2/DepthDuration/v2_depth_duration_MTurk/v2_DepthDuration_HTML.html#60,60,1240,698,1364,768,8-29-2022,7-41-43,75,depth_duration_stimuli/002600_2014-06-24_14-27-04_094959634447_rgbf000074-resize_2/002600_2014-06-24_14-27-04_094959634447_rgbf000074-resize_2-target.png,125,2.7575,1,8320,314,meters,jsons/VE125_randls_18.json,2309126,2521342,25,Man
75,579243,DepthScenes,duration_manipulation_targetAtFixation,jsons/VE125_randls_18.json,http://54.235.29.9/FacialAge/BNav_EC2/DepthDuration/v2_depth_duration_MTurk/v2_DepthDuration_HTML.html#60,60,1240,698,1364,768,8-29-2022,7-41-43,76,depth_duration_stimuli/003228_2014-05-14_13-42-35_094959634447_rgbf000101-resize_1/003228_2014-05-14_13-42-35_094959634447_rgbf000101-resize_1-target.png,125,1.9680000000000002,1,5153,124,meters,jsons/VE125_randls_18.json,2309126,2521342,25,Man
76,579243,DepthScenes,duration_manipulation_targetAtFixation,jsons/VE125_randls_18.json,http://54.235.29.9/FacialAge/BNav_EC2/DepthDuration/v2_depth_duration_MTurk/v2_DepthDuration_HTML.html#60,60,1240,698,1364,768,8-29-2022,7-41-43,77,depth_duration_stimuli/002989_2014-06-15_12-25-03_094959634447_rgbf000150-resize_3/002989_2014-06-15_12-25-03_094959634447_rgbf000150-resize_3-target.png,125,4.1975,0,13115,126,meters,jsons/VE125_randls_18.json,2309126,2521342,25,Man
77,579243,DepthScenes,duration_manipulation_targetAtFixation,jsons/VE125_randls_18.json,http://54.235.29.9/FacialAge/BNav_EC2/DepthDuration/v2_depth_duration_MTurk/v2_DepthDuration_HTML.html#60,60,1240,698,1364,768,8-29-2022,7-41-43,78,depth_duration_stimuli/000866_2014-06-09_20-45-42_260595134347_rgbf000139-resize_1/000866_2014-06-09_20-45-42_260595134347_rgbf000139-resize_1-target.png,125,3.2155,1,6195,124,meters,jsons/VE125_randls_18.json,2309126,2521342,25,Man
78,579243,DepthScenes,duration_manipulation_targetAtFixation,jsons/VE125_randls_18.json,http://54.235.29.9/FacialAge/BNav_EC2/DepthDuration/v2_depth_duration_MTurk/v2_DepthDuration_HTML.html#60,60,1240,698,1364,768,8-29-2022,7-41-43,79,depth_duration_stimuli/001810_2014-06-26_20-51-35_260595134347_rgbf000040-resize_3/001810_2014-06-26_20-51-35_260595134347_rgbf000040-resize_3-target.png,125,2.2525,1,14951,123,meters,jsons/VE125_randls_18.json,2309126,2521342,25,Man
79,579243,DepthScenes,duration_manipulation_targetAtFixation,jsons/VE125_randls_18.json,http://54.235.29.9/FacialAge/BNav_EC2/DepthDuration/v2_depth_duration_MTurk/v2_DepthDuration_HTML.html#60,60,1240,698,1364,768,8-29-2022,7-41-43,80,depth_duration_stimuli/003010_2014-06-15_12-54-35_094959634447_rgbf000112-resize_0/003010_2014-06-15_12-54-35_094959634447_rgbf000112-resize_0-target.png,125,3.1185,1,39535,124,meters,jsons/VE125_randls_18.json,2309126,2521342,25,Man
80,579243,DepthScenes,duration_manipulation_targetAtFixation,jsons/VE125_randls_18.json,http://54.235.29.9/FacialAge/BNav_EC2/DepthDuration/v2_depth_duration_MTurk/v2_DepthDuration_HTML.html#60,60,1240,698,1364,768,8-29-2022,7-41-43,81,depth_duration_stimuli/000642_2014-06-08_16-59-25_260595134347_rgbf000098-resize_2/000642_2014-06-08_16-59-25_260595134347_rgbf000098-resize_2-target.png,125,2.8815,1,15848,123,meters,jsons/VE125_randls_18.json,2309126,2521342,25,Man
81,579243,DepthScenes,duration_manipulation_targetAtFixation,jsons/VE125_randls_18.json,http://54.235.29.9/FacialAge/BNav_EC2/DepthDuration/v2_depth_duration_MTurk/v2_DepthDuration_HTML.html#60,60,1240,698,1364,768,8-29-2022,7-41-43,82,depth_duration_stimuli/002425_2014-06-28_20-27-29_260595134347_rgbf000031-resize_8/002425_2014-06-28_20-27-29_260595134347_rgbf000031-resize_8-target.png,125,3.8960000000000004,0,13412,125,meters,jsons/VE125_randls_18.json,2309126,2521342,25,Man
82,579243,DepthScenes,duration_manipulation_targetAtFixation,jsons/VE125_randls_18.json,http://54.235.29.9/FacialAge/BNav_EC2/DepthDuration/v2_depth_duration_MTurk/v2_DepthDuration_HTML.html#60,60,1240,698,1364,768,8-29-2022,7-41-43,83,depth_duration_stimuli/002057_2014-06-24_21-00-13_260595134347_rgbf000120-resize_1/002057_2014-06-24_21-00-13_260595134347_rgbf000120-resize_1-target.png,125,2.967,0,53183,123,meters,jsons/VE125_randls_18.json,2309126,2521342,25,Man
83,579243,DepthScenes,duration_manipulation_targetAtFixation,jsons/VE125_randls_18.json,http://54.235.29.9/FacialAge/BNav_EC2/DepthDuration/v2_depth_duration_MTurk/v2_DepthDuration_HTML.html#60,60,1240,698,1364,768,8-29-2022,7-41-43,84,depth_duration_stimuli/000709_2014-06-08_13-51-55_260595134347_rgbf000068-resize_3/000709_2014-06-08_13-51-55_260595134347_rgbf000068-resize_3-target.png,125,1.8030000000000002,0,5098,153,meters,jsons/VE125_randls_18.json,2309126,2521342,25,Man
84,579243,DepthScenes,duration_manipulation_targetAtFixation,jsons/VE125_randls_18.json,http://54.235.29.9/FacialAge/BNav_EC2/DepthDuration/v2_depth_duration_MTurk/v2_DepthDuration_HTML.html#60,60,1240,698,1364,768,8-29-2022,7-41-43,85,depth_duration_stimuli/001449_2014-06-19_17-01-27_260595134347_rgbf000116-resize_2/001449_2014-06-19_17-01-27_260595134347_rgbf000116-resize_2-target.png,125,3.452,1,11579,139,meters,jsons/VE125_randls_18.json,2309126,2521342,25,Man
85,579243,DepthScenes,duration_manipulation_targetAtFixation,jsons/VE125_randls_18.json,http://54.235.29.9/FacialAge/BNav_EC2/DepthDuration/v2_depth_duration_MTurk/v2_DepthDuration_HTML.html#60,60,1240,698,1364,768,8-29-2022,7-41-43,86,depth_duration_stimuli/001450_2014-06-19_17-02-03_260595134347_rgbf000203-resize_4/001450_2014-06-19_17-02-03_260595134347_rgbf000203-resize_4-target.png,125,4.0106666666667,0,7171,126,meters,jsons/VE125_randls_18.json,2309126,2521342,25,Man
86,579243,DepthScenes,duration_manipulation_targetAtFixation,jsons/VE125_randls_18.json,http://54.235.29.9/FacialAge/BNav_EC2/DepthDuration/v2_depth_duration_MTurk/v2_DepthDuration_HTML.html#60,60,1240,698,1364,768,8-29-2022,7-41-43,87,depth_duration_stimuli/000878_2014-06-08_22-52-45_260595134347_rgbf000045-resize_2/000878_2014-06-08_22-52-45_260595134347_rgbf000045-resize_2-target.png,125,2.092,1,8090,125,meters,jsons/VE125_randls_18.json,2309126,2521342,25,Man
87,579243,DepthScenes,duration_manipulation_targetAtFixation,jsons/VE125_randls_18.json,http://54.235.29.9/FacialAge/BNav_EC2/DepthDuration/v2_depth_duration_MTurk/v2_DepthDuration_HTML.html#60,60,1240,698,1364,768,8-29-2022,7-41-43,88,depth_duration_stimuli/002953_2014-06-08_17-32-18_094959634447_rgbf000059-resize_5/002953_2014-06-08_17-32-18_094959634447_rgbf000059-resize_5-target.png,125,1.551,0,21848,122,meters,jsons/VE125_randls_18.json,2309126,2521342,25,Man
88,579243,DepthScenes,duration_manipulation_targetAtFixation,jsons/VE125_randls_18.json,http://54.235.29.9/FacialAge/BNav_EC2/DepthDuration/v2_depth_duration_MTurk/v2_DepthDuration_HTML.html#60,60,1240,698,1364,768,8-29-2022,7-41-43,89,depth_duration_stimuli/002118_2014-06-25_20-32-08_260595134347_rgbf000078-resize_1/002118_2014-06-25_20-32-08_260595134347_rgbf000078-resize_1-target.png,125,2.6460000000000004,0,8923,123,meters,jsons/VE125_randls_18.json,2309126,2521342,25,Man
89,579243,DepthScenes,duration_manipulation_targetAtFixation,jsons/VE125_randls_18.json,http://54.235.29.9/FacialAge/BNav_EC2/DepthDuration/v2_depth_duration_MTurk/v2_DepthDuration_HTML.html#60,60,1240,698,1364,768,8-29-2022,7-41-43,90,depth_duration_stimuli/001516_2014-06-20_16-25-09_260595134347_rgbf000076-resize_2/001516_2014-06-20_16-25-09_260595134347_rgbf000076-resize_2-target.png,125,1.7445,0,9567,110,meters,jsons/VE125_randls_18.json,2309126,2521342,25,Man
90,579243,DepthScenes,duration_manipulation_targetAtFixation,jsons/VE125_randls_18.json,http://54.235.29.9/FacialAge/BNav_EC2/DepthDuration/v2_depth_duration_MTurk/v2_DepthDuration_HTML.html#60,60,1240,698,1364,768,8-29-2022,7-41-43,91,depth_duration_stimuli/002549_2014-06-24_13-41-39_094959634447_rgbf000022-resize_3/002549_2014-06-24_13-41-39_094959634447_rgbf000022-resize_3-target.png,125,1.476,0,10618,124,meters,jsons/VE125_randls_18.json,2309126,2521342,25,Man
91,579243,DepthScenes,duration_manipulation_targetAtFixation,jsons/VE125_randls_18.json,http://54.235.29.9/FacialAge/BNav_EC2/DepthDuration/v2_depth_duration_MTurk/v2_DepthDuration_HTML.html#60,60,1240,698,1364,768,8-29-2022,7-41-43,92,depth_duration_stimuli/002750_2014-06-22_19-08-03_094959634447_rgbf000094-resize_4/002750_2014-06-22_19-08-03_094959634447_rgbf000094-resize_4-target.png,125,2.354,0,20069,122,meters,jsons/VE125_randls_18.json,2309126,2521342,25,Man
92,579243,DepthScenes,duration_manipulation_targetAtFixation,jsons/VE125_randls_18.json,http://54.235.29.9/FacialAge/BNav_EC2/DepthDuration/v2_depth_duration_MTurk/v2_DepthDuration_HTML.html#60,60,1240,698,1364,768,8-29-2022,7-41-43,93,depth_duration_stimuli/002663_2014-06-13_15-50-26_094959634447_rgbf000075-resize_1/002663_2014-06-13_15-50-26_094959634447_rgbf000075-resize_1-target.png,125,4.7495,0,7989,127,meters,jsons/VE125_randls_18.json,2309126,2521342,25,Man
93,579243,DepthScenes,duration_manipulation_targetAtFixation,jsons/VE125_randls_18.json,http://54.235.29.9/FacialAge/BNav_EC2/DepthDuration/v2_depth_duration_MTurk/v2_DepthDuration_HTML.html#60,60,1240,698,1364,768,8-29-2022,7-41-43,94,depth_duration_stimuli/000409_2014-06-04_19-23-33_260595134347_rgbf000067-resize_0/000409_2014-06-04_19-23-33_260595134347_rgbf000067-resize_0-target.png,125,3.7335,1,5910,80,meters,jsons/VE125_randls_18.json,2309126,2521342,25,Man
94,579243,DepthScenes,duration_manipulation_targetAtFixation,jsons/VE125_randls_18.json,http://54.235.29.9/FacialAge/BNav_EC2/DepthDuration/v2_depth_duration_MTurk/v2_DepthDuration_HTML.html#60,60,1240,698,1364,768,8-29-2022,7-41-43,95,depth_duration_stimuli/002272_2014-06-28_18-53-56_260595134347_rgbf000067-resize_2/002272_2014-06-28_18-53-56_260595134347_rgbf000067-resize_2-target.png,125,1.138,1,9961,107,meters,jsons/VE125_randls_18.json,2309126,2521342,25,Man
95,579243,DepthScenes,duration_manipulation_targetAtFixation,jsons/VE125_randls_18.json,http://54.235.29.9/FacialAge/BNav_EC2/DepthDuration/v2_depth_duration_MTurk/v2_DepthDuration_HTML.html#60,60,1240,698,1364,768,8-29-2022,7-41-43,96,depth_duration_stimuli/001571_2014-06-20_17-21-32_260595134347_rgbf000089-resize_1/001571_2014-06-20_17-21-32_260595134347_rgbf000089-resize_1-target.png,125,1.86,0,6269,141,meters,jsons/VE125_randls_18.json,2309126,2521342,25,Man
96,579243,DepthScenes,duration_manipulation_targetAtFixation,jsons/VE125_randls_18.json,http://54.235.29.9/FacialAge/BNav_EC2/DepthDuration/v2_depth_duration_MTurk/v2_DepthDuration_HTML.html#60,60,1240,698,1364,768,8-29-2022,7-41-43,97,depth_duration_stimuli/002630_2014-06-24_14-47-50_094959634447_rgbf000055-resize_1/002630_2014-06-24_14-47-50_094959634447_rgbf000055-resize_1-target.png,125,3.0095,0,9131,104,meters,jsons/VE125_randls_18.json,2309126,2521342,25,Man
97,579243,DepthScenes,duration_manipulation_targetAtFixation,jsons/VE125_randls_18.json,http://54.235.29.9/FacialAge/BNav_EC2/DepthDuration/v2_depth_duration_MTurk/v2_DepthDuration_HTML.html#60,60,1240,698,1364,768,8-29-2022,7-41-43,98,depth_duration_stimuli/002758_2014-06-22_19-11-20_094959634447_rgbf000128-resize_1/002758_2014-06-22_19-11-20_094959634447_rgbf000128-resize_1-target.png,125,2.555,1,5180,266,meters,jsons/VE125_randls_18.json,2309126,2521342,25,Man
98,579243,DepthScenes,duration_manipulation_targetAtFixation,jsons/VE125_randls_18.json,http://54.235.29.9/FacialAge/BNav_EC2/DepthDuration/v2_depth_duration_MTurk/v2_DepthDuration_HTML.html#60,60,1240,698,1364,768,8-29-2022,7-41-43,99,depth_duration_stimuli/001540_2014-06-20_17-01-05_260595134347_rgbf000086-resize_2/001540_2014-06-20_17-01-05_260595134347_rgbf000086-resize-original.jpg,125,1.459,0,29721,126,meters,jsons/VE125_randls_18.json,2309126,2521342,25,Man
99,579243,DepthScenes,duration_manipulation_targetAtFixation,jsons/VE125_randls_18.json,http://54.235.29.9/FacialAge/BNav_EC2/DepthDuration/v2_depth_duration_MTurk/v2_DepthDuration_HTML.html#60,60,1240,698,1364,768,8-29-2022,7-41-43,100,depth_duration_stimuli/002788_2014-06-22_19-36-03_094959634447_rgbf000088-resize_2/002788_2014-06-22_19-36-03_094959634447_rgbf000088-resize_2-target.png,125,1.6465,1,11973,96,meters,jsons/VE125_randls_18.json,2309126,2521342,25,Man
100,579243,DepthScenes,duration_manipulation_targetAtFixation,jsons/VE125_randls_18.json,http://54.235.29.9/FacialAge/BNav_EC2/DepthDuration/v2_depth_duration_MTurk/v2_DepthDuration_HTML.html#60,60,1240,698,1364,768,8-29-2022,7-41-43,101,depth_duration_stimuli/000749_2014-06-08_21-55-06_260595134347_rgbf000070-resize_2/000749_2014-06-08_21-55-06_260595134347_rgbf000070-resize_2-target.png,125,2.331,1,8451,126,meters,jsons/VE125_randls_18.json,2309126,2521342,25,Man
101,579243,DepthScenes,duration_manipulation_targetAtFixation,jsons/VE125_randls_18.json,http://54.235.29.9/FacialAge/BNav_EC2/DepthDuration/v2_depth_duration_MTurk/v2_DepthDuration_HTML.html#60,60,1240,698,1364,768,8-29-2022,7-41-43,102,depth_duration_stimuli/000906_2014-06-08_13-35-43_260595134347_rgbf000155-resize_1/000906_2014-06-08_13-35-43_260595134347_rgbf000155-resize_1-target.png,125,2.8489999999999998,1,7943,545,meters,jsons/VE125_randls_18.json,2309126,2521342,25,Man
102,579243,DepthScenes,duration_manipulation_targetAtFixation,jsons/VE125_randls_18.json,http://54.235.29.9/FacialAge/BNav_EC2/DepthDuration/v2_depth_duration_MTurk/v2_DepthDuration_HTML.html#60,60,1240,698,1364,768,8-29-2022,7-41-43,103,depth_duration_stimuli/002805_2014-06-22_19-54-03_094959634447_rgbf000079-resize_1/002805_2014-06-22_19-54-03_094959634447_rgbf000079-resize_1-target.png,125,3.1439999999999997,0,10489,127,meters,jsons/VE125_randls_18.json,2309126,2521342,25,Man
103,579243,DepthScenes,duration_manipulation_targetAtFixation,jsons/VE125_randls_18.json,http://54.235.29.9/FacialAge/BNav_EC2/DepthDuration/v2_depth_duration_MTurk/v2_DepthDuration_HTML.html#60,60,1240,698,1364,768,8-29-2022,7-41-43,104,depth_duration_stimuli/001570_2014-06-20_17-21-09_260595134347_rgbf000135-resize_4/001570_2014-06-20_17-21-09_260595134347_rgbf000135-resize_4-target.png,125,4.467,0,29767,124,meters,jsons/VE125_randls_18.json,2309126,2521342,25,Man
104,579243,DepthScenes,duration_manipulation_targetAtFixation,jsons/VE125_randls_18.json,http://54.235.29.9/FacialAge/BNav_EC2/DepthDuration/v2_depth_duration_MTurk/v2_DepthDuration_HTML.html#60,60,1240,698,1364,768,8-29-2022,7-41-43,105,depth_duration_stimuli/001392_2014-06-19_16-07-59_260595134347_rgbf000046-resize_1/001392_2014-06-19_16-07-59_260595134347_rgbf000046-resize_1-target.png,125,4.135,1,22743,127,meters,jsons/VE125_randls_18.json,2309126,2521342,25,Man
105,579243,DepthScenes,duration_manipulation_targetAtFixation,jsons/VE125_randls_18.json,http://54.235.29.9/FacialAge/BNav_EC2/DepthDuration/v2_depth_duration_MTurk/v2_DepthDuration_HTML.html#60,60,1240,698,1364,768,8-29-2022,7-41-43,106,depth_duration_stimuli/002905_2014-06-03_18-04-43_094959634447_rgbf000151-resize_2/002905_2014-06-03_18-04-43_094959634447_rgbf000151-resize_2-target.png,125,2.0295,0,20620,123,meters,jsons/VE125_randls_18.json,2309126,2521342,25,Man
106,579243,DepthScenes,duration_manipulation_targetAtFixation,jsons/VE125_randls_18.json,http://54.235.29.9/FacialAge/BNav_EC2/DepthDuration/v2_depth_duration_MTurk/v2_DepthDuration_HTML.html#60,60,1240,698,1364,768,8-29-2022,7-41-43,107,depth_duration_stimuli/003423_2014-05-21_10-23-26_094959634447_rgbf002665-resize_2/003423_2014-05-21_10-23-26_094959634447_rgbf002665-resize_2-target.png,125,3.2575,1,13538,124,meters,jsons/VE125_randls_18.json,2309126,2521342,25,Man
107,579243,DepthScenes,duration_manipulation_targetAtFixation,jsons/VE125_randls_18.json,http://54.235.29.9/FacialAge/BNav_EC2/DepthDuration/v2_depth_duration_MTurk/v2_DepthDuration_HTML.html#60,60,1240,698,1364,768,8-29-2022,7-41-43,108,depth_duration_stimuli/002725_2014-06-22_11-47-51_094959634447_rgbf000070-resize_1/002725_2014-06-22_11-47-51_094959634447_rgbf000070-resize_1-target.png,125,2.195,0,8466,128,meters,jsons/VE125_randls_18.json,2309126,2521342,25,Man
108,579243,DepthScenes,duration_manipulation_targetAtFixation,jsons/VE125_randls_18.json,http://54.235.29.9/FacialAge/BNav_EC2/DepthDuration/v2_depth_duration_MTurk/v2_DepthDuration_HTML.html#60,60,1240,698,1364,768,8-29-2022,7-41-43,109,depth_duration_stimuli/002344_2014-06-28_20-06-29_260595134347_rgbf000030-resize_1/002344_2014-06-28_20-06-29_260595134347_rgbf000030-resize_1-target.png,125,1.5795,0,6527,117,meters,jsons/VE125_randls_18.json,2309126,2521342,25,Man
109,579243,DepthScenes,duration_manipulation_targetAtFixation,jsons/VE125_randls_18.json,http://54.235.29.9/FacialAge/BNav_EC2/DepthDuration/v2_depth_duration_MTurk/v2_DepthDuration_HTML.html#60,60,1240,698,1364,768,8-29-2022,7-41-43,110,depth_duration_stimuli/003621_2014-05-23_18-06-08_094959634447_rgbf000101-resize_1/003621_2014-05-23_18-06-08_094959634447_rgbf000101-resize_1-target.png,125,3.9835,0,8342,126,meters,jsons/VE125_randls_18.json,2309126,2521342,25,Man
110,579243,DepthScenes,duration_manipulation_targetAtFixation,jsons/VE125_randls_18.json,http://54.235.29.9/FacialAge/BNav_EC2/DepthDuration/v2_depth_duration_MTurk/v2_DepthDuration_HTML.html#60,60,1240,698,1364,768,8-29-2022,7-41-43,111,depth_duration_stimuli/001584_2014-06-20_11-07-43_260595134347_rgbf000002-resize_1/001584_2014-06-20_11-07-43_260595134347_rgbf000002-resize_1-target.png,125,3.53,1,12394,320,meters,jsons/VE125_randls_18.json,2309126,2521342,25,Man
111,579243,DepthScenes,duration_manipulation_targetAtFixation,jsons/VE125_randls_18.json,http://54.235.29.9/FacialAge/BNav_EC2/DepthDuration/v2_depth_duration_MTurk/v2_DepthDuration_HTML.html#60,60,1240,698,1364,768,8-29-2022,7-41-43,112,depth_duration_stimuli/002213_2014-06-28_18-37-58_260595134347_rgbf000055-resize_1/002213_2014-06-28_18-37-58_260595134347_rgbf000055-resize_1-target.png,125,3.62,0,8582,0,meters,jsons/VE125_randls_18.json,2309126,2521342,25,Man
112,579243,DepthScenes,duration_manipulation_targetAtFixation,jsons/VE125_randls_18.json,http://54.235.29.9/FacialAge/BNav_EC2/DepthDuration/v2_depth_duration_MTurk/v2_DepthDuration_HTML.html#60,60,1240,698,1364,768,8-29-2022,7-41-43,113,depth_duration_stimuli/000691_2014-06-08_13-08-50_260595134347_rgbf000132-resize_3/000691_2014-06-08_13-08-50_260595134347_rgbf000132-resize_3-target.png,125,4.1530000000000005,0,29369,125,meters,jsons/VE125_randls_18.json,2309126,2521342,25,Man
113,579243,DepthScenes,duration_manipulation_targetAtFixation,jsons/VE125_randls_18.json,http://54.235.29.9/FacialAge/BNav_EC2/DepthDuration/v2_depth_duration_MTurk/v2_DepthDuration_HTML.html#60,60,1240,698,1364,768,8-29-2022,7-41-43,114,depth_duration_stimuli/001199_2014-06-17_16-03-48_260595134347_rgbf000077-resize_0/001199_2014-06-17_16-03-48_260595134347_rgbf000077-resize_0-target.png,125,3.4375,0,12814,127,meters,jsons/VE125_randls_18.json,2309126,2521342,25,Man
114,579243,DepthScenes,duration_manipulation_targetAtFixation,jsons/VE125_randls_18.json,http://54.235.29.9/FacialAge/BNav_EC2/DepthDuration/v2_depth_duration_MTurk/v2_DepthDuration_HTML.html#60,60,1240,698,1364,768,8-29-2022,7-41-43,115,depth_duration_stimuli/000502_2014-06-08_23-02-32_260595134347_rgbf000063-resize_4/000502_2014-06-08_23-02-32_260595134347_rgbf000063-resize_4-target.png,125,2.431,1,8391,124,meters,jsons/VE125_randls_18.json,2309126,2521342,25,Man
115,579243,DepthScenes,duration_manipulation_targetAtFixation,jsons/VE125_randls_18.json,http://54.235.29.9/FacialAge/BNav_EC2/DepthDuration/v2_depth_duration_MTurk/v2_DepthDuration_HTML.html#60,60,1240,698,1364,768,8-29-2022,7-41-43,116,depth_duration_stimuli/001170_2014-06-17_15-43-44_260595134347_rgbf000096-resize_6/001170_2014-06-17_15-43-44_260595134347_rgbf000096-resize-original.jpg,125,1.1909999999999998,0,9161,125,meters,jsons/VE125_randls_18.json,2309126,2521342,25,Man
116,579243,DepthScenes,duration_manipulation_targetAtFixation,jsons/VE125_randls_18.json,http://54.235.29.9/FacialAge/BNav_EC2/DepthDuration/v2_depth_duration_MTurk/v2_DepthDuration_HTML.html#60,60,1240,698,1364,768,8-29-2022,7-41-43,117,depth_duration_stimuli/003492_2014-05-21_15-50-55_094959634447_rgbf000828-resize_1/003492_2014-05-21_15-50-55_094959634447_rgbf000828-resize_1-target.png,125,4.06875,0,29483,125,meters,jsons/VE125_randls_18.json,2309126,2521342,25,Man
117,579243,DepthScenes,duration_manipulation_targetAtFixation,jsons/VE125_randls_18.json,http://54.235.29.9/FacialAge/BNav_EC2/DepthDuration/v2_depth_duration_MTurk/v2_DepthDuration_HTML.html#60,60,1240,698,1364,768,8-29-2022,7-41-43,118,depth_duration_stimuli/002568_2014-06-24_13-59-21_094959634447_rgbf000062-resize_4/002568_2014-06-24_13-59-21_094959634447_rgbf000062-resize_4-target.png,125,3.015,1,7064,125,meters,jsons/VE125_randls_18.json,2309126,2521342,25,Man
118,579243,DepthScenes,duration_manipulation_targetAtFixation,jsons/VE125_randls_18.json,http://54.235.29.9/FacialAge/BNav_EC2/DepthDuration/v2_depth_duration_MTurk/v2_DepthDuration_HTML.html#60,60,1240,698,1364,768,8-29-2022,7-41-43,119,depth_duration_stimuli/001158_2014-06-17_15-32-16_260595134347_rgbf000138-resize_2/001158_2014-06-17_15-32-16_260595134347_rgbf000138-resize_2-target.png,125,4.5315,0,9723,94,meters,jsons/VE125_randls_18.json,2309126,2521342,25,Man
119,579243,DepthScenes,duration_manipulation_targetAtFixation,jsons/VE125_randls_18.json,http://54.235.29.9/FacialAge/BNav_EC2/DepthDuration/v2_depth_duration_MTurk/v2_DepthDuration_HTML.html#60,60,1240,698,1364,768,8-29-2022,7-41-43,120,depth_duration_stimuli/000556_2014-06-09_22-42-56_260595134347_rgbf000214-resize_1/000556_2014-06-09_22-42-56_260595134347_rgbf000214-resize_1-target.png,125,4.8415,0,5760,124,meters,jsons/VE125_randls_18.json,2309126,2521342,25,Man
120,579243,DepthScenes,duration_manipulation_targetAtFixation,jsons/VE125_randls_18.json,http://54.235.29.9/FacialAge/BNav_EC2/DepthDuration/v2_depth_duration_MTurk/v2_DepthDuration_HTML.html#60,60,1240,698,1364,768,8-29-2022,7-41-43,121,depth_duration_stimuli/002784_2014-06-22_19-26-30_094959634447_rgbf000083-resize_3/002784_2014-06-22_19-26-30_094959634447_rgbf000083-resize_3-target.png,125,1.8046666666667,0,7453,124,meters,jsons/VE125_randls_18.json,2309126,2521342,25,Man
121,579243,DepthScenes,duration_manipulation_targetAtFixation,jsons/VE125_randls_18.json,http://54.235.29.9/FacialAge/BNav_EC2/DepthDuration/v2_depth_duration_MTurk/v2_DepthDuration_HTML.html#60,60,1240,698,1364,768,8-29-2022,7-41-43,122,depth_duration_stimuli/001100_2014-06-15_17-46-26_260595134347_rgbf000225-resize_2/001100_2014-06-15_17-46-26_260595134347_rgbf000225-resize_2-target.png,125,2.24,0,22796,124,meters,jsons/VE125_randls_18.json,2309126,2521342,25,Man
122,579243,DepthScenes,duration_manipulation_targetAtFixation,jsons/VE125_randls_18.json,http://54.235.29.9/FacialAge/BNav_EC2/DepthDuration/v2_depth_duration_MTurk/v2_DepthDuration_HTML.html#60,60,1240,698,1364,768,8-29-2022,7-41-43,123,depth_duration_stimuli/003070_2014-06-15_14-58-27_094959634447_rgbf000150-resize_3/003070_2014-06-15_14-58-27_094959634447_rgbf000150-resize_3-target.png,125,2.9415,0,6988,126,meters,jsons/VE125_randls_18.json,2309126,2521342,25,Man
123,579243,DepthScenes,duration_manipulation_targetAtFixation,jsons/VE125_randls_18.json,http://54.235.29.9/FacialAge/BNav_EC2/DepthDuration/v2_depth_duration_MTurk/v2_DepthDuration_HTML.html#60,60,1240,698,1364,768,8-29-2022,7-41-43,124,depth_duration_stimuli/000943_2014-06-09_19-31-07_260595134347_rgbf000128-resize_1/000943_2014-06-09_19-31-07_260595134347_rgbf000128-resize_1-target.png,125,1.9765,1,6010,117,meters,jsons/VE125_randls_18.json,2309126,2521342,25,Man
124,579243,DepthScenes,duration_manipulation_targetAtFixation,jsons/VE125_randls_18.json,http://54.235.29.9/FacialAge/BNav_EC2/DepthDuration/v2_depth_duration_MTurk/v2_DepthDuration_HTML.html#60,60,1240,698,1364,768,8-29-2022,7-41-43,125,depth_duration_stimuli/003534_2014-05-22_15-06-10_094959634447_rgbf000102-resize_4/003534_2014-05-22_15-06-10_094959634447_rgbf000102-resize_4-target.png,125,1.426,1,8452,100,meters,jsons/VE125_randls_18.json,2309126,2521342,25,Man
125,579243,DepthScenes,duration_manipulation_targetAtFixation,jsons/VE125_randls_18.json,http://54.235.29.9/FacialAge/BNav_EC2/DepthDuration/v2_depth_duration_MTurk/v2_DepthDuration_HTML.html#60,60,1240,698,1364,768,8-29-2022,7-41-43,126,depth_duration_stimuli/002637_2014-06-24_14-51-13_094959634447_rgbf000066-resize_4/002637_2014-06-24_14-51-13_094959634447_rgbf000066-resize_4-target.png,125,1.9955,1,5541,124,meters,jsons/VE125_randls_18.json,2309126,2521342,25,Man
126,579243,DepthScenes,duration_manipulation_targetAtFixation,jsons/VE125_randls_18.json,http://54.235.29.9/FacialAge/BNav_EC2/DepthDuration/v2_depth_duration_MTurk/v2_DepthDuration_HTML.html#60,60,1240,698,1364,768,8-29-2022,7-41-43,127,depth_duration_stimuli/000009_2014-05-26_14-32-05_260595134347_rgbf000034-resize_3/000009_2014-05-26_14-32-05_260595134347_rgbf000034-resize_3-target.png,125,3.8715,1,9914,118,meters,jsons/VE125_randls_18.json,2309126,2521342,25,Man
127,579243,DepthScenes,duration_manipulation_targetAtFixation,jsons/VE125_randls_18.json,http://54.235.29.9/FacialAge/BNav_EC2/DepthDuration/v2_depth_duration_MTurk/v2_DepthDuration_HTML.html#60,60,1240,698,1364,768,8-29-2022,7-41-43,128,depth_duration_stimuli/001828_2014-06-26_21-40-03_260595134347_rgbf000024-resize_0/001828_2014-06-26_21-40-03_260595134347_rgbf000024-resize_0-target.png,125,4.8260000000000005,0,5820,127,meters,jsons/VE125_randls_18.json,2309126,2521342,25,Man
128,579243,DepthScenes,duration_manipulation_targetAtFixation,jsons/VE125_randls_18.json,http://54.235.29.9/FacialAge/BNav_EC2/DepthDuration/v2_depth_duration_MTurk/v2_DepthDuration_HTML.html#60,60,1240,698,1364,768,8-29-2022,7-41-43,129,depth_duration_stimuli/001806_2014-06-26_20-50-20_260595134347_rgbf000091-resize_1/001806_2014-06-26_20-50-20_260595134347_rgbf000091-resize_1-target.png,125,2.7305,1,5577,136,meters,jsons/VE125_randls_18.json,2309126,2521342,25,Man
129,579243,DepthScenes,duration_manipulation_targetAtFixation,jsons/VE125_randls_18.json,http://54.235.29.9/FacialAge/BNav_EC2/DepthDuration/v2_depth_duration_MTurk/v2_DepthDuration_HTML.html#60,60,1240,698,1364,768,8-29-2022,7-41-43,130,depth_duration_stimuli/001617_2014-06-20_11-35-32_260595134347_rgbf000066-resize_1/001617_2014-06-20_11-35-32_260595134347_rgbf000066-resize_1-target.png,125,3.7910000000000004,0,30245,128,meters,jsons/VE125_randls_18.json,2309126,2521342,25,Man
130,579243,DepthScenes,duration_manipulation_targetAtFixation,jsons/VE125_randls_18.json,http://54.235.29.9/FacialAge/BNav_EC2/DepthDuration/v2_depth_duration_MTurk/v2_DepthDuration_HTML.html#60,60,1240,698,1364,768,8-29-2022,7-41-43,131,depth_duration_stimuli/002445_2014-06-28_20-32-16_260595134347_rgbf000029-resize_4/002445_2014-06-28_20-32-16_260595134347_rgbf000029-resize_4-target.png,125,2.5315,0,7291,1117,meters,jsons/VE125_randls_18.json,2309126,2521342,25,Man
131,579243,DepthScenes,duration_manipulation_targetAtFixation,jsons/VE125_randls_18.json,http://54.235.29.9/FacialAge/BNav_EC2/DepthDuration/v2_depth_duration_MTurk/v2_DepthDuration_HTML.html#60,60,1240,698,1364,768,8-29-2022,7-41-43,132,depth_duration_stimuli/000780_2014-06-08_22-28-29_260595134347_rgbf000126-resize_1/000780_2014-06-08_22-28-29_260595134347_rgbf000126-resize_1-target.png,125,3.3825,0,7987,126,meters,jsons/VE125_randls_18.json,2309126,2521342,25,Man
132,579243,DepthScenes,duration_manipulation_targetAtFixation,jsons/VE125_randls_18.json,http://54.235.29.9/FacialAge/BNav_EC2/DepthDuration/v2_depth_duration_MTurk/v2_DepthDuration_HTML.html#60,60,1240,698,1364,768,8-29-2022,7-41-43,133,depth_duration_stimuli/000917_2014-06-09_22-45-29_260595134347_rgbf000149-resize_3/000917_2014-06-09_22-45-29_260595134347_rgbf000149-resize_3-target.png,125,4.1865,0,7532,124,meters,jsons/VE125_randls_18.json,2309126,2521342,25,Man
133,579243,DepthScenes,duration_manipulation_targetAtFixation,jsons/VE125_randls_18.json,http://54.235.29.9/FacialAge/BNav_EC2/DepthDuration/v2_depth_duration_MTurk/v2_DepthDuration_HTML.html#60,60,1240,698,1364,768,8-29-2022,7-41-43,134,depth_duration_stimuli/002323_2014-06-28_20-01-54_260595134347_rgbf000051-resize_4/002323_2014-06-28_20-01-54_260595134347_rgbf000051-resize_4-target.png,125,3.7310000000000003,1,5051,123,meters,jsons/VE125_randls_18.json,2309126,2521342,25,Man
134,579243,DepthScenes,duration_manipulation_targetAtFixation,jsons/VE125_randls_18.json,http://54.235.29.9/FacialAge/BNav_EC2/DepthDuration/v2_depth_duration_MTurk/v2_DepthDuration_HTML.html#60,60,1240,698,1364,768,8-29-2022,7-41-43,135,depth_duration_stimuli/002072_2014-06-24_21-48-06_260595134347_rgbf000115-resize_0/002072_2014-06-24_21-48-06_260595134347_rgbf000115-resize-original.jpg,125,4.702,0,7193,125,meters,jsons/VE125_randls_18.json,2309126,2521342,25,Man
135,579243,DepthScenes,duration_manipulation_targetAtFixation,jsons/VE125_randls_18.json,http://54.235.29.9/FacialAge/BNav_EC2/DepthDuration/v2_depth_duration_MTurk/v2_DepthDuration_HTML.html#60,60,1240,698,1364,768,8-29-2022,7-41-43,136,depth_duration_stimuli/002043_2014-06-24_20-29-38_260595134347_rgbf000039-resize_4/002043_2014-06-24_20-29-38_260595134347_rgbf000039-resize_4-target.png,125,2.8435,1,30950,121,meters,jsons/VE125_randls_18.json,2309126,2521342,25,Man
136,579243,DepthScenes,duration_manipulation_targetAtFixation,jsons/VE125_randls_18.json,http://54.235.29.9/FacialAge/BNav_EC2/DepthDuration/v2_depth_duration_MTurk/v2_DepthDuration_HTML.html#60,60,1240,698,1364,768,8-29-2022,7-41-43,137,depth_duration_stimuli/003048_2014-06-15_13-49-43_094959634447_rgbf000150-resize_1/003048_2014-06-15_13-49-43_094959634447_rgbf000150-resize_1-target.png,125,4.0035,0,9255,175,meters,jsons/VE125_randls_18.json,2309126,2521342,25,Man
137,579243,DepthScenes,duration_manipulation_targetAtFixation,jsons/VE125_randls_18.json,http://54.235.29.9/FacialAge/BNav_EC2/DepthDuration/v2_depth_duration_MTurk/v2_DepthDuration_HTML.html#60,60,1240,698,1364,768,8-29-2022,7-41-43,138,depth_duration_stimuli/000682_2014-06-08_23-14-58_260595134347_rgbf000041-resize_5/000682_2014-06-08_23-14-58_260595134347_rgbf000041-resize_5-target.png,125,2.7239999999999998,1,8433,126,meters,jsons/VE125_randls_18.json,2309126,2521342,25,Man
138,579243,DepthScenes,duration_manipulation_targetAtFixation,jsons/VE125_randls_18.json,http://54.235.29.9/FacialAge/BNav_EC2/DepthDuration/v2_depth_duration_MTurk/v2_DepthDuration_HTML.html#60,60,1240,698,1364,768,8-29-2022,7-41-43,139,depth_duration_stimuli/001650_2014-06-20_12-09-00_260595134347_rgbf000087-resize_3/001650_2014-06-20_12-09-00_260595134347_rgbf000087-resize_3-target.png,125,1.9505,1,9750,123,meters,jsons/VE125_randls_18.json,2309126,2521342,25,Man
139,579243,DepthScenes,duration_manipulation_targetAtFixation,jsons/VE125_randls_18.json,http://54.235.29.9/FacialAge/BNav_EC2/DepthDuration/v2_depth_duration_MTurk/v2_DepthDuration_HTML.html#60,60,1240,698,1364,768,8-29-2022,7-41-43,140,depth_duration_stimuli/000736_2014-06-08_18-24-15_260595134347_rgbf000206-resize_3/000736_2014-06-08_18-24-15_260595134347_rgbf000206-resize_3-target.png,125,3.515,1,9164,123,meters,jsons/VE125_randls_18.json,2309126,2521342,25,Man
140,579243,DepthScenes,duration_manipulation_targetAtFixation,jsons/VE125_randls_18.json,http://54.235.29.9/FacialAge/BNav_EC2/DepthDuration/v2_depth_duration_MTurk/v2_DepthDuration_HTML.html#60,60,1240,698,1364,768,8-29-2022,7-41-43,141,depth_duration_stimuli/000137_2014-05-20_17-04-49_260595134347_rgbf000120-resize_1/000137_2014-05-20_17-04-49_260595134347_rgbf000120-resize_1-target.png,125,3.786,0,21749,122,meters,jsons/VE125_randls_18.json,2309126,2521342,25,Man
141,579243,DepthScenes,duration_manipulation_targetAtFixation,jsons/VE125_randls_18.json,http://54.235.29.9/FacialAge/BNav_EC2/DepthDuration/v2_depth_duration_MTurk/v2_DepthDuration_HTML.html#60,60,1240,698,1364,768,8-29-2022,7-41-43,142,depth_duration_stimuli/000810_2014-06-08_17-20-01_260595134347_rgbf000105-resize_0/000810_2014-06-08_17-20-01_260595134347_rgbf000105-resize_0-target.png,125,1.4865,0,7449,124,meters,jsons/VE125_randls_18.json,2309126,2521342,25,Man
142,579243,DepthScenes,duration_manipulation_targetAtFixation,jsons/VE125_randls_18.json,http://54.235.29.9/FacialAge/BNav_EC2/DepthDuration/v2_depth_duration_MTurk/v2_DepthDuration_HTML.html#60,60,1240,698,1364,768,8-29-2022,7-41-43,143,depth_duration_stimuli/001214_2014-06-17_16-13-55_260595134347_rgbf000111-resize_0/001214_2014-06-17_16-13-55_260595134347_rgbf000111-resize_0-target.png,125,2.6505,0,9713,136,meters,jsons/VE125_randls_18.json,2309126,2521342,25,Man
143,579243,DepthScenes,duration_manipulation_targetAtFixation,jsons/VE125_randls_18.json,http://54.235.29.9/FacialAge/BNav_EC2/DepthDuration/v2_depth_duration_MTurk/v2_DepthDuration_HTML.html#60,60,1240,698,1364,768,8-29-2022,7-41-43,144,depth_duration_stimuli/002964_2014-06-08_17-46-11_094959634447_rgbf000091-resize_4/002964_2014-06-08_17-46-11_094959634447_rgbf000091-resize_4-target.png,125,1.6909999999999998,1,7841,142,meters,jsons/VE125_randls_18.json,2309126,2521342,25,Man
144,579243,DepthScenes,duration_manipulation_targetAtFixation,jsons/VE125_randls_18.json,http://54.235.29.9/FacialAge/BNav_EC2/DepthDuration/v2_depth_duration_MTurk/v2_DepthDuration_HTML.html#60,60,1240,698,1364,768,8-29-2022,7-41-43,145,depth_duration_stimuli/002136_2014-06-25_21-18-03_260595134347_rgbf000109-resize_3/002136_2014-06-25_21-18-03_260595134347_rgbf000109-resize_3-target.png,125,1.9569999999999999,0,8522,127,meters,jsons/VE125_randls_18.json,2309126,2521342,25,Man
145,579243,DepthScenes,duration_manipulation_targetAtFixation,jsons/VE125_randls_18.json,http://54.235.29.9/FacialAge/BNav_EC2/DepthDuration/v2_depth_duration_MTurk/v2_DepthDuration_HTML.html#60,60,1240,698,1364,768,8-29-2022,7-41-43,146,depth_duration_stimuli/001498_2014-06-19_17-45-14_260595134347_rgbf000129-resize_4/001498_2014-06-19_17-45-14_260595134347_rgbf000129-resize-original.jpg,125,1.4075,0,20874,124,meters,jsons/VE125_randls_18.json,2309126,2521342,25,Man
146,579243,DepthScenes,duration_manipulation_targetAtFixation,jsons/VE125_randls_18.json,http://54.235.29.9/FacialAge/BNav_EC2/DepthDuration/v2_depth_duration_MTurk/v2_DepthDuration_HTML.html#60,60,1240,698,1364,768,8-29-2022,7-41-43,147,depth_duration_stimuli/001244_2014-06-17_16-47-45_260595134347_rgbf000030-resize_4/001244_2014-06-17_16-47-45_260595134347_rgbf000030-resize_4-target.png,125,2.0425,1,6250,124,meters,jsons/VE125_randls_18.json,2309126,2521342,25,Man
147,579243,DepthScenes,duration_manipulation_targetAtFixation,jsons/VE125_randls_18.json,http://54.235.29.9/FacialAge/BNav_EC2/DepthDuration/v2_depth_duration_MTurk/v2_DepthDuration_HTML.html#60,60,1240,698,1364,768,8-29-2022,7-41-43,148,depth_duration_stimuli/003495_2014-05-21_16-01-51_094959634447_rgbf000100-resize_3/003495_2014-05-21_16-01-51_094959634447_rgbf000100-resize_3-target.png,125,1.6255,1,7664,142,meters,jsons/VE125_randls_18.json,2309126,2521342,25,Man
148,579243,DepthScenes,duration_manipulation_targetAtFixation,jsons/VE125_randls_18.json,http://54.235.29.9/FacialAge/BNav_EC2/DepthDuration/v2_depth_duration_MTurk/v2_DepthDuration_HTML.html#60,60,1240,698,1364,768,8-29-2022,7-41-43,149,depth_duration_stimuli/001167_2014-06-17_15-38-07_260595134347_rgbf000108-resize_0/001167_2014-06-17_15-38-07_260595134347_rgbf000108-resize_0-target.png,125,1.8505,1,9682,116,meters,jsons/VE125_randls_18.json,2309126,2521342,25,Man
149,579243,DepthScenes,duration_manipulation_targetAtFixation,jsons/VE125_randls_18.json,http://54.235.29.9/FacialAge/BNav_EC2/DepthDuration/v2_depth_duration_MTurk/v2_DepthDuration_HTML.html#60,60,1240,698,1364,768,8-29-2022,7-41-43,150,depth_duration_stimuli/003587_2014-05-23_16-48-02_094959634447_rgbf002384-resize_2/003587_2014-05-23_16-48-02_094959634447_rgbf002384-resize_2-target.png,125,1.357,1,7247,121,meters,jsons/VE125_randls_18.json,2309126,2521342,25,Man
150,579243,DepthScenes,duration_manipulation_targetAtFixation,jsons/VE125_randls_18.json,http://54.235.29.9/FacialAge/BNav_EC2/DepthDuration/v2_depth_duration_MTurk/v2_DepthDuration_HTML.html#60,60,1240,698,1364,768,8-29-2022,7-41-43,151,depth_duration_stimuli/001164_2014-06-17_15-35-46_260595134347_rgbf000085-resize_3/001164_2014-06-17_15-35-46_260595134347_rgbf000085-resize_3-target.png,125,2.354,1,6902,140,meters,jsons/VE125_randls_18.json,2309126,2521342,25,Man
151,579243,DepthScenes,duration_manipulation_targetAtFixation,jsons/VE125_randls_18.json,http://54.235.29.9/FacialAge/BNav_EC2/DepthDuration/v2_depth_duration_MTurk/v2_DepthDuration_HTML.html#60,60,1240,698,1364,768,8-29-2022,7-41-43,152,depth_duration_stimuli/001136_2014-06-17_15-19-41_260595134347_rgbf000076-resize_3/001136_2014-06-17_15-19-41_260595134347_rgbf000076-resize_3-target.png,125,1.8655,1,23394,125,meters,jsons/VE125_randls_18.json,2309126,2521342,25,Man
152,579243,DepthScenes,duration_manipulation_targetAtFixation,jsons/VE125_randls_18.json,http://54.235.29.9/FacialAge/BNav_EC2/DepthDuration/v2_depth_duration_MTurk/v2_DepthDuration_HTML.html#60,60,1240,698,1364,768,8-29-2022,7-41-43,153,depth_duration_stimuli/002039_2014-06-24_20-22-38_260595134347_rgbf000084-resize_1/002039_2014-06-24_20-22-38_260595134347_rgbf000084-resize_1-target.png,125,4.408,1,5842,128,meters,jsons/VE125_randls_18.json,2309126,2521342,25,Man
153,579243,DepthScenes,duration_manipulation_targetAtFixation,jsons/VE125_randls_18.json,http://54.235.29.9/FacialAge/BNav_EC2/DepthDuration/v2_depth_duration_MTurk/v2_DepthDuration_HTML.html#60,60,1240,698,1364,768,8-29-2022,7-41-43,154,depth_duration_stimuli/002103_2014-06-25_20-00-40_260595134347_rgbf000049-resize_0/002103_2014-06-25_20-00-40_260595134347_rgbf000049-resize_0-target.png,125,4.105,0,7186,124,meters,jsons/VE125_randls_18.json,2309126,2521342,25,Man
154,579243,DepthScenes,duration_manipulation_targetAtFixation,jsons/VE125_randls_18.json,http://54.235.29.9/FacialAge/BNav_EC2/DepthDuration/v2_depth_duration_MTurk/v2_DepthDuration_HTML.html#60,60,1240,698,1364,768,8-29-2022,7-41-43,155,depth_duration_stimuli/001011_2014-06-08_23-18-54_260595134347_rgbf000044-resize_4/001011_2014-06-08_23-18-54_260595134347_rgbf000044-resize_4-target.png,125,2.4730000000000003,0,9056,124,meters,jsons/VE125_randls_18.json,2309126,2521342,25,Man
155,579243,DepthScenes,duration_manipulation_targetAtFixation,jsons/VE125_randls_18.json,http://54.235.29.9/FacialAge/BNav_EC2/DepthDuration/v2_depth_duration_MTurk/v2_DepthDuration_HTML.html#60,60,1240,698,1364,768,8-29-2022,7-41-43,156,depth_duration_stimuli/002875_2014-06-01_15-19-00_094959634447_rgbf000151-resize_1/002875_2014-06-01_15-19-00_094959634447_rgbf000151-resize_1-target.png,125,1.9675,1,7969,125,meters,jsons/VE125_randls_18.json,2309126,2521342,25,Man
156,579243,DepthScenes,duration_manipulation_targetAtFixation,jsons/VE125_randls_18.json,http://54.235.29.9/FacialAge/BNav_EC2/DepthDuration/v2_depth_duration_MTurk/v2_DepthDuration_HTML.html#60,60,1240,698,1364,768,8-29-2022,7-41-43,157,depth_duration_stimuli/001150_2014-06-17_15-27-34_260595134347_rgbf000108-resize_2/001150_2014-06-17_15-27-34_260595134347_rgbf000108-resize_2-target.png,125,4.0325,0,10306,125,meters,jsons/VE125_randls_18.json,2309126,2521342,25,Man
157,579243,DepthScenes,duration_manipulation_targetAtFixation,jsons/VE125_randls_18.json,http://54.235.29.9/FacialAge/BNav_EC2/DepthDuration/v2_depth_duration_MTurk/v2_DepthDuration_HTML.html#60,60,1240,698,1364,768,8-29-2022,7-41-43,158,depth_duration_stimuli/000665_2014-06-09_20-42-35_260595134347_rgbf000110-resize_1/000665_2014-06-09_20-42-35_260595134347_rgbf000110-resize_1-target.png,125,3.057,0,34653,150,meters,jsons/VE125_randls_18.json,2309126,2521342,25,Man
158,579243,DepthScenes,duration_manipulation_targetAtFixation,jsons/VE125_randls_18.json,http://54.235.29.9/FacialAge/BNav_EC2/DepthDuration/v2_depth_duration_MTurk/v2_DepthDuration_HTML.html#60,60,1240,698,1364,768,8-29-2022,7-41-43,159,depth_duration_stimuli/002763_2014-06-22_19-13-10_094959634447_rgbf000075-resize_4/002763_2014-06-22_19-13-10_094959634447_rgbf000075-resize_4-target.png,125,1.68375,0,7701,125,meters,jsons/VE125_randls_18.json,2309126,2521342,25,Man
159,579243,DepthScenes,duration_manipulation_targetAtFixation,jsons/VE125_randls_18.json,http://54.235.29.9/FacialAge/BNav_EC2/DepthDuration/v2_depth_duration_MTurk/v2_DepthDuration_HTML.html#60,60,1240,698,1364,768,8-29-2022,7-41-43,160,depth_duration_stimuli/002209_2014-06-28_18-36-10_260595134347_rgbf000051-resize_1/002209_2014-06-28_18-36-10_260595134347_rgbf000051-resize_1-target.png,125,2.057,1,9125,124,meters,jsons/VE125_randls_18.json,2309126,2521342,25,Man
160,579243,DepthScenes,duration_manipulation_targetAtFixation,jsons/VE125_randls_18.json,http://54.235.29.9/FacialAge/BNav_EC2/DepthDuration/v2_depth_duration_MTurk/v2_DepthDuration_HTML.html#60,60,1240,698,1364,768,8-29-2022,7-41-43,161,depth_duration_stimuli/003292_2014-05-14_21-53-49_094959634447_rgbf000100-resize_2/003292_2014-05-14_21-53-49_094959634447_rgbf000100-resize_2-target.png,125,3.4815,1,10881,124,meters,jsons/VE125_randls_18.json,2309126,2521342,25,Man
161,579243,DepthScenes,duration_manipulation_targetAtFixation,jsons/VE125_randls_18.json,http://54.235.29.9/FacialAge/BNav_EC2/DepthDuration/v2_depth_duration_MTurk/v2_DepthDuration_HTML.html#60,60,1240,698,1364,768,8-29-2022,7-41-43,162,depth_duration_stimuli/002639_2014-06-24_14-51-37_094959634447_rgbf000074-resize_4/002639_2014-06-24_14-51-37_094959634447_rgbf000074-resize_4-target.png,125,4.0375,0,23434,1,meters,jsons/VE125_randls_18.json,2309126,2521342,25,Man
162,579243,DepthScenes,duration_manipulation_targetAtFixation,jsons/VE125_randls_18.json,http://54.235.29.9/FacialAge/BNav_EC2/DepthDuration/v2_depth_duration_MTurk/v2_DepthDuration_HTML.html#60,60,1240,698,1364,768,8-29-2022,7-41-43,163,depth_duration_stimuli/000470_2014-06-09_19-42-40_260595134347_rgbf000094-resize_1/000470_2014-06-09_19-42-40_260595134347_rgbf000094-resize_1-target.png,125,1.831,1,10399,137,meters,jsons/VE125_randls_18.json,2309126,2521342,25,Man
163,579243,DepthScenes,duration_manipulation_targetAtFixation,jsons/VE125_randls_18.json,http://54.235.29.9/FacialAge/BNav_EC2/DepthDuration/v2_depth_duration_MTurk/v2_DepthDuration_HTML.html#60,60,1240,698,1364,768,8-29-2022,7-41-43,164,depth_duration_stimuli/000109_2014-05-14_23-41-52_260595134347_rgbf000035-resize_9/000109_2014-05-14_23-41-52_260595134347_rgbf000035-resize_9-target.png,125,1.3545,1,11257,124,meters,jsons/VE125_randls_18.json,2309126,2521342,25,Man
