,subjID,experimentName,versionName,sequenceName,url,selected_row,windowWidth,windowHeight,screenWidth,screenHeight,startDate,startTime,trial,stimulus,duration,actual_depth,depth_estimate,trial_RT,log_sceneDuration,unitSelection,seq_filepath,experimentTime,totalTime,age,gender
0,579384,DepthScenes,duration_manipulation_targetAtFixation,jsons/v1_VE250_randls_71.json,http://54.235.29.9/FacialAge/BNav_EC2/DepthDuration/v2_depth_duration_MTurk/v2_DepthDuration_HTML.html#290,290,1504,694,1536,864,8-29-2022,8-26-59,1,depth_duration_stimuli/002549_2014-06-24_13-41-39_094959634447_rgbf000022-resize_3/002549_2014-06-24_13-41-39_094959634447_rgbf000022-resize_3-target.png,250,1.476,3,3714,252,feet,jsons/v1_VE250_randls_71.json,653674,780824,20,Woman
1,579384,DepthScenes,duration_manipulation_targetAtFixation,jsons/v1_VE250_randls_71.json,http://54.235.29.9/FacialAge/BNav_EC2/DepthDuration/v2_depth_duration_MTurk/v2_DepthDuration_HTML.html#290,290,1504,694,1536,864,8-29-2022,8-26-59,2,depth_duration_stimuli/002750_2014-06-22_19-08-03_094959634447_rgbf000094-resize_4/002750_2014-06-22_19-08-03_094959634447_rgbf000094-resize_4-target.png,250,2.354,5,2893,257,feet,jsons/v1_VE250_randls_71.json,653674,780824,20,Woman
2,579384,DepthScenes,duration_manipulation_targetAtFixation,jsons/v1_VE250_randls_71.json,http://54.235.29.9/FacialAge/BNav_EC2/DepthDuration/v2_depth_duration_MTurk/v2_DepthDuration_HTML.html#290,290,1504,694,1536,864,8-29-2022,8-26-59,3,depth_duration_stimuli/000917_2014-06-09_22-45-29_260595134347_rgbf000149-resize_3/000917_2014-06-09_22-45-29_260595134347_rgbf000149-resize_3-target.png,250,4.1865,7,5576,246,feet,jsons/v1_VE250_randls_71.json,653674,780824,20,Woman
3,579384,DepthScenes,duration_manipulation_targetAtFixation,jsons/v1_VE250_randls_71.json,http://54.235.29.9/FacialAge/BNav_EC2/DepthDuration/v2_depth_duration_MTurk/v2_DepthDuration_HTML.html#290,290,1504,694,1536,864,8-29-2022,8-26-59,4,depth_duration_stimuli/002323_2014-06-28_20-01-54_260595134347_rgbf000051-resize_4/002323_2014-06-28_20-01-54_260595134347_rgbf000051-resize_4-target.png,250,3.7310000000000003,7,6487,258,feet,jsons/v1_VE250_randls_71.json,653674,780824,20,Woman
4,579384,DepthScenes,duration_manipulation_targetAtFixation,jsons/v1_VE250_randls_71.json,http://54.235.29.9/FacialAge/BNav_EC2/DepthDuration/v2_depth_duration_MTurk/v2_DepthDuration_HTML.html#290,290,1504,694,1536,864,8-29-2022,8-26-59,5,depth_duration_stimuli/001150_2014-06-17_15-27-34_260595134347_rgbf000108-resize_2/001150_2014-06-17_15-27-34_260595134347_rgbf000108-resize_2-target.png,250,4.0325,6,3090,254,feet,jsons/v1_VE250_randls_71.json,653674,780824,20,Woman
5,579384,DepthScenes,duration_manipulation_targetAtFixation,jsons/v1_VE250_randls_71.json,http://54.235.29.9/FacialAge/BNav_EC2/DepthDuration/v2_depth_duration_MTurk/v2_DepthDuration_HTML.html#290,290,1504,694,1536,864,8-29-2022,8-26-59,6,depth_duration_stimuli/000665_2014-06-09_20-42-35_260595134347_rgbf000110-resize_1/000665_2014-06-09_20-42-35_260595134347_rgbf000110-resize_1-target.png,250,3.057,5,2759,257,feet,jsons/v1_VE250_randls_71.json,653674,780824,20,Woman
6,579384,DepthScenes,duration_manipulation_targetAtFixation,jsons/v1_VE250_randls_71.json,http://54.235.29.9/FacialAge/BNav_EC2/DepthDuration/v2_depth_duration_MTurk/v2_DepthDuration_HTML.html#290,290,1504,694,1536,864,8-29-2022,8-26-59,7,depth_duration_stimuli/003621_2014-05-23_18-06-08_094959634447_rgbf000101-resize_1/003621_2014-05-23_18-06-08_094959634447_rgbf000101-resize_1-target.png,250,3.9835,10,4571,250,feet,jsons/v1_VE250_randls_71.json,653674,780824,20,Woman
7,579384,DepthScenes,duration_manipulation_targetAtFixation,jsons/v1_VE250_randls_71.json,http://54.235.29.9/FacialAge/BNav_EC2/DepthDuration/v2_depth_duration_MTurk/v2_DepthDuration_HTML.html#290,290,1504,694,1536,864,8-29-2022,8-26-59,8,depth_duration_stimuli/001584_2014-06-20_11-07-43_260595134347_rgbf000002-resize_1/001584_2014-06-20_11-07-43_260595134347_rgbf000002-resize_1-target.png,250,3.53,5,3168,258,feet,jsons/v1_VE250_randls_71.json,653674,780824,20,Woman
8,579384,DepthScenes,duration_manipulation_targetAtFixation,jsons/v1_VE250_randls_71.json,http://54.235.29.9/FacialAge/BNav_EC2/DepthDuration/v2_depth_duration_MTurk/v2_DepthDuration_HTML.html#290,290,1504,694,1536,864,8-29-2022,8-26-59,9,depth_duration_stimuli/001092_2014-06-15_17-34-58_260595134347_rgbf000171-resize_3/001092_2014-06-15_17-34-58_260595134347_rgbf000171-resize_3-target.png,250,2.6935,5,2829,258,feet,jsons/v1_VE250_randls_71.json,653674,780824,20,Woman
9,579384,DepthScenes,duration_manipulation_targetAtFixation,jsons/v1_VE250_randls_71.json,http://54.235.29.9/FacialAge/BNav_EC2/DepthDuration/v2_depth_duration_MTurk/v2_DepthDuration_HTML.html#290,290,1504,694,1536,864,8-29-2022,8-26-59,10,depth_duration_stimuli/002545_2014-06-24_13-38-53_094959634447_rgbf000080-resize_4/002545_2014-06-24_13-38-53_094959634447_rgbf000080-resize_4-target.png,250,1.9205,8,3416,248,feet,jsons/v1_VE250_randls_71.json,653674,780824,20,Woman
10,579384,DepthScenes,duration_manipulation_targetAtFixation,jsons/v1_VE250_randls_71.json,http://54.235.29.9/FacialAge/BNav_EC2/DepthDuration/v2_depth_duration_MTurk/v2_DepthDuration_HTML.html#290,290,1504,694,1536,864,8-29-2022,8-26-59,11,depth_duration_stimuli/002039_2014-06-24_20-22-38_260595134347_rgbf000084-resize_1/002039_2014-06-24_20-22-38_260595134347_rgbf000084-resize_1-target.png,250,4.408,8,2834,243,feet,jsons/v1_VE250_randls_71.json,653674,780824,20,Woman
11,579384,DepthScenes,duration_manipulation_targetAtFixation,jsons/v1_VE250_randls_71.json,http://54.235.29.9/FacialAge/BNav_EC2/DepthDuration/v2_depth_duration_MTurk/v2_DepthDuration_HTML.html#290,290,1504,694,1536,864,8-29-2022,8-26-59,12,depth_duration_stimuli/002103_2014-06-25_20-00-40_260595134347_rgbf000049-resize_0/002103_2014-06-25_20-00-40_260595134347_rgbf000049-resize_0-target.png,250,4.105,10,3992,252,feet,jsons/v1_VE250_randls_71.json,653674,780824,20,Woman
12,579384,DepthScenes,duration_manipulation_targetAtFixation,jsons/v1_VE250_randls_71.json,http://54.235.29.9/FacialAge/BNav_EC2/DepthDuration/v2_depth_duration_MTurk/v2_DepthDuration_HTML.html#290,290,1504,694,1536,864,8-29-2022,8-26-59,13,depth_duration_stimuli/000569_2014-06-09_22-51-47_260595134347_rgbf000141-resize_3/000569_2014-06-09_22-51-47_260595134347_rgbf000141-resize-original.jpg,250,4.512,0,2869,256,feet,jsons/v1_VE250_randls_71.json,653674,780824,20,Woman
13,579384,DepthScenes,duration_manipulation_targetAtFixation,jsons/v1_VE250_randls_71.json,http://54.235.29.9/FacialAge/BNav_EC2/DepthDuration/v2_depth_duration_MTurk/v2_DepthDuration_HTML.html#290,290,1504,694,1536,864,8-29-2022,8-26-59,14,depth_duration_stimuli/000739_2014-06-08_18-45-58_260595134347_rgbf000068-resize_1/000739_2014-06-08_18-45-58_260595134347_rgbf000068-resize_1-target.png,250,3.534,5,3105,250,feet,jsons/v1_VE250_randls_71.json,653674,780824,20,Woman
14,579384,DepthScenes,duration_manipulation_targetAtFixation,jsons/v1_VE250_randls_71.json,http://54.235.29.9/FacialAge/BNav_EC2/DepthDuration/v2_depth_duration_MTurk/v2_DepthDuration_HTML.html#290,290,1504,694,1536,864,8-29-2022,8-26-59,15,depth_duration_stimuli/000734_2014-06-08_17-39-11_260595134347_rgbf000128-resize_2/000734_2014-06-08_17-39-11_260595134347_rgbf000128-resize_2-target.png,250,4.098,9,2964,248,feet,jsons/v1_VE250_randls_71.json,653674,780824,20,Woman
15,579384,DepthScenes,duration_manipulation_targetAtFixation,jsons/v1_VE250_randls_71.json,http://54.235.29.9/FacialAge/BNav_EC2/DepthDuration/v2_depth_duration_MTurk/v2_DepthDuration_HTML.html#290,290,1504,694,1536,864,8-29-2022,8-26-59,16,depth_duration_stimuli/000758_2014-06-08_22-05-08_260595134347_rgbf000085-resize_0/000758_2014-06-08_22-05-08_260595134347_rgbf000085-resize_0-target.png,250,3.3810000000000002,15,3562,250,feet,jsons/v1_VE250_randls_71.json,653674,780824,20,Woman
16,579384,DepthScenes,duration_manipulation_targetAtFixation,jsons/v1_VE250_randls_71.json,http://54.235.29.9/FacialAge/BNav_EC2/DepthDuration/v2_depth_duration_MTurk/v2_DepthDuration_HTML.html#290,290,1504,694,1536,864,8-29-2022,8-26-59,17,depth_duration_stimuli/000854_2014-06-09_19-43-13_260595134347_rgbf000066-resize_0/000854_2014-06-09_19-43-13_260595134347_rgbf000066-resize_0-target.png,250,3.068,4,4848,253,feet,jsons/v1_VE250_randls_71.json,653674,780824,20,Woman
17,579384,DepthScenes,duration_manipulation_targetAtFixation,jsons/v1_VE250_randls_71.json,http://54.235.29.9/FacialAge/BNav_EC2/DepthDuration/v2_depth_duration_MTurk/v2_DepthDuration_HTML.html#290,290,1504,694,1536,864,8-29-2022,8-26-59,18,depth_duration_stimuli/001555_2014-06-20_17-12-10_260595134347_rgbf000065-resize_4/001555_2014-06-20_17-12-10_260595134347_rgbf000065-resize_4-target.png,250,1.633,3,2678,256,feet,jsons/v1_VE250_randls_71.json,653674,780824,20,Woman
18,579384,DepthScenes,duration_manipulation_targetAtFixation,jsons/v1_VE250_randls_71.json,http://54.235.29.9/FacialAge/BNav_EC2/DepthDuration/v2_depth_duration_MTurk/v2_DepthDuration_HTML.html#290,290,1504,694,1536,864,8-29-2022,8-26-59,19,depth_duration_stimuli/000103_2014-05-14_22-01-17_260595134347_rgbf000152-resize_5/000103_2014-05-14_22-01-17_260595134347_rgbf000152-resize_5-target.png,250,1.993,5,3321,253,feet,jsons/v1_VE250_randls_71.json,653674,780824,20,Woman
19,579384,DepthScenes,duration_manipulation_targetAtFixation,jsons/v1_VE250_randls_71.json,http://54.235.29.9/FacialAge/BNav_EC2/DepthDuration/v2_depth_duration_MTurk/v2_DepthDuration_HTML.html#290,290,1504,694,1536,864,8-29-2022,8-26-59,20,depth_duration_stimuli/002763_2014-06-22_19-13-10_094959634447_rgbf000075-resize_4/002763_2014-06-22_19-13-10_094959634447_rgbf000075-resize_4-target.png,250,1.68375,3,2825,251,feet,jsons/v1_VE250_randls_71.json,653674,780824,20,Woman
20,579384,DepthScenes,duration_manipulation_targetAtFixation,jsons/v1_VE250_randls_71.json,http://54.235.29.9/FacialAge/BNav_EC2/DepthDuration/v2_depth_duration_MTurk/v2_DepthDuration_HTML.html#290,290,1504,694,1536,864,8-29-2022,8-26-59,21,depth_duration_stimuli/002209_2014-06-28_18-36-10_260595134347_rgbf000051-resize_1/002209_2014-06-28_18-36-10_260595134347_rgbf000051-resize_1-target.png,250,2.057,3,2736,249,feet,jsons/v1_VE250_randls_71.json,653674,780824,20,Woman
21,579384,DepthScenes,duration_manipulation_targetAtFixation,jsons/v1_VE250_randls_71.json,http://54.235.29.9/FacialAge/BNav_EC2/DepthDuration/v2_depth_duration_MTurk/v2_DepthDuration_HTML.html#290,290,1504,694,1536,864,8-29-2022,8-26-59,22,depth_duration_stimuli/000469_2014-06-09_19-42-10_260595134347_rgbf000081-resize_1/000469_2014-06-09_19-42-10_260595134347_rgbf000081-resize_1-target.png,250,1.652,4,3032,244,feet,jsons/v1_VE250_randls_71.json,653674,780824,20,Woman
22,579384,DepthScenes,duration_manipulation_targetAtFixation,jsons/v1_VE250_randls_71.json,http://54.235.29.9/FacialAge/BNav_EC2/DepthDuration/v2_depth_duration_MTurk/v2_DepthDuration_HTML.html#290,290,1504,694,1536,864,8-29-2022,8-26-59,23,depth_duration_stimuli/000483_2014-06-09_20-41-45_260595134347_rgbf000116-resize_4/000483_2014-06-09_20-41-45_260595134347_rgbf000116-resize_4-target.png,250,1.337,4,2727,249,feet,jsons/v1_VE250_randls_71.json,653674,780824,20,Woman
23,579384,DepthScenes,duration_manipulation_targetAtFixation,jsons/v1_VE250_randls_71.json,http://54.235.29.9/FacialAge/BNav_EC2/DepthDuration/v2_depth_duration_MTurk/v2_DepthDuration_HTML.html#290,290,1504,694,1536,864,8-29-2022,8-26-59,24,depth_duration_stimuli/003534_2014-05-22_15-06-10_094959634447_rgbf000102-resize_4/003534_2014-05-22_15-06-10_094959634447_rgbf000102-resize_4-target.png,250,1.426,4,3203,248,feet,jsons/v1_VE250_randls_71.json,653674,780824,20,Woman
24,579384,DepthScenes,duration_manipulation_targetAtFixation,jsons/v1_VE250_randls_71.json,http://54.235.29.9/FacialAge/BNav_EC2/DepthDuration/v2_depth_duration_MTurk/v2_DepthDuration_HTML.html#290,290,1504,694,1536,864,8-29-2022,8-26-59,25,depth_duration_stimuli/002637_2014-06-24_14-51-13_094959634447_rgbf000066-resize_4/002637_2014-06-24_14-51-13_094959634447_rgbf000066-resize_4-target.png,250,1.9955,5,2692,254,feet,jsons/v1_VE250_randls_71.json,653674,780824,20,Woman
25,579384,DepthScenes,duration_manipulation_targetAtFixation,jsons/v1_VE250_randls_71.json,http://54.235.29.9/FacialAge/BNav_EC2/DepthDuration/v2_depth_duration_MTurk/v2_DepthDuration_HTML.html#290,290,1504,694,1536,864,8-29-2022,8-26-59,26,depth_duration_stimuli/001056_2014-06-08_18-46-44_260595134347_rgbf000068-resize_0/001056_2014-06-08_18-46-44_260595134347_rgbf000068-resize_0-target.png,250,2.6625,5,3179,241,feet,jsons/v1_VE250_randls_71.json,653674,780824,20,Woman
26,579384,DepthScenes,duration_manipulation_targetAtFixation,jsons/v1_VE250_randls_71.json,http://54.235.29.9/FacialAge/BNav_EC2/DepthDuration/v2_depth_duration_MTurk/v2_DepthDuration_HTML.html#290,290,1504,694,1536,864,8-29-2022,8-26-59,27,depth_duration_stimuli/002199_2014-06-28_18-33-56_260595134347_rgbf000074-resize_0/002199_2014-06-28_18-33-56_260595134347_rgbf000074-resize_0-target.png,250,1.996,4,2739,246,feet,jsons/v1_VE250_randls_71.json,653674,780824,20,Woman
27,579384,DepthScenes,duration_manipulation_targetAtFixation,jsons/v1_VE250_randls_71.json,http://54.235.29.9/FacialAge/BNav_EC2/DepthDuration/v2_depth_duration_MTurk/v2_DepthDuration_HTML.html#290,290,1504,694,1536,864,8-29-2022,8-26-59,28,depth_duration_stimuli/002989_2014-06-15_12-25-03_094959634447_rgbf000150-resize_3/002989_2014-06-15_12-25-03_094959634447_rgbf000150-resize_3-target.png,250,4.1975,15,3706,250,feet,jsons/v1_VE250_randls_71.json,653674,780824,20,Woman
28,579384,DepthScenes,duration_manipulation_targetAtFixation,jsons/v1_VE250_randls_71.json,http://54.235.29.9/FacialAge/BNav_EC2/DepthDuration/v2_depth_duration_MTurk/v2_DepthDuration_HTML.html#290,290,1504,694,1536,864,8-29-2022,8-26-59,29,depth_duration_stimuli/000866_2014-06-09_20-45-42_260595134347_rgbf000139-resize_1/000866_2014-06-09_20-45-42_260595134347_rgbf000139-resize_1-target.png,250,3.2155,5,4104,259,feet,jsons/v1_VE250_randls_71.json,653674,780824,20,Woman
29,579384,DepthScenes,duration_manipulation_targetAtFixation,jsons/v1_VE250_randls_71.json,http://54.235.29.9/FacialAge/BNav_EC2/DepthDuration/v2_depth_duration_MTurk/v2_DepthDuration_HTML.html#290,290,1504,694,1536,864,8-29-2022,8-26-59,30,depth_duration_stimuli/000375_2014-06-08_11-17-29_260595134347_rgbf000133-resize_2/000375_2014-06-08_11-17-29_260595134347_rgbf000133-resize-original.jpg,250,4.718,0,4095,255,feet,jsons/v1_VE250_randls_71.json,653674,780824,20,Woman
30,579384,DepthScenes,duration_manipulation_targetAtFixation,jsons/v1_VE250_randls_71.json,http://54.235.29.9/FacialAge/BNav_EC2/DepthDuration/v2_depth_duration_MTurk/v2_DepthDuration_HTML.html#290,290,1504,694,1536,864,8-29-2022,8-26-59,31,depth_duration_stimuli/002272_2014-06-28_18-53-56_260595134347_rgbf000067-resize_2/002272_2014-06-28_18-53-56_260595134347_rgbf000067-resize_2-target.png,250,1.138,3,5107,250,feet,jsons/v1_VE250_randls_71.json,653674,780824,20,Woman
31,579384,DepthScenes,duration_manipulation_targetAtFixation,jsons/v1_VE250_randls_71.json,http://54.235.29.9/FacialAge/BNav_EC2/DepthDuration/v2_depth_duration_MTurk/v2_DepthDuration_HTML.html#290,290,1504,694,1536,864,8-29-2022,8-26-59,32,depth_duration_stimuli/001571_2014-06-20_17-21-32_260595134347_rgbf000089-resize_1/001571_2014-06-20_17-21-32_260595134347_rgbf000089-resize_1-target.png,250,1.86,3,3273,259,feet,jsons/v1_VE250_randls_71.json,653674,780824,20,Woman
32,579384,DepthScenes,duration_manipulation_targetAtFixation,jsons/v1_VE250_randls_71.json,http://54.235.29.9/FacialAge/BNav_EC2/DepthDuration/v2_depth_duration_MTurk/v2_DepthDuration_HTML.html#290,290,1504,694,1536,864,8-29-2022,8-26-59,33,depth_duration_stimuli/002748_2014-06-22_19-07-22_094959634447_rgbf000078-resize_1/002748_2014-06-22_19-07-22_094959634447_rgbf000078-resize_1-target.png,250,4.6705,20,2951,236,feet,jsons/v1_VE250_randls_71.json,653674,780824,20,Woman
33,579384,DepthScenes,duration_manipulation_targetAtFixation,jsons/v1_VE250_randls_71.json,http://54.235.29.9/FacialAge/BNav_EC2/DepthDuration/v2_depth_duration_MTurk/v2_DepthDuration_HTML.html#290,290,1504,694,1536,864,8-29-2022,8-26-59,34,depth_duration_stimuli/002995_2014-06-15_12-31-26_094959634447_rgbf000150-resize_1/002995_2014-06-15_12-31-26_094959634447_rgbf000150-resize_1-target.png,250,3.8360000000000003,14,3448,246,feet,jsons/v1_VE250_randls_71.json,653674,780824,20,Woman
34,579384,DepthScenes,duration_manipulation_targetAtFixation,jsons/v1_VE250_randls_71.json,http://54.235.29.9/FacialAge/BNav_EC2/DepthDuration/v2_depth_duration_MTurk/v2_DepthDuration_HTML.html#290,290,1504,694,1536,864,8-29-2022,8-26-59,35,depth_duration_stimuli/000436_2014-06-09_22-25-11_260595134347_rgbf000137-resize_1/000436_2014-06-09_22-25-11_260595134347_rgbf000137-resize_1-target.png,250,4.0705,15,3010,256,feet,jsons/v1_VE250_randls_71.json,653674,780824,20,Woman
35,579384,DepthScenes,duration_manipulation_targetAtFixation,jsons/v1_VE250_randls_71.json,http://54.235.29.9/FacialAge/BNav_EC2/DepthDuration/v2_depth_duration_MTurk/v2_DepthDuration_HTML.html#290,290,1504,694,1536,864,8-29-2022,8-26-59,36,depth_duration_stimuli/002444_2014-06-28_20-32-08_260595134347_rgbf000027-resize_0/002444_2014-06-28_20-32-08_260595134347_rgbf000027-resize_0-target.png,250,4.388999999999999,15,4788,242,feet,jsons/v1_VE250_randls_71.json,653674,780824,20,Woman
36,579384,DepthScenes,duration_manipulation_targetAtFixation,jsons/v1_VE250_randls_71.json,http://54.235.29.9/FacialAge/BNav_EC2/DepthDuration/v2_depth_duration_MTurk/v2_DepthDuration_HTML.html#290,290,1504,694,1536,864,8-29-2022,8-26-59,37,depth_duration_stimuli/001133_2014-06-17_14-49-16_260595134347_rgbf000100-resize_0/001133_2014-06-17_14-49-16_260595134347_rgbf000100-resize_0-target.png,250,4.2115,15,5303,258,feet,jsons/v1_VE250_randls_71.json,653674,780824,20,Woman
37,579384,DepthScenes,duration_manipulation_targetAtFixation,jsons/v1_VE250_randls_71.json,http://54.235.29.9/FacialAge/BNav_EC2/DepthDuration/v2_depth_duration_MTurk/v2_DepthDuration_HTML.html#290,290,1504,694,1536,864,8-29-2022,8-26-59,38,depth_duration_stimuli/001132_2014-06-17_14-48-54_260595134347_rgbf000100-resize_2/001132_2014-06-17_14-48-54_260595134347_rgbf000100-resize_2-target.png,250,3.753,8,4983,258,feet,jsons/v1_VE250_randls_71.json,653674,780824,20,Woman
38,579384,DepthScenes,duration_manipulation_targetAtFixation,jsons/v1_VE250_randls_71.json,http://54.235.29.9/FacialAge/BNav_EC2/DepthDuration/v2_depth_duration_MTurk/v2_DepthDuration_HTML.html#290,290,1504,694,1536,864,8-29-2022,8-26-59,39,depth_duration_stimuli/000929_2014-06-09_16-33-19_260595134347_rgbf000139-resize_0/000929_2014-06-09_16-33-19_260595134347_rgbf000139-resize_0-target.png,250,2.8680000000000003,7,5344,250,feet,jsons/v1_VE250_randls_71.json,653674,780824,20,Woman
39,579384,DepthScenes,duration_manipulation_targetAtFixation,jsons/v1_VE250_randls_71.json,http://54.235.29.9/FacialAge/BNav_EC2/DepthDuration/v2_depth_duration_MTurk/v2_DepthDuration_HTML.html#290,290,1504,694,1536,864,8-29-2022,8-26-59,40,depth_duration_stimuli/000457_2014-06-08_16-52-43_260595134347_rgbf000199-resize_1/000457_2014-06-08_16-52-43_260595134347_rgbf000199-resize_1-target.png,250,3.6489999999999996,9,2819,243,feet,jsons/v1_VE250_randls_71.json,653674,780824,20,Woman
40,579384,DepthScenes,duration_manipulation_targetAtFixation,jsons/v1_VE250_randls_71.json,http://54.235.29.9/FacialAge/BNav_EC2/DepthDuration/v2_depth_duration_MTurk/v2_DepthDuration_HTML.html#290,290,1504,694,1536,864,8-29-2022,8-26-59,41,depth_duration_stimuli/002118_2014-06-25_20-32-08_260595134347_rgbf000078-resize_1/002118_2014-06-25_20-32-08_260595134347_rgbf000078-resize_1-target.png,250,2.6460000000000004,7,2952,250,feet,jsons/v1_VE250_randls_71.json,653674,780824,20,Woman
41,579384,DepthScenes,duration_manipulation_targetAtFixation,jsons/v1_VE250_randls_71.json,http://54.235.29.9/FacialAge/BNav_EC2/DepthDuration/v2_depth_duration_MTurk/v2_DepthDuration_HTML.html#290,290,1504,694,1536,864,8-29-2022,8-26-59,42,depth_duration_stimuli/001516_2014-06-20_16-25-09_260595134347_rgbf000076-resize_2/001516_2014-06-20_16-25-09_260595134347_rgbf000076-resize_2-target.png,250,1.7445,6,3177,255,feet,jsons/v1_VE250_randls_71.json,653674,780824,20,Woman
42,579384,DepthScenes,duration_manipulation_targetAtFixation,jsons/v1_VE250_randls_71.json,http://54.235.29.9/FacialAge/BNav_EC2/DepthDuration/v2_depth_duration_MTurk/v2_DepthDuration_HTML.html#290,290,1504,694,1536,864,8-29-2022,8-26-59,43,depth_duration_stimuli/003492_2014-05-21_15-50-55_094959634447_rgbf000828-resize_1/003492_2014-05-21_15-50-55_094959634447_rgbf000828-resize_1-target.png,250,4.06875,15,3453,249,feet,jsons/v1_VE250_randls_71.json,653674,780824,20,Woman
43,579384,DepthScenes,duration_manipulation_targetAtFixation,jsons/v1_VE250_randls_71.json,http://54.235.29.9/FacialAge/BNav_EC2/DepthDuration/v2_depth_duration_MTurk/v2_DepthDuration_HTML.html#290,290,1504,694,1536,864,8-29-2022,8-26-59,44,depth_duration_stimuli/002568_2014-06-24_13-59-21_094959634447_rgbf000062-resize_4/002568_2014-06-24_13-59-21_094959634447_rgbf000062-resize_4-target.png,250,3.015,11,3470,251,feet,jsons/v1_VE250_randls_71.json,653674,780824,20,Woman
44,579384,DepthScenes,duration_manipulation_targetAtFixation,jsons/v1_VE250_randls_71.json,http://54.235.29.9/FacialAge/BNav_EC2/DepthDuration/v2_depth_duration_MTurk/v2_DepthDuration_HTML.html#290,290,1504,694,1536,864,8-29-2022,8-26-59,45,depth_duration_stimuli/000787_2014-06-08_22-33-53_260595134347_rgbf000175-resize_1/000787_2014-06-08_22-33-53_260595134347_rgbf000175-resize-original.jpg,250,4.784,0,2764,250,feet,jsons/v1_VE250_randls_71.json,653674,780824,20,Woman
45,579384,DepthScenes,duration_manipulation_targetAtFixation,jsons/v1_VE250_randls_71.json,http://54.235.29.9/FacialAge/BNav_EC2/DepthDuration/v2_depth_duration_MTurk/v2_DepthDuration_HTML.html#290,290,1504,694,1536,864,8-29-2022,8-26-59,46,depth_duration_stimuli/001011_2014-06-08_23-18-54_260595134347_rgbf000044-resize_4/001011_2014-06-08_23-18-54_260595134347_rgbf000044-resize_4-target.png,250,2.4730000000000003,7,3379,256,feet,jsons/v1_VE250_randls_71.json,653674,780824,20,Woman
46,579384,DepthScenes,duration_manipulation_targetAtFixation,jsons/v1_VE250_randls_71.json,http://54.235.29.9/FacialAge/BNav_EC2/DepthDuration/v2_depth_duration_MTurk/v2_DepthDuration_HTML.html#290,290,1504,694,1536,864,8-29-2022,8-26-59,47,depth_duration_stimuli/002875_2014-06-01_15-19-00_094959634447_rgbf000151-resize_1/002875_2014-06-01_15-19-00_094959634447_rgbf000151-resize_1-target.png,250,1.9675,3,2688,251,feet,jsons/v1_VE250_randls_71.json,653674,780824,20,Woman
47,579384,DepthScenes,duration_manipulation_targetAtFixation,jsons/v1_VE250_randls_71.json,http://54.235.29.9/FacialAge/BNav_EC2/DepthDuration/v2_depth_duration_MTurk/v2_DepthDuration_HTML.html#290,290,1504,694,1536,864,8-29-2022,8-26-59,48,depth_duration_stimuli/003070_2014-06-15_14-58-27_094959634447_rgbf000150-resize_3/003070_2014-06-15_14-58-27_094959634447_rgbf000150-resize_3-target.png,250,2.9415,10,7974,248,feet,jsons/v1_VE250_randls_71.json,653674,780824,20,Woman
48,579384,DepthScenes,duration_manipulation_targetAtFixation,jsons/v1_VE250_randls_71.json,http://54.235.29.9/FacialAge/BNav_EC2/DepthDuration/v2_depth_duration_MTurk/v2_DepthDuration_HTML.html#290,290,1504,694,1536,864,8-29-2022,8-26-59,49,depth_duration_stimuli/000943_2014-06-09_19-31-07_260595134347_rgbf000128-resize_1/000943_2014-06-09_19-31-07_260595134347_rgbf000128-resize_1-target.png,250,1.9765,4,2800,260,feet,jsons/v1_VE250_randls_71.json,653674,780824,20,Woman
49,579384,DepthScenes,duration_manipulation_targetAtFixation,jsons/v1_VE250_randls_71.json,http://54.235.29.9/FacialAge/BNav_EC2/DepthDuration/v2_depth_duration_MTurk/v2_DepthDuration_HTML.html#290,290,1504,694,1536,864,8-29-2022,8-26-59,50,depth_duration_stimuli/000009_2014-05-26_14-32-05_260595134347_rgbf000034-resize_3/000009_2014-05-26_14-32-05_260595134347_rgbf000034-resize_3-target.png,250,3.8715,14,3886,249,feet,jsons/v1_VE250_randls_71.json,653674,780824,20,Woman
50,579384,DepthScenes,duration_manipulation_targetAtFixation,jsons/v1_VE250_randls_71.json,http://54.235.29.9/FacialAge/BNav_EC2/DepthDuration/v2_depth_duration_MTurk/v2_DepthDuration_HTML.html#290,290,1504,694,1536,864,8-29-2022,8-26-59,51,depth_duration_stimuli/001828_2014-06-26_21-40-03_260595134347_rgbf000024-resize_0/001828_2014-06-26_21-40-03_260595134347_rgbf000024-resize_0-target.png,250,4.8260000000000005,10,6368,256,feet,jsons/v1_VE250_randls_71.json,653674,780824,20,Woman
51,579384,DepthScenes,duration_manipulation_targetAtFixation,jsons/v1_VE250_randls_71.json,http://54.235.29.9/FacialAge/BNav_EC2/DepthDuration/v2_depth_duration_MTurk/v2_DepthDuration_HTML.html#290,290,1504,694,1536,864,8-29-2022,8-26-59,52,depth_duration_stimuli/001158_2014-06-17_15-32-16_260595134347_rgbf000138-resize_2/001158_2014-06-17_15-32-16_260595134347_rgbf000138-resize_2-target.png,250,4.5315,15,3430,237,feet,jsons/v1_VE250_randls_71.json,653674,780824,20,Woman
52,579384,DepthScenes,duration_manipulation_targetAtFixation,jsons/v1_VE250_randls_71.json,http://54.235.29.9/FacialAge/BNav_EC2/DepthDuration/v2_depth_duration_MTurk/v2_DepthDuration_HTML.html#290,290,1504,694,1536,864,8-29-2022,8-26-59,53,depth_duration_stimuli/000556_2014-06-09_22-42-56_260595134347_rgbf000214-resize_1/000556_2014-06-09_22-42-56_260595134347_rgbf000214-resize_1-target.png,250,4.8415,9,3385,251,feet,jsons/v1_VE250_randls_71.json,653674,780824,20,Woman
53,579384,DepthScenes,duration_manipulation_targetAtFixation,jsons/v1_VE250_randls_71.json,http://54.235.29.9/FacialAge/BNav_EC2/DepthDuration/v2_depth_duration_MTurk/v2_DepthDuration_HTML.html#290,290,1504,694,1536,864,8-29-2022,8-26-59,54,depth_duration_stimuli/002153_2014-06-25_21-27-18_260595134347_rgbf000038-resize_5/002153_2014-06-25_21-27-18_260595134347_rgbf000038-resize_5-target.png,250,2.505,6,9223,254,feet,jsons/v1_VE250_randls_71.json,653674,780824,20,Woman
54,579384,DepthScenes,duration_manipulation_targetAtFixation,jsons/v1_VE250_randls_71.json,http://54.235.29.9/FacialAge/BNav_EC2/DepthDuration/v2_depth_duration_MTurk/v2_DepthDuration_HTML.html#290,290,1504,694,1536,864,8-29-2022,8-26-59,55,depth_duration_stimuli/002660_2014-06-13_15-44-18_094959634447_rgbf001878-resize_2/002660_2014-06-13_15-44-18_094959634447_rgbf001878-resize_2-target.png,250,3.576,7,3024,247,feet,jsons/v1_VE250_randls_71.json,653674,780824,20,Woman
55,579384,DepthScenes,duration_manipulation_targetAtFixation,jsons/v1_VE250_randls_71.json,http://54.235.29.9/FacialAge/BNav_EC2/DepthDuration/v2_depth_duration_MTurk/v2_DepthDuration_HTML.html#290,290,1504,694,1536,864,8-29-2022,8-26-59,56,depth_duration_stimuli/002375_2014-06-28_20-13-44_260595134347_rgbf000032-resize_1/002375_2014-06-28_20-13-44_260595134347_rgbf000032-resize_1-target.png,250,4.0175,5,3745,247,feet,jsons/v1_VE250_randls_71.json,653674,780824,20,Woman
56,579384,DepthScenes,duration_manipulation_targetAtFixation,jsons/v1_VE250_randls_71.json,http://54.235.29.9/FacialAge/BNav_EC2/DepthDuration/v2_depth_duration_MTurk/v2_DepthDuration_HTML.html#290,290,1504,694,1536,864,8-29-2022,8-26-59,57,depth_duration_stimuli/002657_2014-06-13_15-29-54_094959634447_rgbf000150-resize_1/002657_2014-06-13_15-29-54_094959634447_rgbf000150-resize_1-target.png,250,4.919,10,3178,248,feet,jsons/v1_VE250_randls_71.json,653674,780824,20,Woman
57,579384,DepthScenes,duration_manipulation_targetAtFixation,jsons/v1_VE250_randls_71.json,http://54.235.29.9/FacialAge/BNav_EC2/DepthDuration/v2_depth_duration_MTurk/v2_DepthDuration_HTML.html#290,290,1504,694,1536,864,8-29-2022,8-26-59,58,depth_duration_stimuli/001810_2014-06-26_20-51-35_260595134347_rgbf000040-resize_3/001810_2014-06-26_20-51-35_260595134347_rgbf000040-resize_3-target.png,250,2.2525,4,2984,257,feet,jsons/v1_VE250_randls_71.json,653674,780824,20,Woman
58,579384,DepthScenes,duration_manipulation_targetAtFixation,jsons/v1_VE250_randls_71.json,http://54.235.29.9/FacialAge/BNav_EC2/DepthDuration/v2_depth_duration_MTurk/v2_DepthDuration_HTML.html#290,290,1504,694,1536,864,8-29-2022,8-26-59,59,depth_duration_stimuli/003010_2014-06-15_12-54-35_094959634447_rgbf000112-resize_0/003010_2014-06-15_12-54-35_094959634447_rgbf000112-resize_0-target.png,250,3.1185,10,3338,248,feet,jsons/v1_VE250_randls_71.json,653674,780824,20,Woman
59,579384,DepthScenes,duration_manipulation_targetAtFixation,jsons/v1_VE250_randls_71.json,http://54.235.29.9/FacialAge/BNav_EC2/DepthDuration/v2_depth_duration_MTurk/v2_DepthDuration_HTML.html#290,290,1504,694,1536,864,8-29-2022,8-26-59,60,depth_duration_stimuli/000788_2014-06-08_22-34-36_260595134347_rgbf000131-resize_1/000788_2014-06-08_22-34-36_260595134347_rgbf000131-resize_1-target.png,250,3.359,8,6925,259,feet,jsons/v1_VE250_randls_71.json,653674,780824,20,Woman
60,579384,DepthScenes,duration_manipulation_targetAtFixation,jsons/v1_VE250_randls_71.json,http://54.235.29.9/FacialAge/BNav_EC2/DepthDuration/v2_depth_duration_MTurk/v2_DepthDuration_HTML.html#290,290,1504,694,1536,864,8-29-2022,8-26-59,61,depth_duration_stimuli/001235_2014-06-17_16-37-36_260595134347_rgbf000084-resize_4/001235_2014-06-17_16-37-36_260595134347_rgbf000084-resize_4-target.png,250,3.6605,10,4773,258,feet,jsons/v1_VE250_randls_71.json,653674,780824,20,Woman
61,579384,DepthScenes,duration_manipulation_targetAtFixation,jsons/v1_VE250_randls_71.json,http://54.235.29.9/FacialAge/BNav_EC2/DepthDuration/v2_depth_duration_MTurk/v2_DepthDuration_HTML.html#290,290,1504,694,1536,864,8-29-2022,8-26-59,62,depth_duration_stimuli/003292_2014-05-14_21-53-49_094959634447_rgbf000100-resize_2/003292_2014-05-14_21-53-49_094959634447_rgbf000100-resize_2-target.png,250,3.4815,6,5756,250,feet,jsons/v1_VE250_randls_71.json,653674,780824,20,Woman
62,579384,DepthScenes,duration_manipulation_targetAtFixation,jsons/v1_VE250_randls_71.json,http://54.235.29.9/FacialAge/BNav_EC2/DepthDuration/v2_depth_duration_MTurk/v2_DepthDuration_HTML.html#290,290,1504,694,1536,864,8-29-2022,8-26-59,63,depth_duration_stimuli/002639_2014-06-24_14-51-37_094959634447_rgbf000074-resize_4/002639_2014-06-24_14-51-37_094959634447_rgbf000074-resize_4-target.png,250,4.0375,9,2721,251,feet,jsons/v1_VE250_randls_71.json,653674,780824,20,Woman
63,579384,DepthScenes,duration_manipulation_targetAtFixation,jsons/v1_VE250_randls_71.json,http://54.235.29.9/FacialAge/BNav_EC2/DepthDuration/v2_depth_duration_MTurk/v2_DepthDuration_HTML.html#290,290,1504,694,1536,864,8-29-2022,8-26-59,64,depth_duration_stimuli/002630_2014-06-24_14-47-50_094959634447_rgbf000055-resize_1/002630_2014-06-24_14-47-50_094959634447_rgbf000055-resize_1-target.png,250,3.0095,8,4933,252,feet,jsons/v1_VE250_randls_71.json,653674,780824,20,Woman
64,579384,DepthScenes,duration_manipulation_targetAtFixation,jsons/v1_VE250_randls_71.json,http://54.235.29.9/FacialAge/BNav_EC2/DepthDuration/v2_depth_duration_MTurk/v2_DepthDuration_HTML.html#290,290,1504,694,1536,864,8-29-2022,8-26-59,65,depth_duration_stimuli/002758_2014-06-22_19-11-20_094959634447_rgbf000128-resize_1/002758_2014-06-22_19-11-20_094959634447_rgbf000128-resize_1-target.png,250,2.555,8,3156,250,feet,jsons/v1_VE250_randls_71.json,653674,780824,20,Woman
65,579384,DepthScenes,duration_manipulation_targetAtFixation,jsons/v1_VE250_randls_71.json,http://54.235.29.9/FacialAge/BNav_EC2/DepthDuration/v2_depth_duration_MTurk/v2_DepthDuration_HTML.html#290,290,1504,694,1536,864,8-29-2022,8-26-59,66,depth_duration_stimuli/001222_2014-06-17_16-24-06_260595134347_rgbf000073-resize_0/001222_2014-06-17_16-24-06_260595134347_rgbf000073-resize-original.jpg,250,1.4385,0,2897,254,feet,jsons/v1_VE250_randls_71.json,653674,780824,20,Woman
66,579384,DepthScenes,duration_manipulation_targetAtFixation,jsons/v1_VE250_randls_71.json,http://54.235.29.9/FacialAge/BNav_EC2/DepthDuration/v2_depth_duration_MTurk/v2_DepthDuration_HTML.html#290,290,1504,694,1536,864,8-29-2022,8-26-59,67,depth_duration_stimuli/000486_2014-06-09_20-47-20_260595134347_rgbf000143-resize_2/000486_2014-06-09_20-47-20_260595134347_rgbf000143-resize_2-target.png,250,4.8325,14,5734,254,feet,jsons/v1_VE250_randls_71.json,653674,780824,20,Woman
67,579384,DepthScenes,duration_manipulation_targetAtFixation,jsons/v1_VE250_randls_71.json,http://54.235.29.9/FacialAge/BNav_EC2/DepthDuration/v2_depth_duration_MTurk/v2_DepthDuration_HTML.html#290,290,1504,694,1536,864,8-29-2022,8-26-59,68,depth_duration_stimuli/003083_2014-06-15_15-21-03_094959634447_rgbf000063-resize_1/003083_2014-06-15_15-21-03_094959634447_rgbf000063-resize_1-target.png,250,4.1405,13,6468,260,feet,jsons/v1_VE250_randls_71.json,653674,780824,20,Woman
68,579384,DepthScenes,duration_manipulation_targetAtFixation,jsons/v1_VE250_randls_71.json,http://54.235.29.9/FacialAge/BNav_EC2/DepthDuration/v2_depth_duration_MTurk/v2_DepthDuration_HTML.html#290,290,1504,694,1536,864,8-29-2022,8-26-59,69,depth_duration_stimuli/001164_2014-06-17_15-35-46_260595134347_rgbf000085-resize_3/001164_2014-06-17_15-35-46_260595134347_rgbf000085-resize_3-target.png,250,2.354,10,5525,251,feet,jsons/v1_VE250_randls_71.json,653674,780824,20,Woman
69,579384,DepthScenes,duration_manipulation_targetAtFixation,jsons/v1_VE250_randls_71.json,http://54.235.29.9/FacialAge/BNav_EC2/DepthDuration/v2_depth_duration_MTurk/v2_DepthDuration_HTML.html#290,290,1504,694,1536,864,8-29-2022,8-26-59,70,depth_duration_stimuli/001136_2014-06-17_15-19-41_260595134347_rgbf000076-resize_3/001136_2014-06-17_15-19-41_260595134347_rgbf000076-resize_3-target.png,250,1.8655,10,3930,255,feet,jsons/v1_VE250_randls_71.json,653674,780824,20,Woman
70,579384,DepthScenes,duration_manipulation_targetAtFixation,jsons/v1_VE250_randls_71.json,http://54.235.29.9/FacialAge/BNav_EC2/DepthDuration/v2_depth_duration_MTurk/v2_DepthDuration_HTML.html#290,290,1504,694,1536,864,8-29-2022,8-26-59,71,depth_duration_stimuli/001016_2014-06-09_16-16-10_260595134347_rgbf000112-resize_5/001016_2014-06-09_16-16-10_260595134347_rgbf000112-resize_5-target.png,250,1.6565,4,3408,249,feet,jsons/v1_VE250_randls_71.json,653674,780824,20,Woman
71,579384,DepthScenes,duration_manipulation_targetAtFixation,jsons/v1_VE250_randls_71.json,http://54.235.29.9/FacialAge/BNav_EC2/DepthDuration/v2_depth_duration_MTurk/v2_DepthDuration_HTML.html#290,290,1504,694,1536,864,8-29-2022,8-26-59,72,depth_duration_stimuli/002340_2014-06-28_20-05-46_260595134347_rgbf000113-resize_0/002340_2014-06-28_20-05-46_260595134347_rgbf000113-resize_0-target.png,250,2.4735,7,3307,248,feet,jsons/v1_VE250_randls_71.json,653674,780824,20,Woman
72,579384,DepthScenes,duration_manipulation_targetAtFixation,jsons/v1_VE250_randls_71.json,http://54.235.29.9/FacialAge/BNav_EC2/DepthDuration/v2_depth_duration_MTurk/v2_DepthDuration_HTML.html#290,290,1504,694,1536,864,8-29-2022,8-26-59,73,depth_duration_stimuli/001244_2014-06-17_16-47-45_260595134347_rgbf000030-resize_4/001244_2014-06-17_16-47-45_260595134347_rgbf000030-resize_4-target.png,250,2.0425,3,5341,259,feet,jsons/v1_VE250_randls_71.json,653674,780824,20,Woman
73,579384,DepthScenes,duration_manipulation_targetAtFixation,jsons/v1_VE250_randls_71.json,http://54.235.29.9/FacialAge/BNav_EC2/DepthDuration/v2_depth_duration_MTurk/v2_DepthDuration_HTML.html#290,290,1504,694,1536,864,8-29-2022,8-26-59,74,depth_duration_stimuli/003495_2014-05-21_16-01-51_094959634447_rgbf000100-resize_3/003495_2014-05-21_16-01-51_094959634447_rgbf000100-resize_3-target.png,250,1.6255,2,2822,240,feet,jsons/v1_VE250_randls_71.json,653674,780824,20,Woman
74,579384,DepthScenes,duration_manipulation_targetAtFixation,jsons/v1_VE250_randls_71.json,http://54.235.29.9/FacialAge/BNav_EC2/DepthDuration/v2_depth_duration_MTurk/v2_DepthDuration_HTML.html#290,290,1504,694,1536,864,8-29-2022,8-26-59,75,depth_duration_stimuli/000470_2014-06-09_19-42-40_260595134347_rgbf000094-resize_1/000470_2014-06-09_19-42-40_260595134347_rgbf000094-resize_1-target.png,250,1.831,3,3233,265,feet,jsons/v1_VE250_randls_71.json,653674,780824,20,Woman
75,579384,DepthScenes,duration_manipulation_targetAtFixation,jsons/v1_VE250_randls_71.json,http://54.235.29.9/FacialAge/BNav_EC2/DepthDuration/v2_depth_duration_MTurk/v2_DepthDuration_HTML.html#290,290,1504,694,1536,864,8-29-2022,8-26-59,76,depth_duration_stimuli/000109_2014-05-14_23-41-52_260595134347_rgbf000035-resize_9/000109_2014-05-14_23-41-52_260595134347_rgbf000035-resize_9-target.png,250,1.3545,2,2597,243,feet,jsons/v1_VE250_randls_71.json,653674,780824,20,Woman
76,579384,DepthScenes,duration_manipulation_targetAtFixation,jsons/v1_VE250_randls_71.json,http://54.235.29.9/FacialAge/BNav_EC2/DepthDuration/v2_depth_duration_MTurk/v2_DepthDuration_HTML.html#290,290,1504,694,1536,864,8-29-2022,8-26-59,77,depth_duration_stimuli/001110_2014-06-15_17-25-28_260595134347_rgbf000150-resize_1/001110_2014-06-15_17-25-28_260595134347_rgbf000150-resize_1-target.png,250,1.7115,6,3234,260,feet,jsons/v1_VE250_randls_71.json,653674,780824,20,Woman
77,579384,DepthScenes,duration_manipulation_targetAtFixation,jsons/v1_VE250_randls_71.json,http://54.235.29.9/FacialAge/BNav_EC2/DepthDuration/v2_depth_duration_MTurk/v2_DepthDuration_HTML.html#290,290,1504,694,1536,864,8-29-2022,8-26-59,78,depth_duration_stimuli/000927_2014-06-09_16-32-30_260595134347_rgbf000123-resize_3/000927_2014-06-09_16-32-30_260595134347_rgbf000123-resize_3-target.png,250,2.6785,10,3234,252,feet,jsons/v1_VE250_randls_71.json,653674,780824,20,Woman
78,579384,DepthScenes,duration_manipulation_targetAtFixation,jsons/v1_VE250_randls_71.json,http://54.235.29.9/FacialAge/BNav_EC2/DepthDuration/v2_depth_duration_MTurk/v2_DepthDuration_HTML.html#290,290,1504,694,1536,864,8-29-2022,8-26-59,79,depth_duration_stimuli/001175_2014-06-17_15-45-55_260595134347_rgbf000129-resize_4/001175_2014-06-17_15-45-55_260595134347_rgbf000129-resize_4-target.png,250,4.255,15,3010,247,feet,jsons/v1_VE250_randls_71.json,653674,780824,20,Woman
79,579384,DepthScenes,duration_manipulation_targetAtFixation,jsons/v1_VE250_randls_71.json,http://54.235.29.9/FacialAge/BNav_EC2/DepthDuration/v2_depth_duration_MTurk/v2_DepthDuration_HTML.html#290,290,1504,694,1536,864,8-29-2022,8-26-59,80,depth_duration_stimuli/003490_2014-05-21_15-50-11_094959634447_rgbf000101-resize_3/003490_2014-05-21_15-50-11_094959634447_rgbf000101-resize_3-target.png,250,3.6445,7,4624,248,feet,jsons/v1_VE250_randls_71.json,653674,780824,20,Woman
80,579384,DepthScenes,duration_manipulation_targetAtFixation,jsons/v1_VE250_randls_71.json,http://54.235.29.9/FacialAge/BNav_EC2/DepthDuration/v2_depth_duration_MTurk/v2_DepthDuration_HTML.html#290,290,1504,694,1536,864,8-29-2022,8-26-59,81,depth_duration_stimuli/000522_2014-06-08_13-35-06_260595134347_rgbf000244-resize_1/000522_2014-06-08_13-35-06_260595134347_rgbf000244-resize_1-target.png,250,2.3715,3,3117,261,feet,jsons/v1_VE250_randls_71.json,653674,780824,20,Woman
81,579384,DepthScenes,duration_manipulation_targetAtFixation,jsons/v1_VE250_randls_71.json,http://54.235.29.9/FacialAge/BNav_EC2/DepthDuration/v2_depth_duration_MTurk/v2_DepthDuration_HTML.html#290,290,1504,694,1536,864,8-29-2022,8-26-59,82,depth_duration_stimuli/002949_2014-06-26_15-57-42_094959634447_rgbf000079-resize_1/002949_2014-06-26_15-57-42_094959634447_rgbf000079-resize_1-target.png,250,1.8915,3,3104,239,feet,jsons/v1_VE250_randls_71.json,653674,780824,20,Woman
82,579384,DepthScenes,duration_manipulation_targetAtFixation,jsons/v1_VE250_randls_71.json,http://54.235.29.9/FacialAge/BNav_EC2/DepthDuration/v2_depth_duration_MTurk/v2_DepthDuration_HTML.html#290,290,1504,694,1536,864,8-29-2022,8-26-59,83,depth_duration_stimuli/001449_2014-06-19_17-01-27_260595134347_rgbf000116-resize_2/001449_2014-06-19_17-01-27_260595134347_rgbf000116-resize_2-target.png,250,3.452,10,4569,260,feet,jsons/v1_VE250_randls_71.json,653674,780824,20,Woman
83,579384,DepthScenes,duration_manipulation_targetAtFixation,jsons/v1_VE250_randls_71.json,http://54.235.29.9/FacialAge/BNav_EC2/DepthDuration/v2_depth_duration_MTurk/v2_DepthDuration_HTML.html#290,290,1504,694,1536,864,8-29-2022,8-26-59,84,depth_duration_stimuli/001450_2014-06-19_17-02-03_260595134347_rgbf000203-resize_4/001450_2014-06-19_17-02-03_260595134347_rgbf000203-resize_4-target.png,250,4.0106666666667,7,3032,248,feet,jsons/v1_VE250_randls_71.json,653674,780824,20,Woman
84,579384,DepthScenes,duration_manipulation_targetAtFixation,jsons/v1_VE250_randls_71.json,http://54.235.29.9/FacialAge/BNav_EC2/DepthDuration/v2_depth_duration_MTurk/v2_DepthDuration_HTML.html#290,290,1504,694,1536,864,8-29-2022,8-26-59,85,depth_duration_stimuli/000414_2014-06-04_19-49-13_260595134347_rgbf000044-resize_0/000414_2014-06-04_19-49-13_260595134347_rgbf000044-resize_0-target.png,250,4.329,8,3181,250,feet,jsons/v1_VE250_randls_71.json,653674,780824,20,Woman
85,579384,DepthScenes,duration_manipulation_targetAtFixation,jsons/v1_VE250_randls_71.json,http://54.235.29.9/FacialAge/BNav_EC2/DepthDuration/v2_depth_duration_MTurk/v2_DepthDuration_HTML.html#290,290,1504,694,1536,864,8-29-2022,8-26-59,86,depth_duration_stimuli/003129_2014-05-12_10-48-10_094959634447_rgbf000100-resize_0/003129_2014-05-12_10-48-10_094959634447_rgbf000100-resize_0-target.png,250,4.9305,9,2897,259,feet,jsons/v1_VE250_randls_71.json,653674,780824,20,Woman
86,579384,DepthScenes,duration_manipulation_targetAtFixation,jsons/v1_VE250_randls_71.json,http://54.235.29.9/FacialAge/BNav_EC2/DepthDuration/v2_depth_duration_MTurk/v2_DepthDuration_HTML.html#290,290,1504,694,1536,864,8-29-2022,8-26-59,87,depth_duration_stimuli/001199_2014-06-17_16-03-48_260595134347_rgbf000077-resize_0/001199_2014-06-17_16-03-48_260595134347_rgbf000077-resize_0-target.png,250,3.4375,15,3485,254,feet,jsons/v1_VE250_randls_71.json,653674,780824,20,Woman
87,579384,DepthScenes,duration_manipulation_targetAtFixation,jsons/v1_VE250_randls_71.json,http://54.235.29.9/FacialAge/BNav_EC2/DepthDuration/v2_depth_duration_MTurk/v2_DepthDuration_HTML.html#290,290,1504,694,1536,864,8-29-2022,8-26-59,88,depth_duration_stimuli/000502_2014-06-08_23-02-32_260595134347_rgbf000063-resize_4/000502_2014-06-08_23-02-32_260595134347_rgbf000063-resize_4-target.png,250,2.431,4,3339,261,feet,jsons/v1_VE250_randls_71.json,653674,780824,20,Woman
88,579384,DepthScenes,duration_manipulation_targetAtFixation,jsons/v1_VE250_randls_71.json,http://54.235.29.9/FacialAge/BNav_EC2/DepthDuration/v2_depth_duration_MTurk/v2_DepthDuration_HTML.html#290,290,1504,694,1536,864,8-29-2022,8-26-59,89,depth_duration_stimuli/001417_2014-06-19_16-25-36_260595134347_rgbf000115-resize_5/001417_2014-06-19_16-25-36_260595134347_rgbf000115-resize_5-target.png,250,4.6255,9,2619,244,feet,jsons/v1_VE250_randls_71.json,653674,780824,20,Woman
89,579384,DepthScenes,duration_manipulation_targetAtFixation,jsons/v1_VE250_randls_71.json,http://54.235.29.9/FacialAge/BNav_EC2/DepthDuration/v2_depth_duration_MTurk/v2_DepthDuration_HTML.html#290,290,1504,694,1536,864,8-29-2022,8-26-59,90,depth_duration_stimuli/003081_2014-06-15_15-19-16_094959634447_rgbf000150-resize_1/003081_2014-06-15_15-19-16_094959634447_rgbf000150-resize_1-target.png,250,3.9125,9,2990,252,feet,jsons/v1_VE250_randls_71.json,653674,780824,20,Woman
90,579384,DepthScenes,duration_manipulation_targetAtFixation,jsons/v1_VE250_randls_71.json,http://54.235.29.9/FacialAge/BNav_EC2/DepthDuration/v2_depth_duration_MTurk/v2_DepthDuration_HTML.html#290,290,1504,694,1536,864,8-29-2022,8-26-59,91,depth_duration_stimuli/000773_2014-06-08_22-24-54_260595134347_rgbf000093-resize_1/000773_2014-06-08_22-24-54_260595134347_rgbf000093-resize_1-target.png,250,4.973,9,2616,253,feet,jsons/v1_VE250_randls_71.json,653674,780824,20,Woman
91,579384,DepthScenes,duration_manipulation_targetAtFixation,jsons/v1_VE250_randls_71.json,http://54.235.29.9/FacialAge/BNav_EC2/DepthDuration/v2_depth_duration_MTurk/v2_DepthDuration_HTML.html#290,290,1504,694,1536,864,8-29-2022,8-26-59,92,depth_duration_stimuli/002414_2014-06-28_20-24-58_260595134347_rgbf000067-resize_4/002414_2014-06-28_20-24-58_260595134347_rgbf000067-resize_4-target.png,250,4.363,11,3626,252,feet,jsons/v1_VE250_randls_71.json,653674,780824,20,Woman
92,579384,DepthScenes,duration_manipulation_targetAtFixation,jsons/v1_VE250_randls_71.json,http://54.235.29.9/FacialAge/BNav_EC2/DepthDuration/v2_depth_duration_MTurk/v2_DepthDuration_HTML.html#290,290,1504,694,1536,864,8-29-2022,8-26-59,93,depth_duration_stimuli/001059_2014-06-08_21-53-27_260595134347_rgbf000061-resize_4/001059_2014-06-08_21-53-27_260595134347_rgbf000061-resize_4-target.png,250,2.4185,4,2981,249,feet,jsons/v1_VE250_randls_71.json,653674,780824,20,Woman
93,579384,DepthScenes,duration_manipulation_targetAtFixation,jsons/v1_VE250_randls_71.json,http://54.235.29.9/FacialAge/BNav_EC2/DepthDuration/v2_depth_duration_MTurk/v2_DepthDuration_HTML.html#290,290,1504,694,1536,864,8-29-2022,8-26-59,94,depth_duration_stimuli/001032_2014-06-08_13-23-17_260595134347_rgbf000021-resize_3/001032_2014-06-08_13-23-17_260595134347_rgbf000021-resize_3-target.png,250,3.2725,5,3157,240,feet,jsons/v1_VE250_randls_71.json,653674,780824,20,Woman
94,579384,DepthScenes,duration_manipulation_targetAtFixation,jsons/v1_VE250_randls_71.json,http://54.235.29.9/FacialAge/BNav_EC2/DepthDuration/v2_depth_duration_MTurk/v2_DepthDuration_HTML.html#290,290,1504,694,1536,864,8-29-2022,8-26-59,95,depth_duration_stimuli/002784_2014-06-22_19-26-30_094959634447_rgbf000083-resize_3/002784_2014-06-22_19-26-30_094959634447_rgbf000083-resize_3-target.png,250,1.8046666666667,4,2901,258,feet,jsons/v1_VE250_randls_71.json,653674,780824,20,Woman
95,579384,DepthScenes,duration_manipulation_targetAtFixation,jsons/v1_VE250_randls_71.json,http://54.235.29.9/FacialAge/BNav_EC2/DepthDuration/v2_depth_duration_MTurk/v2_DepthDuration_HTML.html#290,290,1504,694,1536,864,8-29-2022,8-26-59,96,depth_duration_stimuli/001100_2014-06-15_17-46-26_260595134347_rgbf000225-resize_2/001100_2014-06-15_17-46-26_260595134347_rgbf000225-resize_2-target.png,250,2.24,3,3179,252,feet,jsons/v1_VE250_randls_71.json,653674,780824,20,Woman
96,579384,DepthScenes,duration_manipulation_targetAtFixation,jsons/v1_VE250_randls_71.json,http://54.235.29.9/FacialAge/BNav_EC2/DepthDuration/v2_depth_duration_MTurk/v2_DepthDuration_HTML.html#290,290,1504,694,1536,864,8-29-2022,8-26-59,97,depth_duration_stimuli/000736_2014-06-08_18-24-15_260595134347_rgbf000206-resize_3/000736_2014-06-08_18-24-15_260595134347_rgbf000206-resize_3-target.png,250,3.515,3,2909,238,feet,jsons/v1_VE250_randls_71.json,653674,780824,20,Woman
97,579384,DepthScenes,duration_manipulation_targetAtFixation,jsons/v1_VE250_randls_71.json,http://54.235.29.9/FacialAge/BNav_EC2/DepthDuration/v2_depth_duration_MTurk/v2_DepthDuration_HTML.html#290,290,1504,694,1536,864,8-29-2022,8-26-59,98,depth_duration_stimuli/000137_2014-05-20_17-04-49_260595134347_rgbf000120-resize_1/000137_2014-05-20_17-04-49_260595134347_rgbf000120-resize_1-target.png,250,3.786,3,2932,252,feet,jsons/v1_VE250_randls_71.json,653674,780824,20,Woman
98,579384,DepthScenes,duration_manipulation_targetAtFixation,jsons/v1_VE250_randls_71.json,http://54.235.29.9/FacialAge/BNav_EC2/DepthDuration/v2_depth_duration_MTurk/v2_DepthDuration_HTML.html#290,290,1504,694,1536,864,8-29-2022,8-26-59,99,depth_duration_stimuli/001540_2014-06-20_17-01-05_260595134347_rgbf000086-resize_2/001540_2014-06-20_17-01-05_260595134347_rgbf000086-resize-original.jpg,250,1.459,0,3008,255,feet,jsons/v1_VE250_randls_71.json,653674,780824,20,Woman
99,579384,DepthScenes,duration_manipulation_targetAtFixation,jsons/v1_VE250_randls_71.json,http://54.235.29.9/FacialAge/BNav_EC2/DepthDuration/v2_depth_duration_MTurk/v2_DepthDuration_HTML.html#290,290,1504,694,1536,864,8-29-2022,8-26-59,100,depth_duration_stimuli/002213_2014-06-28_18-37-58_260595134347_rgbf000055-resize_1/002213_2014-06-28_18-37-58_260595134347_rgbf000055-resize_1-target.png,250,3.62,9,3138,256,feet,jsons/v1_VE250_randls_71.json,653674,780824,20,Woman
100,579384,DepthScenes,duration_manipulation_targetAtFixation,jsons/v1_VE250_randls_71.json,http://54.235.29.9/FacialAge/BNav_EC2/DepthDuration/v2_depth_duration_MTurk/v2_DepthDuration_HTML.html#290,290,1504,694,1536,864,8-29-2022,8-26-59,101,depth_duration_stimuli/000691_2014-06-08_13-08-50_260595134347_rgbf000132-resize_3/000691_2014-06-08_13-08-50_260595134347_rgbf000132-resize_3-target.png,250,4.1530000000000005,8,3022,249,feet,jsons/v1_VE250_randls_71.json,653674,780824,20,Woman
101,579384,DepthScenes,duration_manipulation_targetAtFixation,jsons/v1_VE250_randls_71.json,http://54.235.29.9/FacialAge/BNav_EC2/DepthDuration/v2_depth_duration_MTurk/v2_DepthDuration_HTML.html#290,290,1504,694,1536,864,8-29-2022,8-26-59,102,depth_duration_stimuli/000493_2014-06-09_21-01-18_260595134347_rgbf000196-resize_3/000493_2014-06-09_21-01-18_260595134347_rgbf000196-resize_3-target.png,250,3.44,8,2903,249,feet,jsons/v1_VE250_randls_71.json,653674,780824,20,Woman
102,579384,DepthScenes,duration_manipulation_targetAtFixation,jsons/v1_VE250_randls_71.json,http://54.235.29.9/FacialAge/BNav_EC2/DepthDuration/v2_depth_duration_MTurk/v2_DepthDuration_HTML.html#290,290,1504,694,1536,864,8-29-2022,8-26-59,103,depth_duration_stimuli/000191_2014-05-12_17-07-38_260595134347_rgbf000199-resize_0/000191_2014-05-12_17-07-38_260595134347_rgbf000199-resize_0-target.png,250,3.7995,9,2765,255,feet,jsons/v1_VE250_randls_71.json,653674,780824,20,Woman
103,579384,DepthScenes,duration_manipulation_targetAtFixation,jsons/v1_VE250_randls_71.json,http://54.235.29.9/FacialAge/BNav_EC2/DepthDuration/v2_depth_duration_MTurk/v2_DepthDuration_HTML.html#290,290,1504,694,1536,864,8-29-2022,8-26-59,104,depth_duration_stimuli/002509_2014-06-24_13-19-22_094959634447_rgbf000077-resize_0/002509_2014-06-24_13-19-22_094959634447_rgbf000077-resize_0-target.png,250,1.3065,3,2613,249,feet,jsons/v1_VE250_randls_71.json,653674,780824,20,Woman
104,579384,DepthScenes,duration_manipulation_targetAtFixation,jsons/v1_VE250_randls_71.json,http://54.235.29.9/FacialAge/BNav_EC2/DepthDuration/v2_depth_duration_MTurk/v2_DepthDuration_HTML.html#290,290,1504,694,1536,864,8-29-2022,8-26-59,105,depth_duration_stimuli/003338_2014-05-20_11-01-23_094959634447_rgbf000051-resize_6/003338_2014-05-20_11-01-23_094959634447_rgbf000051-resize_6-target.png,250,1.693,3,2952,244,feet,jsons/v1_VE250_randls_71.json,653674,780824,20,Woman
105,579384,DepthScenes,duration_manipulation_targetAtFixation,jsons/v1_VE250_randls_71.json,http://54.235.29.9/FacialAge/BNav_EC2/DepthDuration/v2_depth_duration_MTurk/v2_DepthDuration_HTML.html#290,290,1504,694,1536,864,8-29-2022,8-26-59,106,depth_duration_stimuli/002279_2014-06-28_18-55-32_260595134347_rgbf000040-resize_5/002279_2014-06-28_18-55-32_260595134347_rgbf000040-resize_5-target.png,250,1.5043333333333,3,2677,254,feet,jsons/v1_VE250_randls_71.json,653674,780824,20,Woman
106,579384,DepthScenes,duration_manipulation_targetAtFixation,jsons/v1_VE250_randls_71.json,http://54.235.29.9/FacialAge/BNav_EC2/DepthDuration/v2_depth_duration_MTurk/v2_DepthDuration_HTML.html#290,290,1504,694,1536,864,8-29-2022,8-26-59,107,depth_duration_stimuli/000635_2014-06-08_16-38-42_260595134347_rgbf000106-resize_1/000635_2014-06-08_16-38-42_260595134347_rgbf000106-resize_1-target.png,250,2.074,5,2763,249,feet,jsons/v1_VE250_randls_71.json,653674,780824,20,Woman
107,579384,DepthScenes,duration_manipulation_targetAtFixation,jsons/v1_VE250_randls_71.json,http://54.235.29.9/FacialAge/BNav_EC2/DepthDuration/v2_depth_duration_MTurk/v2_DepthDuration_HTML.html#290,290,1504,694,1536,864,8-29-2022,8-26-59,108,depth_duration_stimuli/002570_2014-06-24_13-59-54_094959634447_rgbf000059-resize_0/002570_2014-06-24_13-59-54_094959634447_rgbf000059-resize_0-target.png,250,4.037,7,4060,237,feet,jsons/v1_VE250_randls_71.json,653674,780824,20,Woman
108,579384,DepthScenes,duration_manipulation_targetAtFixation,jsons/v1_VE250_randls_71.json,http://54.235.29.9/FacialAge/BNav_EC2/DepthDuration/v2_depth_duration_MTurk/v2_DepthDuration_HTML.html#290,290,1504,694,1536,864,8-29-2022,8-26-59,109,depth_duration_stimuli/002467_2014-06-28_20-38-07_260595134347_rgbf000026-resize_2/002467_2014-06-28_20-38-07_260595134347_rgbf000026-resize_2-target.png,250,4.742,9,2860,243,feet,jsons/v1_VE250_randls_71.json,653674,780824,20,Woman
109,579384,DepthScenes,duration_manipulation_targetAtFixation,jsons/v1_VE250_randls_71.json,http://54.235.29.9/FacialAge/BNav_EC2/DepthDuration/v2_depth_duration_MTurk/v2_DepthDuration_HTML.html#290,290,1504,694,1536,864,8-29-2022,8-26-59,110,depth_duration_stimuli/002964_2014-06-08_17-46-11_094959634447_rgbf000091-resize_4/002964_2014-06-08_17-46-11_094959634447_rgbf000091-resize_4-target.png,250,1.6909999999999998,3,2605,257,feet,jsons/v1_VE250_randls_71.json,653674,780824,20,Woman
110,579384,DepthScenes,duration_manipulation_targetAtFixation,jsons/v1_VE250_randls_71.json,http://54.235.29.9/FacialAge/BNav_EC2/DepthDuration/v2_depth_duration_MTurk/v2_DepthDuration_HTML.html#290,290,1504,694,1536,864,8-29-2022,8-26-59,111,depth_duration_stimuli/002136_2014-06-25_21-18-03_260595134347_rgbf000109-resize_3/002136_2014-06-25_21-18-03_260595134347_rgbf000109-resize_3-target.png,250,1.9569999999999999,4,2586,239,feet,jsons/v1_VE250_randls_71.json,653674,780824,20,Woman
111,579384,DepthScenes,duration_manipulation_targetAtFixation,jsons/v1_VE250_randls_71.json,http://54.235.29.9/FacialAge/BNav_EC2/DepthDuration/v2_depth_duration_MTurk/v2_DepthDuration_HTML.html#290,290,1504,694,1536,864,8-29-2022,8-26-59,112,depth_duration_stimuli/000506_2014-06-08_23-21-00_260595134347_rgbf000070-resize_7/000506_2014-06-08_23-21-00_260595134347_rgbf000070-resize_7-target.png,250,4.0585,6,3125,248,feet,jsons/v1_VE250_randls_71.json,653674,780824,20,Woman
112,579384,DepthScenes,duration_manipulation_targetAtFixation,jsons/v1_VE250_randls_71.json,http://54.235.29.9/FacialAge/BNav_EC2/DepthDuration/v2_depth_duration_MTurk/v2_DepthDuration_HTML.html#290,290,1504,694,1536,864,8-29-2022,8-26-59,113,depth_duration_stimuli/003079_2014-06-15_15-18-20_094959634447_rgbf000152-resize_8/003079_2014-06-15_15-18-20_094959634447_rgbf000152-resize_8-target.png,250,2.8775,7,2624,263,feet,jsons/v1_VE250_randls_71.json,653674,780824,20,Woman
113,579384,DepthScenes,duration_manipulation_targetAtFixation,jsons/v1_VE250_randls_71.json,http://54.235.29.9/FacialAge/BNav_EC2/DepthDuration/v2_depth_duration_MTurk/v2_DepthDuration_HTML.html#290,290,1504,694,1536,864,8-29-2022,8-26-59,114,depth_duration_stimuli/000642_2014-06-08_16-59-25_260595134347_rgbf000098-resize_2/000642_2014-06-08_16-59-25_260595134347_rgbf000098-resize_2-target.png,250,2.8815,7,3063,262,feet,jsons/v1_VE250_randls_71.json,653674,780824,20,Woman
114,579384,DepthScenes,duration_manipulation_targetAtFixation,jsons/v1_VE250_randls_71.json,http://54.235.29.9/FacialAge/BNav_EC2/DepthDuration/v2_depth_duration_MTurk/v2_DepthDuration_HTML.html#290,290,1504,694,1536,864,8-29-2022,8-26-59,115,depth_duration_stimuli/002425_2014-06-28_20-27-29_260595134347_rgbf000031-resize_8/002425_2014-06-28_20-27-29_260595134347_rgbf000031-resize_8-target.png,250,3.8960000000000004,6,3061,250,feet,jsons/v1_VE250_randls_71.json,653674,780824,20,Woman
115,579384,DepthScenes,duration_manipulation_targetAtFixation,jsons/v1_VE250_randls_71.json,http://54.235.29.9/FacialAge/BNav_EC2/DepthDuration/v2_depth_duration_MTurk/v2_DepthDuration_HTML.html#290,290,1504,694,1536,864,8-29-2022,8-26-59,116,depth_duration_stimuli/001170_2014-06-17_15-43-44_260595134347_rgbf000096-resize_6/001170_2014-06-17_15-43-44_260595134347_rgbf000096-resize-original.jpg,250,1.1909999999999998,0,3209,247,feet,jsons/v1_VE250_randls_71.json,653674,780824,20,Woman
116,579384,DepthScenes,duration_manipulation_targetAtFixation,jsons/v1_VE250_randls_71.json,http://54.235.29.9/FacialAge/BNav_EC2/DepthDuration/v2_depth_duration_MTurk/v2_DepthDuration_HTML.html#290,290,1504,694,1536,864,8-29-2022,8-26-59,117,depth_duration_stimuli/000447_2014-06-08_16-15-46_260595134347_rgbf000130-resize_1/000447_2014-06-08_16-15-46_260595134347_rgbf000130-resize_1-target.png,250,4.479,9,2858,252,feet,jsons/v1_VE250_randls_71.json,653674,780824,20,Woman
117,579384,DepthScenes,duration_manipulation_targetAtFixation,jsons/v1_VE250_randls_71.json,http://54.235.29.9/FacialAge/BNav_EC2/DepthDuration/v2_depth_duration_MTurk/v2_DepthDuration_HTML.html#290,290,1504,694,1536,864,8-29-2022,8-26-59,118,depth_duration_stimuli/001447_2014-06-19_17-00-32_260595134347_rgbf000082-resize_5/001447_2014-06-19_17-00-32_260595134347_rgbf000082-resize_5-target.png,250,4.13775,7,2620,255,feet,jsons/v1_VE250_randls_71.json,653674,780824,20,Woman
118,579384,DepthScenes,duration_manipulation_targetAtFixation,jsons/v1_VE250_randls_71.json,http://54.235.29.9/FacialAge/BNav_EC2/DepthDuration/v2_depth_duration_MTurk/v2_DepthDuration_HTML.html#290,290,1504,694,1536,864,8-29-2022,8-26-59,119,depth_duration_stimuli/001055_2014-06-08_18-45-35_260595134347_rgbf000111-resize_4/001055_2014-06-08_18-45-35_260595134347_rgbf000111-resize_4-target.png,250,2.4290000000000003,9,2907,260,feet,jsons/v1_VE250_randls_71.json,653674,780824,20,Woman
119,579384,DepthScenes,duration_manipulation_targetAtFixation,jsons/v1_VE250_randls_71.json,http://54.235.29.9/FacialAge/BNav_EC2/DepthDuration/v2_depth_duration_MTurk/v2_DepthDuration_HTML.html#290,290,1504,694,1536,864,8-29-2022,8-26-59,120,depth_duration_stimuli/000549_2014-06-08_22-10-24_260595134347_rgbf000247-resize_3/000549_2014-06-08_22-10-24_260595134347_rgbf000247-resize_3-target.png,250,1.841,3,2803,260,feet,jsons/v1_VE250_randls_71.json,653674,780824,20,Woman
120,579384,DepthScenes,duration_manipulation_targetAtFixation,jsons/v1_VE250_randls_71.json,http://54.235.29.9/FacialAge/BNav_EC2/DepthDuration/v2_depth_duration_MTurk/v2_DepthDuration_HTML.html#290,290,1504,694,1536,864,8-29-2022,8-26-59,121,depth_duration_stimuli/000878_2014-06-08_22-52-45_260595134347_rgbf000045-resize_2/000878_2014-06-08_22-52-45_260595134347_rgbf000045-resize_2-target.png,250,2.092,6,3136,253,feet,jsons/v1_VE250_randls_71.json,653674,780824,20,Woman
121,579384,DepthScenes,duration_manipulation_targetAtFixation,jsons/v1_VE250_randls_71.json,http://54.235.29.9/FacialAge/BNav_EC2/DepthDuration/v2_depth_duration_MTurk/v2_DepthDuration_HTML.html#290,290,1504,694,1536,864,8-29-2022,8-26-59,122,depth_duration_stimuli/002953_2014-06-08_17-32-18_094959634447_rgbf000059-resize_5/002953_2014-06-08_17-32-18_094959634447_rgbf000059-resize_5-target.png,250,1.551,4,3129,254,feet,jsons/v1_VE250_randls_71.json,653674,780824,20,Woman
122,579384,DepthScenes,duration_manipulation_targetAtFixation,jsons/v1_VE250_randls_71.json,http://54.235.29.9/FacialAge/BNav_EC2/DepthDuration/v2_depth_duration_MTurk/v2_DepthDuration_HTML.html#290,290,1504,694,1536,864,8-29-2022,8-26-59,123,depth_duration_stimuli/000368_2014-06-09_15-53-01_260595134347_rgbf000155-resize_2/000368_2014-06-09_15-53-01_260595134347_rgbf000155-resize_2-target.png,250,2.4859999999999998,3,2826,261,feet,jsons/v1_VE250_randls_71.json,653674,780824,20,Woman
123,579384,DepthScenes,duration_manipulation_targetAtFixation,jsons/v1_VE250_randls_71.json,http://54.235.29.9/FacialAge/BNav_EC2/DepthDuration/v2_depth_duration_MTurk/v2_DepthDuration_HTML.html#290,290,1504,694,1536,864,8-29-2022,8-26-59,124,depth_duration_stimuli/002678_2014-06-13_16-15-32_094959634447_rgbf000151-resize_6/002678_2014-06-13_16-15-32_094959634447_rgbf000151-resize_6-target.png,250,2.1830000000000003,3,3150,261,feet,jsons/v1_VE250_randls_71.json,653674,780824,20,Woman
124,579384,DepthScenes,duration_manipulation_targetAtFixation,jsons/v1_VE250_randls_71.json,http://54.235.29.9/FacialAge/BNav_EC2/DepthDuration/v2_depth_duration_MTurk/v2_DepthDuration_HTML.html#290,290,1504,694,1536,864,8-29-2022,8-26-59,125,depth_duration_stimuli/001570_2014-06-20_17-21-09_260595134347_rgbf000135-resize_4/001570_2014-06-20_17-21-09_260595134347_rgbf000135-resize_4-target.png,250,4.467,6,3291,239,feet,jsons/v1_VE250_randls_71.json,653674,780824,20,Woman
125,579384,DepthScenes,duration_manipulation_targetAtFixation,jsons/v1_VE250_randls_71.json,http://54.235.29.9/FacialAge/BNav_EC2/DepthDuration/v2_depth_duration_MTurk/v2_DepthDuration_HTML.html#290,290,1504,694,1536,864,8-29-2022,8-26-59,126,depth_duration_stimuli/001392_2014-06-19_16-07-59_260595134347_rgbf000046-resize_1/001392_2014-06-19_16-07-59_260595134347_rgbf000046-resize_1-target.png,250,4.135,7,2582,251,feet,jsons/v1_VE250_randls_71.json,653674,780824,20,Woman
126,579384,DepthScenes,duration_manipulation_targetAtFixation,jsons/v1_VE250_randls_71.json,http://54.235.29.9/FacialAge/BNav_EC2/DepthDuration/v2_depth_duration_MTurk/v2_DepthDuration_HTML.html#290,290,1504,694,1536,864,8-29-2022,8-26-59,127,depth_duration_stimuli/001066_2014-06-08_22-03-20_260595134347_rgbf000066-resize_4/001066_2014-06-08_22-03-20_260595134347_rgbf000066-resize_4-target.png,250,4.2330000000000005,7,2942,251,feet,jsons/v1_VE250_randls_71.json,653674,780824,20,Woman
127,579384,DepthScenes,duration_manipulation_targetAtFixation,jsons/v1_VE250_randls_71.json,http://54.235.29.9/FacialAge/BNav_EC2/DepthDuration/v2_depth_duration_MTurk/v2_DepthDuration_HTML.html#290,290,1504,694,1536,864,8-29-2022,8-26-59,128,depth_duration_stimuli/000742_2014-06-08_18-48-09_260595134347_rgbf000164-resize_4/000742_2014-06-08_18-48-09_260595134347_rgbf000164-resize_4-target.png,250,4.632,6,2811,239,feet,jsons/v1_VE250_randls_71.json,653674,780824,20,Woman
128,579384,DepthScenes,duration_manipulation_targetAtFixation,jsons/v1_VE250_randls_71.json,http://54.235.29.9/FacialAge/BNav_EC2/DepthDuration/v2_depth_duration_MTurk/v2_DepthDuration_HTML.html#290,290,1504,694,1536,864,8-29-2022,8-26-59,129,depth_duration_stimuli/000682_2014-06-08_23-14-58_260595134347_rgbf000041-resize_5/000682_2014-06-08_23-14-58_260595134347_rgbf000041-resize_5-target.png,250,2.7239999999999998,5,3199,255,feet,jsons/v1_VE250_randls_71.json,653674,780824,20,Woman
129,579384,DepthScenes,duration_manipulation_targetAtFixation,jsons/v1_VE250_randls_71.json,http://54.235.29.9/FacialAge/BNav_EC2/DepthDuration/v2_depth_duration_MTurk/v2_DepthDuration_HTML.html#290,290,1504,694,1536,864,8-29-2022,8-26-59,130,depth_duration_stimuli/001650_2014-06-20_12-09-00_260595134347_rgbf000087-resize_3/001650_2014-06-20_12-09-00_260595134347_rgbf000087-resize_3-target.png,250,1.9505,5,3125,250,feet,jsons/v1_VE250_randls_71.json,653674,780824,20,Woman
130,579384,DepthScenes,duration_manipulation_targetAtFixation,jsons/v1_VE250_randls_71.json,http://54.235.29.9/FacialAge/BNav_EC2/DepthDuration/v2_depth_duration_MTurk/v2_DepthDuration_HTML.html#290,290,1504,694,1536,864,8-29-2022,8-26-59,131,depth_duration_stimuli/001167_2014-06-17_15-38-07_260595134347_rgbf000108-resize_0/001167_2014-06-17_15-38-07_260595134347_rgbf000108-resize_0-target.png,250,1.8505,4,2937,240,feet,jsons/v1_VE250_randls_71.json,653674,780824,20,Woman
131,579384,DepthScenes,duration_manipulation_targetAtFixation,jsons/v1_VE250_randls_71.json,http://54.235.29.9/FacialAge/BNav_EC2/DepthDuration/v2_depth_duration_MTurk/v2_DepthDuration_HTML.html#290,290,1504,694,1536,864,8-29-2022,8-26-59,132,depth_duration_stimuli/003587_2014-05-23_16-48-02_094959634447_rgbf002384-resize_2/003587_2014-05-23_16-48-02_094959634447_rgbf002384-resize_2-target.png,250,1.357,3,2856,251,feet,jsons/v1_VE250_randls_71.json,653674,780824,20,Woman
132,579384,DepthScenes,duration_manipulation_targetAtFixation,jsons/v1_VE250_randls_71.json,http://54.235.29.9/FacialAge/BNav_EC2/DepthDuration/v2_depth_duration_MTurk/v2_DepthDuration_HTML.html#290,290,1504,694,1536,864,8-29-2022,8-26-59,133,depth_duration_stimuli/000810_2014-06-08_17-20-01_260595134347_rgbf000105-resize_0/000810_2014-06-08_17-20-01_260595134347_rgbf000105-resize_0-target.png,250,1.4865,3,2894,256,feet,jsons/v1_VE250_randls_71.json,653674,780824,20,Woman
133,579384,DepthScenes,duration_manipulation_targetAtFixation,jsons/v1_VE250_randls_71.json,http://54.235.29.9/FacialAge/BNav_EC2/DepthDuration/v2_depth_duration_MTurk/v2_DepthDuration_HTML.html#290,290,1504,694,1536,864,8-29-2022,8-26-59,134,depth_duration_stimuli/001214_2014-06-17_16-13-55_260595134347_rgbf000111-resize_0/001214_2014-06-17_16-13-55_260595134347_rgbf000111-resize_0-target.png,250,2.6505,3,3065,252,feet,jsons/v1_VE250_randls_71.json,653674,780824,20,Woman
134,579384,DepthScenes,duration_manipulation_targetAtFixation,jsons/v1_VE250_randls_71.json,http://54.235.29.9/FacialAge/BNav_EC2/DepthDuration/v2_depth_duration_MTurk/v2_DepthDuration_HTML.html#290,290,1504,694,1536,864,8-29-2022,8-26-59,135,depth_duration_stimuli/002072_2014-06-24_21-48-06_260595134347_rgbf000115-resize_0/002072_2014-06-24_21-48-06_260595134347_rgbf000115-resize-original.jpg,250,4.702,0,2657,236,feet,jsons/v1_VE250_randls_71.json,653674,780824,20,Woman
135,579384,DepthScenes,duration_manipulation_targetAtFixation,jsons/v1_VE250_randls_71.json,http://54.235.29.9/FacialAge/BNav_EC2/DepthDuration/v2_depth_duration_MTurk/v2_DepthDuration_HTML.html#290,290,1504,694,1536,864,8-29-2022,8-26-59,136,depth_duration_stimuli/001806_2014-06-26_20-50-20_260595134347_rgbf000091-resize_1/001806_2014-06-26_20-50-20_260595134347_rgbf000091-resize_1-target.png,250,2.7305,4,3075,260,feet,jsons/v1_VE250_randls_71.json,653674,780824,20,Woman
136,579384,DepthScenes,duration_manipulation_targetAtFixation,jsons/v1_VE250_randls_71.json,http://54.235.29.9/FacialAge/BNav_EC2/DepthDuration/v2_depth_duration_MTurk/v2_DepthDuration_HTML.html#290,290,1504,694,1536,864,8-29-2022,8-26-59,137,depth_duration_stimuli/001617_2014-06-20_11-35-32_260595134347_rgbf000066-resize_1/001617_2014-06-20_11-35-32_260595134347_rgbf000066-resize_1-target.png,250,3.7910000000000004,6,2848,249,feet,jsons/v1_VE250_randls_71.json,653674,780824,20,Woman
137,579384,DepthScenes,duration_manipulation_targetAtFixation,jsons/v1_VE250_randls_71.json,http://54.235.29.9/FacialAge/BNav_EC2/DepthDuration/v2_depth_duration_MTurk/v2_DepthDuration_HTML.html#290,290,1504,694,1536,864,8-29-2022,8-26-59,138,depth_duration_stimuli/002788_2014-06-22_19-36-03_094959634447_rgbf000088-resize_2/002788_2014-06-22_19-36-03_094959634447_rgbf000088-resize_2-target.png,250,1.6465,6,2831,244,feet,jsons/v1_VE250_randls_71.json,653674,780824,20,Woman
138,579384,DepthScenes,duration_manipulation_targetAtFixation,jsons/v1_VE250_randls_71.json,http://54.235.29.9/FacialAge/BNav_EC2/DepthDuration/v2_depth_duration_MTurk/v2_DepthDuration_HTML.html#290,290,1504,694,1536,864,8-29-2022,8-26-59,139,depth_duration_stimuli/000749_2014-06-08_21-55-06_260595134347_rgbf000070-resize_2/000749_2014-06-08_21-55-06_260595134347_rgbf000070-resize_2-target.png,250,2.331,5,4087,251,feet,jsons/v1_VE250_randls_71.json,653674,780824,20,Woman
139,579384,DepthScenes,duration_manipulation_targetAtFixation,jsons/v1_VE250_randls_71.json,http://54.235.29.9/FacialAge/BNav_EC2/DepthDuration/v2_depth_duration_MTurk/v2_DepthDuration_HTML.html#290,290,1504,694,1536,864,8-29-2022,8-26-59,140,depth_duration_stimuli/002663_2014-06-13_15-50-26_094959634447_rgbf000075-resize_1/002663_2014-06-13_15-50-26_094959634447_rgbf000075-resize_1-target.png,250,4.7495,10,4429,253,feet,jsons/v1_VE250_randls_71.json,653674,780824,20,Woman
140,579384,DepthScenes,duration_manipulation_targetAtFixation,jsons/v1_VE250_randls_71.json,http://54.235.29.9/FacialAge/BNav_EC2/DepthDuration/v2_depth_duration_MTurk/v2_DepthDuration_HTML.html#290,290,1504,694,1536,864,8-29-2022,8-26-59,141,depth_duration_stimuli/000409_2014-06-04_19-23-33_260595134347_rgbf000067-resize_0/000409_2014-06-04_19-23-33_260595134347_rgbf000067-resize_0-target.png,250,3.7335,7,2925,254,feet,jsons/v1_VE250_randls_71.json,653674,780824,20,Woman
141,579384,DepthScenes,duration_manipulation_targetAtFixation,jsons/v1_VE250_randls_71.json,http://54.235.29.9/FacialAge/BNav_EC2/DepthDuration/v2_depth_duration_MTurk/v2_DepthDuration_HTML.html#290,290,1504,694,1536,864,8-29-2022,8-26-59,142,depth_duration_stimuli/000692_2014-06-08_13-09-42_260595134347_rgbf000199-resize_2/000692_2014-06-08_13-09-42_260595134347_rgbf000199-resize_2-target.png,250,3.661,9,3014,262,feet,jsons/v1_VE250_randls_71.json,653674,780824,20,Woman
142,579384,DepthScenes,duration_manipulation_targetAtFixation,jsons/v1_VE250_randls_71.json,http://54.235.29.9/FacialAge/BNav_EC2/DepthDuration/v2_depth_duration_MTurk/v2_DepthDuration_HTML.html#290,290,1504,694,1536,864,8-29-2022,8-26-59,143,depth_duration_stimuli/001094_2014-06-15_17-36-00_260595134347_rgbf000205-resize_0/001094_2014-06-15_17-36-00_260595134347_rgbf000205-resize_0-target.png,250,4.2175,10,3288,247,feet,jsons/v1_VE250_randls_71.json,653674,780824,20,Woman
143,579384,DepthScenes,duration_manipulation_targetAtFixation,jsons/v1_VE250_randls_71.json,http://54.235.29.9/FacialAge/BNav_EC2/DepthDuration/v2_depth_duration_MTurk/v2_DepthDuration_HTML.html#290,290,1504,694,1536,864,8-29-2022,8-26-59,144,depth_duration_stimuli/002905_2014-06-03_18-04-43_094959634447_rgbf000151-resize_2/002905_2014-06-03_18-04-43_094959634447_rgbf000151-resize_2-target.png,250,2.0295,9,5477,249,feet,jsons/v1_VE250_randls_71.json,653674,780824,20,Woman
144,579384,DepthScenes,duration_manipulation_targetAtFixation,jsons/v1_VE250_randls_71.json,http://54.235.29.9/FacialAge/BNav_EC2/DepthDuration/v2_depth_duration_MTurk/v2_DepthDuration_HTML.html#290,290,1504,694,1536,864,8-29-2022,8-26-59,145,depth_duration_stimuli/003423_2014-05-21_10-23-26_094959634447_rgbf002665-resize_2/003423_2014-05-21_10-23-26_094959634447_rgbf002665-resize_2-target.png,250,3.2575,8,3383,258,feet,jsons/v1_VE250_randls_71.json,653674,780824,20,Woman
145,579384,DepthScenes,duration_manipulation_targetAtFixation,jsons/v1_VE250_randls_71.json,http://54.235.29.9/FacialAge/BNav_EC2/DepthDuration/v2_depth_duration_MTurk/v2_DepthDuration_HTML.html#290,290,1504,694,1536,864,8-29-2022,8-26-59,146,depth_duration_stimuli/001498_2014-06-19_17-45-14_260595134347_rgbf000129-resize_4/001498_2014-06-19_17-45-14_260595134347_rgbf000129-resize-original.jpg,250,1.4075,0,3037,260,feet,jsons/v1_VE250_randls_71.json,653674,780824,20,Woman
146,579384,DepthScenes,duration_manipulation_targetAtFixation,jsons/v1_VE250_randls_71.json,http://54.235.29.9/FacialAge/BNav_EC2/DepthDuration/v2_depth_duration_MTurk/v2_DepthDuration_HTML.html#290,290,1504,694,1536,864,8-29-2022,8-26-59,147,depth_duration_stimuli/001808_2014-06-26_20-50-58_260595134347_rgbf000029-resize_1/001808_2014-06-26_20-50-58_260595134347_rgbf000029-resize_1-target.png,250,4.249,9,3627,243,feet,jsons/v1_VE250_randls_71.json,653674,780824,20,Woman
147,579384,DepthScenes,duration_manipulation_targetAtFixation,jsons/v1_VE250_randls_71.json,http://54.235.29.9/FacialAge/BNav_EC2/DepthDuration/v2_depth_duration_MTurk/v2_DepthDuration_HTML.html#290,290,1504,694,1536,864,8-29-2022,8-26-59,148,depth_duration_stimuli/001815_2014-06-26_20-52-55_260595134347_rgbf000020-resize_0/001815_2014-06-26_20-52-55_260595134347_rgbf000020-resize_0-target.png,250,3.3865,0,8513,250,feet,jsons/v1_VE250_randls_71.json,653674,780824,20,Woman
148,579384,DepthScenes,duration_manipulation_targetAtFixation,jsons/v1_VE250_randls_71.json,http://54.235.29.9/FacialAge/BNav_EC2/DepthDuration/v2_depth_duration_MTurk/v2_DepthDuration_HTML.html#290,290,1504,694,1536,864,8-29-2022,8-26-59,149,depth_duration_stimuli/002057_2014-06-24_21-00-13_260595134347_rgbf000120-resize_1/002057_2014-06-24_21-00-13_260595134347_rgbf000120-resize_1-target.png,250,2.967,9,2721,251,feet,jsons/v1_VE250_randls_71.json,653674,780824,20,Woman
149,579384,DepthScenes,duration_manipulation_targetAtFixation,jsons/v1_VE250_randls_71.json,http://54.235.29.9/FacialAge/BNav_EC2/DepthDuration/v2_depth_duration_MTurk/v2_DepthDuration_HTML.html#290,290,1504,694,1536,864,8-29-2022,8-26-59,150,depth_duration_stimuli/000709_2014-06-08_13-51-55_260595134347_rgbf000068-resize_3/000709_2014-06-08_13-51-55_260595134347_rgbf000068-resize_3-target.png,250,1.8030000000000002,6,2769,250,feet,jsons/v1_VE250_randls_71.json,653674,780824,20,Woman
150,579384,DepthScenes,duration_manipulation_targetAtFixation,jsons/v1_VE250_randls_71.json,http://54.235.29.9/FacialAge/BNav_EC2/DepthDuration/v2_depth_duration_MTurk/v2_DepthDuration_HTML.html#290,290,1504,694,1536,864,8-29-2022,8-26-59,151,depth_duration_stimuli/002725_2014-06-22_11-47-51_094959634447_rgbf000070-resize_1/002725_2014-06-22_11-47-51_094959634447_rgbf000070-resize_1-target.png,250,2.195,7,2788,252,feet,jsons/v1_VE250_randls_71.json,653674,780824,20,Woman
151,579384,DepthScenes,duration_manipulation_targetAtFixation,jsons/v1_VE250_randls_71.json,http://54.235.29.9/FacialAge/BNav_EC2/DepthDuration/v2_depth_duration_MTurk/v2_DepthDuration_HTML.html#290,290,1504,694,1536,864,8-29-2022,8-26-59,152,depth_duration_stimuli/002344_2014-06-28_20-06-29_260595134347_rgbf000030-resize_1/002344_2014-06-28_20-06-29_260595134347_rgbf000030-resize_1-target.png,250,1.5795,4,3607,259,feet,jsons/v1_VE250_randls_71.json,653674,780824,20,Woman
152,579384,DepthScenes,duration_manipulation_targetAtFixation,jsons/v1_VE250_randls_71.json,http://54.235.29.9/FacialAge/BNav_EC2/DepthDuration/v2_depth_duration_MTurk/v2_DepthDuration_HTML.html#290,290,1504,694,1536,864,8-29-2022,8-26-59,153,depth_duration_stimuli/002043_2014-06-24_20-29-38_260595134347_rgbf000039-resize_4/002043_2014-06-24_20-29-38_260595134347_rgbf000039-resize_4-target.png,250,2.8435,6,2577,256,feet,jsons/v1_VE250_randls_71.json,653674,780824,20,Woman
153,579384,DepthScenes,duration_manipulation_targetAtFixation,jsons/v1_VE250_randls_71.json,http://54.235.29.9/FacialAge/BNav_EC2/DepthDuration/v2_depth_duration_MTurk/v2_DepthDuration_HTML.html#290,290,1504,694,1536,864,8-29-2022,8-26-59,154,depth_duration_stimuli/003048_2014-06-15_13-49-43_094959634447_rgbf000150-resize_1/003048_2014-06-15_13-49-43_094959634447_rgbf000150-resize_1-target.png,250,4.0035,7,3074,249,feet,jsons/v1_VE250_randls_71.json,653674,780824,20,Woman
154,579384,DepthScenes,duration_manipulation_targetAtFixation,jsons/v1_VE250_randls_71.json,http://54.235.29.9/FacialAge/BNav_EC2/DepthDuration/v2_depth_duration_MTurk/v2_DepthDuration_HTML.html#290,290,1504,694,1536,864,8-29-2022,8-26-59,155,depth_duration_stimuli/002445_2014-06-28_20-32-16_260595134347_rgbf000029-resize_4/002445_2014-06-28_20-32-16_260595134347_rgbf000029-resize_4-target.png,250,2.5315,5,2735,240,feet,jsons/v1_VE250_randls_71.json,653674,780824,20,Woman
155,579384,DepthScenes,duration_manipulation_targetAtFixation,jsons/v1_VE250_randls_71.json,http://54.235.29.9/FacialAge/BNav_EC2/DepthDuration/v2_depth_duration_MTurk/v2_DepthDuration_HTML.html#290,290,1504,694,1536,864,8-29-2022,8-26-59,156,depth_duration_stimuli/000780_2014-06-08_22-28-29_260595134347_rgbf000126-resize_1/000780_2014-06-08_22-28-29_260595134347_rgbf000126-resize_1-target.png,250,3.3825,7,3288,248,feet,jsons/v1_VE250_randls_71.json,653674,780824,20,Woman
156,579384,DepthScenes,duration_manipulation_targetAtFixation,jsons/v1_VE250_randls_71.json,http://54.235.29.9/FacialAge/BNav_EC2/DepthDuration/v2_depth_duration_MTurk/v2_DepthDuration_HTML.html#290,290,1504,694,1536,864,8-29-2022,8-26-59,157,depth_duration_stimuli/001029_2014-06-08_13-17-57_260595134347_rgbf000065-resize_1/001029_2014-06-08_13-17-57_260595134347_rgbf000065-resize_1-target.png,250,3.0835,7,2668,241,feet,jsons/v1_VE250_randls_71.json,653674,780824,20,Woman
157,579384,DepthScenes,duration_manipulation_targetAtFixation,jsons/v1_VE250_randls_71.json,http://54.235.29.9/FacialAge/BNav_EC2/DepthDuration/v2_depth_duration_MTurk/v2_DepthDuration_HTML.html#290,290,1504,694,1536,864,8-29-2022,8-26-59,158,depth_duration_stimuli/000677_2014-06-08_23-10-32_260595134347_rgbf000158-resize_6/000677_2014-06-08_23-10-32_260595134347_rgbf000158-resize_6-target.png,250,3.556,8,2879,254,feet,jsons/v1_VE250_randls_71.json,653674,780824,20,Woman
158,579384,DepthScenes,duration_manipulation_targetAtFixation,jsons/v1_VE250_randls_71.json,http://54.235.29.9/FacialAge/BNav_EC2/DepthDuration/v2_depth_duration_MTurk/v2_DepthDuration_HTML.html#290,290,1504,694,1536,864,8-29-2022,8-26-59,159,depth_duration_stimuli/002988_2014-06-15_12-24-20_094959634447_rgbf000150-resize_1/002988_2014-06-15_12-24-20_094959634447_rgbf000150-resize_1-target.png,250,4.7669999999999995,9,2545,248,feet,jsons/v1_VE250_randls_71.json,653674,780824,20,Woman
159,579384,DepthScenes,duration_manipulation_targetAtFixation,jsons/v1_VE250_randls_71.json,http://54.235.29.9/FacialAge/BNav_EC2/DepthDuration/v2_depth_duration_MTurk/v2_DepthDuration_HTML.html#290,290,1504,694,1536,864,8-29-2022,8-26-59,160,depth_duration_stimuli/001052_2014-06-08_18-24-54_260595134347_rgbf000130-resize_1/001052_2014-06-08_18-24-54_260595134347_rgbf000130-resize_1-target.png,250,4.1045,7,3017,262,feet,jsons/v1_VE250_randls_71.json,653674,780824,20,Woman
160,579384,DepthScenes,duration_manipulation_targetAtFixation,jsons/v1_VE250_randls_71.json,http://54.235.29.9/FacialAge/BNav_EC2/DepthDuration/v2_depth_duration_MTurk/v2_DepthDuration_HTML.html#290,290,1504,694,1536,864,8-29-2022,8-26-59,161,depth_duration_stimuli/000906_2014-06-08_13-35-43_260595134347_rgbf000155-resize_1/000906_2014-06-08_13-35-43_260595134347_rgbf000155-resize_1-target.png,250,2.8489999999999998,7,3305,261,feet,jsons/v1_VE250_randls_71.json,653674,780824,20,Woman
161,579384,DepthScenes,duration_manipulation_targetAtFixation,jsons/v1_VE250_randls_71.json,http://54.235.29.9/FacialAge/BNav_EC2/DepthDuration/v2_depth_duration_MTurk/v2_DepthDuration_HTML.html#290,290,1504,694,1536,864,8-29-2022,8-26-59,162,depth_duration_stimuli/002805_2014-06-22_19-54-03_094959634447_rgbf000079-resize_1/002805_2014-06-22_19-54-03_094959634447_rgbf000079-resize_1-target.png,250,3.1439999999999997,9,3806,251,feet,jsons/v1_VE250_randls_71.json,653674,780824,20,Woman
162,579384,DepthScenes,duration_manipulation_targetAtFixation,jsons/v1_VE250_randls_71.json,http://54.235.29.9/FacialAge/BNav_EC2/DepthDuration/v2_depth_duration_MTurk/v2_DepthDuration_HTML.html#290,290,1504,694,1536,864,8-29-2022,8-26-59,163,depth_duration_stimuli/002600_2014-06-24_14-27-04_094959634447_rgbf000074-resize_2/002600_2014-06-24_14-27-04_094959634447_rgbf000074-resize_2-target.png,250,2.7575,7,2780,241,feet,jsons/v1_VE250_randls_71.json,653674,780824,20,Woman
163,579384,DepthScenes,duration_manipulation_targetAtFixation,jsons/v1_VE250_randls_71.json,http://54.235.29.9/FacialAge/BNav_EC2/DepthDuration/v2_depth_duration_MTurk/v2_DepthDuration_HTML.html#290,290,1504,694,1536,864,8-29-2022,8-26-59,164,depth_duration_stimuli/003228_2014-05-14_13-42-35_094959634447_rgbf000101-resize_1/003228_2014-05-14_13-42-35_094959634447_rgbf000101-resize_1-target.png,250,1.9680000000000002,5,2607,244,feet,jsons/v1_VE250_randls_71.json,653674,780824,20,Woman
