,subjID,experimentName,versionName,sequenceName,url,selected_row,windowWidth,windowHeight,screenWidth,screenHeight,startDate,startTime,trial,stimulus,duration,actual_depth,depth_estimate,trial_RT,log_sceneDuration,unitSelection,seq_filepath,experimentTime,totalTime,age,gender
0,580746,DepthScenes,duration_manipulation_targetAtFixation,jsons/VE125_randls_0.json,http://54.235.29.9/FacialAge/BNav_EC2/DepthDuration/v2_depth_duration_MTurk/v2_DepthDuration_HTML.html#189,189,1536,746,1536,864,8-29-2022,14-23-51,1,depth_duration_stimuli/001133_2014-06-17_14-49-16_260595134347_rgbf000100-resize_0/001133_2014-06-17_14-49-16_260595134347_rgbf000100-resize_0-target.png,125,4.2115,9,3401,124,feet,jsons/VE125_randls_0.json,503786,737436,42,Man
1,580746,DepthScenes,duration_manipulation_targetAtFixation,jsons/VE125_randls_0.json,http://54.235.29.9/FacialAge/BNav_EC2/DepthDuration/v2_depth_duration_MTurk/v2_DepthDuration_HTML.html#189,189,1536,746,1536,864,8-29-2022,14-23-51,2,depth_duration_stimuli/001132_2014-06-17_14-48-54_260595134347_rgbf000100-resize_2/001132_2014-06-17_14-48-54_260595134347_rgbf000100-resize_2-target.png,125,3.753,5,2415,127,feet,jsons/VE125_randls_0.json,503786,737436,42,Man
2,580746,DepthScenes,duration_manipulation_targetAtFixation,jsons/VE125_randls_0.json,http://54.235.29.9/FacialAge/BNav_EC2/DepthDuration/v2_depth_duration_MTurk/v2_DepthDuration_HTML.html#189,189,1536,746,1536,864,8-29-2022,14-23-51,3,depth_duration_stimuli/003070_2014-06-15_14-58-27_094959634447_rgbf000150-resize_3/003070_2014-06-15_14-58-27_094959634447_rgbf000150-resize_3-target.png,125,2.9415,5,2348,116,feet,jsons/VE125_randls_0.json,503786,737436,42,Man
3,580746,DepthScenes,duration_manipulation_targetAtFixation,jsons/VE125_randls_0.json,http://54.235.29.9/FacialAge/BNav_EC2/DepthDuration/v2_depth_duration_MTurk/v2_DepthDuration_HTML.html#189,189,1536,746,1536,864,8-29-2022,14-23-51,4,depth_duration_stimuli/000943_2014-06-09_19-31-07_260595134347_rgbf000128-resize_1/000943_2014-06-09_19-31-07_260595134347_rgbf000128-resize_1-target.png,125,1.9765,4,2327,127,feet,jsons/VE125_randls_0.json,503786,737436,42,Man
4,580746,DepthScenes,duration_manipulation_targetAtFixation,jsons/VE125_randls_0.json,http://54.235.29.9/FacialAge/BNav_EC2/DepthDuration/v2_depth_duration_MTurk/v2_DepthDuration_HTML.html#189,189,1536,746,1536,864,8-29-2022,14-23-51,5,depth_duration_stimuli/002964_2014-06-08_17-46-11_094959634447_rgbf000091-resize_4/002964_2014-06-08_17-46-11_094959634447_rgbf000091-resize_4-target.png,125,1.6909999999999998,2,2296,129,feet,jsons/VE125_randls_0.json,503786,737436,42,Man
5,580746,DepthScenes,duration_manipulation_targetAtFixation,jsons/VE125_randls_0.json,http://54.235.29.9/FacialAge/BNav_EC2/DepthDuration/v2_depth_duration_MTurk/v2_DepthDuration_HTML.html#189,189,1536,746,1536,864,8-29-2022,14-23-51,6,depth_duration_stimuli/002136_2014-06-25_21-18-03_260595134347_rgbf000109-resize_3/002136_2014-06-25_21-18-03_260595134347_rgbf000109-resize_3-target.png,125,1.9569999999999999,6,2838,126,feet,jsons/VE125_randls_0.json,503786,737436,42,Man
6,580746,DepthScenes,duration_manipulation_targetAtFixation,jsons/VE125_randls_0.json,http://54.235.29.9/FacialAge/BNav_EC2/DepthDuration/v2_depth_duration_MTurk/v2_DepthDuration_HTML.html#189,189,1536,746,1536,864,8-29-2022,14-23-51,7,depth_duration_stimuli/000917_2014-06-09_22-45-29_260595134347_rgbf000149-resize_3/000917_2014-06-09_22-45-29_260595134347_rgbf000149-resize_3-target.png,125,4.1865,9,2881,120,feet,jsons/VE125_randls_0.json,503786,737436,42,Man
7,580746,DepthScenes,duration_manipulation_targetAtFixation,jsons/VE125_randls_0.json,http://54.235.29.9/FacialAge/BNav_EC2/DepthDuration/v2_depth_duration_MTurk/v2_DepthDuration_HTML.html#189,189,1536,746,1536,864,8-29-2022,14-23-51,8,depth_duration_stimuli/002323_2014-06-28_20-01-54_260595134347_rgbf000051-resize_4/002323_2014-06-28_20-01-54_260595134347_rgbf000051-resize_4-target.png,125,3.7310000000000003,8,2659,125,feet,jsons/VE125_randls_0.json,503786,737436,42,Man
8,580746,DepthScenes,duration_manipulation_targetAtFixation,jsons/VE125_randls_0.json,http://54.235.29.9/FacialAge/BNav_EC2/DepthDuration/v2_depth_duration_MTurk/v2_DepthDuration_HTML.html#189,189,1536,746,1536,864,8-29-2022,14-23-51,9,depth_duration_stimuli/002570_2014-06-24_13-59-54_094959634447_rgbf000059-resize_0/002570_2014-06-24_13-59-54_094959634447_rgbf000059-resize_0-target.png,125,4.037,2,2287,130,feet,jsons/VE125_randls_0.json,503786,737436,42,Man
9,580746,DepthScenes,duration_manipulation_targetAtFixation,jsons/VE125_randls_0.json,http://54.235.29.9/FacialAge/BNav_EC2/DepthDuration/v2_depth_duration_MTurk/v2_DepthDuration_HTML.html#189,189,1536,746,1536,864,8-29-2022,14-23-51,10,depth_duration_stimuli/002467_2014-06-28_20-38-07_260595134347_rgbf000026-resize_2/002467_2014-06-28_20-38-07_260595134347_rgbf000026-resize_2-target.png,125,4.742,9,2474,124,feet,jsons/VE125_randls_0.json,503786,737436,42,Man
10,580746,DepthScenes,duration_manipulation_targetAtFixation,jsons/VE125_randls_0.json,http://54.235.29.9/FacialAge/BNav_EC2/DepthDuration/v2_depth_duration_MTurk/v2_DepthDuration_HTML.html#189,189,1536,746,1536,864,8-29-2022,14-23-51,11,depth_duration_stimuli/001449_2014-06-19_17-01-27_260595134347_rgbf000116-resize_2/001449_2014-06-19_17-01-27_260595134347_rgbf000116-resize_2-target.png,125,3.452,4,2276,127,feet,jsons/VE125_randls_0.json,503786,737436,42,Man
11,580746,DepthScenes,duration_manipulation_targetAtFixation,jsons/VE125_randls_0.json,http://54.235.29.9/FacialAge/BNav_EC2/DepthDuration/v2_depth_duration_MTurk/v2_DepthDuration_HTML.html#189,189,1536,746,1536,864,8-29-2022,14-23-51,12,depth_duration_stimuli/001450_2014-06-19_17-02-03_260595134347_rgbf000203-resize_4/001450_2014-06-19_17-02-03_260595134347_rgbf000203-resize_4-target.png,125,4.0106666666667,7,2401,124,feet,jsons/VE125_randls_0.json,503786,737436,42,Man
12,580746,DepthScenes,duration_manipulation_targetAtFixation,jsons/VE125_randls_0.json,http://54.235.29.9/FacialAge/BNav_EC2/DepthDuration/v2_depth_duration_MTurk/v2_DepthDuration_HTML.html#189,189,1536,746,1536,864,8-29-2022,14-23-51,13,depth_duration_stimuli/000569_2014-06-09_22-51-47_260595134347_rgbf000141-resize_3/000569_2014-06-09_22-51-47_260595134347_rgbf000141-resize-original.jpg,125,4.512,0,2369,131,feet,jsons/VE125_randls_0.json,503786,737436,42,Man
13,580746,DepthScenes,duration_manipulation_targetAtFixation,jsons/VE125_randls_0.json,http://54.235.29.9/FacialAge/BNav_EC2/DepthDuration/v2_depth_duration_MTurk/v2_DepthDuration_HTML.html#189,189,1536,746,1536,864,8-29-2022,14-23-51,14,depth_duration_stimuli/000736_2014-06-08_18-24-15_260595134347_rgbf000206-resize_3/000736_2014-06-08_18-24-15_260595134347_rgbf000206-resize_3-target.png,125,3.515,5,2081,125,feet,jsons/VE125_randls_0.json,503786,737436,42,Man
14,580746,DepthScenes,duration_manipulation_targetAtFixation,jsons/VE125_randls_0.json,http://54.235.29.9/FacialAge/BNav_EC2/DepthDuration/v2_depth_duration_MTurk/v2_DepthDuration_HTML.html#189,189,1536,746,1536,864,8-29-2022,14-23-51,15,depth_duration_stimuli/000137_2014-05-20_17-04-49_260595134347_rgbf000120-resize_1/000137_2014-05-20_17-04-49_260595134347_rgbf000120-resize_1-target.png,125,3.786,7,2133,122,feet,jsons/VE125_randls_0.json,503786,737436,42,Man
15,580746,DepthScenes,duration_manipulation_targetAtFixation,jsons/VE125_randls_0.json,http://54.235.29.9/FacialAge/BNav_EC2/DepthDuration/v2_depth_duration_MTurk/v2_DepthDuration_HTML.html#189,189,1536,746,1536,864,8-29-2022,14-23-51,16,depth_duration_stimuli/002509_2014-06-24_13-19-22_094959634447_rgbf000077-resize_0/002509_2014-06-24_13-19-22_094959634447_rgbf000077-resize_0-target.png,125,1.3065,2,2124,124,feet,jsons/VE125_randls_0.json,503786,737436,42,Man
16,580746,DepthScenes,duration_manipulation_targetAtFixation,jsons/VE125_randls_0.json,http://54.235.29.9/FacialAge/BNav_EC2/DepthDuration/v2_depth_duration_MTurk/v2_DepthDuration_HTML.html#189,189,1536,746,1536,864,8-29-2022,14-23-51,17,depth_duration_stimuli/003338_2014-05-20_11-01-23_094959634447_rgbf000051-resize_6/003338_2014-05-20_11-01-23_094959634447_rgbf000051-resize_6-target.png,125,1.693,4,2015,134,feet,jsons/VE125_randls_0.json,503786,737436,42,Man
17,580746,DepthScenes,duration_manipulation_targetAtFixation,jsons/VE125_randls_0.json,http://54.235.29.9/FacialAge/BNav_EC2/DepthDuration/v2_depth_duration_MTurk/v2_DepthDuration_HTML.html#189,189,1536,746,1536,864,8-29-2022,14-23-51,18,depth_duration_stimuli/000810_2014-06-08_17-20-01_260595134347_rgbf000105-resize_0/000810_2014-06-08_17-20-01_260595134347_rgbf000105-resize_0-target.png,125,1.4865,6,9136,126,feet,jsons/VE125_randls_0.json,503786,737436,42,Man
18,580746,DepthScenes,duration_manipulation_targetAtFixation,jsons/VE125_randls_0.json,http://54.235.29.9/FacialAge/BNav_EC2/DepthDuration/v2_depth_duration_MTurk/v2_DepthDuration_HTML.html#189,189,1536,746,1536,864,8-29-2022,14-23-51,19,depth_duration_stimuli/001214_2014-06-17_16-13-55_260595134347_rgbf000111-resize_0/001214_2014-06-17_16-13-55_260595134347_rgbf000111-resize_0-target.png,125,2.6505,4,4294,125,feet,jsons/VE125_randls_0.json,503786,737436,42,Man
19,580746,DepthScenes,duration_manipulation_targetAtFixation,jsons/VE125_randls_0.json,http://54.235.29.9/FacialAge/BNav_EC2/DepthDuration/v2_depth_duration_MTurk/v2_DepthDuration_HTML.html#189,189,1536,746,1536,864,8-29-2022,14-23-51,20,depth_duration_stimuli/000486_2014-06-09_20-47-20_260595134347_rgbf000143-resize_2/000486_2014-06-09_20-47-20_260595134347_rgbf000143-resize_2-target.png,125,4.8325,6,2014,134,feet,jsons/VE125_randls_0.json,503786,737436,42,Man
20,580746,DepthScenes,duration_manipulation_targetAtFixation,jsons/VE125_randls_0.json,http://54.235.29.9/FacialAge/BNav_EC2/DepthDuration/v2_depth_duration_MTurk/v2_DepthDuration_HTML.html#189,189,1536,746,1536,864,8-29-2022,14-23-51,21,depth_duration_stimuli/003083_2014-06-15_15-21-03_094959634447_rgbf000063-resize_1/003083_2014-06-15_15-21-03_094959634447_rgbf000063-resize_1-target.png,125,4.1405,11,3272,116,feet,jsons/VE125_randls_0.json,503786,737436,42,Man
21,580746,DepthScenes,duration_manipulation_targetAtFixation,jsons/VE125_randls_0.json,http://54.235.29.9/FacialAge/BNav_EC2/DepthDuration/v2_depth_duration_MTurk/v2_DepthDuration_HTML.html#189,189,1536,746,1536,864,8-29-2022,14-23-51,22,depth_duration_stimuli/002788_2014-06-22_19-36-03_094959634447_rgbf000088-resize_2/002788_2014-06-22_19-36-03_094959634447_rgbf000088-resize_2-target.png,125,1.6465,7,2197,117,feet,jsons/VE125_randls_0.json,503786,737436,42,Man
22,580746,DepthScenes,duration_manipulation_targetAtFixation,jsons/VE125_randls_0.json,http://54.235.29.9/FacialAge/BNav_EC2/DepthDuration/v2_depth_duration_MTurk/v2_DepthDuration_HTML.html#189,189,1536,746,1536,864,8-29-2022,14-23-51,23,depth_duration_stimuli/000749_2014-06-08_21-55-06_260595134347_rgbf000070-resize_2/000749_2014-06-08_21-55-06_260595134347_rgbf000070-resize_2-target.png,125,2.331,6,2202,131,feet,jsons/VE125_randls_0.json,503786,737436,42,Man
23,580746,DepthScenes,duration_manipulation_targetAtFixation,jsons/VE125_randls_0.json,http://54.235.29.9/FacialAge/BNav_EC2/DepthDuration/v2_depth_duration_MTurk/v2_DepthDuration_HTML.html#189,189,1536,746,1536,864,8-29-2022,14-23-51,24,depth_duration_stimuli/002763_2014-06-22_19-13-10_094959634447_rgbf000075-resize_4/002763_2014-06-22_19-13-10_094959634447_rgbf000075-resize_4-target.png,125,1.68375,4,1991,127,feet,jsons/VE125_randls_0.json,503786,737436,42,Man
24,580746,DepthScenes,duration_manipulation_targetAtFixation,jsons/VE125_randls_0.json,http://54.235.29.9/FacialAge/BNav_EC2/DepthDuration/v2_depth_duration_MTurk/v2_DepthDuration_HTML.html#189,189,1536,746,1536,864,8-29-2022,14-23-51,25,depth_duration_stimuli/002209_2014-06-28_18-36-10_260595134347_rgbf000051-resize_1/002209_2014-06-28_18-36-10_260595134347_rgbf000051-resize_1-target.png,125,2.057,4,1859,132,feet,jsons/VE125_randls_0.json,503786,737436,42,Man
25,580746,DepthScenes,duration_manipulation_targetAtFixation,jsons/VE125_randls_0.json,http://54.235.29.9/FacialAge/BNav_EC2/DepthDuration/v2_depth_duration_MTurk/v2_DepthDuration_HTML.html#189,189,1536,746,1536,864,8-29-2022,14-23-51,26,depth_duration_stimuli/001029_2014-06-08_13-17-57_260595134347_rgbf000065-resize_1/001029_2014-06-08_13-17-57_260595134347_rgbf000065-resize_1-target.png,125,3.0835,7,2706,132,feet,jsons/VE125_randls_0.json,503786,737436,42,Man
26,580746,DepthScenes,duration_manipulation_targetAtFixation,jsons/VE125_randls_0.json,http://54.235.29.9/FacialAge/BNav_EC2/DepthDuration/v2_depth_duration_MTurk/v2_DepthDuration_HTML.html#189,189,1536,746,1536,864,8-29-2022,14-23-51,27,depth_duration_stimuli/000677_2014-06-08_23-10-32_260595134347_rgbf000158-resize_6/000677_2014-06-08_23-10-32_260595134347_rgbf000158-resize_6-target.png,125,3.556,7,2349,126,feet,jsons/VE125_randls_0.json,503786,737436,42,Man
27,580746,DepthScenes,duration_manipulation_targetAtFixation,jsons/VE125_randls_0.json,http://54.235.29.9/FacialAge/BNav_EC2/DepthDuration/v2_depth_duration_MTurk/v2_DepthDuration_HTML.html#189,189,1536,746,1536,864,8-29-2022,14-23-51,28,depth_duration_stimuli/002663_2014-06-13_15-50-26_094959634447_rgbf000075-resize_1/002663_2014-06-13_15-50-26_094959634447_rgbf000075-resize_1-target.png,125,4.7495,12,2726,122,feet,jsons/VE125_randls_0.json,503786,737436,42,Man
28,580746,DepthScenes,duration_manipulation_targetAtFixation,jsons/VE125_randls_0.json,http://54.235.29.9/FacialAge/BNav_EC2/DepthDuration/v2_depth_duration_MTurk/v2_DepthDuration_HTML.html#189,189,1536,746,1536,864,8-29-2022,14-23-51,29,depth_duration_stimuli/000409_2014-06-04_19-23-33_260595134347_rgbf000067-resize_0/000409_2014-06-04_19-23-33_260595134347_rgbf000067-resize_0-target.png,125,3.7335,7,2415,127,feet,jsons/VE125_randls_0.json,503786,737436,42,Man
29,580746,DepthScenes,duration_manipulation_targetAtFixation,jsons/VE125_randls_0.json,http://54.235.29.9/FacialAge/BNav_EC2/DepthDuration/v2_depth_duration_MTurk/v2_DepthDuration_HTML.html#189,189,1536,746,1536,864,8-29-2022,14-23-51,30,depth_duration_stimuli/000375_2014-06-08_11-17-29_260595134347_rgbf000133-resize_2/000375_2014-06-08_11-17-29_260595134347_rgbf000133-resize-original.jpg,125,4.718,0,2687,119,feet,jsons/VE125_randls_0.json,503786,737436,42,Man
30,580746,DepthScenes,duration_manipulation_targetAtFixation,jsons/VE125_randls_0.json,http://54.235.29.9/FacialAge/BNav_EC2/DepthDuration/v2_depth_duration_MTurk/v2_DepthDuration_HTML.html#189,189,1536,746,1536,864,8-29-2022,14-23-51,31,depth_duration_stimuli/001806_2014-06-26_20-50-20_260595134347_rgbf000091-resize_1/001806_2014-06-26_20-50-20_260595134347_rgbf000091-resize_1-target.png,125,2.7305,3,2254,125,feet,jsons/VE125_randls_0.json,503786,737436,42,Man
31,580746,DepthScenes,duration_manipulation_targetAtFixation,jsons/VE125_randls_0.json,http://54.235.29.9/FacialAge/BNav_EC2/DepthDuration/v2_depth_duration_MTurk/v2_DepthDuration_HTML.html#189,189,1536,746,1536,864,8-29-2022,14-23-51,32,depth_duration_stimuli/001617_2014-06-20_11-35-32_260595134347_rgbf000066-resize_1/001617_2014-06-20_11-35-32_260595134347_rgbf000066-resize_1-target.png,125,3.7910000000000004,11,3437,125,feet,jsons/VE125_randls_0.json,503786,737436,42,Man
32,580746,DepthScenes,duration_manipulation_targetAtFixation,jsons/VE125_randls_0.json,http://54.235.29.9/FacialAge/BNav_EC2/DepthDuration/v2_depth_duration_MTurk/v2_DepthDuration_HTML.html#189,189,1536,746,1536,864,8-29-2022,14-23-51,33,depth_duration_stimuli/002272_2014-06-28_18-53-56_260595134347_rgbf000067-resize_2/002272_2014-06-28_18-53-56_260595134347_rgbf000067-resize_2-target.png,125,1.138,2,2075,125,feet,jsons/VE125_randls_0.json,503786,737436,42,Man
33,580746,DepthScenes,duration_manipulation_targetAtFixation,jsons/VE125_randls_0.json,http://54.235.29.9/FacialAge/BNav_EC2/DepthDuration/v2_depth_duration_MTurk/v2_DepthDuration_HTML.html#189,189,1536,746,1536,864,8-29-2022,14-23-51,34,depth_duration_stimuli/001571_2014-06-20_17-21-32_260595134347_rgbf000089-resize_1/001571_2014-06-20_17-21-32_260595134347_rgbf000089-resize_1-target.png,125,1.86,3,2457,125,feet,jsons/VE125_randls_0.json,503786,737436,42,Man
34,580746,DepthScenes,duration_manipulation_targetAtFixation,jsons/VE125_randls_0.json,http://54.235.29.9/FacialAge/BNav_EC2/DepthDuration/v2_depth_duration_MTurk/v2_DepthDuration_HTML.html#189,189,1536,746,1536,864,8-29-2022,14-23-51,35,depth_duration_stimuli/001056_2014-06-08_18-46-44_260595134347_rgbf000068-resize_0/001056_2014-06-08_18-46-44_260595134347_rgbf000068-resize_0-target.png,125,2.6625,5,2242,115,feet,jsons/VE125_randls_0.json,503786,737436,42,Man
35,580746,DepthScenes,duration_manipulation_targetAtFixation,jsons/VE125_randls_0.json,http://54.235.29.9/FacialAge/BNav_EC2/DepthDuration/v2_depth_duration_MTurk/v2_DepthDuration_HTML.html#189,189,1536,746,1536,864,8-29-2022,14-23-51,36,depth_duration_stimuli/002199_2014-06-28_18-33-56_260595134347_rgbf000074-resize_0/002199_2014-06-28_18-33-56_260595134347_rgbf000074-resize_0-target.png,125,1.996,2,1948,119,feet,jsons/VE125_randls_0.json,503786,737436,42,Man
36,580746,DepthScenes,duration_manipulation_targetAtFixation,jsons/VE125_randls_0.json,http://54.235.29.9/FacialAge/BNav_EC2/DepthDuration/v2_depth_duration_MTurk/v2_DepthDuration_HTML.html#189,189,1536,746,1536,864,8-29-2022,14-23-51,37,depth_duration_stimuli/000682_2014-06-08_23-14-58_260595134347_rgbf000041-resize_5/000682_2014-06-08_23-14-58_260595134347_rgbf000041-resize_5-target.png,125,2.7239999999999998,5,2295,128,feet,jsons/VE125_randls_0.json,503786,737436,42,Man
37,580746,DepthScenes,duration_manipulation_targetAtFixation,jsons/VE125_randls_0.json,http://54.235.29.9/FacialAge/BNav_EC2/DepthDuration/v2_depth_duration_MTurk/v2_DepthDuration_HTML.html#189,189,1536,746,1536,864,8-29-2022,14-23-51,38,depth_duration_stimuli/001650_2014-06-20_12-09-00_260595134347_rgbf000087-resize_3/001650_2014-06-20_12-09-00_260595134347_rgbf000087-resize_3-target.png,125,1.9505,3,2031,132,feet,jsons/VE125_randls_0.json,503786,737436,42,Man
38,580746,DepthScenes,duration_manipulation_targetAtFixation,jsons/VE125_randls_0.json,http://54.235.29.9/FacialAge/BNav_EC2/DepthDuration/v2_depth_duration_MTurk/v2_DepthDuration_HTML.html#189,189,1536,746,1536,864,8-29-2022,14-23-51,39,depth_duration_stimuli/000878_2014-06-08_22-52-45_260595134347_rgbf000045-resize_2/000878_2014-06-08_22-52-45_260595134347_rgbf000045-resize_2-target.png,125,2.092,5,2268,121,feet,jsons/VE125_randls_0.json,503786,737436,42,Man
39,580746,DepthScenes,duration_manipulation_targetAtFixation,jsons/VE125_randls_0.json,http://54.235.29.9/FacialAge/BNav_EC2/DepthDuration/v2_depth_duration_MTurk/v2_DepthDuration_HTML.html#189,189,1536,746,1536,864,8-29-2022,14-23-51,40,depth_duration_stimuli/002953_2014-06-08_17-32-18_094959634447_rgbf000059-resize_5/002953_2014-06-08_17-32-18_094959634447_rgbf000059-resize_5-target.png,125,1.551,1,1898,122,feet,jsons/VE125_randls_0.json,503786,737436,42,Man
40,580746,DepthScenes,duration_manipulation_targetAtFixation,jsons/VE125_randls_0.json,http://54.235.29.9/FacialAge/BNav_EC2/DepthDuration/v2_depth_duration_MTurk/v2_DepthDuration_HTML.html#189,189,1536,746,1536,864,8-29-2022,14-23-51,41,depth_duration_stimuli/001417_2014-06-19_16-25-36_260595134347_rgbf000115-resize_5/001417_2014-06-19_16-25-36_260595134347_rgbf000115-resize_5-target.png,125,4.6255,7,2340,131,feet,jsons/VE125_randls_0.json,503786,737436,42,Man
41,580746,DepthScenes,duration_manipulation_targetAtFixation,jsons/VE125_randls_0.json,http://54.235.29.9/FacialAge/BNav_EC2/DepthDuration/v2_depth_duration_MTurk/v2_DepthDuration_HTML.html#189,189,1536,746,1536,864,8-29-2022,14-23-51,42,depth_duration_stimuli/003081_2014-06-15_15-19-16_094959634447_rgbf000150-resize_1/003081_2014-06-15_15-19-16_094959634447_rgbf000150-resize_1-target.png,125,3.9125,7,2122,117,feet,jsons/VE125_randls_0.json,503786,737436,42,Man
42,580746,DepthScenes,duration_manipulation_targetAtFixation,jsons/VE125_randls_0.json,http://54.235.29.9/FacialAge/BNav_EC2/DepthDuration/v2_depth_duration_MTurk/v2_DepthDuration_HTML.html#189,189,1536,746,1536,864,8-29-2022,14-23-51,43,depth_duration_stimuli/001167_2014-06-17_15-38-07_260595134347_rgbf000108-resize_0/001167_2014-06-17_15-38-07_260595134347_rgbf000108-resize_0-target.png,125,1.8505,3,2155,129,feet,jsons/VE125_randls_0.json,503786,737436,42,Man
43,580746,DepthScenes,duration_manipulation_targetAtFixation,jsons/VE125_randls_0.json,http://54.235.29.9/FacialAge/BNav_EC2/DepthDuration/v2_depth_duration_MTurk/v2_DepthDuration_HTML.html#189,189,1536,746,1536,864,8-29-2022,14-23-51,44,depth_duration_stimuli/003587_2014-05-23_16-48-02_094959634447_rgbf002384-resize_2/003587_2014-05-23_16-48-02_094959634447_rgbf002384-resize_2-target.png,125,1.357,2,2985,122,feet,jsons/VE125_randls_0.json,503786,737436,42,Man
44,580746,DepthScenes,duration_manipulation_targetAtFixation,jsons/VE125_randls_0.json,http://54.235.29.9/FacialAge/BNav_EC2/DepthDuration/v2_depth_duration_MTurk/v2_DepthDuration_HTML.html#189,189,1536,746,1536,864,8-29-2022,14-23-51,45,depth_duration_stimuli/000787_2014-06-08_22-33-53_260595134347_rgbf000175-resize_1/000787_2014-06-08_22-33-53_260595134347_rgbf000175-resize-original.jpg,125,4.784,0,2071,134,feet,jsons/VE125_randls_0.json,503786,737436,42,Man
45,580746,DepthScenes,duration_manipulation_targetAtFixation,jsons/VE125_randls_0.json,http://54.235.29.9/FacialAge/BNav_EC2/DepthDuration/v2_depth_duration_MTurk/v2_DepthDuration_HTML.html#189,189,1536,746,1536,864,8-29-2022,14-23-51,46,depth_duration_stimuli/002375_2014-06-28_20-13-44_260595134347_rgbf000032-resize_1/002375_2014-06-28_20-13-44_260595134347_rgbf000032-resize_1-target.png,125,4.0175,5,2085,126,feet,jsons/VE125_randls_0.json,503786,737436,42,Man
46,580746,DepthScenes,duration_manipulation_targetAtFixation,jsons/VE125_randls_0.json,http://54.235.29.9/FacialAge/BNav_EC2/DepthDuration/v2_depth_duration_MTurk/v2_DepthDuration_HTML.html#189,189,1536,746,1536,864,8-29-2022,14-23-51,47,depth_duration_stimuli/002657_2014-06-13_15-29-54_094959634447_rgbf000150-resize_1/002657_2014-06-13_15-29-54_094959634447_rgbf000150-resize_1-target.png,125,4.919,7,2005,116,feet,jsons/VE125_randls_0.json,503786,737436,42,Man
47,580746,DepthScenes,duration_manipulation_targetAtFixation,jsons/VE125_randls_0.json,http://54.235.29.9/FacialAge/BNav_EC2/DepthDuration/v2_depth_duration_MTurk/v2_DepthDuration_HTML.html#189,189,1536,746,1536,864,8-29-2022,14-23-51,48,depth_duration_stimuli/000009_2014-05-26_14-32-05_260595134347_rgbf000034-resize_3/000009_2014-05-26_14-32-05_260595134347_rgbf000034-resize_3-target.png,125,3.8715,9,2695,116,feet,jsons/VE125_randls_0.json,503786,737436,42,Man
48,580746,DepthScenes,duration_manipulation_targetAtFixation,jsons/VE125_randls_0.json,http://54.235.29.9/FacialAge/BNav_EC2/DepthDuration/v2_depth_duration_MTurk/v2_DepthDuration_HTML.html#189,189,1536,746,1536,864,8-29-2022,14-23-51,49,depth_duration_stimuli/001828_2014-06-26_21-40-03_260595134347_rgbf000024-resize_0/001828_2014-06-26_21-40-03_260595134347_rgbf000024-resize_0-target.png,125,4.8260000000000005,11,2142,124,feet,jsons/VE125_randls_0.json,503786,737436,42,Man
49,580746,DepthScenes,duration_manipulation_targetAtFixation,jsons/VE125_randls_0.json,http://54.235.29.9/FacialAge/BNav_EC2/DepthDuration/v2_depth_duration_MTurk/v2_DepthDuration_HTML.html#189,189,1536,746,1536,864,8-29-2022,14-23-51,50,depth_duration_stimuli/000368_2014-06-09_15-53-01_260595134347_rgbf000155-resize_2/000368_2014-06-09_15-53-01_260595134347_rgbf000155-resize_2-target.png,125,2.4859999999999998,5,2363,125,feet,jsons/VE125_randls_0.json,503786,737436,42,Man
50,580746,DepthScenes,duration_manipulation_targetAtFixation,jsons/VE125_randls_0.json,http://54.235.29.9/FacialAge/BNav_EC2/DepthDuration/v2_depth_duration_MTurk/v2_DepthDuration_HTML.html#189,189,1536,746,1536,864,8-29-2022,14-23-51,51,depth_duration_stimuli/002678_2014-06-13_16-15-32_094959634447_rgbf000151-resize_6/002678_2014-06-13_16-15-32_094959634447_rgbf000151-resize_6-target.png,125,2.1830000000000003,5,1985,115,feet,jsons/VE125_randls_0.json,503786,737436,42,Man
51,580746,DepthScenes,duration_manipulation_targetAtFixation,jsons/VE125_randls_0.json,http://54.235.29.9/FacialAge/BNav_EC2/DepthDuration/v2_depth_duration_MTurk/v2_DepthDuration_HTML.html#189,189,1536,746,1536,864,8-29-2022,14-23-51,52,depth_duration_stimuli/002630_2014-06-24_14-47-50_094959634447_rgbf000055-resize_1/002630_2014-06-24_14-47-50_094959634447_rgbf000055-resize_1-target.png,125,3.0095,88,2099,125,feet,jsons/VE125_randls_0.json,503786,737436,42,Man
52,580746,DepthScenes,duration_manipulation_targetAtFixation,jsons/VE125_randls_0.json,http://54.235.29.9/FacialAge/BNav_EC2/DepthDuration/v2_depth_duration_MTurk/v2_DepthDuration_HTML.html#189,189,1536,746,1536,864,8-29-2022,14-23-51,53,depth_duration_stimuli/002758_2014-06-22_19-11-20_094959634447_rgbf000128-resize_1/002758_2014-06-22_19-11-20_094959634447_rgbf000128-resize_1-target.png,125,2.555,4,2083,122,feet,jsons/VE125_randls_0.json,503786,737436,42,Man
53,580746,DepthScenes,duration_manipulation_targetAtFixation,jsons/VE125_randls_0.json,http://54.235.29.9/FacialAge/BNav_EC2/DepthDuration/v2_depth_duration_MTurk/v2_DepthDuration_HTML.html#189,189,1536,746,1536,864,8-29-2022,14-23-51,54,depth_duration_stimuli/002748_2014-06-22_19-07-22_094959634447_rgbf000078-resize_1/002748_2014-06-22_19-07-22_094959634447_rgbf000078-resize_1-target.png,125,4.6705,15,2731,124,feet,jsons/VE125_randls_0.json,503786,737436,42,Man
54,580746,DepthScenes,duration_manipulation_targetAtFixation,jsons/VE125_randls_0.json,http://54.235.29.9/FacialAge/BNav_EC2/DepthDuration/v2_depth_duration_MTurk/v2_DepthDuration_HTML.html#189,189,1536,746,1536,864,8-29-2022,14-23-51,55,depth_duration_stimuli/002995_2014-06-15_12-31-26_094959634447_rgbf000150-resize_1/002995_2014-06-15_12-31-26_094959634447_rgbf000150-resize_1-target.png,125,3.8360000000000003,12,2339,123,feet,jsons/VE125_randls_0.json,503786,737436,42,Man
55,580746,DepthScenes,duration_manipulation_targetAtFixation,jsons/VE125_randls_0.json,http://54.235.29.9/FacialAge/BNav_EC2/DepthDuration/v2_depth_duration_MTurk/v2_DepthDuration_HTML.html#189,189,1536,746,1536,864,8-29-2022,14-23-51,56,depth_duration_stimuli/001808_2014-06-26_20-50-58_260595134347_rgbf000029-resize_1/001808_2014-06-26_20-50-58_260595134347_rgbf000029-resize_1-target.png,125,4.249,12,2191,133,feet,jsons/VE125_randls_0.json,503786,737436,42,Man
56,580746,DepthScenes,duration_manipulation_targetAtFixation,jsons/VE125_randls_0.json,http://54.235.29.9/FacialAge/BNav_EC2/DepthDuration/v2_depth_duration_MTurk/v2_DepthDuration_HTML.html#189,189,1536,746,1536,864,8-29-2022,14-23-51,57,depth_duration_stimuli/001815_2014-06-26_20-52-55_260595134347_rgbf000020-resize_0/001815_2014-06-26_20-52-55_260595134347_rgbf000020-resize_0-target.png,125,3.3865,12,1961,112,feet,jsons/VE125_randls_0.json,503786,737436,42,Man
57,580746,DepthScenes,duration_manipulation_targetAtFixation,jsons/VE125_randls_0.json,http://54.235.29.9/FacialAge/BNav_EC2/DepthDuration/v2_depth_duration_MTurk/v2_DepthDuration_HTML.html#189,189,1536,746,1536,864,8-29-2022,14-23-51,58,depth_duration_stimuli/001164_2014-06-17_15-35-46_260595134347_rgbf000085-resize_3/001164_2014-06-17_15-35-46_260595134347_rgbf000085-resize_3-target.png,125,2.354,6,1943,123,feet,jsons/VE125_randls_0.json,503786,737436,42,Man
58,580746,DepthScenes,duration_manipulation_targetAtFixation,jsons/VE125_randls_0.json,http://54.235.29.9/FacialAge/BNav_EC2/DepthDuration/v2_depth_duration_MTurk/v2_DepthDuration_HTML.html#189,189,1536,746,1536,864,8-29-2022,14-23-51,59,depth_duration_stimuli/001136_2014-06-17_15-19-41_260595134347_rgbf000076-resize_3/001136_2014-06-17_15-19-41_260595134347_rgbf000076-resize_3-target.png,125,1.8655,5,1931,116,feet,jsons/VE125_randls_0.json,503786,737436,42,Man
59,580746,DepthScenes,duration_manipulation_targetAtFixation,jsons/VE125_randls_0.json,http://54.235.29.9/FacialAge/BNav_EC2/DepthDuration/v2_depth_duration_MTurk/v2_DepthDuration_HTML.html#189,189,1536,746,1536,864,8-29-2022,14-23-51,60,depth_duration_stimuli/000506_2014-06-08_23-21-00_260595134347_rgbf000070-resize_7/000506_2014-06-08_23-21-00_260595134347_rgbf000070-resize_7-target.png,125,4.0585,12,2452,127,feet,jsons/VE125_randls_0.json,503786,737436,42,Man
60,580746,DepthScenes,duration_manipulation_targetAtFixation,jsons/VE125_randls_0.json,http://54.235.29.9/FacialAge/BNav_EC2/DepthDuration/v2_depth_duration_MTurk/v2_DepthDuration_HTML.html#189,189,1536,746,1536,864,8-29-2022,14-23-51,61,depth_duration_stimuli/003079_2014-06-15_15-18-20_094959634447_rgbf000152-resize_8/003079_2014-06-15_15-18-20_094959634447_rgbf000152-resize_8-target.png,125,2.8775,8,2774,134,feet,jsons/VE125_randls_0.json,503786,737436,42,Man
61,580746,DepthScenes,duration_manipulation_targetAtFixation,jsons/VE125_randls_0.json,http://54.235.29.9/FacialAge/BNav_EC2/DepthDuration/v2_depth_duration_MTurk/v2_DepthDuration_HTML.html#189,189,1536,746,1536,864,8-29-2022,14-23-51,62,depth_duration_stimuli/000739_2014-06-08_18-45-58_260595134347_rgbf000068-resize_1/000739_2014-06-08_18-45-58_260595134347_rgbf000068-resize_1-target.png,125,3.534,6,2107,115,feet,jsons/VE125_randls_0.json,503786,737436,42,Man
62,580746,DepthScenes,duration_manipulation_targetAtFixation,jsons/VE125_randls_0.json,http://54.235.29.9/FacialAge/BNav_EC2/DepthDuration/v2_depth_duration_MTurk/v2_DepthDuration_HTML.html#189,189,1536,746,1536,864,8-29-2022,14-23-51,63,depth_duration_stimuli/000734_2014-06-08_17-39-11_260595134347_rgbf000128-resize_2/000734_2014-06-08_17-39-11_260595134347_rgbf000128-resize_2-target.png,125,4.098,6,1987,136,feet,jsons/VE125_randls_0.json,503786,737436,42,Man
63,580746,DepthScenes,duration_manipulation_targetAtFixation,jsons/VE125_randls_0.json,http://54.235.29.9/FacialAge/BNav_EC2/DepthDuration/v2_depth_duration_MTurk/v2_DepthDuration_HTML.html#189,189,1536,746,1536,864,8-29-2022,14-23-51,64,depth_duration_stimuli/001555_2014-06-20_17-12-10_260595134347_rgbf000065-resize_4/001555_2014-06-20_17-12-10_260595134347_rgbf000065-resize_4-target.png,125,1.633,3,2092,132,feet,jsons/VE125_randls_0.json,503786,737436,42,Man
64,580746,DepthScenes,duration_manipulation_targetAtFixation,jsons/VE125_randls_0.json,http://54.235.29.9/FacialAge/BNav_EC2/DepthDuration/v2_depth_duration_MTurk/v2_DepthDuration_HTML.html#189,189,1536,746,1536,864,8-29-2022,14-23-51,65,depth_duration_stimuli/000103_2014-05-14_22-01-17_260595134347_rgbf000152-resize_5/000103_2014-05-14_22-01-17_260595134347_rgbf000152-resize_5-target.png,125,1.993,8,2427,111,feet,jsons/VE125_randls_0.json,503786,737436,42,Man
65,580746,DepthScenes,duration_manipulation_targetAtFixation,jsons/VE125_randls_0.json,http://54.235.29.9/FacialAge/BNav_EC2/DepthDuration/v2_depth_duration_MTurk/v2_DepthDuration_HTML.html#189,189,1536,746,1536,864,8-29-2022,14-23-51,66,depth_duration_stimuli/001222_2014-06-17_16-24-06_260595134347_rgbf000073-resize_0/001222_2014-06-17_16-24-06_260595134347_rgbf000073-resize-original.jpg,125,1.4385,0,2520,121,feet,jsons/VE125_randls_0.json,503786,737436,42,Man
66,580746,DepthScenes,duration_manipulation_targetAtFixation,jsons/VE125_randls_0.json,http://54.235.29.9/FacialAge/BNav_EC2/DepthDuration/v2_depth_duration_MTurk/v2_DepthDuration_HTML.html#189,189,1536,746,1536,864,8-29-2022,14-23-51,67,depth_duration_stimuli/000642_2014-06-08_16-59-25_260595134347_rgbf000098-resize_2/000642_2014-06-08_16-59-25_260595134347_rgbf000098-resize_2-target.png,125,2.8815,6,2507,131,feet,jsons/VE125_randls_0.json,503786,737436,42,Man
67,580746,DepthScenes,duration_manipulation_targetAtFixation,jsons/VE125_randls_0.json,http://54.235.29.9/FacialAge/BNav_EC2/DepthDuration/v2_depth_duration_MTurk/v2_DepthDuration_HTML.html#189,189,1536,746,1536,864,8-29-2022,14-23-51,68,depth_duration_stimuli/002425_2014-06-28_20-27-29_260595134347_rgbf000031-resize_8/002425_2014-06-28_20-27-29_260595134347_rgbf000031-resize_8-target.png,125,3.8960000000000004,8,2726,118,feet,jsons/VE125_randls_0.json,503786,737436,42,Man
68,580746,DepthScenes,duration_manipulation_targetAtFixation,jsons/VE125_randls_0.json,http://54.235.29.9/FacialAge/BNav_EC2/DepthDuration/v2_depth_duration_MTurk/v2_DepthDuration_HTML.html#189,189,1536,746,1536,864,8-29-2022,14-23-51,69,depth_duration_stimuli/001570_2014-06-20_17-21-09_260595134347_rgbf000135-resize_4/001570_2014-06-20_17-21-09_260595134347_rgbf000135-resize_4-target.png,125,4.467,8,2264,118,feet,jsons/VE125_randls_0.json,503786,737436,42,Man
69,580746,DepthScenes,duration_manipulation_targetAtFixation,jsons/VE125_randls_0.json,http://54.235.29.9/FacialAge/BNav_EC2/DepthDuration/v2_depth_duration_MTurk/v2_DepthDuration_HTML.html#189,189,1536,746,1536,864,8-29-2022,14-23-51,70,depth_duration_stimuli/001392_2014-06-19_16-07-59_260595134347_rgbf000046-resize_1/001392_2014-06-19_16-07-59_260595134347_rgbf000046-resize_1-target.png,125,4.135,8,2034,129,feet,jsons/VE125_randls_0.json,503786,737436,42,Man
70,580746,DepthScenes,duration_manipulation_targetAtFixation,jsons/VE125_randls_0.json,http://54.235.29.9/FacialAge/BNav_EC2/DepthDuration/v2_depth_duration_MTurk/v2_DepthDuration_HTML.html#189,189,1536,746,1536,864,8-29-2022,14-23-51,71,depth_duration_stimuli/002153_2014-06-25_21-27-18_260595134347_rgbf000038-resize_5/002153_2014-06-25_21-27-18_260595134347_rgbf000038-resize_5-target.png,125,2.505,3,2164,116,feet,jsons/VE125_randls_0.json,503786,737436,42,Man
71,580746,DepthScenes,duration_manipulation_targetAtFixation,jsons/VE125_randls_0.json,http://54.235.29.9/FacialAge/BNav_EC2/DepthDuration/v2_depth_duration_MTurk/v2_DepthDuration_HTML.html#189,189,1536,746,1536,864,8-29-2022,14-23-51,72,depth_duration_stimuli/002660_2014-06-13_15-44-18_094959634447_rgbf001878-resize_2/002660_2014-06-13_15-44-18_094959634447_rgbf001878-resize_2-target.png,125,3.576,6,1921,121,feet,jsons/VE125_randls_0.json,503786,737436,42,Man
72,580746,DepthScenes,duration_manipulation_targetAtFixation,jsons/VE125_randls_0.json,http://54.235.29.9/FacialAge/BNav_EC2/DepthDuration/v2_depth_duration_MTurk/v2_DepthDuration_HTML.html#189,189,1536,746,1536,864,8-29-2022,14-23-51,73,depth_duration_stimuli/000929_2014-06-09_16-33-19_260595134347_rgbf000139-resize_0/000929_2014-06-09_16-33-19_260595134347_rgbf000139-resize_0-target.png,125,2.8680000000000003,4,2305,132,feet,jsons/VE125_randls_0.json,503786,737436,42,Man
73,580746,DepthScenes,duration_manipulation_targetAtFixation,jsons/VE125_randls_0.json,http://54.235.29.9/FacialAge/BNav_EC2/DepthDuration/v2_depth_duration_MTurk/v2_DepthDuration_HTML.html#189,189,1536,746,1536,864,8-29-2022,14-23-51,74,depth_duration_stimuli/000457_2014-06-08_16-52-43_260595134347_rgbf000199-resize_1/000457_2014-06-08_16-52-43_260595134347_rgbf000199-resize_1-target.png,125,3.6489999999999996,9,2903,125,feet,jsons/VE125_randls_0.json,503786,737436,42,Man
74,580746,DepthScenes,duration_manipulation_targetAtFixation,jsons/VE125_randls_0.json,http://54.235.29.9/FacialAge/BNav_EC2/DepthDuration/v2_depth_duration_MTurk/v2_DepthDuration_HTML.html#189,189,1536,746,1536,864,8-29-2022,14-23-51,75,depth_duration_stimuli/000447_2014-06-08_16-15-46_260595134347_rgbf000130-resize_1/000447_2014-06-08_16-15-46_260595134347_rgbf000130-resize_1-target.png,125,4.479,11,2805,125,feet,jsons/VE125_randls_0.json,503786,737436,42,Man
75,580746,DepthScenes,duration_manipulation_targetAtFixation,jsons/VE125_randls_0.json,http://54.235.29.9/FacialAge/BNav_EC2/DepthDuration/v2_depth_duration_MTurk/v2_DepthDuration_HTML.html#189,189,1536,746,1536,864,8-29-2022,14-23-51,76,depth_duration_stimuli/001447_2014-06-19_17-00-32_260595134347_rgbf000082-resize_5/001447_2014-06-19_17-00-32_260595134347_rgbf000082-resize_5-target.png,125,4.13775,6,2101,128,feet,jsons/VE125_randls_0.json,503786,737436,42,Man
76,580746,DepthScenes,duration_manipulation_targetAtFixation,jsons/VE125_randls_0.json,http://54.235.29.9/FacialAge/BNav_EC2/DepthDuration/v2_depth_duration_MTurk/v2_DepthDuration_HTML.html#189,189,1536,746,1536,864,8-29-2022,14-23-51,77,depth_duration_stimuli/002445_2014-06-28_20-32-16_260595134347_rgbf000029-resize_4/002445_2014-06-28_20-32-16_260595134347_rgbf000029-resize_4-target.png,125,2.5315,3,1959,126,feet,jsons/VE125_randls_0.json,503786,737436,42,Man
77,580746,DepthScenes,duration_manipulation_targetAtFixation,jsons/VE125_randls_0.json,http://54.235.29.9/FacialAge/BNav_EC2/DepthDuration/v2_depth_duration_MTurk/v2_DepthDuration_HTML.html#189,189,1536,746,1536,864,8-29-2022,14-23-51,78,depth_duration_stimuli/000780_2014-06-08_22-28-29_260595134347_rgbf000126-resize_1/000780_2014-06-08_22-28-29_260595134347_rgbf000126-resize_1-target.png,125,3.3825,7,2475,118,feet,jsons/VE125_randls_0.json,503786,737436,42,Man
78,580746,DepthScenes,duration_manipulation_targetAtFixation,jsons/VE125_randls_0.json,http://54.235.29.9/FacialAge/BNav_EC2/DepthDuration/v2_depth_duration_MTurk/v2_DepthDuration_HTML.html#189,189,1536,746,1536,864,8-29-2022,14-23-51,79,depth_duration_stimuli/002549_2014-06-24_13-41-39_094959634447_rgbf000022-resize_3/002549_2014-06-24_13-41-39_094959634447_rgbf000022-resize_3-target.png,125,1.476,3,1945,118,feet,jsons/VE125_randls_0.json,503786,737436,42,Man
79,580746,DepthScenes,duration_manipulation_targetAtFixation,jsons/VE125_randls_0.json,http://54.235.29.9/FacialAge/BNav_EC2/DepthDuration/v2_depth_duration_MTurk/v2_DepthDuration_HTML.html#189,189,1536,746,1536,864,8-29-2022,14-23-51,80,depth_duration_stimuli/002750_2014-06-22_19-08-03_094959634447_rgbf000094-resize_4/002750_2014-06-22_19-08-03_094959634447_rgbf000094-resize_4-target.png,125,2.354,7,2529,123,feet,jsons/VE125_randls_0.json,503786,737436,42,Man
80,580746,DepthScenes,duration_manipulation_targetAtFixation,jsons/VE125_randls_0.json,http://54.235.29.9/FacialAge/BNav_EC2/DepthDuration/v2_depth_duration_MTurk/v2_DepthDuration_HTML.html#189,189,1536,746,1536,864,8-29-2022,14-23-51,81,depth_duration_stimuli/002988_2014-06-15_12-24-20_094959634447_rgbf000150-resize_1/002988_2014-06-15_12-24-20_094959634447_rgbf000150-resize_1-target.png,125,4.7669999999999995,9,2055,132,feet,jsons/VE125_randls_0.json,503786,737436,42,Man
81,580746,DepthScenes,duration_manipulation_targetAtFixation,jsons/VE125_randls_0.json,http://54.235.29.9/FacialAge/BNav_EC2/DepthDuration/v2_depth_duration_MTurk/v2_DepthDuration_HTML.html#189,189,1536,746,1536,864,8-29-2022,14-23-51,82,depth_duration_stimuli/001052_2014-06-08_18-24-54_260595134347_rgbf000130-resize_1/001052_2014-06-08_18-24-54_260595134347_rgbf000130-resize_1-target.png,125,4.1045,9,1851,126,feet,jsons/VE125_randls_0.json,503786,737436,42,Man
82,580746,DepthScenes,duration_manipulation_targetAtFixation,jsons/VE125_randls_0.json,http://54.235.29.9/FacialAge/BNav_EC2/DepthDuration/v2_depth_duration_MTurk/v2_DepthDuration_HTML.html#189,189,1536,746,1536,864,8-29-2022,14-23-51,83,depth_duration_stimuli/002725_2014-06-22_11-47-51_094959634447_rgbf000070-resize_1/002725_2014-06-22_11-47-51_094959634447_rgbf000070-resize_1-target.png,125,2.195,9,1853,131,feet,jsons/VE125_randls_0.json,503786,737436,42,Man
83,580746,DepthScenes,duration_manipulation_targetAtFixation,jsons/VE125_randls_0.json,http://54.235.29.9/FacialAge/BNav_EC2/DepthDuration/v2_depth_duration_MTurk/v2_DepthDuration_HTML.html#189,189,1536,746,1536,864,8-29-2022,14-23-51,84,depth_duration_stimuli/002344_2014-06-28_20-06-29_260595134347_rgbf000030-resize_1/002344_2014-06-28_20-06-29_260595134347_rgbf000030-resize_1-target.png,125,1.5795,3,1914,123,feet,jsons/VE125_randls_0.json,503786,737436,42,Man
84,580746,DepthScenes,duration_manipulation_targetAtFixation,jsons/VE125_randls_0.json,http://54.235.29.9/FacialAge/BNav_EC2/DepthDuration/v2_depth_duration_MTurk/v2_DepthDuration_HTML.html#189,189,1536,746,1536,864,8-29-2022,14-23-51,85,depth_duration_stimuli/002989_2014-06-15_12-25-03_094959634447_rgbf000150-resize_3/002989_2014-06-15_12-25-03_094959634447_rgbf000150-resize_3-target.png,125,4.1975,9,2016,136,feet,jsons/VE125_randls_0.json,503786,737436,42,Man
85,580746,DepthScenes,duration_manipulation_targetAtFixation,jsons/VE125_randls_0.json,http://54.235.29.9/FacialAge/BNav_EC2/DepthDuration/v2_depth_duration_MTurk/v2_DepthDuration_HTML.html#189,189,1536,746,1536,864,8-29-2022,14-23-51,86,depth_duration_stimuli/000866_2014-06-09_20-45-42_260595134347_rgbf000139-resize_1/000866_2014-06-09_20-45-42_260595134347_rgbf000139-resize_1-target.png,125,3.2155,6,1900,122,feet,jsons/VE125_randls_0.json,503786,737436,42,Man
86,580746,DepthScenes,duration_manipulation_targetAtFixation,jsons/VE125_randls_0.json,http://54.235.29.9/FacialAge/BNav_EC2/DepthDuration/v2_depth_duration_MTurk/v2_DepthDuration_HTML.html#189,189,1536,746,1536,864,8-29-2022,14-23-51,87,depth_duration_stimuli/003621_2014-05-23_18-06-08_094959634447_rgbf000101-resize_1/003621_2014-05-23_18-06-08_094959634447_rgbf000101-resize_1-target.png,125,3.9835,10,3405,134,feet,jsons/VE125_randls_0.json,503786,737436,42,Man
87,580746,DepthScenes,duration_manipulation_targetAtFixation,jsons/VE125_randls_0.json,http://54.235.29.9/FacialAge/BNav_EC2/DepthDuration/v2_depth_duration_MTurk/v2_DepthDuration_HTML.html#189,189,1536,746,1536,864,8-29-2022,14-23-51,88,depth_duration_stimuli/001584_2014-06-20_11-07-43_260595134347_rgbf000002-resize_1/001584_2014-06-20_11-07-43_260595134347_rgbf000002-resize_1-target.png,125,3.53,6,3104,126,feet,jsons/VE125_randls_0.json,503786,737436,42,Man
88,580746,DepthScenes,duration_manipulation_targetAtFixation,jsons/VE125_randls_0.json,http://54.235.29.9/FacialAge/BNav_EC2/DepthDuration/v2_depth_duration_MTurk/v2_DepthDuration_HTML.html#189,189,1536,746,1536,864,8-29-2022,14-23-51,89,depth_duration_stimuli/000906_2014-06-08_13-35-43_260595134347_rgbf000155-resize_1/000906_2014-06-08_13-35-43_260595134347_rgbf000155-resize_1-target.png,125,2.8489999999999998,6,2117,137,feet,jsons/VE125_randls_0.json,503786,737436,42,Man
89,580746,DepthScenes,duration_manipulation_targetAtFixation,jsons/VE125_randls_0.json,http://54.235.29.9/FacialAge/BNav_EC2/DepthDuration/v2_depth_duration_MTurk/v2_DepthDuration_HTML.html#189,189,1536,746,1536,864,8-29-2022,14-23-51,90,depth_duration_stimuli/002805_2014-06-22_19-54-03_094959634447_rgbf000079-resize_1/002805_2014-06-22_19-54-03_094959634447_rgbf000079-resize_1-target.png,125,3.1439999999999997,8,2300,132,feet,jsons/VE125_randls_0.json,503786,737436,42,Man
90,580746,DepthScenes,duration_manipulation_targetAtFixation,jsons/VE125_randls_0.json,http://54.235.29.9/FacialAge/BNav_EC2/DepthDuration/v2_depth_duration_MTurk/v2_DepthDuration_HTML.html#189,189,1536,746,1536,864,8-29-2022,14-23-51,91,depth_duration_stimuli/001810_2014-06-26_20-51-35_260595134347_rgbf000040-resize_3/001810_2014-06-26_20-51-35_260595134347_rgbf000040-resize_3-target.png,125,2.2525,4,4161,123,feet,jsons/VE125_randls_0.json,503786,737436,42,Man
91,580746,DepthScenes,duration_manipulation_targetAtFixation,jsons/VE125_randls_0.json,http://54.235.29.9/FacialAge/BNav_EC2/DepthDuration/v2_depth_duration_MTurk/v2_DepthDuration_HTML.html#189,189,1536,746,1536,864,8-29-2022,14-23-51,92,depth_duration_stimuli/003010_2014-06-15_12-54-35_094959634447_rgbf000112-resize_0/003010_2014-06-15_12-54-35_094959634447_rgbf000112-resize_0-target.png,125,3.1185,7,3411,112,feet,jsons/VE125_randls_0.json,503786,737436,42,Man
92,580746,DepthScenes,duration_manipulation_targetAtFixation,jsons/VE125_randls_0.json,http://54.235.29.9/FacialAge/BNav_EC2/DepthDuration/v2_depth_duration_MTurk/v2_DepthDuration_HTML.html#189,189,1536,746,1536,864,8-29-2022,14-23-51,93,depth_duration_stimuli/000692_2014-06-08_13-09-42_260595134347_rgbf000199-resize_2/000692_2014-06-08_13-09-42_260595134347_rgbf000199-resize_2-target.png,125,3.661,15,3508,121,feet,jsons/VE125_randls_0.json,503786,737436,42,Man
93,580746,DepthScenes,duration_manipulation_targetAtFixation,jsons/VE125_randls_0.json,http://54.235.29.9/FacialAge/BNav_EC2/DepthDuration/v2_depth_duration_MTurk/v2_DepthDuration_HTML.html#189,189,1536,746,1536,864,8-29-2022,14-23-51,94,depth_duration_stimuli/001094_2014-06-15_17-36-00_260595134347_rgbf000205-resize_0/001094_2014-06-15_17-36-00_260595134347_rgbf000205-resize_0-target.png,125,4.2175,13,3003,124,feet,jsons/VE125_randls_0.json,503786,737436,42,Man
94,580746,DepthScenes,duration_manipulation_targetAtFixation,jsons/VE125_randls_0.json,http://54.235.29.9/FacialAge/BNav_EC2/DepthDuration/v2_depth_duration_MTurk/v2_DepthDuration_HTML.html#189,189,1536,746,1536,864,8-29-2022,14-23-51,95,depth_duration_stimuli/002279_2014-06-28_18-55-32_260595134347_rgbf000040-resize_5/002279_2014-06-28_18-55-32_260595134347_rgbf000040-resize_5-target.png,125,1.5043333333333,4,2010,132,feet,jsons/VE125_randls_0.json,503786,737436,42,Man
95,580746,DepthScenes,duration_manipulation_targetAtFixation,jsons/VE125_randls_0.json,http://54.235.29.9/FacialAge/BNav_EC2/DepthDuration/v2_depth_duration_MTurk/v2_DepthDuration_HTML.html#189,189,1536,746,1536,864,8-29-2022,14-23-51,96,depth_duration_stimuli/000635_2014-06-08_16-38-42_260595134347_rgbf000106-resize_1/000635_2014-06-08_16-38-42_260595134347_rgbf000106-resize_1-target.png,125,2.074,8,2297,122,feet,jsons/VE125_randls_0.json,503786,737436,42,Man
96,580746,DepthScenes,duration_manipulation_targetAtFixation,jsons/VE125_randls_0.json,http://54.235.29.9/FacialAge/BNav_EC2/DepthDuration/v2_depth_duration_MTurk/v2_DepthDuration_HTML.html#189,189,1536,746,1536,864,8-29-2022,14-23-51,97,depth_duration_stimuli/001059_2014-06-08_21-53-27_260595134347_rgbf000061-resize_4/001059_2014-06-08_21-53-27_260595134347_rgbf000061-resize_4-target.png,125,2.4185,6,2293,124,feet,jsons/VE125_randls_0.json,503786,737436,42,Man
97,580746,DepthScenes,duration_manipulation_targetAtFixation,jsons/VE125_randls_0.json,http://54.235.29.9/FacialAge/BNav_EC2/DepthDuration/v2_depth_duration_MTurk/v2_DepthDuration_HTML.html#189,189,1536,746,1536,864,8-29-2022,14-23-51,98,depth_duration_stimuli/001032_2014-06-08_13-23-17_260595134347_rgbf000021-resize_3/001032_2014-06-08_13-23-17_260595134347_rgbf000021-resize_3-target.png,125,3.2725,6,2184,125,feet,jsons/VE125_randls_0.json,503786,737436,42,Man
98,580746,DepthScenes,duration_manipulation_targetAtFixation,jsons/VE125_randls_0.json,http://54.235.29.9/FacialAge/BNav_EC2/DepthDuration/v2_depth_duration_MTurk/v2_DepthDuration_HTML.html#189,189,1536,746,1536,864,8-29-2022,14-23-51,99,depth_duration_stimuli/001540_2014-06-20_17-01-05_260595134347_rgbf000086-resize_2/001540_2014-06-20_17-01-05_260595134347_rgbf000086-resize-original.jpg,125,1.459,0,2461,124,feet,jsons/VE125_randls_0.json,503786,737436,42,Man
99,580746,DepthScenes,duration_manipulation_targetAtFixation,jsons/VE125_randls_0.json,http://54.235.29.9/FacialAge/BNav_EC2/DepthDuration/v2_depth_duration_MTurk/v2_DepthDuration_HTML.html#189,189,1536,746,1536,864,8-29-2022,14-23-51,100,depth_duration_stimuli/001244_2014-06-17_16-47-45_260595134347_rgbf000030-resize_4/001244_2014-06-17_16-47-45_260595134347_rgbf000030-resize_4-target.png,125,2.0425,6,2029,131,feet,jsons/VE125_randls_0.json,503786,737436,42,Man
100,580746,DepthScenes,duration_manipulation_targetAtFixation,jsons/VE125_randls_0.json,http://54.235.29.9/FacialAge/BNav_EC2/DepthDuration/v2_depth_duration_MTurk/v2_DepthDuration_HTML.html#189,189,1536,746,1536,864,8-29-2022,14-23-51,101,depth_duration_stimuli/003495_2014-05-21_16-01-51_094959634447_rgbf000100-resize_3/003495_2014-05-21_16-01-51_094959634447_rgbf000100-resize_3-target.png,125,1.6255,4,2110,133,feet,jsons/VE125_randls_0.json,503786,737436,42,Man
101,580746,DepthScenes,duration_manipulation_targetAtFixation,jsons/VE125_randls_0.json,http://54.235.29.9/FacialAge/BNav_EC2/DepthDuration/v2_depth_duration_MTurk/v2_DepthDuration_HTML.html#189,189,1536,746,1536,864,8-29-2022,14-23-51,102,depth_duration_stimuli/002213_2014-06-28_18-37-58_260595134347_rgbf000055-resize_1/002213_2014-06-28_18-37-58_260595134347_rgbf000055-resize_1-target.png,125,3.62,0,2560,131,feet,jsons/VE125_randls_0.json,503786,737436,42,Man
102,580746,DepthScenes,duration_manipulation_targetAtFixation,jsons/VE125_randls_0.json,http://54.235.29.9/FacialAge/BNav_EC2/DepthDuration/v2_depth_duration_MTurk/v2_DepthDuration_HTML.html#189,189,1536,746,1536,864,8-29-2022,14-23-51,103,depth_duration_stimuli/000691_2014-06-08_13-08-50_260595134347_rgbf000132-resize_3/000691_2014-06-08_13-08-50_260595134347_rgbf000132-resize_3-target.png,125,4.1530000000000005,5,7598,135,feet,jsons/VE125_randls_0.json,503786,737436,42,Man
103,580746,DepthScenes,duration_manipulation_targetAtFixation,jsons/VE125_randls_0.json,http://54.235.29.9/FacialAge/BNav_EC2/DepthDuration/v2_depth_duration_MTurk/v2_DepthDuration_HTML.html#189,189,1536,746,1536,864,8-29-2022,14-23-51,104,depth_duration_stimuli/002118_2014-06-25_20-32-08_260595134347_rgbf000078-resize_1/002118_2014-06-25_20-32-08_260595134347_rgbf000078-resize_1-target.png,125,2.6460000000000004,6,2198,136,feet,jsons/VE125_randls_0.json,503786,737436,42,Man
104,580746,DepthScenes,duration_manipulation_targetAtFixation,jsons/VE125_randls_0.json,http://54.235.29.9/FacialAge/BNav_EC2/DepthDuration/v2_depth_duration_MTurk/v2_DepthDuration_HTML.html#189,189,1536,746,1536,864,8-29-2022,14-23-51,105,depth_duration_stimuli/001516_2014-06-20_16-25-09_260595134347_rgbf000076-resize_2/001516_2014-06-20_16-25-09_260595134347_rgbf000076-resize_2-target.png,125,1.7445,3,1973,131,feet,jsons/VE125_randls_0.json,503786,737436,42,Man
105,580746,DepthScenes,duration_manipulation_targetAtFixation,jsons/VE125_randls_0.json,http://54.235.29.9/FacialAge/BNav_EC2/DepthDuration/v2_depth_duration_MTurk/v2_DepthDuration_HTML.html#189,189,1536,746,1536,864,8-29-2022,14-23-51,106,depth_duration_stimuli/000469_2014-06-09_19-42-10_260595134347_rgbf000081-resize_1/000469_2014-06-09_19-42-10_260595134347_rgbf000081-resize_1-target.png,125,1.652,3,1498,111,feet,jsons/VE125_randls_0.json,503786,737436,42,Man
106,580746,DepthScenes,duration_manipulation_targetAtFixation,jsons/VE125_randls_0.json,http://54.235.29.9/FacialAge/BNav_EC2/DepthDuration/v2_depth_duration_MTurk/v2_DepthDuration_HTML.html#189,189,1536,746,1536,864,8-29-2022,14-23-51,107,depth_duration_stimuli/000483_2014-06-09_20-41-45_260595134347_rgbf000116-resize_4/000483_2014-06-09_20-41-45_260595134347_rgbf000116-resize_4-target.png,125,1.337,3,1666,112,feet,jsons/VE125_randls_0.json,503786,737436,42,Man
107,580746,DepthScenes,duration_manipulation_targetAtFixation,jsons/VE125_randls_0.json,http://54.235.29.9/FacialAge/BNav_EC2/DepthDuration/v2_depth_duration_MTurk/v2_DepthDuration_HTML.html#189,189,1536,746,1536,864,8-29-2022,14-23-51,108,depth_duration_stimuli/002057_2014-06-24_21-00-13_260595134347_rgbf000120-resize_1/002057_2014-06-24_21-00-13_260595134347_rgbf000120-resize_1-target.png,125,2.967,12,2359,123,feet,jsons/VE125_randls_0.json,503786,737436,42,Man
108,580746,DepthScenes,duration_manipulation_targetAtFixation,jsons/VE125_randls_0.json,http://54.235.29.9/FacialAge/BNav_EC2/DepthDuration/v2_depth_duration_MTurk/v2_DepthDuration_HTML.html#189,189,1536,746,1536,864,8-29-2022,14-23-51,109,depth_duration_stimuli/000709_2014-06-08_13-51-55_260595134347_rgbf000068-resize_3/000709_2014-06-08_13-51-55_260595134347_rgbf000068-resize_3-target.png,125,1.8030000000000002,7,2759,117,feet,jsons/VE125_randls_0.json,503786,737436,42,Man
109,580746,DepthScenes,duration_manipulation_targetAtFixation,jsons/VE125_randls_0.json,http://54.235.29.9/FacialAge/BNav_EC2/DepthDuration/v2_depth_duration_MTurk/v2_DepthDuration_HTML.html#189,189,1536,746,1536,864,8-29-2022,14-23-51,110,depth_duration_stimuli/002600_2014-06-24_14-27-04_094959634447_rgbf000074-resize_2/002600_2014-06-24_14-27-04_094959634447_rgbf000074-resize_2-target.png,125,2.7575,8,3294,130,feet,jsons/VE125_randls_0.json,503786,737436,42,Man
110,580746,DepthScenes,duration_manipulation_targetAtFixation,jsons/VE125_randls_0.json,http://54.235.29.9/FacialAge/BNav_EC2/DepthDuration/v2_depth_duration_MTurk/v2_DepthDuration_HTML.html#189,189,1536,746,1536,864,8-29-2022,14-23-51,111,depth_duration_stimuli/003228_2014-05-14_13-42-35_094959634447_rgbf000101-resize_1/003228_2014-05-14_13-42-35_094959634447_rgbf000101-resize_1-target.png,125,1.9680000000000002,3,2286,127,feet,jsons/VE125_randls_0.json,503786,737436,42,Man
111,580746,DepthScenes,duration_manipulation_targetAtFixation,jsons/VE125_randls_0.json,http://54.235.29.9/FacialAge/BNav_EC2/DepthDuration/v2_depth_duration_MTurk/v2_DepthDuration_HTML.html#189,189,1536,746,1536,864,8-29-2022,14-23-51,112,depth_duration_stimuli/000414_2014-06-04_19-49-13_260595134347_rgbf000044-resize_0/000414_2014-06-04_19-49-13_260595134347_rgbf000044-resize_0-target.png,125,4.329,7,2103,123,feet,jsons/VE125_randls_0.json,503786,737436,42,Man
112,580746,DepthScenes,duration_manipulation_targetAtFixation,jsons/VE125_randls_0.json,http://54.235.29.9/FacialAge/BNav_EC2/DepthDuration/v2_depth_duration_MTurk/v2_DepthDuration_HTML.html#189,189,1536,746,1536,864,8-29-2022,14-23-51,113,depth_duration_stimuli/003129_2014-05-12_10-48-10_094959634447_rgbf000100-resize_0/003129_2014-05-12_10-48-10_094959634447_rgbf000100-resize_0-target.png,125,4.9305,8,2800,118,feet,jsons/VE125_randls_0.json,503786,737436,42,Man
113,580746,DepthScenes,duration_manipulation_targetAtFixation,jsons/VE125_randls_0.json,http://54.235.29.9/FacialAge/BNav_EC2/DepthDuration/v2_depth_duration_MTurk/v2_DepthDuration_HTML.html#189,189,1536,746,1536,864,8-29-2022,14-23-51,114,depth_duration_stimuli/002043_2014-06-24_20-29-38_260595134347_rgbf000039-resize_4/002043_2014-06-24_20-29-38_260595134347_rgbf000039-resize_4-target.png,125,2.8435,5,2241,116,feet,jsons/VE125_randls_0.json,503786,737436,42,Man
114,580746,DepthScenes,duration_manipulation_targetAtFixation,jsons/VE125_randls_0.json,http://54.235.29.9/FacialAge/BNav_EC2/DepthDuration/v2_depth_duration_MTurk/v2_DepthDuration_HTML.html#189,189,1536,746,1536,864,8-29-2022,14-23-51,115,depth_duration_stimuli/003048_2014-06-15_13-49-43_094959634447_rgbf000150-resize_1/003048_2014-06-15_13-49-43_094959634447_rgbf000150-resize_1-target.png,125,4.0035,9,2324,131,feet,jsons/VE125_randls_0.json,503786,737436,42,Man
115,580746,DepthScenes,duration_manipulation_targetAtFixation,jsons/VE125_randls_0.json,http://54.235.29.9/FacialAge/BNav_EC2/DepthDuration/v2_depth_duration_MTurk/v2_DepthDuration_HTML.html#189,189,1536,746,1536,864,8-29-2022,14-23-51,116,depth_duration_stimuli/001170_2014-06-17_15-43-44_260595134347_rgbf000096-resize_6/001170_2014-06-17_15-43-44_260595134347_rgbf000096-resize-original.jpg,125,1.1909999999999998,0,2079,139,feet,jsons/VE125_randls_0.json,503786,737436,42,Man
116,580746,DepthScenes,duration_manipulation_targetAtFixation,jsons/VE125_randls_0.json,http://54.235.29.9/FacialAge/BNav_EC2/DepthDuration/v2_depth_duration_MTurk/v2_DepthDuration_HTML.html#189,189,1536,746,1536,864,8-29-2022,14-23-51,117,depth_duration_stimuli/002905_2014-06-03_18-04-43_094959634447_rgbf000151-resize_2/002905_2014-06-03_18-04-43_094959634447_rgbf000151-resize_2-target.png,125,2.0295,5,3186,119,feet,jsons/VE125_randls_0.json,503786,737436,42,Man
117,580746,DepthScenes,duration_manipulation_targetAtFixation,jsons/VE125_randls_0.json,http://54.235.29.9/FacialAge/BNav_EC2/DepthDuration/v2_depth_duration_MTurk/v2_DepthDuration_HTML.html#189,189,1536,746,1536,864,8-29-2022,14-23-51,118,depth_duration_stimuli/003423_2014-05-21_10-23-26_094959634447_rgbf002665-resize_2/003423_2014-05-21_10-23-26_094959634447_rgbf002665-resize_2-target.png,125,3.2575,15,3008,124,feet,jsons/VE125_randls_0.json,503786,737436,42,Man
118,580746,DepthScenes,duration_manipulation_targetAtFixation,jsons/VE125_randls_0.json,http://54.235.29.9/FacialAge/BNav_EC2/DepthDuration/v2_depth_duration_MTurk/v2_DepthDuration_HTML.html#189,189,1536,746,1536,864,8-29-2022,14-23-51,119,depth_duration_stimuli/003292_2014-05-14_21-53-49_094959634447_rgbf000100-resize_2/003292_2014-05-14_21-53-49_094959634447_rgbf000100-resize_2-target.png,125,3.4815,8,2571,120,feet,jsons/VE125_randls_0.json,503786,737436,42,Man
119,580746,DepthScenes,duration_manipulation_targetAtFixation,jsons/VE125_randls_0.json,http://54.235.29.9/FacialAge/BNav_EC2/DepthDuration/v2_depth_duration_MTurk/v2_DepthDuration_HTML.html#189,189,1536,746,1536,864,8-29-2022,14-23-51,120,depth_duration_stimuli/002639_2014-06-24_14-51-37_094959634447_rgbf000074-resize_4/002639_2014-06-24_14-51-37_094959634447_rgbf000074-resize_4-target.png,125,4.0375,9,2157,124,feet,jsons/VE125_randls_0.json,503786,737436,42,Man
120,580746,DepthScenes,duration_manipulation_targetAtFixation,jsons/VE125_randls_0.json,http://54.235.29.9/FacialAge/BNav_EC2/DepthDuration/v2_depth_duration_MTurk/v2_DepthDuration_HTML.html#189,189,1536,746,1536,864,8-29-2022,14-23-51,121,depth_duration_stimuli/000788_2014-06-08_22-34-36_260595134347_rgbf000131-resize_1/000788_2014-06-08_22-34-36_260595134347_rgbf000131-resize_1-target.png,125,3.359,7,2392,128,feet,jsons/VE125_randls_0.json,503786,737436,42,Man
121,580746,DepthScenes,duration_manipulation_targetAtFixation,jsons/VE125_randls_0.json,http://54.235.29.9/FacialAge/BNav_EC2/DepthDuration/v2_depth_duration_MTurk/v2_DepthDuration_HTML.html#189,189,1536,746,1536,864,8-29-2022,14-23-51,122,depth_duration_stimuli/001235_2014-06-17_16-37-36_260595134347_rgbf000084-resize_4/001235_2014-06-17_16-37-36_260595134347_rgbf000084-resize_4-target.png,125,3.6605,6,2400,124,feet,jsons/VE125_randls_0.json,503786,737436,42,Man
122,580746,DepthScenes,duration_manipulation_targetAtFixation,jsons/VE125_randls_0.json,http://54.235.29.9/FacialAge/BNav_EC2/DepthDuration/v2_depth_duration_MTurk/v2_DepthDuration_HTML.html#189,189,1536,746,1536,864,8-29-2022,14-23-51,123,depth_duration_stimuli/002784_2014-06-22_19-26-30_094959634447_rgbf000083-resize_3/002784_2014-06-22_19-26-30_094959634447_rgbf000083-resize_3-target.png,125,1.8046666666667,3,2455,133,feet,jsons/VE125_randls_0.json,503786,737436,42,Man
123,580746,DepthScenes,duration_manipulation_targetAtFixation,jsons/VE125_randls_0.json,http://54.235.29.9/FacialAge/BNav_EC2/DepthDuration/v2_depth_duration_MTurk/v2_DepthDuration_HTML.html#189,189,1536,746,1536,864,8-29-2022,14-23-51,124,depth_duration_stimuli/001100_2014-06-15_17-46-26_260595134347_rgbf000225-resize_2/001100_2014-06-15_17-46-26_260595134347_rgbf000225-resize_2-target.png,125,2.24,3,2076,117,feet,jsons/VE125_randls_0.json,503786,737436,42,Man
124,580746,DepthScenes,duration_manipulation_targetAtFixation,jsons/VE125_randls_0.json,http://54.235.29.9/FacialAge/BNav_EC2/DepthDuration/v2_depth_duration_MTurk/v2_DepthDuration_HTML.html#189,189,1536,746,1536,864,8-29-2022,14-23-51,125,depth_duration_stimuli/001016_2014-06-09_16-16-10_260595134347_rgbf000112-resize_5/001016_2014-06-09_16-16-10_260595134347_rgbf000112-resize_5-target.png,125,1.6565,5,2660,130,feet,jsons/VE125_randls_0.json,503786,737436,42,Man
125,580746,DepthScenes,duration_manipulation_targetAtFixation,jsons/VE125_randls_0.json,http://54.235.29.9/FacialAge/BNav_EC2/DepthDuration/v2_depth_duration_MTurk/v2_DepthDuration_HTML.html#189,189,1536,746,1536,864,8-29-2022,14-23-51,126,depth_duration_stimuli/002340_2014-06-28_20-05-46_260595134347_rgbf000113-resize_0/002340_2014-06-28_20-05-46_260595134347_rgbf000113-resize_0-target.png,125,2.4735,10,3807,128,feet,jsons/VE125_randls_0.json,503786,737436,42,Man
126,580746,DepthScenes,duration_manipulation_targetAtFixation,jsons/VE125_randls_0.json,http://54.235.29.9/FacialAge/BNav_EC2/DepthDuration/v2_depth_duration_MTurk/v2_DepthDuration_HTML.html#189,189,1536,746,1536,864,8-29-2022,14-23-51,127,depth_duration_stimuli/000522_2014-06-08_13-35-06_260595134347_rgbf000244-resize_1/000522_2014-06-08_13-35-06_260595134347_rgbf000244-resize_1-target.png,125,2.3715,2,3719,134,feet,jsons/VE125_randls_0.json,503786,737436,42,Man
127,580746,DepthScenes,duration_manipulation_targetAtFixation,jsons/VE125_randls_0.json,http://54.235.29.9/FacialAge/BNav_EC2/DepthDuration/v2_depth_duration_MTurk/v2_DepthDuration_HTML.html#189,189,1536,746,1536,864,8-29-2022,14-23-51,128,depth_duration_stimuli/002949_2014-06-26_15-57-42_094959634447_rgbf000079-resize_1/002949_2014-06-26_15-57-42_094959634447_rgbf000079-resize_1-target.png,125,1.8915,4,2058,129,feet,jsons/VE125_randls_0.json,503786,737436,42,Man
128,580746,DepthScenes,duration_manipulation_targetAtFixation,jsons/VE125_randls_0.json,http://54.235.29.9/FacialAge/BNav_EC2/DepthDuration/v2_depth_duration_MTurk/v2_DepthDuration_HTML.html#189,189,1536,746,1536,864,8-29-2022,14-23-51,129,depth_duration_stimuli/001175_2014-06-17_15-45-55_260595134347_rgbf000129-resize_4/001175_2014-06-17_15-45-55_260595134347_rgbf000129-resize_4-target.png,125,4.255,16,3623,130,feet,jsons/VE125_randls_0.json,503786,737436,42,Man
129,580746,DepthScenes,duration_manipulation_targetAtFixation,jsons/VE125_randls_0.json,http://54.235.29.9/FacialAge/BNav_EC2/DepthDuration/v2_depth_duration_MTurk/v2_DepthDuration_HTML.html#189,189,1536,746,1536,864,8-29-2022,14-23-51,130,depth_duration_stimuli/003490_2014-05-21_15-50-11_094959634447_rgbf000101-resize_3/003490_2014-05-21_15-50-11_094959634447_rgbf000101-resize_3-target.png,125,3.6445,11,2766,125,feet,jsons/VE125_randls_0.json,503786,737436,42,Man
130,580746,DepthScenes,duration_manipulation_targetAtFixation,jsons/VE125_randls_0.json,http://54.235.29.9/FacialAge/BNav_EC2/DepthDuration/v2_depth_duration_MTurk/v2_DepthDuration_HTML.html#189,189,1536,746,1536,864,8-29-2022,14-23-51,131,depth_duration_stimuli/001199_2014-06-17_16-03-48_260595134347_rgbf000077-resize_0/001199_2014-06-17_16-03-48_260595134347_rgbf000077-resize_0-target.png,125,3.4375,11,2119,125,feet,jsons/VE125_randls_0.json,503786,737436,42,Man
131,580746,DepthScenes,duration_manipulation_targetAtFixation,jsons/VE125_randls_0.json,http://54.235.29.9/FacialAge/BNav_EC2/DepthDuration/v2_depth_duration_MTurk/v2_DepthDuration_HTML.html#189,189,1536,746,1536,864,8-29-2022,14-23-51,132,depth_duration_stimuli/000502_2014-06-08_23-02-32_260595134347_rgbf000063-resize_4/000502_2014-06-08_23-02-32_260595134347_rgbf000063-resize_4-target.png,125,2.431,0,2204,135,feet,jsons/VE125_randls_0.json,503786,737436,42,Man
132,580746,DepthScenes,duration_manipulation_targetAtFixation,jsons/VE125_randls_0.json,http://54.235.29.9/FacialAge/BNav_EC2/DepthDuration/v2_depth_duration_MTurk/v2_DepthDuration_HTML.html#189,189,1536,746,1536,864,8-29-2022,14-23-51,133,depth_duration_stimuli/001055_2014-06-08_18-45-35_260595134347_rgbf000111-resize_4/001055_2014-06-08_18-45-35_260595134347_rgbf000111-resize_4-target.png,125,2.4290000000000003,13,2288,134,feet,jsons/VE125_randls_0.json,503786,737436,42,Man
133,580746,DepthScenes,duration_manipulation_targetAtFixation,jsons/VE125_randls_0.json,http://54.235.29.9/FacialAge/BNav_EC2/DepthDuration/v2_depth_duration_MTurk/v2_DepthDuration_HTML.html#189,189,1536,746,1536,864,8-29-2022,14-23-51,134,depth_duration_stimuli/000549_2014-06-08_22-10-24_260595134347_rgbf000247-resize_3/000549_2014-06-08_22-10-24_260595134347_rgbf000247-resize_3-target.png,125,1.841,3,2587,112,feet,jsons/VE125_randls_0.json,503786,737436,42,Man
134,580746,DepthScenes,duration_manipulation_targetAtFixation,jsons/VE125_randls_0.json,http://54.235.29.9/FacialAge/BNav_EC2/DepthDuration/v2_depth_duration_MTurk/v2_DepthDuration_HTML.html#189,189,1536,746,1536,864,8-29-2022,14-23-51,135,depth_duration_stimuli/002072_2014-06-24_21-48-06_260595134347_rgbf000115-resize_0/002072_2014-06-24_21-48-06_260595134347_rgbf000115-resize-original.jpg,125,4.702,0,3176,132,feet,jsons/VE125_randls_0.json,503786,737436,42,Man
135,580746,DepthScenes,duration_manipulation_targetAtFixation,jsons/VE125_randls_0.json,http://54.235.29.9/FacialAge/BNav_EC2/DepthDuration/v2_depth_duration_MTurk/v2_DepthDuration_HTML.html#189,189,1536,746,1536,864,8-29-2022,14-23-51,136,depth_duration_stimuli/001011_2014-06-08_23-18-54_260595134347_rgbf000044-resize_4/001011_2014-06-08_23-18-54_260595134347_rgbf000044-resize_4-target.png,125,2.4730000000000003,6,1986,131,feet,jsons/VE125_randls_0.json,503786,737436,42,Man
136,580746,DepthScenes,duration_manipulation_targetAtFixation,jsons/VE125_randls_0.json,http://54.235.29.9/FacialAge/BNav_EC2/DepthDuration/v2_depth_duration_MTurk/v2_DepthDuration_HTML.html#189,189,1536,746,1536,864,8-29-2022,14-23-51,137,depth_duration_stimuli/002875_2014-06-01_15-19-00_094959634447_rgbf000151-resize_1/002875_2014-06-01_15-19-00_094959634447_rgbf000151-resize_1-target.png,125,1.9675,4,3584,125,feet,jsons/VE125_randls_0.json,503786,737436,42,Man
137,580746,DepthScenes,duration_manipulation_targetAtFixation,jsons/VE125_randls_0.json,http://54.235.29.9/FacialAge/BNav_EC2/DepthDuration/v2_depth_duration_MTurk/v2_DepthDuration_HTML.html#189,189,1536,746,1536,864,8-29-2022,14-23-51,138,depth_duration_stimuli/001150_2014-06-17_15-27-34_260595134347_rgbf000108-resize_2/001150_2014-06-17_15-27-34_260595134347_rgbf000108-resize_2-target.png,125,4.0325,8,2436,133,feet,jsons/VE125_randls_0.json,503786,737436,42,Man
138,580746,DepthScenes,duration_manipulation_targetAtFixation,jsons/VE125_randls_0.json,http://54.235.29.9/FacialAge/BNav_EC2/DepthDuration/v2_depth_duration_MTurk/v2_DepthDuration_HTML.html#189,189,1536,746,1536,864,8-29-2022,14-23-51,139,depth_duration_stimuli/000665_2014-06-09_20-42-35_260595134347_rgbf000110-resize_1/000665_2014-06-09_20-42-35_260595134347_rgbf000110-resize_1-target.png,125,3.057,7,2308,118,feet,jsons/VE125_randls_0.json,503786,737436,42,Man
139,580746,DepthScenes,duration_manipulation_targetAtFixation,jsons/VE125_randls_0.json,http://54.235.29.9/FacialAge/BNav_EC2/DepthDuration/v2_depth_duration_MTurk/v2_DepthDuration_HTML.html#189,189,1536,746,1536,864,8-29-2022,14-23-51,140,depth_duration_stimuli/001110_2014-06-15_17-25-28_260595134347_rgbf000150-resize_1/001110_2014-06-15_17-25-28_260595134347_rgbf000150-resize_1-target.png,125,1.7115,5,2352,127,feet,jsons/VE125_randls_0.json,503786,737436,42,Man
140,580746,DepthScenes,duration_manipulation_targetAtFixation,jsons/VE125_randls_0.json,http://54.235.29.9/FacialAge/BNav_EC2/DepthDuration/v2_depth_duration_MTurk/v2_DepthDuration_HTML.html#189,189,1536,746,1536,864,8-29-2022,14-23-51,141,depth_duration_stimuli/000927_2014-06-09_16-32-30_260595134347_rgbf000123-resize_3/000927_2014-06-09_16-32-30_260595134347_rgbf000123-resize_3-target.png,125,2.6785,9,2283,134,feet,jsons/VE125_randls_0.json,503786,737436,42,Man
141,580746,DepthScenes,duration_manipulation_targetAtFixation,jsons/VE125_randls_0.json,http://54.235.29.9/FacialAge/BNav_EC2/DepthDuration/v2_depth_duration_MTurk/v2_DepthDuration_HTML.html#189,189,1536,746,1536,864,8-29-2022,14-23-51,142,depth_duration_stimuli/000773_2014-06-08_22-24-54_260595134347_rgbf000093-resize_1/000773_2014-06-08_22-24-54_260595134347_rgbf000093-resize_1-target.png,125,4.973,14,2644,124,feet,jsons/VE125_randls_0.json,503786,737436,42,Man
142,580746,DepthScenes,duration_manipulation_targetAtFixation,jsons/VE125_randls_0.json,http://54.235.29.9/FacialAge/BNav_EC2/DepthDuration/v2_depth_duration_MTurk/v2_DepthDuration_HTML.html#189,189,1536,746,1536,864,8-29-2022,14-23-51,143,depth_duration_stimuli/002414_2014-06-28_20-24-58_260595134347_rgbf000067-resize_4/002414_2014-06-28_20-24-58_260595134347_rgbf000067-resize_4-target.png,125,4.363,15,2640,130,feet,jsons/VE125_randls_0.json,503786,737436,42,Man
143,580746,DepthScenes,duration_manipulation_targetAtFixation,jsons/VE125_randls_0.json,http://54.235.29.9/FacialAge/BNav_EC2/DepthDuration/v2_depth_duration_MTurk/v2_DepthDuration_HTML.html#189,189,1536,746,1536,864,8-29-2022,14-23-51,144,depth_duration_stimuli/000470_2014-06-09_19-42-40_260595134347_rgbf000094-resize_1/000470_2014-06-09_19-42-40_260595134347_rgbf000094-resize_1-target.png,125,1.831,5,2222,123,feet,jsons/VE125_randls_0.json,503786,737436,42,Man
144,580746,DepthScenes,duration_manipulation_targetAtFixation,jsons/VE125_randls_0.json,http://54.235.29.9/FacialAge/BNav_EC2/DepthDuration/v2_depth_duration_MTurk/v2_DepthDuration_HTML.html#189,189,1536,746,1536,864,8-29-2022,14-23-51,145,depth_duration_stimuli/000109_2014-05-14_23-41-52_260595134347_rgbf000035-resize_9/000109_2014-05-14_23-41-52_260595134347_rgbf000035-resize_9-target.png,125,1.3545,0,2207,124,feet,jsons/VE125_randls_0.json,503786,737436,42,Man
145,580746,DepthScenes,duration_manipulation_targetAtFixation,jsons/VE125_randls_0.json,http://54.235.29.9/FacialAge/BNav_EC2/DepthDuration/v2_depth_duration_MTurk/v2_DepthDuration_HTML.html#189,189,1536,746,1536,864,8-29-2022,14-23-51,146,depth_duration_stimuli/001498_2014-06-19_17-45-14_260595134347_rgbf000129-resize_4/001498_2014-06-19_17-45-14_260595134347_rgbf000129-resize-original.jpg,125,1.4075,0,2188,121,feet,jsons/VE125_randls_0.json,503786,737436,42,Man
146,580746,DepthScenes,duration_manipulation_targetAtFixation,jsons/VE125_randls_0.json,http://54.235.29.9/FacialAge/BNav_EC2/DepthDuration/v2_depth_duration_MTurk/v2_DepthDuration_HTML.html#189,189,1536,746,1536,864,8-29-2022,14-23-51,147,depth_duration_stimuli/000436_2014-06-09_22-25-11_260595134347_rgbf000137-resize_1/000436_2014-06-09_22-25-11_260595134347_rgbf000137-resize_1-target.png,125,4.0705,14,2341,130,feet,jsons/VE125_randls_0.json,503786,737436,42,Man
147,580746,DepthScenes,duration_manipulation_targetAtFixation,jsons/VE125_randls_0.json,http://54.235.29.9/FacialAge/BNav_EC2/DepthDuration/v2_depth_duration_MTurk/v2_DepthDuration_HTML.html#189,189,1536,746,1536,864,8-29-2022,14-23-51,148,depth_duration_stimuli/002444_2014-06-28_20-32-08_260595134347_rgbf000027-resize_0/002444_2014-06-28_20-32-08_260595134347_rgbf000027-resize_0-target.png,125,4.388999999999999,16,2955,133,feet,jsons/VE125_randls_0.json,503786,737436,42,Man
148,580746,DepthScenes,duration_manipulation_targetAtFixation,jsons/VE125_randls_0.json,http://54.235.29.9/FacialAge/BNav_EC2/DepthDuration/v2_depth_duration_MTurk/v2_DepthDuration_HTML.html#189,189,1536,746,1536,864,8-29-2022,14-23-51,149,depth_duration_stimuli/000493_2014-06-09_21-01-18_260595134347_rgbf000196-resize_3/000493_2014-06-09_21-01-18_260595134347_rgbf000196-resize_3-target.png,125,3.44,6,2226,130,feet,jsons/VE125_randls_0.json,503786,737436,42,Man
149,580746,DepthScenes,duration_manipulation_targetAtFixation,jsons/VE125_randls_0.json,http://54.235.29.9/FacialAge/BNav_EC2/DepthDuration/v2_depth_duration_MTurk/v2_DepthDuration_HTML.html#189,189,1536,746,1536,864,8-29-2022,14-23-51,150,depth_duration_stimuli/000191_2014-05-12_17-07-38_260595134347_rgbf000199-resize_0/000191_2014-05-12_17-07-38_260595134347_rgbf000199-resize_0-target.png,125,3.7995,15,2386,113,feet,jsons/VE125_randls_0.json,503786,737436,42,Man
150,580746,DepthScenes,duration_manipulation_targetAtFixation,jsons/VE125_randls_0.json,http://54.235.29.9/FacialAge/BNav_EC2/DepthDuration/v2_depth_duration_MTurk/v2_DepthDuration_HTML.html#189,189,1536,746,1536,864,8-29-2022,14-23-51,151,depth_duration_stimuli/001092_2014-06-15_17-34-58_260595134347_rgbf000171-resize_3/001092_2014-06-15_17-34-58_260595134347_rgbf000171-resize_3-target.png,125,2.6935,4,2880,138,feet,jsons/VE125_randls_0.json,503786,737436,42,Man
151,580746,DepthScenes,duration_manipulation_targetAtFixation,jsons/VE125_randls_0.json,http://54.235.29.9/FacialAge/BNav_EC2/DepthDuration/v2_depth_duration_MTurk/v2_DepthDuration_HTML.html#189,189,1536,746,1536,864,8-29-2022,14-23-51,152,depth_duration_stimuli/002545_2014-06-24_13-38-53_094959634447_rgbf000080-resize_4/002545_2014-06-24_13-38-53_094959634447_rgbf000080-resize_4-target.png,125,1.9205,0,2245,125,feet,jsons/VE125_randls_0.json,503786,737436,42,Man
152,580746,DepthScenes,duration_manipulation_targetAtFixation,jsons/VE125_randls_0.json,http://54.235.29.9/FacialAge/BNav_EC2/DepthDuration/v2_depth_duration_MTurk/v2_DepthDuration_HTML.html#189,189,1536,746,1536,864,8-29-2022,14-23-51,153,depth_duration_stimuli/001158_2014-06-17_15-32-16_260595134347_rgbf000138-resize_2/001158_2014-06-17_15-32-16_260595134347_rgbf000138-resize_2-target.png,125,4.5315,9,3015,117,feet,jsons/VE125_randls_0.json,503786,737436,42,Man
153,580746,DepthScenes,duration_manipulation_targetAtFixation,jsons/VE125_randls_0.json,http://54.235.29.9/FacialAge/BNav_EC2/DepthDuration/v2_depth_duration_MTurk/v2_DepthDuration_HTML.html#189,189,1536,746,1536,864,8-29-2022,14-23-51,154,depth_duration_stimuli/000556_2014-06-09_22-42-56_260595134347_rgbf000214-resize_1/000556_2014-06-09_22-42-56_260595134347_rgbf000214-resize_1-target.png,125,4.8415,9,3036,128,feet,jsons/VE125_randls_0.json,503786,737436,42,Man
154,580746,DepthScenes,duration_manipulation_targetAtFixation,jsons/VE125_randls_0.json,http://54.235.29.9/FacialAge/BNav_EC2/DepthDuration/v2_depth_duration_MTurk/v2_DepthDuration_HTML.html#189,189,1536,746,1536,864,8-29-2022,14-23-51,155,depth_duration_stimuli/003534_2014-05-22_15-06-10_094959634447_rgbf000102-resize_4/003534_2014-05-22_15-06-10_094959634447_rgbf000102-resize_4-target.png,125,1.426,5,2114,127,feet,jsons/VE125_randls_0.json,503786,737436,42,Man
155,580746,DepthScenes,duration_manipulation_targetAtFixation,jsons/VE125_randls_0.json,http://54.235.29.9/FacialAge/BNav_EC2/DepthDuration/v2_depth_duration_MTurk/v2_DepthDuration_HTML.html#189,189,1536,746,1536,864,8-29-2022,14-23-51,156,depth_duration_stimuli/002637_2014-06-24_14-51-13_094959634447_rgbf000066-resize_4/002637_2014-06-24_14-51-13_094959634447_rgbf000066-resize_4-target.png,125,1.9955,7,1881,116,feet,jsons/VE125_randls_0.json,503786,737436,42,Man
156,580746,DepthScenes,duration_manipulation_targetAtFixation,jsons/VE125_randls_0.json,http://54.235.29.9/FacialAge/BNav_EC2/DepthDuration/v2_depth_duration_MTurk/v2_DepthDuration_HTML.html#189,189,1536,746,1536,864,8-29-2022,14-23-51,157,depth_duration_stimuli/003492_2014-05-21_15-50-55_094959634447_rgbf000828-resize_1/003492_2014-05-21_15-50-55_094959634447_rgbf000828-resize_1-target.png,125,4.06875,0,3126,123,feet,jsons/VE125_randls_0.json,503786,737436,42,Man
157,580746,DepthScenes,duration_manipulation_targetAtFixation,jsons/VE125_randls_0.json,http://54.235.29.9/FacialAge/BNav_EC2/DepthDuration/v2_depth_duration_MTurk/v2_DepthDuration_HTML.html#189,189,1536,746,1536,864,8-29-2022,14-23-51,158,depth_duration_stimuli/002568_2014-06-24_13-59-21_094959634447_rgbf000062-resize_4/002568_2014-06-24_13-59-21_094959634447_rgbf000062-resize_4-target.png,125,3.015,6,2473,116,feet,jsons/VE125_randls_0.json,503786,737436,42,Man
158,580746,DepthScenes,duration_manipulation_targetAtFixation,jsons/VE125_randls_0.json,http://54.235.29.9/FacialAge/BNav_EC2/DepthDuration/v2_depth_duration_MTurk/v2_DepthDuration_HTML.html#189,189,1536,746,1536,864,8-29-2022,14-23-51,159,depth_duration_stimuli/001066_2014-06-08_22-03-20_260595134347_rgbf000066-resize_4/001066_2014-06-08_22-03-20_260595134347_rgbf000066-resize_4-target.png,125,4.2330000000000005,6,12314,125,feet,jsons/VE125_randls_0.json,503786,737436,42,Man
159,580746,DepthScenes,duration_manipulation_targetAtFixation,jsons/VE125_randls_0.json,http://54.235.29.9/FacialAge/BNav_EC2/DepthDuration/v2_depth_duration_MTurk/v2_DepthDuration_HTML.html#189,189,1536,746,1536,864,8-29-2022,14-23-51,160,depth_duration_stimuli/000742_2014-06-08_18-48-09_260595134347_rgbf000164-resize_4/000742_2014-06-08_18-48-09_260595134347_rgbf000164-resize_4-target.png,125,4.632,8,3047,125,feet,jsons/VE125_randls_0.json,503786,737436,42,Man
160,580746,DepthScenes,duration_manipulation_targetAtFixation,jsons/VE125_randls_0.json,http://54.235.29.9/FacialAge/BNav_EC2/DepthDuration/v2_depth_duration_MTurk/v2_DepthDuration_HTML.html#189,189,1536,746,1536,864,8-29-2022,14-23-51,161,depth_duration_stimuli/002039_2014-06-24_20-22-38_260595134347_rgbf000084-resize_1/002039_2014-06-24_20-22-38_260595134347_rgbf000084-resize_1-target.png,125,4.408,8,2110,125,feet,jsons/VE125_randls_0.json,503786,737436,42,Man
161,580746,DepthScenes,duration_manipulation_targetAtFixation,jsons/VE125_randls_0.json,http://54.235.29.9/FacialAge/BNav_EC2/DepthDuration/v2_depth_duration_MTurk/v2_DepthDuration_HTML.html#189,189,1536,746,1536,864,8-29-2022,14-23-51,162,depth_duration_stimuli/002103_2014-06-25_20-00-40_260595134347_rgbf000049-resize_0/002103_2014-06-25_20-00-40_260595134347_rgbf000049-resize_0-target.png,125,4.105,9,2257,126,feet,jsons/VE125_randls_0.json,503786,737436,42,Man
162,580746,DepthScenes,duration_manipulation_targetAtFixation,jsons/VE125_randls_0.json,http://54.235.29.9/FacialAge/BNav_EC2/DepthDuration/v2_depth_duration_MTurk/v2_DepthDuration_HTML.html#189,189,1536,746,1536,864,8-29-2022,14-23-51,163,depth_duration_stimuli/000758_2014-06-08_22-05-08_260595134347_rgbf000085-resize_0/000758_2014-06-08_22-05-08_260595134347_rgbf000085-resize_0-target.png,125,3.3810000000000002,12,2951,126,feet,jsons/VE125_randls_0.json,503786,737436,42,Man
163,580746,DepthScenes,duration_manipulation_targetAtFixation,jsons/VE125_randls_0.json,http://54.235.29.9/FacialAge/BNav_EC2/DepthDuration/v2_depth_duration_MTurk/v2_DepthDuration_HTML.html#189,189,1536,746,1536,864,8-29-2022,14-23-51,164,depth_duration_stimuli/000854_2014-06-09_19-43-13_260595134347_rgbf000066-resize_0/000854_2014-06-09_19-43-13_260595134347_rgbf000066-resize_0-target.png,125,3.068,5,2113,120,feet,jsons/VE125_randls_0.json,503786,737436,42,Man
