,subjID,experimentName,versionName,sequenceName,url,selected_row,windowWidth,windowHeight,screenWidth,screenHeight,startDate,startTime,trial,stimulus,duration,actual_depth,depth_estimate,trial_RT,log_sceneDuration,unitSelection,seq_filepath,experimentTime,totalTime,age,gender
0,581608,DepthScenes,duration_manipulation_targetAtFixation,jsons/v1_VE250_randls_15.json,http://54.235.29.9/FacialAge/BNav_EC2/DepthDuration/v2_depth_duration_MTurk/v2_DepthDuration_HTML.html#73,73,1366,625,1366,768,9-3-2022,10-16-34,1,depth_duration_stimuli/002964_2014-06-08_17-46-11_094959634447_rgbf000091-resize_4/002964_2014-06-08_17-46-11_094959634447_rgbf000091-resize_4-target.png,250,1.6909999999999998,4,5849,250,meters,jsons/v1_VE250_randls_15.json,1184722,1919231,51,Man
1,581608,DepthScenes,duration_manipulation_targetAtFixation,jsons/v1_VE250_randls_15.json,http://54.235.29.9/FacialAge/BNav_EC2/DepthDuration/v2_depth_duration_MTurk/v2_DepthDuration_HTML.html#73,73,1366,625,1366,768,9-3-2022,10-16-34,2,depth_duration_stimuli/002136_2014-06-25_21-18-03_260595134347_rgbf000109-resize_3/002136_2014-06-25_21-18-03_260595134347_rgbf000109-resize_3-target.png,250,1.9569999999999999,5,6048,240,meters,jsons/v1_VE250_randls_15.json,1184722,1919231,51,Man
2,581608,DepthScenes,duration_manipulation_targetAtFixation,jsons/v1_VE250_randls_15.json,http://54.235.29.9/FacialAge/BNav_EC2/DepthDuration/v2_depth_duration_MTurk/v2_DepthDuration_HTML.html#73,73,1366,625,1366,768,9-3-2022,10-16-34,3,depth_duration_stimuli/002272_2014-06-28_18-53-56_260595134347_rgbf000067-resize_2/002272_2014-06-28_18-53-56_260595134347_rgbf000067-resize_2-target.png,250,1.138,4,4695,249,meters,jsons/v1_VE250_randls_15.json,1184722,1919231,51,Man
3,581608,DepthScenes,duration_manipulation_targetAtFixation,jsons/v1_VE250_randls_15.json,http://54.235.29.9/FacialAge/BNav_EC2/DepthDuration/v2_depth_duration_MTurk/v2_DepthDuration_HTML.html#73,73,1366,625,1366,768,9-3-2022,10-16-34,4,depth_duration_stimuli/001571_2014-06-20_17-21-32_260595134347_rgbf000089-resize_1/001571_2014-06-20_17-21-32_260595134347_rgbf000089-resize_1-target.png,250,1.86,5,2756,253,meters,jsons/v1_VE250_randls_15.json,1184722,1919231,51,Man
4,581608,DepthScenes,duration_manipulation_targetAtFixation,jsons/v1_VE250_randls_15.json,http://54.235.29.9/FacialAge/BNav_EC2/DepthDuration/v2_depth_duration_MTurk/v2_DepthDuration_HTML.html#73,73,1366,625,1366,768,9-3-2022,10-16-34,5,depth_duration_stimuli/002988_2014-06-15_12-24-20_094959634447_rgbf000150-resize_1/002988_2014-06-15_12-24-20_094959634447_rgbf000150-resize_1-target.png,250,4.7669999999999995,6,4742,258,meters,jsons/v1_VE250_randls_15.json,1184722,1919231,51,Man
5,581608,DepthScenes,duration_manipulation_targetAtFixation,jsons/v1_VE250_randls_15.json,http://54.235.29.9/FacialAge/BNav_EC2/DepthDuration/v2_depth_duration_MTurk/v2_DepthDuration_HTML.html#73,73,1366,625,1366,768,9-3-2022,10-16-34,6,depth_duration_stimuli/001052_2014-06-08_18-24-54_260595134347_rgbf000130-resize_1/001052_2014-06-08_18-24-54_260595134347_rgbf000130-resize_1-target.png,250,4.1045,5,3015,254,meters,jsons/v1_VE250_randls_15.json,1184722,1919231,51,Man
6,581608,DepthScenes,duration_manipulation_targetAtFixation,jsons/v1_VE250_randls_15.json,http://54.235.29.9/FacialAge/BNav_EC2/DepthDuration/v2_depth_duration_MTurk/v2_DepthDuration_HTML.html#73,73,1366,625,1366,768,9-3-2022,10-16-34,7,depth_duration_stimuli/001110_2014-06-15_17-25-28_260595134347_rgbf000150-resize_1/001110_2014-06-15_17-25-28_260595134347_rgbf000150-resize_1-target.png,250,1.7115,3,3355,251,meters,jsons/v1_VE250_randls_15.json,1184722,1919231,51,Man
7,581608,DepthScenes,duration_manipulation_targetAtFixation,jsons/v1_VE250_randls_15.json,http://54.235.29.9/FacialAge/BNav_EC2/DepthDuration/v2_depth_duration_MTurk/v2_DepthDuration_HTML.html#73,73,1366,625,1366,768,9-3-2022,10-16-34,8,depth_duration_stimuli/000927_2014-06-09_16-32-30_260595134347_rgbf000123-resize_3/000927_2014-06-09_16-32-30_260595134347_rgbf000123-resize_3-target.png,250,2.6785,5,2987,246,meters,jsons/v1_VE250_randls_15.json,1184722,1919231,51,Man
8,581608,DepthScenes,duration_manipulation_targetAtFixation,jsons/v1_VE250_randls_15.json,http://54.235.29.9/FacialAge/BNav_EC2/DepthDuration/v2_depth_duration_MTurk/v2_DepthDuration_HTML.html#73,73,1366,625,1366,768,9-3-2022,10-16-34,9,depth_duration_stimuli/002748_2014-06-22_19-07-22_094959634447_rgbf000078-resize_1/002748_2014-06-22_19-07-22_094959634447_rgbf000078-resize_1-target.png,250,4.6705,6,3755,250,meters,jsons/v1_VE250_randls_15.json,1184722,1919231,51,Man
9,581608,DepthScenes,duration_manipulation_targetAtFixation,jsons/v1_VE250_randls_15.json,http://54.235.29.9/FacialAge/BNav_EC2/DepthDuration/v2_depth_duration_MTurk/v2_DepthDuration_HTML.html#73,73,1366,625,1366,768,9-3-2022,10-16-34,10,depth_duration_stimuli/002995_2014-06-15_12-31-26_094959634447_rgbf000150-resize_1/002995_2014-06-15_12-31-26_094959634447_rgbf000150-resize_1-target.png,250,3.8360000000000003,4,2819,245,meters,jsons/v1_VE250_randls_15.json,1184722,1919231,51,Man
10,581608,DepthScenes,duration_manipulation_targetAtFixation,jsons/v1_VE250_randls_15.json,http://54.235.29.9/FacialAge/BNav_EC2/DepthDuration/v2_depth_duration_MTurk/v2_DepthDuration_HTML.html#73,73,1366,625,1366,768,9-3-2022,10-16-34,11,depth_duration_stimuli/000773_2014-06-08_22-24-54_260595134347_rgbf000093-resize_1/000773_2014-06-08_22-24-54_260595134347_rgbf000093-resize_1-target.png,250,4.973,5,5072,250,meters,jsons/v1_VE250_randls_15.json,1184722,1919231,51,Man
11,581608,DepthScenes,duration_manipulation_targetAtFixation,jsons/v1_VE250_randls_15.json,http://54.235.29.9/FacialAge/BNav_EC2/DepthDuration/v2_depth_duration_MTurk/v2_DepthDuration_HTML.html#73,73,1366,625,1366,768,9-3-2022,10-16-34,12,depth_duration_stimuli/002414_2014-06-28_20-24-58_260595134347_rgbf000067-resize_4/002414_2014-06-28_20-24-58_260595134347_rgbf000067-resize_4-target.png,250,4.363,5,3026,252,meters,jsons/v1_VE250_randls_15.json,1184722,1919231,51,Man
12,581608,DepthScenes,duration_manipulation_targetAtFixation,jsons/v1_VE250_randls_15.json,http://54.235.29.9/FacialAge/BNav_EC2/DepthDuration/v2_depth_duration_MTurk/v2_DepthDuration_HTML.html#73,73,1366,625,1366,768,9-3-2022,10-16-34,13,depth_duration_stimuli/000569_2014-06-09_22-51-47_260595134347_rgbf000141-resize_3/000569_2014-06-09_22-51-47_260595134347_rgbf000141-resize-original.jpg,250,4.512,0,6096,254,meters,jsons/v1_VE250_randls_15.json,1184722,1919231,51,Man
13,581608,DepthScenes,duration_manipulation_targetAtFixation,jsons/v1_VE250_randls_15.json,http://54.235.29.9/FacialAge/BNav_EC2/DepthDuration/v2_depth_duration_MTurk/v2_DepthDuration_HTML.html#73,73,1366,625,1366,768,9-3-2022,10-16-34,14,depth_duration_stimuli/002279_2014-06-28_18-55-32_260595134347_rgbf000040-resize_5/002279_2014-06-28_18-55-32_260595134347_rgbf000040-resize_5-target.png,250,1.5043333333333,5,5470,243,meters,jsons/v1_VE250_randls_15.json,1184722,1919231,51,Man
14,581608,DepthScenes,duration_manipulation_targetAtFixation,jsons/v1_VE250_randls_15.json,http://54.235.29.9/FacialAge/BNav_EC2/DepthDuration/v2_depth_duration_MTurk/v2_DepthDuration_HTML.html#73,73,1366,625,1366,768,9-3-2022,10-16-34,15,depth_duration_stimuli/000635_2014-06-08_16-38-42_260595134347_rgbf000106-resize_1/000635_2014-06-08_16-38-42_260595134347_rgbf000106-resize_1-target.png,250,2.074,5,2757,243,meters,jsons/v1_VE250_randls_15.json,1184722,1919231,51,Man
15,581608,DepthScenes,duration_manipulation_targetAtFixation,jsons/v1_VE250_randls_15.json,http://54.235.29.9/FacialAge/BNav_EC2/DepthDuration/v2_depth_duration_MTurk/v2_DepthDuration_HTML.html#73,73,1366,625,1366,768,9-3-2022,10-16-34,16,depth_duration_stimuli/001417_2014-06-19_16-25-36_260595134347_rgbf000115-resize_5/001417_2014-06-19_16-25-36_260595134347_rgbf000115-resize_5-target.png,250,4.6255,5,4283,252,meters,jsons/v1_VE250_randls_15.json,1184722,1919231,51,Man
16,581608,DepthScenes,duration_manipulation_targetAtFixation,jsons/v1_VE250_randls_15.json,http://54.235.29.9/FacialAge/BNav_EC2/DepthDuration/v2_depth_duration_MTurk/v2_DepthDuration_HTML.html#73,73,1366,625,1366,768,9-3-2022,10-16-34,17,depth_duration_stimuli/003081_2014-06-15_15-19-16_094959634447_rgbf000150-resize_1/003081_2014-06-15_15-19-16_094959634447_rgbf000150-resize_1-target.png,250,3.9125,0,3084,249,meters,jsons/v1_VE250_randls_15.json,1184722,1919231,51,Man
17,581608,DepthScenes,duration_manipulation_targetAtFixation,jsons/v1_VE250_randls_15.json,http://54.235.29.9/FacialAge/BNav_EC2/DepthDuration/v2_depth_duration_MTurk/v2_DepthDuration_HTML.html#73,73,1366,625,1366,768,9-3-2022,10-16-34,18,depth_duration_stimuli/003492_2014-05-21_15-50-55_094959634447_rgbf000828-resize_1/003492_2014-05-21_15-50-55_094959634447_rgbf000828-resize_1-target.png,250,4.06875,6,3922,253,meters,jsons/v1_VE250_randls_15.json,1184722,1919231,51,Man
18,581608,DepthScenes,duration_manipulation_targetAtFixation,jsons/v1_VE250_randls_15.json,http://54.235.29.9/FacialAge/BNav_EC2/DepthDuration/v2_depth_duration_MTurk/v2_DepthDuration_HTML.html#73,73,1366,625,1366,768,9-3-2022,10-16-34,19,depth_duration_stimuli/002568_2014-06-24_13-59-21_094959634447_rgbf000062-resize_4/002568_2014-06-24_13-59-21_094959634447_rgbf000062-resize_4-target.png,250,3.015,5,3071,246,meters,jsons/v1_VE250_randls_15.json,1184722,1919231,51,Man
19,581608,DepthScenes,duration_manipulation_targetAtFixation,jsons/v1_VE250_randls_15.json,http://54.235.29.9/FacialAge/BNav_EC2/DepthDuration/v2_depth_duration_MTurk/v2_DepthDuration_HTML.html#73,73,1366,625,1366,768,9-3-2022,10-16-34,20,depth_duration_stimuli/002989_2014-06-15_12-25-03_094959634447_rgbf000150-resize_3/002989_2014-06-15_12-25-03_094959634447_rgbf000150-resize_3-target.png,250,4.1975,5,3937,255,meters,jsons/v1_VE250_randls_15.json,1184722,1919231,51,Man
20,581608,DepthScenes,duration_manipulation_targetAtFixation,jsons/v1_VE250_randls_15.json,http://54.235.29.9/FacialAge/BNav_EC2/DepthDuration/v2_depth_duration_MTurk/v2_DepthDuration_HTML.html#73,73,1366,625,1366,768,9-3-2022,10-16-34,21,depth_duration_stimuli/000866_2014-06-09_20-45-42_260595134347_rgbf000139-resize_1/000866_2014-06-09_20-45-42_260595134347_rgbf000139-resize_1-target.png,250,3.2155,5,2811,248,meters,jsons/v1_VE250_randls_15.json,1184722,1919231,51,Man
21,581608,DepthScenes,duration_manipulation_targetAtFixation,jsons/v1_VE250_randls_15.json,http://54.235.29.9/FacialAge/BNav_EC2/DepthDuration/v2_depth_duration_MTurk/v2_DepthDuration_HTML.html#73,73,1366,625,1366,768,9-3-2022,10-16-34,22,depth_duration_stimuli/001810_2014-06-26_20-51-35_260595134347_rgbf000040-resize_3/001810_2014-06-26_20-51-35_260595134347_rgbf000040-resize_3-target.png,250,2.2525,5,3358,255,meters,jsons/v1_VE250_randls_15.json,1184722,1919231,51,Man
22,581608,DepthScenes,duration_manipulation_targetAtFixation,jsons/v1_VE250_randls_15.json,http://54.235.29.9/FacialAge/BNav_EC2/DepthDuration/v2_depth_duration_MTurk/v2_DepthDuration_HTML.html#73,73,1366,625,1366,768,9-3-2022,10-16-34,23,depth_duration_stimuli/003010_2014-06-15_12-54-35_094959634447_rgbf000112-resize_0/003010_2014-06-15_12-54-35_094959634447_rgbf000112-resize_0-target.png,250,3.1185,6,3248,260,meters,jsons/v1_VE250_randls_15.json,1184722,1919231,51,Man
23,581608,DepthScenes,duration_manipulation_targetAtFixation,jsons/v1_VE250_randls_15.json,http://54.235.29.9/FacialAge/BNav_EC2/DepthDuration/v2_depth_duration_MTurk/v2_DepthDuration_HTML.html#73,73,1366,625,1366,768,9-3-2022,10-16-34,24,depth_duration_stimuli/000486_2014-06-09_20-47-20_260595134347_rgbf000143-resize_2/000486_2014-06-09_20-47-20_260595134347_rgbf000143-resize_2-target.png,250,4.8325,5,5432,265,meters,jsons/v1_VE250_randls_15.json,1184722,1919231,51,Man
24,581608,DepthScenes,duration_manipulation_targetAtFixation,jsons/v1_VE250_randls_15.json,http://54.235.29.9/FacialAge/BNav_EC2/DepthDuration/v2_depth_duration_MTurk/v2_DepthDuration_HTML.html#73,73,1366,625,1366,768,9-3-2022,10-16-34,25,depth_duration_stimuli/003083_2014-06-15_15-21-03_094959634447_rgbf000063-resize_1/003083_2014-06-15_15-21-03_094959634447_rgbf000063-resize_1-target.png,250,4.1405,0,3117,241,meters,jsons/v1_VE250_randls_15.json,1184722,1919231,51,Man
25,581608,DepthScenes,duration_manipulation_targetAtFixation,jsons/v1_VE250_randls_15.json,http://54.235.29.9/FacialAge/BNav_EC2/DepthDuration/v2_depth_duration_MTurk/v2_DepthDuration_HTML.html#73,73,1366,625,1366,768,9-3-2022,10-16-34,26,depth_duration_stimuli/002375_2014-06-28_20-13-44_260595134347_rgbf000032-resize_1/002375_2014-06-28_20-13-44_260595134347_rgbf000032-resize_1-target.png,250,4.0175,5,3409,247,meters,jsons/v1_VE250_randls_15.json,1184722,1919231,51,Man
26,581608,DepthScenes,duration_manipulation_targetAtFixation,jsons/v1_VE250_randls_15.json,http://54.235.29.9/FacialAge/BNav_EC2/DepthDuration/v2_depth_duration_MTurk/v2_DepthDuration_HTML.html#73,73,1366,625,1366,768,9-3-2022,10-16-34,27,depth_duration_stimuli/002657_2014-06-13_15-29-54_094959634447_rgbf000150-resize_1/002657_2014-06-13_15-29-54_094959634447_rgbf000150-resize_1-target.png,250,4.919,5,2938,251,meters,jsons/v1_VE250_randls_15.json,1184722,1919231,51,Man
27,581608,DepthScenes,duration_manipulation_targetAtFixation,jsons/v1_VE250_randls_15.json,http://54.235.29.9/FacialAge/BNav_EC2/DepthDuration/v2_depth_duration_MTurk/v2_DepthDuration_HTML.html#73,73,1366,625,1366,768,9-3-2022,10-16-34,28,depth_duration_stimuli/001199_2014-06-17_16-03-48_260595134347_rgbf000077-resize_0/001199_2014-06-17_16-03-48_260595134347_rgbf000077-resize_0-target.png,250,3.4375,6,10460,250,meters,jsons/v1_VE250_randls_15.json,1184722,1919231,51,Man
28,581608,DepthScenes,duration_manipulation_targetAtFixation,jsons/v1_VE250_randls_15.json,http://54.235.29.9/FacialAge/BNav_EC2/DepthDuration/v2_depth_duration_MTurk/v2_DepthDuration_HTML.html#73,73,1366,625,1366,768,9-3-2022,10-16-34,29,depth_duration_stimuli/000502_2014-06-08_23-02-32_260595134347_rgbf000063-resize_4/000502_2014-06-08_23-02-32_260595134347_rgbf000063-resize_4-target.png,250,2.431,0,54930,266,meters,jsons/v1_VE250_randls_15.json,1184722,1919231,51,Man
29,581608,DepthScenes,duration_manipulation_targetAtFixation,jsons/v1_VE250_randls_15.json,http://54.235.29.9/FacialAge/BNav_EC2/DepthDuration/v2_depth_duration_MTurk/v2_DepthDuration_HTML.html#73,73,1366,625,1366,768,9-3-2022,10-16-34,30,depth_duration_stimuli/000375_2014-06-08_11-17-29_260595134347_rgbf000133-resize_2/000375_2014-06-08_11-17-29_260595134347_rgbf000133-resize-original.jpg,250,4.718,0,3298,250,meters,jsons/v1_VE250_randls_15.json,1184722,1919231,51,Man
30,581608,DepthScenes,duration_manipulation_targetAtFixation,jsons/v1_VE250_randls_15.json,http://54.235.29.9/FacialAge/BNav_EC2/DepthDuration/v2_depth_duration_MTurk/v2_DepthDuration_HTML.html#73,73,1366,625,1366,768,9-3-2022,10-16-34,31,depth_duration_stimuli/001066_2014-06-08_22-03-20_260595134347_rgbf000066-resize_4/001066_2014-06-08_22-03-20_260595134347_rgbf000066-resize_4-target.png,250,4.2330000000000005,5,3759,248,meters,jsons/v1_VE250_randls_15.json,1184722,1919231,51,Man
31,581608,DepthScenes,duration_manipulation_targetAtFixation,jsons/v1_VE250_randls_15.json,http://54.235.29.9/FacialAge/BNav_EC2/DepthDuration/v2_depth_duration_MTurk/v2_DepthDuration_HTML.html#73,73,1366,625,1366,768,9-3-2022,10-16-34,32,depth_duration_stimuli/000742_2014-06-08_18-48-09_260595134347_rgbf000164-resize_4/000742_2014-06-08_18-48-09_260595134347_rgbf000164-resize_4-target.png,250,4.632,5,3303,249,meters,jsons/v1_VE250_randls_15.json,1184722,1919231,51,Man
32,581608,DepthScenes,duration_manipulation_targetAtFixation,jsons/v1_VE250_randls_15.json,http://54.235.29.9/FacialAge/BNav_EC2/DepthDuration/v2_depth_duration_MTurk/v2_DepthDuration_HTML.html#73,73,1366,625,1366,768,9-3-2022,10-16-34,33,depth_duration_stimuli/001806_2014-06-26_20-50-20_260595134347_rgbf000091-resize_1/001806_2014-06-26_20-50-20_260595134347_rgbf000091-resize_1-target.png,250,2.7305,5,67010,250,meters,jsons/v1_VE250_randls_15.json,1184722,1919231,51,Man
33,581608,DepthScenes,duration_manipulation_targetAtFixation,jsons/v1_VE250_randls_15.json,http://54.235.29.9/FacialAge/BNav_EC2/DepthDuration/v2_depth_duration_MTurk/v2_DepthDuration_HTML.html#73,73,1366,625,1366,768,9-3-2022,10-16-34,34,depth_duration_stimuli/001617_2014-06-20_11-35-32_260595134347_rgbf000066-resize_1/001617_2014-06-20_11-35-32_260595134347_rgbf000066-resize_1-target.png,250,3.7910000000000004,4,3720,249,meters,jsons/v1_VE250_randls_15.json,1184722,1919231,51,Man
34,581608,DepthScenes,duration_manipulation_targetAtFixation,jsons/v1_VE250_randls_15.json,http://54.235.29.9/FacialAge/BNav_EC2/DepthDuration/v2_depth_duration_MTurk/v2_DepthDuration_HTML.html#73,73,1366,625,1366,768,9-3-2022,10-16-34,35,depth_duration_stimuli/002763_2014-06-22_19-13-10_094959634447_rgbf000075-resize_4/002763_2014-06-22_19-13-10_094959634447_rgbf000075-resize_4-target.png,250,1.68375,5,4188,247,meters,jsons/v1_VE250_randls_15.json,1184722,1919231,51,Man
35,581608,DepthScenes,duration_manipulation_targetAtFixation,jsons/v1_VE250_randls_15.json,http://54.235.29.9/FacialAge/BNav_EC2/DepthDuration/v2_depth_duration_MTurk/v2_DepthDuration_HTML.html#73,73,1366,625,1366,768,9-3-2022,10-16-34,36,depth_duration_stimuli/002209_2014-06-28_18-36-10_260595134347_rgbf000051-resize_1/002209_2014-06-28_18-36-10_260595134347_rgbf000051-resize_1-target.png,250,2.057,5,3011,249,meters,jsons/v1_VE250_randls_15.json,1184722,1919231,51,Man
36,581608,DepthScenes,duration_manipulation_targetAtFixation,jsons/v1_VE250_randls_15.json,http://54.235.29.9/FacialAge/BNav_EC2/DepthDuration/v2_depth_duration_MTurk/v2_DepthDuration_HTML.html#73,73,1366,625,1366,768,9-3-2022,10-16-34,37,depth_duration_stimuli/002905_2014-06-03_18-04-43_094959634447_rgbf000151-resize_2/002905_2014-06-03_18-04-43_094959634447_rgbf000151-resize_2-target.png,250,2.0295,4,3495,250,meters,jsons/v1_VE250_randls_15.json,1184722,1919231,51,Man
37,581608,DepthScenes,duration_manipulation_targetAtFixation,jsons/v1_VE250_randls_15.json,http://54.235.29.9/FacialAge/BNav_EC2/DepthDuration/v2_depth_duration_MTurk/v2_DepthDuration_HTML.html#73,73,1366,625,1366,768,9-3-2022,10-16-34,38,depth_duration_stimuli/003423_2014-05-21_10-23-26_094959634447_rgbf002665-resize_2/003423_2014-05-21_10-23-26_094959634447_rgbf002665-resize_2-target.png,250,3.2575,5,2667,241,meters,jsons/v1_VE250_randls_15.json,1184722,1919231,51,Man
38,581608,DepthScenes,duration_manipulation_targetAtFixation,jsons/v1_VE250_randls_15.json,http://54.235.29.9/FacialAge/BNav_EC2/DepthDuration/v2_depth_duration_MTurk/v2_DepthDuration_HTML.html#73,73,1366,625,1366,768,9-3-2022,10-16-34,39,depth_duration_stimuli/001011_2014-06-08_23-18-54_260595134347_rgbf000044-resize_4/001011_2014-06-08_23-18-54_260595134347_rgbf000044-resize_4-target.png,250,2.4730000000000003,3,7062,250,meters,jsons/v1_VE250_randls_15.json,1184722,1919231,51,Man
39,581608,DepthScenes,duration_manipulation_targetAtFixation,jsons/v1_VE250_randls_15.json,http://54.235.29.9/FacialAge/BNav_EC2/DepthDuration/v2_depth_duration_MTurk/v2_DepthDuration_HTML.html#73,73,1366,625,1366,768,9-3-2022,10-16-34,40,depth_duration_stimuli/002875_2014-06-01_15-19-00_094959634447_rgbf000151-resize_1/002875_2014-06-01_15-19-00_094959634447_rgbf000151-resize_1-target.png,250,1.9675,5,3067,251,meters,jsons/v1_VE250_randls_15.json,1184722,1919231,51,Man
40,581608,DepthScenes,duration_manipulation_targetAtFixation,jsons/v1_VE250_randls_15.json,http://54.235.29.9/FacialAge/BNav_EC2/DepthDuration/v2_depth_duration_MTurk/v2_DepthDuration_HTML.html#73,73,1366,625,1366,768,9-3-2022,10-16-34,41,depth_duration_stimuli/000414_2014-06-04_19-49-13_260595134347_rgbf000044-resize_0/000414_2014-06-04_19-49-13_260595134347_rgbf000044-resize_0-target.png,250,4.329,5,4251,238,meters,jsons/v1_VE250_randls_15.json,1184722,1919231,51,Man
41,581608,DepthScenes,duration_manipulation_targetAtFixation,jsons/v1_VE250_randls_15.json,http://54.235.29.9/FacialAge/BNav_EC2/DepthDuration/v2_depth_duration_MTurk/v2_DepthDuration_HTML.html#73,73,1366,625,1366,768,9-3-2022,10-16-34,42,depth_duration_stimuli/003129_2014-05-12_10-48-10_094959634447_rgbf000100-resize_0/003129_2014-05-12_10-48-10_094959634447_rgbf000100-resize_0-target.png,250,4.9305,4,3068,242,meters,jsons/v1_VE250_randls_15.json,1184722,1919231,51,Man
42,581608,DepthScenes,duration_manipulation_targetAtFixation,jsons/v1_VE250_randls_15.json,http://54.235.29.9/FacialAge/BNav_EC2/DepthDuration/v2_depth_duration_MTurk/v2_DepthDuration_HTML.html#73,73,1366,625,1366,768,9-3-2022,10-16-34,43,depth_duration_stimuli/000506_2014-06-08_23-21-00_260595134347_rgbf000070-resize_7/000506_2014-06-08_23-21-00_260595134347_rgbf000070-resize_7-target.png,250,4.0585,5,3442,241,meters,jsons/v1_VE250_randls_15.json,1184722,1919231,51,Man
43,581608,DepthScenes,duration_manipulation_targetAtFixation,jsons/v1_VE250_randls_15.json,http://54.235.29.9/FacialAge/BNav_EC2/DepthDuration/v2_depth_duration_MTurk/v2_DepthDuration_HTML.html#73,73,1366,625,1366,768,9-3-2022,10-16-34,44,depth_duration_stimuli/003079_2014-06-15_15-18-20_094959634447_rgbf000152-resize_8/003079_2014-06-15_15-18-20_094959634447_rgbf000152-resize_8-target.png,250,2.8775,5,2716,242,meters,jsons/v1_VE250_randls_15.json,1184722,1919231,51,Man
44,581608,DepthScenes,duration_manipulation_targetAtFixation,jsons/v1_VE250_randls_15.json,http://54.235.29.9/FacialAge/BNav_EC2/DepthDuration/v2_depth_duration_MTurk/v2_DepthDuration_HTML.html#73,73,1366,625,1366,768,9-3-2022,10-16-34,45,depth_duration_stimuli/000787_2014-06-08_22-33-53_260595134347_rgbf000175-resize_1/000787_2014-06-08_22-33-53_260595134347_rgbf000175-resize-original.jpg,250,4.784,0,3263,247,meters,jsons/v1_VE250_randls_15.json,1184722,1919231,51,Man
45,581608,DepthScenes,duration_manipulation_targetAtFixation,jsons/v1_VE250_randls_15.json,http://54.235.29.9/FacialAge/BNav_EC2/DepthDuration/v2_depth_duration_MTurk/v2_DepthDuration_HTML.html#73,73,1366,625,1366,768,9-3-2022,10-16-34,46,depth_duration_stimuli/001016_2014-06-09_16-16-10_260595134347_rgbf000112-resize_5/001016_2014-06-09_16-16-10_260595134347_rgbf000112-resize_5-target.png,250,1.6565,5,4526,250,meters,jsons/v1_VE250_randls_15.json,1184722,1919231,51,Man
46,581608,DepthScenes,duration_manipulation_targetAtFixation,jsons/v1_VE250_randls_15.json,http://54.235.29.9/FacialAge/BNav_EC2/DepthDuration/v2_depth_duration_MTurk/v2_DepthDuration_HTML.html#73,73,1366,625,1366,768,9-3-2022,10-16-34,47,depth_duration_stimuli/002340_2014-06-28_20-05-46_260595134347_rgbf000113-resize_0/002340_2014-06-28_20-05-46_260595134347_rgbf000113-resize_0-target.png,250,2.4735,6,2982,250,meters,jsons/v1_VE250_randls_15.json,1184722,1919231,51,Man
47,581608,DepthScenes,duration_manipulation_targetAtFixation,jsons/v1_VE250_randls_15.json,http://54.235.29.9/FacialAge/BNav_EC2/DepthDuration/v2_depth_duration_MTurk/v2_DepthDuration_HTML.html#73,73,1366,625,1366,768,9-3-2022,10-16-34,48,depth_duration_stimuli/000368_2014-06-09_15-53-01_260595134347_rgbf000155-resize_2/000368_2014-06-09_15-53-01_260595134347_rgbf000155-resize_2-target.png,250,2.4859999999999998,5,4034,246,meters,jsons/v1_VE250_randls_15.json,1184722,1919231,51,Man
48,581608,DepthScenes,duration_manipulation_targetAtFixation,jsons/v1_VE250_randls_15.json,http://54.235.29.9/FacialAge/BNav_EC2/DepthDuration/v2_depth_duration_MTurk/v2_DepthDuration_HTML.html#73,73,1366,625,1366,768,9-3-2022,10-16-34,49,depth_duration_stimuli/002678_2014-06-13_16-15-32_094959634447_rgbf000151-resize_6/002678_2014-06-13_16-15-32_094959634447_rgbf000151-resize_6-target.png,250,2.1830000000000003,6,3050,250,meters,jsons/v1_VE250_randls_15.json,1184722,1919231,51,Man
49,581608,DepthScenes,duration_manipulation_targetAtFixation,jsons/v1_VE250_randls_15.json,http://54.235.29.9/FacialAge/BNav_EC2/DepthDuration/v2_depth_duration_MTurk/v2_DepthDuration_HTML.html#73,73,1366,625,1366,768,9-3-2022,10-16-34,50,depth_duration_stimuli/000917_2014-06-09_22-45-29_260595134347_rgbf000149-resize_3/000917_2014-06-09_22-45-29_260595134347_rgbf000149-resize_3-target.png,250,4.1865,5,3630,237,meters,jsons/v1_VE250_randls_15.json,1184722,1919231,51,Man
50,581608,DepthScenes,duration_manipulation_targetAtFixation,jsons/v1_VE250_randls_15.json,http://54.235.29.9/FacialAge/BNav_EC2/DepthDuration/v2_depth_duration_MTurk/v2_DepthDuration_HTML.html#73,73,1366,625,1366,768,9-3-2022,10-16-34,51,depth_duration_stimuli/002323_2014-06-28_20-01-54_260595134347_rgbf000051-resize_4/002323_2014-06-28_20-01-54_260595134347_rgbf000051-resize_4-target.png,250,3.7310000000000003,6,3407,248,meters,jsons/v1_VE250_randls_15.json,1184722,1919231,51,Man
51,581608,DepthScenes,duration_manipulation_targetAtFixation,jsons/v1_VE250_randls_15.json,http://54.235.29.9/FacialAge/BNav_EC2/DepthDuration/v2_depth_duration_MTurk/v2_DepthDuration_HTML.html#73,73,1366,625,1366,768,9-3-2022,10-16-34,52,depth_duration_stimuli/001150_2014-06-17_15-27-34_260595134347_rgbf000108-resize_2/001150_2014-06-17_15-27-34_260595134347_rgbf000108-resize_2-target.png,250,4.0325,5,3516,252,meters,jsons/v1_VE250_randls_15.json,1184722,1919231,51,Man
52,581608,DepthScenes,duration_manipulation_targetAtFixation,jsons/v1_VE250_randls_15.json,http://54.235.29.9/FacialAge/BNav_EC2/DepthDuration/v2_depth_duration_MTurk/v2_DepthDuration_HTML.html#73,73,1366,625,1366,768,9-3-2022,10-16-34,53,depth_duration_stimuli/000665_2014-06-09_20-42-35_260595134347_rgbf000110-resize_1/000665_2014-06-09_20-42-35_260595134347_rgbf000110-resize_1-target.png,250,3.057,0,4723,243,meters,jsons/v1_VE250_randls_15.json,1184722,1919231,51,Man
53,581608,DepthScenes,duration_manipulation_targetAtFixation,jsons/v1_VE250_randls_15.json,http://54.235.29.9/FacialAge/BNav_EC2/DepthDuration/v2_depth_duration_MTurk/v2_DepthDuration_HTML.html#73,73,1366,625,1366,768,9-3-2022,10-16-34,54,depth_duration_stimuli/001244_2014-06-17_16-47-45_260595134347_rgbf000030-resize_4/001244_2014-06-17_16-47-45_260595134347_rgbf000030-resize_4-target.png,250,2.0425,5,4172,241,meters,jsons/v1_VE250_randls_15.json,1184722,1919231,51,Man
54,581608,DepthScenes,duration_manipulation_targetAtFixation,jsons/v1_VE250_randls_15.json,http://54.235.29.9/FacialAge/BNav_EC2/DepthDuration/v2_depth_duration_MTurk/v2_DepthDuration_HTML.html#73,73,1366,625,1366,768,9-3-2022,10-16-34,55,depth_duration_stimuli/003495_2014-05-21_16-01-51_094959634447_rgbf000100-resize_3/003495_2014-05-21_16-01-51_094959634447_rgbf000100-resize_3-target.png,250,1.6255,5,8982,252,meters,jsons/v1_VE250_randls_15.json,1184722,1919231,51,Man
55,581608,DepthScenes,duration_manipulation_targetAtFixation,jsons/v1_VE250_randls_15.json,http://54.235.29.9/FacialAge/BNav_EC2/DepthDuration/v2_depth_duration_MTurk/v2_DepthDuration_HTML.html#73,73,1366,625,1366,768,9-3-2022,10-16-34,56,depth_duration_stimuli/003534_2014-05-22_15-06-10_094959634447_rgbf000102-resize_4/003534_2014-05-22_15-06-10_094959634447_rgbf000102-resize_4-target.png,250,1.426,5,4415,247,meters,jsons/v1_VE250_randls_15.json,1184722,1919231,51,Man
56,581608,DepthScenes,duration_manipulation_targetAtFixation,jsons/v1_VE250_randls_15.json,http://54.235.29.9/FacialAge/BNav_EC2/DepthDuration/v2_depth_duration_MTurk/v2_DepthDuration_HTML.html#73,73,1366,625,1366,768,9-3-2022,10-16-34,57,depth_duration_stimuli/002637_2014-06-24_14-51-13_094959634447_rgbf000066-resize_4/002637_2014-06-24_14-51-13_094959634447_rgbf000066-resize_4-target.png,250,1.9955,5,2860,263,meters,jsons/v1_VE250_randls_15.json,1184722,1919231,51,Man
57,581608,DepthScenes,duration_manipulation_targetAtFixation,jsons/v1_VE250_randls_15.json,http://54.235.29.9/FacialAge/BNav_EC2/DepthDuration/v2_depth_duration_MTurk/v2_DepthDuration_HTML.html#73,73,1366,625,1366,768,9-3-2022,10-16-34,58,depth_duration_stimuli/003621_2014-05-23_18-06-08_094959634447_rgbf000101-resize_1/003621_2014-05-23_18-06-08_094959634447_rgbf000101-resize_1-target.png,250,3.9835,6,3332,251,meters,jsons/v1_VE250_randls_15.json,1184722,1919231,51,Man
58,581608,DepthScenes,duration_manipulation_targetAtFixation,jsons/v1_VE250_randls_15.json,http://54.235.29.9/FacialAge/BNav_EC2/DepthDuration/v2_depth_duration_MTurk/v2_DepthDuration_HTML.html#73,73,1366,625,1366,768,9-3-2022,10-16-34,59,depth_duration_stimuli/001584_2014-06-20_11-07-43_260595134347_rgbf000002-resize_1/001584_2014-06-20_11-07-43_260595134347_rgbf000002-resize_1-target.png,250,3.53,4,4301,261,meters,jsons/v1_VE250_randls_15.json,1184722,1919231,51,Man
59,581608,DepthScenes,duration_manipulation_targetAtFixation,jsons/v1_VE250_randls_15.json,http://54.235.29.9/FacialAge/BNav_EC2/DepthDuration/v2_depth_duration_MTurk/v2_DepthDuration_HTML.html#73,73,1366,625,1366,768,9-3-2022,10-16-34,60,depth_duration_stimuli/000522_2014-06-08_13-35-06_260595134347_rgbf000244-resize_1/000522_2014-06-08_13-35-06_260595134347_rgbf000244-resize_1-target.png,250,2.3715,4,4113,250,meters,jsons/v1_VE250_randls_15.json,1184722,1919231,51,Man
60,581608,DepthScenes,duration_manipulation_targetAtFixation,jsons/v1_VE250_randls_15.json,http://54.235.29.9/FacialAge/BNav_EC2/DepthDuration/v2_depth_duration_MTurk/v2_DepthDuration_HTML.html#73,73,1366,625,1366,768,9-3-2022,10-16-34,61,depth_duration_stimuli/002949_2014-06-26_15-57-42_094959634447_rgbf000079-resize_1/002949_2014-06-26_15-57-42_094959634447_rgbf000079-resize_1-target.png,250,1.8915,5,2877,245,meters,jsons/v1_VE250_randls_15.json,1184722,1919231,51,Man
61,581608,DepthScenes,duration_manipulation_targetAtFixation,jsons/v1_VE250_randls_15.json,http://54.235.29.9/FacialAge/BNav_EC2/DepthDuration/v2_depth_duration_MTurk/v2_DepthDuration_HTML.html#73,73,1366,625,1366,768,9-3-2022,10-16-34,62,depth_duration_stimuli/001055_2014-06-08_18-45-35_260595134347_rgbf000111-resize_4/001055_2014-06-08_18-45-35_260595134347_rgbf000111-resize_4-target.png,250,2.4290000000000003,5,4260,250,meters,jsons/v1_VE250_randls_15.json,1184722,1919231,51,Man
62,581608,DepthScenes,duration_manipulation_targetAtFixation,jsons/v1_VE250_randls_15.json,http://54.235.29.9/FacialAge/BNav_EC2/DepthDuration/v2_depth_duration_MTurk/v2_DepthDuration_HTML.html#73,73,1366,625,1366,768,9-3-2022,10-16-34,63,depth_duration_stimuli/000549_2014-06-08_22-10-24_260595134347_rgbf000247-resize_3/000549_2014-06-08_22-10-24_260595134347_rgbf000247-resize_3-target.png,250,1.841,2,2964,250,meters,jsons/v1_VE250_randls_15.json,1184722,1919231,51,Man
63,581608,DepthScenes,duration_manipulation_targetAtFixation,jsons/v1_VE250_randls_15.json,http://54.235.29.9/FacialAge/BNav_EC2/DepthDuration/v2_depth_duration_MTurk/v2_DepthDuration_HTML.html#73,73,1366,625,1366,768,9-3-2022,10-16-34,64,depth_duration_stimuli/001808_2014-06-26_20-50-58_260595134347_rgbf000029-resize_1/001808_2014-06-26_20-50-58_260595134347_rgbf000029-resize_1-target.png,250,4.249,5,3645,257,meters,jsons/v1_VE250_randls_15.json,1184722,1919231,51,Man
64,581608,DepthScenes,duration_manipulation_targetAtFixation,jsons/v1_VE250_randls_15.json,http://54.235.29.9/FacialAge/BNav_EC2/DepthDuration/v2_depth_duration_MTurk/v2_DepthDuration_HTML.html#73,73,1366,625,1366,768,9-3-2022,10-16-34,65,depth_duration_stimuli/001815_2014-06-26_20-52-55_260595134347_rgbf000020-resize_0/001815_2014-06-26_20-52-55_260595134347_rgbf000020-resize_0-target.png,250,3.3865,5,3312,251,meters,jsons/v1_VE250_randls_15.json,1184722,1919231,51,Man
65,581608,DepthScenes,duration_manipulation_targetAtFixation,jsons/v1_VE250_randls_15.json,http://54.235.29.9/FacialAge/BNav_EC2/DepthDuration/v2_depth_duration_MTurk/v2_DepthDuration_HTML.html#73,73,1366,625,1366,768,9-3-2022,10-16-34,66,depth_duration_stimuli/001222_2014-06-17_16-24-06_260595134347_rgbf000073-resize_0/001222_2014-06-17_16-24-06_260595134347_rgbf000073-resize-original.jpg,250,1.4385,5,7804,246,meters,jsons/v1_VE250_randls_15.json,1184722,1919231,51,Man
66,581608,DepthScenes,duration_manipulation_targetAtFixation,jsons/v1_VE250_randls_15.json,http://54.235.29.9/FacialAge/BNav_EC2/DepthDuration/v2_depth_duration_MTurk/v2_DepthDuration_HTML.html#73,73,1366,625,1366,768,9-3-2022,10-16-34,67,depth_duration_stimuli/002153_2014-06-25_21-27-18_260595134347_rgbf000038-resize_5/002153_2014-06-25_21-27-18_260595134347_rgbf000038-resize_5-target.png,250,2.505,5,5831,250,meters,jsons/v1_VE250_randls_15.json,1184722,1919231,51,Man
67,581608,DepthScenes,duration_manipulation_targetAtFixation,jsons/v1_VE250_randls_15.json,http://54.235.29.9/FacialAge/BNav_EC2/DepthDuration/v2_depth_duration_MTurk/v2_DepthDuration_HTML.html#73,73,1366,625,1366,768,9-3-2022,10-16-34,68,depth_duration_stimuli/002660_2014-06-13_15-44-18_094959634447_rgbf001878-resize_2/002660_2014-06-13_15-44-18_094959634447_rgbf001878-resize_2-target.png,250,3.576,5,3303,238,meters,jsons/v1_VE250_randls_15.json,1184722,1919231,51,Man
68,581608,DepthScenes,duration_manipulation_targetAtFixation,jsons/v1_VE250_randls_15.json,http://54.235.29.9/FacialAge/BNav_EC2/DepthDuration/v2_depth_duration_MTurk/v2_DepthDuration_HTML.html#73,73,1366,625,1366,768,9-3-2022,10-16-34,69,depth_duration_stimuli/002509_2014-06-24_13-19-22_094959634447_rgbf000077-resize_0/002509_2014-06-24_13-19-22_094959634447_rgbf000077-resize_0-target.png,250,1.3065,6,7207,260,meters,jsons/v1_VE250_randls_15.json,1184722,1919231,51,Man
69,581608,DepthScenes,duration_manipulation_targetAtFixation,jsons/v1_VE250_randls_15.json,http://54.235.29.9/FacialAge/BNav_EC2/DepthDuration/v2_depth_duration_MTurk/v2_DepthDuration_HTML.html#73,73,1366,625,1366,768,9-3-2022,10-16-34,70,depth_duration_stimuli/003338_2014-05-20_11-01-23_094959634447_rgbf000051-resize_6/003338_2014-05-20_11-01-23_094959634447_rgbf000051-resize_6-target.png,250,1.693,0,2913,250,meters,jsons/v1_VE250_randls_15.json,1184722,1919231,51,Man
70,581608,DepthScenes,duration_manipulation_targetAtFixation,jsons/v1_VE250_randls_15.json,http://54.235.29.9/FacialAge/BNav_EC2/DepthDuration/v2_depth_duration_MTurk/v2_DepthDuration_HTML.html#73,73,1366,625,1366,768,9-3-2022,10-16-34,71,depth_duration_stimuli/003070_2014-06-15_14-58-27_094959634447_rgbf000150-resize_3/003070_2014-06-15_14-58-27_094959634447_rgbf000150-resize_3-target.png,250,2.9415,5,4643,249,meters,jsons/v1_VE250_randls_15.json,1184722,1919231,51,Man
71,581608,DepthScenes,duration_manipulation_targetAtFixation,jsons/v1_VE250_randls_15.json,http://54.235.29.9/FacialAge/BNav_EC2/DepthDuration/v2_depth_duration_MTurk/v2_DepthDuration_HTML.html#73,73,1366,625,1366,768,9-3-2022,10-16-34,72,depth_duration_stimuli/000943_2014-06-09_19-31-07_260595134347_rgbf000128-resize_1/000943_2014-06-09_19-31-07_260595134347_rgbf000128-resize_1-target.png,250,1.9765,5,3531,254,meters,jsons/v1_VE250_randls_15.json,1184722,1919231,51,Man
72,581608,DepthScenes,duration_manipulation_targetAtFixation,jsons/v1_VE250_randls_15.json,http://54.235.29.9/FacialAge/BNav_EC2/DepthDuration/v2_depth_duration_MTurk/v2_DepthDuration_HTML.html#73,73,1366,625,1366,768,9-3-2022,10-16-34,73,depth_duration_stimuli/001555_2014-06-20_17-12-10_260595134347_rgbf000065-resize_4/001555_2014-06-20_17-12-10_260595134347_rgbf000065-resize_4-target.png,250,1.633,5,4377,243,meters,jsons/v1_VE250_randls_15.json,1184722,1919231,51,Man
73,581608,DepthScenes,duration_manipulation_targetAtFixation,jsons/v1_VE250_randls_15.json,http://54.235.29.9/FacialAge/BNav_EC2/DepthDuration/v2_depth_duration_MTurk/v2_DepthDuration_HTML.html#73,73,1366,625,1366,768,9-3-2022,10-16-34,74,depth_duration_stimuli/000103_2014-05-14_22-01-17_260595134347_rgbf000152-resize_5/000103_2014-05-14_22-01-17_260595134347_rgbf000152-resize_5-target.png,250,1.993,5,7072,264,meters,jsons/v1_VE250_randls_15.json,1184722,1919231,51,Man
74,581608,DepthScenes,duration_manipulation_targetAtFixation,jsons/v1_VE250_randls_15.json,http://54.235.29.9/FacialAge/BNav_EC2/DepthDuration/v2_depth_duration_MTurk/v2_DepthDuration_HTML.html#73,73,1366,625,1366,768,9-3-2022,10-16-34,75,depth_duration_stimuli/000009_2014-05-26_14-32-05_260595134347_rgbf000034-resize_3/000009_2014-05-26_14-32-05_260595134347_rgbf000034-resize_3-target.png,250,3.8715,5,3858,236,meters,jsons/v1_VE250_randls_15.json,1184722,1919231,51,Man
75,581608,DepthScenes,duration_manipulation_targetAtFixation,jsons/v1_VE250_randls_15.json,http://54.235.29.9/FacialAge/BNav_EC2/DepthDuration/v2_depth_duration_MTurk/v2_DepthDuration_HTML.html#73,73,1366,625,1366,768,9-3-2022,10-16-34,76,depth_duration_stimuli/001828_2014-06-26_21-40-03_260595134347_rgbf000024-resize_0/001828_2014-06-26_21-40-03_260595134347_rgbf000024-resize_0-target.png,250,4.8260000000000005,4,3304,239,meters,jsons/v1_VE250_randls_15.json,1184722,1919231,51,Man
76,581608,DepthScenes,duration_manipulation_targetAtFixation,jsons/v1_VE250_randls_15.json,http://54.235.29.9/FacialAge/BNav_EC2/DepthDuration/v2_depth_duration_MTurk/v2_DepthDuration_HTML.html#73,73,1366,625,1366,768,9-3-2022,10-16-34,77,depth_duration_stimuli/000642_2014-06-08_16-59-25_260595134347_rgbf000098-resize_2/000642_2014-06-08_16-59-25_260595134347_rgbf000098-resize_2-target.png,250,2.8815,4,3413,246,meters,jsons/v1_VE250_randls_15.json,1184722,1919231,51,Man
77,581608,DepthScenes,duration_manipulation_targetAtFixation,jsons/v1_VE250_randls_15.json,http://54.235.29.9/FacialAge/BNav_EC2/DepthDuration/v2_depth_duration_MTurk/v2_DepthDuration_HTML.html#73,73,1366,625,1366,768,9-3-2022,10-16-34,78,depth_duration_stimuli/002425_2014-06-28_20-27-29_260595134347_rgbf000031-resize_8/002425_2014-06-28_20-27-29_260595134347_rgbf000031-resize_8-target.png,250,3.8960000000000004,5,75058,250,meters,jsons/v1_VE250_randls_15.json,1184722,1919231,51,Man
78,581608,DepthScenes,duration_manipulation_targetAtFixation,jsons/v1_VE250_randls_15.json,http://54.235.29.9/FacialAge/BNav_EC2/DepthDuration/v2_depth_duration_MTurk/v2_DepthDuration_HTML.html#73,73,1366,625,1366,768,9-3-2022,10-16-34,79,depth_duration_stimuli/002630_2014-06-24_14-47-50_094959634447_rgbf000055-resize_1/002630_2014-06-24_14-47-50_094959634447_rgbf000055-resize_1-target.png,250,3.0095,5,3773,253,meters,jsons/v1_VE250_randls_15.json,1184722,1919231,51,Man
79,581608,DepthScenes,duration_manipulation_targetAtFixation,jsons/v1_VE250_randls_15.json,http://54.235.29.9/FacialAge/BNav_EC2/DepthDuration/v2_depth_duration_MTurk/v2_DepthDuration_HTML.html#73,73,1366,625,1366,768,9-3-2022,10-16-34,80,depth_duration_stimuli/002758_2014-06-22_19-11-20_094959634447_rgbf000128-resize_1/002758_2014-06-22_19-11-20_094959634447_rgbf000128-resize_1-target.png,250,2.555,4,2965,250,meters,jsons/v1_VE250_randls_15.json,1184722,1919231,51,Man
80,581608,DepthScenes,duration_manipulation_targetAtFixation,jsons/v1_VE250_randls_15.json,http://54.235.29.9/FacialAge/BNav_EC2/DepthDuration/v2_depth_duration_MTurk/v2_DepthDuration_HTML.html#73,73,1366,625,1366,768,9-3-2022,10-16-34,81,depth_duration_stimuli/001158_2014-06-17_15-32-16_260595134347_rgbf000138-resize_2/001158_2014-06-17_15-32-16_260595134347_rgbf000138-resize_2-target.png,250,4.5315,5,3727,236,meters,jsons/v1_VE250_randls_15.json,1184722,1919231,51,Man
81,581608,DepthScenes,duration_manipulation_targetAtFixation,jsons/v1_VE250_randls_15.json,http://54.235.29.9/FacialAge/BNav_EC2/DepthDuration/v2_depth_duration_MTurk/v2_DepthDuration_HTML.html#73,73,1366,625,1366,768,9-3-2022,10-16-34,82,depth_duration_stimuli/000556_2014-06-09_22-42-56_260595134347_rgbf000214-resize_1/000556_2014-06-09_22-42-56_260595134347_rgbf000214-resize_1-target.png,250,4.8415,4,3383,253,meters,jsons/v1_VE250_randls_15.json,1184722,1919231,51,Man
82,581608,DepthScenes,duration_manipulation_targetAtFixation,jsons/v1_VE250_randls_15.json,http://54.235.29.9/FacialAge/BNav_EC2/DepthDuration/v2_depth_duration_MTurk/v2_DepthDuration_HTML.html#73,73,1366,625,1366,768,9-3-2022,10-16-34,83,depth_duration_stimuli/001167_2014-06-17_15-38-07_260595134347_rgbf000108-resize_0/001167_2014-06-17_15-38-07_260595134347_rgbf000108-resize_0-target.png,250,1.8505,3,3651,251,meters,jsons/v1_VE250_randls_15.json,1184722,1919231,51,Man
83,581608,DepthScenes,duration_manipulation_targetAtFixation,jsons/v1_VE250_randls_15.json,http://54.235.29.9/FacialAge/BNav_EC2/DepthDuration/v2_depth_duration_MTurk/v2_DepthDuration_HTML.html#73,73,1366,625,1366,768,9-3-2022,10-16-34,84,depth_duration_stimuli/003587_2014-05-23_16-48-02_094959634447_rgbf002384-resize_2/003587_2014-05-23_16-48-02_094959634447_rgbf002384-resize_2-target.png,250,1.357,4,2646,249,meters,jsons/v1_VE250_randls_15.json,1184722,1919231,51,Man
84,581608,DepthScenes,duration_manipulation_targetAtFixation,jsons/v1_VE250_randls_15.json,http://54.235.29.9/FacialAge/BNav_EC2/DepthDuration/v2_depth_duration_MTurk/v2_DepthDuration_HTML.html#73,73,1366,625,1366,768,9-3-2022,10-16-34,85,depth_duration_stimuli/002725_2014-06-22_11-47-51_094959634447_rgbf000070-resize_1/002725_2014-06-22_11-47-51_094959634447_rgbf000070-resize_1-target.png,250,2.195,4,3431,232,meters,jsons/v1_VE250_randls_15.json,1184722,1919231,51,Man
85,581608,DepthScenes,duration_manipulation_targetAtFixation,jsons/v1_VE250_randls_15.json,http://54.235.29.9/FacialAge/BNav_EC2/DepthDuration/v2_depth_duration_MTurk/v2_DepthDuration_HTML.html#73,73,1366,625,1366,768,9-3-2022,10-16-34,86,depth_duration_stimuli/002344_2014-06-28_20-06-29_260595134347_rgbf000030-resize_1/002344_2014-06-28_20-06-29_260595134347_rgbf000030-resize_1-target.png,250,1.5795,2,3575,248,meters,jsons/v1_VE250_randls_15.json,1184722,1919231,51,Man
86,581608,DepthScenes,duration_manipulation_targetAtFixation,jsons/v1_VE250_randls_15.json,http://54.235.29.9/FacialAge/BNav_EC2/DepthDuration/v2_depth_duration_MTurk/v2_DepthDuration_HTML.html#73,73,1366,625,1366,768,9-3-2022,10-16-34,87,depth_duration_stimuli/000736_2014-06-08_18-24-15_260595134347_rgbf000206-resize_3/000736_2014-06-08_18-24-15_260595134347_rgbf000206-resize_3-target.png,250,3.515,3,3076,258,meters,jsons/v1_VE250_randls_15.json,1184722,1919231,51,Man
87,581608,DepthScenes,duration_manipulation_targetAtFixation,jsons/v1_VE250_randls_15.json,http://54.235.29.9/FacialAge/BNav_EC2/DepthDuration/v2_depth_duration_MTurk/v2_DepthDuration_HTML.html#73,73,1366,625,1366,768,9-3-2022,10-16-34,88,depth_duration_stimuli/000137_2014-05-20_17-04-49_260595134347_rgbf000120-resize_1/000137_2014-05-20_17-04-49_260595134347_rgbf000120-resize_1-target.png,250,3.786,4,3838,239,meters,jsons/v1_VE250_randls_15.json,1184722,1919231,51,Man
88,581608,DepthScenes,duration_manipulation_targetAtFixation,jsons/v1_VE250_randls_15.json,http://54.235.29.9/FacialAge/BNav_EC2/DepthDuration/v2_depth_duration_MTurk/v2_DepthDuration_HTML.html#73,73,1366,625,1366,768,9-3-2022,10-16-34,89,depth_duration_stimuli/000436_2014-06-09_22-25-11_260595134347_rgbf000137-resize_1/000436_2014-06-09_22-25-11_260595134347_rgbf000137-resize_1-target.png,250,4.0705,5,3188,250,meters,jsons/v1_VE250_randls_15.json,1184722,1919231,51,Man
89,581608,DepthScenes,duration_manipulation_targetAtFixation,jsons/v1_VE250_randls_15.json,http://54.235.29.9/FacialAge/BNav_EC2/DepthDuration/v2_depth_duration_MTurk/v2_DepthDuration_HTML.html#73,73,1366,625,1366,768,9-3-2022,10-16-34,90,depth_duration_stimuli/002444_2014-06-28_20-32-08_260595134347_rgbf000027-resize_0/002444_2014-06-28_20-32-08_260595134347_rgbf000027-resize_0-target.png,250,4.388999999999999,5,3451,250,meters,jsons/v1_VE250_randls_15.json,1184722,1919231,51,Man
90,581608,DepthScenes,duration_manipulation_targetAtFixation,jsons/v1_VE250_randls_15.json,http://54.235.29.9/FacialAge/BNav_EC2/DepthDuration/v2_depth_duration_MTurk/v2_DepthDuration_HTML.html#73,73,1366,625,1366,768,9-3-2022,10-16-34,91,depth_duration_stimuli/002600_2014-06-24_14-27-04_094959634447_rgbf000074-resize_2/002600_2014-06-24_14-27-04_094959634447_rgbf000074-resize_2-target.png,250,2.7575,3,3553,251,meters,jsons/v1_VE250_randls_15.json,1184722,1919231,51,Man
91,581608,DepthScenes,duration_manipulation_targetAtFixation,jsons/v1_VE250_randls_15.json,http://54.235.29.9/FacialAge/BNav_EC2/DepthDuration/v2_depth_duration_MTurk/v2_DepthDuration_HTML.html#73,73,1366,625,1366,768,9-3-2022,10-16-34,92,depth_duration_stimuli/003228_2014-05-14_13-42-35_094959634447_rgbf000101-resize_1/003228_2014-05-14_13-42-35_094959634447_rgbf000101-resize_1-target.png,250,1.9680000000000002,3,3189,236,meters,jsons/v1_VE250_randls_15.json,1184722,1919231,51,Man
92,581608,DepthScenes,duration_manipulation_targetAtFixation,jsons/v1_VE250_randls_15.json,http://54.235.29.9/FacialAge/BNav_EC2/DepthDuration/v2_depth_duration_MTurk/v2_DepthDuration_HTML.html#73,73,1366,625,1366,768,9-3-2022,10-16-34,93,depth_duration_stimuli/000682_2014-06-08_23-14-58_260595134347_rgbf000041-resize_5/000682_2014-06-08_23-14-58_260595134347_rgbf000041-resize_5-target.png,250,2.7239999999999998,4,3746,259,meters,jsons/v1_VE250_randls_15.json,1184722,1919231,51,Man
93,581608,DepthScenes,duration_manipulation_targetAtFixation,jsons/v1_VE250_randls_15.json,http://54.235.29.9/FacialAge/BNav_EC2/DepthDuration/v2_depth_duration_MTurk/v2_DepthDuration_HTML.html#73,73,1366,625,1366,768,9-3-2022,10-16-34,94,depth_duration_stimuli/001650_2014-06-20_12-09-00_260595134347_rgbf000087-resize_3/001650_2014-06-20_12-09-00_260595134347_rgbf000087-resize_3-target.png,250,1.9505,2,2823,255,meters,jsons/v1_VE250_randls_15.json,1184722,1919231,51,Man
94,581608,DepthScenes,duration_manipulation_targetAtFixation,jsons/v1_VE250_randls_15.json,http://54.235.29.9/FacialAge/BNav_EC2/DepthDuration/v2_depth_duration_MTurk/v2_DepthDuration_HTML.html#73,73,1366,625,1366,768,9-3-2022,10-16-34,95,depth_duration_stimuli/002445_2014-06-28_20-32-16_260595134347_rgbf000029-resize_4/002445_2014-06-28_20-32-16_260595134347_rgbf000029-resize_4-target.png,250,2.5315,2,4138,251,meters,jsons/v1_VE250_randls_15.json,1184722,1919231,51,Man
95,581608,DepthScenes,duration_manipulation_targetAtFixation,jsons/v1_VE250_randls_15.json,http://54.235.29.9/FacialAge/BNav_EC2/DepthDuration/v2_depth_duration_MTurk/v2_DepthDuration_HTML.html#73,73,1366,625,1366,768,9-3-2022,10-16-34,96,depth_duration_stimuli/000780_2014-06-08_22-28-29_260595134347_rgbf000126-resize_1/000780_2014-06-08_22-28-29_260595134347_rgbf000126-resize_1-target.png,250,3.3825,5,3233,251,meters,jsons/v1_VE250_randls_15.json,1184722,1919231,51,Man
96,581608,DepthScenes,duration_manipulation_targetAtFixation,jsons/v1_VE250_randls_15.json,http://54.235.29.9/FacialAge/BNav_EC2/DepthDuration/v2_depth_duration_MTurk/v2_DepthDuration_HTML.html#73,73,1366,625,1366,768,9-3-2022,10-16-34,97,depth_duration_stimuli/000788_2014-06-08_22-34-36_260595134347_rgbf000131-resize_1/000788_2014-06-08_22-34-36_260595134347_rgbf000131-resize_1-target.png,250,3.359,4,3280,250,meters,jsons/v1_VE250_randls_15.json,1184722,1919231,51,Man
97,581608,DepthScenes,duration_manipulation_targetAtFixation,jsons/v1_VE250_randls_15.json,http://54.235.29.9/FacialAge/BNav_EC2/DepthDuration/v2_depth_duration_MTurk/v2_DepthDuration_HTML.html#73,73,1366,625,1366,768,9-3-2022,10-16-34,98,depth_duration_stimuli/001235_2014-06-17_16-37-36_260595134347_rgbf000084-resize_4/001235_2014-06-17_16-37-36_260595134347_rgbf000084-resize_4-target.png,250,3.6605,4,186697,248,meters,jsons/v1_VE250_randls_15.json,1184722,1919231,51,Man
98,581608,DepthScenes,duration_manipulation_targetAtFixation,jsons/v1_VE250_randls_15.json,http://54.235.29.9/FacialAge/BNav_EC2/DepthDuration/v2_depth_duration_MTurk/v2_DepthDuration_HTML.html#73,73,1366,625,1366,768,9-3-2022,10-16-34,99,depth_duration_stimuli/001540_2014-06-20_17-01-05_260595134347_rgbf000086-resize_2/001540_2014-06-20_17-01-05_260595134347_rgbf000086-resize-original.jpg,250,1.459,0,3796,241,meters,jsons/v1_VE250_randls_15.json,1184722,1919231,51,Man
99,581608,DepthScenes,duration_manipulation_targetAtFixation,jsons/v1_VE250_randls_15.json,http://54.235.29.9/FacialAge/BNav_EC2/DepthDuration/v2_depth_duration_MTurk/v2_DepthDuration_HTML.html#73,73,1366,625,1366,768,9-3-2022,10-16-34,100,depth_duration_stimuli/000692_2014-06-08_13-09-42_260595134347_rgbf000199-resize_2/000692_2014-06-08_13-09-42_260595134347_rgbf000199-resize_2-target.png,250,3.661,5,4336,241,meters,jsons/v1_VE250_randls_15.json,1184722,1919231,51,Man
100,581608,DepthScenes,duration_manipulation_targetAtFixation,jsons/v1_VE250_randls_15.json,http://54.235.29.9/FacialAge/BNav_EC2/DepthDuration/v2_depth_duration_MTurk/v2_DepthDuration_HTML.html#73,73,1366,625,1366,768,9-3-2022,10-16-34,101,depth_duration_stimuli/001094_2014-06-15_17-36-00_260595134347_rgbf000205-resize_0/001094_2014-06-15_17-36-00_260595134347_rgbf000205-resize_0-target.png,250,4.2175,4,3181,234,meters,jsons/v1_VE250_randls_15.json,1184722,1919231,51,Man
101,581608,DepthScenes,duration_manipulation_targetAtFixation,jsons/v1_VE250_randls_15.json,http://54.235.29.9/FacialAge/BNav_EC2/DepthDuration/v2_depth_duration_MTurk/v2_DepthDuration_HTML.html#73,73,1366,625,1366,768,9-3-2022,10-16-34,102,depth_duration_stimuli/000810_2014-06-08_17-20-01_260595134347_rgbf000105-resize_0/000810_2014-06-08_17-20-01_260595134347_rgbf000105-resize_0-target.png,250,1.4865,3,3550,254,meters,jsons/v1_VE250_randls_15.json,1184722,1919231,51,Man
102,581608,DepthScenes,duration_manipulation_targetAtFixation,jsons/v1_VE250_randls_15.json,http://54.235.29.9/FacialAge/BNav_EC2/DepthDuration/v2_depth_duration_MTurk/v2_DepthDuration_HTML.html#73,73,1366,625,1366,768,9-3-2022,10-16-34,103,depth_duration_stimuli/001214_2014-06-17_16-13-55_260595134347_rgbf000111-resize_0/001214_2014-06-17_16-13-55_260595134347_rgbf000111-resize_0-target.png,250,2.6505,4,3625,259,meters,jsons/v1_VE250_randls_15.json,1184722,1919231,51,Man
103,581608,DepthScenes,duration_manipulation_targetAtFixation,jsons/v1_VE250_randls_15.json,http://54.235.29.9/FacialAge/BNav_EC2/DepthDuration/v2_depth_duration_MTurk/v2_DepthDuration_HTML.html#73,73,1366,625,1366,768,9-3-2022,10-16-34,104,depth_duration_stimuli/003292_2014-05-14_21-53-49_094959634447_rgbf000100-resize_2/003292_2014-05-14_21-53-49_094959634447_rgbf000100-resize_2-target.png,250,3.4815,4,4208,251,meters,jsons/v1_VE250_randls_15.json,1184722,1919231,51,Man
104,581608,DepthScenes,duration_manipulation_targetAtFixation,jsons/v1_VE250_randls_15.json,http://54.235.29.9/FacialAge/BNav_EC2/DepthDuration/v2_depth_duration_MTurk/v2_DepthDuration_HTML.html#73,73,1366,625,1366,768,9-3-2022,10-16-34,105,depth_duration_stimuli/002639_2014-06-24_14-51-37_094959634447_rgbf000074-resize_4/002639_2014-06-24_14-51-37_094959634447_rgbf000074-resize_4-target.png,250,4.0375,5,2905,256,meters,jsons/v1_VE250_randls_15.json,1184722,1919231,51,Man
105,581608,DepthScenes,duration_manipulation_targetAtFixation,jsons/v1_VE250_randls_15.json,http://54.235.29.9/FacialAge/BNav_EC2/DepthDuration/v2_depth_duration_MTurk/v2_DepthDuration_HTML.html#73,73,1366,625,1366,768,9-3-2022,10-16-34,106,depth_duration_stimuli/002118_2014-06-25_20-32-08_260595134347_rgbf000078-resize_1/002118_2014-06-25_20-32-08_260595134347_rgbf000078-resize_1-target.png,250,2.6460000000000004,4,5006,249,meters,jsons/v1_VE250_randls_15.json,1184722,1919231,51,Man
106,581608,DepthScenes,duration_manipulation_targetAtFixation,jsons/v1_VE250_randls_15.json,http://54.235.29.9/FacialAge/BNav_EC2/DepthDuration/v2_depth_duration_MTurk/v2_DepthDuration_HTML.html#73,73,1366,625,1366,768,9-3-2022,10-16-34,107,depth_duration_stimuli/001516_2014-06-20_16-25-09_260595134347_rgbf000076-resize_2/001516_2014-06-20_16-25-09_260595134347_rgbf000076-resize_2-target.png,250,1.7445,4,4350,264,meters,jsons/v1_VE250_randls_15.json,1184722,1919231,51,Man
107,581608,DepthScenes,duration_manipulation_targetAtFixation,jsons/v1_VE250_randls_15.json,http://54.235.29.9/FacialAge/BNav_EC2/DepthDuration/v2_depth_duration_MTurk/v2_DepthDuration_HTML.html#73,73,1366,625,1366,768,9-3-2022,10-16-34,108,depth_duration_stimuli/000469_2014-06-09_19-42-10_260595134347_rgbf000081-resize_1/000469_2014-06-09_19-42-10_260595134347_rgbf000081-resize_1-target.png,250,1.652,5,16194,246,meters,jsons/v1_VE250_randls_15.json,1184722,1919231,51,Man
108,581608,DepthScenes,duration_manipulation_targetAtFixation,jsons/v1_VE250_randls_15.json,http://54.235.29.9/FacialAge/BNav_EC2/DepthDuration/v2_depth_duration_MTurk/v2_DepthDuration_HTML.html#73,73,1366,625,1366,768,9-3-2022,10-16-34,109,depth_duration_stimuli/000483_2014-06-09_20-41-45_260595134347_rgbf000116-resize_4/000483_2014-06-09_20-41-45_260595134347_rgbf000116-resize_4-target.png,250,1.337,3,2899,242,meters,jsons/v1_VE250_randls_15.json,1184722,1919231,51,Man
109,581608,DepthScenes,duration_manipulation_targetAtFixation,jsons/v1_VE250_randls_15.json,http://54.235.29.9/FacialAge/BNav_EC2/DepthDuration/v2_depth_duration_MTurk/v2_DepthDuration_HTML.html#73,73,1366,625,1366,768,9-3-2022,10-16-34,110,depth_duration_stimuli/001056_2014-06-08_18-46-44_260595134347_rgbf000068-resize_0/001056_2014-06-08_18-46-44_260595134347_rgbf000068-resize_0-target.png,250,2.6625,5,11856,253,meters,jsons/v1_VE250_randls_15.json,1184722,1919231,51,Man
110,581608,DepthScenes,duration_manipulation_targetAtFixation,jsons/v1_VE250_randls_15.json,http://54.235.29.9/FacialAge/BNav_EC2/DepthDuration/v2_depth_duration_MTurk/v2_DepthDuration_HTML.html#73,73,1366,625,1366,768,9-3-2022,10-16-34,111,depth_duration_stimuli/002199_2014-06-28_18-33-56_260595134347_rgbf000074-resize_0/002199_2014-06-28_18-33-56_260595134347_rgbf000074-resize_0-target.png,250,1.996,3,3160,253,meters,jsons/v1_VE250_randls_15.json,1184722,1919231,51,Man
111,581608,DepthScenes,duration_manipulation_targetAtFixation,jsons/v1_VE250_randls_15.json,http://54.235.29.9/FacialAge/BNav_EC2/DepthDuration/v2_depth_duration_MTurk/v2_DepthDuration_HTML.html#73,73,1366,625,1366,768,9-3-2022,10-16-34,112,depth_duration_stimuli/000470_2014-06-09_19-42-40_260595134347_rgbf000094-resize_1/000470_2014-06-09_19-42-40_260595134347_rgbf000094-resize_1-target.png,250,1.831,4,4333,252,meters,jsons/v1_VE250_randls_15.json,1184722,1919231,51,Man
112,581608,DepthScenes,duration_manipulation_targetAtFixation,jsons/v1_VE250_randls_15.json,http://54.235.29.9/FacialAge/BNav_EC2/DepthDuration/v2_depth_duration_MTurk/v2_DepthDuration_HTML.html#73,73,1366,625,1366,768,9-3-2022,10-16-34,113,depth_duration_stimuli/000109_2014-05-14_23-41-52_260595134347_rgbf000035-resize_9/000109_2014-05-14_23-41-52_260595134347_rgbf000035-resize_9-target.png,250,1.3545,3,2969,240,meters,jsons/v1_VE250_randls_15.json,1184722,1919231,51,Man
113,581608,DepthScenes,duration_manipulation_targetAtFixation,jsons/v1_VE250_randls_15.json,http://54.235.29.9/FacialAge/BNav_EC2/DepthDuration/v2_depth_duration_MTurk/v2_DepthDuration_HTML.html#73,73,1366,625,1366,768,9-3-2022,10-16-34,114,depth_duration_stimuli/001059_2014-06-08_21-53-27_260595134347_rgbf000061-resize_4/001059_2014-06-08_21-53-27_260595134347_rgbf000061-resize_4-target.png,250,2.4185,4,3316,242,meters,jsons/v1_VE250_randls_15.json,1184722,1919231,51,Man
114,581608,DepthScenes,duration_manipulation_targetAtFixation,jsons/v1_VE250_randls_15.json,http://54.235.29.9/FacialAge/BNav_EC2/DepthDuration/v2_depth_duration_MTurk/v2_DepthDuration_HTML.html#73,73,1366,625,1366,768,9-3-2022,10-16-34,115,depth_duration_stimuli/001032_2014-06-08_13-23-17_260595134347_rgbf000021-resize_3/001032_2014-06-08_13-23-17_260595134347_rgbf000021-resize_3-target.png,250,3.2725,4,3071,238,meters,jsons/v1_VE250_randls_15.json,1184722,1919231,51,Man
115,581608,DepthScenes,duration_manipulation_targetAtFixation,jsons/v1_VE250_randls_15.json,http://54.235.29.9/FacialAge/BNav_EC2/DepthDuration/v2_depth_duration_MTurk/v2_DepthDuration_HTML.html#73,73,1366,625,1366,768,9-3-2022,10-16-34,116,depth_duration_stimuli/001170_2014-06-17_15-43-44_260595134347_rgbf000096-resize_6/001170_2014-06-17_15-43-44_260595134347_rgbf000096-resize-original.jpg,250,1.1909999999999998,0,3416,247,meters,jsons/v1_VE250_randls_15.json,1184722,1919231,51,Man
116,581608,DepthScenes,duration_manipulation_targetAtFixation,jsons/v1_VE250_randls_15.json,http://54.235.29.9/FacialAge/BNav_EC2/DepthDuration/v2_depth_duration_MTurk/v2_DepthDuration_HTML.html#73,73,1366,625,1366,768,9-3-2022,10-16-34,117,depth_duration_stimuli/002549_2014-06-24_13-41-39_094959634447_rgbf000022-resize_3/002549_2014-06-24_13-41-39_094959634447_rgbf000022-resize_3-target.png,250,1.476,5,3119,242,meters,jsons/v1_VE250_randls_15.json,1184722,1919231,51,Man
117,581608,DepthScenes,duration_manipulation_targetAtFixation,jsons/v1_VE250_randls_15.json,http://54.235.29.9/FacialAge/BNav_EC2/DepthDuration/v2_depth_duration_MTurk/v2_DepthDuration_HTML.html#73,73,1366,625,1366,768,9-3-2022,10-16-34,118,depth_duration_stimuli/002750_2014-06-22_19-08-03_094959634447_rgbf000094-resize_4/002750_2014-06-22_19-08-03_094959634447_rgbf000094-resize_4-target.png,250,2.354,4,3370,242,meters,jsons/v1_VE250_randls_15.json,1184722,1919231,51,Man
118,581608,DepthScenes,duration_manipulation_targetAtFixation,jsons/v1_VE250_randls_15.json,http://54.235.29.9/FacialAge/BNav_EC2/DepthDuration/v2_depth_duration_MTurk/v2_DepthDuration_HTML.html#73,73,1366,625,1366,768,9-3-2022,10-16-34,119,depth_duration_stimuli/001092_2014-06-15_17-34-58_260595134347_rgbf000171-resize_3/001092_2014-06-15_17-34-58_260595134347_rgbf000171-resize_3-target.png,250,2.6935,3,3136,240,meters,jsons/v1_VE250_randls_15.json,1184722,1919231,51,Man
119,581608,DepthScenes,duration_manipulation_targetAtFixation,jsons/v1_VE250_randls_15.json,http://54.235.29.9/FacialAge/BNav_EC2/DepthDuration/v2_depth_duration_MTurk/v2_DepthDuration_HTML.html#73,73,1366,625,1366,768,9-3-2022,10-16-34,120,depth_duration_stimuli/002545_2014-06-24_13-38-53_094959634447_rgbf000080-resize_4/002545_2014-06-24_13-38-53_094959634447_rgbf000080-resize_4-target.png,250,1.9205,4,3591,254,meters,jsons/v1_VE250_randls_15.json,1184722,1919231,51,Man
120,581608,DepthScenes,duration_manipulation_targetAtFixation,jsons/v1_VE250_randls_15.json,http://54.235.29.9/FacialAge/BNav_EC2/DepthDuration/v2_depth_duration_MTurk/v2_DepthDuration_HTML.html#73,73,1366,625,1366,768,9-3-2022,10-16-34,121,depth_duration_stimuli/001164_2014-06-17_15-35-46_260595134347_rgbf000085-resize_3/001164_2014-06-17_15-35-46_260595134347_rgbf000085-resize_3-target.png,250,2.354,4,4095,251,meters,jsons/v1_VE250_randls_15.json,1184722,1919231,51,Man
121,581608,DepthScenes,duration_manipulation_targetAtFixation,jsons/v1_VE250_randls_15.json,http://54.235.29.9/FacialAge/BNav_EC2/DepthDuration/v2_depth_duration_MTurk/v2_DepthDuration_HTML.html#73,73,1366,625,1366,768,9-3-2022,10-16-34,122,depth_duration_stimuli/001136_2014-06-17_15-19-41_260595134347_rgbf000076-resize_3/001136_2014-06-17_15-19-41_260595134347_rgbf000076-resize_3-target.png,250,1.8655,4,3829,252,meters,jsons/v1_VE250_randls_15.json,1184722,1919231,51,Man
122,581608,DepthScenes,duration_manipulation_targetAtFixation,jsons/v1_VE250_randls_15.json,http://54.235.29.9/FacialAge/BNav_EC2/DepthDuration/v2_depth_duration_MTurk/v2_DepthDuration_HTML.html#73,73,1366,625,1366,768,9-3-2022,10-16-34,123,depth_duration_stimuli/002043_2014-06-24_20-29-38_260595134347_rgbf000039-resize_4/002043_2014-06-24_20-29-38_260595134347_rgbf000039-resize_4-target.png,250,2.8435,3,3029,257,meters,jsons/v1_VE250_randls_15.json,1184722,1919231,51,Man
123,581608,DepthScenes,duration_manipulation_targetAtFixation,jsons/v1_VE250_randls_15.json,http://54.235.29.9/FacialAge/BNav_EC2/DepthDuration/v2_depth_duration_MTurk/v2_DepthDuration_HTML.html#73,73,1366,625,1366,768,9-3-2022,10-16-34,124,depth_duration_stimuli/003048_2014-06-15_13-49-43_094959634447_rgbf000150-resize_1/003048_2014-06-15_13-49-43_094959634447_rgbf000150-resize_1-target.png,250,4.0035,4,3376,252,meters,jsons/v1_VE250_randls_15.json,1184722,1919231,51,Man
124,581608,DepthScenes,duration_manipulation_targetAtFixation,jsons/v1_VE250_randls_15.json,http://54.235.29.9/FacialAge/BNav_EC2/DepthDuration/v2_depth_duration_MTurk/v2_DepthDuration_HTML.html#73,73,1366,625,1366,768,9-3-2022,10-16-34,125,depth_duration_stimuli/002039_2014-06-24_20-22-38_260595134347_rgbf000084-resize_1/002039_2014-06-24_20-22-38_260595134347_rgbf000084-resize_1-target.png,250,4.408,5,3265,273,meters,jsons/v1_VE250_randls_15.json,1184722,1919231,51,Man
125,581608,DepthScenes,duration_manipulation_targetAtFixation,jsons/v1_VE250_randls_15.json,http://54.235.29.9/FacialAge/BNav_EC2/DepthDuration/v2_depth_duration_MTurk/v2_DepthDuration_HTML.html#73,73,1366,625,1366,768,9-3-2022,10-16-34,126,depth_duration_stimuli/002103_2014-06-25_20-00-40_260595134347_rgbf000049-resize_0/002103_2014-06-25_20-00-40_260595134347_rgbf000049-resize_0-target.png,250,4.105,5,10542,249,meters,jsons/v1_VE250_randls_15.json,1184722,1919231,51,Man
126,581608,DepthScenes,duration_manipulation_targetAtFixation,jsons/v1_VE250_randls_15.json,http://54.235.29.9/FacialAge/BNav_EC2/DepthDuration/v2_depth_duration_MTurk/v2_DepthDuration_HTML.html#73,73,1366,625,1366,768,9-3-2022,10-16-34,127,depth_duration_stimuli/002213_2014-06-28_18-37-58_260595134347_rgbf000055-resize_1/002213_2014-06-28_18-37-58_260595134347_rgbf000055-resize_1-target.png,250,3.62,5,4110,246,meters,jsons/v1_VE250_randls_15.json,1184722,1919231,51,Man
127,581608,DepthScenes,duration_manipulation_targetAtFixation,jsons/v1_VE250_randls_15.json,http://54.235.29.9/FacialAge/BNav_EC2/DepthDuration/v2_depth_duration_MTurk/v2_DepthDuration_HTML.html#73,73,1366,625,1366,768,9-3-2022,10-16-34,128,depth_duration_stimuli/000691_2014-06-08_13-08-50_260595134347_rgbf000132-resize_3/000691_2014-06-08_13-08-50_260595134347_rgbf000132-resize_3-target.png,250,4.1530000000000005,6,3735,238,meters,jsons/v1_VE250_randls_15.json,1184722,1919231,51,Man
128,581608,DepthScenes,duration_manipulation_targetAtFixation,jsons/v1_VE250_randls_15.json,http://54.235.29.9/FacialAge/BNav_EC2/DepthDuration/v2_depth_duration_MTurk/v2_DepthDuration_HTML.html#73,73,1366,625,1366,768,9-3-2022,10-16-34,129,depth_duration_stimuli/000493_2014-06-09_21-01-18_260595134347_rgbf000196-resize_3/000493_2014-06-09_21-01-18_260595134347_rgbf000196-resize_3-target.png,250,3.44,5,11702,251,meters,jsons/v1_VE250_randls_15.json,1184722,1919231,51,Man
129,581608,DepthScenes,duration_manipulation_targetAtFixation,jsons/v1_VE250_randls_15.json,http://54.235.29.9/FacialAge/BNav_EC2/DepthDuration/v2_depth_duration_MTurk/v2_DepthDuration_HTML.html#73,73,1366,625,1366,768,9-3-2022,10-16-34,130,depth_duration_stimuli/000191_2014-05-12_17-07-38_260595134347_rgbf000199-resize_0/000191_2014-05-12_17-07-38_260595134347_rgbf000199-resize_0-target.png,250,3.7995,4,4053,247,meters,jsons/v1_VE250_randls_15.json,1184722,1919231,51,Man
130,581608,DepthScenes,duration_manipulation_targetAtFixation,jsons/v1_VE250_randls_15.json,http://54.235.29.9/FacialAge/BNav_EC2/DepthDuration/v2_depth_duration_MTurk/v2_DepthDuration_HTML.html#73,73,1366,625,1366,768,9-3-2022,10-16-34,131,depth_duration_stimuli/000447_2014-06-08_16-15-46_260595134347_rgbf000130-resize_1/000447_2014-06-08_16-15-46_260595134347_rgbf000130-resize_1-target.png,250,4.479,5,3446,252,meters,jsons/v1_VE250_randls_15.json,1184722,1919231,51,Man
131,581608,DepthScenes,duration_manipulation_targetAtFixation,jsons/v1_VE250_randls_15.json,http://54.235.29.9/FacialAge/BNav_EC2/DepthDuration/v2_depth_duration_MTurk/v2_DepthDuration_HTML.html#73,73,1366,625,1366,768,9-3-2022,10-16-34,132,depth_duration_stimuli/001447_2014-06-19_17-00-32_260595134347_rgbf000082-resize_5/001447_2014-06-19_17-00-32_260595134347_rgbf000082-resize_5-target.png,250,4.13775,5,3893,250,meters,jsons/v1_VE250_randls_15.json,1184722,1919231,51,Man
132,581608,DepthScenes,duration_manipulation_targetAtFixation,jsons/v1_VE250_randls_15.json,http://54.235.29.9/FacialAge/BNav_EC2/DepthDuration/v2_depth_duration_MTurk/v2_DepthDuration_HTML.html#73,73,1366,625,1366,768,9-3-2022,10-16-34,133,depth_duration_stimuli/001133_2014-06-17_14-49-16_260595134347_rgbf000100-resize_0/001133_2014-06-17_14-49-16_260595134347_rgbf000100-resize_0-target.png,250,4.2115,6,3327,250,meters,jsons/v1_VE250_randls_15.json,1184722,1919231,51,Man
133,581608,DepthScenes,duration_manipulation_targetAtFixation,jsons/v1_VE250_randls_15.json,http://54.235.29.9/FacialAge/BNav_EC2/DepthDuration/v2_depth_duration_MTurk/v2_DepthDuration_HTML.html#73,73,1366,625,1366,768,9-3-2022,10-16-34,134,depth_duration_stimuli/001132_2014-06-17_14-48-54_260595134347_rgbf000100-resize_2/001132_2014-06-17_14-48-54_260595134347_rgbf000100-resize_2-target.png,250,3.753,5,3395,249,meters,jsons/v1_VE250_randls_15.json,1184722,1919231,51,Man
134,581608,DepthScenes,duration_manipulation_targetAtFixation,jsons/v1_VE250_randls_15.json,http://54.235.29.9/FacialAge/BNav_EC2/DepthDuration/v2_depth_duration_MTurk/v2_DepthDuration_HTML.html#73,73,1366,625,1366,768,9-3-2022,10-16-34,135,depth_duration_stimuli/002072_2014-06-24_21-48-06_260595134347_rgbf000115-resize_0/002072_2014-06-24_21-48-06_260595134347_rgbf000115-resize-original.jpg,250,4.702,0,3283,252,meters,jsons/v1_VE250_randls_15.json,1184722,1919231,51,Man
135,581608,DepthScenes,duration_manipulation_targetAtFixation,jsons/v1_VE250_randls_15.json,http://54.235.29.9/FacialAge/BNav_EC2/DepthDuration/v2_depth_duration_MTurk/v2_DepthDuration_HTML.html#73,73,1366,625,1366,768,9-3-2022,10-16-34,136,depth_duration_stimuli/000758_2014-06-08_22-05-08_260595134347_rgbf000085-resize_0/000758_2014-06-08_22-05-08_260595134347_rgbf000085-resize_0-target.png,250,3.3810000000000002,4,3755,251,meters,jsons/v1_VE250_randls_15.json,1184722,1919231,51,Man
136,581608,DepthScenes,duration_manipulation_targetAtFixation,jsons/v1_VE250_randls_15.json,http://54.235.29.9/FacialAge/BNav_EC2/DepthDuration/v2_depth_duration_MTurk/v2_DepthDuration_HTML.html#73,73,1366,625,1366,768,9-3-2022,10-16-34,137,depth_duration_stimuli/000854_2014-06-09_19-43-13_260595134347_rgbf000066-resize_0/000854_2014-06-09_19-43-13_260595134347_rgbf000066-resize_0-target.png,250,3.068,5,4899,266,meters,jsons/v1_VE250_randls_15.json,1184722,1919231,51,Man
137,581608,DepthScenes,duration_manipulation_targetAtFixation,jsons/v1_VE250_randls_15.json,http://54.235.29.9/FacialAge/BNav_EC2/DepthDuration/v2_depth_duration_MTurk/v2_DepthDuration_HTML.html#73,73,1366,625,1366,768,9-3-2022,10-16-34,138,depth_duration_stimuli/000878_2014-06-08_22-52-45_260595134347_rgbf000045-resize_2/000878_2014-06-08_22-52-45_260595134347_rgbf000045-resize_2-target.png,250,2.092,6,3676,247,meters,jsons/v1_VE250_randls_15.json,1184722,1919231,51,Man
138,581608,DepthScenes,duration_manipulation_targetAtFixation,jsons/v1_VE250_randls_15.json,http://54.235.29.9/FacialAge/BNav_EC2/DepthDuration/v2_depth_duration_MTurk/v2_DepthDuration_HTML.html#73,73,1366,625,1366,768,9-3-2022,10-16-34,139,depth_duration_stimuli/002953_2014-06-08_17-32-18_094959634447_rgbf000059-resize_5/002953_2014-06-08_17-32-18_094959634447_rgbf000059-resize_5-target.png,250,1.551,4,3999,251,meters,jsons/v1_VE250_randls_15.json,1184722,1919231,51,Man
139,581608,DepthScenes,duration_manipulation_targetAtFixation,jsons/v1_VE250_randls_15.json,http://54.235.29.9/FacialAge/BNav_EC2/DepthDuration/v2_depth_duration_MTurk/v2_DepthDuration_HTML.html#73,73,1366,625,1366,768,9-3-2022,10-16-34,140,depth_duration_stimuli/001449_2014-06-19_17-01-27_260595134347_rgbf000116-resize_2/001449_2014-06-19_17-01-27_260595134347_rgbf000116-resize_2-target.png,250,3.452,4,4714,247,meters,jsons/v1_VE250_randls_15.json,1184722,1919231,51,Man
140,581608,DepthScenes,duration_manipulation_targetAtFixation,jsons/v1_VE250_randls_15.json,http://54.235.29.9/FacialAge/BNav_EC2/DepthDuration/v2_depth_duration_MTurk/v2_DepthDuration_HTML.html#73,73,1366,625,1366,768,9-3-2022,10-16-34,141,depth_duration_stimuli/001450_2014-06-19_17-02-03_260595134347_rgbf000203-resize_4/001450_2014-06-19_17-02-03_260595134347_rgbf000203-resize_4-target.png,250,4.0106666666667,4,3170,253,meters,jsons/v1_VE250_randls_15.json,1184722,1919231,51,Man
141,581608,DepthScenes,duration_manipulation_targetAtFixation,jsons/v1_VE250_randls_15.json,http://54.235.29.9/FacialAge/BNav_EC2/DepthDuration/v2_depth_duration_MTurk/v2_DepthDuration_HTML.html#73,73,1366,625,1366,768,9-3-2022,10-16-34,142,depth_duration_stimuli/002570_2014-06-24_13-59-54_094959634447_rgbf000059-resize_0/002570_2014-06-24_13-59-54_094959634447_rgbf000059-resize_0-target.png,250,4.037,4,4237,251,meters,jsons/v1_VE250_randls_15.json,1184722,1919231,51,Man
142,581608,DepthScenes,duration_manipulation_targetAtFixation,jsons/v1_VE250_randls_15.json,http://54.235.29.9/FacialAge/BNav_EC2/DepthDuration/v2_depth_duration_MTurk/v2_DepthDuration_HTML.html#73,73,1366,625,1366,768,9-3-2022,10-16-34,143,depth_duration_stimuli/002467_2014-06-28_20-38-07_260595134347_rgbf000026-resize_2/002467_2014-06-28_20-38-07_260595134347_rgbf000026-resize_2-target.png,250,4.742,4,4326,241,meters,jsons/v1_VE250_randls_15.json,1184722,1919231,51,Man
143,581608,DepthScenes,duration_manipulation_targetAtFixation,jsons/v1_VE250_randls_15.json,http://54.235.29.9/FacialAge/BNav_EC2/DepthDuration/v2_depth_duration_MTurk/v2_DepthDuration_HTML.html#73,73,1366,625,1366,768,9-3-2022,10-16-34,144,depth_duration_stimuli/000929_2014-06-09_16-33-19_260595134347_rgbf000139-resize_0/000929_2014-06-09_16-33-19_260595134347_rgbf000139-resize_0-target.png,250,2.8680000000000003,4,3321,241,meters,jsons/v1_VE250_randls_15.json,1184722,1919231,51,Man
144,581608,DepthScenes,duration_manipulation_targetAtFixation,jsons/v1_VE250_randls_15.json,http://54.235.29.9/FacialAge/BNav_EC2/DepthDuration/v2_depth_duration_MTurk/v2_DepthDuration_HTML.html#73,73,1366,625,1366,768,9-3-2022,10-16-34,145,depth_duration_stimuli/000457_2014-06-08_16-52-43_260595134347_rgbf000199-resize_1/000457_2014-06-08_16-52-43_260595134347_rgbf000199-resize_1-target.png,250,3.6489999999999996,5,3544,263,meters,jsons/v1_VE250_randls_15.json,1184722,1919231,51,Man
145,581608,DepthScenes,duration_manipulation_targetAtFixation,jsons/v1_VE250_randls_15.json,http://54.235.29.9/FacialAge/BNav_EC2/DepthDuration/v2_depth_duration_MTurk/v2_DepthDuration_HTML.html#73,73,1366,625,1366,768,9-3-2022,10-16-34,146,depth_duration_stimuli/001498_2014-06-19_17-45-14_260595134347_rgbf000129-resize_4/001498_2014-06-19_17-45-14_260595134347_rgbf000129-resize-original.jpg,250,1.4075,0,3544,244,meters,jsons/v1_VE250_randls_15.json,1184722,1919231,51,Man
146,581608,DepthScenes,duration_manipulation_targetAtFixation,jsons/v1_VE250_randls_15.json,http://54.235.29.9/FacialAge/BNav_EC2/DepthDuration/v2_depth_duration_MTurk/v2_DepthDuration_HTML.html#73,73,1366,625,1366,768,9-3-2022,10-16-34,147,depth_duration_stimuli/001029_2014-06-08_13-17-57_260595134347_rgbf000065-resize_1/001029_2014-06-08_13-17-57_260595134347_rgbf000065-resize_1-target.png,250,3.0835,4,4750,244,meters,jsons/v1_VE250_randls_15.json,1184722,1919231,51,Man
147,581608,DepthScenes,duration_manipulation_targetAtFixation,jsons/v1_VE250_randls_15.json,http://54.235.29.9/FacialAge/BNav_EC2/DepthDuration/v2_depth_duration_MTurk/v2_DepthDuration_HTML.html#73,73,1366,625,1366,768,9-3-2022,10-16-34,148,depth_duration_stimuli/000677_2014-06-08_23-10-32_260595134347_rgbf000158-resize_6/000677_2014-06-08_23-10-32_260595134347_rgbf000158-resize_6-target.png,250,3.556,5,4916,247,meters,jsons/v1_VE250_randls_15.json,1184722,1919231,51,Man
148,581608,DepthScenes,duration_manipulation_targetAtFixation,jsons/v1_VE250_randls_15.json,http://54.235.29.9/FacialAge/BNav_EC2/DepthDuration/v2_depth_duration_MTurk/v2_DepthDuration_HTML.html#73,73,1366,625,1366,768,9-3-2022,10-16-34,149,depth_duration_stimuli/002788_2014-06-22_19-36-03_094959634447_rgbf000088-resize_2/002788_2014-06-22_19-36-03_094959634447_rgbf000088-resize_2-target.png,250,1.6465,3,4089,253,meters,jsons/v1_VE250_randls_15.json,1184722,1919231,51,Man
149,581608,DepthScenes,duration_manipulation_targetAtFixation,jsons/v1_VE250_randls_15.json,http://54.235.29.9/FacialAge/BNav_EC2/DepthDuration/v2_depth_duration_MTurk/v2_DepthDuration_HTML.html#73,73,1366,625,1366,768,9-3-2022,10-16-34,150,depth_duration_stimuli/000749_2014-06-08_21-55-06_260595134347_rgbf000070-resize_2/000749_2014-06-08_21-55-06_260595134347_rgbf000070-resize_2-target.png,250,2.331,4,3350,236,meters,jsons/v1_VE250_randls_15.json,1184722,1919231,51,Man
150,581608,DepthScenes,duration_manipulation_targetAtFixation,jsons/v1_VE250_randls_15.json,http://54.235.29.9/FacialAge/BNav_EC2/DepthDuration/v2_depth_duration_MTurk/v2_DepthDuration_HTML.html#73,73,1366,625,1366,768,9-3-2022,10-16-34,151,depth_duration_stimuli/000739_2014-06-08_18-45-58_260595134347_rgbf000068-resize_1/000739_2014-06-08_18-45-58_260595134347_rgbf000068-resize_1-target.png,250,3.534,4,4557,249,meters,jsons/v1_VE250_randls_15.json,1184722,1919231,51,Man
151,581608,DepthScenes,duration_manipulation_targetAtFixation,jsons/v1_VE250_randls_15.json,http://54.235.29.9/FacialAge/BNav_EC2/DepthDuration/v2_depth_duration_MTurk/v2_DepthDuration_HTML.html#73,73,1366,625,1366,768,9-3-2022,10-16-34,152,depth_duration_stimuli/000734_2014-06-08_17-39-11_260595134347_rgbf000128-resize_2/000734_2014-06-08_17-39-11_260595134347_rgbf000128-resize_2-target.png,250,4.098,5,3625,236,meters,jsons/v1_VE250_randls_15.json,1184722,1919231,51,Man
152,581608,DepthScenes,duration_manipulation_targetAtFixation,jsons/v1_VE250_randls_15.json,http://54.235.29.9/FacialAge/BNav_EC2/DepthDuration/v2_depth_duration_MTurk/v2_DepthDuration_HTML.html#73,73,1366,625,1366,768,9-3-2022,10-16-34,153,depth_duration_stimuli/002784_2014-06-22_19-26-30_094959634447_rgbf000083-resize_3/002784_2014-06-22_19-26-30_094959634447_rgbf000083-resize_3-target.png,250,1.8046666666667,3,4879,245,meters,jsons/v1_VE250_randls_15.json,1184722,1919231,51,Man
153,581608,DepthScenes,duration_manipulation_targetAtFixation,jsons/v1_VE250_randls_15.json,http://54.235.29.9/FacialAge/BNav_EC2/DepthDuration/v2_depth_duration_MTurk/v2_DepthDuration_HTML.html#73,73,1366,625,1366,768,9-3-2022,10-16-34,154,depth_duration_stimuli/001100_2014-06-15_17-46-26_260595134347_rgbf000225-resize_2/001100_2014-06-15_17-46-26_260595134347_rgbf000225-resize_2-target.png,250,2.24,4,4058,248,meters,jsons/v1_VE250_randls_15.json,1184722,1919231,51,Man
154,581608,DepthScenes,duration_manipulation_targetAtFixation,jsons/v1_VE250_randls_15.json,http://54.235.29.9/FacialAge/BNav_EC2/DepthDuration/v2_depth_duration_MTurk/v2_DepthDuration_HTML.html#73,73,1366,625,1366,768,9-3-2022,10-16-34,155,depth_duration_stimuli/001570_2014-06-20_17-21-09_260595134347_rgbf000135-resize_4/001570_2014-06-20_17-21-09_260595134347_rgbf000135-resize_4-target.png,250,4.467,5,3201,240,meters,jsons/v1_VE250_randls_15.json,1184722,1919231,51,Man
155,581608,DepthScenes,duration_manipulation_targetAtFixation,jsons/v1_VE250_randls_15.json,http://54.235.29.9/FacialAge/BNav_EC2/DepthDuration/v2_depth_duration_MTurk/v2_DepthDuration_HTML.html#73,73,1366,625,1366,768,9-3-2022,10-16-34,156,depth_duration_stimuli/001392_2014-06-19_16-07-59_260595134347_rgbf000046-resize_1/001392_2014-06-19_16-07-59_260595134347_rgbf000046-resize_1-target.png,250,4.135,4,3224,250,meters,jsons/v1_VE250_randls_15.json,1184722,1919231,51,Man
156,581608,DepthScenes,duration_manipulation_targetAtFixation,jsons/v1_VE250_randls_15.json,http://54.235.29.9/FacialAge/BNav_EC2/DepthDuration/v2_depth_duration_MTurk/v2_DepthDuration_HTML.html#73,73,1366,625,1366,768,9-3-2022,10-16-34,157,depth_duration_stimuli/000906_2014-06-08_13-35-43_260595134347_rgbf000155-resize_1/000906_2014-06-08_13-35-43_260595134347_rgbf000155-resize_1-target.png,250,2.8489999999999998,4,3013,248,meters,jsons/v1_VE250_randls_15.json,1184722,1919231,51,Man
157,581608,DepthScenes,duration_manipulation_targetAtFixation,jsons/v1_VE250_randls_15.json,http://54.235.29.9/FacialAge/BNav_EC2/DepthDuration/v2_depth_duration_MTurk/v2_DepthDuration_HTML.html#73,73,1366,625,1366,768,9-3-2022,10-16-34,158,depth_duration_stimuli/002805_2014-06-22_19-54-03_094959634447_rgbf000079-resize_1/002805_2014-06-22_19-54-03_094959634447_rgbf000079-resize_1-target.png,250,3.1439999999999997,5,3023,247,meters,jsons/v1_VE250_randls_15.json,1184722,1919231,51,Man
158,581608,DepthScenes,duration_manipulation_targetAtFixation,jsons/v1_VE250_randls_15.json,http://54.235.29.9/FacialAge/BNav_EC2/DepthDuration/v2_depth_duration_MTurk/v2_DepthDuration_HTML.html#73,73,1366,625,1366,768,9-3-2022,10-16-34,159,depth_duration_stimuli/001175_2014-06-17_15-45-55_260595134347_rgbf000129-resize_4/001175_2014-06-17_15-45-55_260595134347_rgbf000129-resize_4-target.png,250,4.255,4,3096,254,meters,jsons/v1_VE250_randls_15.json,1184722,1919231,51,Man
159,581608,DepthScenes,duration_manipulation_targetAtFixation,jsons/v1_VE250_randls_15.json,http://54.235.29.9/FacialAge/BNav_EC2/DepthDuration/v2_depth_duration_MTurk/v2_DepthDuration_HTML.html#73,73,1366,625,1366,768,9-3-2022,10-16-34,160,depth_duration_stimuli/003490_2014-05-21_15-50-11_094959634447_rgbf000101-resize_3/003490_2014-05-21_15-50-11_094959634447_rgbf000101-resize_3-target.png,250,3.6445,5,3765,251,meters,jsons/v1_VE250_randls_15.json,1184722,1919231,51,Man
160,581608,DepthScenes,duration_manipulation_targetAtFixation,jsons/v1_VE250_randls_15.json,http://54.235.29.9/FacialAge/BNav_EC2/DepthDuration/v2_depth_duration_MTurk/v2_DepthDuration_HTML.html#73,73,1366,625,1366,768,9-3-2022,10-16-34,161,depth_duration_stimuli/002057_2014-06-24_21-00-13_260595134347_rgbf000120-resize_1/002057_2014-06-24_21-00-13_260595134347_rgbf000120-resize_1-target.png,250,2.967,4,2992,245,meters,jsons/v1_VE250_randls_15.json,1184722,1919231,51,Man
161,581608,DepthScenes,duration_manipulation_targetAtFixation,jsons/v1_VE250_randls_15.json,http://54.235.29.9/FacialAge/BNav_EC2/DepthDuration/v2_depth_duration_MTurk/v2_DepthDuration_HTML.html#73,73,1366,625,1366,768,9-3-2022,10-16-34,162,depth_duration_stimuli/000709_2014-06-08_13-51-55_260595134347_rgbf000068-resize_3/000709_2014-06-08_13-51-55_260595134347_rgbf000068-resize_3-target.png,250,1.8030000000000002,5,72926,251,meters,jsons/v1_VE250_randls_15.json,1184722,1919231,51,Man
162,581608,DepthScenes,duration_manipulation_targetAtFixation,jsons/v1_VE250_randls_15.json,http://54.235.29.9/FacialAge/BNav_EC2/DepthDuration/v2_depth_duration_MTurk/v2_DepthDuration_HTML.html#73,73,1366,625,1366,768,9-3-2022,10-16-34,163,depth_duration_stimuli/002663_2014-06-13_15-50-26_094959634447_rgbf000075-resize_1/002663_2014-06-13_15-50-26_094959634447_rgbf000075-resize_1-target.png,250,4.7495,4,3004,247,meters,jsons/v1_VE250_randls_15.json,1184722,1919231,51,Man
163,581608,DepthScenes,duration_manipulation_targetAtFixation,jsons/v1_VE250_randls_15.json,http://54.235.29.9/FacialAge/BNav_EC2/DepthDuration/v2_depth_duration_MTurk/v2_DepthDuration_HTML.html#73,73,1366,625,1366,768,9-3-2022,10-16-34,164,depth_duration_stimuli/000409_2014-06-04_19-23-33_260595134347_rgbf000067-resize_0/000409_2014-06-04_19-23-33_260595134347_rgbf000067-resize_0-target.png,250,3.7335,5,3339,243,meters,jsons/v1_VE250_randls_15.json,1184722,1919231,51,Man
