,subjID,experimentName,versionName,sequenceName,url,selected_row,windowWidth,windowHeight,screenWidth,screenHeight,startDate,startTime,trial,stimulus,duration,actual_depth,depth_estimate,trial_RT,log_sceneDuration,unitSelection,seq_filepath,experimentTime,totalTime,age,gender
0,584982,DepthScenes,duration_manipulation_targetAtFixation,jsons/VE125_randls_29.json,http://54.235.29.9/FacialAge/BNav_EC2/DepthDuration/v2_depth_duration_MTurk/v2_DepthDuration_HTML.html#52,52,1364,768,1364,768,8-21-2022,6-36-8,1,depth_duration_stimuli/000486_2014-06-09_20-47-20_260595134347_rgbf000143-resize_2/000486_2014-06-09_20-47-20_260595134347_rgbf000143-resize_2-target.png,125,4.8325,2,29359,125,feet,jsons/VE125_randls_29.json,2589936,3128854,47,Man
1,584982,DepthScenes,duration_manipulation_targetAtFixation,jsons/VE125_randls_29.json,http://54.235.29.9/FacialAge/BNav_EC2/DepthDuration/v2_depth_duration_MTurk/v2_DepthDuration_HTML.html#52,52,1364,768,1364,768,8-21-2022,6-36-8,2,depth_duration_stimuli/003083_2014-06-15_15-21-03_094959634447_rgbf000063-resize_1/003083_2014-06-15_15-21-03_094959634447_rgbf000063-resize_1-target.png,125,4.1405,1,22009,125,feet,jsons/VE125_randls_29.json,2589936,3128854,47,Man
2,584982,DepthScenes,duration_manipulation_targetAtFixation,jsons/VE125_randls_29.json,http://54.235.29.9/FacialAge/BNav_EC2/DepthDuration/v2_depth_duration_MTurk/v2_DepthDuration_HTML.html#52,52,1364,768,1364,768,8-21-2022,6-36-8,3,depth_duration_stimuli/001158_2014-06-17_15-32-16_260595134347_rgbf000138-resize_2/001158_2014-06-17_15-32-16_260595134347_rgbf000138-resize_2-target.png,125,4.5315,0,27683,125,feet,jsons/VE125_randls_29.json,2589936,3128854,47,Man
3,584982,DepthScenes,duration_manipulation_targetAtFixation,jsons/VE125_randls_29.json,http://54.235.29.9/FacialAge/BNav_EC2/DepthDuration/v2_depth_duration_MTurk/v2_DepthDuration_HTML.html#52,52,1364,768,1364,768,8-21-2022,6-36-8,4,depth_duration_stimuli/000556_2014-06-09_22-42-56_260595134347_rgbf000214-resize_1/000556_2014-06-09_22-42-56_260595134347_rgbf000214-resize_1-target.png,125,4.8415,1,9757,124,feet,jsons/VE125_randls_29.json,2589936,3128854,47,Man
4,584982,DepthScenes,duration_manipulation_targetAtFixation,jsons/VE125_randls_29.json,http://54.235.29.9/FacialAge/BNav_EC2/DepthDuration/v2_depth_duration_MTurk/v2_DepthDuration_HTML.html#52,52,1364,768,1364,768,8-21-2022,6-36-8,5,depth_duration_stimuli/003492_2014-05-21_15-50-55_094959634447_rgbf000828-resize_1/003492_2014-05-21_15-50-55_094959634447_rgbf000828-resize_1-target.png,125,4.06875,0,18499,125,feet,jsons/VE125_randls_29.json,2589936,3128854,47,Man
5,584982,DepthScenes,duration_manipulation_targetAtFixation,jsons/VE125_randls_29.json,http://54.235.29.9/FacialAge/BNav_EC2/DepthDuration/v2_depth_duration_MTurk/v2_DepthDuration_HTML.html#52,52,1364,768,1364,768,8-21-2022,6-36-8,6,depth_duration_stimuli/002568_2014-06-24_13-59-21_094959634447_rgbf000062-resize_4/002568_2014-06-24_13-59-21_094959634447_rgbf000062-resize_4-target.png,125,3.015,1,14944,126,feet,jsons/VE125_randls_29.json,2589936,3128854,47,Man
6,584982,DepthScenes,duration_manipulation_targetAtFixation,jsons/VE125_randls_29.json,http://54.235.29.9/FacialAge/BNav_EC2/DepthDuration/v2_depth_duration_MTurk/v2_DepthDuration_HTML.html#52,52,1364,657,1364,768,8-21-2022,6-36-8,7,depth_duration_stimuli/001029_2014-06-08_13-17-57_260595134347_rgbf000065-resize_1/001029_2014-06-08_13-17-57_260595134347_rgbf000065-resize_1-target.png,125,3.0835,0,36234,125,feet,jsons/VE125_randls_29.json,2589936,3128854,47,Man
7,584982,DepthScenes,duration_manipulation_targetAtFixation,jsons/VE125_randls_29.json,http://54.235.29.9/FacialAge/BNav_EC2/DepthDuration/v2_depth_duration_MTurk/v2_DepthDuration_HTML.html#52,52,1364,657,1364,768,8-21-2022,6-36-8,8,depth_duration_stimuli/000677_2014-06-08_23-10-32_260595134347_rgbf000158-resize_6/000677_2014-06-08_23-10-32_260595134347_rgbf000158-resize_6-target.png,125,3.556,1,13067,123,feet,jsons/VE125_randls_29.json,2589936,3128854,47,Man
8,584982,DepthScenes,duration_manipulation_targetAtFixation,jsons/VE125_randls_29.json,http://54.235.29.9/FacialAge/BNav_EC2/DepthDuration/v2_depth_duration_MTurk/v2_DepthDuration_HTML.html#52,52,1364,657,1364,768,8-21-2022,6-36-8,9,depth_duration_stimuli/000493_2014-06-09_21-01-18_260595134347_rgbf000196-resize_3/000493_2014-06-09_21-01-18_260595134347_rgbf000196-resize_3-target.png,125,3.44,0,36646,124,feet,jsons/VE125_randls_29.json,2589936,3128854,47,Man
9,584982,DepthScenes,duration_manipulation_targetAtFixation,jsons/VE125_randls_29.json,http://54.235.29.9/FacialAge/BNav_EC2/DepthDuration/v2_depth_duration_MTurk/v2_DepthDuration_HTML.html#52,52,1364,768,1364,768,8-21-2022,6-36-8,10,depth_duration_stimuli/000191_2014-05-12_17-07-38_260595134347_rgbf000199-resize_0/000191_2014-05-12_17-07-38_260595134347_rgbf000199-resize_0-target.png,125,3.7995,2,9959,125,feet,jsons/VE125_randls_29.json,2589936,3128854,47,Man
10,584982,DepthScenes,duration_manipulation_targetAtFixation,jsons/VE125_randls_29.json,http://54.235.29.9/FacialAge/BNav_EC2/DepthDuration/v2_depth_duration_MTurk/v2_DepthDuration_HTML.html#52,52,1364,768,1364,768,8-21-2022,6-36-8,11,depth_duration_stimuli/000368_2014-06-09_15-53-01_260595134347_rgbf000155-resize_2/000368_2014-06-09_15-53-01_260595134347_rgbf000155-resize_2-target.png,125,2.4859999999999998,2,25640,124,feet,jsons/VE125_randls_29.json,2589936,3128854,47,Man
11,584982,DepthScenes,duration_manipulation_targetAtFixation,jsons/VE125_randls_29.json,http://54.235.29.9/FacialAge/BNav_EC2/DepthDuration/v2_depth_duration_MTurk/v2_DepthDuration_HTML.html#52,52,1364,768,1364,768,8-21-2022,6-36-8,12,depth_duration_stimuli/002678_2014-06-13_16-15-32_094959634447_rgbf000151-resize_6/002678_2014-06-13_16-15-32_094959634447_rgbf000151-resize_6-target.png,125,2.1830000000000003,3,16448,123,feet,jsons/VE125_randls_29.json,2589936,3128854,47,Man
12,584982,DepthScenes,duration_manipulation_targetAtFixation,jsons/VE125_randls_29.json,http://54.235.29.9/FacialAge/BNav_EC2/DepthDuration/v2_depth_duration_MTurk/v2_DepthDuration_HTML.html#52,52,1364,768,1364,768,8-21-2022,6-36-8,13,depth_duration_stimuli/000569_2014-06-09_22-51-47_260595134347_rgbf000141-resize_3/000569_2014-06-09_22-51-47_260595134347_rgbf000141-resize-original.jpg,125,4.512,4,11723,123,feet,jsons/VE125_randls_29.json,2589936,3128854,47,Man
13,584982,DepthScenes,duration_manipulation_targetAtFixation,jsons/VE125_randls_29.json,http://54.235.29.9/FacialAge/BNav_EC2/DepthDuration/v2_depth_duration_MTurk/v2_DepthDuration_HTML.html#52,52,1364,768,1364,768,8-21-2022,6-36-8,14,depth_duration_stimuli/002445_2014-06-28_20-32-16_260595134347_rgbf000029-resize_4/002445_2014-06-28_20-32-16_260595134347_rgbf000029-resize_4-target.png,125,2.5315,4,8567,124,feet,jsons/VE125_randls_29.json,2589936,3128854,47,Man
14,584982,DepthScenes,duration_manipulation_targetAtFixation,jsons/VE125_randls_29.json,http://54.235.29.9/FacialAge/BNav_EC2/DepthDuration/v2_depth_duration_MTurk/v2_DepthDuration_HTML.html#52,52,1364,768,1364,768,8-21-2022,6-36-8,15,depth_duration_stimuli/000780_2014-06-08_22-28-29_260595134347_rgbf000126-resize_1/000780_2014-06-08_22-28-29_260595134347_rgbf000126-resize_1-target.png,125,3.3825,0,37065,125,feet,jsons/VE125_randls_29.json,2589936,3128854,47,Man
15,584982,DepthScenes,duration_manipulation_targetAtFixation,jsons/VE125_randls_29.json,http://54.235.29.9/FacialAge/BNav_EC2/DepthDuration/v2_depth_duration_MTurk/v2_DepthDuration_HTML.html#52,52,1364,768,1364,768,8-21-2022,6-36-8,16,depth_duration_stimuli/003621_2014-05-23_18-06-08_094959634447_rgbf000101-resize_1/003621_2014-05-23_18-06-08_094959634447_rgbf000101-resize_1-target.png,125,3.9835,0,52131,125,feet,jsons/VE125_randls_29.json,2589936,3128854,47,Man
16,584982,DepthScenes,duration_manipulation_targetAtFixation,jsons/VE125_randls_29.json,http://54.235.29.9/FacialAge/BNav_EC2/DepthDuration/v2_depth_duration_MTurk/v2_DepthDuration_HTML.html#52,52,1364,768,1364,768,8-21-2022,6-36-8,17,depth_duration_stimuli/001584_2014-06-20_11-07-43_260595134347_rgbf000002-resize_1/001584_2014-06-20_11-07-43_260595134347_rgbf000002-resize_1-target.png,125,3.53,2,15856,124,feet,jsons/VE125_randls_29.json,2589936,3128854,47,Man
17,584982,DepthScenes,duration_manipulation_targetAtFixation,jsons/VE125_randls_29.json,http://54.235.29.9/FacialAge/BNav_EC2/DepthDuration/v2_depth_duration_MTurk/v2_DepthDuration_HTML.html#52,52,1364,768,1364,768,8-21-2022,6-36-8,18,depth_duration_stimuli/003534_2014-05-22_15-06-10_094959634447_rgbf000102-resize_4/003534_2014-05-22_15-06-10_094959634447_rgbf000102-resize_4-target.png,125,1.426,0,42825,124,feet,jsons/VE125_randls_29.json,2589936,3128854,47,Man
18,584982,DepthScenes,duration_manipulation_targetAtFixation,jsons/VE125_randls_29.json,http://54.235.29.9/FacialAge/BNav_EC2/DepthDuration/v2_depth_duration_MTurk/v2_DepthDuration_HTML.html#52,52,1364,768,1364,768,8-21-2022,6-36-8,19,depth_duration_stimuli/002637_2014-06-24_14-51-13_094959634447_rgbf000066-resize_4/002637_2014-06-24_14-51-13_094959634447_rgbf000066-resize_4-target.png,125,1.9955,4,9764,125,feet,jsons/VE125_randls_29.json,2589936,3128854,47,Man
19,584982,DepthScenes,duration_manipulation_targetAtFixation,jsons/VE125_randls_29.json,http://54.235.29.9/FacialAge/BNav_EC2/DepthDuration/v2_depth_duration_MTurk/v2_DepthDuration_HTML.html#52,52,1364,768,1364,768,8-21-2022,6-36-8,20,depth_duration_stimuli/002549_2014-06-24_13-41-39_094959634447_rgbf000022-resize_3/002549_2014-06-24_13-41-39_094959634447_rgbf000022-resize_3-target.png,125,1.476,0,51051,123,feet,jsons/VE125_randls_29.json,2589936,3128854,47,Man
20,584982,DepthScenes,duration_manipulation_targetAtFixation,jsons/VE125_randls_29.json,http://54.235.29.9/FacialAge/BNav_EC2/DepthDuration/v2_depth_duration_MTurk/v2_DepthDuration_HTML.html#52,52,1364,768,1364,768,8-21-2022,6-36-8,21,depth_duration_stimuli/002750_2014-06-22_19-08-03_094959634447_rgbf000094-resize_4/002750_2014-06-22_19-08-03_094959634447_rgbf000094-resize_4-target.png,125,2.354,0,14778,125,feet,jsons/VE125_randls_29.json,2589936,3128854,47,Man
21,584982,DepthScenes,duration_manipulation_targetAtFixation,jsons/VE125_randls_29.json,http://54.235.29.9/FacialAge/BNav_EC2/DepthDuration/v2_depth_duration_MTurk/v2_DepthDuration_HTML.html#52,52,1364,768,1364,768,8-21-2022,6-36-8,22,depth_duration_stimuli/001175_2014-06-17_15-45-55_260595134347_rgbf000129-resize_4/001175_2014-06-17_15-45-55_260595134347_rgbf000129-resize_4-target.png,125,4.255,22,28796,101,feet,jsons/VE125_randls_29.json,2589936,3128854,47,Man
22,584982,DepthScenes,duration_manipulation_targetAtFixation,jsons/VE125_randls_29.json,http://54.235.29.9/FacialAge/BNav_EC2/DepthDuration/v2_depth_duration_MTurk/v2_DepthDuration_HTML.html#52,52,1364,768,1364,768,8-21-2022,6-36-8,23,depth_duration_stimuli/003490_2014-05-21_15-50-11_094959634447_rgbf000101-resize_3/003490_2014-05-21_15-50-11_094959634447_rgbf000101-resize_3-target.png,125,3.6445,0,62339,124,feet,jsons/VE125_randls_29.json,2589936,3128854,47,Man
23,584982,DepthScenes,duration_manipulation_targetAtFixation,jsons/VE125_randls_29.json,http://54.235.29.9/FacialAge/BNav_EC2/DepthDuration/v2_depth_duration_MTurk/v2_DepthDuration_HTML.html#52,52,1364,768,1364,768,8-21-2022,6-36-8,24,depth_duration_stimuli/001164_2014-06-17_15-35-46_260595134347_rgbf000085-resize_3/001164_2014-06-17_15-35-46_260595134347_rgbf000085-resize_3-target.png,125,2.354,0,45035,126,feet,jsons/VE125_randls_29.json,2589936,3128854,47,Man
24,584982,DepthScenes,duration_manipulation_targetAtFixation,jsons/VE125_randls_29.json,http://54.235.29.9/FacialAge/BNav_EC2/DepthDuration/v2_depth_duration_MTurk/v2_DepthDuration_HTML.html#52,52,1364,768,1364,768,8-21-2022,6-36-8,25,depth_duration_stimuli/001136_2014-06-17_15-19-41_260595134347_rgbf000076-resize_3/001136_2014-06-17_15-19-41_260595134347_rgbf000076-resize_3-target.png,125,1.8655,2,32481,124,feet,jsons/VE125_randls_29.json,2589936,3128854,47,Man
25,584982,DepthScenes,duration_manipulation_targetAtFixation,jsons/VE125_randls_29.json,http://54.235.29.9/FacialAge/BNav_EC2/DepthDuration/v2_depth_duration_MTurk/v2_DepthDuration_HTML.html#52,52,1364,768,1364,768,8-21-2022,6-36-8,26,depth_duration_stimuli/002213_2014-06-28_18-37-58_260595134347_rgbf000055-resize_1/002213_2014-06-28_18-37-58_260595134347_rgbf000055-resize_1-target.png,125,3.62,4,6270,126,feet,jsons/VE125_randls_29.json,2589936,3128854,47,Man
26,584982,DepthScenes,duration_manipulation_targetAtFixation,jsons/VE125_randls_29.json,http://54.235.29.9/FacialAge/BNav_EC2/DepthDuration/v2_depth_duration_MTurk/v2_DepthDuration_HTML.html#52,52,1364,768,1364,768,8-21-2022,6-36-8,27,depth_duration_stimuli/000691_2014-06-08_13-08-50_260595134347_rgbf000132-resize_3/000691_2014-06-08_13-08-50_260595134347_rgbf000132-resize_3-target.png,125,4.1530000000000005,0,29206,124,feet,jsons/VE125_randls_29.json,2589936,3128854,47,Man
27,584982,DepthScenes,duration_manipulation_targetAtFixation,jsons/VE125_randls_29.json,http://54.235.29.9/FacialAge/BNav_EC2/DepthDuration/v2_depth_duration_MTurk/v2_DepthDuration_HTML.html#52,52,1364,768,1364,768,8-21-2022,6-36-8,28,depth_duration_stimuli/000692_2014-06-08_13-09-42_260595134347_rgbf000199-resize_2/000692_2014-06-08_13-09-42_260595134347_rgbf000199-resize_2-target.png,125,3.661,0,21500,124,feet,jsons/VE125_randls_29.json,2589936,3128854,47,Man
28,584982,DepthScenes,duration_manipulation_targetAtFixation,jsons/VE125_randls_29.json,http://54.235.29.9/FacialAge/BNav_EC2/DepthDuration/v2_depth_duration_MTurk/v2_DepthDuration_HTML.html#52,52,1364,768,1364,768,8-21-2022,6-36-8,29,depth_duration_stimuli/001094_2014-06-15_17-36-00_260595134347_rgbf000205-resize_0/001094_2014-06-15_17-36-00_260595134347_rgbf000205-resize_0-target.png,125,4.2175,1,4997,124,feet,jsons/VE125_randls_29.json,2589936,3128854,47,Man
29,584982,DepthScenes,duration_manipulation_targetAtFixation,jsons/VE125_randls_29.json,http://54.235.29.9/FacialAge/BNav_EC2/DepthDuration/v2_depth_duration_MTurk/v2_DepthDuration_HTML.html#52,52,1364,768,1364,768,8-21-2022,6-36-8,30,depth_duration_stimuli/000375_2014-06-08_11-17-29_260595134347_rgbf000133-resize_2/000375_2014-06-08_11-17-29_260595134347_rgbf000133-resize-original.jpg,125,4.718,1,4098,125,feet,jsons/VE125_randls_29.json,2589936,3128854,47,Man
30,584982,DepthScenes,duration_manipulation_targetAtFixation,jsons/VE125_randls_29.json,http://54.235.29.9/FacialAge/BNav_EC2/DepthDuration/v2_depth_duration_MTurk/v2_DepthDuration_HTML.html#52,52,1364,768,1364,768,8-21-2022,6-36-8,31,depth_duration_stimuli/002988_2014-06-15_12-24-20_094959634447_rgbf000150-resize_1/002988_2014-06-15_12-24-20_094959634447_rgbf000150-resize_1-target.png,125,4.7669999999999995,4,6518,126,feet,jsons/VE125_randls_29.json,2589936,3128854,47,Man
31,584982,DepthScenes,duration_manipulation_targetAtFixation,jsons/VE125_randls_29.json,http://54.235.29.9/FacialAge/BNav_EC2/DepthDuration/v2_depth_duration_MTurk/v2_DepthDuration_HTML.html#52,52,1364,768,1364,768,8-21-2022,6-36-8,32,depth_duration_stimuli/001052_2014-06-08_18-24-54_260595134347_rgbf000130-resize_1/001052_2014-06-08_18-24-54_260595134347_rgbf000130-resize_1-target.png,125,4.1045,2,23720,117,feet,jsons/VE125_randls_29.json,2589936,3128854,47,Man
32,584982,DepthScenes,duration_manipulation_targetAtFixation,jsons/VE125_randls_29.json,http://54.235.29.9/FacialAge/BNav_EC2/DepthDuration/v2_depth_duration_MTurk/v2_DepthDuration_HTML.html#52,52,1364,768,1364,768,8-21-2022,6-36-8,33,depth_duration_stimuli/002057_2014-06-24_21-00-13_260595134347_rgbf000120-resize_1/002057_2014-06-24_21-00-13_260595134347_rgbf000120-resize_1-target.png,125,2.967,1,17869,125,feet,jsons/VE125_randls_29.json,2589936,3128854,47,Man
33,584982,DepthScenes,duration_manipulation_targetAtFixation,jsons/VE125_randls_29.json,http://54.235.29.9/FacialAge/BNav_EC2/DepthDuration/v2_depth_duration_MTurk/v2_DepthDuration_HTML.html#52,52,1364,768,1364,768,8-21-2022,6-36-8,34,depth_duration_stimuli/000709_2014-06-08_13-51-55_260595134347_rgbf000068-resize_3/000709_2014-06-08_13-51-55_260595134347_rgbf000068-resize_3-target.png,125,1.8030000000000002,2,10889,124,feet,jsons/VE125_randls_29.json,2589936,3128854,47,Man
34,584982,DepthScenes,duration_manipulation_targetAtFixation,jsons/VE125_randls_29.json,http://54.235.29.9/FacialAge/BNav_EC2/DepthDuration/v2_depth_duration_MTurk/v2_DepthDuration_HTML.html#52,52,1364,768,1364,768,8-21-2022,6-36-8,35,depth_duration_stimuli/001092_2014-06-15_17-34-58_260595134347_rgbf000171-resize_3/001092_2014-06-15_17-34-58_260595134347_rgbf000171-resize_3-target.png,125,2.6935,0,40608,125,feet,jsons/VE125_randls_29.json,2589936,3128854,47,Man
35,584982,DepthScenes,duration_manipulation_targetAtFixation,jsons/VE125_randls_29.json,http://54.235.29.9/FacialAge/BNav_EC2/DepthDuration/v2_depth_duration_MTurk/v2_DepthDuration_HTML.html#52,52,1364,768,1364,768,8-21-2022,6-36-8,36,depth_duration_stimuli/002545_2014-06-24_13-38-53_094959634447_rgbf000080-resize_4/002545_2014-06-24_13-38-53_094959634447_rgbf000080-resize_4-target.png,125,1.9205,1,14780,125,feet,jsons/VE125_randls_29.json,2589936,3128854,47,Man
36,584982,DepthScenes,duration_manipulation_targetAtFixation,jsons/VE125_randls_29.json,http://54.235.29.9/FacialAge/BNav_EC2/DepthDuration/v2_depth_duration_MTurk/v2_DepthDuration_HTML.html#52,52,1364,768,1364,768,8-21-2022,6-36-8,37,depth_duration_stimuli/001055_2014-06-08_18-45-35_260595134347_rgbf000111-resize_4/001055_2014-06-08_18-45-35_260595134347_rgbf000111-resize_4-target.png,125,2.4290000000000003,2,19169,124,feet,jsons/VE125_randls_29.json,2589936,3128854,47,Man
37,584982,DepthScenes,duration_manipulation_targetAtFixation,jsons/VE125_randls_29.json,http://54.235.29.9/FacialAge/BNav_EC2/DepthDuration/v2_depth_duration_MTurk/v2_DepthDuration_HTML.html#52,52,1364,768,1364,768,8-21-2022,6-36-8,38,depth_duration_stimuli/000549_2014-06-08_22-10-24_260595134347_rgbf000247-resize_3/000549_2014-06-08_22-10-24_260595134347_rgbf000247-resize_3-target.png,125,1.841,1,9217,123,feet,jsons/VE125_randls_29.json,2589936,3128854,47,Man
38,584982,DepthScenes,duration_manipulation_targetAtFixation,jsons/VE125_randls_29.json,http://54.235.29.9/FacialAge/BNav_EC2/DepthDuration/v2_depth_duration_MTurk/v2_DepthDuration_HTML.html#52,52,1364,768,1364,768,8-21-2022,6-36-8,39,depth_duration_stimuli/002570_2014-06-24_13-59-54_094959634447_rgbf000059-resize_0/002570_2014-06-24_13-59-54_094959634447_rgbf000059-resize_0-target.png,125,4.037,1,24049,125,feet,jsons/VE125_randls_29.json,2589936,3128854,47,Man
39,584982,DepthScenes,duration_manipulation_targetAtFixation,jsons/VE125_randls_29.json,http://54.235.29.9/FacialAge/BNav_EC2/DepthDuration/v2_depth_duration_MTurk/v2_DepthDuration_HTML.html#52,52,1364,768,1364,768,8-21-2022,6-36-8,40,depth_duration_stimuli/002467_2014-06-28_20-38-07_260595134347_rgbf000026-resize_2/002467_2014-06-28_20-38-07_260595134347_rgbf000026-resize_2-target.png,125,4.742,2,10083,127,feet,jsons/VE125_randls_29.json,2589936,3128854,47,Man
40,584982,DepthScenes,duration_manipulation_targetAtFixation,jsons/VE125_randls_29.json,http://54.235.29.9/FacialAge/BNav_EC2/DepthDuration/v2_depth_duration_MTurk/v2_DepthDuration_HTML.html#52,52,1364,768,1364,768,8-21-2022,6-36-8,41,depth_duration_stimuli/000917_2014-06-09_22-45-29_260595134347_rgbf000149-resize_3/000917_2014-06-09_22-45-29_260595134347_rgbf000149-resize_3-target.png,125,4.1865,0,25335,124,feet,jsons/VE125_randls_29.json,2589936,3128854,47,Man
41,584982,DepthScenes,duration_manipulation_targetAtFixation,jsons/VE125_randls_29.json,http://54.235.29.9/FacialAge/BNav_EC2/DepthDuration/v2_depth_duration_MTurk/v2_DepthDuration_HTML.html#52,52,1364,768,1364,768,8-21-2022,6-36-8,42,depth_duration_stimuli/002323_2014-06-28_20-01-54_260595134347_rgbf000051-resize_4/002323_2014-06-28_20-01-54_260595134347_rgbf000051-resize_4-target.png,125,3.7310000000000003,1,6438,125,feet,jsons/VE125_randls_29.json,2589936,3128854,47,Man
42,584982,DepthScenes,duration_manipulation_targetAtFixation,jsons/VE125_randls_29.json,http://54.235.29.9/FacialAge/BNav_EC2/DepthDuration/v2_depth_duration_MTurk/v2_DepthDuration_HTML.html#52,52,1364,768,1364,768,8-21-2022,6-36-8,43,depth_duration_stimuli/001066_2014-06-08_22-03-20_260595134347_rgbf000066-resize_4/001066_2014-06-08_22-03-20_260595134347_rgbf000066-resize_4-target.png,125,4.2330000000000005,1,14278,124,feet,jsons/VE125_randls_29.json,2589936,3128854,47,Man
43,584982,DepthScenes,duration_manipulation_targetAtFixation,jsons/VE125_randls_29.json,http://54.235.29.9/FacialAge/BNav_EC2/DepthDuration/v2_depth_duration_MTurk/v2_DepthDuration_HTML.html#52,52,1364,768,1364,768,8-21-2022,6-36-8,44,depth_duration_stimuli/000742_2014-06-08_18-48-09_260595134347_rgbf000164-resize_4/000742_2014-06-08_18-48-09_260595134347_rgbf000164-resize_4-target.png,125,4.632,2,8918,124,feet,jsons/VE125_randls_29.json,2589936,3128854,47,Man
44,584982,DepthScenes,duration_manipulation_targetAtFixation,jsons/VE125_randls_29.json,http://54.235.29.9/FacialAge/BNav_EC2/DepthDuration/v2_depth_duration_MTurk/v2_DepthDuration_HTML.html#52,52,1364,768,1364,768,8-21-2022,6-36-8,45,depth_duration_stimuli/000787_2014-06-08_22-33-53_260595134347_rgbf000175-resize_1/000787_2014-06-08_22-33-53_260595134347_rgbf000175-resize-original.jpg,125,4.784,0,31288,126,feet,jsons/VE125_randls_29.json,2589936,3128854,47,Man
45,584982,DepthScenes,duration_manipulation_targetAtFixation,jsons/VE125_randls_29.json,http://54.235.29.9/FacialAge/BNav_EC2/DepthDuration/v2_depth_duration_MTurk/v2_DepthDuration_HTML.html#52,52,1364,768,1364,768,8-21-2022,6-36-8,46,depth_duration_stimuli/000414_2014-06-04_19-49-13_260595134347_rgbf000044-resize_0/000414_2014-06-04_19-49-13_260595134347_rgbf000044-resize_0-target.png,125,4.329,1,32319,126,feet,jsons/VE125_randls_29.json,2589936,3128854,47,Man
46,584982,DepthScenes,duration_manipulation_targetAtFixation,jsons/VE125_randls_29.json,http://54.235.29.9/FacialAge/BNav_EC2/DepthDuration/v2_depth_duration_MTurk/v2_DepthDuration_HTML.html#52,52,1364,768,1364,768,8-21-2022,6-36-8,47,depth_duration_stimuli/003129_2014-05-12_10-48-10_094959634447_rgbf000100-resize_0/003129_2014-05-12_10-48-10_094959634447_rgbf000100-resize_0-target.png,125,4.9305,2,4180,125,feet,jsons/VE125_randls_29.json,2589936,3128854,47,Man
47,584982,DepthScenes,duration_manipulation_targetAtFixation,jsons/VE125_randls_29.json,http://54.235.29.9/FacialAge/BNav_EC2/DepthDuration/v2_depth_duration_MTurk/v2_DepthDuration_HTML.html#52,52,1364,768,1364,768,8-21-2022,6-36-8,48,depth_duration_stimuli/002039_2014-06-24_20-22-38_260595134347_rgbf000084-resize_1/002039_2014-06-24_20-22-38_260595134347_rgbf000084-resize_1-target.png,125,4.408,2,7968,124,feet,jsons/VE125_randls_29.json,2589936,3128854,47,Man
48,584982,DepthScenes,duration_manipulation_targetAtFixation,jsons/VE125_randls_29.json,http://54.235.29.9/FacialAge/BNav_EC2/DepthDuration/v2_depth_duration_MTurk/v2_DepthDuration_HTML.html#52,52,1364,768,1364,768,8-21-2022,6-36-8,49,depth_duration_stimuli/002103_2014-06-25_20-00-40_260595134347_rgbf000049-resize_0/002103_2014-06-25_20-00-40_260595134347_rgbf000049-resize_0-target.png,125,4.105,0,11699,124,feet,jsons/VE125_randls_29.json,2589936,3128854,47,Man
49,584982,DepthScenes,duration_manipulation_targetAtFixation,jsons/VE125_randls_29.json,http://54.235.29.9/FacialAge/BNav_EC2/DepthDuration/v2_depth_duration_MTurk/v2_DepthDuration_HTML.html#52,52,1364,768,1364,768,8-21-2022,6-36-8,50,depth_duration_stimuli/001555_2014-06-20_17-12-10_260595134347_rgbf000065-resize_4/001555_2014-06-20_17-12-10_260595134347_rgbf000065-resize_4-target.png,125,1.633,1,6888,123,feet,jsons/VE125_randls_29.json,2589936,3128854,47,Man
50,584982,DepthScenes,duration_manipulation_targetAtFixation,jsons/VE125_randls_29.json,http://54.235.29.9/FacialAge/BNav_EC2/DepthDuration/v2_depth_duration_MTurk/v2_DepthDuration_HTML.html#52,52,1364,768,1364,768,8-21-2022,6-36-8,51,depth_duration_stimuli/000103_2014-05-14_22-01-17_260595134347_rgbf000152-resize_5/000103_2014-05-14_22-01-17_260595134347_rgbf000152-resize_5-target.png,125,1.993,0,9068,123,feet,jsons/VE125_randls_29.json,2589936,3128854,47,Man
51,584982,DepthScenes,duration_manipulation_targetAtFixation,jsons/VE125_randls_29.json,http://54.235.29.9/FacialAge/BNav_EC2/DepthDuration/v2_depth_duration_MTurk/v2_DepthDuration_HTML.html#52,52,1364,768,1364,768,8-21-2022,6-36-8,52,depth_duration_stimuli/000906_2014-06-08_13-35-43_260595134347_rgbf000155-resize_1/000906_2014-06-08_13-35-43_260595134347_rgbf000155-resize_1-target.png,125,2.8489999999999998,0,20879,123,feet,jsons/VE125_randls_29.json,2589936,3128854,47,Man
52,584982,DepthScenes,duration_manipulation_targetAtFixation,jsons/VE125_randls_29.json,http://54.235.29.9/FacialAge/BNav_EC2/DepthDuration/v2_depth_duration_MTurk/v2_DepthDuration_HTML.html#52,52,1364,768,1364,768,8-21-2022,6-36-8,53,depth_duration_stimuli/002805_2014-06-22_19-54-03_094959634447_rgbf000079-resize_1/002805_2014-06-22_19-54-03_094959634447_rgbf000079-resize_1-target.png,125,3.1439999999999997,2,6577,124,feet,jsons/VE125_randls_29.json,2589936,3128854,47,Man
53,584982,DepthScenes,duration_manipulation_targetAtFixation,jsons/VE125_randls_29.json,http://54.235.29.9/FacialAge/BNav_EC2/DepthDuration/v2_depth_duration_MTurk/v2_DepthDuration_HTML.html#52,52,1364,768,1364,768,8-21-2022,6-36-8,54,depth_duration_stimuli/002788_2014-06-22_19-36-03_094959634447_rgbf000088-resize_2/002788_2014-06-22_19-36-03_094959634447_rgbf000088-resize_2-target.png,125,1.6465,0,11919,124,feet,jsons/VE125_randls_29.json,2589936,3128854,47,Man
54,584982,DepthScenes,duration_manipulation_targetAtFixation,jsons/VE125_randls_29.json,http://54.235.29.9/FacialAge/BNav_EC2/DepthDuration/v2_depth_duration_MTurk/v2_DepthDuration_HTML.html#52,52,1364,768,1364,768,8-21-2022,6-36-8,55,depth_duration_stimuli/000749_2014-06-08_21-55-06_260595134347_rgbf000070-resize_2/000749_2014-06-08_21-55-06_260595134347_rgbf000070-resize_2-target.png,125,2.331,2,4819,125,feet,jsons/VE125_randls_29.json,2589936,3128854,47,Man
55,584982,DepthScenes,duration_manipulation_targetAtFixation,jsons/VE125_randls_29.json,http://54.235.29.9/FacialAge/BNav_EC2/DepthDuration/v2_depth_duration_MTurk/v2_DepthDuration_HTML.html#52,52,1364,768,1364,768,8-21-2022,6-36-8,56,depth_duration_stimuli/000447_2014-06-08_16-15-46_260595134347_rgbf000130-resize_1/000447_2014-06-08_16-15-46_260595134347_rgbf000130-resize_1-target.png,125,4.479,0,12599,124,feet,jsons/VE125_randls_29.json,2589936,3128854,47,Man
56,584982,DepthScenes,duration_manipulation_targetAtFixation,jsons/VE125_randls_29.json,http://54.235.29.9/FacialAge/BNav_EC2/DepthDuration/v2_depth_duration_MTurk/v2_DepthDuration_HTML.html#52,52,1364,768,1364,768,8-21-2022,6-36-8,57,depth_duration_stimuli/001447_2014-06-19_17-00-32_260595134347_rgbf000082-resize_5/001447_2014-06-19_17-00-32_260595134347_rgbf000082-resize_5-target.png,125,4.13775,2,15048,123,feet,jsons/VE125_randls_29.json,2589936,3128854,47,Man
57,584982,DepthScenes,duration_manipulation_targetAtFixation,jsons/VE125_randls_29.json,http://54.235.29.9/FacialAge/BNav_EC2/DepthDuration/v2_depth_duration_MTurk/v2_DepthDuration_HTML.html#52,52,1364,768,1364,768,8-21-2022,6-36-8,58,depth_duration_stimuli/000739_2014-06-08_18-45-58_260595134347_rgbf000068-resize_1/000739_2014-06-08_18-45-58_260595134347_rgbf000068-resize_1-target.png,125,3.534,4,18330,125,feet,jsons/VE125_randls_29.json,2589936,3128854,47,Man
58,584982,DepthScenes,duration_manipulation_targetAtFixation,jsons/VE125_randls_29.json,http://54.235.29.9/FacialAge/BNav_EC2/DepthDuration/v2_depth_duration_MTurk/v2_DepthDuration_HTML.html#52,52,1364,768,1364,768,8-21-2022,6-36-8,59,depth_duration_stimuli/000734_2014-06-08_17-39-11_260595134347_rgbf000128-resize_2/000734_2014-06-08_17-39-11_260595134347_rgbf000128-resize_2-target.png,125,4.098,1,13259,126,feet,jsons/VE125_randls_29.json,2589936,3128854,47,Man
59,584982,DepthScenes,duration_manipulation_targetAtFixation,jsons/VE125_randls_29.json,http://54.235.29.9/FacialAge/BNav_EC2/DepthDuration/v2_depth_duration_MTurk/v2_DepthDuration_HTML.html#52,52,1364,768,1364,768,8-21-2022,6-36-8,60,depth_duration_stimuli/002663_2014-06-13_15-50-26_094959634447_rgbf000075-resize_1/002663_2014-06-13_15-50-26_094959634447_rgbf000075-resize_1-target.png,125,4.7495,0,13118,123,feet,jsons/VE125_randls_29.json,2589936,3128854,47,Man
60,584982,DepthScenes,duration_manipulation_targetAtFixation,jsons/VE125_randls_29.json,http://54.235.29.9/FacialAge/BNav_EC2/DepthDuration/v2_depth_duration_MTurk/v2_DepthDuration_HTML.html#52,52,1364,768,1364,768,8-21-2022,6-36-8,61,depth_duration_stimuli/000409_2014-06-04_19-23-33_260595134347_rgbf000067-resize_0/000409_2014-06-04_19-23-33_260595134347_rgbf000067-resize_0-target.png,125,3.7335,1,6898,124,feet,jsons/VE125_randls_29.json,2589936,3128854,47,Man
61,584982,DepthScenes,duration_manipulation_targetAtFixation,jsons/VE125_randls_29.json,http://54.235.29.9/FacialAge/BNav_EC2/DepthDuration/v2_depth_duration_MTurk/v2_DepthDuration_HTML.html#52,52,1364,768,1364,768,8-21-2022,6-36-8,62,depth_duration_stimuli/001810_2014-06-26_20-51-35_260595134347_rgbf000040-resize_3/001810_2014-06-26_20-51-35_260595134347_rgbf000040-resize_3-target.png,125,2.2525,1,5218,124,feet,jsons/VE125_randls_29.json,2589936,3128854,47,Man
62,584982,DepthScenes,duration_manipulation_targetAtFixation,jsons/VE125_randls_29.json,http://54.235.29.9/FacialAge/BNav_EC2/DepthDuration/v2_depth_duration_MTurk/v2_DepthDuration_HTML.html#52,52,1364,768,1364,768,8-21-2022,6-36-8,63,depth_duration_stimuli/003010_2014-06-15_12-54-35_094959634447_rgbf000112-resize_0/003010_2014-06-15_12-54-35_094959634447_rgbf000112-resize_0-target.png,125,3.1185,4,13348,126,feet,jsons/VE125_randls_29.json,2589936,3128854,47,Man
63,584982,DepthScenes,duration_manipulation_targetAtFixation,jsons/VE125_randls_29.json,http://54.235.29.9/FacialAge/BNav_EC2/DepthDuration/v2_depth_duration_MTurk/v2_DepthDuration_HTML.html#52,52,1364,768,1364,768,8-21-2022,6-36-8,64,depth_duration_stimuli/001133_2014-06-17_14-49-16_260595134347_rgbf000100-resize_0/001133_2014-06-17_14-49-16_260595134347_rgbf000100-resize_0-target.png,125,4.2115,1,6090,124,feet,jsons/VE125_randls_29.json,2589936,3128854,47,Man
64,584982,DepthScenes,duration_manipulation_targetAtFixation,jsons/VE125_randls_29.json,http://54.235.29.9/FacialAge/BNav_EC2/DepthDuration/v2_depth_duration_MTurk/v2_DepthDuration_HTML.html#52,52,1364,768,1364,768,8-21-2022,6-36-8,65,depth_duration_stimuli/001132_2014-06-17_14-48-54_260595134347_rgbf000100-resize_2/001132_2014-06-17_14-48-54_260595134347_rgbf000100-resize_2-target.png,125,3.753,0,9479,124,feet,jsons/VE125_randls_29.json,2589936,3128854,47,Man
65,584982,DepthScenes,duration_manipulation_targetAtFixation,jsons/VE125_randls_29.json,http://54.235.29.9/FacialAge/BNav_EC2/DepthDuration/v2_depth_duration_MTurk/v2_DepthDuration_HTML.html#52,52,1364,657,1364,768,8-21-2022,6-36-8,66,depth_duration_stimuli/001222_2014-06-17_16-24-06_260595134347_rgbf000073-resize_0/001222_2014-06-17_16-24-06_260595134347_rgbf000073-resize-original.jpg,125,1.4385,0,13512,125,feet,jsons/VE125_randls_29.json,2589936,3128854,47,Man
66,584982,DepthScenes,duration_manipulation_targetAtFixation,jsons/VE125_randls_29.json,http://54.235.29.9/FacialAge/BNav_EC2/DepthDuration/v2_depth_duration_MTurk/v2_DepthDuration_HTML.html#52,52,1364,657,1364,768,8-21-2022,6-36-8,67,depth_duration_stimuli/002600_2014-06-24_14-27-04_094959634447_rgbf000074-resize_2/002600_2014-06-24_14-27-04_094959634447_rgbf000074-resize_2-target.png,125,2.7575,0,17834,126,feet,jsons/VE125_randls_29.json,2589936,3128854,47,Man
67,584982,DepthScenes,duration_manipulation_targetAtFixation,jsons/VE125_randls_29.json,http://54.235.29.9/FacialAge/BNav_EC2/DepthDuration/v2_depth_duration_MTurk/v2_DepthDuration_HTML.html#52,52,1364,657,1364,768,8-21-2022,6-36-8,68,depth_duration_stimuli/003228_2014-05-14_13-42-35_094959634447_rgbf000101-resize_1/003228_2014-05-14_13-42-35_094959634447_rgbf000101-resize_1-target.png,125,1.9680000000000002,1,6989,79,feet,jsons/VE125_randls_29.json,2589936,3128854,47,Man
68,584982,DepthScenes,duration_manipulation_targetAtFixation,jsons/VE125_randls_29.json,http://54.235.29.9/FacialAge/BNav_EC2/DepthDuration/v2_depth_duration_MTurk/v2_DepthDuration_HTML.html#52,52,1364,657,1364,768,8-21-2022,6-36-8,69,depth_duration_stimuli/001417_2014-06-19_16-25-36_260595134347_rgbf000115-resize_5/001417_2014-06-19_16-25-36_260595134347_rgbf000115-resize_5-target.png,125,4.6255,2,48544,124,feet,jsons/VE125_randls_29.json,2589936,3128854,47,Man
69,584982,DepthScenes,duration_manipulation_targetAtFixation,jsons/VE125_randls_29.json,http://54.235.29.9/FacialAge/BNav_EC2/DepthDuration/v2_depth_duration_MTurk/v2_DepthDuration_HTML.html#52,52,1364,768,1364,768,8-21-2022,6-36-8,70,depth_duration_stimuli/003081_2014-06-15_15-19-16_094959634447_rgbf000150-resize_1/003081_2014-06-15_15-19-16_094959634447_rgbf000150-resize_1-target.png,125,3.9125,1,5719,125,feet,jsons/VE125_randls_29.json,2589936,3128854,47,Man
70,584982,DepthScenes,duration_manipulation_targetAtFixation,jsons/VE125_randls_29.json,http://54.235.29.9/FacialAge/BNav_EC2/DepthDuration/v2_depth_duration_MTurk/v2_DepthDuration_HTML.html#52,52,1364,768,1364,768,8-21-2022,6-36-8,71,depth_duration_stimuli/002905_2014-06-03_18-04-43_094959634447_rgbf000151-resize_2/002905_2014-06-03_18-04-43_094959634447_rgbf000151-resize_2-target.png,125,2.0295,0,27748,125,feet,jsons/VE125_randls_29.json,2589936,3128854,47,Man
71,584982,DepthScenes,duration_manipulation_targetAtFixation,jsons/VE125_randls_29.json,http://54.235.29.9/FacialAge/BNav_EC2/DepthDuration/v2_depth_duration_MTurk/v2_DepthDuration_HTML.html#52,52,1364,768,1364,768,8-21-2022,6-36-8,72,depth_duration_stimuli/003423_2014-05-21_10-23-26_094959634447_rgbf002665-resize_2/003423_2014-05-21_10-23-26_094959634447_rgbf002665-resize_2-target.png,125,3.2575,4,12419,124,feet,jsons/VE125_randls_29.json,2589936,3128854,47,Man
72,584982,DepthScenes,duration_manipulation_targetAtFixation,jsons/VE125_randls_29.json,http://54.235.29.9/FacialAge/BNav_EC2/DepthDuration/v2_depth_duration_MTurk/v2_DepthDuration_HTML.html#52,52,1364,768,1364,768,8-21-2022,6-36-8,73,depth_duration_stimuli/000436_2014-06-09_22-25-11_260595134347_rgbf000137-resize_1/000436_2014-06-09_22-25-11_260595134347_rgbf000137-resize_1-target.png,125,4.0705,2,14840,125,feet,jsons/VE125_randls_29.json,2589936,3128854,47,Man
73,584982,DepthScenes,duration_manipulation_targetAtFixation,jsons/VE125_randls_29.json,http://54.235.29.9/FacialAge/BNav_EC2/DepthDuration/v2_depth_duration_MTurk/v2_DepthDuration_HTML.html#52,52,1364,768,1364,768,8-21-2022,6-36-8,74,depth_duration_stimuli/002444_2014-06-28_20-32-08_260595134347_rgbf000027-resize_0/002444_2014-06-28_20-32-08_260595134347_rgbf000027-resize_0-target.png,125,4.388999999999999,2,9558,124,feet,jsons/VE125_randls_29.json,2589936,3128854,47,Man
74,584982,DepthScenes,duration_manipulation_targetAtFixation,jsons/VE125_randls_29.json,http://54.235.29.9/FacialAge/BNav_EC2/DepthDuration/v2_depth_duration_MTurk/v2_DepthDuration_HTML.html#52,52,1364,768,1364,768,8-21-2022,6-36-8,75,depth_duration_stimuli/002989_2014-06-15_12-25-03_094959634447_rgbf000150-resize_3/002989_2014-06-15_12-25-03_094959634447_rgbf000150-resize_3-target.png,125,4.1975,4,6458,125,feet,jsons/VE125_randls_29.json,2589936,3128854,47,Man
75,584982,DepthScenes,duration_manipulation_targetAtFixation,jsons/VE125_randls_29.json,http://54.235.29.9/FacialAge/BNav_EC2/DepthDuration/v2_depth_duration_MTurk/v2_DepthDuration_HTML.html#52,52,1364,768,1364,768,8-21-2022,6-36-8,76,depth_duration_stimuli/000866_2014-06-09_20-45-42_260595134347_rgbf000139-resize_1/000866_2014-06-09_20-45-42_260595134347_rgbf000139-resize_1-target.png,125,3.2155,0,21427,125,feet,jsons/VE125_randls_29.json,2589936,3128854,47,Man
76,584982,DepthScenes,duration_manipulation_targetAtFixation,jsons/VE125_randls_29.json,http://54.235.29.9/FacialAge/BNav_EC2/DepthDuration/v2_depth_duration_MTurk/v2_DepthDuration_HTML.html#52,52,1364,768,1364,768,8-21-2022,6-36-8,77,depth_duration_stimuli/003292_2014-05-14_21-53-49_094959634447_rgbf000100-resize_2/003292_2014-05-14_21-53-49_094959634447_rgbf000100-resize_2-target.png,125,3.4815,0,32330,126,feet,jsons/VE125_randls_29.json,2589936,3128854,47,Man
77,584982,DepthScenes,duration_manipulation_targetAtFixation,jsons/VE125_randls_29.json,http://54.235.29.9/FacialAge/BNav_EC2/DepthDuration/v2_depth_duration_MTurk/v2_DepthDuration_HTML.html#52,52,1364,768,1364,768,8-21-2022,6-36-8,78,depth_duration_stimuli/002639_2014-06-24_14-51-37_094959634447_rgbf000074-resize_4/002639_2014-06-24_14-51-37_094959634447_rgbf000074-resize_4-target.png,125,4.0375,2,5847,124,feet,jsons/VE125_randls_29.json,2589936,3128854,47,Man
78,584982,DepthScenes,duration_manipulation_targetAtFixation,jsons/VE125_randls_29.json,http://54.235.29.9/FacialAge/BNav_EC2/DepthDuration/v2_depth_duration_MTurk/v2_DepthDuration_HTML.html#52,52,1364,768,1364,768,8-21-2022,6-36-8,79,depth_duration_stimuli/002725_2014-06-22_11-47-51_094959634447_rgbf000070-resize_1/002725_2014-06-22_11-47-51_094959634447_rgbf000070-resize_1-target.png,125,2.195,4,9084,125,feet,jsons/VE125_randls_29.json,2589936,3128854,47,Man
79,584982,DepthScenes,duration_manipulation_targetAtFixation,jsons/VE125_randls_29.json,http://54.235.29.9/FacialAge/BNav_EC2/DepthDuration/v2_depth_duration_MTurk/v2_DepthDuration_HTML.html#52,52,1364,657,1364,768,8-21-2022,6-36-8,80,depth_duration_stimuli/002344_2014-06-28_20-06-29_260595134347_rgbf000030-resize_1/002344_2014-06-28_20-06-29_260595134347_rgbf000030-resize_1-target.png,125,1.5795,4,14884,125,feet,jsons/VE125_randls_29.json,2589936,3128854,47,Man
80,584982,DepthScenes,duration_manipulation_targetAtFixation,jsons/VE125_randls_29.json,http://54.235.29.9/FacialAge/BNav_EC2/DepthDuration/v2_depth_duration_MTurk/v2_DepthDuration_HTML.html#52,52,1364,657,1364,768,8-21-2022,6-36-8,81,depth_duration_stimuli/000736_2014-06-08_18-24-15_260595134347_rgbf000206-resize_3/000736_2014-06-08_18-24-15_260595134347_rgbf000206-resize_3-target.png,125,3.515,2,12302,123,feet,jsons/VE125_randls_29.json,2589936,3128854,47,Man
81,584982,DepthScenes,duration_manipulation_targetAtFixation,jsons/VE125_randls_29.json,http://54.235.29.9/FacialAge/BNav_EC2/DepthDuration/v2_depth_duration_MTurk/v2_DepthDuration_HTML.html#52,52,1364,768,1364,768,8-21-2022,6-36-8,82,depth_duration_stimuli/000137_2014-05-20_17-04-49_260595134347_rgbf000120-resize_1/000137_2014-05-20_17-04-49_260595134347_rgbf000120-resize_1-target.png,125,3.786,2,5822,125,feet,jsons/VE125_randls_29.json,2589936,3128854,47,Man
82,584982,DepthScenes,duration_manipulation_targetAtFixation,jsons/VE125_randls_29.json,http://54.235.29.9/FacialAge/BNav_EC2/DepthDuration/v2_depth_duration_MTurk/v2_DepthDuration_HTML.html#52,52,1364,768,1364,768,8-21-2022,6-36-8,83,depth_duration_stimuli/002748_2014-06-22_19-07-22_094959634447_rgbf000078-resize_1/002748_2014-06-22_19-07-22_094959634447_rgbf000078-resize_1-target.png,125,4.6705,4,7470,126,feet,jsons/VE125_randls_29.json,2589936,3128854,47,Man
83,584982,DepthScenes,duration_manipulation_targetAtFixation,jsons/VE125_randls_29.json,http://54.235.29.9/FacialAge/BNav_EC2/DepthDuration/v2_depth_duration_MTurk/v2_DepthDuration_HTML.html#52,52,1364,768,1364,768,8-21-2022,6-36-8,84,depth_duration_stimuli/002995_2014-06-15_12-31-26_094959634447_rgbf000150-resize_1/002995_2014-06-15_12-31-26_094959634447_rgbf000150-resize_1-target.png,125,3.8360000000000003,3,18908,125,feet,jsons/VE125_randls_29.json,2589936,3128854,47,Man
84,584982,DepthScenes,duration_manipulation_targetAtFixation,jsons/VE125_randls_29.json,http://54.235.29.9/FacialAge/BNav_EC2/DepthDuration/v2_depth_duration_MTurk/v2_DepthDuration_HTML.html#52,52,1364,768,1364,768,8-21-2022,6-36-8,85,depth_duration_stimuli/000773_2014-06-08_22-24-54_260595134347_rgbf000093-resize_1/000773_2014-06-08_22-24-54_260595134347_rgbf000093-resize_1-target.png,125,4.973,2,9647,125,feet,jsons/VE125_randls_29.json,2589936,3128854,47,Man
85,584982,DepthScenes,duration_manipulation_targetAtFixation,jsons/VE125_randls_29.json,http://54.235.29.9/FacialAge/BNav_EC2/DepthDuration/v2_depth_duration_MTurk/v2_DepthDuration_HTML.html#52,52,1364,768,1364,768,8-21-2022,6-36-8,86,depth_duration_stimuli/002414_2014-06-28_20-24-58_260595134347_rgbf000067-resize_4/002414_2014-06-28_20-24-58_260595134347_rgbf000067-resize_4-target.png,125,4.363,2,15587,124,feet,jsons/VE125_randls_29.json,2589936,3128854,47,Man
86,584982,DepthScenes,duration_manipulation_targetAtFixation,jsons/VE125_randls_29.json,http://54.235.29.9/FacialAge/BNav_EC2/DepthDuration/v2_depth_duration_MTurk/v2_DepthDuration_HTML.html#52,52,1364,768,1364,768,8-21-2022,6-36-8,87,depth_duration_stimuli/000469_2014-06-09_19-42-10_260595134347_rgbf000081-resize_1/000469_2014-06-09_19-42-10_260595134347_rgbf000081-resize_1-target.png,125,1.652,4,12799,125,feet,jsons/VE125_randls_29.json,2589936,3128854,47,Man
87,584982,DepthScenes,duration_manipulation_targetAtFixation,jsons/VE125_randls_29.json,http://54.235.29.9/FacialAge/BNav_EC2/DepthDuration/v2_depth_duration_MTurk/v2_DepthDuration_HTML.html#52,52,1364,768,1364,768,8-21-2022,6-36-8,88,depth_duration_stimuli/000483_2014-06-09_20-41-45_260595134347_rgbf000116-resize_4/000483_2014-06-09_20-41-45_260595134347_rgbf000116-resize_4-target.png,125,1.337,1,8028,123,feet,jsons/VE125_randls_29.json,2589936,3128854,47,Man
88,584982,DepthScenes,duration_manipulation_targetAtFixation,jsons/VE125_randls_29.json,http://54.235.29.9/FacialAge/BNav_EC2/DepthDuration/v2_depth_duration_MTurk/v2_DepthDuration_HTML.html#52,52,1364,768,1364,768,8-21-2022,6-36-8,89,depth_duration_stimuli/000506_2014-06-08_23-21-00_260595134347_rgbf000070-resize_7/000506_2014-06-08_23-21-00_260595134347_rgbf000070-resize_7-target.png,125,4.0585,1,12640,124,feet,jsons/VE125_randls_29.json,2589936,3128854,47,Man
89,584982,DepthScenes,duration_manipulation_targetAtFixation,jsons/VE125_randls_29.json,http://54.235.29.9/FacialAge/BNav_EC2/DepthDuration/v2_depth_duration_MTurk/v2_DepthDuration_HTML.html#52,52,1364,768,1364,768,8-21-2022,6-36-8,90,depth_duration_stimuli/003079_2014-06-15_15-18-20_094959634447_rgbf000152-resize_8/003079_2014-06-15_15-18-20_094959634447_rgbf000152-resize_8-target.png,125,2.8775,4,4638,125,feet,jsons/VE125_randls_29.json,2589936,3128854,47,Man
90,584982,DepthScenes,duration_manipulation_targetAtFixation,jsons/VE125_randls_29.json,http://54.235.29.9/FacialAge/BNav_EC2/DepthDuration/v2_depth_duration_MTurk/v2_DepthDuration_HTML.html#52,52,1364,768,1364,768,8-21-2022,6-36-8,91,depth_duration_stimuli/002043_2014-06-24_20-29-38_260595134347_rgbf000039-resize_4/002043_2014-06-24_20-29-38_260595134347_rgbf000039-resize_4-target.png,125,2.8435,2,9529,124,feet,jsons/VE125_randls_29.json,2589936,3128854,47,Man
91,584982,DepthScenes,duration_manipulation_targetAtFixation,jsons/VE125_randls_29.json,http://54.235.29.9/FacialAge/BNav_EC2/DepthDuration/v2_depth_duration_MTurk/v2_DepthDuration_HTML.html#52,52,1364,768,1364,768,8-21-2022,6-36-8,92,depth_duration_stimuli/003048_2014-06-15_13-49-43_094959634447_rgbf000150-resize_1/003048_2014-06-15_13-49-43_094959634447_rgbf000150-resize_1-target.png,125,4.0035,2,6969,124,feet,jsons/VE125_randls_29.json,2589936,3128854,47,Man
92,584982,DepthScenes,duration_manipulation_targetAtFixation,jsons/VE125_randls_29.json,http://54.235.29.9/FacialAge/BNav_EC2/DepthDuration/v2_depth_duration_MTurk/v2_DepthDuration_HTML.html#52,52,1364,768,1364,768,8-21-2022,6-36-8,93,depth_duration_stimuli/002784_2014-06-22_19-26-30_094959634447_rgbf000083-resize_3/002784_2014-06-22_19-26-30_094959634447_rgbf000083-resize_3-target.png,125,1.8046666666667,0,12898,125,feet,jsons/VE125_randls_29.json,2589936,3128854,47,Man
93,584982,DepthScenes,duration_manipulation_targetAtFixation,jsons/VE125_randls_29.json,http://54.235.29.9/FacialAge/BNav_EC2/DepthDuration/v2_depth_duration_MTurk/v2_DepthDuration_HTML.html#52,52,1364,768,1364,768,8-21-2022,6-36-8,94,depth_duration_stimuli/001100_2014-06-15_17-46-26_260595134347_rgbf000225-resize_2/001100_2014-06-15_17-46-26_260595134347_rgbf000225-resize_2-target.png,125,2.24,1,6240,125,feet,jsons/VE125_randls_29.json,2589936,3128854,47,Man
94,584982,DepthScenes,duration_manipulation_targetAtFixation,jsons/VE125_randls_29.json,http://54.235.29.9/FacialAge/BNav_EC2/DepthDuration/v2_depth_duration_MTurk/v2_DepthDuration_HTML.html#52,52,1364,768,1364,768,8-21-2022,6-36-8,95,depth_duration_stimuli/001244_2014-06-17_16-47-45_260595134347_rgbf000030-resize_4/001244_2014-06-17_16-47-45_260595134347_rgbf000030-resize_4-target.png,125,2.0425,1,4878,126,feet,jsons/VE125_randls_29.json,2589936,3128854,47,Man
95,584982,DepthScenes,duration_manipulation_targetAtFixation,jsons/VE125_randls_29.json,http://54.235.29.9/FacialAge/BNav_EC2/DepthDuration/v2_depth_duration_MTurk/v2_DepthDuration_HTML.html#52,52,1364,768,1364,768,8-21-2022,6-36-8,96,depth_duration_stimuli/003495_2014-05-21_16-01-51_094959634447_rgbf000100-resize_3/003495_2014-05-21_16-01-51_094959634447_rgbf000100-resize_3-target.png,125,1.6255,2,16235,126,feet,jsons/VE125_randls_29.json,2589936,3128854,47,Man
96,584982,DepthScenes,duration_manipulation_targetAtFixation,jsons/VE125_randls_29.json,http://54.235.29.9/FacialAge/BNav_EC2/DepthDuration/v2_depth_duration_MTurk/v2_DepthDuration_HTML.html#52,52,1364,768,1364,768,8-21-2022,6-36-8,97,depth_duration_stimuli/001056_2014-06-08_18-46-44_260595134347_rgbf000068-resize_0/001056_2014-06-08_18-46-44_260595134347_rgbf000068-resize_0-target.png,125,2.6625,2,6715,127,feet,jsons/VE125_randls_29.json,2589936,3128854,47,Man
97,584982,DepthScenes,duration_manipulation_targetAtFixation,jsons/VE125_randls_29.json,http://54.235.29.9/FacialAge/BNav_EC2/DepthDuration/v2_depth_duration_MTurk/v2_DepthDuration_HTML.html#52,52,1364,768,1364,768,8-21-2022,6-36-8,98,depth_duration_stimuli/002199_2014-06-28_18-33-56_260595134347_rgbf000074-resize_0/002199_2014-06-28_18-33-56_260595134347_rgbf000074-resize_0-target.png,125,1.996,4,9271,124,feet,jsons/VE125_randls_29.json,2589936,3128854,47,Man
98,584982,DepthScenes,duration_manipulation_targetAtFixation,jsons/VE125_randls_29.json,http://54.235.29.9/FacialAge/BNav_EC2/DepthDuration/v2_depth_duration_MTurk/v2_DepthDuration_HTML.html#52,52,1364,768,1364,768,8-21-2022,6-36-8,99,depth_duration_stimuli/001540_2014-06-20_17-01-05_260595134347_rgbf000086-resize_2/001540_2014-06-20_17-01-05_260595134347_rgbf000086-resize-original.jpg,125,1.459,0,14453,83,feet,jsons/VE125_randls_29.json,2589936,3128854,47,Man
99,584982,DepthScenes,duration_manipulation_targetAtFixation,jsons/VE125_randls_29.json,http://54.235.29.9/FacialAge/BNav_EC2/DepthDuration/v2_depth_duration_MTurk/v2_DepthDuration_HTML.html#52,52,1364,768,1364,768,8-21-2022,6-36-8,100,depth_duration_stimuli/001570_2014-06-20_17-21-09_260595134347_rgbf000135-resize_4/001570_2014-06-20_17-21-09_260595134347_rgbf000135-resize_4-target.png,125,4.467,4,12218,122,feet,jsons/VE125_randls_29.json,2589936,3128854,47,Man
100,584982,DepthScenes,duration_manipulation_targetAtFixation,jsons/VE125_randls_29.json,http://54.235.29.9/FacialAge/BNav_EC2/DepthDuration/v2_depth_duration_MTurk/v2_DepthDuration_HTML.html#52,52,1364,768,1364,768,8-21-2022,6-36-8,101,depth_duration_stimuli/001392_2014-06-19_16-07-59_260595134347_rgbf000046-resize_1/001392_2014-06-19_16-07-59_260595134347_rgbf000046-resize_1-target.png,125,4.135,2,8178,125,feet,jsons/VE125_randls_29.json,2589936,3128854,47,Man
101,584982,DepthScenes,duration_manipulation_targetAtFixation,jsons/VE125_randls_29.json,http://54.235.29.9/FacialAge/BNav_EC2/DepthDuration/v2_depth_duration_MTurk/v2_DepthDuration_HTML.html#52,52,1364,768,1364,768,8-21-2022,6-36-8,102,depth_duration_stimuli/000929_2014-06-09_16-33-19_260595134347_rgbf000139-resize_0/000929_2014-06-09_16-33-19_260595134347_rgbf000139-resize_0-target.png,125,2.8680000000000003,0,35146,125,feet,jsons/VE125_randls_29.json,2589936,3128854,47,Man
102,584982,DepthScenes,duration_manipulation_targetAtFixation,jsons/VE125_randls_29.json,http://54.235.29.9/FacialAge/BNav_EC2/DepthDuration/v2_depth_duration_MTurk/v2_DepthDuration_HTML.html#52,52,1364,768,1364,768,8-21-2022,6-36-8,103,depth_duration_stimuli/000457_2014-06-08_16-52-43_260595134347_rgbf000199-resize_1/000457_2014-06-08_16-52-43_260595134347_rgbf000199-resize_1-target.png,125,3.6489999999999996,2,6835,112,feet,jsons/VE125_randls_29.json,2589936,3128854,47,Man
103,584982,DepthScenes,duration_manipulation_targetAtFixation,jsons/VE125_randls_29.json,http://54.235.29.9/FacialAge/BNav_EC2/DepthDuration/v2_depth_duration_MTurk/v2_DepthDuration_HTML.html#52,52,1364,768,1364,768,8-21-2022,6-36-8,104,depth_duration_stimuli/000522_2014-06-08_13-35-06_260595134347_rgbf000244-resize_1/000522_2014-06-08_13-35-06_260595134347_rgbf000244-resize_1-target.png,125,2.3715,2,43428,123,feet,jsons/VE125_randls_29.json,2589936,3128854,47,Man
104,584982,DepthScenes,duration_manipulation_targetAtFixation,jsons/VE125_randls_29.json,http://54.235.29.9/FacialAge/BNav_EC2/DepthDuration/v2_depth_duration_MTurk/v2_DepthDuration_HTML.html#52,52,1364,768,1364,768,8-21-2022,6-36-8,105,depth_duration_stimuli/002949_2014-06-26_15-57-42_094959634447_rgbf000079-resize_1/002949_2014-06-26_15-57-42_094959634447_rgbf000079-resize_1-target.png,125,1.8915,4,12698,125,feet,jsons/VE125_randls_29.json,2589936,3128854,47,Man
105,584982,DepthScenes,duration_manipulation_targetAtFixation,jsons/VE125_randls_29.json,http://54.235.29.9/FacialAge/BNav_EC2/DepthDuration/v2_depth_duration_MTurk/v2_DepthDuration_HTML.html#52,52,1364,768,1364,768,8-21-2022,6-36-8,106,depth_duration_stimuli/003070_2014-06-15_14-58-27_094959634447_rgbf000150-resize_3/003070_2014-06-15_14-58-27_094959634447_rgbf000150-resize_3-target.png,125,2.9415,1,17730,125,feet,jsons/VE125_randls_29.json,2589936,3128854,47,Man
106,584982,DepthScenes,duration_manipulation_targetAtFixation,jsons/VE125_randls_29.json,http://54.235.29.9/FacialAge/BNav_EC2/DepthDuration/v2_depth_duration_MTurk/v2_DepthDuration_HTML.html#52,52,1364,768,1364,768,8-21-2022,6-36-8,107,depth_duration_stimuli/000943_2014-06-09_19-31-07_260595134347_rgbf000128-resize_1/000943_2014-06-09_19-31-07_260595134347_rgbf000128-resize_1-target.png,125,1.9765,1,7079,126,feet,jsons/VE125_randls_29.json,2589936,3128854,47,Man
107,584982,DepthScenes,duration_manipulation_targetAtFixation,jsons/VE125_randls_29.json,http://54.235.29.9/FacialAge/BNav_EC2/DepthDuration/v2_depth_duration_MTurk/v2_DepthDuration_HTML.html#52,52,1364,768,1364,768,8-21-2022,6-36-8,108,depth_duration_stimuli/001199_2014-06-17_16-03-48_260595134347_rgbf000077-resize_0/001199_2014-06-17_16-03-48_260595134347_rgbf000077-resize_0-target.png,125,3.4375,1,19454,125,feet,jsons/VE125_randls_29.json,2589936,3128854,47,Man
108,584982,DepthScenes,duration_manipulation_targetAtFixation,jsons/VE125_randls_29.json,http://54.235.29.9/FacialAge/BNav_EC2/DepthDuration/v2_depth_duration_MTurk/v2_DepthDuration_HTML.html#52,52,1364,768,1364,768,8-21-2022,6-36-8,109,depth_duration_stimuli/000502_2014-06-08_23-02-32_260595134347_rgbf000063-resize_4/000502_2014-06-08_23-02-32_260595134347_rgbf000063-resize_4-target.png,125,2.431,2,12003,124,feet,jsons/VE125_randls_29.json,2589936,3128854,47,Man
109,584982,DepthScenes,duration_manipulation_targetAtFixation,jsons/VE125_randls_29.json,http://54.235.29.9/FacialAge/BNav_EC2/DepthDuration/v2_depth_duration_MTurk/v2_DepthDuration_HTML.html#52,52,1364,768,1364,768,8-21-2022,6-36-8,110,depth_duration_stimuli/001167_2014-06-17_15-38-07_260595134347_rgbf000108-resize_0/001167_2014-06-17_15-38-07_260595134347_rgbf000108-resize_0-target.png,125,1.8505,1,13968,124,feet,jsons/VE125_randls_29.json,2589936,3128854,47,Man
110,584982,DepthScenes,duration_manipulation_targetAtFixation,jsons/VE125_randls_29.json,http://54.235.29.9/FacialAge/BNav_EC2/DepthDuration/v2_depth_duration_MTurk/v2_DepthDuration_HTML.html#52,52,1364,768,1364,768,8-21-2022,6-36-8,111,depth_duration_stimuli/003587_2014-05-23_16-48-02_094959634447_rgbf002384-resize_2/003587_2014-05-23_16-48-02_094959634447_rgbf002384-resize_2-target.png,125,1.357,1,22679,124,feet,jsons/VE125_randls_29.json,2589936,3128854,47,Man
111,584982,DepthScenes,duration_manipulation_targetAtFixation,jsons/VE125_randls_29.json,http://54.235.29.9/FacialAge/BNav_EC2/DepthDuration/v2_depth_duration_MTurk/v2_DepthDuration_HTML.html#52,52,1364,768,1364,768,8-21-2022,6-36-8,112,depth_duration_stimuli/000758_2014-06-08_22-05-08_260595134347_rgbf000085-resize_0/000758_2014-06-08_22-05-08_260595134347_rgbf000085-resize_0-target.png,125,3.3810000000000002,1,58909,126,feet,jsons/VE125_randls_29.json,2589936,3128854,47,Man
112,584982,DepthScenes,duration_manipulation_targetAtFixation,jsons/VE125_randls_29.json,http://54.235.29.9/FacialAge/BNav_EC2/DepthDuration/v2_depth_duration_MTurk/v2_DepthDuration_HTML.html#52,52,1364,768,1364,768,8-21-2022,6-36-8,113,depth_duration_stimuli/000854_2014-06-09_19-43-13_260595134347_rgbf000066-resize_0/000854_2014-06-09_19-43-13_260595134347_rgbf000066-resize_0-target.png,125,3.068,2,12997,125,feet,jsons/VE125_randls_29.json,2589936,3128854,47,Man
113,584982,DepthScenes,duration_manipulation_targetAtFixation,jsons/VE125_randls_29.json,http://54.235.29.9/FacialAge/BNav_EC2/DepthDuration/v2_depth_duration_MTurk/v2_DepthDuration_HTML.html#52,52,1364,768,1364,768,8-21-2022,6-36-8,114,depth_duration_stimuli/001806_2014-06-26_20-50-20_260595134347_rgbf000091-resize_1/001806_2014-06-26_20-50-20_260595134347_rgbf000091-resize_1-target.png,125,2.7305,1,16215,125,feet,jsons/VE125_randls_29.json,2589936,3128854,47,Man
114,584982,DepthScenes,duration_manipulation_targetAtFixation,jsons/VE125_randls_29.json,http://54.235.29.9/FacialAge/BNav_EC2/DepthDuration/v2_depth_duration_MTurk/v2_DepthDuration_HTML.html#52,52,1364,768,1364,768,8-21-2022,6-36-8,115,depth_duration_stimuli/001617_2014-06-20_11-35-32_260595134347_rgbf000066-resize_1/001617_2014-06-20_11-35-32_260595134347_rgbf000066-resize_1-target.png,125,3.7910000000000004,2,26961,125,feet,jsons/VE125_randls_29.json,2589936,3128854,47,Man
115,584982,DepthScenes,duration_manipulation_targetAtFixation,jsons/VE125_randls_29.json,http://54.235.29.9/FacialAge/BNav_EC2/DepthDuration/v2_depth_duration_MTurk/v2_DepthDuration_HTML.html#52,52,1364,768,1364,768,8-21-2022,6-36-8,116,depth_duration_stimuli/001170_2014-06-17_15-43-44_260595134347_rgbf000096-resize_6/001170_2014-06-17_15-43-44_260595134347_rgbf000096-resize-original.jpg,125,1.1909999999999998,1,7838,126,feet,jsons/VE125_randls_29.json,2589936,3128854,47,Man
116,584982,DepthScenes,duration_manipulation_targetAtFixation,jsons/VE125_randls_29.json,http://54.235.29.9/FacialAge/BNav_EC2/DepthDuration/v2_depth_duration_MTurk/v2_DepthDuration_HTML.html#52,52,1364,768,1364,768,8-21-2022,6-36-8,117,depth_duration_stimuli/002375_2014-06-28_20-13-44_260595134347_rgbf000032-resize_1/002375_2014-06-28_20-13-44_260595134347_rgbf000032-resize_1-target.png,125,4.0175,2,18358,125,feet,jsons/VE125_randls_29.json,2589936,3128854,47,Man
117,584982,DepthScenes,duration_manipulation_targetAtFixation,jsons/VE125_randls_29.json,http://54.235.29.9/FacialAge/BNav_EC2/DepthDuration/v2_depth_duration_MTurk/v2_DepthDuration_HTML.html#52,52,1364,768,1364,768,8-21-2022,6-36-8,118,depth_duration_stimuli/002657_2014-06-13_15-29-54_094959634447_rgbf000150-resize_1/002657_2014-06-13_15-29-54_094959634447_rgbf000150-resize_1-target.png,125,4.919,1,33239,124,feet,jsons/VE125_randls_29.json,2589936,3128854,47,Man
118,584982,DepthScenes,duration_manipulation_targetAtFixation,jsons/VE125_randls_29.json,http://54.235.29.9/FacialAge/BNav_EC2/DepthDuration/v2_depth_duration_MTurk/v2_DepthDuration_HTML.html#52,52,1364,657,1364,768,8-21-2022,6-36-8,119,depth_duration_stimuli/002964_2014-06-08_17-46-11_094959634447_rgbf000091-resize_4/002964_2014-06-08_17-46-11_094959634447_rgbf000091-resize_4-target.png,125,1.6909999999999998,1,14277,124,feet,jsons/VE125_randls_29.json,2589936,3128854,47,Man
119,584982,DepthScenes,duration_manipulation_targetAtFixation,jsons/VE125_randls_29.json,http://54.235.29.9/FacialAge/BNav_EC2/DepthDuration/v2_depth_duration_MTurk/v2_DepthDuration_HTML.html#52,52,1364,657,1364,768,8-21-2022,6-36-8,120,depth_duration_stimuli/002136_2014-06-25_21-18-03_260595134347_rgbf000109-resize_3/002136_2014-06-25_21-18-03_260595134347_rgbf000109-resize_3-target.png,125,1.9569999999999999,4,7614,124,feet,jsons/VE125_randls_29.json,2589936,3128854,47,Man
120,584982,DepthScenes,duration_manipulation_targetAtFixation,jsons/VE125_randls_29.json,http://54.235.29.9/FacialAge/BNav_EC2/DepthDuration/v2_depth_duration_MTurk/v2_DepthDuration_HTML.html#52,52,1364,657,1364,768,8-21-2022,6-36-8,121,depth_duration_stimuli/002509_2014-06-24_13-19-22_094959634447_rgbf000077-resize_0/002509_2014-06-24_13-19-22_094959634447_rgbf000077-resize_0-target.png,125,1.3065,1,11794,124,feet,jsons/VE125_randls_29.json,2589936,3128854,47,Man
121,584982,DepthScenes,duration_manipulation_targetAtFixation,jsons/VE125_randls_29.json,http://54.235.29.9/FacialAge/BNav_EC2/DepthDuration/v2_depth_duration_MTurk/v2_DepthDuration_HTML.html#52,52,1364,657,1364,768,8-21-2022,6-36-8,122,depth_duration_stimuli/003338_2014-05-20_11-01-23_094959634447_rgbf000051-resize_6/003338_2014-05-20_11-01-23_094959634447_rgbf000051-resize_6-target.png,125,1.693,4,7206,125,feet,jsons/VE125_randls_29.json,2589936,3128854,47,Man
122,584982,DepthScenes,duration_manipulation_targetAtFixation,jsons/VE125_randls_29.json,http://54.235.29.9/FacialAge/BNav_EC2/DepthDuration/v2_depth_duration_MTurk/v2_DepthDuration_HTML.html#52,52,1364,657,1364,768,8-21-2022,6-36-8,123,depth_duration_stimuli/001449_2014-06-19_17-01-27_260595134347_rgbf000116-resize_2/001449_2014-06-19_17-01-27_260595134347_rgbf000116-resize_2-target.png,125,3.452,1,13677,124,feet,jsons/VE125_randls_29.json,2589936,3128854,47,Man
123,584982,DepthScenes,duration_manipulation_targetAtFixation,jsons/VE125_randls_29.json,http://54.235.29.9/FacialAge/BNav_EC2/DepthDuration/v2_depth_duration_MTurk/v2_DepthDuration_HTML.html#52,52,1364,657,1364,768,8-21-2022,6-36-8,124,depth_duration_stimuli/001450_2014-06-19_17-02-03_260595134347_rgbf000203-resize_4/001450_2014-06-19_17-02-03_260595134347_rgbf000203-resize_4-target.png,125,4.0106666666667,2,5638,125,feet,jsons/VE125_randls_29.json,2589936,3128854,47,Man
124,584982,DepthScenes,duration_manipulation_targetAtFixation,jsons/VE125_randls_29.json,http://54.235.29.9/FacialAge/BNav_EC2/DepthDuration/v2_depth_duration_MTurk/v2_DepthDuration_HTML.html#52,52,1364,657,1364,768,8-21-2022,6-36-8,125,depth_duration_stimuli/002630_2014-06-24_14-47-50_094959634447_rgbf000055-resize_1/002630_2014-06-24_14-47-50_094959634447_rgbf000055-resize_1-target.png,125,3.0095,1,17958,123,feet,jsons/VE125_randls_29.json,2589936,3128854,47,Man
125,584982,DepthScenes,duration_manipulation_targetAtFixation,jsons/VE125_randls_29.json,http://54.235.29.9/FacialAge/BNav_EC2/DepthDuration/v2_depth_duration_MTurk/v2_DepthDuration_HTML.html#52,52,1364,657,1364,768,8-21-2022,6-36-8,126,depth_duration_stimuli/002758_2014-06-22_19-11-20_094959634447_rgbf000128-resize_1/002758_2014-06-22_19-11-20_094959634447_rgbf000128-resize_1-target.png,125,2.555,1,6819,124,feet,jsons/VE125_randls_29.json,2589936,3128854,47,Man
126,584982,DepthScenes,duration_manipulation_targetAtFixation,jsons/VE125_randls_29.json,http://54.235.29.9/FacialAge/BNav_EC2/DepthDuration/v2_depth_duration_MTurk/v2_DepthDuration_HTML.html#52,52,1364,657,1364,768,8-21-2022,6-36-8,127,depth_duration_stimuli/000682_2014-06-08_23-14-58_260595134347_rgbf000041-resize_5/000682_2014-06-08_23-14-58_260595134347_rgbf000041-resize_5-target.png,125,2.7239999999999998,1,5639,125,feet,jsons/VE125_randls_29.json,2589936,3128854,47,Man
127,584982,DepthScenes,duration_manipulation_targetAtFixation,jsons/VE125_randls_29.json,http://54.235.29.9/FacialAge/BNav_EC2/DepthDuration/v2_depth_duration_MTurk/v2_DepthDuration_HTML.html#52,52,1364,657,1364,768,8-21-2022,6-36-8,128,depth_duration_stimuli/001650_2014-06-20_12-09-00_260595134347_rgbf000087-resize_3/001650_2014-06-20_12-09-00_260595134347_rgbf000087-resize_3-target.png,125,1.9505,1,12368,125,feet,jsons/VE125_randls_29.json,2589936,3128854,47,Man
128,584982,DepthScenes,duration_manipulation_targetAtFixation,jsons/VE125_randls_29.json,http://54.235.29.9/FacialAge/BNav_EC2/DepthDuration/v2_depth_duration_MTurk/v2_DepthDuration_HTML.html#52,52,1364,657,1364,768,8-21-2022,6-36-8,129,depth_duration_stimuli/001059_2014-06-08_21-53-27_260595134347_rgbf000061-resize_4/001059_2014-06-08_21-53-27_260595134347_rgbf000061-resize_4-target.png,125,2.4185,1,17409,125,feet,jsons/VE125_randls_29.json,2589936,3128854,47,Man
129,584982,DepthScenes,duration_manipulation_targetAtFixation,jsons/VE125_randls_29.json,http://54.235.29.9/FacialAge/BNav_EC2/DepthDuration/v2_depth_duration_MTurk/v2_DepthDuration_HTML.html#52,52,1364,657,1364,768,8-21-2022,6-36-8,130,depth_duration_stimuli/001032_2014-06-08_13-23-17_260595134347_rgbf000021-resize_3/001032_2014-06-08_13-23-17_260595134347_rgbf000021-resize_3-target.png,125,3.2725,1,7788,125,feet,jsons/VE125_randls_29.json,2589936,3128854,47,Man
130,584982,DepthScenes,duration_manipulation_targetAtFixation,jsons/VE125_randls_29.json,http://54.235.29.9/FacialAge/BNav_EC2/DepthDuration/v2_depth_duration_MTurk/v2_DepthDuration_HTML.html#52,52,1364,657,1364,768,8-21-2022,6-36-8,131,depth_duration_stimuli/002118_2014-06-25_20-32-08_260595134347_rgbf000078-resize_1/002118_2014-06-25_20-32-08_260595134347_rgbf000078-resize_1-target.png,125,2.6460000000000004,2,35188,125,feet,jsons/VE125_randls_29.json,2589936,3128854,47,Man
131,584982,DepthScenes,duration_manipulation_targetAtFixation,jsons/VE125_randls_29.json,http://54.235.29.9/FacialAge/BNav_EC2/DepthDuration/v2_depth_duration_MTurk/v2_DepthDuration_HTML.html#52,52,1364,657,1364,768,8-21-2022,6-36-8,132,depth_duration_stimuli/001516_2014-06-20_16-25-09_260595134347_rgbf000076-resize_2/001516_2014-06-20_16-25-09_260595134347_rgbf000076-resize_2-target.png,125,1.7445,1,7238,123,feet,jsons/VE125_randls_29.json,2589936,3128854,47,Man
132,584982,DepthScenes,duration_manipulation_targetAtFixation,jsons/VE125_randls_29.json,http://54.235.29.9/FacialAge/BNav_EC2/DepthDuration/v2_depth_duration_MTurk/v2_DepthDuration_HTML.html#52,52,1364,657,1364,768,8-21-2022,6-36-8,133,depth_duration_stimuli/002279_2014-06-28_18-55-32_260595134347_rgbf000040-resize_5/002279_2014-06-28_18-55-32_260595134347_rgbf000040-resize_5-target.png,125,1.5043333333333,1,6121,124,feet,jsons/VE125_randls_29.json,2589936,3128854,47,Man
133,584982,DepthScenes,duration_manipulation_targetAtFixation,jsons/VE125_randls_29.json,http://54.235.29.9/FacialAge/BNav_EC2/DepthDuration/v2_depth_duration_MTurk/v2_DepthDuration_HTML.html#52,52,1364,657,1364,768,8-21-2022,6-36-8,134,depth_duration_stimuli/000635_2014-06-08_16-38-42_260595134347_rgbf000106-resize_1/000635_2014-06-08_16-38-42_260595134347_rgbf000106-resize_1-target.png,125,2.074,1,15957,124,feet,jsons/VE125_randls_29.json,2589936,3128854,47,Man
134,584982,DepthScenes,duration_manipulation_targetAtFixation,jsons/VE125_randls_29.json,http://54.235.29.9/FacialAge/BNav_EC2/DepthDuration/v2_depth_duration_MTurk/v2_DepthDuration_HTML.html#52,52,1364,657,1364,768,8-21-2022,6-36-8,135,depth_duration_stimuli/002072_2014-06-24_21-48-06_260595134347_rgbf000115-resize_0/002072_2014-06-24_21-48-06_260595134347_rgbf000115-resize-original.jpg,125,4.702,0,11028,124,feet,jsons/VE125_randls_29.json,2589936,3128854,47,Man
135,584982,DepthScenes,duration_manipulation_targetAtFixation,jsons/VE125_randls_29.json,http://54.235.29.9/FacialAge/BNav_EC2/DepthDuration/v2_depth_duration_MTurk/v2_DepthDuration_HTML.html#52,52,1364,657,1364,768,8-21-2022,6-36-8,136,depth_duration_stimuli/000878_2014-06-08_22-52-45_260595134347_rgbf000045-resize_2/000878_2014-06-08_22-52-45_260595134347_rgbf000045-resize_2-target.png,125,2.092,1,14349,125,feet,jsons/VE125_randls_29.json,2589936,3128854,47,Man
136,584982,DepthScenes,duration_manipulation_targetAtFixation,jsons/VE125_randls_29.json,http://54.235.29.9/FacialAge/BNav_EC2/DepthDuration/v2_depth_duration_MTurk/v2_DepthDuration_HTML.html#52,52,1364,657,1364,768,8-21-2022,6-36-8,137,depth_duration_stimuli/002953_2014-06-08_17-32-18_094959634447_rgbf000059-resize_5/002953_2014-06-08_17-32-18_094959634447_rgbf000059-resize_5-target.png,125,1.551,1,4108,125,feet,jsons/VE125_randls_29.json,2589936,3128854,47,Man
137,584982,DepthScenes,duration_manipulation_targetAtFixation,jsons/VE125_randls_29.json,http://54.235.29.9/FacialAge/BNav_EC2/DepthDuration/v2_depth_duration_MTurk/v2_DepthDuration_HTML.html#52,52,1364,657,1364,768,8-21-2022,6-36-8,138,depth_duration_stimuli/001110_2014-06-15_17-25-28_260595134347_rgbf000150-resize_1/001110_2014-06-15_17-25-28_260595134347_rgbf000150-resize_1-target.png,125,1.7115,2,9627,124,feet,jsons/VE125_randls_29.json,2589936,3128854,47,Man
138,584982,DepthScenes,duration_manipulation_targetAtFixation,jsons/VE125_randls_29.json,http://54.235.29.9/FacialAge/BNav_EC2/DepthDuration/v2_depth_duration_MTurk/v2_DepthDuration_HTML.html#52,52,1364,657,1364,768,8-21-2022,6-36-8,139,depth_duration_stimuli/000927_2014-06-09_16-32-30_260595134347_rgbf000123-resize_3/000927_2014-06-09_16-32-30_260595134347_rgbf000123-resize_3-target.png,125,2.6785,1,3978,124,feet,jsons/VE125_randls_29.json,2589936,3128854,47,Man
139,584982,DepthScenes,duration_manipulation_targetAtFixation,jsons/VE125_randls_29.json,http://54.235.29.9/FacialAge/BNav_EC2/DepthDuration/v2_depth_duration_MTurk/v2_DepthDuration_HTML.html#52,52,1364,657,1364,768,8-21-2022,6-36-8,140,depth_duration_stimuli/000642_2014-06-08_16-59-25_260595134347_rgbf000098-resize_2/000642_2014-06-08_16-59-25_260595134347_rgbf000098-resize_2-target.png,125,2.8815,1,6619,126,feet,jsons/VE125_randls_29.json,2589936,3128854,47,Man
140,584982,DepthScenes,duration_manipulation_targetAtFixation,jsons/VE125_randls_29.json,http://54.235.29.9/FacialAge/BNav_EC2/DepthDuration/v2_depth_duration_MTurk/v2_DepthDuration_HTML.html#52,52,1364,657,1364,768,8-21-2022,6-36-8,141,depth_duration_stimuli/002425_2014-06-28_20-27-29_260595134347_rgbf000031-resize_8/002425_2014-06-28_20-27-29_260595134347_rgbf000031-resize_8-target.png,125,3.8960000000000004,1,4377,124,feet,jsons/VE125_randls_29.json,2589936,3128854,47,Man
141,584982,DepthScenes,duration_manipulation_targetAtFixation,jsons/VE125_randls_29.json,http://54.235.29.9/FacialAge/BNav_EC2/DepthDuration/v2_depth_duration_MTurk/v2_DepthDuration_HTML.html#52,52,1364,657,1364,768,8-21-2022,6-36-8,142,depth_duration_stimuli/000009_2014-05-26_14-32-05_260595134347_rgbf000034-resize_3/000009_2014-05-26_14-32-05_260595134347_rgbf000034-resize_3-target.png,125,3.8715,2,18899,126,feet,jsons/VE125_randls_29.json,2589936,3128854,47,Man
142,584982,DepthScenes,duration_manipulation_targetAtFixation,jsons/VE125_randls_29.json,http://54.235.29.9/FacialAge/BNav_EC2/DepthDuration/v2_depth_duration_MTurk/v2_DepthDuration_HTML.html#52,52,1364,657,1364,768,8-21-2022,6-36-8,143,depth_duration_stimuli/001828_2014-06-26_21-40-03_260595134347_rgbf000024-resize_0/001828_2014-06-26_21-40-03_260595134347_rgbf000024-resize_0-target.png,125,4.8260000000000005,2,12164,124,feet,jsons/VE125_randls_29.json,2589936,3128854,47,Man
143,584982,DepthScenes,duration_manipulation_targetAtFixation,jsons/VE125_randls_29.json,http://54.235.29.9/FacialAge/BNav_EC2/DepthDuration/v2_depth_duration_MTurk/v2_DepthDuration_HTML.html#52,52,1364,657,1364,768,8-21-2022,6-36-8,144,depth_duration_stimuli/002272_2014-06-28_18-53-56_260595134347_rgbf000067-resize_2/002272_2014-06-28_18-53-56_260595134347_rgbf000067-resize_2-target.png,125,1.138,2,5865,126,feet,jsons/VE125_randls_29.json,2589936,3128854,47,Man
144,584982,DepthScenes,duration_manipulation_targetAtFixation,jsons/VE125_randls_29.json,http://54.235.29.9/FacialAge/BNav_EC2/DepthDuration/v2_depth_duration_MTurk/v2_DepthDuration_HTML.html#52,52,1364,657,1364,768,8-21-2022,6-36-8,145,depth_duration_stimuli/001571_2014-06-20_17-21-32_260595134347_rgbf000089-resize_1/001571_2014-06-20_17-21-32_260595134347_rgbf000089-resize_1-target.png,125,1.86,2,17170,123,feet,jsons/VE125_randls_29.json,2589936,3128854,47,Man
145,584982,DepthScenes,duration_manipulation_targetAtFixation,jsons/VE125_randls_29.json,http://54.235.29.9/FacialAge/BNav_EC2/DepthDuration/v2_depth_duration_MTurk/v2_DepthDuration_HTML.html#52,52,1364,657,1364,768,8-21-2022,6-36-8,146,depth_duration_stimuli/001498_2014-06-19_17-45-14_260595134347_rgbf000129-resize_4/001498_2014-06-19_17-45-14_260595134347_rgbf000129-resize-original.jpg,125,1.4075,0,15478,123,feet,jsons/VE125_randls_29.json,2589936,3128854,47,Man
146,584982,DepthScenes,duration_manipulation_targetAtFixation,jsons/VE125_randls_29.json,http://54.235.29.9/FacialAge/BNav_EC2/DepthDuration/v2_depth_duration_MTurk/v2_DepthDuration_HTML.html#52,52,1364,657,1364,768,8-21-2022,6-36-8,147,depth_duration_stimuli/002153_2014-06-25_21-27-18_260595134347_rgbf000038-resize_5/002153_2014-06-25_21-27-18_260595134347_rgbf000038-resize_5-target.png,125,2.505,1,5899,124,feet,jsons/VE125_randls_29.json,2589936,3128854,47,Man
147,584982,DepthScenes,duration_manipulation_targetAtFixation,jsons/VE125_randls_29.json,http://54.235.29.9/FacialAge/BNav_EC2/DepthDuration/v2_depth_duration_MTurk/v2_DepthDuration_HTML.html#52,52,1364,657,1364,768,8-21-2022,6-36-8,148,depth_duration_stimuli/002660_2014-06-13_15-44-18_094959634447_rgbf001878-resize_2/002660_2014-06-13_15-44-18_094959634447_rgbf001878-resize_2-target.png,125,3.576,1,8579,124,feet,jsons/VE125_randls_29.json,2589936,3128854,47,Man
148,584982,DepthScenes,duration_manipulation_targetAtFixation,jsons/VE125_randls_29.json,http://54.235.29.9/FacialAge/BNav_EC2/DepthDuration/v2_depth_duration_MTurk/v2_DepthDuration_HTML.html#52,52,1364,657,1364,768,8-21-2022,6-36-8,149,depth_duration_stimuli/002763_2014-06-22_19-13-10_094959634447_rgbf000075-resize_4/002763_2014-06-22_19-13-10_094959634447_rgbf000075-resize_4-target.png,125,1.68375,2,11759,124,feet,jsons/VE125_randls_29.json,2589936,3128854,47,Man
149,584982,DepthScenes,duration_manipulation_targetAtFixation,jsons/VE125_randls_29.json,http://54.235.29.9/FacialAge/BNav_EC2/DepthDuration/v2_depth_duration_MTurk/v2_DepthDuration_HTML.html#52,52,1364,657,1364,768,8-21-2022,6-36-8,150,depth_duration_stimuli/002209_2014-06-28_18-36-10_260595134347_rgbf000051-resize_1/002209_2014-06-28_18-36-10_260595134347_rgbf000051-resize_1-target.png,125,2.057,2,3879,124,feet,jsons/VE125_randls_29.json,2589936,3128854,47,Man
150,584982,DepthScenes,duration_manipulation_targetAtFixation,jsons/VE125_randls_29.json,http://54.235.29.9/FacialAge/BNav_EC2/DepthDuration/v2_depth_duration_MTurk/v2_DepthDuration_HTML.html#52,52,1364,657,1364,768,8-21-2022,6-36-8,151,depth_duration_stimuli/000810_2014-06-08_17-20-01_260595134347_rgbf000105-resize_0/000810_2014-06-08_17-20-01_260595134347_rgbf000105-resize_0-target.png,125,1.4865,1,6228,108,feet,jsons/VE125_randls_29.json,2589936,3128854,47,Man
151,584982,DepthScenes,duration_manipulation_targetAtFixation,jsons/VE125_randls_29.json,http://54.235.29.9/FacialAge/BNav_EC2/DepthDuration/v2_depth_duration_MTurk/v2_DepthDuration_HTML.html#52,52,1364,657,1364,768,8-21-2022,6-36-8,152,depth_duration_stimuli/001214_2014-06-17_16-13-55_260595134347_rgbf000111-resize_0/001214_2014-06-17_16-13-55_260595134347_rgbf000111-resize_0-target.png,125,2.6505,1,4134,125,feet,jsons/VE125_randls_29.json,2589936,3128854,47,Man
152,584982,DepthScenes,duration_manipulation_targetAtFixation,jsons/VE125_randls_29.json,http://54.235.29.9/FacialAge/BNav_EC2/DepthDuration/v2_depth_duration_MTurk/v2_DepthDuration_HTML.html#52,52,1364,657,1364,768,8-21-2022,6-36-8,153,depth_duration_stimuli/000470_2014-06-09_19-42-40_260595134347_rgbf000094-resize_1/000470_2014-06-09_19-42-40_260595134347_rgbf000094-resize_1-target.png,125,1.831,0,9728,125,feet,jsons/VE125_randls_29.json,2589936,3128854,47,Man
153,584982,DepthScenes,duration_manipulation_targetAtFixation,jsons/VE125_randls_29.json,http://54.235.29.9/FacialAge/BNav_EC2/DepthDuration/v2_depth_duration_MTurk/v2_DepthDuration_HTML.html#52,52,1364,657,1364,768,8-21-2022,6-36-8,154,depth_duration_stimuli/000109_2014-05-14_23-41-52_260595134347_rgbf000035-resize_9/000109_2014-05-14_23-41-52_260595134347_rgbf000035-resize_9-target.png,125,1.3545,1,4728,125,feet,jsons/VE125_randls_29.json,2589936,3128854,47,Man
154,584982,DepthScenes,duration_manipulation_targetAtFixation,jsons/VE125_randls_29.json,http://54.235.29.9/FacialAge/BNav_EC2/DepthDuration/v2_depth_duration_MTurk/v2_DepthDuration_HTML.html#52,52,1364,657,1364,768,8-21-2022,6-36-8,155,depth_duration_stimuli/001016_2014-06-09_16-16-10_260595134347_rgbf000112-resize_5/001016_2014-06-09_16-16-10_260595134347_rgbf000112-resize_5-target.png,125,1.6565,2,5079,126,feet,jsons/VE125_randls_29.json,2589936,3128854,47,Man
155,584982,DepthScenes,duration_manipulation_targetAtFixation,jsons/VE125_randls_29.json,http://54.235.29.9/FacialAge/BNav_EC2/DepthDuration/v2_depth_duration_MTurk/v2_DepthDuration_HTML.html#52,52,1364,657,1364,768,8-21-2022,6-36-8,156,depth_duration_stimuli/002340_2014-06-28_20-05-46_260595134347_rgbf000113-resize_0/002340_2014-06-28_20-05-46_260595134347_rgbf000113-resize_0-target.png,125,2.4735,1,8600,124,feet,jsons/VE125_randls_29.json,2589936,3128854,47,Man
156,584982,DepthScenes,duration_manipulation_targetAtFixation,jsons/VE125_randls_29.json,http://54.235.29.9/FacialAge/BNav_EC2/DepthDuration/v2_depth_duration_MTurk/v2_DepthDuration_HTML.html#52,52,1364,657,1364,768,8-21-2022,6-36-8,157,depth_duration_stimuli/001011_2014-06-08_23-18-54_260595134347_rgbf000044-resize_4/001011_2014-06-08_23-18-54_260595134347_rgbf000044-resize_4-target.png,125,2.4730000000000003,1,5099,123,feet,jsons/VE125_randls_29.json,2589936,3128854,47,Man
157,584982,DepthScenes,duration_manipulation_targetAtFixation,jsons/VE125_randls_29.json,http://54.235.29.9/FacialAge/BNav_EC2/DepthDuration/v2_depth_duration_MTurk/v2_DepthDuration_HTML.html#52,52,1364,657,1364,768,8-21-2022,6-36-8,158,depth_duration_stimuli/002875_2014-06-01_15-19-00_094959634447_rgbf000151-resize_1/002875_2014-06-01_15-19-00_094959634447_rgbf000151-resize_1-target.png,125,1.9675,2,8159,124,feet,jsons/VE125_randls_29.json,2589936,3128854,47,Man
158,584982,DepthScenes,duration_manipulation_targetAtFixation,jsons/VE125_randls_29.json,http://54.235.29.9/FacialAge/BNav_EC2/DepthDuration/v2_depth_duration_MTurk/v2_DepthDuration_HTML.html#52,52,1364,657,1364,768,8-21-2022,6-36-8,159,depth_duration_stimuli/001150_2014-06-17_15-27-34_260595134347_rgbf000108-resize_2/001150_2014-06-17_15-27-34_260595134347_rgbf000108-resize_2-target.png,125,4.0325,2,6799,125,feet,jsons/VE125_randls_29.json,2589936,3128854,47,Man
159,584982,DepthScenes,duration_manipulation_targetAtFixation,jsons/VE125_randls_29.json,http://54.235.29.9/FacialAge/BNav_EC2/DepthDuration/v2_depth_duration_MTurk/v2_DepthDuration_HTML.html#52,52,1364,657,1364,768,8-21-2022,6-36-8,160,depth_duration_stimuli/000665_2014-06-09_20-42-35_260595134347_rgbf000110-resize_1/000665_2014-06-09_20-42-35_260595134347_rgbf000110-resize_1-target.png,125,3.057,2,4654,125,feet,jsons/VE125_randls_29.json,2589936,3128854,47,Man
160,584982,DepthScenes,duration_manipulation_targetAtFixation,jsons/VE125_randls_29.json,http://54.235.29.9/FacialAge/BNav_EC2/DepthDuration/v2_depth_duration_MTurk/v2_DepthDuration_HTML.html#52,52,1364,657,1364,768,8-21-2022,6-36-8,161,depth_duration_stimuli/000788_2014-06-08_22-34-36_260595134347_rgbf000131-resize_1/000788_2014-06-08_22-34-36_260595134347_rgbf000131-resize_1-target.png,125,3.359,1,7134,124,feet,jsons/VE125_randls_29.json,2589936,3128854,47,Man
161,584982,DepthScenes,duration_manipulation_targetAtFixation,jsons/VE125_randls_29.json,http://54.235.29.9/FacialAge/BNav_EC2/DepthDuration/v2_depth_duration_MTurk/v2_DepthDuration_HTML.html#52,52,1364,657,1364,768,8-21-2022,6-36-8,162,depth_duration_stimuli/001235_2014-06-17_16-37-36_260595134347_rgbf000084-resize_4/001235_2014-06-17_16-37-36_260595134347_rgbf000084-resize_4-target.png,125,3.6605,1,4809,126,feet,jsons/VE125_randls_29.json,2589936,3128854,47,Man
162,584982,DepthScenes,duration_manipulation_targetAtFixation,jsons/VE125_randls_29.json,http://54.235.29.9/FacialAge/BNav_EC2/DepthDuration/v2_depth_duration_MTurk/v2_DepthDuration_HTML.html#52,52,1364,657,1364,768,8-21-2022,6-36-8,163,depth_duration_stimuli/001808_2014-06-26_20-50-58_260595134347_rgbf000029-resize_1/001808_2014-06-26_20-50-58_260595134347_rgbf000029-resize_1-target.png,125,4.249,2,15667,124,feet,jsons/VE125_randls_29.json,2589936,3128854,47,Man
163,584982,DepthScenes,duration_manipulation_targetAtFixation,jsons/VE125_randls_29.json,http://54.235.29.9/FacialAge/BNav_EC2/DepthDuration/v2_depth_duration_MTurk/v2_DepthDuration_HTML.html#52,52,1364,657,1364,768,8-21-2022,6-36-8,164,depth_duration_stimuli/001815_2014-06-26_20-52-55_260595134347_rgbf000020-resize_0/001815_2014-06-26_20-52-55_260595134347_rgbf000020-resize_0-target.png,125,3.3865,1,10547,125,feet,jsons/VE125_randls_29.json,2589936,3128854,47,Man
