,subjID,experimentName,versionName,sequenceName,url,selected_row,windowWidth,windowHeight,screenWidth,screenHeight,startDate,startTime,trial,stimulus,duration,actual_depth,depth_estimate,trial_RT,log_sceneDuration,unitSelection,seq_filepath,experimentTime,totalTime,age,gender
0,585509,DepthScenes,duration_manipulation_targetAtFixation,jsons/VE125_randls_42.json,http://54.235.29.9/FacialAge/BNav_EC2/DepthDuration/v2_depth_duration_MTurk/v2_DepthDuration_HTML.html#7,7,1366,657,1366,768,8-21-2022,9-43-54,1,depth_duration_stimuli/000758_2014-06-08_22-05-08_260595134347_rgbf000085-resize_0/000758_2014-06-08_22-05-08_260595134347_rgbf000085-resize_0-target.png,125,3.3810000000000002,60,3958,124,meters,jsons/VE125_randls_42.json,1726654,2126281,33,Woman
1,585509,DepthScenes,duration_manipulation_targetAtFixation,jsons/VE125_randls_42.json,http://54.235.29.9/FacialAge/BNav_EC2/DepthDuration/v2_depth_duration_MTurk/v2_DepthDuration_HTML.html#7,7,1366,657,1366,768,8-21-2022,9-43-54,2,depth_duration_stimuli/000854_2014-06-09_19-43-13_260595134347_rgbf000066-resize_0/000854_2014-06-09_19-43-13_260595134347_rgbf000066-resize_0-target.png,125,3.068,65,7945,124,meters,jsons/VE125_randls_42.json,1726654,2126281,33,Woman
2,585509,DepthScenes,duration_manipulation_targetAtFixation,jsons/VE125_randls_42.json,http://54.235.29.9/FacialAge/BNav_EC2/DepthDuration/v2_depth_duration_MTurk/v2_DepthDuration_HTML.html#7,7,1366,657,1366,768,8-21-2022,9-43-54,3,depth_duration_stimuli/002600_2014-06-24_14-27-04_094959634447_rgbf000074-resize_2/002600_2014-06-24_14-27-04_094959634447_rgbf000074-resize_2-target.png,125,2.7575,50,7867,124,meters,jsons/VE125_randls_42.json,1726654,2126281,33,Woman
3,585509,DepthScenes,duration_manipulation_targetAtFixation,jsons/VE125_randls_42.json,http://54.235.29.9/FacialAge/BNav_EC2/DepthDuration/v2_depth_duration_MTurk/v2_DepthDuration_HTML.html#7,7,1366,657,1366,768,8-21-2022,9-43-54,4,depth_duration_stimuli/003228_2014-05-14_13-42-35_094959634447_rgbf000101-resize_1/003228_2014-05-14_13-42-35_094959634447_rgbf000101-resize_1-target.png,125,1.9680000000000002,55,11561,124,meters,jsons/VE125_randls_42.json,1726654,2126281,33,Woman
4,585509,DepthScenes,duration_manipulation_targetAtFixation,jsons/VE125_randls_42.json,http://54.235.29.9/FacialAge/BNav_EC2/DepthDuration/v2_depth_duration_MTurk/v2_DepthDuration_HTML.html#7,7,1366,657,1366,768,8-21-2022,9-43-54,5,depth_duration_stimuli/000682_2014-06-08_23-14-58_260595134347_rgbf000041-resize_5/000682_2014-06-08_23-14-58_260595134347_rgbf000041-resize_5-target.png,125,2.7239999999999998,55,11437,125,meters,jsons/VE125_randls_42.json,1726654,2126281,33,Woman
5,585509,DepthScenes,duration_manipulation_targetAtFixation,jsons/VE125_randls_42.json,http://54.235.29.9/FacialAge/BNav_EC2/DepthDuration/v2_depth_duration_MTurk/v2_DepthDuration_HTML.html#7,7,1366,657,1366,768,8-21-2022,9-43-54,6,depth_duration_stimuli/001650_2014-06-20_12-09-00_260595134347_rgbf000087-resize_3/001650_2014-06-20_12-09-00_260595134347_rgbf000087-resize_3-target.png,125,1.9505,50,8006,127,meters,jsons/VE125_randls_42.json,1726654,2126281,33,Woman
6,585509,DepthScenes,duration_manipulation_targetAtFixation,jsons/VE125_randls_42.json,http://54.235.29.9/FacialAge/BNav_EC2/DepthDuration/v2_depth_duration_MTurk/v2_DepthDuration_HTML.html#7,7,1366,657,1366,768,8-21-2022,9-43-54,7,depth_duration_stimuli/002272_2014-06-28_18-53-56_260595134347_rgbf000067-resize_2/002272_2014-06-28_18-53-56_260595134347_rgbf000067-resize_2-target.png,125,1.138,60,3559,122,meters,jsons/VE125_randls_42.json,1726654,2126281,33,Woman
7,585509,DepthScenes,duration_manipulation_targetAtFixation,jsons/VE125_randls_42.json,http://54.235.29.9/FacialAge/BNav_EC2/DepthDuration/v2_depth_duration_MTurk/v2_DepthDuration_HTML.html#7,7,1366,657,1366,768,8-21-2022,9-43-54,8,depth_duration_stimuli/001571_2014-06-20_17-21-32_260595134347_rgbf000089-resize_1/001571_2014-06-20_17-21-32_260595134347_rgbf000089-resize_1-target.png,125,1.86,55,7958,121,meters,jsons/VE125_randls_42.json,1726654,2126281,33,Woman
8,585509,DepthScenes,duration_manipulation_targetAtFixation,jsons/VE125_randls_42.json,http://54.235.29.9/FacialAge/BNav_EC2/DepthDuration/v2_depth_duration_MTurk/v2_DepthDuration_HTML.html#7,7,1366,657,1366,768,8-21-2022,9-43-54,9,depth_duration_stimuli/002375_2014-06-28_20-13-44_260595134347_rgbf000032-resize_1/002375_2014-06-28_20-13-44_260595134347_rgbf000032-resize_1-target.png,125,4.0175,70,7529,123,meters,jsons/VE125_randls_42.json,1726654,2126281,33,Woman
9,585509,DepthScenes,duration_manipulation_targetAtFixation,jsons/VE125_randls_42.json,http://54.235.29.9/FacialAge/BNav_EC2/DepthDuration/v2_depth_duration_MTurk/v2_DepthDuration_HTML.html#7,7,1366,657,1366,768,8-21-2022,9-43-54,10,depth_duration_stimuli/002657_2014-06-13_15-29-54_094959634447_rgbf000150-resize_1/002657_2014-06-13_15-29-54_094959634447_rgbf000150-resize_1-target.png,125,4.919,55,6988,125,meters,jsons/VE125_randls_42.json,1726654,2126281,33,Woman
10,585509,DepthScenes,duration_manipulation_targetAtFixation,jsons/VE125_randls_42.json,http://54.235.29.9/FacialAge/BNav_EC2/DepthDuration/v2_depth_duration_MTurk/v2_DepthDuration_HTML.html#7,7,1366,657,1366,768,8-21-2022,9-43-54,11,depth_duration_stimuli/002989_2014-06-15_12-25-03_094959634447_rgbf000150-resize_3/002989_2014-06-15_12-25-03_094959634447_rgbf000150-resize_3-target.png,125,4.1975,55,8201,126,meters,jsons/VE125_randls_42.json,1726654,2126281,33,Woman
11,585509,DepthScenes,duration_manipulation_targetAtFixation,jsons/VE125_randls_42.json,http://54.235.29.9/FacialAge/BNav_EC2/DepthDuration/v2_depth_duration_MTurk/v2_DepthDuration_HTML.html#7,7,1366,657,1366,768,8-21-2022,9-43-54,12,depth_duration_stimuli/000866_2014-06-09_20-45-42_260595134347_rgbf000139-resize_1/000866_2014-06-09_20-45-42_260595134347_rgbf000139-resize_1-target.png,125,3.2155,60,260417,125,meters,jsons/VE125_randls_42.json,1726654,2126281,33,Woman
12,585509,DepthScenes,duration_manipulation_targetAtFixation,jsons/VE125_randls_42.json,http://54.235.29.9/FacialAge/BNav_EC2/DepthDuration/v2_depth_duration_MTurk/v2_DepthDuration_HTML.html#7,7,1366,657,1366,768,8-21-2022,9-43-54,13,depth_duration_stimuli/000569_2014-06-09_22-51-47_260595134347_rgbf000141-resize_3/000569_2014-06-09_22-51-47_260595134347_rgbf000141-resize-original.jpg,125,4.512,0,2985,125,meters,jsons/VE125_randls_42.json,1726654,2126281,33,Woman
13,585509,DepthScenes,duration_manipulation_targetAtFixation,jsons/VE125_randls_42.json,http://54.235.29.9/FacialAge/BNav_EC2/DepthDuration/v2_depth_duration_MTurk/v2_DepthDuration_HTML.html#7,7,1366,657,1366,768,8-21-2022,9-43-54,14,depth_duration_stimuli/002057_2014-06-24_21-00-13_260595134347_rgbf000120-resize_1/002057_2014-06-24_21-00-13_260595134347_rgbf000120-resize_1-target.png,125,2.967,50,3963,125,meters,jsons/VE125_randls_42.json,1726654,2126281,33,Woman
14,585509,DepthScenes,duration_manipulation_targetAtFixation,jsons/VE125_randls_42.json,http://54.235.29.9/FacialAge/BNav_EC2/DepthDuration/v2_depth_duration_MTurk/v2_DepthDuration_HTML.html#7,7,1366,657,1366,768,8-21-2022,9-43-54,15,depth_duration_stimuli/000709_2014-06-08_13-51-55_260595134347_rgbf000068-resize_3/000709_2014-06-08_13-51-55_260595134347_rgbf000068-resize_3-target.png,125,1.8030000000000002,0,2777,125,meters,jsons/VE125_randls_42.json,1726654,2126281,33,Woman
15,585509,DepthScenes,duration_manipulation_targetAtFixation,jsons/VE125_randls_42.json,http://54.235.29.9/FacialAge/BNav_EC2/DepthDuration/v2_depth_duration_MTurk/v2_DepthDuration_HTML.html#7,7,1366,657,1366,768,8-21-2022,9-43-54,16,depth_duration_stimuli/001555_2014-06-20_17-12-10_260595134347_rgbf000065-resize_4/001555_2014-06-20_17-12-10_260595134347_rgbf000065-resize_4-target.png,125,1.633,50,57607,124,meters,jsons/VE125_randls_42.json,1726654,2126281,33,Woman
16,585509,DepthScenes,duration_manipulation_targetAtFixation,jsons/VE125_randls_42.json,http://54.235.29.9/FacialAge/BNav_EC2/DepthDuration/v2_depth_duration_MTurk/v2_DepthDuration_HTML.html#7,7,1366,657,1366,768,8-21-2022,9-43-54,17,depth_duration_stimuli/000103_2014-05-14_22-01-17_260595134347_rgbf000152-resize_5/000103_2014-05-14_22-01-17_260595134347_rgbf000152-resize_5-target.png,125,1.993,55,14186,124,meters,jsons/VE125_randls_42.json,1726654,2126281,33,Woman
17,585509,DepthScenes,duration_manipulation_targetAtFixation,jsons/VE125_randls_42.json,http://54.235.29.9/FacialAge/BNav_EC2/DepthDuration/v2_depth_duration_MTurk/v2_DepthDuration_HTML.html#7,7,1366,657,1366,768,8-21-2022,9-43-54,18,depth_duration_stimuli/001164_2014-06-17_15-35-46_260595134347_rgbf000085-resize_3/001164_2014-06-17_15-35-46_260595134347_rgbf000085-resize_3-target.png,125,2.354,65,11370,125,meters,jsons/VE125_randls_42.json,1726654,2126281,33,Woman
18,585509,DepthScenes,duration_manipulation_targetAtFixation,jsons/VE125_randls_42.json,http://54.235.29.9/FacialAge/BNav_EC2/DepthDuration/v2_depth_duration_MTurk/v2_DepthDuration_HTML.html#7,7,1366,657,1366,768,8-21-2022,9-43-54,19,depth_duration_stimuli/001136_2014-06-17_15-19-41_260595134347_rgbf000076-resize_3/001136_2014-06-17_15-19-41_260595134347_rgbf000076-resize_3-target.png,125,1.8655,65,3914,125,meters,jsons/VE125_randls_42.json,1726654,2126281,33,Woman
19,585509,DepthScenes,duration_manipulation_targetAtFixation,jsons/VE125_randls_42.json,http://54.235.29.9/FacialAge/BNav_EC2/DepthDuration/v2_depth_duration_MTurk/v2_DepthDuration_HTML.html#7,7,1366,657,1366,768,8-21-2022,9-43-54,20,depth_duration_stimuli/001158_2014-06-17_15-32-16_260595134347_rgbf000138-resize_2/001158_2014-06-17_15-32-16_260595134347_rgbf000138-resize_2-target.png,125,4.5315,65,3723,127,meters,jsons/VE125_randls_42.json,1726654,2126281,33,Woman
20,585509,DepthScenes,duration_manipulation_targetAtFixation,jsons/VE125_randls_42.json,http://54.235.29.9/FacialAge/BNav_EC2/DepthDuration/v2_depth_duration_MTurk/v2_DepthDuration_HTML.html#7,7,1366,657,1366,768,8-21-2022,9-43-54,21,depth_duration_stimuli/000556_2014-06-09_22-42-56_260595134347_rgbf000214-resize_1/000556_2014-06-09_22-42-56_260595134347_rgbf000214-resize_1-target.png,125,4.8415,60,3225,125,meters,jsons/VE125_randls_42.json,1726654,2126281,33,Woman
21,585509,DepthScenes,duration_manipulation_targetAtFixation,jsons/VE125_randls_42.json,http://54.235.29.9/FacialAge/BNav_EC2/DepthDuration/v2_depth_duration_MTurk/v2_DepthDuration_HTML.html#7,7,1366,657,1366,768,8-21-2022,9-43-54,22,depth_duration_stimuli/002509_2014-06-24_13-19-22_094959634447_rgbf000077-resize_0/002509_2014-06-24_13-19-22_094959634447_rgbf000077-resize_0-target.png,125,1.3065,65,38874,124,meters,jsons/VE125_randls_42.json,1726654,2126281,33,Woman
22,585509,DepthScenes,duration_manipulation_targetAtFixation,jsons/VE125_randls_42.json,http://54.235.29.9/FacialAge/BNav_EC2/DepthDuration/v2_depth_duration_MTurk/v2_DepthDuration_HTML.html#7,7,1366,657,1366,768,8-21-2022,9-43-54,23,depth_duration_stimuli/003338_2014-05-20_11-01-23_094959634447_rgbf000051-resize_6/003338_2014-05-20_11-01-23_094959634447_rgbf000051-resize_6-target.png,125,1.693,50,8650,124,meters,jsons/VE125_randls_42.json,1726654,2126281,33,Woman
23,585509,DepthScenes,duration_manipulation_targetAtFixation,jsons/VE125_randls_42.json,http://54.235.29.9/FacialAge/BNav_EC2/DepthDuration/v2_depth_duration_MTurk/v2_DepthDuration_HTML.html#7,7,1366,657,1366,768,8-21-2022,9-43-54,24,depth_duration_stimuli/001244_2014-06-17_16-47-45_260595134347_rgbf000030-resize_4/001244_2014-06-17_16-47-45_260595134347_rgbf000030-resize_4-target.png,125,2.0425,60,6601,122,meters,jsons/VE125_randls_42.json,1726654,2126281,33,Woman
24,585509,DepthScenes,duration_manipulation_targetAtFixation,jsons/VE125_randls_42.json,http://54.235.29.9/FacialAge/BNav_EC2/DepthDuration/v2_depth_duration_MTurk/v2_DepthDuration_HTML.html#7,7,1366,657,1366,768,8-21-2022,9-43-54,25,depth_duration_stimuli/003495_2014-05-21_16-01-51_094959634447_rgbf000100-resize_3/003495_2014-05-21_16-01-51_094959634447_rgbf000100-resize_3-target.png,125,1.6255,55,3435,125,meters,jsons/VE125_randls_42.json,1726654,2126281,33,Woman
25,585509,DepthScenes,duration_manipulation_targetAtFixation,jsons/VE125_randls_42.json,http://54.235.29.9/FacialAge/BNav_EC2/DepthDuration/v2_depth_duration_MTurk/v2_DepthDuration_HTML.html#7,7,1366,657,1366,768,8-21-2022,9-43-54,26,depth_duration_stimuli/001066_2014-06-08_22-03-20_260595134347_rgbf000066-resize_4/001066_2014-06-08_22-03-20_260595134347_rgbf000066-resize_4-target.png,125,4.2330000000000005,50,9802,124,meters,jsons/VE125_randls_42.json,1726654,2126281,33,Woman
26,585509,DepthScenes,duration_manipulation_targetAtFixation,jsons/VE125_randls_42.json,http://54.235.29.9/FacialAge/BNav_EC2/DepthDuration/v2_depth_duration_MTurk/v2_DepthDuration_HTML.html#7,7,1366,657,1366,768,8-21-2022,9-43-54,27,depth_duration_stimuli/000742_2014-06-08_18-48-09_260595134347_rgbf000164-resize_4/000742_2014-06-08_18-48-09_260595134347_rgbf000164-resize_4-target.png,125,4.632,50,3640,125,meters,jsons/VE125_randls_42.json,1726654,2126281,33,Woman
27,585509,DepthScenes,duration_manipulation_targetAtFixation,jsons/VE125_randls_42.json,http://54.235.29.9/FacialAge/BNav_EC2/DepthDuration/v2_depth_duration_MTurk/v2_DepthDuration_HTML.html#7,7,1366,657,1366,768,8-21-2022,9-43-54,28,depth_duration_stimuli/002725_2014-06-22_11-47-51_094959634447_rgbf000070-resize_1/002725_2014-06-22_11-47-51_094959634447_rgbf000070-resize_1-target.png,125,2.195,25,505575,124,meters,jsons/VE125_randls_42.json,1726654,2126281,33,Woman
28,585509,DepthScenes,duration_manipulation_targetAtFixation,jsons/VE125_randls_42.json,http://54.235.29.9/FacialAge/BNav_EC2/DepthDuration/v2_depth_duration_MTurk/v2_DepthDuration_HTML.html#7,7,1366,657,1366,768,8-21-2022,9-43-54,29,depth_duration_stimuli/002344_2014-06-28_20-06-29_260595134347_rgbf000030-resize_1/002344_2014-06-28_20-06-29_260595134347_rgbf000030-resize_1-target.png,125,1.5795,20,3321,125,meters,jsons/VE125_randls_42.json,1726654,2126281,33,Woman
29,585509,DepthScenes,duration_manipulation_targetAtFixation,jsons/VE125_randls_42.json,http://54.235.29.9/FacialAge/BNav_EC2/DepthDuration/v2_depth_duration_MTurk/v2_DepthDuration_HTML.html#7,7,1366,657,1366,768,8-21-2022,9-43-54,30,depth_duration_stimuli/000375_2014-06-08_11-17-29_260595134347_rgbf000133-resize_2/000375_2014-06-08_11-17-29_260595134347_rgbf000133-resize-original.jpg,125,4.718,35,2777,122,meters,jsons/VE125_randls_42.json,1726654,2126281,33,Woman
30,585509,DepthScenes,duration_manipulation_targetAtFixation,jsons/VE125_randls_42.json,http://54.235.29.9/FacialAge/BNav_EC2/DepthDuration/v2_depth_duration_MTurk/v2_DepthDuration_HTML.html#7,7,1366,657,1366,768,8-21-2022,9-43-54,31,depth_duration_stimuli/000486_2014-06-09_20-47-20_260595134347_rgbf000143-resize_2/000486_2014-06-09_20-47-20_260595134347_rgbf000143-resize_2-target.png,125,4.8325,25,14873,126,meters,jsons/VE125_randls_42.json,1726654,2126281,33,Woman
31,585509,DepthScenes,duration_manipulation_targetAtFixation,jsons/VE125_randls_42.json,http://54.235.29.9/FacialAge/BNav_EC2/DepthDuration/v2_depth_duration_MTurk/v2_DepthDuration_HTML.html#7,7,1366,657,1366,768,8-21-2022,9-43-54,32,depth_duration_stimuli/003083_2014-06-15_15-21-03_094959634447_rgbf000063-resize_1/003083_2014-06-15_15-21-03_094959634447_rgbf000063-resize_1-target.png,125,4.1405,0,2427,125,meters,jsons/VE125_randls_42.json,1726654,2126281,33,Woman
32,585509,DepthScenes,duration_manipulation_targetAtFixation,jsons/VE125_randls_42.json,http://54.235.29.9/FacialAge/BNav_EC2/DepthDuration/v2_depth_duration_MTurk/v2_DepthDuration_HTML.html#7,7,1366,657,1366,768,8-21-2022,9-43-54,33,depth_duration_stimuli/001417_2014-06-19_16-25-36_260595134347_rgbf000115-resize_5/001417_2014-06-19_16-25-36_260595134347_rgbf000115-resize_5-target.png,125,4.6255,30,2843,129,meters,jsons/VE125_randls_42.json,1726654,2126281,33,Woman
33,585509,DepthScenes,duration_manipulation_targetAtFixation,jsons/VE125_randls_42.json,http://54.235.29.9/FacialAge/BNav_EC2/DepthDuration/v2_depth_duration_MTurk/v2_DepthDuration_HTML.html#7,7,1366,657,1366,768,8-21-2022,9-43-54,34,depth_duration_stimuli/003081_2014-06-15_15-19-16_094959634447_rgbf000150-resize_1/003081_2014-06-15_15-19-16_094959634447_rgbf000150-resize_1-target.png,125,3.9125,35,3580,125,meters,jsons/VE125_randls_42.json,1726654,2126281,33,Woman
34,585509,DepthScenes,duration_manipulation_targetAtFixation,jsons/VE125_randls_42.json,http://54.235.29.9/FacialAge/BNav_EC2/DepthDuration/v2_depth_duration_MTurk/v2_DepthDuration_HTML.html#7,7,1366,657,1366,768,8-21-2022,9-43-54,35,depth_duration_stimuli/000368_2014-06-09_15-53-01_260595134347_rgbf000155-resize_2/000368_2014-06-09_15-53-01_260595134347_rgbf000155-resize_2-target.png,125,2.4859999999999998,20,4088,125,meters,jsons/VE125_randls_42.json,1726654,2126281,33,Woman
35,585509,DepthScenes,duration_manipulation_targetAtFixation,jsons/VE125_randls_42.json,http://54.235.29.9/FacialAge/BNav_EC2/DepthDuration/v2_depth_duration_MTurk/v2_DepthDuration_HTML.html#7,7,1366,657,1366,768,8-21-2022,9-43-54,36,depth_duration_stimuli/002678_2014-06-13_16-15-32_094959634447_rgbf000151-resize_6/002678_2014-06-13_16-15-32_094959634447_rgbf000151-resize_6-target.png,125,2.1830000000000003,25,3338,127,meters,jsons/VE125_randls_42.json,1726654,2126281,33,Woman
36,585509,DepthScenes,duration_manipulation_targetAtFixation,jsons/VE125_randls_42.json,http://54.235.29.9/FacialAge/BNav_EC2/DepthDuration/v2_depth_duration_MTurk/v2_DepthDuration_HTML.html#7,7,1366,657,1366,768,8-21-2022,9-43-54,37,depth_duration_stimuli/002763_2014-06-22_19-13-10_094959634447_rgbf000075-resize_4/002763_2014-06-22_19-13-10_094959634447_rgbf000075-resize_4-target.png,125,1.68375,25,22588,125,meters,jsons/VE125_randls_42.json,1726654,2126281,33,Woman
37,585509,DepthScenes,duration_manipulation_targetAtFixation,jsons/VE125_randls_42.json,http://54.235.29.9/FacialAge/BNav_EC2/DepthDuration/v2_depth_duration_MTurk/v2_DepthDuration_HTML.html#7,7,1366,657,1366,768,8-21-2022,9-43-54,38,depth_duration_stimuli/002209_2014-06-28_18-36-10_260595134347_rgbf000051-resize_1/002209_2014-06-28_18-36-10_260595134347_rgbf000051-resize_1-target.png,125,2.057,26,5496,125,meters,jsons/VE125_randls_42.json,1726654,2126281,33,Woman
38,585509,DepthScenes,duration_manipulation_targetAtFixation,jsons/VE125_randls_42.json,http://54.235.29.9/FacialAge/BNav_EC2/DepthDuration/v2_depth_duration_MTurk/v2_DepthDuration_HTML.html#7,7,1366,657,1366,768,8-21-2022,9-43-54,39,depth_duration_stimuli/001055_2014-06-08_18-45-35_260595134347_rgbf000111-resize_4/001055_2014-06-08_18-45-35_260595134347_rgbf000111-resize_4-target.png,125,2.4290000000000003,30,3145,123,meters,jsons/VE125_randls_42.json,1726654,2126281,33,Woman
39,585509,DepthScenes,duration_manipulation_targetAtFixation,jsons/VE125_randls_42.json,http://54.235.29.9/FacialAge/BNav_EC2/DepthDuration/v2_depth_duration_MTurk/v2_DepthDuration_HTML.html#7,7,1366,657,1366,768,8-21-2022,9-43-54,40,depth_duration_stimuli/000549_2014-06-08_22-10-24_260595134347_rgbf000247-resize_3/000549_2014-06-08_22-10-24_260595134347_rgbf000247-resize_3-target.png,125,1.841,40,5158,125,meters,jsons/VE125_randls_42.json,1726654,2126281,33,Woman
40,585509,DepthScenes,duration_manipulation_targetAtFixation,jsons/VE125_randls_42.json,http://54.235.29.9/FacialAge/BNav_EC2/DepthDuration/v2_depth_duration_MTurk/v2_DepthDuration_HTML.html#7,7,1366,657,1366,768,8-21-2022,9-43-54,41,depth_duration_stimuli/002748_2014-06-22_19-07-22_094959634447_rgbf000078-resize_1/002748_2014-06-22_19-07-22_094959634447_rgbf000078-resize_1-target.png,125,4.6705,25,3726,124,meters,jsons/VE125_randls_42.json,1726654,2126281,33,Woman
41,585509,DepthScenes,duration_manipulation_targetAtFixation,jsons/VE125_randls_42.json,http://54.235.29.9/FacialAge/BNav_EC2/DepthDuration/v2_depth_duration_MTurk/v2_DepthDuration_HTML.html#7,7,1366,657,1366,768,8-21-2022,9-43-54,42,depth_duration_stimuli/002995_2014-06-15_12-31-26_094959634447_rgbf000150-resize_1/002995_2014-06-15_12-31-26_094959634447_rgbf000150-resize_1-target.png,125,3.8360000000000003,20,10505,125,meters,jsons/VE125_randls_42.json,1726654,2126281,33,Woman
42,585509,DepthScenes,duration_manipulation_targetAtFixation,jsons/VE125_randls_42.json,http://54.235.29.9/FacialAge/BNav_EC2/DepthDuration/v2_depth_duration_MTurk/v2_DepthDuration_HTML.html#7,7,1366,657,1366,768,8-21-2022,9-43-54,43,depth_duration_stimuli/003534_2014-05-22_15-06-10_094959634447_rgbf000102-resize_4/003534_2014-05-22_15-06-10_094959634447_rgbf000102-resize_4-target.png,125,1.426,20,9804,125,meters,jsons/VE125_randls_42.json,1726654,2126281,33,Woman
43,585509,DepthScenes,duration_manipulation_targetAtFixation,jsons/VE125_randls_42.json,http://54.235.29.9/FacialAge/BNav_EC2/DepthDuration/v2_depth_duration_MTurk/v2_DepthDuration_HTML.html#7,7,1366,657,1366,768,8-21-2022,9-43-54,44,depth_duration_stimuli/002637_2014-06-24_14-51-13_094959634447_rgbf000066-resize_4/002637_2014-06-24_14-51-13_094959634447_rgbf000066-resize_4-target.png,125,1.9955,25,4377,126,meters,jsons/VE125_randls_42.json,1726654,2126281,33,Woman
44,585509,DepthScenes,duration_manipulation_targetAtFixation,jsons/VE125_randls_42.json,http://54.235.29.9/FacialAge/BNav_EC2/DepthDuration/v2_depth_duration_MTurk/v2_DepthDuration_HTML.html#7,7,1366,657,1366,768,8-21-2022,9-43-54,45,depth_duration_stimuli/000787_2014-06-08_22-33-53_260595134347_rgbf000175-resize_1/000787_2014-06-08_22-33-53_260595134347_rgbf000175-resize-original.jpg,125,4.784,25,4506,126,meters,jsons/VE125_randls_42.json,1726654,2126281,33,Woman
45,585509,DepthScenes,duration_manipulation_targetAtFixation,jsons/VE125_randls_42.json,http://54.235.29.9/FacialAge/BNav_EC2/DepthDuration/v2_depth_duration_MTurk/v2_DepthDuration_HTML.html#7,7,1366,657,1366,768,8-21-2022,9-43-54,46,depth_duration_stimuli/000506_2014-06-08_23-21-00_260595134347_rgbf000070-resize_7/000506_2014-06-08_23-21-00_260595134347_rgbf000070-resize_7-target.png,125,4.0585,20,4748,124,meters,jsons/VE125_randls_42.json,1726654,2126281,33,Woman
46,585509,DepthScenes,duration_manipulation_targetAtFixation,jsons/VE125_randls_42.json,http://54.235.29.9/FacialAge/BNav_EC2/DepthDuration/v2_depth_duration_MTurk/v2_DepthDuration_HTML.html#7,7,1366,657,1366,768,8-21-2022,9-43-54,47,depth_duration_stimuli/003079_2014-06-15_15-18-20_094959634447_rgbf000152-resize_8/003079_2014-06-15_15-18-20_094959634447_rgbf000152-resize_8-target.png,125,2.8775,30,6041,125,meters,jsons/VE125_randls_42.json,1726654,2126281,33,Woman
47,585509,DepthScenes,duration_manipulation_targetAtFixation,jsons/VE125_randls_42.json,http://54.235.29.9/FacialAge/BNav_EC2/DepthDuration/v2_depth_duration_MTurk/v2_DepthDuration_HTML.html#7,7,1366,657,1366,768,8-21-2022,9-43-54,48,depth_duration_stimuli/001110_2014-06-15_17-25-28_260595134347_rgbf000150-resize_1/001110_2014-06-15_17-25-28_260595134347_rgbf000150-resize_1-target.png,125,1.7115,35,2985,124,meters,jsons/VE125_randls_42.json,1726654,2126281,33,Woman
48,585509,DepthScenes,duration_manipulation_targetAtFixation,jsons/VE125_randls_42.json,http://54.235.29.9/FacialAge/BNav_EC2/DepthDuration/v2_depth_duration_MTurk/v2_DepthDuration_HTML.html#7,7,1366,657,1366,768,8-21-2022,9-43-54,49,depth_duration_stimuli/000927_2014-06-09_16-32-30_260595134347_rgbf000123-resize_3/000927_2014-06-09_16-32-30_260595134347_rgbf000123-resize_3-target.png,125,2.6785,15,2602,124,meters,jsons/VE125_randls_42.json,1726654,2126281,33,Woman
49,585509,DepthScenes,duration_manipulation_targetAtFixation,jsons/VE125_randls_42.json,http://54.235.29.9/FacialAge/BNav_EC2/DepthDuration/v2_depth_duration_MTurk/v2_DepthDuration_HTML.html#7,7,1366,657,1366,768,8-21-2022,9-43-54,50,depth_duration_stimuli/000739_2014-06-08_18-45-58_260595134347_rgbf000068-resize_1/000739_2014-06-08_18-45-58_260595134347_rgbf000068-resize_1-target.png,125,3.534,25,3241,124,meters,jsons/VE125_randls_42.json,1726654,2126281,33,Woman
50,585509,DepthScenes,duration_manipulation_targetAtFixation,jsons/VE125_randls_42.json,http://54.235.29.9/FacialAge/BNav_EC2/DepthDuration/v2_depth_duration_MTurk/v2_DepthDuration_HTML.html#7,7,1366,657,1366,768,8-21-2022,9-43-54,51,depth_duration_stimuli/000734_2014-06-08_17-39-11_260595134347_rgbf000128-resize_2/000734_2014-06-08_17-39-11_260595134347_rgbf000128-resize_2-target.png,125,4.098,30,4203,124,meters,jsons/VE125_randls_42.json,1726654,2126281,33,Woman
51,585509,DepthScenes,duration_manipulation_targetAtFixation,jsons/VE125_randls_42.json,http://54.235.29.9/FacialAge/BNav_EC2/DepthDuration/v2_depth_duration_MTurk/v2_DepthDuration_HTML.html#7,7,1366,657,1366,768,8-21-2022,9-43-54,52,depth_duration_stimuli/000642_2014-06-08_16-59-25_260595134347_rgbf000098-resize_2/000642_2014-06-08_16-59-25_260595134347_rgbf000098-resize_2-target.png,125,2.8815,20,3594,125,meters,jsons/VE125_randls_42.json,1726654,2126281,33,Woman
52,585509,DepthScenes,duration_manipulation_targetAtFixation,jsons/VE125_randls_42.json,http://54.235.29.9/FacialAge/BNav_EC2/DepthDuration/v2_depth_duration_MTurk/v2_DepthDuration_HTML.html#7,7,1366,657,1366,768,8-21-2022,9-43-54,53,depth_duration_stimuli/002425_2014-06-28_20-27-29_260595134347_rgbf000031-resize_8/002425_2014-06-28_20-27-29_260595134347_rgbf000031-resize_8-target.png,125,3.8960000000000004,25,2601,124,meters,jsons/VE125_randls_42.json,1726654,2126281,33,Woman
53,585509,DepthScenes,duration_manipulation_targetAtFixation,jsons/VE125_randls_42.json,http://54.235.29.9/FacialAge/BNav_EC2/DepthDuration/v2_depth_duration_MTurk/v2_DepthDuration_HTML.html#7,7,1366,657,1366,768,8-21-2022,9-43-54,54,depth_duration_stimuli/000878_2014-06-08_22-52-45_260595134347_rgbf000045-resize_2/000878_2014-06-08_22-52-45_260595134347_rgbf000045-resize_2-target.png,125,2.092,26,4087,121,meters,jsons/VE125_randls_42.json,1726654,2126281,33,Woman
54,585509,DepthScenes,duration_manipulation_targetAtFixation,jsons/VE125_randls_42.json,http://54.235.29.9/FacialAge/BNav_EC2/DepthDuration/v2_depth_duration_MTurk/v2_DepthDuration_HTML.html#7,7,1366,657,1366,768,8-21-2022,9-43-54,55,depth_duration_stimuli/002953_2014-06-08_17-32-18_094959634447_rgbf000059-resize_5/002953_2014-06-08_17-32-18_094959634447_rgbf000059-resize_5-target.png,125,1.551,15,2987,125,meters,jsons/VE125_randls_42.json,1726654,2126281,33,Woman
55,585509,DepthScenes,duration_manipulation_targetAtFixation,jsons/VE125_randls_42.json,http://54.235.29.9/FacialAge/BNav_EC2/DepthDuration/v2_depth_duration_MTurk/v2_DepthDuration_HTML.html#7,7,1366,657,1366,768,8-21-2022,9-43-54,56,depth_duration_stimuli/000692_2014-06-08_13-09-42_260595134347_rgbf000199-resize_2/000692_2014-06-08_13-09-42_260595134347_rgbf000199-resize_2-target.png,125,3.661,30,4218,125,meters,jsons/VE125_randls_42.json,1726654,2126281,33,Woman
56,585509,DepthScenes,duration_manipulation_targetAtFixation,jsons/VE125_randls_42.json,http://54.235.29.9/FacialAge/BNav_EC2/DepthDuration/v2_depth_duration_MTurk/v2_DepthDuration_HTML.html#7,7,1366,657,1366,768,8-21-2022,9-43-54,57,depth_duration_stimuli/001094_2014-06-15_17-36-00_260595134347_rgbf000205-resize_0/001094_2014-06-15_17-36-00_260595134347_rgbf000205-resize_0-target.png,125,4.2175,20,3354,126,meters,jsons/VE125_randls_42.json,1726654,2126281,33,Woman
57,585509,DepthScenes,duration_manipulation_targetAtFixation,jsons/VE125_randls_42.json,http://54.235.29.9/FacialAge/BNav_EC2/DepthDuration/v2_depth_duration_MTurk/v2_DepthDuration_HTML.html#7,7,1366,657,1366,768,8-21-2022,9-43-54,58,depth_duration_stimuli/002788_2014-06-22_19-36-03_094959634447_rgbf000088-resize_2/002788_2014-06-22_19-36-03_094959634447_rgbf000088-resize_2-target.png,125,1.6465,35,3802,125,meters,jsons/VE125_randls_42.json,1726654,2126281,33,Woman
58,585509,DepthScenes,duration_manipulation_targetAtFixation,jsons/VE125_randls_42.json,http://54.235.29.9/FacialAge/BNav_EC2/DepthDuration/v2_depth_duration_MTurk/v2_DepthDuration_HTML.html#7,7,1366,657,1366,768,8-21-2022,9-43-54,59,depth_duration_stimuli/000749_2014-06-08_21-55-06_260595134347_rgbf000070-resize_2/000749_2014-06-08_21-55-06_260595134347_rgbf000070-resize_2-target.png,125,2.331,38,5145,124,meters,jsons/VE125_randls_42.json,1726654,2126281,33,Woman
59,585509,DepthScenes,duration_manipulation_targetAtFixation,jsons/VE125_randls_42.json,http://54.235.29.9/FacialAge/BNav_EC2/DepthDuration/v2_depth_duration_MTurk/v2_DepthDuration_HTML.html#7,7,1366,657,1366,768,8-21-2022,9-43-54,60,depth_duration_stimuli/001167_2014-06-17_15-38-07_260595134347_rgbf000108-resize_0/001167_2014-06-17_15-38-07_260595134347_rgbf000108-resize_0-target.png,125,1.8505,20,3453,125,meters,jsons/VE125_randls_42.json,1726654,2126281,33,Woman
60,585509,DepthScenes,duration_manipulation_targetAtFixation,jsons/VE125_randls_42.json,http://54.235.29.9/FacialAge/BNav_EC2/DepthDuration/v2_depth_duration_MTurk/v2_DepthDuration_HTML.html#7,7,1366,657,1366,768,8-21-2022,9-43-54,61,depth_duration_stimuli/003587_2014-05-23_16-48-02_094959634447_rgbf002384-resize_2/003587_2014-05-23_16-48-02_094959634447_rgbf002384-resize_2-target.png,125,1.357,25,16968,124,meters,jsons/VE125_randls_42.json,1726654,2126281,33,Woman
61,585509,DepthScenes,duration_manipulation_targetAtFixation,jsons/VE125_randls_42.json,http://54.235.29.9/FacialAge/BNav_EC2/DepthDuration/v2_depth_duration_MTurk/v2_DepthDuration_HTML.html#7,7,1366,657,1366,768,8-21-2022,9-43-54,62,depth_duration_stimuli/001016_2014-06-09_16-16-10_260595134347_rgbf000112-resize_5/001016_2014-06-09_16-16-10_260595134347_rgbf000112-resize_5-target.png,125,1.6565,45,6057,125,meters,jsons/VE125_randls_42.json,1726654,2126281,33,Woman
62,585509,DepthScenes,duration_manipulation_targetAtFixation,jsons/VE125_randls_42.json,http://54.235.29.9/FacialAge/BNav_EC2/DepthDuration/v2_depth_duration_MTurk/v2_DepthDuration_HTML.html#7,7,1366,657,1366,768,8-21-2022,9-43-54,63,depth_duration_stimuli/002340_2014-06-28_20-05-46_260595134347_rgbf000113-resize_0/002340_2014-06-28_20-05-46_260595134347_rgbf000113-resize_0-target.png,125,2.4735,25,4297,126,meters,jsons/VE125_randls_42.json,1726654,2126281,33,Woman
63,585509,DepthScenes,duration_manipulation_targetAtFixation,jsons/VE125_randls_42.json,http://54.235.29.9/FacialAge/BNav_EC2/DepthDuration/v2_depth_duration_MTurk/v2_DepthDuration_HTML.html#7,7,1366,657,1366,768,8-21-2022,9-43-54,64,depth_duration_stimuli/001059_2014-06-08_21-53-27_260595134347_rgbf000061-resize_4/001059_2014-06-08_21-53-27_260595134347_rgbf000061-resize_4-target.png,125,2.4185,25,9435,124,meters,jsons/VE125_randls_42.json,1726654,2126281,33,Woman
64,585509,DepthScenes,duration_manipulation_targetAtFixation,jsons/VE125_randls_42.json,http://54.235.29.9/FacialAge/BNav_EC2/DepthDuration/v2_depth_duration_MTurk/v2_DepthDuration_HTML.html#7,7,1366,657,1366,768,8-21-2022,9-43-54,65,depth_duration_stimuli/001032_2014-06-08_13-23-17_260595134347_rgbf000021-resize_3/001032_2014-06-08_13-23-17_260595134347_rgbf000021-resize_3-target.png,125,3.2725,20,2833,115,meters,jsons/VE125_randls_42.json,1726654,2126281,33,Woman
65,585509,DepthScenes,duration_manipulation_targetAtFixation,jsons/VE125_randls_42.json,http://54.235.29.9/FacialAge/BNav_EC2/DepthDuration/v2_depth_duration_MTurk/v2_DepthDuration_HTML.html#7,7,1366,657,1366,768,8-21-2022,9-43-54,66,depth_duration_stimuli/001222_2014-06-17_16-24-06_260595134347_rgbf000073-resize_0/001222_2014-06-17_16-24-06_260595134347_rgbf000073-resize-original.jpg,125,1.4385,40,3251,126,meters,jsons/VE125_randls_42.json,1726654,2126281,33,Woman
66,585509,DepthScenes,duration_manipulation_targetAtFixation,jsons/VE125_randls_42.json,http://54.235.29.9/FacialAge/BNav_EC2/DepthDuration/v2_depth_duration_MTurk/v2_DepthDuration_HTML.html#7,7,1366,657,1366,768,8-21-2022,9-43-54,67,depth_duration_stimuli/002043_2014-06-24_20-29-38_260595134347_rgbf000039-resize_4/002043_2014-06-24_20-29-38_260595134347_rgbf000039-resize_4-target.png,125,2.8435,35,2691,125,meters,jsons/VE125_randls_42.json,1726654,2126281,33,Woman
67,585509,DepthScenes,duration_manipulation_targetAtFixation,jsons/VE125_randls_42.json,http://54.235.29.9/FacialAge/BNav_EC2/DepthDuration/v2_depth_duration_MTurk/v2_DepthDuration_HTML.html#7,7,1366,657,1366,768,8-21-2022,9-43-54,68,depth_duration_stimuli/003048_2014-06-15_13-49-43_094959634447_rgbf000150-resize_1/003048_2014-06-15_13-49-43_094959634447_rgbf000150-resize_1-target.png,125,4.0035,25,2588,125,meters,jsons/VE125_randls_42.json,1726654,2126281,33,Woman
68,585509,DepthScenes,duration_manipulation_targetAtFixation,jsons/VE125_randls_42.json,http://54.235.29.9/FacialAge/BNav_EC2/DepthDuration/v2_depth_duration_MTurk/v2_DepthDuration_HTML.html#7,7,1366,657,1366,768,8-21-2022,9-43-54,69,depth_duration_stimuli/002570_2014-06-24_13-59-54_094959634447_rgbf000059-resize_0/002570_2014-06-24_13-59-54_094959634447_rgbf000059-resize_0-target.png,125,4.037,35,3194,124,meters,jsons/VE125_randls_42.json,1726654,2126281,33,Woman
69,585509,DepthScenes,duration_manipulation_targetAtFixation,jsons/VE125_randls_42.json,http://54.235.29.9/FacialAge/BNav_EC2/DepthDuration/v2_depth_duration_MTurk/v2_DepthDuration_HTML.html#7,7,1366,657,1366,768,8-21-2022,9-43-54,70,depth_duration_stimuli/002467_2014-06-28_20-38-07_260595134347_rgbf000026-resize_2/002467_2014-06-28_20-38-07_260595134347_rgbf000026-resize_2-target.png,125,4.742,30,5535,124,meters,jsons/VE125_randls_42.json,1726654,2126281,33,Woman
70,585509,DepthScenes,duration_manipulation_targetAtFixation,jsons/VE125_randls_42.json,http://54.235.29.9/FacialAge/BNav_EC2/DepthDuration/v2_depth_duration_MTurk/v2_DepthDuration_HTML.html#7,7,1366,657,1366,768,8-21-2022,9-43-54,71,depth_duration_stimuli/002213_2014-06-28_18-37-58_260595134347_rgbf000055-resize_1/002213_2014-06-28_18-37-58_260595134347_rgbf000055-resize_1-target.png,125,3.62,35,8054,124,meters,jsons/VE125_randls_42.json,1726654,2126281,33,Woman
71,585509,DepthScenes,duration_manipulation_targetAtFixation,jsons/VE125_randls_42.json,http://54.235.29.9/FacialAge/BNav_EC2/DepthDuration/v2_depth_duration_MTurk/v2_DepthDuration_HTML.html#7,7,1366,657,1366,768,8-21-2022,9-43-54,72,depth_duration_stimuli/000691_2014-06-08_13-08-50_260595134347_rgbf000132-resize_3/000691_2014-06-08_13-08-50_260595134347_rgbf000132-resize_3-target.png,125,4.1530000000000005,25,3465,124,meters,jsons/VE125_randls_42.json,1726654,2126281,33,Woman
72,585509,DepthScenes,duration_manipulation_targetAtFixation,jsons/VE125_randls_42.json,http://54.235.29.9/FacialAge/BNav_EC2/DepthDuration/v2_depth_duration_MTurk/v2_DepthDuration_HTML.html#7,7,1366,657,1366,768,8-21-2022,9-43-54,73,depth_duration_stimuli/000522_2014-06-08_13-35-06_260595134347_rgbf000244-resize_1/000522_2014-06-08_13-35-06_260595134347_rgbf000244-resize_1-target.png,125,2.3715,35,3243,125,meters,jsons/VE125_randls_42.json,1726654,2126281,33,Woman
73,585509,DepthScenes,duration_manipulation_targetAtFixation,jsons/VE125_randls_42.json,http://54.235.29.9/FacialAge/BNav_EC2/DepthDuration/v2_depth_duration_MTurk/v2_DepthDuration_HTML.html#7,7,1366,657,1366,768,8-21-2022,9-43-54,74,depth_duration_stimuli/002949_2014-06-26_15-57-42_094959634447_rgbf000079-resize_1/002949_2014-06-26_15-57-42_094959634447_rgbf000079-resize_1-target.png,125,1.8915,25,3979,125,meters,jsons/VE125_randls_42.json,1726654,2126281,33,Woman
74,585509,DepthScenes,duration_manipulation_targetAtFixation,jsons/VE125_randls_42.json,http://54.235.29.9/FacialAge/BNav_EC2/DepthDuration/v2_depth_duration_MTurk/v2_DepthDuration_HTML.html#7,7,1366,657,1366,768,8-21-2022,9-43-54,75,depth_duration_stimuli/002663_2014-06-13_15-50-26_094959634447_rgbf000075-resize_1/002663_2014-06-13_15-50-26_094959634447_rgbf000075-resize_1-target.png,125,4.7495,20,6153,124,meters,jsons/VE125_randls_42.json,1726654,2126281,33,Woman
75,585509,DepthScenes,duration_manipulation_targetAtFixation,jsons/VE125_randls_42.json,http://54.235.29.9/FacialAge/BNav_EC2/DepthDuration/v2_depth_duration_MTurk/v2_DepthDuration_HTML.html#7,7,1366,657,1366,768,8-21-2022,9-43-54,76,depth_duration_stimuli/000409_2014-06-04_19-23-33_260595134347_rgbf000067-resize_0/000409_2014-06-04_19-23-33_260595134347_rgbf000067-resize_0-target.png,125,3.7335,20,6651,126,meters,jsons/VE125_randls_42.json,1726654,2126281,33,Woman
76,585509,DepthScenes,duration_manipulation_targetAtFixation,jsons/VE125_randls_42.json,http://54.235.29.9/FacialAge/BNav_EC2/DepthDuration/v2_depth_duration_MTurk/v2_DepthDuration_HTML.html#7,7,1366,657,1366,768,8-21-2022,9-43-54,77,depth_duration_stimuli/000469_2014-06-09_19-42-10_260595134347_rgbf000081-resize_1/000469_2014-06-09_19-42-10_260595134347_rgbf000081-resize_1-target.png,125,1.652,35,2618,125,meters,jsons/VE125_randls_42.json,1726654,2126281,33,Woman
77,585509,DepthScenes,duration_manipulation_targetAtFixation,jsons/VE125_randls_42.json,http://54.235.29.9/FacialAge/BNav_EC2/DepthDuration/v2_depth_duration_MTurk/v2_DepthDuration_HTML.html#7,7,1366,657,1366,768,8-21-2022,9-43-54,78,depth_duration_stimuli/000483_2014-06-09_20-41-45_260595134347_rgbf000116-resize_4/000483_2014-06-09_20-41-45_260595134347_rgbf000116-resize_4-target.png,125,1.337,25,3962,124,meters,jsons/VE125_randls_42.json,1726654,2126281,33,Woman
78,585509,DepthScenes,duration_manipulation_targetAtFixation,jsons/VE125_randls_42.json,http://54.235.29.9/FacialAge/BNav_EC2/DepthDuration/v2_depth_duration_MTurk/v2_DepthDuration_HTML.html#7,7,1366,657,1366,768,8-21-2022,9-43-54,79,depth_duration_stimuli/001449_2014-06-19_17-01-27_260595134347_rgbf000116-resize_2/001449_2014-06-19_17-01-27_260595134347_rgbf000116-resize_2-target.png,125,3.452,30,3466,126,meters,jsons/VE125_randls_42.json,1726654,2126281,33,Woman
79,585509,DepthScenes,duration_manipulation_targetAtFixation,jsons/VE125_randls_42.json,http://54.235.29.9/FacialAge/BNav_EC2/DepthDuration/v2_depth_duration_MTurk/v2_DepthDuration_HTML.html#7,7,1366,657,1366,768,8-21-2022,9-43-54,80,depth_duration_stimuli/001450_2014-06-19_17-02-03_260595134347_rgbf000203-resize_4/001450_2014-06-19_17-02-03_260595134347_rgbf000203-resize_4-target.png,125,4.0106666666667,15,10619,125,meters,jsons/VE125_randls_42.json,1726654,2126281,33,Woman
80,585509,DepthScenes,duration_manipulation_targetAtFixation,jsons/VE125_randls_42.json,http://54.235.29.9/FacialAge/BNav_EC2/DepthDuration/v2_depth_duration_MTurk/v2_DepthDuration_HTML.html#7,7,1366,657,1366,768,8-21-2022,9-43-54,81,depth_duration_stimuli/002039_2014-06-24_20-22-38_260595134347_rgbf000084-resize_1/002039_2014-06-24_20-22-38_260595134347_rgbf000084-resize_1-target.png,125,4.408,25,3186,100,meters,jsons/VE125_randls_42.json,1726654,2126281,33,Woman
81,585509,DepthScenes,duration_manipulation_targetAtFixation,jsons/VE125_randls_42.json,http://54.235.29.9/FacialAge/BNav_EC2/DepthDuration/v2_depth_duration_MTurk/v2_DepthDuration_HTML.html#7,7,1366,657,1366,768,8-21-2022,9-43-54,82,depth_duration_stimuli/002103_2014-06-25_20-00-40_260595134347_rgbf000049-resize_0/002103_2014-06-25_20-00-40_260595134347_rgbf000049-resize_0-target.png,125,4.105,30,2970,125,meters,jsons/VE125_randls_42.json,1726654,2126281,33,Woman
82,585509,DepthScenes,duration_manipulation_targetAtFixation,jsons/VE125_randls_42.json,http://54.235.29.9/FacialAge/BNav_EC2/DepthDuration/v2_depth_duration_MTurk/v2_DepthDuration_HTML.html#7,7,1366,657,1366,768,8-21-2022,9-43-54,83,depth_duration_stimuli/001570_2014-06-20_17-21-09_260595134347_rgbf000135-resize_4/001570_2014-06-20_17-21-09_260595134347_rgbf000135-resize_4-target.png,125,4.467,20,4955,125,meters,jsons/VE125_randls_42.json,1726654,2126281,33,Woman
83,585509,DepthScenes,duration_manipulation_targetAtFixation,jsons/VE125_randls_42.json,http://54.235.29.9/FacialAge/BNav_EC2/DepthDuration/v2_depth_duration_MTurk/v2_DepthDuration_HTML.html#7,7,1366,657,1366,768,8-21-2022,9-43-54,84,depth_duration_stimuli/001392_2014-06-19_16-07-59_260595134347_rgbf000046-resize_1/001392_2014-06-19_16-07-59_260595134347_rgbf000046-resize_1-target.png,125,4.135,30,4138,125,meters,jsons/VE125_randls_42.json,1726654,2126281,33,Woman
84,585509,DepthScenes,duration_manipulation_targetAtFixation,jsons/VE125_randls_42.json,http://54.235.29.9/FacialAge/BNav_EC2/DepthDuration/v2_depth_duration_MTurk/v2_DepthDuration_HTML.html#7,7,1366,657,1366,768,8-21-2022,9-43-54,85,depth_duration_stimuli/003621_2014-05-23_18-06-08_094959634447_rgbf000101-resize_1/003621_2014-05-23_18-06-08_094959634447_rgbf000101-resize_1-target.png,125,3.9835,25,3161,124,meters,jsons/VE125_randls_42.json,1726654,2126281,33,Woman
85,585509,DepthScenes,duration_manipulation_targetAtFixation,jsons/VE125_randls_42.json,http://54.235.29.9/FacialAge/BNav_EC2/DepthDuration/v2_depth_duration_MTurk/v2_DepthDuration_HTML.html#7,7,1366,657,1366,768,8-21-2022,9-43-54,86,depth_duration_stimuli/001584_2014-06-20_11-07-43_260595134347_rgbf000002-resize_1/001584_2014-06-20_11-07-43_260595134347_rgbf000002-resize_1-target.png,125,3.53,30,2795,124,meters,jsons/VE125_randls_42.json,1726654,2126281,33,Woman
86,585509,DepthScenes,duration_manipulation_targetAtFixation,jsons/VE125_randls_42.json,http://54.235.29.9/FacialAge/BNav_EC2/DepthDuration/v2_depth_duration_MTurk/v2_DepthDuration_HTML.html#7,7,1366,657,1366,768,8-21-2022,9-43-54,87,depth_duration_stimuli/000436_2014-06-09_22-25-11_260595134347_rgbf000137-resize_1/000436_2014-06-09_22-25-11_260595134347_rgbf000137-resize_1-target.png,125,4.0705,35,2536,119,meters,jsons/VE125_randls_42.json,1726654,2126281,33,Woman
87,585509,DepthScenes,duration_manipulation_targetAtFixation,jsons/VE125_randls_42.json,http://54.235.29.9/FacialAge/BNav_EC2/DepthDuration/v2_depth_duration_MTurk/v2_DepthDuration_HTML.html#7,7,1366,657,1366,768,8-21-2022,9-43-54,88,depth_duration_stimuli/002444_2014-06-28_20-32-08_260595134347_rgbf000027-resize_0/002444_2014-06-28_20-32-08_260595134347_rgbf000027-resize_0-target.png,125,4.388999999999999,35,2841,124,meters,jsons/VE125_randls_42.json,1726654,2126281,33,Woman
88,585509,DepthScenes,duration_manipulation_targetAtFixation,jsons/VE125_randls_42.json,http://54.235.29.9/FacialAge/BNav_EC2/DepthDuration/v2_depth_duration_MTurk/v2_DepthDuration_HTML.html#7,7,1366,657,1366,768,8-21-2022,9-43-54,89,depth_duration_stimuli/003070_2014-06-15_14-58-27_094959634447_rgbf000150-resize_3/003070_2014-06-15_14-58-27_094959634447_rgbf000150-resize_3-target.png,125,2.9415,25,2764,125,meters,jsons/VE125_randls_42.json,1726654,2126281,33,Woman
89,585509,DepthScenes,duration_manipulation_targetAtFixation,jsons/VE125_randls_42.json,http://54.235.29.9/FacialAge/BNav_EC2/DepthDuration/v2_depth_duration_MTurk/v2_DepthDuration_HTML.html#7,7,1366,657,1366,768,8-21-2022,9-43-54,90,depth_duration_stimuli/000943_2014-06-09_19-31-07_260595134347_rgbf000128-resize_1/000943_2014-06-09_19-31-07_260595134347_rgbf000128-resize_1-target.png,125,1.9765,25,3175,125,meters,jsons/VE125_randls_42.json,1726654,2126281,33,Woman
90,585509,DepthScenes,duration_manipulation_targetAtFixation,jsons/VE125_randls_42.json,http://54.235.29.9/FacialAge/BNav_EC2/DepthDuration/v2_depth_duration_MTurk/v2_DepthDuration_HTML.html#7,7,1366,657,1366,768,8-21-2022,9-43-54,91,depth_duration_stimuli/000470_2014-06-09_19-42-40_260595134347_rgbf000094-resize_1/000470_2014-06-09_19-42-40_260595134347_rgbf000094-resize_1-target.png,125,1.831,20,2474,125,meters,jsons/VE125_randls_42.json,1726654,2126281,33,Woman
91,585509,DepthScenes,duration_manipulation_targetAtFixation,jsons/VE125_randls_42.json,http://54.235.29.9/FacialAge/BNav_EC2/DepthDuration/v2_depth_duration_MTurk/v2_DepthDuration_HTML.html#7,7,1366,657,1366,768,8-21-2022,9-43-54,92,depth_duration_stimuli/000109_2014-05-14_23-41-52_260595134347_rgbf000035-resize_9/000109_2014-05-14_23-41-52_260595134347_rgbf000035-resize_9-target.png,125,1.3545,35,3308,125,meters,jsons/VE125_randls_42.json,1726654,2126281,33,Woman
92,585509,DepthScenes,duration_manipulation_targetAtFixation,jsons/VE125_randls_42.json,http://54.235.29.9/FacialAge/BNav_EC2/DepthDuration/v2_depth_duration_MTurk/v2_DepthDuration_HTML.html#7,7,1366,657,1366,768,8-21-2022,9-43-54,93,depth_duration_stimuli/002549_2014-06-24_13-41-39_094959634447_rgbf000022-resize_3/002549_2014-06-24_13-41-39_094959634447_rgbf000022-resize_3-target.png,125,1.476,30,5273,124,meters,jsons/VE125_randls_42.json,1726654,2126281,33,Woman
93,585509,DepthScenes,duration_manipulation_targetAtFixation,jsons/VE125_randls_42.json,http://54.235.29.9/FacialAge/BNav_EC2/DepthDuration/v2_depth_duration_MTurk/v2_DepthDuration_HTML.html#7,7,1366,657,1366,768,8-21-2022,9-43-54,94,depth_duration_stimuli/002750_2014-06-22_19-08-03_094959634447_rgbf000094-resize_4/002750_2014-06-22_19-08-03_094959634447_rgbf000094-resize_4-target.png,125,2.354,25,4092,126,meters,jsons/VE125_randls_42.json,1726654,2126281,33,Woman
94,585509,DepthScenes,duration_manipulation_targetAtFixation,jsons/VE125_randls_42.json,http://54.235.29.9/FacialAge/BNav_EC2/DepthDuration/v2_depth_duration_MTurk/v2_DepthDuration_HTML.html#7,7,1366,657,1366,768,8-21-2022,9-43-54,95,depth_duration_stimuli/002905_2014-06-03_18-04-43_094959634447_rgbf000151-resize_2/002905_2014-06-03_18-04-43_094959634447_rgbf000151-resize_2-target.png,125,2.0295,23,4744,124,meters,jsons/VE125_randls_42.json,1726654,2126281,33,Woman
95,585509,DepthScenes,duration_manipulation_targetAtFixation,jsons/VE125_randls_42.json,http://54.235.29.9/FacialAge/BNav_EC2/DepthDuration/v2_depth_duration_MTurk/v2_DepthDuration_HTML.html#7,7,1366,657,1366,768,8-21-2022,9-43-54,96,depth_duration_stimuli/003423_2014-05-21_10-23-26_094959634447_rgbf002665-resize_2/003423_2014-05-21_10-23-26_094959634447_rgbf002665-resize_2-target.png,125,3.2575,40,3735,124,meters,jsons/VE125_randls_42.json,1726654,2126281,33,Woman
96,585509,DepthScenes,duration_manipulation_targetAtFixation,jsons/VE125_randls_42.json,http://54.235.29.9/FacialAge/BNav_EC2/DepthDuration/v2_depth_duration_MTurk/v2_DepthDuration_HTML.html#7,7,1366,657,1366,768,8-21-2022,9-43-54,97,depth_duration_stimuli/000773_2014-06-08_22-24-54_260595134347_rgbf000093-resize_1/000773_2014-06-08_22-24-54_260595134347_rgbf000093-resize_1-target.png,125,4.973,35,2832,125,meters,jsons/VE125_randls_42.json,1726654,2126281,33,Woman
97,585509,DepthScenes,duration_manipulation_targetAtFixation,jsons/VE125_randls_42.json,http://54.235.29.9/FacialAge/BNav_EC2/DepthDuration/v2_depth_duration_MTurk/v2_DepthDuration_HTML.html#7,7,1366,657,1366,768,8-21-2022,9-43-54,98,depth_duration_stimuli/002414_2014-06-28_20-24-58_260595134347_rgbf000067-resize_4/002414_2014-06-28_20-24-58_260595134347_rgbf000067-resize_4-target.png,125,4.363,30,3962,125,meters,jsons/VE125_randls_42.json,1726654,2126281,33,Woman
98,585509,DepthScenes,duration_manipulation_targetAtFixation,jsons/VE125_randls_42.json,http://54.235.29.9/FacialAge/BNav_EC2/DepthDuration/v2_depth_duration_MTurk/v2_DepthDuration_HTML.html#7,7,1366,657,1366,768,8-21-2022,9-43-54,99,depth_duration_stimuli/001540_2014-06-20_17-01-05_260595134347_rgbf000086-resize_2/001540_2014-06-20_17-01-05_260595134347_rgbf000086-resize-original.jpg,125,1.459,20,3881,125,meters,jsons/VE125_randls_42.json,1726654,2126281,33,Woman
99,585509,DepthScenes,duration_manipulation_targetAtFixation,jsons/VE125_randls_42.json,http://54.235.29.9/FacialAge/BNav_EC2/DepthDuration/v2_depth_duration_MTurk/v2_DepthDuration_HTML.html#7,7,1366,657,1366,768,8-21-2022,9-43-54,100,depth_duration_stimuli/002153_2014-06-25_21-27-18_260595134347_rgbf000038-resize_5/002153_2014-06-25_21-27-18_260595134347_rgbf000038-resize_5-target.png,125,2.505,30,3080,124,meters,jsons/VE125_randls_42.json,1726654,2126281,33,Woman
100,585509,DepthScenes,duration_manipulation_targetAtFixation,jsons/VE125_randls_42.json,http://54.235.29.9/FacialAge/BNav_EC2/DepthDuration/v2_depth_duration_MTurk/v2_DepthDuration_HTML.html#7,7,1366,657,1366,768,8-21-2022,9-43-54,101,depth_duration_stimuli/002660_2014-06-13_15-44-18_094959634447_rgbf001878-resize_2/002660_2014-06-13_15-44-18_094959634447_rgbf001878-resize_2-target.png,125,3.576,20,3594,125,meters,jsons/VE125_randls_42.json,1726654,2126281,33,Woman
101,585509,DepthScenes,duration_manipulation_targetAtFixation,jsons/VE125_randls_42.json,http://54.235.29.9/FacialAge/BNav_EC2/DepthDuration/v2_depth_duration_MTurk/v2_DepthDuration_HTML.html#7,7,1366,657,1366,768,8-21-2022,9-43-54,102,depth_duration_stimuli/001029_2014-06-08_13-17-57_260595134347_rgbf000065-resize_1/001029_2014-06-08_13-17-57_260595134347_rgbf000065-resize_1-target.png,125,3.0835,20,4200,125,meters,jsons/VE125_randls_42.json,1726654,2126281,33,Woman
102,585509,DepthScenes,duration_manipulation_targetAtFixation,jsons/VE125_randls_42.json,http://54.235.29.9/FacialAge/BNav_EC2/DepthDuration/v2_depth_duration_MTurk/v2_DepthDuration_HTML.html#7,7,1366,657,1366,768,8-21-2022,9-43-54,103,depth_duration_stimuli/000677_2014-06-08_23-10-32_260595134347_rgbf000158-resize_6/000677_2014-06-08_23-10-32_260595134347_rgbf000158-resize_6-target.png,125,3.556,30,3211,124,meters,jsons/VE125_randls_42.json,1726654,2126281,33,Woman
103,585509,DepthScenes,duration_manipulation_targetAtFixation,jsons/VE125_randls_42.json,http://54.235.29.9/FacialAge/BNav_EC2/DepthDuration/v2_depth_duration_MTurk/v2_DepthDuration_HTML.html#7,7,1366,657,1366,768,8-21-2022,9-43-54,104,depth_duration_stimuli/001133_2014-06-17_14-49-16_260595134347_rgbf000100-resize_0/001133_2014-06-17_14-49-16_260595134347_rgbf000100-resize_0-target.png,125,4.2115,35,3035,124,meters,jsons/VE125_randls_42.json,1726654,2126281,33,Woman
104,585509,DepthScenes,duration_manipulation_targetAtFixation,jsons/VE125_randls_42.json,http://54.235.29.9/FacialAge/BNav_EC2/DepthDuration/v2_depth_duration_MTurk/v2_DepthDuration_HTML.html#7,7,1366,657,1366,768,8-21-2022,9-43-54,105,depth_duration_stimuli/001132_2014-06-17_14-48-54_260595134347_rgbf000100-resize_2/001132_2014-06-17_14-48-54_260595134347_rgbf000100-resize_2-target.png,125,3.753,30,3578,125,meters,jsons/VE125_randls_42.json,1726654,2126281,33,Woman
105,585509,DepthScenes,duration_manipulation_targetAtFixation,jsons/VE125_randls_42.json,http://54.235.29.9/FacialAge/BNav_EC2/DepthDuration/v2_depth_duration_MTurk/v2_DepthDuration_HTML.html#7,7,1366,657,1366,768,8-21-2022,9-43-54,106,depth_duration_stimuli/002964_2014-06-08_17-46-11_094959634447_rgbf000091-resize_4/002964_2014-06-08_17-46-11_094959634447_rgbf000091-resize_4-target.png,125,1.6909999999999998,25,3160,125,meters,jsons/VE125_randls_42.json,1726654,2126281,33,Woman
106,585509,DepthScenes,duration_manipulation_targetAtFixation,jsons/VE125_randls_42.json,http://54.235.29.9/FacialAge/BNav_EC2/DepthDuration/v2_depth_duration_MTurk/v2_DepthDuration_HTML.html#7,7,1366,657,1366,768,8-21-2022,9-43-54,107,depth_duration_stimuli/002136_2014-06-25_21-18-03_260595134347_rgbf000109-resize_3/002136_2014-06-25_21-18-03_260595134347_rgbf000109-resize_3-target.png,125,1.9569999999999999,30,4027,125,meters,jsons/VE125_randls_42.json,1726654,2126281,33,Woman
107,585509,DepthScenes,duration_manipulation_targetAtFixation,jsons/VE125_randls_42.json,http://54.235.29.9/FacialAge/BNav_EC2/DepthDuration/v2_depth_duration_MTurk/v2_DepthDuration_HTML.html#7,7,1366,657,1366,768,8-21-2022,9-43-54,108,depth_duration_stimuli/001808_2014-06-26_20-50-58_260595134347_rgbf000029-resize_1/001808_2014-06-26_20-50-58_260595134347_rgbf000029-resize_1-target.png,125,4.249,40,3033,125,meters,jsons/VE125_randls_42.json,1726654,2126281,33,Woman
108,585509,DepthScenes,duration_manipulation_targetAtFixation,jsons/VE125_randls_42.json,http://54.235.29.9/FacialAge/BNav_EC2/DepthDuration/v2_depth_duration_MTurk/v2_DepthDuration_HTML.html#7,7,1366,657,1366,768,8-21-2022,9-43-54,109,depth_duration_stimuli/001815_2014-06-26_20-52-55_260595134347_rgbf000020-resize_0/001815_2014-06-26_20-52-55_260595134347_rgbf000020-resize_0-target.png,125,3.3865,50,3530,125,meters,jsons/VE125_randls_42.json,1726654,2126281,33,Woman
109,585509,DepthScenes,duration_manipulation_targetAtFixation,jsons/VE125_randls_42.json,http://54.235.29.9/FacialAge/BNav_EC2/DepthDuration/v2_depth_duration_MTurk/v2_DepthDuration_HTML.html#7,7,1366,657,1366,768,8-21-2022,9-43-54,110,depth_duration_stimuli/000929_2014-06-09_16-33-19_260595134347_rgbf000139-resize_0/000929_2014-06-09_16-33-19_260595134347_rgbf000139-resize_0-target.png,125,2.8680000000000003,45,3049,126,meters,jsons/VE125_randls_42.json,1726654,2126281,33,Woman
110,585509,DepthScenes,duration_manipulation_targetAtFixation,jsons/VE125_randls_42.json,http://54.235.29.9/FacialAge/BNav_EC2/DepthDuration/v2_depth_duration_MTurk/v2_DepthDuration_HTML.html#7,7,1366,657,1366,768,8-21-2022,9-43-54,111,depth_duration_stimuli/000457_2014-06-08_16-52-43_260595134347_rgbf000199-resize_1/000457_2014-06-08_16-52-43_260595134347_rgbf000199-resize_1-target.png,125,3.6489999999999996,35,4119,120,meters,jsons/VE125_randls_42.json,1726654,2126281,33,Woman
111,585509,DepthScenes,duration_manipulation_targetAtFixation,jsons/VE125_randls_42.json,http://54.235.29.9/FacialAge/BNav_EC2/DepthDuration/v2_depth_duration_MTurk/v2_DepthDuration_HTML.html#7,7,1366,657,1366,768,8-21-2022,9-43-54,112,depth_duration_stimuli/000447_2014-06-08_16-15-46_260595134347_rgbf000130-resize_1/000447_2014-06-08_16-15-46_260595134347_rgbf000130-resize_1-target.png,125,4.479,30,2602,125,meters,jsons/VE125_randls_42.json,1726654,2126281,33,Woman
112,585509,DepthScenes,duration_manipulation_targetAtFixation,jsons/VE125_randls_42.json,http://54.235.29.9/FacialAge/BNav_EC2/DepthDuration/v2_depth_duration_MTurk/v2_DepthDuration_HTML.html#7,7,1366,657,1366,768,8-21-2022,9-43-54,113,depth_duration_stimuli/001447_2014-06-19_17-00-32_260595134347_rgbf000082-resize_5/001447_2014-06-19_17-00-32_260595134347_rgbf000082-resize_5-target.png,125,4.13775,15,7562,125,meters,jsons/VE125_randls_42.json,1726654,2126281,33,Woman
113,585509,DepthScenes,duration_manipulation_targetAtFixation,jsons/VE125_randls_42.json,http://54.235.29.9/FacialAge/BNav_EC2/DepthDuration/v2_depth_duration_MTurk/v2_DepthDuration_HTML.html#7,7,1366,657,1366,768,8-21-2022,9-43-54,114,depth_duration_stimuli/000493_2014-06-09_21-01-18_260595134347_rgbf000196-resize_3/000493_2014-06-09_21-01-18_260595134347_rgbf000196-resize_3-target.png,125,3.44,25,2554,124,meters,jsons/VE125_randls_42.json,1726654,2126281,33,Woman
114,585509,DepthScenes,duration_manipulation_targetAtFixation,jsons/VE125_randls_42.json,http://54.235.29.9/FacialAge/BNav_EC2/DepthDuration/v2_depth_duration_MTurk/v2_DepthDuration_HTML.html#7,7,1366,657,1366,768,8-21-2022,9-43-54,115,depth_duration_stimuli/000191_2014-05-12_17-07-38_260595134347_rgbf000199-resize_0/000191_2014-05-12_17-07-38_260595134347_rgbf000199-resize_0-target.png,125,3.7995,30,2410,124,meters,jsons/VE125_randls_42.json,1726654,2126281,33,Woman
115,585509,DepthScenes,duration_manipulation_targetAtFixation,jsons/VE125_randls_42.json,http://54.235.29.9/FacialAge/BNav_EC2/DepthDuration/v2_depth_duration_MTurk/v2_DepthDuration_HTML.html#7,7,1366,657,1366,768,8-21-2022,9-43-54,116,depth_duration_stimuli/001170_2014-06-17_15-43-44_260595134347_rgbf000096-resize_6/001170_2014-06-17_15-43-44_260595134347_rgbf000096-resize-original.jpg,125,1.1909999999999998,25,2441,124,meters,jsons/VE125_randls_42.json,1726654,2126281,33,Woman
116,585509,DepthScenes,duration_manipulation_targetAtFixation,jsons/VE125_randls_42.json,http://54.235.29.9/FacialAge/BNav_EC2/DepthDuration/v2_depth_duration_MTurk/v2_DepthDuration_HTML.html#7,7,1366,657,1366,768,8-21-2022,9-43-54,117,depth_duration_stimuli/002279_2014-06-28_18-55-32_260595134347_rgbf000040-resize_5/002279_2014-06-28_18-55-32_260595134347_rgbf000040-resize_5-target.png,125,1.5043333333333,50,4427,124,meters,jsons/VE125_randls_42.json,1726654,2126281,33,Woman
117,585509,DepthScenes,duration_manipulation_targetAtFixation,jsons/VE125_randls_42.json,http://54.235.29.9/FacialAge/BNav_EC2/DepthDuration/v2_depth_duration_MTurk/v2_DepthDuration_HTML.html#7,7,1366,657,1366,768,8-21-2022,9-43-54,118,depth_duration_stimuli/000635_2014-06-08_16-38-42_260595134347_rgbf000106-resize_1/000635_2014-06-08_16-38-42_260595134347_rgbf000106-resize_1-target.png,125,2.074,45,2427,124,meters,jsons/VE125_randls_42.json,1726654,2126281,33,Woman
118,585509,DepthScenes,duration_manipulation_targetAtFixation,jsons/VE125_randls_42.json,http://54.235.29.9/FacialAge/BNav_EC2/DepthDuration/v2_depth_duration_MTurk/v2_DepthDuration_HTML.html#7,7,1366,657,1366,768,8-21-2022,9-43-54,119,depth_duration_stimuli/001175_2014-06-17_15-45-55_260595134347_rgbf000129-resize_4/001175_2014-06-17_15-45-55_260595134347_rgbf000129-resize_4-target.png,125,4.255,20,2906,126,meters,jsons/VE125_randls_42.json,1726654,2126281,33,Woman
119,585509,DepthScenes,duration_manipulation_targetAtFixation,jsons/VE125_randls_42.json,http://54.235.29.9/FacialAge/BNav_EC2/DepthDuration/v2_depth_duration_MTurk/v2_DepthDuration_HTML.html#7,7,1366,657,1366,768,8-21-2022,9-43-54,120,depth_duration_stimuli/003490_2014-05-21_15-50-11_094959634447_rgbf000101-resize_3/003490_2014-05-21_15-50-11_094959634447_rgbf000101-resize_3-target.png,125,3.6445,25,2459,126,meters,jsons/VE125_randls_42.json,1726654,2126281,33,Woman
120,585509,DepthScenes,duration_manipulation_targetAtFixation,jsons/VE125_randls_42.json,http://54.235.29.9/FacialAge/BNav_EC2/DepthDuration/v2_depth_duration_MTurk/v2_DepthDuration_HTML.html#7,7,1366,657,1366,768,8-21-2022,9-43-54,121,depth_duration_stimuli/001150_2014-06-17_15-27-34_260595134347_rgbf000108-resize_2/001150_2014-06-17_15-27-34_260595134347_rgbf000108-resize_2-target.png,125,4.0325,45,3146,124,meters,jsons/VE125_randls_42.json,1726654,2126281,33,Woman
121,585509,DepthScenes,duration_manipulation_targetAtFixation,jsons/VE125_randls_42.json,http://54.235.29.9/FacialAge/BNav_EC2/DepthDuration/v2_depth_duration_MTurk/v2_DepthDuration_HTML.html#7,7,1366,657,1366,768,8-21-2022,9-43-54,122,depth_duration_stimuli/000665_2014-06-09_20-42-35_260595134347_rgbf000110-resize_1/000665_2014-06-09_20-42-35_260595134347_rgbf000110-resize_1-target.png,125,3.057,20,2730,124,meters,jsons/VE125_randls_42.json,1726654,2126281,33,Woman
122,585509,DepthScenes,duration_manipulation_targetAtFixation,jsons/VE125_randls_42.json,http://54.235.29.9/FacialAge/BNav_EC2/DepthDuration/v2_depth_duration_MTurk/v2_DepthDuration_HTML.html#7,7,1366,657,1366,768,8-21-2022,9-43-54,123,depth_duration_stimuli/000810_2014-06-08_17-20-01_260595134347_rgbf000105-resize_0/000810_2014-06-08_17-20-01_260595134347_rgbf000105-resize_0-target.png,125,1.4865,50,2988,125,meters,jsons/VE125_randls_42.json,1726654,2126281,33,Woman
123,585509,DepthScenes,duration_manipulation_targetAtFixation,jsons/VE125_randls_42.json,http://54.235.29.9/FacialAge/BNav_EC2/DepthDuration/v2_depth_duration_MTurk/v2_DepthDuration_HTML.html#7,7,1366,657,1366,768,8-21-2022,9-43-54,124,depth_duration_stimuli/001214_2014-06-17_16-13-55_260595134347_rgbf000111-resize_0/001214_2014-06-17_16-13-55_260595134347_rgbf000111-resize_0-target.png,125,2.6505,40,2650,124,meters,jsons/VE125_randls_42.json,1726654,2126281,33,Woman
124,585509,DepthScenes,duration_manipulation_targetAtFixation,jsons/VE125_randls_42.json,http://54.235.29.9/FacialAge/BNav_EC2/DepthDuration/v2_depth_duration_MTurk/v2_DepthDuration_HTML.html#7,7,1366,657,1366,768,8-21-2022,9-43-54,125,depth_duration_stimuli/001092_2014-06-15_17-34-58_260595134347_rgbf000171-resize_3/001092_2014-06-15_17-34-58_260595134347_rgbf000171-resize_3-target.png,125,2.6935,25,15097,128,meters,jsons/VE125_randls_42.json,1726654,2126281,33,Woman
125,585509,DepthScenes,duration_manipulation_targetAtFixation,jsons/VE125_randls_42.json,http://54.235.29.9/FacialAge/BNav_EC2/DepthDuration/v2_depth_duration_MTurk/v2_DepthDuration_HTML.html#7,7,1366,657,1366,768,8-21-2022,9-43-54,126,depth_duration_stimuli/002545_2014-06-24_13-38-53_094959634447_rgbf000080-resize_4/002545_2014-06-24_13-38-53_094959634447_rgbf000080-resize_4-target.png,125,1.9205,50,2938,124,meters,jsons/VE125_randls_42.json,1726654,2126281,33,Woman
126,585509,DepthScenes,duration_manipulation_targetAtFixation,jsons/VE125_randls_42.json,http://54.235.29.9/FacialAge/BNav_EC2/DepthDuration/v2_depth_duration_MTurk/v2_DepthDuration_HTML.html#7,7,1366,657,1366,768,8-21-2022,9-43-54,127,depth_duration_stimuli/000414_2014-06-04_19-49-13_260595134347_rgbf000044-resize_0/000414_2014-06-04_19-49-13_260595134347_rgbf000044-resize_0-target.png,125,4.329,45,3050,125,meters,jsons/VE125_randls_42.json,1726654,2126281,33,Woman
127,585509,DepthScenes,duration_manipulation_targetAtFixation,jsons/VE125_randls_42.json,http://54.235.29.9/FacialAge/BNav_EC2/DepthDuration/v2_depth_duration_MTurk/v2_DepthDuration_HTML.html#7,7,1366,657,1366,768,8-21-2022,9-43-54,128,depth_duration_stimuli/003129_2014-05-12_10-48-10_094959634447_rgbf000100-resize_0/003129_2014-05-12_10-48-10_094959634447_rgbf000100-resize_0-target.png,125,4.9305,30,2714,125,meters,jsons/VE125_randls_42.json,1726654,2126281,33,Woman
128,585509,DepthScenes,duration_manipulation_targetAtFixation,jsons/VE125_randls_42.json,http://54.235.29.9/FacialAge/BNav_EC2/DepthDuration/v2_depth_duration_MTurk/v2_DepthDuration_HTML.html#7,7,1366,657,1366,768,8-21-2022,9-43-54,129,depth_duration_stimuli/002630_2014-06-24_14-47-50_094959634447_rgbf000055-resize_1/002630_2014-06-24_14-47-50_094959634447_rgbf000055-resize_1-target.png,125,3.0095,35,2701,126,meters,jsons/VE125_randls_42.json,1726654,2126281,33,Woman
129,585509,DepthScenes,duration_manipulation_targetAtFixation,jsons/VE125_randls_42.json,http://54.235.29.9/FacialAge/BNav_EC2/DepthDuration/v2_depth_duration_MTurk/v2_DepthDuration_HTML.html#7,7,1366,657,1366,768,8-21-2022,9-43-54,130,depth_duration_stimuli/002758_2014-06-22_19-11-20_094959634447_rgbf000128-resize_1/002758_2014-06-22_19-11-20_094959634447_rgbf000128-resize_1-target.png,125,2.555,30,3205,124,meters,jsons/VE125_randls_42.json,1726654,2126281,33,Woman
130,585509,DepthScenes,duration_manipulation_targetAtFixation,jsons/VE125_randls_42.json,http://54.235.29.9/FacialAge/BNav_EC2/DepthDuration/v2_depth_duration_MTurk/v2_DepthDuration_HTML.html#7,7,1366,657,1366,768,8-21-2022,9-43-54,131,depth_duration_stimuli/000917_2014-06-09_22-45-29_260595134347_rgbf000149-resize_3/000917_2014-06-09_22-45-29_260595134347_rgbf000149-resize_3-target.png,125,4.1865,25,3177,124,meters,jsons/VE125_randls_42.json,1726654,2126281,33,Woman
131,585509,DepthScenes,duration_manipulation_targetAtFixation,jsons/VE125_randls_42.json,http://54.235.29.9/FacialAge/BNav_EC2/DepthDuration/v2_depth_duration_MTurk/v2_DepthDuration_HTML.html#7,7,1366,657,1366,768,8-21-2022,9-43-54,132,depth_duration_stimuli/002323_2014-06-28_20-01-54_260595134347_rgbf000051-resize_4/002323_2014-06-28_20-01-54_260595134347_rgbf000051-resize_4-target.png,125,3.7310000000000003,35,2856,124,meters,jsons/VE125_randls_42.json,1726654,2126281,33,Woman
132,585509,DepthScenes,duration_manipulation_targetAtFixation,jsons/VE125_randls_42.json,http://54.235.29.9/FacialAge/BNav_EC2/DepthDuration/v2_depth_duration_MTurk/v2_DepthDuration_HTML.html#7,7,1366,657,1366,768,8-21-2022,9-43-54,133,depth_duration_stimuli/001806_2014-06-26_20-50-20_260595134347_rgbf000091-resize_1/001806_2014-06-26_20-50-20_260595134347_rgbf000091-resize_1-target.png,125,2.7305,25,2875,127,meters,jsons/VE125_randls_42.json,1726654,2126281,33,Woman
133,585509,DepthScenes,duration_manipulation_targetAtFixation,jsons/VE125_randls_42.json,http://54.235.29.9/FacialAge/BNav_EC2/DepthDuration/v2_depth_duration_MTurk/v2_DepthDuration_HTML.html#7,7,1366,657,1366,768,8-21-2022,9-43-54,134,depth_duration_stimuli/001617_2014-06-20_11-35-32_260595134347_rgbf000066-resize_1/001617_2014-06-20_11-35-32_260595134347_rgbf000066-resize_1-target.png,125,3.7910000000000004,20,2393,125,meters,jsons/VE125_randls_42.json,1726654,2126281,33,Woman
134,585509,DepthScenes,duration_manipulation_targetAtFixation,jsons/VE125_randls_42.json,http://54.235.29.9/FacialAge/BNav_EC2/DepthDuration/v2_depth_duration_MTurk/v2_DepthDuration_HTML.html#7,7,1366,657,1366,768,8-21-2022,9-43-54,135,depth_duration_stimuli/002072_2014-06-24_21-48-06_260595134347_rgbf000115-resize_0/002072_2014-06-24_21-48-06_260595134347_rgbf000115-resize-original.jpg,125,4.702,35,3035,125,meters,jsons/VE125_randls_42.json,1726654,2126281,33,Woman
135,585509,DepthScenes,duration_manipulation_targetAtFixation,jsons/VE125_randls_42.json,http://54.235.29.9/FacialAge/BNav_EC2/DepthDuration/v2_depth_duration_MTurk/v2_DepthDuration_HTML.html#7,7,1366,657,1366,768,8-21-2022,9-43-54,136,depth_duration_stimuli/001199_2014-06-17_16-03-48_260595134347_rgbf000077-resize_0/001199_2014-06-17_16-03-48_260595134347_rgbf000077-resize_0-target.png,125,3.4375,30,2474,125,meters,jsons/VE125_randls_42.json,1726654,2126281,33,Woman
136,585509,DepthScenes,duration_manipulation_targetAtFixation,jsons/VE125_randls_42.json,http://54.235.29.9/FacialAge/BNav_EC2/DepthDuration/v2_depth_duration_MTurk/v2_DepthDuration_HTML.html#7,7,1366,657,1366,768,8-21-2022,9-43-54,137,depth_duration_stimuli/000502_2014-06-08_23-02-32_260595134347_rgbf000063-resize_4/000502_2014-06-08_23-02-32_260595134347_rgbf000063-resize_4-target.png,125,2.431,45,2874,124,meters,jsons/VE125_randls_42.json,1726654,2126281,33,Woman
137,585509,DepthScenes,duration_manipulation_targetAtFixation,jsons/VE125_randls_42.json,http://54.235.29.9/FacialAge/BNav_EC2/DepthDuration/v2_depth_duration_MTurk/v2_DepthDuration_HTML.html#7,7,1366,657,1366,768,8-21-2022,9-43-54,138,depth_duration_stimuli/003492_2014-05-21_15-50-55_094959634447_rgbf000828-resize_1/003492_2014-05-21_15-50-55_094959634447_rgbf000828-resize_1-target.png,125,4.06875,40,2521,124,meters,jsons/VE125_randls_42.json,1726654,2126281,33,Woman
138,585509,DepthScenes,duration_manipulation_targetAtFixation,jsons/VE125_randls_42.json,http://54.235.29.9/FacialAge/BNav_EC2/DepthDuration/v2_depth_duration_MTurk/v2_DepthDuration_HTML.html#7,7,1366,657,1366,768,8-21-2022,9-43-54,139,depth_duration_stimuli/002568_2014-06-24_13-59-21_094959634447_rgbf000062-resize_4/002568_2014-06-24_13-59-21_094959634447_rgbf000062-resize_4-target.png,125,3.015,30,2314,124,meters,jsons/VE125_randls_42.json,1726654,2126281,33,Woman
139,585509,DepthScenes,duration_manipulation_targetAtFixation,jsons/VE125_randls_42.json,http://54.235.29.9/FacialAge/BNav_EC2/DepthDuration/v2_depth_duration_MTurk/v2_DepthDuration_HTML.html#7,7,1366,657,1366,768,8-21-2022,9-43-54,140,depth_duration_stimuli/001011_2014-06-08_23-18-54_260595134347_rgbf000044-resize_4/001011_2014-06-08_23-18-54_260595134347_rgbf000044-resize_4-target.png,125,2.4730000000000003,35,2586,124,meters,jsons/VE125_randls_42.json,1726654,2126281,33,Woman
140,585509,DepthScenes,duration_manipulation_targetAtFixation,jsons/VE125_randls_42.json,http://54.235.29.9/FacialAge/BNav_EC2/DepthDuration/v2_depth_duration_MTurk/v2_DepthDuration_HTML.html#7,7,1366,657,1366,768,8-21-2022,9-43-54,141,depth_duration_stimuli/002875_2014-06-01_15-19-00_094959634447_rgbf000151-resize_1/002875_2014-06-01_15-19-00_094959634447_rgbf000151-resize_1-target.png,125,1.9675,20,2890,136,meters,jsons/VE125_randls_42.json,1726654,2126281,33,Woman
141,585509,DepthScenes,duration_manipulation_targetAtFixation,jsons/VE125_randls_42.json,http://54.235.29.9/FacialAge/BNav_EC2/DepthDuration/v2_depth_duration_MTurk/v2_DepthDuration_HTML.html#7,7,1366,657,1366,768,8-21-2022,9-43-54,142,depth_duration_stimuli/002118_2014-06-25_20-32-08_260595134347_rgbf000078-resize_1/002118_2014-06-25_20-32-08_260595134347_rgbf000078-resize_1-target.png,125,2.6460000000000004,20,3724,124,meters,jsons/VE125_randls_42.json,1726654,2126281,33,Woman
142,585509,DepthScenes,duration_manipulation_targetAtFixation,jsons/VE125_randls_42.json,http://54.235.29.9/FacialAge/BNav_EC2/DepthDuration/v2_depth_duration_MTurk/v2_DepthDuration_HTML.html#7,7,1366,657,1366,768,8-21-2022,9-43-54,143,depth_duration_stimuli/001516_2014-06-20_16-25-09_260595134347_rgbf000076-resize_2/001516_2014-06-20_16-25-09_260595134347_rgbf000076-resize_2-target.png,125,1.7445,35,2506,125,meters,jsons/VE125_randls_42.json,1726654,2126281,33,Woman
143,585509,DepthScenes,duration_manipulation_targetAtFixation,jsons/VE125_randls_42.json,http://54.235.29.9/FacialAge/BNav_EC2/DepthDuration/v2_depth_duration_MTurk/v2_DepthDuration_HTML.html#7,7,1366,657,1366,768,8-21-2022,9-43-54,144,depth_duration_stimuli/000009_2014-05-26_14-32-05_260595134347_rgbf000034-resize_3/000009_2014-05-26_14-32-05_260595134347_rgbf000034-resize_3-target.png,125,3.8715,20,16810,126,meters,jsons/VE125_randls_42.json,1726654,2126281,33,Woman
144,585509,DepthScenes,duration_manipulation_targetAtFixation,jsons/VE125_randls_42.json,http://54.235.29.9/FacialAge/BNav_EC2/DepthDuration/v2_depth_duration_MTurk/v2_DepthDuration_HTML.html#7,7,1366,657,1366,768,8-21-2022,9-43-54,145,depth_duration_stimuli/001828_2014-06-26_21-40-03_260595134347_rgbf000024-resize_0/001828_2014-06-26_21-40-03_260595134347_rgbf000024-resize_0-target.png,125,4.8260000000000005,45,4698,125,meters,jsons/VE125_randls_42.json,1726654,2126281,33,Woman
145,585509,DepthScenes,duration_manipulation_targetAtFixation,jsons/VE125_randls_42.json,http://54.235.29.9/FacialAge/BNav_EC2/DepthDuration/v2_depth_duration_MTurk/v2_DepthDuration_HTML.html#7,7,1366,657,1366,768,8-21-2022,9-43-54,146,depth_duration_stimuli/001498_2014-06-19_17-45-14_260595134347_rgbf000129-resize_4/001498_2014-06-19_17-45-14_260595134347_rgbf000129-resize-original.jpg,125,1.4075,25,2905,124,meters,jsons/VE125_randls_42.json,1726654,2126281,33,Woman
146,585509,DepthScenes,duration_manipulation_targetAtFixation,jsons/VE125_randls_42.json,http://54.235.29.9/FacialAge/BNav_EC2/DepthDuration/v2_depth_duration_MTurk/v2_DepthDuration_HTML.html#7,7,1366,657,1366,768,8-21-2022,9-43-54,147,depth_duration_stimuli/000906_2014-06-08_13-35-43_260595134347_rgbf000155-resize_1/000906_2014-06-08_13-35-43_260595134347_rgbf000155-resize_1-target.png,125,2.8489999999999998,45,2874,124,meters,jsons/VE125_randls_42.json,1726654,2126281,33,Woman
147,585509,DepthScenes,duration_manipulation_targetAtFixation,jsons/VE125_randls_42.json,http://54.235.29.9/FacialAge/BNav_EC2/DepthDuration/v2_depth_duration_MTurk/v2_DepthDuration_HTML.html#7,7,1366,657,1366,768,8-21-2022,9-43-54,148,depth_duration_stimuli/002805_2014-06-22_19-54-03_094959634447_rgbf000079-resize_1/002805_2014-06-22_19-54-03_094959634447_rgbf000079-resize_1-target.png,125,3.1439999999999997,20,2521,130,meters,jsons/VE125_randls_42.json,1726654,2126281,33,Woman
148,585509,DepthScenes,duration_manipulation_targetAtFixation,jsons/VE125_randls_42.json,http://54.235.29.9/FacialAge/BNav_EC2/DepthDuration/v2_depth_duration_MTurk/v2_DepthDuration_HTML.html#7,7,1366,657,1366,768,8-21-2022,9-43-54,149,depth_duration_stimuli/000736_2014-06-08_18-24-15_260595134347_rgbf000206-resize_3/000736_2014-06-08_18-24-15_260595134347_rgbf000206-resize_3-target.png,125,3.515,25,2585,124,meters,jsons/VE125_randls_42.json,1726654,2126281,33,Woman
149,585509,DepthScenes,duration_manipulation_targetAtFixation,jsons/VE125_randls_42.json,http://54.235.29.9/FacialAge/BNav_EC2/DepthDuration/v2_depth_duration_MTurk/v2_DepthDuration_HTML.html#7,7,1366,657,1366,768,8-21-2022,9-43-54,150,depth_duration_stimuli/000137_2014-05-20_17-04-49_260595134347_rgbf000120-resize_1/000137_2014-05-20_17-04-49_260595134347_rgbf000120-resize_1-target.png,125,3.786,30,7579,124,meters,jsons/VE125_randls_42.json,1726654,2126281,33,Woman
150,585509,DepthScenes,duration_manipulation_targetAtFixation,jsons/VE125_randls_42.json,http://54.235.29.9/FacialAge/BNav_EC2/DepthDuration/v2_depth_duration_MTurk/v2_DepthDuration_HTML.html#7,7,1366,657,1366,768,8-21-2022,9-43-54,151,depth_duration_stimuli/002988_2014-06-15_12-24-20_094959634447_rgbf000150-resize_1/002988_2014-06-15_12-24-20_094959634447_rgbf000150-resize_1-target.png,125,4.7669999999999995,25,3464,106,meters,jsons/VE125_randls_42.json,1726654,2126281,33,Woman
151,585509,DepthScenes,duration_manipulation_targetAtFixation,jsons/VE125_randls_42.json,http://54.235.29.9/FacialAge/BNav_EC2/DepthDuration/v2_depth_duration_MTurk/v2_DepthDuration_HTML.html#7,7,1366,657,1366,768,8-21-2022,9-43-54,152,depth_duration_stimuli/001052_2014-06-08_18-24-54_260595134347_rgbf000130-resize_1/001052_2014-06-08_18-24-54_260595134347_rgbf000130-resize_1-target.png,125,4.1045,25,4591,126,meters,jsons/VE125_randls_42.json,1726654,2126281,33,Woman
152,585509,DepthScenes,duration_manipulation_targetAtFixation,jsons/VE125_randls_42.json,http://54.235.29.9/FacialAge/BNav_EC2/DepthDuration/v2_depth_duration_MTurk/v2_DepthDuration_HTML.html#7,7,1366,657,1366,768,8-21-2022,9-43-54,153,depth_duration_stimuli/003292_2014-05-14_21-53-49_094959634447_rgbf000100-resize_2/003292_2014-05-14_21-53-49_094959634447_rgbf000100-resize_2-target.png,125,3.4815,30,2613,125,meters,jsons/VE125_randls_42.json,1726654,2126281,33,Woman
153,585509,DepthScenes,duration_manipulation_targetAtFixation,jsons/VE125_randls_42.json,http://54.235.29.9/FacialAge/BNav_EC2/DepthDuration/v2_depth_duration_MTurk/v2_DepthDuration_HTML.html#7,7,1366,657,1366,768,8-21-2022,9-43-54,154,depth_duration_stimuli/002639_2014-06-24_14-51-37_094959634447_rgbf000074-resize_4/002639_2014-06-24_14-51-37_094959634447_rgbf000074-resize_4-target.png,125,4.0375,35,2731,126,meters,jsons/VE125_randls_42.json,1726654,2126281,33,Woman
154,585509,DepthScenes,duration_manipulation_targetAtFixation,jsons/VE125_randls_42.json,http://54.235.29.9/FacialAge/BNav_EC2/DepthDuration/v2_depth_duration_MTurk/v2_DepthDuration_HTML.html#7,7,1366,657,1366,768,8-21-2022,9-43-54,155,depth_duration_stimuli/000788_2014-06-08_22-34-36_260595134347_rgbf000131-resize_1/000788_2014-06-08_22-34-36_260595134347_rgbf000131-resize_1-target.png,125,3.359,45,2633,124,meters,jsons/VE125_randls_42.json,1726654,2126281,33,Woman
155,585509,DepthScenes,duration_manipulation_targetAtFixation,jsons/VE125_randls_42.json,http://54.235.29.9/FacialAge/BNav_EC2/DepthDuration/v2_depth_duration_MTurk/v2_DepthDuration_HTML.html#7,7,1366,657,1366,768,8-21-2022,9-43-54,156,depth_duration_stimuli/001235_2014-06-17_16-37-36_260595134347_rgbf000084-resize_4/001235_2014-06-17_16-37-36_260595134347_rgbf000084-resize_4-target.png,125,3.6605,40,2650,125,meters,jsons/VE125_randls_42.json,1726654,2126281,33,Woman
156,585509,DepthScenes,duration_manipulation_targetAtFixation,jsons/VE125_randls_42.json,http://54.235.29.9/FacialAge/BNav_EC2/DepthDuration/v2_depth_duration_MTurk/v2_DepthDuration_HTML.html#7,7,1366,657,1366,768,8-21-2022,9-43-54,157,depth_duration_stimuli/002784_2014-06-22_19-26-30_094959634447_rgbf000083-resize_3/002784_2014-06-22_19-26-30_094959634447_rgbf000083-resize_3-target.png,125,1.8046666666667,25,2666,125,meters,jsons/VE125_randls_42.json,1726654,2126281,33,Woman
157,585509,DepthScenes,duration_manipulation_targetAtFixation,jsons/VE125_randls_42.json,http://54.235.29.9/FacialAge/BNav_EC2/DepthDuration/v2_depth_duration_MTurk/v2_DepthDuration_HTML.html#7,7,1366,657,1366,768,8-21-2022,9-43-54,158,depth_duration_stimuli/001100_2014-06-15_17-46-26_260595134347_rgbf000225-resize_2/001100_2014-06-15_17-46-26_260595134347_rgbf000225-resize_2-target.png,125,2.24,20,3641,139,meters,jsons/VE125_randls_42.json,1726654,2126281,33,Woman
158,585509,DepthScenes,duration_manipulation_targetAtFixation,jsons/VE125_randls_42.json,http://54.235.29.9/FacialAge/BNav_EC2/DepthDuration/v2_depth_duration_MTurk/v2_DepthDuration_HTML.html#7,7,1366,657,1366,768,8-21-2022,9-43-54,159,depth_duration_stimuli/002445_2014-06-28_20-32-16_260595134347_rgbf000029-resize_4/002445_2014-06-28_20-32-16_260595134347_rgbf000029-resize_4-target.png,125,2.5315,30,2635,126,meters,jsons/VE125_randls_42.json,1726654,2126281,33,Woman
159,585509,DepthScenes,duration_manipulation_targetAtFixation,jsons/VE125_randls_42.json,http://54.235.29.9/FacialAge/BNav_EC2/DepthDuration/v2_depth_duration_MTurk/v2_DepthDuration_HTML.html#7,7,1366,657,1366,768,8-21-2022,9-43-54,160,depth_duration_stimuli/000780_2014-06-08_22-28-29_260595134347_rgbf000126-resize_1/000780_2014-06-08_22-28-29_260595134347_rgbf000126-resize_1-target.png,125,3.3825,25,2537,126,meters,jsons/VE125_randls_42.json,1726654,2126281,33,Woman
160,585509,DepthScenes,duration_manipulation_targetAtFixation,jsons/VE125_randls_42.json,http://54.235.29.9/FacialAge/BNav_EC2/DepthDuration/v2_depth_duration_MTurk/v2_DepthDuration_HTML.html#7,7,1366,657,1366,768,8-21-2022,9-43-54,161,depth_duration_stimuli/001810_2014-06-26_20-51-35_260595134347_rgbf000040-resize_3/001810_2014-06-26_20-51-35_260595134347_rgbf000040-resize_3-target.png,125,2.2525,25,22826,124,meters,jsons/VE125_randls_42.json,1726654,2126281,33,Woman
161,585509,DepthScenes,duration_manipulation_targetAtFixation,jsons/VE125_randls_42.json,http://54.235.29.9/FacialAge/BNav_EC2/DepthDuration/v2_depth_duration_MTurk/v2_DepthDuration_HTML.html#7,7,1366,657,1366,768,8-21-2022,9-43-54,162,depth_duration_stimuli/003010_2014-06-15_12-54-35_094959634447_rgbf000112-resize_0/003010_2014-06-15_12-54-35_094959634447_rgbf000112-resize_0-target.png,125,3.1185,25,24871,126,meters,jsons/VE125_randls_42.json,1726654,2126281,33,Woman
162,585509,DepthScenes,duration_manipulation_targetAtFixation,jsons/VE125_randls_42.json,http://54.235.29.9/FacialAge/BNav_EC2/DepthDuration/v2_depth_duration_MTurk/v2_DepthDuration_HTML.html#7,7,1366,657,1366,768,8-21-2022,9-43-54,163,depth_duration_stimuli/001056_2014-06-08_18-46-44_260595134347_rgbf000068-resize_0/001056_2014-06-08_18-46-44_260595134347_rgbf000068-resize_0-target.png,125,2.6625,30,3195,124,meters,jsons/VE125_randls_42.json,1726654,2126281,33,Woman
163,585509,DepthScenes,duration_manipulation_targetAtFixation,jsons/VE125_randls_42.json,http://54.235.29.9/FacialAge/BNav_EC2/DepthDuration/v2_depth_duration_MTurk/v2_DepthDuration_HTML.html#7,7,1366,657,1366,768,8-21-2022,9-43-54,164,depth_duration_stimuli/002199_2014-06-28_18-33-56_260595134347_rgbf000074-resize_0/002199_2014-06-28_18-33-56_260595134347_rgbf000074-resize_0-target.png,125,1.996,30,9174,124,meters,jsons/VE125_randls_42.json,1726654,2126281,33,Woman
