,subjID,experimentName,versionName,sequenceName,url,selected_row,windowWidth,windowHeight,screenWidth,screenHeight,startDate,startTime,trial,stimulus,duration,actual_depth,depth_estimate,trial_RT,log_sceneDuration,unitSelection,seq_filepath,experimentTime,totalTime,age,gender
0,586157,DepthScenes,duration_manipulation_targetAtFixation,jsons/v1_VE250_randls_26_rotated.json,http://54.235.29.9/FacialAge/BNav_EC2/DepthDuration/v2_depth_duration_MTurk/v2_DepthDuration_HTML.html#438,438,1242,568,1366,768,10-2-2022,11-30-35,1,depth_duration_stimuli/002323_2014-06-28_20-01-54_260595134347_rgbf000051-resize_4/002323_2014-06-28_20-01-54_260595134347_rgbf000051-resize_4-target.png,250,3.7310000000000003,3.0,5393,251,feet,jsons/v1_VE250_randls_26_rotated.json,3188585,3340507,49,Woman
1,586157,DepthScenes,duration_manipulation_targetAtFixation,jsons/v1_VE250_randls_26_rotated.json,http://54.235.29.9/FacialAge/BNav_EC2/DepthDuration/v2_depth_duration_MTurk/v2_DepthDuration_HTML.html#438,438,1242,568,1366,768,10-2-2022,11-30-35,2,depth_duration_stimuli/000917_2014-06-09_22-45-29_260595134347_rgbf000149-resize_3/000917_2014-06-09_22-45-29_260595134347_rgbf000149-resize_3-target.png,250,4.1865,4.0,3187,250,feet,jsons/v1_VE250_randls_26_rotated.json,3188585,3340507,49,Woman
2,586157,DepthScenes,duration_manipulation_targetAtFixation,jsons/v1_VE250_randls_26_rotated.json,http://54.235.29.9/FacialAge/BNav_EC2/DepthDuration/v2_depth_duration_MTurk/v2_DepthDuration_HTML.html#438,438,1242,568,1366,768,10-2-2022,11-30-35,3,depth_duration_stimuli/002340_2014-06-28_20-05-46_260595134347_rgbf000113-resize_0/002340_2014-06-28_20-05-46_260595134347_rgbf000113-resize_0-target.png,250,2.4735,5.0,6611,250,feet,jsons/v1_VE250_randls_26_rotated.json,3188585,3340507,49,Woman
3,586157,DepthScenes,duration_manipulation_targetAtFixation,jsons/v1_VE250_randls_26_rotated.json,http://54.235.29.9/FacialAge/BNav_EC2/DepthDuration/v2_depth_duration_MTurk/v2_DepthDuration_HTML.html#438,438,1242,568,1366,768,10-2-2022,11-30-35,4,depth_duration_stimuli/001016_2014-06-09_16-16-10_260595134347_rgbf000112-resize_5/001016_2014-06-09_16-16-10_260595134347_rgbf000112-resize_5-target.png,250,1.6565,3.0,2948,249,feet,jsons/v1_VE250_randls_26_rotated.json,3188585,3340507,49,Woman
4,586157,DepthScenes,duration_manipulation_targetAtFixation,jsons/v1_VE250_randls_26_rotated.json,http://54.235.29.9/FacialAge/BNav_EC2/DepthDuration/v2_depth_duration_MTurk/v2_DepthDuration_HTML.html#438,438,1242,568,1366,768,10-2-2022,11-30-35,5,depth_duration_stimuli/001828_2014-06-26_21-40-03_260595134347_rgbf000024-resize_0/001828_2014-06-26_21-40-03_260595134347_rgbf000024-resize_0-target.png,250,4.8260000000000005,3.0,3836,235,feet,jsons/v1_VE250_randls_26_rotated.json,3188585,3340507,49,Woman
5,586157,DepthScenes,duration_manipulation_targetAtFixation,jsons/v1_VE250_randls_26_rotated.json,http://54.235.29.9/FacialAge/BNav_EC2/DepthDuration/v2_depth_duration_MTurk/v2_DepthDuration_HTML.html#438,438,1242,568,1366,768,10-2-2022,11-30-35,6,depth_duration_stimuli/000009_2014-05-26_14-32-05_260595134347_rgbf000034-resize_3/000009_2014-05-26_14-32-05_260595134347_rgbf000034-resize_3-target.png,250,3.8715,0.0,3222,264,feet,jsons/v1_VE250_randls_26_rotated.json,3188585,3340507,49,Woman
6,586157,DepthScenes,duration_manipulation_targetAtFixation,jsons/v1_VE250_randls_26_rotated.json,http://54.235.29.9/FacialAge/BNav_EC2/DepthDuration/v2_depth_duration_MTurk/v2_DepthDuration_HTML.html#438,438,1242,568,1366,768,10-2-2022,11-30-35,7,depth_duration_stimuli/002103_2014-06-25_20-00-40_260595134347_rgbf000049-resize_0/002103_2014-06-25_20-00-40_260595134347_rgbf000049-resize_0-target.png,250,4.105,4.0,3902,248,feet,jsons/v1_VE250_randls_26_rotated.json,3188585,3340507,49,Woman
7,586157,DepthScenes,duration_manipulation_targetAtFixation,jsons/v1_VE250_randls_26_rotated.json,http://54.235.29.9/FacialAge/BNav_EC2/DepthDuration/v2_depth_duration_MTurk/v2_DepthDuration_HTML.html#438,438,1242,568,1366,768,10-2-2022,11-30-35,8,depth_duration_stimuli/002039_2014-06-24_20-22-38_260595134347_rgbf000084-resize_1/002039_2014-06-24_20-22-38_260595134347_rgbf000084-resize_1-target.png,250,4.408,3.0,3224,248,feet,jsons/v1_VE250_randls_26_rotated.json,3188585,3340507,49,Woman
8,586157,DepthScenes,duration_manipulation_targetAtFixation,jsons/v1_VE250_randls_26_rotated.json,http://54.235.29.9/FacialAge/BNav_EC2/DepthDuration/v2_depth_duration_MTurk/v2_DepthDuration_HTML.html#438,438,1242,568,1366,768,10-2-2022,11-30-35,9,depth_duration_stimuli/000635_2014-06-08_16-38-42_260595134347_rgbf000106-resize_1/000635_2014-06-08_16-38-42_260595134347_rgbf000106-resize_1-target.png,250,2.074,3.0,3651,256,feet,jsons/v1_VE250_randls_26_rotated.json,3188585,3340507,49,Woman
9,586157,DepthScenes,duration_manipulation_targetAtFixation,jsons/v1_VE250_randls_26_rotated.json,http://54.235.29.9/FacialAge/BNav_EC2/DepthDuration/v2_depth_duration_MTurk/v2_DepthDuration_HTML.html#438,438,1242,568,1366,768,10-2-2022,11-30-35,10,depth_duration_stimuli/002279_2014-06-28_18-55-32_260595134347_rgbf000040-resize_5/002279_2014-06-28_18-55-32_260595134347_rgbf000040-resize_5-target.png,250,1.5043333333333,2.0,2724,249,feet,jsons/v1_VE250_randls_26_rotated.json,3188585,3340507,49,Woman
10,586157,DepthScenes,duration_manipulation_targetAtFixation,jsons/v1_VE250_randls_26_rotated.json,http://54.235.29.9/FacialAge/BNav_EC2/DepthDuration/v2_depth_duration_MTurk/v2_DepthDuration_HTML.html#438,438,1242,568,1366,768,10-2-2022,11-30-35,11,depth_duration_stimuli/003338_2014-05-20_11-01-23_094959634447_rgbf000051-resize_6/003338_2014-05-20_11-01-23_094959634447_rgbf000051-resize_6-target.png,250,1.693,2.0,3665,249,feet,jsons/v1_VE250_randls_26_rotated.json,3188585,3340507,49,Woman
11,586157,DepthScenes,duration_manipulation_targetAtFixation,jsons/v1_VE250_randls_26_rotated.json,http://54.235.29.9/FacialAge/BNav_EC2/DepthDuration/v2_depth_duration_MTurk/v2_DepthDuration_HTML.html#438,438,1242,568,1366,768,10-2-2022,11-30-35,12,depth_duration_stimuli/002509_2014-06-24_13-19-22_094959634447_rgbf000077-resize_0/002509_2014-06-24_13-19-22_094959634447_rgbf000077-resize_0-target.png,250,1.3065,3.0,2688,249,feet,jsons/v1_VE250_randls_26_rotated.json,3188585,3340507,49,Woman
12,586157,DepthScenes,duration_manipulation_targetAtFixation,jsons/v1_VE250_randls_26_rotated.json,http://54.235.29.9/FacialAge/BNav_EC2/DepthDuration/v2_depth_duration_MTurk/v2_DepthDuration_HTML.html#438,438,1242,568,1366,768,10-2-2022,11-30-35,13,depth_duration_stimuli/000854_2014-06-09_19-43-13_260595134347_rgbf000066-resize_0/000854_2014-06-09_19-43-13_260595134347_rgbf000066-resize_0-target.png,250,3.068,2.0,2988,249,feet,jsons/v1_VE250_randls_26_rotated.json,3188585,3340507,49,Woman
13,586157,DepthScenes,duration_manipulation_targetAtFixation,jsons/v1_VE250_randls_26_rotated.json,http://54.235.29.9/FacialAge/BNav_EC2/DepthDuration/v2_depth_duration_MTurk/v2_DepthDuration_HTML.html#438,438,1242,568,1366,768,10-2-2022,11-30-35,14,depth_duration_stimuli/000758_2014-06-08_22-05-08_260595134347_rgbf000085-resize_0/000758_2014-06-08_22-05-08_260595134347_rgbf000085-resize_0-target.png,250,3.3810000000000002,3.0,2716,249,feet,jsons/v1_VE250_randls_26_rotated.json,3188585,3340507,49,Woman
14,586157,DepthScenes,duration_manipulation_targetAtFixation,jsons/v1_VE250_randls_26_rotated.json,http://54.235.29.9/FacialAge/BNav_EC2/DepthDuration/v2_depth_duration_MTurk/v2_DepthDuration_HTML.html#438,438,1242,568,1366,768,10-2-2022,11-30-35,15,depth_duration_stimuli/001447_2014-06-19_17-00-32_260595134347_rgbf000082-resize_5/001447_2014-06-19_17-00-32_260595134347_rgbf000082-resize_5-target.png,250,4.13775,4.0,3629,249,feet,jsons/v1_VE250_randls_26_rotated.json,3188585,3340507,49,Woman
15,586157,DepthScenes,duration_manipulation_targetAtFixation,jsons/v1_VE250_randls_26_rotated.json,http://54.235.29.9/FacialAge/BNav_EC2/DepthDuration/v2_depth_duration_MTurk/v2_DepthDuration_HTML.html#438,438,1242,568,1366,768,10-2-2022,11-30-35,16,depth_duration_stimuli/000447_2014-06-08_16-15-46_260595134347_rgbf000130-resize_1/000447_2014-06-08_16-15-46_260595134347_rgbf000130-resize_1-target.png,250,4.479,4.0,3310,250,feet,jsons/v1_VE250_randls_26_rotated.json,3188585,3340507,49,Woman
16,586157,DepthScenes,duration_manipulation_targetAtFixation,jsons/v1_VE250_randls_26_rotated.json,http://54.235.29.9/FacialAge/BNav_EC2/DepthDuration/v2_depth_duration_MTurk/v2_DepthDuration_HTML.html#438,438,1242,568,1366,768,10-2-2022,11-30-35,17,depth_duration_stimuli/001571_2014-06-20_17-21-32_260595134347_rgbf000089-resize_1/001571_2014-06-20_17-21-32_260595134347_rgbf000089-resize_1-target.png,250,1.86,3.0,3810,248,feet,jsons/v1_VE250_randls_26_rotated.json,3188585,3340507,49,Woman
17,586157,DepthScenes,duration_manipulation_targetAtFixation,jsons/v1_VE250_randls_26_rotated.json,http://54.235.29.9/FacialAge/BNav_EC2/DepthDuration/v2_depth_duration_MTurk/v2_DepthDuration_HTML.html#438,438,1242,568,1366,768,10-2-2022,11-30-35,18,depth_duration_stimuli/002272_2014-06-28_18-53-56_260595134347_rgbf000067-resize_2/002272_2014-06-28_18-53-56_260595134347_rgbf000067-resize_2-target.png,250,1.138,2.5,3458,251,feet,jsons/v1_VE250_randls_26_rotated.json,3188585,3340507,49,Woman
18,586157,DepthScenes,duration_manipulation_targetAtFixation,jsons/v1_VE250_randls_26_rotated.json,http://54.235.29.9/FacialAge/BNav_EC2/DepthDuration/v2_depth_duration_MTurk/v2_DepthDuration_HTML.html#438,438,1242,568,1366,768,10-2-2022,11-30-35,19,depth_duration_stimuli/001498_2014-06-19_17-45-14_260595134347_rgbf000129-resize_4/001498_2014-06-19_17-45-14_260595134347_rgbf000129-resize-original.jpg,250,1.4075,0.0,3003,249,feet,jsons/v1_VE250_randls_26_rotated.json,3188585,3340507,49,Woman
19,586157,DepthScenes,duration_manipulation_targetAtFixation,jsons/v1_VE250_randls_26_rotated.json,http://54.235.29.9/FacialAge/BNav_EC2/DepthDuration/v2_depth_duration_MTurk/v2_DepthDuration_HTML.html#438,438,1242,568,1366,768,10-2-2022,11-30-35,20,depth_duration_stimuli/001136_2014-06-17_15-19-41_260595134347_rgbf000076-resize_3/001136_2014-06-17_15-19-41_260595134347_rgbf000076-resize_3-target.png,250,1.8655,5.0,3283,251,feet,jsons/v1_VE250_randls_26_rotated.json,3188585,3340507,49,Woman
20,586157,DepthScenes,duration_manipulation_targetAtFixation,jsons/v1_VE250_randls_26_rotated.json,http://54.235.29.9/FacialAge/BNav_EC2/DepthDuration/v2_depth_duration_MTurk/v2_DepthDuration_HTML.html#438,438,1242,568,1366,768,10-2-2022,11-30-35,21,depth_duration_stimuli/001164_2014-06-17_15-35-46_260595134347_rgbf000085-resize_3/001164_2014-06-17_15-35-46_260595134347_rgbf000085-resize_3-target.png,250,2.354,5.0,2904,250,feet,jsons/v1_VE250_randls_26_rotated.json,3188585,3340507,49,Woman
21,586157,DepthScenes,duration_manipulation_targetAtFixation,jsons/v1_VE250_randls_26_rotated.json,http://54.235.29.9/FacialAge/BNav_EC2/DepthDuration/v2_depth_duration_MTurk/v2_DepthDuration_HTML.html#438,438,1242,568,1366,768,10-2-2022,11-30-35,22,depth_duration_stimuli/001052_2014-06-08_18-24-54_260595134347_rgbf000130-resize_1/001052_2014-06-08_18-24-54_260595134347_rgbf000130-resize_1-target.png,250,4.1045,6.0,3907,250,feet,jsons/v1_VE250_randls_26_rotated.json,3188585,3340507,49,Woman
22,586157,DepthScenes,duration_manipulation_targetAtFixation,jsons/v1_VE250_randls_26_rotated.json,http://54.235.29.9/FacialAge/BNav_EC2/DepthDuration/v2_depth_duration_MTurk/v2_DepthDuration_HTML.html#438,438,1242,568,1366,768,10-2-2022,11-30-35,23,depth_duration_stimuli/002988_2014-06-15_12-24-20_094959634447_rgbf000150-resize_1/002988_2014-06-15_12-24-20_094959634447_rgbf000150-resize_1-target.png,250,4.7669999999999995,6.5,3994,250,feet,jsons/v1_VE250_randls_26_rotated.json,3188585,3340507,49,Woman
23,586157,DepthScenes,duration_manipulation_targetAtFixation,jsons/v1_VE250_randls_26_rotated.json,http://54.235.29.9/FacialAge/BNav_EC2/DepthDuration/v2_depth_duration_MTurk/v2_DepthDuration_HTML.html#438,438,1242,568,1366,768,10-2-2022,11-30-35,24,depth_duration_stimuli/003423_2014-05-21_10-23-26_094959634447_rgbf002665-resize_2/003423_2014-05-21_10-23-26_094959634447_rgbf002665-resize_2-target.png,250,3.2575,0.5,4633,249,feet,jsons/v1_VE250_randls_26_rotated.json,3188585,3340507,49,Woman
24,586157,DepthScenes,duration_manipulation_targetAtFixation,jsons/v1_VE250_randls_26_rotated.json,http://54.235.29.9/FacialAge/BNav_EC2/DepthDuration/v2_depth_duration_MTurk/v2_DepthDuration_HTML.html#438,438,1242,568,1366,768,10-2-2022,11-30-35,25,depth_duration_stimuli/002905_2014-06-03_18-04-43_094959634447_rgbf000151-resize_2/002905_2014-06-03_18-04-43_094959634447_rgbf000151-resize_2-target.png,250,2.0295,1.0,3628,250,feet,jsons/v1_VE250_randls_26_rotated.json,3188585,3340507,49,Woman
25,586157,DepthScenes,duration_manipulation_targetAtFixation,jsons/v1_VE250_randls_26_rotated.json,http://54.235.29.9/FacialAge/BNav_EC2/DepthDuration/v2_depth_duration_MTurk/v2_DepthDuration_HTML.html#438,438,1242,568,1366,768,10-2-2022,11-30-35,26,depth_duration_stimuli/001094_2014-06-15_17-36-00_260595134347_rgbf000205-resize_0/001094_2014-06-15_17-36-00_260595134347_rgbf000205-resize_0-target.png,250,4.2175,2.0,21481,249,feet,jsons/v1_VE250_randls_26_rotated.json,3188585,3340507,49,Woman
26,586157,DepthScenes,duration_manipulation_targetAtFixation,jsons/v1_VE250_randls_26_rotated.json,http://54.235.29.9/FacialAge/BNav_EC2/DepthDuration/v2_depth_duration_MTurk/v2_DepthDuration_HTML.html#438,438,1242,568,1366,768,10-2-2022,11-30-35,27,depth_duration_stimuli/000692_2014-06-08_13-09-42_260595134347_rgbf000199-resize_2/000692_2014-06-08_13-09-42_260595134347_rgbf000199-resize_2-target.png,250,3.661,3.0,3447,249,feet,jsons/v1_VE250_randls_26_rotated.json,3188585,3340507,49,Woman
27,586157,DepthScenes,duration_manipulation_targetAtFixation,jsons/v1_VE250_randls_26_rotated.json,http://54.235.29.9/FacialAge/BNav_EC2/DepthDuration/v2_depth_duration_MTurk/v2_DepthDuration_HTML.html#438,438,1242,568,1366,768,10-2-2022,11-30-35,28,depth_duration_stimuli/000109_2014-05-14_23-41-52_260595134347_rgbf000035-resize_9/000109_2014-05-14_23-41-52_260595134347_rgbf000035-resize_9-target.png,250,1.3545,1.0,3148,250,feet,jsons/v1_VE250_randls_26_rotated.json,3188585,3340507,49,Woman
28,586157,DepthScenes,duration_manipulation_targetAtFixation,jsons/v1_VE250_randls_26_rotated.json,http://54.235.29.9/FacialAge/BNav_EC2/DepthDuration/v2_depth_duration_MTurk/v2_DepthDuration_HTML.html#438,438,1242,568,1366,768,10-2-2022,11-30-35,29,depth_duration_stimuli/000470_2014-06-09_19-42-40_260595134347_rgbf000094-resize_1/000470_2014-06-09_19-42-40_260595134347_rgbf000094-resize_1-target.png,250,1.831,2.0,2825,251,feet,jsons/v1_VE250_randls_26_rotated.json,3188585,3340507,49,Woman
29,586157,DepthScenes,duration_manipulation_targetAtFixation,jsons/v1_VE250_randls_26_rotated.json,http://54.235.29.9/FacialAge/BNav_EC2/DepthDuration/v2_depth_duration_MTurk/v2_DepthDuration_HTML.html#438,438,1242,568,1366,768,10-2-2022,11-30-35,30,depth_duration_stimuli/002072_2014-06-24_21-48-06_260595134347_rgbf000115-resize_0/002072_2014-06-24_21-48-06_260595134347_rgbf000115-resize-original.jpg,250,4.702,0.0,3220,249,feet,jsons/v1_VE250_randls_26_rotated.json,3188585,3340507,49,Woman
30,586157,DepthScenes,duration_manipulation_targetAtFixation,jsons/v1_VE250_randls_26_rotated.json,http://54.235.29.9/FacialAge/BNav_EC2/DepthDuration/v2_depth_duration_MTurk/v2_DepthDuration_HTML.html#438,438,1242,568,1366,768,10-2-2022,11-30-35,31,depth_duration_stimuli/002660_2014-06-13_15-44-18_094959634447_rgbf001878-resize_2/002660_2014-06-13_15-44-18_094959634447_rgbf001878-resize_2-target.png,250,3.576,2.0,3620,251,feet,jsons/v1_VE250_randls_26_rotated.json,3188585,3340507,49,Woman
31,586157,DepthScenes,duration_manipulation_targetAtFixation,jsons/v1_VE250_randls_26_rotated.json,http://54.235.29.9/FacialAge/BNav_EC2/DepthDuration/v2_depth_duration_MTurk/v2_DepthDuration_HTML.html#438,438,1242,568,1366,768,10-2-2022,11-30-35,32,depth_duration_stimuli/002153_2014-06-25_21-27-18_260595134347_rgbf000038-resize_5/002153_2014-06-25_21-27-18_260595134347_rgbf000038-resize_5-target.png,250,2.505,2.0,2897,249,feet,jsons/v1_VE250_randls_26_rotated.json,3188585,3340507,49,Woman
32,586157,DepthScenes,duration_manipulation_targetAtFixation,jsons/v1_VE250_randls_26_rotated.json,http://54.235.29.9/FacialAge/BNav_EC2/DepthDuration/v2_depth_duration_MTurk/v2_DepthDuration_HTML.html#438,438,1242,568,1366,768,10-2-2022,11-30-35,33,depth_duration_stimuli/000677_2014-06-08_23-10-32_260595134347_rgbf000158-resize_6/000677_2014-06-08_23-10-32_260595134347_rgbf000158-resize_6-target.png,250,3.556,3.0,3058,250,feet,jsons/v1_VE250_randls_26_rotated.json,3188585,3340507,49,Woman
33,586157,DepthScenes,duration_manipulation_targetAtFixation,jsons/v1_VE250_randls_26_rotated.json,http://54.235.29.9/FacialAge/BNav_EC2/DepthDuration/v2_depth_duration_MTurk/v2_DepthDuration_HTML.html#438,438,1242,568,1366,768,10-2-2022,11-30-35,34,depth_duration_stimuli/001029_2014-06-08_13-17-57_260595134347_rgbf000065-resize_1/001029_2014-06-08_13-17-57_260595134347_rgbf000065-resize_1-target.png,250,3.0835,4.5,7211,249,feet,jsons/v1_VE250_randls_26_rotated.json,3188585,3340507,49,Woman
34,586157,DepthScenes,duration_manipulation_targetAtFixation,jsons/v1_VE250_randls_26_rotated.json,http://54.235.29.9/FacialAge/BNav_EC2/DepthDuration/v2_depth_duration_MTurk/v2_DepthDuration_HTML.html#438,438,1242,568,1366,768,10-2-2022,11-30-35,35,depth_duration_stimuli/000549_2014-06-08_22-10-24_260595134347_rgbf000247-resize_3/000549_2014-06-08_22-10-24_260595134347_rgbf000247-resize_3-target.png,250,1.841,1.5,7184,249,feet,jsons/v1_VE250_randls_26_rotated.json,3188585,3340507,49,Woman
35,586157,DepthScenes,duration_manipulation_targetAtFixation,jsons/v1_VE250_randls_26_rotated.json,http://54.235.29.9/FacialAge/BNav_EC2/DepthDuration/v2_depth_duration_MTurk/v2_DepthDuration_HTML.html#438,438,1242,568,1366,768,10-2-2022,11-30-35,36,depth_duration_stimuli/001055_2014-06-08_18-45-35_260595134347_rgbf000111-resize_4/001055_2014-06-08_18-45-35_260595134347_rgbf000111-resize_4-target.png,250,2.4290000000000003,5.0,3773,250,feet,jsons/v1_VE250_randls_26_rotated.json,3188585,3340507,49,Woman
36,586157,DepthScenes,duration_manipulation_targetAtFixation,jsons/v1_VE250_randls_26_rotated.json,http://54.235.29.9/FacialAge/BNav_EC2/DepthDuration/v2_depth_duration_MTurk/v2_DepthDuration_HTML.html#438,438,1242,568,1366,768,10-2-2022,11-30-35,37,depth_duration_stimuli/001450_2014-06-19_17-02-03_260595134347_rgbf000203-resize_4/001450_2014-06-19_17-02-03_260595134347_rgbf000203-resize_4-target.png,250,4.0106666666667,4.0,2380363,250,feet,jsons/v1_VE250_randls_26_rotated.json,3188585,3340507,49,Woman
37,586157,DepthScenes,duration_manipulation_targetAtFixation,jsons/v1_VE250_randls_26_rotated.json,http://54.235.29.9/FacialAge/BNav_EC2/DepthDuration/v2_depth_duration_MTurk/v2_DepthDuration_HTML.html#438,438,1242,568,1366,768,10-2-2022,11-30-35,38,depth_duration_stimuli/001449_2014-06-19_17-01-27_260595134347_rgbf000116-resize_2/001449_2014-06-19_17-01-27_260595134347_rgbf000116-resize_2-target.png,250,3.452,3.0,3393,249,feet,jsons/v1_VE250_randls_26_rotated.json,3188585,3340507,49,Woman
38,586157,DepthScenes,duration_manipulation_targetAtFixation,jsons/v1_VE250_randls_26_rotated.json,http://54.235.29.9/FacialAge/BNav_EC2/DepthDuration/v2_depth_duration_MTurk/v2_DepthDuration_HTML.html#438,438,1242,568,1366,768,10-2-2022,11-30-35,39,depth_duration_stimuli/002467_2014-06-28_20-38-07_260595134347_rgbf000026-resize_2/002467_2014-06-28_20-38-07_260595134347_rgbf000026-resize_2-target.png,250,4.742,3.5,4392,256,feet,jsons/v1_VE250_randls_26_rotated.json,3188585,3340507,49,Woman
39,586157,DepthScenes,duration_manipulation_targetAtFixation,jsons/v1_VE250_randls_26_rotated.json,http://54.235.29.9/FacialAge/BNav_EC2/DepthDuration/v2_depth_duration_MTurk/v2_DepthDuration_HTML.html#438,438,1242,568,1366,768,10-2-2022,11-30-35,40,depth_duration_stimuli/002570_2014-06-24_13-59-54_094959634447_rgbf000059-resize_0/002570_2014-06-24_13-59-54_094959634447_rgbf000059-resize_0-target.png,250,4.037,1.0,3332,250,feet,jsons/v1_VE250_randls_26_rotated.json,3188585,3340507,49,Woman
40,586157,DepthScenes,duration_manipulation_targetAtFixation,jsons/v1_VE250_randls_26_rotated.json,http://54.235.29.9/FacialAge/BNav_EC2/DepthDuration/v2_depth_duration_MTurk/v2_DepthDuration_HTML.html#438,438,1242,568,1366,768,10-2-2022,11-30-35,41,depth_duration_stimuli/000137_2014-05-20_17-04-49_260595134347_rgbf000120-resize_1/000137_2014-05-20_17-04-49_260595134347_rgbf000120-resize_1-target.png,250,3.786,3.0,4700,250,feet,jsons/v1_VE250_randls_26_rotated.json,3188585,3340507,49,Woman
41,586157,DepthScenes,duration_manipulation_targetAtFixation,jsons/v1_VE250_randls_26_rotated.json,http://54.235.29.9/FacialAge/BNav_EC2/DepthDuration/v2_depth_duration_MTurk/v2_DepthDuration_HTML.html#438,438,1242,568,1366,768,10-2-2022,11-30-35,42,depth_duration_stimuli/000736_2014-06-08_18-24-15_260595134347_rgbf000206-resize_3/000736_2014-06-08_18-24-15_260595134347_rgbf000206-resize_3-target.png,250,3.515,2.0,2858,248,feet,jsons/v1_VE250_randls_26_rotated.json,3188585,3340507,49,Woman
42,586157,DepthScenes,duration_manipulation_targetAtFixation,jsons/v1_VE250_randls_26_rotated.json,http://54.235.29.9/FacialAge/BNav_EC2/DepthDuration/v2_depth_duration_MTurk/v2_DepthDuration_HTML.html#438,438,1242,568,1366,768,10-2-2022,11-30-35,43,depth_duration_stimuli/002136_2014-06-25_21-18-03_260595134347_rgbf000109-resize_3/002136_2014-06-25_21-18-03_260595134347_rgbf000109-resize_3-target.png,250,1.9569999999999999,3.0,3987,261,feet,jsons/v1_VE250_randls_26_rotated.json,3188585,3340507,49,Woman
43,586157,DepthScenes,duration_manipulation_targetAtFixation,jsons/v1_VE250_randls_26_rotated.json,http://54.235.29.9/FacialAge/BNav_EC2/DepthDuration/v2_depth_duration_MTurk/v2_DepthDuration_HTML.html#438,438,1242,568,1366,768,10-2-2022,11-30-35,44,depth_duration_stimuli/002964_2014-06-08_17-46-11_094959634447_rgbf000091-resize_4/002964_2014-06-08_17-46-11_094959634447_rgbf000091-resize_4-target.png,250,1.6909999999999998,2.0,4194,250,feet,jsons/v1_VE250_randls_26_rotated.json,3188585,3340507,49,Woman
44,586157,DepthScenes,duration_manipulation_targetAtFixation,jsons/v1_VE250_randls_26_rotated.json,http://54.235.29.9/FacialAge/BNav_EC2/DepthDuration/v2_depth_duration_MTurk/v2_DepthDuration_HTML.html#438,438,1242,568,1366,768,10-2-2022,11-30-35,45,depth_duration_stimuli/003079_2014-06-15_15-18-20_094959634447_rgbf000152-resize_8/003079_2014-06-15_15-18-20_094959634447_rgbf000152-resize_8-target.png,250,2.8775,6.5,4963,249,feet,jsons/v1_VE250_randls_26_rotated.json,3188585,3340507,49,Woman
45,586157,DepthScenes,duration_manipulation_targetAtFixation,jsons/v1_VE250_randls_26_rotated.json,http://54.235.29.9/FacialAge/BNav_EC2/DepthDuration/v2_depth_duration_MTurk/v2_DepthDuration_HTML.html#438,438,1242,568,1366,768,10-2-2022,11-30-35,46,depth_duration_stimuli/000506_2014-06-08_23-21-00_260595134347_rgbf000070-resize_7/000506_2014-06-08_23-21-00_260595134347_rgbf000070-resize_7-target.png,250,4.0585,3.5,3922,248,feet,jsons/v1_VE250_randls_26_rotated.json,3188585,3340507,49,Woman
46,586157,DepthScenes,duration_manipulation_targetAtFixation,jsons/v1_VE250_randls_26_rotated.json,http://54.235.29.9/FacialAge/BNav_EC2/DepthDuration/v2_depth_duration_MTurk/v2_DepthDuration_HTML.html#438,438,1242,568,1366,768,10-2-2022,11-30-35,47,depth_duration_stimuli/000502_2014-06-08_23-02-32_260595134347_rgbf000063-resize_4/000502_2014-06-08_23-02-32_260595134347_rgbf000063-resize_4-target.png,250,2.431,2.0,3331,249,feet,jsons/v1_VE250_randls_26_rotated.json,3188585,3340507,49,Woman
47,586157,DepthScenes,duration_manipulation_targetAtFixation,jsons/v1_VE250_randls_26_rotated.json,http://54.235.29.9/FacialAge/BNav_EC2/DepthDuration/v2_depth_duration_MTurk/v2_DepthDuration_HTML.html#438,438,1242,568,1366,768,10-2-2022,11-30-35,48,depth_duration_stimuli/001199_2014-06-17_16-03-48_260595134347_rgbf000077-resize_0/001199_2014-06-17_16-03-48_260595134347_rgbf000077-resize_0-target.png,250,3.4375,3.5,3675,250,feet,jsons/v1_VE250_randls_26_rotated.json,3188585,3340507,49,Woman
48,586157,DepthScenes,duration_manipulation_targetAtFixation,jsons/v1_VE250_randls_26_rotated.json,http://54.235.29.9/FacialAge/BNav_EC2/DepthDuration/v2_depth_duration_MTurk/v2_DepthDuration_HTML.html#438,438,1242,568,1366,768,10-2-2022,11-30-35,49,depth_duration_stimuli/001170_2014-06-17_15-43-44_260595134347_rgbf000096-resize_6/001170_2014-06-17_15-43-44_260595134347_rgbf000096-resize-original.jpg,250,1.1909999999999998,0.0,4194,250,feet,jsons/v1_VE250_randls_26_rotated.json,3188585,3340507,49,Woman
49,586157,DepthScenes,duration_manipulation_targetAtFixation,jsons/v1_VE250_randls_26_rotated.json,http://54.235.29.9/FacialAge/BNav_EC2/DepthDuration/v2_depth_duration_MTurk/v2_DepthDuration_HTML.html#438,438,1242,568,1366,768,10-2-2022,11-30-35,50,depth_duration_stimuli/002199_2014-06-28_18-33-56_260595134347_rgbf000074-resize_0/002199_2014-06-28_18-33-56_260595134347_rgbf000074-resize_0-target.png,250,1.996,2.0,3161,248,feet,jsons/v1_VE250_randls_26_rotated.json,3188585,3340507,49,Woman
50,586157,DepthScenes,duration_manipulation_targetAtFixation,jsons/v1_VE250_randls_26_rotated.json,http://54.235.29.9/FacialAge/BNav_EC2/DepthDuration/v2_depth_duration_MTurk/v2_DepthDuration_HTML.html#438,438,1242,568,1366,768,10-2-2022,11-30-35,51,depth_duration_stimuli/001056_2014-06-08_18-46-44_260595134347_rgbf000068-resize_0/001056_2014-06-08_18-46-44_260595134347_rgbf000068-resize_0-target.png,250,2.6625,2.5,3747,251,feet,jsons/v1_VE250_randls_26_rotated.json,3188585,3340507,49,Woman
51,586157,DepthScenes,duration_manipulation_targetAtFixation,jsons/v1_VE250_randls_26_rotated.json,http://54.235.29.9/FacialAge/BNav_EC2/DepthDuration/v2_depth_duration_MTurk/v2_DepthDuration_HTML.html#438,438,1242,568,1366,768,10-2-2022,11-30-35,52,depth_duration_stimuli/003081_2014-06-15_15-19-16_094959634447_rgbf000150-resize_1/003081_2014-06-15_15-19-16_094959634447_rgbf000150-resize_1-target.png,250,3.9125,3.5,4259,249,feet,jsons/v1_VE250_randls_26_rotated.json,3188585,3340507,49,Woman
52,586157,DepthScenes,duration_manipulation_targetAtFixation,jsons/v1_VE250_randls_26_rotated.json,http://54.235.29.9/FacialAge/BNav_EC2/DepthDuration/v2_depth_duration_MTurk/v2_DepthDuration_HTML.html#438,438,1242,568,1366,768,10-2-2022,11-30-35,53,depth_duration_stimuli/001417_2014-06-19_16-25-36_260595134347_rgbf000115-resize_5/001417_2014-06-19_16-25-36_260595134347_rgbf000115-resize_5-target.png,250,4.6255,3.0,3100,251,feet,jsons/v1_VE250_randls_26_rotated.json,3188585,3340507,49,Woman
53,586157,DepthScenes,duration_manipulation_targetAtFixation,jsons/v1_VE250_randls_26_rotated.json,http://54.235.29.9/FacialAge/BNav_EC2/DepthDuration/v2_depth_duration_MTurk/v2_DepthDuration_HTML.html#438,438,1242,568,1366,768,10-2-2022,11-30-35,54,depth_duration_stimuli/002209_2014-06-28_18-36-10_260595134347_rgbf000051-resize_1/002209_2014-06-28_18-36-10_260595134347_rgbf000051-resize_1-target.png,250,2.057,3.0,3354,250,feet,jsons/v1_VE250_randls_26_rotated.json,3188585,3340507,49,Woman
54,586157,DepthScenes,duration_manipulation_targetAtFixation,jsons/v1_VE250_randls_26_rotated.json,http://54.235.29.9/FacialAge/BNav_EC2/DepthDuration/v2_depth_duration_MTurk/v2_DepthDuration_HTML.html#438,438,1242,568,1366,768,10-2-2022,11-30-35,55,depth_duration_stimuli/002763_2014-06-22_19-13-10_094959634447_rgbf000075-resize_4/002763_2014-06-22_19-13-10_094959634447_rgbf000075-resize_4-target.png,250,1.68375,3.5,4537,249,feet,jsons/v1_VE250_randls_26_rotated.json,3188585,3340507,49,Woman
55,586157,DepthScenes,duration_manipulation_targetAtFixation,jsons/v1_VE250_randls_26_rotated.json,http://54.235.29.9/FacialAge/BNav_EC2/DepthDuration/v2_depth_duration_MTurk/v2_DepthDuration_HTML.html#438,438,1242,568,1366,768,10-2-2022,11-30-35,56,depth_duration_stimuli/002995_2014-06-15_12-31-26_094959634447_rgbf000150-resize_1/002995_2014-06-15_12-31-26_094959634447_rgbf000150-resize_1-target.png,250,3.8360000000000003,3.5,4373,249,feet,jsons/v1_VE250_randls_26_rotated.json,3188585,3340507,49,Woman
56,586157,DepthScenes,duration_manipulation_targetAtFixation,jsons/v1_VE250_randls_26_rotated.json,http://54.235.29.9/FacialAge/BNav_EC2/DepthDuration/v2_depth_duration_MTurk/v2_DepthDuration_HTML.html#438,438,1242,568,1366,768,10-2-2022,11-30-35,57,depth_duration_stimuli/002748_2014-06-22_19-07-22_094959634447_rgbf000078-resize_1/002748_2014-06-22_19-07-22_094959634447_rgbf000078-resize_1-target.png,250,4.6705,4.5,4049,249,feet,jsons/v1_VE250_randls_26_rotated.json,3188585,3340507,49,Woman
57,586157,DepthScenes,duration_manipulation_targetAtFixation,jsons/v1_VE250_randls_26_rotated.json,http://54.235.29.9/FacialAge/BNav_EC2/DepthDuration/v2_depth_duration_MTurk/v2_DepthDuration_HTML.html#438,438,1242,568,1366,768,10-2-2022,11-30-35,58,depth_duration_stimuli/001032_2014-06-08_13-23-17_260595134347_rgbf000021-resize_3/001032_2014-06-08_13-23-17_260595134347_rgbf000021-resize_3-target.png,250,3.2725,0.5,4608,249,feet,jsons/v1_VE250_randls_26_rotated.json,3188585,3340507,49,Woman
58,586157,DepthScenes,duration_manipulation_targetAtFixation,jsons/v1_VE250_randls_26_rotated.json,http://54.235.29.9/FacialAge/BNav_EC2/DepthDuration/v2_depth_duration_MTurk/v2_DepthDuration_HTML.html#438,438,1242,568,1366,768,10-2-2022,11-30-35,59,depth_duration_stimuli/001059_2014-06-08_21-53-27_260595134347_rgbf000061-resize_4/001059_2014-06-08_21-53-27_260595134347_rgbf000061-resize_4-target.png,250,2.4185,3.5,4577,249,feet,jsons/v1_VE250_randls_26_rotated.json,3188585,3340507,49,Woman
59,586157,DepthScenes,duration_manipulation_targetAtFixation,jsons/v1_VE250_randls_26_rotated.json,http://54.235.29.9/FacialAge/BNav_EC2/DepthDuration/v2_depth_duration_MTurk/v2_DepthDuration_HTML.html#438,438,1242,568,1366,768,10-2-2022,11-30-35,60,depth_duration_stimuli/001584_2014-06-20_11-07-43_260595134347_rgbf000002-resize_1/001584_2014-06-20_11-07-43_260595134347_rgbf000002-resize_1-target.png,250,3.53,3.5,4730,250,feet,jsons/v1_VE250_randls_26_rotated.json,3188585,3340507,49,Woman
60,586157,DepthScenes,duration_manipulation_targetAtFixation,jsons/v1_VE250_randls_26_rotated.json,http://54.235.29.9/FacialAge/BNav_EC2/DepthDuration/v2_depth_duration_MTurk/v2_DepthDuration_HTML.html#438,438,1242,568,1366,768,10-2-2022,11-30-35,61,depth_duration_stimuli/003621_2014-05-23_18-06-08_094959634447_rgbf000101-resize_1/003621_2014-05-23_18-06-08_094959634447_rgbf000101-resize_1-target.png,250,3.9835,4.0,2931,249,feet,jsons/v1_VE250_randls_26_rotated.json,3188585,3340507,49,Woman
61,586157,DepthScenes,duration_manipulation_targetAtFixation,jsons/v1_VE250_randls_26_rotated.json,http://54.235.29.9/FacialAge/BNav_EC2/DepthDuration/v2_depth_duration_MTurk/v2_DepthDuration_HTML.html#438,438,1242,568,1366,768,10-2-2022,11-30-35,62,depth_duration_stimuli/002568_2014-06-24_13-59-21_094959634447_rgbf000062-resize_4/002568_2014-06-24_13-59-21_094959634447_rgbf000062-resize_4-target.png,250,3.015,3.5,4257,249,feet,jsons/v1_VE250_randls_26_rotated.json,3188585,3340507,49,Woman
62,586157,DepthScenes,duration_manipulation_targetAtFixation,jsons/v1_VE250_randls_26_rotated.json,http://54.235.29.9/FacialAge/BNav_EC2/DepthDuration/v2_depth_duration_MTurk/v2_DepthDuration_HTML.html#438,438,1242,568,1366,768,10-2-2022,11-30-35,63,depth_duration_stimuli/003492_2014-05-21_15-50-55_094959634447_rgbf000828-resize_1/003492_2014-05-21_15-50-55_094959634447_rgbf000828-resize_1-target.png,250,4.06875,2.7,4469,248,feet,jsons/v1_VE250_randls_26_rotated.json,3188585,3340507,49,Woman
63,586157,DepthScenes,duration_manipulation_targetAtFixation,jsons/v1_VE250_randls_26_rotated.json,http://54.235.29.9/FacialAge/BNav_EC2/DepthDuration/v2_depth_duration_MTurk/v2_DepthDuration_HTML.html#438,438,1242,568,1366,768,10-2-2022,11-30-35,64,depth_duration_stimuli/001815_2014-06-26_20-52-55_260595134347_rgbf000020-resize_0/001815_2014-06-26_20-52-55_260595134347_rgbf000020-resize_0-target.png,250,3.3865,5.0,4496,249,feet,jsons/v1_VE250_randls_26_rotated.json,3188585,3340507,49,Woman
64,586157,DepthScenes,duration_manipulation_targetAtFixation,jsons/v1_VE250_randls_26_rotated.json,http://54.235.29.9/FacialAge/BNav_EC2/DepthDuration/v2_depth_duration_MTurk/v2_DepthDuration_HTML.html#438,438,1242,568,1366,768,10-2-2022,11-30-35,65,depth_duration_stimuli/001808_2014-06-26_20-50-58_260595134347_rgbf000029-resize_1/001808_2014-06-26_20-50-58_260595134347_rgbf000029-resize_1-target.png,250,4.249,4.7,66418,249,feet,jsons/v1_VE250_randls_26_rotated.json,3188585,3340507,49,Woman
65,586157,DepthScenes,duration_manipulation_targetAtFixation,jsons/v1_VE250_randls_26_rotated.json,http://54.235.29.9/FacialAge/BNav_EC2/DepthDuration/v2_depth_duration_MTurk/v2_DepthDuration_HTML.html#438,438,1242,568,1366,768,10-2-2022,11-30-35,66,depth_duration_stimuli/001540_2014-06-20_17-01-05_260595134347_rgbf000086-resize_2/001540_2014-06-20_17-01-05_260595134347_rgbf000086-resize-original.jpg,250,1.459,0.0,3939,244,feet,jsons/v1_VE250_randls_26_rotated.json,3188585,3340507,49,Woman
66,586157,DepthScenes,duration_manipulation_targetAtFixation,jsons/v1_VE250_randls_26_rotated.json,http://54.235.29.9/FacialAge/BNav_EC2/DepthDuration/v2_depth_duration_MTurk/v2_DepthDuration_HTML.html#438,438,1242,568,1366,768,10-2-2022,11-30-35,67,depth_duration_stimuli/003490_2014-05-21_15-50-11_094959634447_rgbf000101-resize_3/003490_2014-05-21_15-50-11_094959634447_rgbf000101-resize_3-target.png,250,3.6445,2.0,8985,249,feet,jsons/v1_VE250_randls_26_rotated.json,3188585,3340507,49,Woman
67,586157,DepthScenes,duration_manipulation_targetAtFixation,jsons/v1_VE250_randls_26_rotated.json,http://54.235.29.9/FacialAge/BNav_EC2/DepthDuration/v2_depth_duration_MTurk/v2_DepthDuration_HTML.html#438,438,1242,568,1366,768,10-2-2022,11-30-35,68,depth_duration_stimuli/001175_2014-06-17_15-45-55_260595134347_rgbf000129-resize_4/001175_2014-06-17_15-45-55_260595134347_rgbf000129-resize_4-target.png,250,4.255,4.0,3171,248,feet,jsons/v1_VE250_randls_26_rotated.json,3188585,3340507,49,Woman
68,586157,DepthScenes,duration_manipulation_targetAtFixation,jsons/v1_VE250_randls_26_rotated.json,http://54.235.29.9/FacialAge/BNav_EC2/DepthDuration/v2_depth_duration_MTurk/v2_DepthDuration_HTML.html#438,438,1242,568,1366,768,10-2-2022,11-30-35,69,depth_duration_stimuli/003083_2014-06-15_15-21-03_094959634447_rgbf000063-resize_1/003083_2014-06-15_15-21-03_094959634447_rgbf000063-resize_1-target.png,250,4.1405,5.2,4659,249,feet,jsons/v1_VE250_randls_26_rotated.json,3188585,3340507,49,Woman
69,586157,DepthScenes,duration_manipulation_targetAtFixation,jsons/v1_VE250_randls_26_rotated.json,http://54.235.29.9/FacialAge/BNav_EC2/DepthDuration/v2_depth_duration_MTurk/v2_DepthDuration_HTML.html#438,438,1242,568,1366,768,10-2-2022,11-30-35,70,depth_duration_stimuli/000486_2014-06-09_20-47-20_260595134347_rgbf000143-resize_2/000486_2014-06-09_20-47-20_260595134347_rgbf000143-resize_2-target.png,250,4.8325,2.5,3770,248,feet,jsons/v1_VE250_randls_26_rotated.json,3188585,3340507,49,Woman
70,586157,DepthScenes,duration_manipulation_targetAtFixation,jsons/v1_VE250_randls_26_rotated.json,http://54.235.29.9/FacialAge/BNav_EC2/DepthDuration/v2_depth_duration_MTurk/v2_DepthDuration_HTML.html#438,438,1242,568,1366,768,10-2-2022,11-30-35,71,depth_duration_stimuli/002639_2014-06-24_14-51-37_094959634447_rgbf000074-resize_4/002639_2014-06-24_14-51-37_094959634447_rgbf000074-resize_4-target.png,250,4.0375,3.0,4177,247,feet,jsons/v1_VE250_randls_26_rotated.json,3188585,3340507,49,Woman
71,586157,DepthScenes,duration_manipulation_targetAtFixation,jsons/v1_VE250_randls_26_rotated.json,http://54.235.29.9/FacialAge/BNav_EC2/DepthDuration/v2_depth_duration_MTurk/v2_DepthDuration_HTML.html#438,438,1242,568,1366,768,10-2-2022,11-30-35,72,depth_duration_stimuli/003292_2014-05-14_21-53-49_094959634447_rgbf000100-resize_2/003292_2014-05-14_21-53-49_094959634447_rgbf000100-resize_2-target.png,250,3.4815,3.3,4080,250,feet,jsons/v1_VE250_randls_26_rotated.json,3188585,3340507,49,Woman
72,586157,DepthScenes,duration_manipulation_targetAtFixation,jsons/v1_VE250_randls_26_rotated.json,http://54.235.29.9/FacialAge/BNav_EC2/DepthDuration/v2_depth_duration_MTurk/v2_DepthDuration_HTML.html#438,438,1242,568,1366,768,10-2-2022,11-30-35,73,depth_duration_stimuli/001650_2014-06-20_12-09-00_260595134347_rgbf000087-resize_3/001650_2014-06-20_12-09-00_260595134347_rgbf000087-resize_3-target.png,250,1.9505,2.0,8972,249,feet,jsons/v1_VE250_randls_26_rotated.json,3188585,3340507,49,Woman
73,586157,DepthScenes,duration_manipulation_targetAtFixation,jsons/v1_VE250_randls_26_rotated.json,http://54.235.29.9/FacialAge/BNav_EC2/DepthDuration/v2_depth_duration_MTurk/v2_DepthDuration_HTML.html#438,438,1242,568,1366,768,10-2-2022,11-30-35,74,depth_duration_stimuli/000682_2014-06-08_23-14-58_260595134347_rgbf000041-resize_5/000682_2014-06-08_23-14-58_260595134347_rgbf000041-resize_5-target.png,250,2.7239999999999998,2.0,2697,248,feet,jsons/v1_VE250_randls_26_rotated.json,3188585,3340507,49,Woman
74,586157,DepthScenes,duration_manipulation_targetAtFixation,jsons/v1_VE250_randls_26_rotated.json,http://54.235.29.9/FacialAge/BNav_EC2/DepthDuration/v2_depth_duration_MTurk/v2_DepthDuration_HTML.html#438,438,1242,568,1366,768,10-2-2022,11-30-35,75,depth_duration_stimuli/002657_2014-06-13_15-29-54_094959634447_rgbf000150-resize_1/002657_2014-06-13_15-29-54_094959634447_rgbf000150-resize_1-target.png,250,4.919,2.0,3462,249,feet,jsons/v1_VE250_randls_26_rotated.json,3188585,3340507,49,Woman
75,586157,DepthScenes,duration_manipulation_targetAtFixation,jsons/v1_VE250_randls_26_rotated.json,http://54.235.29.9/FacialAge/BNav_EC2/DepthDuration/v2_depth_duration_MTurk/v2_DepthDuration_HTML.html#438,438,1242,568,1366,768,10-2-2022,11-30-35,76,depth_duration_stimuli/002375_2014-06-28_20-13-44_260595134347_rgbf000032-resize_1/002375_2014-06-28_20-13-44_260595134347_rgbf000032-resize_1-target.png,250,4.0175,2.0,2466,249,feet,jsons/v1_VE250_randls_26_rotated.json,3188585,3340507,49,Woman
76,586157,DepthScenes,duration_manipulation_targetAtFixation,jsons/v1_VE250_randls_26_rotated.json,http://54.235.29.9/FacialAge/BNav_EC2/DepthDuration/v2_depth_duration_MTurk/v2_DepthDuration_HTML.html#438,438,1242,568,1366,768,10-2-2022,11-30-35,77,depth_duration_stimuli/002545_2014-06-24_13-38-53_094959634447_rgbf000080-resize_4/002545_2014-06-24_13-38-53_094959634447_rgbf000080-resize_4-target.png,250,1.9205,3.5,4349,248,feet,jsons/v1_VE250_randls_26_rotated.json,3188585,3340507,49,Woman
77,586157,DepthScenes,duration_manipulation_targetAtFixation,jsons/v1_VE250_randls_26_rotated.json,http://54.235.29.9/FacialAge/BNav_EC2/DepthDuration/v2_depth_duration_MTurk/v2_DepthDuration_HTML.html#438,438,1242,568,1366,768,10-2-2022,11-30-35,78,depth_duration_stimuli/001092_2014-06-15_17-34-58_260595134347_rgbf000171-resize_3/001092_2014-06-15_17-34-58_260595134347_rgbf000171-resize_3-target.png,250,2.6935,2.0,3243,252,feet,jsons/v1_VE250_randls_26_rotated.json,3188585,3340507,49,Woman
78,586157,DepthScenes,duration_manipulation_targetAtFixation,jsons/v1_VE250_randls_26_rotated.json,http://54.235.29.9/FacialAge/BNav_EC2/DepthDuration/v2_depth_duration_MTurk/v2_DepthDuration_HTML.html#438,438,1242,568,1366,768,10-2-2022,11-30-35,79,depth_duration_stimuli/002875_2014-06-01_15-19-00_094959634447_rgbf000151-resize_1/002875_2014-06-01_15-19-00_094959634447_rgbf000151-resize_1-target.png,250,1.9675,3.7,4619,249,feet,jsons/v1_VE250_randls_26_rotated.json,3188585,3340507,49,Woman
79,586157,DepthScenes,duration_manipulation_targetAtFixation,jsons/v1_VE250_randls_26_rotated.json,http://54.235.29.9/FacialAge/BNav_EC2/DepthDuration/v2_depth_duration_MTurk/v2_DepthDuration_HTML.html#438,438,1242,568,1366,768,10-2-2022,11-30-35,80,depth_duration_stimuli/001011_2014-06-08_23-18-54_260595134347_rgbf000044-resize_4/001011_2014-06-08_23-18-54_260595134347_rgbf000044-resize_4-target.png,250,2.4730000000000003,3.8,5173,249,feet,jsons/v1_VE250_randls_26_rotated.json,3188585,3340507,49,Woman
80,586157,DepthScenes,duration_manipulation_targetAtFixation,jsons/v1_VE250_randls_26_rotated.json,http://54.235.29.9/FacialAge/BNav_EC2/DepthDuration/v2_depth_duration_MTurk/v2_DepthDuration_HTML.html#438,438,1242,568,1366,768,10-2-2022,11-30-35,81,depth_duration_stimuli/002425_2014-06-28_20-27-29_260595134347_rgbf000031-resize_8/002425_2014-06-28_20-27-29_260595134347_rgbf000031-resize_8-target.png,250,3.8960000000000004,3.5,4860,249,feet,jsons/v1_VE250_randls_26_rotated.json,3188585,3340507,49,Woman
81,586157,DepthScenes,duration_manipulation_targetAtFixation,jsons/v1_VE250_randls_26_rotated.json,http://54.235.29.9/FacialAge/BNav_EC2/DepthDuration/v2_depth_duration_MTurk/v2_DepthDuration_HTML.html#438,438,1242,568,1366,768,10-2-2022,11-30-35,82,depth_duration_stimuli/000642_2014-06-08_16-59-25_260595134347_rgbf000098-resize_2/000642_2014-06-08_16-59-25_260595134347_rgbf000098-resize_2-target.png,250,2.8815,2.0,2772,249,feet,jsons/v1_VE250_randls_26_rotated.json,3188585,3340507,49,Woman
82,586157,DepthScenes,duration_manipulation_targetAtFixation,jsons/v1_VE250_randls_26_rotated.json,http://54.235.29.9/FacialAge/BNav_EC2/DepthDuration/v2_depth_duration_MTurk/v2_DepthDuration_HTML.html#438,438,1242,568,1366,768,10-2-2022,11-30-35,83,depth_duration_stimuli/002637_2014-06-24_14-51-13_094959634447_rgbf000066-resize_4/002637_2014-06-24_14-51-13_094959634447_rgbf000066-resize_4-target.png,250,1.9955,3.5,4016,249,feet,jsons/v1_VE250_randls_26_rotated.json,3188585,3340507,49,Woman
83,586157,DepthScenes,duration_manipulation_targetAtFixation,jsons/v1_VE250_randls_26_rotated.json,http://54.235.29.9/FacialAge/BNav_EC2/DepthDuration/v2_depth_duration_MTurk/v2_DepthDuration_HTML.html#438,438,1242,568,1366,768,10-2-2022,11-30-35,84,depth_duration_stimuli/003534_2014-05-22_15-06-10_094959634447_rgbf000102-resize_4/003534_2014-05-22_15-06-10_094959634447_rgbf000102-resize_4-target.png,250,1.426,1.0,2773,248,feet,jsons/v1_VE250_randls_26_rotated.json,3188585,3340507,49,Woman
84,586157,DepthScenes,duration_manipulation_targetAtFixation,jsons/v1_VE250_randls_26_rotated.json,http://54.235.29.9/FacialAge/BNav_EC2/DepthDuration/v2_depth_duration_MTurk/v2_DepthDuration_HTML.html#438,438,1242,568,1366,768,10-2-2022,11-30-35,85,depth_duration_stimuli/000483_2014-06-09_20-41-45_260595134347_rgbf000116-resize_4/000483_2014-06-09_20-41-45_260595134347_rgbf000116-resize_4-target.png,250,1.337,2.2,4184,250,feet,jsons/v1_VE250_randls_26_rotated.json,3188585,3340507,49,Woman
85,586157,DepthScenes,duration_manipulation_targetAtFixation,jsons/v1_VE250_randls_26_rotated.json,http://54.235.29.9/FacialAge/BNav_EC2/DepthDuration/v2_depth_duration_MTurk/v2_DepthDuration_HTML.html#438,438,1242,568,1366,768,10-2-2022,11-30-35,86,depth_duration_stimuli/000469_2014-06-09_19-42-10_260595134347_rgbf000081-resize_1/000469_2014-06-09_19-42-10_260595134347_rgbf000081-resize_1-target.png,250,1.652,2.2,3771,250,feet,jsons/v1_VE250_randls_26_rotated.json,3188585,3340507,49,Woman
86,586157,DepthScenes,duration_manipulation_targetAtFixation,jsons/v1_VE250_randls_26_rotated.json,http://54.235.29.9/FacialAge/BNav_EC2/DepthDuration/v2_depth_duration_MTurk/v2_DepthDuration_HTML.html#438,438,1242,568,1366,768,10-2-2022,11-30-35,87,depth_duration_stimuli/000734_2014-06-08_17-39-11_260595134347_rgbf000128-resize_2/000734_2014-06-08_17-39-11_260595134347_rgbf000128-resize_2-target.png,250,4.098,4.0,3618,250,feet,jsons/v1_VE250_randls_26_rotated.json,3188585,3340507,49,Woman
87,586157,DepthScenes,duration_manipulation_targetAtFixation,jsons/v1_VE250_randls_26_rotated.json,http://54.235.29.9/FacialAge/BNav_EC2/DepthDuration/v2_depth_duration_MTurk/v2_DepthDuration_HTML.html#438,438,1242,568,1366,768,10-2-2022,11-30-35,88,depth_duration_stimuli/000739_2014-06-08_18-45-58_260595134347_rgbf000068-resize_1/000739_2014-06-08_18-45-58_260595134347_rgbf000068-resize_1-target.png,250,3.534,3.5,3915,250,feet,jsons/v1_VE250_randls_26_rotated.json,3188585,3340507,49,Woman
88,586157,DepthScenes,duration_manipulation_targetAtFixation,jsons/v1_VE250_randls_26_rotated.json,http://54.235.29.9/FacialAge/BNav_EC2/DepthDuration/v2_depth_duration_MTurk/v2_DepthDuration_HTML.html#438,438,1242,568,1366,768,10-2-2022,11-30-35,89,depth_duration_stimuli/003129_2014-05-12_10-48-10_094959634447_rgbf000100-resize_0/003129_2014-05-12_10-48-10_094959634447_rgbf000100-resize_0-target.png,250,4.9305,2.0,3235,248,feet,jsons/v1_VE250_randls_26_rotated.json,3188585,3340507,49,Woman
89,586157,DepthScenes,duration_manipulation_targetAtFixation,jsons/v1_VE250_randls_26_rotated.json,http://54.235.29.9/FacialAge/BNav_EC2/DepthDuration/v2_depth_duration_MTurk/v2_DepthDuration_HTML.html#438,438,1242,568,1366,768,10-2-2022,11-30-35,90,depth_duration_stimuli/000414_2014-06-04_19-49-13_260595134347_rgbf000044-resize_0/000414_2014-06-04_19-49-13_260595134347_rgbf000044-resize_0-target.png,250,4.329,5.2,4392,250,feet,jsons/v1_VE250_randls_26_rotated.json,3188585,3340507,49,Woman
90,586157,DepthScenes,duration_manipulation_targetAtFixation,jsons/v1_VE250_randls_26_rotated.json,http://54.235.29.9/FacialAge/BNav_EC2/DepthDuration/v2_depth_duration_MTurk/v2_DepthDuration_HTML.html#438,438,1242,568,1366,768,10-2-2022,11-30-35,91,depth_duration_stimuli/002414_2014-06-28_20-24-58_260595134347_rgbf000067-resize_4/002414_2014-06-28_20-24-58_260595134347_rgbf000067-resize_4-target.png,250,4.363,3.0,6090,248,feet,jsons/v1_VE250_randls_26_rotated.json,3188585,3340507,49,Woman
91,586157,DepthScenes,duration_manipulation_targetAtFixation,jsons/v1_VE250_randls_26_rotated.json,http://54.235.29.9/FacialAge/BNav_EC2/DepthDuration/v2_depth_duration_MTurk/v2_DepthDuration_HTML.html#438,438,1242,568,1366,768,10-2-2022,11-30-35,92,depth_duration_stimuli/000773_2014-06-08_22-24-54_260595134347_rgbf000093-resize_1/000773_2014-06-08_22-24-54_260595134347_rgbf000093-resize_1-target.png,250,4.973,3.0,3187,250,feet,jsons/v1_VE250_randls_26_rotated.json,3188585,3340507,49,Woman
92,586157,DepthScenes,duration_manipulation_targetAtFixation,jsons/v1_VE250_randls_26_rotated.json,http://54.235.29.9/FacialAge/BNav_EC2/DepthDuration/v2_depth_duration_MTurk/v2_DepthDuration_HTML.html#438,438,1242,568,1366,768,10-2-2022,11-30-35,93,depth_duration_stimuli/003587_2014-05-23_16-48-02_094959634447_rgbf002384-resize_2/003587_2014-05-23_16-48-02_094959634447_rgbf002384-resize_2-target.png,250,1.357,2.0,4766,248,feet,jsons/v1_VE250_randls_26_rotated.json,3188585,3340507,49,Woman
93,586157,DepthScenes,duration_manipulation_targetAtFixation,jsons/v1_VE250_randls_26_rotated.json,http://54.235.29.9/FacialAge/BNav_EC2/DepthDuration/v2_depth_duration_MTurk/v2_DepthDuration_HTML.html#438,438,1242,568,1366,768,10-2-2022,11-30-35,94,depth_duration_stimuli/001167_2014-06-17_15-38-07_260595134347_rgbf000108-resize_0/001167_2014-06-17_15-38-07_260595134347_rgbf000108-resize_0-target.png,250,1.8505,2.2,3222,240,feet,jsons/v1_VE250_randls_26_rotated.json,3188585,3340507,49,Woman
94,586157,DepthScenes,duration_manipulation_targetAtFixation,jsons/v1_VE250_randls_26_rotated.json,http://54.235.29.9/FacialAge/BNav_EC2/DepthDuration/v2_depth_duration_MTurk/v2_DepthDuration_HTML.html#438,438,1242,568,1366,768,10-2-2022,11-30-35,95,depth_duration_stimuli/002949_2014-06-26_15-57-42_094959634447_rgbf000079-resize_1/002949_2014-06-26_15-57-42_094959634447_rgbf000079-resize_1-target.png,250,1.8915,1.8,4793,248,feet,jsons/v1_VE250_randls_26_rotated.json,3188585,3340507,49,Woman
95,586157,DepthScenes,duration_manipulation_targetAtFixation,jsons/v1_VE250_randls_26_rotated.json,http://54.235.29.9/FacialAge/BNav_EC2/DepthDuration/v2_depth_duration_MTurk/v2_DepthDuration_HTML.html#438,438,1242,568,1366,768,10-2-2022,11-30-35,96,depth_duration_stimuli/000522_2014-06-08_13-35-06_260595134347_rgbf000244-resize_1/000522_2014-06-08_13-35-06_260595134347_rgbf000244-resize_1-target.png,250,2.3715,2.6,4824,241,feet,jsons/v1_VE250_randls_26_rotated.json,3188585,3340507,49,Woman
96,586157,DepthScenes,duration_manipulation_targetAtFixation,jsons/v1_VE250_randls_26_rotated.json,http://54.235.29.9/FacialAge/BNav_EC2/DepthDuration/v2_depth_duration_MTurk/v2_DepthDuration_HTML.html#438,438,1242,568,1366,768,10-2-2022,11-30-35,97,depth_duration_stimuli/003495_2014-05-21_16-01-51_094959634447_rgbf000100-resize_3/003495_2014-05-21_16-01-51_094959634447_rgbf000100-resize_3-target.png,250,1.6255,1.2,3877,250,feet,jsons/v1_VE250_randls_26_rotated.json,3188585,3340507,49,Woman
97,586157,DepthScenes,duration_manipulation_targetAtFixation,jsons/v1_VE250_randls_26_rotated.json,http://54.235.29.9/FacialAge/BNav_EC2/DepthDuration/v2_depth_duration_MTurk/v2_DepthDuration_HTML.html#438,438,1242,568,1366,768,10-2-2022,11-30-35,98,depth_duration_stimuli/001244_2014-06-17_16-47-45_260595134347_rgbf000030-resize_4/001244_2014-06-17_16-47-45_260595134347_rgbf000030-resize_4-target.png,250,2.0425,2.3,3451,248,feet,jsons/v1_VE250_randls_26_rotated.json,3188585,3340507,49,Woman
98,586157,DepthScenes,duration_manipulation_targetAtFixation,jsons/v1_VE250_randls_26_rotated.json,http://54.235.29.9/FacialAge/BNav_EC2/DepthDuration/v2_depth_duration_MTurk/v2_DepthDuration_HTML.html#438,438,1242,568,1366,768,10-2-2022,11-30-35,99,depth_duration_stimuli/001222_2014-06-17_16-24-06_260595134347_rgbf000073-resize_0/001222_2014-06-17_16-24-06_260595134347_rgbf000073-resize-original.jpg,250,1.4385,0.0,3384,249,feet,jsons/v1_VE250_randls_26_rotated.json,3188585,3340507,49,Woman
99,586157,DepthScenes,duration_manipulation_targetAtFixation,jsons/v1_VE250_randls_26_rotated.json,http://54.235.29.9/FacialAge/BNav_EC2/DepthDuration/v2_depth_duration_MTurk/v2_DepthDuration_HTML.html#438,438,1242,568,1366,768,10-2-2022,11-30-35,100,depth_duration_stimuli/000742_2014-06-08_18-48-09_260595134347_rgbf000164-resize_4/000742_2014-06-08_18-48-09_260595134347_rgbf000164-resize_4-target.png,250,4.632,3.5,5521,249,feet,jsons/v1_VE250_randls_26_rotated.json,3188585,3340507,49,Woman
100,586157,DepthScenes,duration_manipulation_targetAtFixation,jsons/v1_VE250_randls_26_rotated.json,http://54.235.29.9/FacialAge/BNav_EC2/DepthDuration/v2_depth_duration_MTurk/v2_DepthDuration_HTML.html#438,438,1242,568,1366,768,10-2-2022,11-30-35,101,depth_duration_stimuli/001066_2014-06-08_22-03-20_260595134347_rgbf000066-resize_4/001066_2014-06-08_22-03-20_260595134347_rgbf000066-resize_4-target.png,250,4.2330000000000005,4.5,5322,248,feet,jsons/v1_VE250_randls_26_rotated.json,3188585,3340507,49,Woman
101,586157,DepthScenes,duration_manipulation_targetAtFixation,jsons/v1_VE250_randls_26_rotated.json,http://54.235.29.9/FacialAge/BNav_EC2/DepthDuration/v2_depth_duration_MTurk/v2_DepthDuration_HTML.html#438,438,1242,568,1366,768,10-2-2022,11-30-35,102,depth_duration_stimuli/001617_2014-06-20_11-35-32_260595134347_rgbf000066-resize_1/001617_2014-06-20_11-35-32_260595134347_rgbf000066-resize_1-target.png,250,3.7910000000000004,2.7,4920,249,feet,jsons/v1_VE250_randls_26_rotated.json,3188585,3340507,49,Woman
102,586157,DepthScenes,duration_manipulation_targetAtFixation,jsons/v1_VE250_randls_26_rotated.json,http://54.235.29.9/FacialAge/BNav_EC2/DepthDuration/v2_depth_duration_MTurk/v2_DepthDuration_HTML.html#438,438,1242,568,1366,768,10-2-2022,11-30-35,103,depth_duration_stimuli/001806_2014-06-26_20-50-20_260595134347_rgbf000091-resize_1/001806_2014-06-26_20-50-20_260595134347_rgbf000091-resize_1-target.png,250,2.7305,2.0,2546,248,feet,jsons/v1_VE250_randls_26_rotated.json,3188585,3340507,49,Woman
103,586157,DepthScenes,duration_manipulation_targetAtFixation,jsons/v1_VE250_randls_26_rotated.json,http://54.235.29.9/FacialAge/BNav_EC2/DepthDuration/v2_depth_duration_MTurk/v2_DepthDuration_HTML.html#438,438,1242,568,1366,768,10-2-2022,11-30-35,104,depth_duration_stimuli/001516_2014-06-20_16-25-09_260595134347_rgbf000076-resize_2/001516_2014-06-20_16-25-09_260595134347_rgbf000076-resize_2-target.png,250,1.7445,3.2,5252,249,feet,jsons/v1_VE250_randls_26_rotated.json,3188585,3340507,49,Woman
104,586157,DepthScenes,duration_manipulation_targetAtFixation,jsons/v1_VE250_randls_26_rotated.json,http://54.235.29.9/FacialAge/BNav_EC2/DepthDuration/v2_depth_duration_MTurk/v2_DepthDuration_HTML.html#438,438,1242,568,1366,768,10-2-2022,11-30-35,105,depth_duration_stimuli/002118_2014-06-25_20-32-08_260595134347_rgbf000078-resize_1/002118_2014-06-25_20-32-08_260595134347_rgbf000078-resize_1-target.png,250,2.6460000000000004,2.0,2890,244,feet,jsons/v1_VE250_randls_26_rotated.json,3188585,3340507,49,Woman
105,586157,DepthScenes,duration_manipulation_targetAtFixation,jsons/v1_VE250_randls_26_rotated.json,http://54.235.29.9/FacialAge/BNav_EC2/DepthDuration/v2_depth_duration_MTurk/v2_DepthDuration_HTML.html#438,438,1242,568,1366,768,10-2-2022,11-30-35,106,depth_duration_stimuli/001132_2014-06-17_14-48-54_260595134347_rgbf000100-resize_2/001132_2014-06-17_14-48-54_260595134347_rgbf000100-resize_2-target.png,250,3.753,3.3,4314,250,feet,jsons/v1_VE250_randls_26_rotated.json,3188585,3340507,49,Woman
106,586157,DepthScenes,duration_manipulation_targetAtFixation,jsons/v1_VE250_randls_26_rotated.json,http://54.235.29.9/FacialAge/BNav_EC2/DepthDuration/v2_depth_duration_MTurk/v2_DepthDuration_HTML.html#438,438,1242,568,1366,768,10-2-2022,11-30-35,107,depth_duration_stimuli/001133_2014-06-17_14-49-16_260595134347_rgbf000100-resize_0/001133_2014-06-17_14-49-16_260595134347_rgbf000100-resize_0-target.png,250,4.2115,2.0,5232,249,feet,jsons/v1_VE250_randls_26_rotated.json,3188585,3340507,49,Woman
107,586157,DepthScenes,duration_manipulation_targetAtFixation,jsons/v1_VE250_randls_26_rotated.json,http://54.235.29.9/FacialAge/BNav_EC2/DepthDuration/v2_depth_duration_MTurk/v2_DepthDuration_HTML.html#438,438,1242,568,1366,768,10-2-2022,11-30-35,108,depth_duration_stimuli/001392_2014-06-19_16-07-59_260595134347_rgbf000046-resize_1/001392_2014-06-19_16-07-59_260595134347_rgbf000046-resize_1-target.png,250,4.135,4.5,5185,248,feet,jsons/v1_VE250_randls_26_rotated.json,3188585,3340507,49,Woman
108,586157,DepthScenes,duration_manipulation_targetAtFixation,jsons/v1_VE250_randls_26_rotated.json,http://54.235.29.9/FacialAge/BNav_EC2/DepthDuration/v2_depth_duration_MTurk/v2_DepthDuration_HTML.html#438,438,1242,568,1366,768,10-2-2022,11-30-35,109,depth_duration_stimuli/001570_2014-06-20_17-21-09_260595134347_rgbf000135-resize_4/001570_2014-06-20_17-21-09_260595134347_rgbf000135-resize_4-target.png,250,4.467,3.2,3321,248,feet,jsons/v1_VE250_randls_26_rotated.json,3188585,3340507,49,Woman
109,586157,DepthScenes,duration_manipulation_targetAtFixation,jsons/v1_VE250_randls_26_rotated.json,http://54.235.29.9/FacialAge/BNav_EC2/DepthDuration/v2_depth_duration_MTurk/v2_DepthDuration_HTML.html#438,438,1242,568,1366,768,10-2-2022,11-30-35,110,depth_duration_stimuli/003010_2014-06-15_12-54-35_094959634447_rgbf000112-resize_0/003010_2014-06-15_12-54-35_094959634447_rgbf000112-resize_0-target.png,250,3.1185,5.0,3676,250,feet,jsons/v1_VE250_randls_26_rotated.json,3188585,3340507,49,Woman
110,586157,DepthScenes,duration_manipulation_targetAtFixation,jsons/v1_VE250_randls_26_rotated.json,http://54.235.29.9/FacialAge/BNav_EC2/DepthDuration/v2_depth_duration_MTurk/v2_DepthDuration_HTML.html#438,438,1242,568,1366,768,10-2-2022,11-30-35,111,depth_duration_stimuli/001810_2014-06-26_20-51-35_260595134347_rgbf000040-resize_3/001810_2014-06-26_20-51-35_260595134347_rgbf000040-resize_3-target.png,250,2.2525,2.5,3578,249,feet,jsons/v1_VE250_randls_26_rotated.json,3188585,3340507,49,Woman
111,586157,DepthScenes,duration_manipulation_targetAtFixation,jsons/v1_VE250_randls_26_rotated.json,http://54.235.29.9/FacialAge/BNav_EC2/DepthDuration/v2_depth_duration_MTurk/v2_DepthDuration_HTML.html#438,438,1242,568,1366,768,10-2-2022,11-30-35,112,depth_duration_stimuli/001235_2014-06-17_16-37-36_260595134347_rgbf000084-resize_4/001235_2014-06-17_16-37-36_260595134347_rgbf000084-resize_4-target.png,250,3.6605,3.0,3360,250,feet,jsons/v1_VE250_randls_26_rotated.json,3188585,3340507,49,Woman
112,586157,DepthScenes,duration_manipulation_targetAtFixation,jsons/v1_VE250_randls_26_rotated.json,http://54.235.29.9/FacialAge/BNav_EC2/DepthDuration/v2_depth_duration_MTurk/v2_DepthDuration_HTML.html#438,438,1242,568,1366,768,10-2-2022,11-30-35,113,depth_duration_stimuli/000788_2014-06-08_22-34-36_260595134347_rgbf000131-resize_1/000788_2014-06-08_22-34-36_260595134347_rgbf000131-resize_1-target.png,250,3.359,1.3,4643,248,feet,jsons/v1_VE250_randls_26_rotated.json,3188585,3340507,49,Woman
113,586157,DepthScenes,duration_manipulation_targetAtFixation,jsons/v1_VE250_randls_26_rotated.json,http://54.235.29.9/FacialAge/BNav_EC2/DepthDuration/v2_depth_duration_MTurk/v2_DepthDuration_HTML.html#438,438,1242,568,1366,768,10-2-2022,11-30-35,114,depth_duration_stimuli/000409_2014-06-04_19-23-33_260595134347_rgbf000067-resize_0/000409_2014-06-04_19-23-33_260595134347_rgbf000067-resize_0-target.png,250,3.7335,2.1,3748,249,feet,jsons/v1_VE250_randls_26_rotated.json,3188585,3340507,49,Woman
114,586157,DepthScenes,duration_manipulation_targetAtFixation,jsons/v1_VE250_randls_26_rotated.json,http://54.235.29.9/FacialAge/BNav_EC2/DepthDuration/v2_depth_duration_MTurk/v2_DepthDuration_HTML.html#438,438,1242,568,1366,768,10-2-2022,11-30-35,115,depth_duration_stimuli/002663_2014-06-13_15-50-26_094959634447_rgbf000075-resize_1/002663_2014-06-13_15-50-26_094959634447_rgbf000075-resize_1-target.png,250,4.7495,3.5,3353,259,feet,jsons/v1_VE250_randls_26_rotated.json,3188585,3340507,49,Woman
115,586157,DepthScenes,duration_manipulation_targetAtFixation,jsons/v1_VE250_randls_26_rotated.json,http://54.235.29.9/FacialAge/BNav_EC2/DepthDuration/v2_depth_duration_MTurk/v2_DepthDuration_HTML.html#438,438,1242,568,1366,768,10-2-2022,11-30-35,116,depth_duration_stimuli/003228_2014-05-14_13-42-35_094959634447_rgbf000101-resize_1/003228_2014-05-14_13-42-35_094959634447_rgbf000101-resize_1-target.png,250,1.9680000000000002,2.5,3874,249,feet,jsons/v1_VE250_randls_26_rotated.json,3188585,3340507,49,Woman
116,586157,DepthScenes,duration_manipulation_targetAtFixation,jsons/v1_VE250_randls_26_rotated.json,http://54.235.29.9/FacialAge/BNav_EC2/DepthDuration/v2_depth_duration_MTurk/v2_DepthDuration_HTML.html#438,438,1242,568,1366,768,10-2-2022,11-30-35,117,depth_duration_stimuli/002600_2014-06-24_14-27-04_094959634447_rgbf000074-resize_2/002600_2014-06-24_14-27-04_094959634447_rgbf000074-resize_2-target.png,250,2.7575,1.5,4122,249,feet,jsons/v1_VE250_randls_26_rotated.json,3188585,3340507,49,Woman
117,586157,DepthScenes,duration_manipulation_targetAtFixation,jsons/v1_VE250_randls_26_rotated.json,http://54.235.29.9/FacialAge/BNav_EC2/DepthDuration/v2_depth_duration_MTurk/v2_DepthDuration_HTML.html#438,438,1242,568,1366,768,10-2-2022,11-30-35,118,depth_duration_stimuli/000103_2014-05-14_22-01-17_260595134347_rgbf000152-resize_5/000103_2014-05-14_22-01-17_260595134347_rgbf000152-resize_5-target.png,250,1.993,4.0,3329,249,feet,jsons/v1_VE250_randls_26_rotated.json,3188585,3340507,49,Woman
118,586157,DepthScenes,duration_manipulation_targetAtFixation,jsons/v1_VE250_randls_26_rotated.json,http://54.235.29.9/FacialAge/BNav_EC2/DepthDuration/v2_depth_duration_MTurk/v2_DepthDuration_HTML.html#438,438,1242,568,1366,768,10-2-2022,11-30-35,119,depth_duration_stimuli/001555_2014-06-20_17-12-10_260595134347_rgbf000065-resize_4/001555_2014-06-20_17-12-10_260595134347_rgbf000065-resize_4-target.png,250,1.633,1.0,2760,248,feet,jsons/v1_VE250_randls_26_rotated.json,3188585,3340507,49,Woman
119,586157,DepthScenes,duration_manipulation_targetAtFixation,jsons/v1_VE250_randls_26_rotated.json,http://54.235.29.9/FacialAge/BNav_EC2/DepthDuration/v2_depth_duration_MTurk/v2_DepthDuration_HTML.html#438,438,1242,568,1366,768,10-2-2022,11-30-35,120,depth_duration_stimuli/000787_2014-06-08_22-33-53_260595134347_rgbf000175-resize_1/000787_2014-06-08_22-33-53_260595134347_rgbf000175-resize-original.jpg,250,4.784,0.0,2972,250,feet,jsons/v1_VE250_randls_26_rotated.json,3188585,3340507,49,Woman
120,586157,DepthScenes,duration_manipulation_targetAtFixation,jsons/v1_VE250_randls_26_rotated.json,http://54.235.29.9/FacialAge/BNav_EC2/DepthDuration/v2_depth_duration_MTurk/v2_DepthDuration_HTML.html#438,438,1242,568,1366,768,10-2-2022,11-30-35,121,depth_duration_stimuli/000943_2014-06-09_19-31-07_260595134347_rgbf000128-resize_1/000943_2014-06-09_19-31-07_260595134347_rgbf000128-resize_1-target.png,250,1.9765,3.3,4377,250,feet,jsons/v1_VE250_randls_26_rotated.json,3188585,3340507,49,Woman
121,586157,DepthScenes,duration_manipulation_targetAtFixation,jsons/v1_VE250_randls_26_rotated.json,http://54.235.29.9/FacialAge/BNav_EC2/DepthDuration/v2_depth_duration_MTurk/v2_DepthDuration_HTML.html#438,438,1242,568,1366,768,10-2-2022,11-30-35,122,depth_duration_stimuli/003070_2014-06-15_14-58-27_094959634447_rgbf000150-resize_3/003070_2014-06-15_14-58-27_094959634447_rgbf000150-resize_3-target.png,250,2.9415,2.2,6011,249,feet,jsons/v1_VE250_randls_26_rotated.json,3188585,3340507,49,Woman
122,586157,DepthScenes,duration_manipulation_targetAtFixation,jsons/v1_VE250_randls_26_rotated.json,http://54.235.29.9/FacialAge/BNav_EC2/DepthDuration/v2_depth_duration_MTurk/v2_DepthDuration_HTML.html#438,438,1242,568,1366,768,10-2-2022,11-30-35,123,depth_duration_stimuli/002750_2014-06-22_19-08-03_094959634447_rgbf000094-resize_4/002750_2014-06-22_19-08-03_094959634447_rgbf000094-resize_4-target.png,250,2.354,3.8,4769,250,feet,jsons/v1_VE250_randls_26_rotated.json,3188585,3340507,49,Woman
123,586157,DepthScenes,duration_manipulation_targetAtFixation,jsons/v1_VE250_randls_26_rotated.json,http://54.235.29.9/FacialAge/BNav_EC2/DepthDuration/v2_depth_duration_MTurk/v2_DepthDuration_HTML.html#438,438,1242,568,1366,768,10-2-2022,11-30-35,124,depth_duration_stimuli/002549_2014-06-24_13-41-39_094959634447_rgbf000022-resize_3/002549_2014-06-24_13-41-39_094959634447_rgbf000022-resize_3-target.png,250,1.476,3.3,4098,248,feet,jsons/v1_VE250_randls_26_rotated.json,3188585,3340507,49,Woman
124,586157,DepthScenes,duration_manipulation_targetAtFixation,jsons/v1_VE250_randls_26_rotated.json,http://54.235.29.9/FacialAge/BNav_EC2/DepthDuration/v2_depth_duration_MTurk/v2_DepthDuration_HTML.html#438,438,1242,568,1366,768,10-2-2022,11-30-35,125,depth_duration_stimuli/002344_2014-06-28_20-06-29_260595134347_rgbf000030-resize_1/002344_2014-06-28_20-06-29_260595134347_rgbf000030-resize_1-target.png,250,1.5795,1.8,4433,250,feet,jsons/v1_VE250_randls_26_rotated.json,3188585,3340507,49,Woman
125,586157,DepthScenes,duration_manipulation_targetAtFixation,jsons/v1_VE250_randls_26_rotated.json,http://54.235.29.9/FacialAge/BNav_EC2/DepthDuration/v2_depth_duration_MTurk/v2_DepthDuration_HTML.html#438,438,1242,568,1366,768,10-2-2022,11-30-35,126,depth_duration_stimuli/002725_2014-06-22_11-47-51_094959634447_rgbf000070-resize_1/002725_2014-06-22_11-47-51_094959634447_rgbf000070-resize_1-target.png,250,2.195,3.5,3836,249,feet,jsons/v1_VE250_randls_26_rotated.json,3188585,3340507,49,Woman
126,586157,DepthScenes,duration_manipulation_targetAtFixation,jsons/v1_VE250_randls_26_rotated.json,http://54.235.29.9/FacialAge/BNav_EC2/DepthDuration/v2_depth_duration_MTurk/v2_DepthDuration_HTML.html#438,438,1242,568,1366,768,10-2-2022,11-30-35,127,depth_duration_stimuli/002805_2014-06-22_19-54-03_094959634447_rgbf000079-resize_1/002805_2014-06-22_19-54-03_094959634447_rgbf000079-resize_1-target.png,250,3.1439999999999997,3.3,5159,248,feet,jsons/v1_VE250_randls_26_rotated.json,3188585,3340507,49,Woman
127,586157,DepthScenes,duration_manipulation_targetAtFixation,jsons/v1_VE250_randls_26_rotated.json,http://54.235.29.9/FacialAge/BNav_EC2/DepthDuration/v2_depth_duration_MTurk/v2_DepthDuration_HTML.html#438,438,1242,568,1366,768,10-2-2022,11-30-35,128,depth_duration_stimuli/000906_2014-06-08_13-35-43_260595134347_rgbf000155-resize_1/000906_2014-06-08_13-35-43_260595134347_rgbf000155-resize_1-target.png,250,2.8489999999999998,3.2,3780,249,feet,jsons/v1_VE250_randls_26_rotated.json,3188585,3340507,49,Woman
128,586157,DepthScenes,duration_manipulation_targetAtFixation,jsons/v1_VE250_randls_26_rotated.json,http://54.235.29.9/FacialAge/BNav_EC2/DepthDuration/v2_depth_duration_MTurk/v2_DepthDuration_HTML.html#438,438,1242,568,1366,768,10-2-2022,11-30-35,129,depth_duration_stimuli/000709_2014-06-08_13-51-55_260595134347_rgbf000068-resize_3/000709_2014-06-08_13-51-55_260595134347_rgbf000068-resize_3-target.png,250,1.8030000000000002,4.8,5642,248,feet,jsons/v1_VE250_randls_26_rotated.json,3188585,3340507,49,Woman
129,586157,DepthScenes,duration_manipulation_targetAtFixation,jsons/v1_VE250_randls_26_rotated.json,http://54.235.29.9/FacialAge/BNav_EC2/DepthDuration/v2_depth_duration_MTurk/v2_DepthDuration_HTML.html#438,438,1242,568,1366,768,10-2-2022,11-30-35,130,depth_duration_stimuli/002057_2014-06-24_21-00-13_260595134347_rgbf000120-resize_1/002057_2014-06-24_21-00-13_260595134347_rgbf000120-resize_1-target.png,250,2.967,4.5,4040,249,feet,jsons/v1_VE250_randls_26_rotated.json,3188585,3340507,49,Woman
130,586157,DepthScenes,duration_manipulation_targetAtFixation,jsons/v1_VE250_randls_26_rotated.json,http://54.235.29.9/FacialAge/BNav_EC2/DepthDuration/v2_depth_duration_MTurk/v2_DepthDuration_HTML.html#438,438,1242,568,1366,768,10-2-2022,11-30-35,131,depth_duration_stimuli/000749_2014-06-08_21-55-06_260595134347_rgbf000070-resize_2/000749_2014-06-08_21-55-06_260595134347_rgbf000070-resize_2-target.png,250,2.331,3.3,3683,250,feet,jsons/v1_VE250_randls_26_rotated.json,3188585,3340507,49,Woman
131,586157,DepthScenes,duration_manipulation_targetAtFixation,jsons/v1_VE250_randls_26_rotated.json,http://54.235.29.9/FacialAge/BNav_EC2/DepthDuration/v2_depth_duration_MTurk/v2_DepthDuration_HTML.html#438,438,1242,568,1366,768,10-2-2022,11-30-35,132,depth_duration_stimuli/002788_2014-06-22_19-36-03_094959634447_rgbf000088-resize_2/002788_2014-06-22_19-36-03_094959634447_rgbf000088-resize_2-target.png,250,1.6465,2.5,3468,250,feet,jsons/v1_VE250_randls_26_rotated.json,3188585,3340507,49,Woman
132,586157,DepthScenes,duration_manipulation_targetAtFixation,jsons/v1_VE250_randls_26_rotated.json,http://54.235.29.9/FacialAge/BNav_EC2/DepthDuration/v2_depth_duration_MTurk/v2_DepthDuration_HTML.html#438,438,1242,568,1366,768,10-2-2022,11-30-35,133,depth_duration_stimuli/000780_2014-06-08_22-28-29_260595134347_rgbf000126-resize_1/000780_2014-06-08_22-28-29_260595134347_rgbf000126-resize_1-target.png,250,3.3825,3.0,3441,250,feet,jsons/v1_VE250_randls_26_rotated.json,3188585,3340507,49,Woman
133,586157,DepthScenes,duration_manipulation_targetAtFixation,jsons/v1_VE250_randls_26_rotated.json,http://54.235.29.9/FacialAge/BNav_EC2/DepthDuration/v2_depth_duration_MTurk/v2_DepthDuration_HTML.html#438,438,1242,568,1366,768,10-2-2022,11-30-35,134,depth_duration_stimuli/002445_2014-06-28_20-32-16_260595134347_rgbf000029-resize_4/002445_2014-06-28_20-32-16_260595134347_rgbf000029-resize_4-target.png,250,2.5315,1.2,3707,250,feet,jsons/v1_VE250_randls_26_rotated.json,3188585,3340507,49,Woman
134,586157,DepthScenes,duration_manipulation_targetAtFixation,jsons/v1_VE250_randls_26_rotated.json,http://54.235.29.9/FacialAge/BNav_EC2/DepthDuration/v2_depth_duration_MTurk/v2_DepthDuration_HTML.html#438,438,1242,568,1366,768,10-2-2022,11-30-35,135,depth_duration_stimuli/000375_2014-06-08_11-17-29_260595134347_rgbf000133-resize_2/000375_2014-06-08_11-17-29_260595134347_rgbf000133-resize-original.jpg,250,4.718,0.0,2627,249,feet,jsons/v1_VE250_randls_26_rotated.json,3188585,3340507,49,Woman
135,586157,DepthScenes,duration_manipulation_targetAtFixation,jsons/v1_VE250_randls_26_rotated.json,http://54.235.29.9/FacialAge/BNav_EC2/DepthDuration/v2_depth_duration_MTurk/v2_DepthDuration_HTML.html#438,438,1242,568,1366,768,10-2-2022,11-30-35,136,depth_duration_stimuli/000556_2014-06-09_22-42-56_260595134347_rgbf000214-resize_1/000556_2014-06-09_22-42-56_260595134347_rgbf000214-resize_1-target.png,250,4.8415,1.5,3595,248,feet,jsons/v1_VE250_randls_26_rotated.json,3188585,3340507,49,Woman
136,586157,DepthScenes,duration_manipulation_targetAtFixation,jsons/v1_VE250_randls_26_rotated.json,http://54.235.29.9/FacialAge/BNav_EC2/DepthDuration/v2_depth_duration_MTurk/v2_DepthDuration_HTML.html#438,438,1242,568,1366,768,10-2-2022,11-30-35,137,depth_duration_stimuli/001158_2014-06-17_15-32-16_260595134347_rgbf000138-resize_2/001158_2014-06-17_15-32-16_260595134347_rgbf000138-resize_2-target.png,250,4.5315,3.0,3090,258,feet,jsons/v1_VE250_randls_26_rotated.json,3188585,3340507,49,Woman
137,586157,DepthScenes,duration_manipulation_targetAtFixation,jsons/v1_VE250_randls_26_rotated.json,http://54.235.29.9/FacialAge/BNav_EC2/DepthDuration/v2_depth_duration_MTurk/v2_DepthDuration_HTML.html#438,438,1242,568,1366,768,10-2-2022,11-30-35,138,depth_duration_stimuli/000665_2014-06-09_20-42-35_260595134347_rgbf000110-resize_1/000665_2014-06-09_20-42-35_260595134347_rgbf000110-resize_1-target.png,250,3.057,2.5,4162,249,feet,jsons/v1_VE250_randls_26_rotated.json,3188585,3340507,49,Woman
138,586157,DepthScenes,duration_manipulation_targetAtFixation,jsons/v1_VE250_randls_26_rotated.json,http://54.235.29.9/FacialAge/BNav_EC2/DepthDuration/v2_depth_duration_MTurk/v2_DepthDuration_HTML.html#438,438,1242,568,1366,768,10-2-2022,11-30-35,139,depth_duration_stimuli/001150_2014-06-17_15-27-34_260595134347_rgbf000108-resize_2/001150_2014-06-17_15-27-34_260595134347_rgbf000108-resize_2-target.png,250,4.0325,3.8,7338,248,feet,jsons/v1_VE250_randls_26_rotated.json,3188585,3340507,49,Woman
139,586157,DepthScenes,duration_manipulation_targetAtFixation,jsons/v1_VE250_randls_26_rotated.json,http://54.235.29.9/FacialAge/BNav_EC2/DepthDuration/v2_depth_duration_MTurk/v2_DepthDuration_HTML.html#438,438,1242,568,1366,768,10-2-2022,11-30-35,140,depth_duration_stimuli/001100_2014-06-15_17-46-26_260595134347_rgbf000225-resize_2/001100_2014-06-15_17-46-26_260595134347_rgbf000225-resize_2-target.png,250,2.24,2.0,2643,249,feet,jsons/v1_VE250_randls_26_rotated.json,3188585,3340507,49,Woman
140,586157,DepthScenes,duration_manipulation_targetAtFixation,jsons/v1_VE250_randls_26_rotated.json,http://54.235.29.9/FacialAge/BNav_EC2/DepthDuration/v2_depth_duration_MTurk/v2_DepthDuration_HTML.html#438,438,1242,568,1366,768,10-2-2022,11-30-35,141,depth_duration_stimuli/002784_2014-06-22_19-26-30_094959634447_rgbf000083-resize_3/002784_2014-06-22_19-26-30_094959634447_rgbf000083-resize_3-target.png,250,1.8046666666667,1.2,4153,249,feet,jsons/v1_VE250_randls_26_rotated.json,3188585,3340507,49,Woman
141,586157,DepthScenes,duration_manipulation_targetAtFixation,jsons/v1_VE250_randls_26_rotated.json,http://54.235.29.9/FacialAge/BNav_EC2/DepthDuration/v2_depth_duration_MTurk/v2_DepthDuration_HTML.html#438,438,1242,568,1366,768,10-2-2022,11-30-35,142,depth_duration_stimuli/002678_2014-06-13_16-15-32_094959634447_rgbf000151-resize_6/002678_2014-06-13_16-15-32_094959634447_rgbf000151-resize_6-target.png,250,2.1830000000000003,4.5,4642,249,feet,jsons/v1_VE250_randls_26_rotated.json,3188585,3340507,49,Woman
142,586157,DepthScenes,duration_manipulation_targetAtFixation,jsons/v1_VE250_randls_26_rotated.json,http://54.235.29.9/FacialAge/BNav_EC2/DepthDuration/v2_depth_duration_MTurk/v2_DepthDuration_HTML.html#438,438,1242,568,1366,768,10-2-2022,11-30-35,143,depth_duration_stimuli/000368_2014-06-09_15-53-01_260595134347_rgbf000155-resize_2/000368_2014-06-09_15-53-01_260595134347_rgbf000155-resize_2-target.png,250,2.4859999999999998,1.2,4241,248,feet,jsons/v1_VE250_randls_26_rotated.json,3188585,3340507,49,Woman
143,586157,DepthScenes,duration_manipulation_targetAtFixation,jsons/v1_VE250_randls_26_rotated.json,http://54.235.29.9/FacialAge/BNav_EC2/DepthDuration/v2_depth_duration_MTurk/v2_DepthDuration_HTML.html#438,438,1242,568,1366,768,10-2-2022,11-30-35,144,depth_duration_stimuli/002758_2014-06-22_19-11-20_094959634447_rgbf000128-resize_1/002758_2014-06-22_19-11-20_094959634447_rgbf000128-resize_1-target.png,250,2.555,2.0,2916,250,feet,jsons/v1_VE250_randls_26_rotated.json,3188585,3340507,49,Woman
144,586157,DepthScenes,duration_manipulation_targetAtFixation,jsons/v1_VE250_randls_26_rotated.json,http://54.235.29.9/FacialAge/BNav_EC2/DepthDuration/v2_depth_duration_MTurk/v2_DepthDuration_HTML.html#438,438,1242,568,1366,768,10-2-2022,11-30-35,145,depth_duration_stimuli/002630_2014-06-24_14-47-50_094959634447_rgbf000055-resize_1/002630_2014-06-24_14-47-50_094959634447_rgbf000055-resize_1-target.png,250,3.0095,3.5,3291,250,feet,jsons/v1_VE250_randls_26_rotated.json,3188585,3340507,49,Woman
145,586157,DepthScenes,duration_manipulation_targetAtFixation,jsons/v1_VE250_randls_26_rotated.json,http://54.235.29.9/FacialAge/BNav_EC2/DepthDuration/v2_depth_duration_MTurk/v2_DepthDuration_HTML.html#438,438,1242,568,1366,768,10-2-2022,11-30-35,146,depth_duration_stimuli/000457_2014-06-08_16-52-43_260595134347_rgbf000199-resize_1/000457_2014-06-08_16-52-43_260595134347_rgbf000199-resize_1-target.png,250,3.6489999999999996,3.6,4116,250,feet,jsons/v1_VE250_randls_26_rotated.json,3188585,3340507,49,Woman
146,586157,DepthScenes,duration_manipulation_targetAtFixation,jsons/v1_VE250_randls_26_rotated.json,http://54.235.29.9/FacialAge/BNav_EC2/DepthDuration/v2_depth_duration_MTurk/v2_DepthDuration_HTML.html#438,438,1242,568,1366,768,10-2-2022,11-30-35,147,depth_duration_stimuli/000929_2014-06-09_16-33-19_260595134347_rgbf000139-resize_0/000929_2014-06-09_16-33-19_260595134347_rgbf000139-resize_0-target.png,250,2.8680000000000003,2.0,2463,250,feet,jsons/v1_VE250_randls_26_rotated.json,3188585,3340507,49,Woman
147,586157,DepthScenes,duration_manipulation_targetAtFixation,jsons/v1_VE250_randls_26_rotated.json,http://54.235.29.9/FacialAge/BNav_EC2/DepthDuration/v2_depth_duration_MTurk/v2_DepthDuration_HTML.html#438,438,1242,568,1366,768,10-2-2022,11-30-35,148,depth_duration_stimuli/002953_2014-06-08_17-32-18_094959634447_rgbf000059-resize_5/002953_2014-06-08_17-32-18_094959634447_rgbf000059-resize_5-target.png,250,1.551,3.3,3845,250,feet,jsons/v1_VE250_randls_26_rotated.json,3188585,3340507,49,Woman
148,586157,DepthScenes,duration_manipulation_targetAtFixation,jsons/v1_VE250_randls_26_rotated.json,http://54.235.29.9/FacialAge/BNav_EC2/DepthDuration/v2_depth_duration_MTurk/v2_DepthDuration_HTML.html#438,438,1242,568,1366,768,10-2-2022,11-30-35,149,depth_duration_stimuli/000878_2014-06-08_22-52-45_260595134347_rgbf000045-resize_2/000878_2014-06-08_22-52-45_260595134347_rgbf000045-resize_2-target.png,250,2.092,4.0,3601,249,feet,jsons/v1_VE250_randls_26_rotated.json,3188585,3340507,49,Woman
149,586157,DepthScenes,duration_manipulation_targetAtFixation,jsons/v1_VE250_randls_26_rotated.json,http://54.235.29.9/FacialAge/BNav_EC2/DepthDuration/v2_depth_duration_MTurk/v2_DepthDuration_HTML.html#438,438,1242,568,1366,768,10-2-2022,11-30-35,150,depth_duration_stimuli/000191_2014-05-12_17-07-38_260595134347_rgbf000199-resize_0/000191_2014-05-12_17-07-38_260595134347_rgbf000199-resize_0-target.png,250,3.7995,5.5,3939,248,feet,jsons/v1_VE250_randls_26_rotated.json,3188585,3340507,49,Woman
150,586157,DepthScenes,duration_manipulation_targetAtFixation,jsons/v1_VE250_randls_26_rotated.json,http://54.235.29.9/FacialAge/BNav_EC2/DepthDuration/v2_depth_duration_MTurk/v2_DepthDuration_HTML.html#438,438,1242,568,1366,768,10-2-2022,11-30-35,151,depth_duration_stimuli/000493_2014-06-09_21-01-18_260595134347_rgbf000196-resize_3/000493_2014-06-09_21-01-18_260595134347_rgbf000196-resize_3-target.png,250,3.44,3.3,3512,248,feet,jsons/v1_VE250_randls_26_rotated.json,3188585,3340507,49,Woman
151,586157,DepthScenes,duration_manipulation_targetAtFixation,jsons/v1_VE250_randls_26_rotated.json,http://54.235.29.9/FacialAge/BNav_EC2/DepthDuration/v2_depth_duration_MTurk/v2_DepthDuration_HTML.html#438,438,1242,568,1366,768,10-2-2022,11-30-35,152,depth_duration_stimuli/000569_2014-06-09_22-51-47_260595134347_rgbf000141-resize_3/000569_2014-06-09_22-51-47_260595134347_rgbf000141-resize-original.jpg,250,4.512,0.0,2731,249,feet,jsons/v1_VE250_randls_26_rotated.json,3188585,3340507,49,Woman
152,586157,DepthScenes,duration_manipulation_targetAtFixation,jsons/v1_VE250_randls_26_rotated.json,http://54.235.29.9/FacialAge/BNav_EC2/DepthDuration/v2_depth_duration_MTurk/v2_DepthDuration_HTML.html#438,438,1242,568,1366,768,10-2-2022,11-30-35,153,depth_duration_stimuli/002444_2014-06-28_20-32-08_260595134347_rgbf000027-resize_0/002444_2014-06-28_20-32-08_260595134347_rgbf000027-resize_0-target.png,250,4.388999999999999,3.0,3256,250,feet,jsons/v1_VE250_randls_26_rotated.json,3188585,3340507,49,Woman
153,586157,DepthScenes,duration_manipulation_targetAtFixation,jsons/v1_VE250_randls_26_rotated.json,http://54.235.29.9/FacialAge/BNav_EC2/DepthDuration/v2_depth_duration_MTurk/v2_DepthDuration_HTML.html#438,438,1242,568,1366,768,10-2-2022,11-30-35,154,depth_duration_stimuli/000436_2014-06-09_22-25-11_260595134347_rgbf000137-resize_1/000436_2014-06-09_22-25-11_260595134347_rgbf000137-resize_1-target.png,250,4.0705,3.0,2965,249,feet,jsons/v1_VE250_randls_26_rotated.json,3188585,3340507,49,Woman
154,586157,DepthScenes,duration_manipulation_targetAtFixation,jsons/v1_VE250_randls_26_rotated.json,http://54.235.29.9/FacialAge/BNav_EC2/DepthDuration/v2_depth_duration_MTurk/v2_DepthDuration_HTML.html#438,438,1242,568,1366,768,10-2-2022,11-30-35,155,depth_duration_stimuli/000927_2014-06-09_16-32-30_260595134347_rgbf000123-resize_3/000927_2014-06-09_16-32-30_260595134347_rgbf000123-resize_3-target.png,250,2.6785,3.3,3693,250,feet,jsons/v1_VE250_randls_26_rotated.json,3188585,3340507,49,Woman
155,586157,DepthScenes,duration_manipulation_targetAtFixation,jsons/v1_VE250_randls_26_rotated.json,http://54.235.29.9/FacialAge/BNav_EC2/DepthDuration/v2_depth_duration_MTurk/v2_DepthDuration_HTML.html#438,438,1242,568,1366,768,10-2-2022,11-30-35,156,depth_duration_stimuli/001110_2014-06-15_17-25-28_260595134347_rgbf000150-resize_1/001110_2014-06-15_17-25-28_260595134347_rgbf000150-resize_1-target.png,250,1.7115,2.7,4184,250,feet,jsons/v1_VE250_randls_26_rotated.json,3188585,3340507,49,Woman
156,586157,DepthScenes,duration_manipulation_targetAtFixation,jsons/v1_VE250_randls_26_rotated.json,http://54.235.29.9/FacialAge/BNav_EC2/DepthDuration/v2_depth_duration_MTurk/v2_DepthDuration_HTML.html#438,438,1242,568,1366,768,10-2-2022,11-30-35,157,depth_duration_stimuli/003048_2014-06-15_13-49-43_094959634447_rgbf000150-resize_1/003048_2014-06-15_13-49-43_094959634447_rgbf000150-resize_1-target.png,250,4.0035,4.0,3155,250,feet,jsons/v1_VE250_randls_26_rotated.json,3188585,3340507,49,Woman
157,586157,DepthScenes,duration_manipulation_targetAtFixation,jsons/v1_VE250_randls_26_rotated.json,http://54.235.29.9/FacialAge/BNav_EC2/DepthDuration/v2_depth_duration_MTurk/v2_DepthDuration_HTML.html#438,438,1242,568,1366,768,10-2-2022,11-30-35,158,depth_duration_stimuli/002043_2014-06-24_20-29-38_260595134347_rgbf000039-resize_4/002043_2014-06-24_20-29-38_260595134347_rgbf000039-resize_4-target.png,250,2.8435,2.5,3300,249,feet,jsons/v1_VE250_randls_26_rotated.json,3188585,3340507,49,Woman
158,586157,DepthScenes,duration_manipulation_targetAtFixation,jsons/v1_VE250_randls_26_rotated.json,http://54.235.29.9/FacialAge/BNav_EC2/DepthDuration/v2_depth_duration_MTurk/v2_DepthDuration_HTML.html#438,438,1242,568,1366,768,10-2-2022,11-30-35,159,depth_duration_stimuli/000866_2014-06-09_20-45-42_260595134347_rgbf000139-resize_1/000866_2014-06-09_20-45-42_260595134347_rgbf000139-resize_1-target.png,250,3.2155,3.0,2841,250,feet,jsons/v1_VE250_randls_26_rotated.json,3188585,3340507,49,Woman
159,586157,DepthScenes,duration_manipulation_targetAtFixation,jsons/v1_VE250_randls_26_rotated.json,http://54.235.29.9/FacialAge/BNav_EC2/DepthDuration/v2_depth_duration_MTurk/v2_DepthDuration_HTML.html#438,438,1242,568,1366,768,10-2-2022,11-30-35,160,depth_duration_stimuli/002989_2014-06-15_12-25-03_094959634447_rgbf000150-resize_3/002989_2014-06-15_12-25-03_094959634447_rgbf000150-resize_3-target.png,250,4.1975,4.5,4299,248,feet,jsons/v1_VE250_randls_26_rotated.json,3188585,3340507,49,Woman
160,586157,DepthScenes,duration_manipulation_targetAtFixation,jsons/v1_VE250_randls_26_rotated.json,http://54.235.29.9/FacialAge/BNav_EC2/DepthDuration/v2_depth_duration_MTurk/v2_DepthDuration_HTML.html#438,438,1242,568,1366,768,10-2-2022,11-30-35,161,depth_duration_stimuli/000691_2014-06-08_13-08-50_260595134347_rgbf000132-resize_3/000691_2014-06-08_13-08-50_260595134347_rgbf000132-resize_3-target.png,250,4.1530000000000005,2.5,3918,249,feet,jsons/v1_VE250_randls_26_rotated.json,3188585,3340507,49,Woman
161,586157,DepthScenes,duration_manipulation_targetAtFixation,jsons/v1_VE250_randls_26_rotated.json,http://54.235.29.9/FacialAge/BNav_EC2/DepthDuration/v2_depth_duration_MTurk/v2_DepthDuration_HTML.html#438,438,1242,568,1366,768,10-2-2022,11-30-35,162,depth_duration_stimuli/002213_2014-06-28_18-37-58_260595134347_rgbf000055-resize_1/002213_2014-06-28_18-37-58_260595134347_rgbf000055-resize_1-target.png,250,3.62,4.5,6612,251,feet,jsons/v1_VE250_randls_26_rotated.json,3188585,3340507,49,Woman
162,586157,DepthScenes,duration_manipulation_targetAtFixation,jsons/v1_VE250_randls_26_rotated.json,http://54.235.29.9/FacialAge/BNav_EC2/DepthDuration/v2_depth_duration_MTurk/v2_DepthDuration_HTML.html#438,438,1242,568,1366,768,10-2-2022,11-30-35,163,depth_duration_stimuli/001214_2014-06-17_16-13-55_260595134347_rgbf000111-resize_0/001214_2014-06-17_16-13-55_260595134347_rgbf000111-resize_0-target.png,250,2.6505,1.2,4450,249,feet,jsons/v1_VE250_randls_26_rotated.json,3188585,3340507,49,Woman
163,586157,DepthScenes,duration_manipulation_targetAtFixation,jsons/v1_VE250_randls_26_rotated.json,http://54.235.29.9/FacialAge/BNav_EC2/DepthDuration/v2_depth_duration_MTurk/v2_DepthDuration_HTML.html#438,438,1242,568,1366,768,10-2-2022,11-30-35,164,depth_duration_stimuli/000810_2014-06-08_17-20-01_260595134347_rgbf000105-resize_0/000810_2014-06-08_17-20-01_260595134347_rgbf000105-resize_0-target.png,250,1.4865,1.5,2957,250,feet,jsons/v1_VE250_randls_26_rotated.json,3188585,3340507,49,Woman
