,subjID,experimentName,versionName,sequenceName,url,selected_row,windowWidth,windowHeight,screenWidth,screenHeight,startDate,startTime,trial,stimulus,duration,actual_depth,depth_estimate,trial_RT,log_sceneDuration,unitSelection,seq_filepath,experimentTime,totalTime,age,gender
0,591908,DepthScenes,duration_manipulation_targetAtFixation,jsons/VE125_randls_76.json,http://54.235.29.9/FacialAge/BNav_EC2/DepthDuration/v2_depth_duration_MTurk/v2_DepthDuration_HTML.html#413,413,1366,657,1366,768,9-31-2022,11-38-50,1,depth_duration_stimuli/002905_2014-06-03_18-04-43_094959634447_rgbf000151-resize_2/002905_2014-06-03_18-04-43_094959634447_rgbf000151-resize_2-target.png,125,2.0295,3,2943,125,feet,jsons/VE125_randls_76.json,478935,911649,40,Man
1,591908,DepthScenes,duration_manipulation_targetAtFixation,jsons/VE125_randls_76.json,http://54.235.29.9/FacialAge/BNav_EC2/DepthDuration/v2_depth_duration_MTurk/v2_DepthDuration_HTML.html#413,413,1366,657,1366,768,9-31-2022,11-38-50,2,depth_duration_stimuli/003423_2014-05-21_10-23-26_094959634447_rgbf002665-resize_2/003423_2014-05-21_10-23-26_094959634447_rgbf002665-resize_2-target.png,125,3.2575,4,2490,125,feet,jsons/VE125_randls_76.json,478935,911649,40,Man
2,591908,DepthScenes,duration_manipulation_targetAtFixation,jsons/VE125_randls_76.json,http://54.235.29.9/FacialAge/BNav_EC2/DepthDuration/v2_depth_duration_MTurk/v2_DepthDuration_HTML.html#413,413,1366,657,1366,768,9-31-2022,11-38-50,3,depth_duration_stimuli/002989_2014-06-15_12-25-03_094959634447_rgbf000150-resize_3/002989_2014-06-15_12-25-03_094959634447_rgbf000150-resize_3-target.png,125,4.1975,8,4394,125,feet,jsons/VE125_randls_76.json,478935,911649,40,Man
3,591908,DepthScenes,duration_manipulation_targetAtFixation,jsons/VE125_randls_76.json,http://54.235.29.9/FacialAge/BNav_EC2/DepthDuration/v2_depth_duration_MTurk/v2_DepthDuration_HTML.html#413,413,1366,657,1366,768,9-31-2022,11-38-50,4,depth_duration_stimuli/000866_2014-06-09_20-45-42_260595134347_rgbf000139-resize_1/000866_2014-06-09_20-45-42_260595134347_rgbf000139-resize_1-target.png,125,3.2155,5,2378,124,feet,jsons/VE125_randls_76.json,478935,911649,40,Man
4,591908,DepthScenes,duration_manipulation_targetAtFixation,jsons/VE125_randls_76.json,http://54.235.29.9/FacialAge/BNav_EC2/DepthDuration/v2_depth_duration_MTurk/v2_DepthDuration_HTML.html#413,413,1366,657,1366,768,9-31-2022,11-38-50,5,depth_duration_stimuli/002725_2014-06-22_11-47-51_094959634447_rgbf000070-resize_1/002725_2014-06-22_11-47-51_094959634447_rgbf000070-resize_1-target.png,125,2.195,5,2267,125,feet,jsons/VE125_randls_76.json,478935,911649,40,Man
5,591908,DepthScenes,duration_manipulation_targetAtFixation,jsons/VE125_randls_76.json,http://54.235.29.9/FacialAge/BNav_EC2/DepthDuration/v2_depth_duration_MTurk/v2_DepthDuration_HTML.html#413,413,1366,657,1366,768,9-31-2022,11-38-50,6,depth_duration_stimuli/002344_2014-06-28_20-06-29_260595134347_rgbf000030-resize_1/002344_2014-06-28_20-06-29_260595134347_rgbf000030-resize_1-target.png,125,1.5795,3,2283,126,feet,jsons/VE125_randls_76.json,478935,911649,40,Man
6,591908,DepthScenes,duration_manipulation_targetAtFixation,jsons/VE125_randls_76.json,http://54.235.29.9/FacialAge/BNav_EC2/DepthDuration/v2_depth_duration_MTurk/v2_DepthDuration_HTML.html#413,413,1366,657,1366,768,9-31-2022,11-38-50,7,depth_duration_stimuli/001158_2014-06-17_15-32-16_260595134347_rgbf000138-resize_2/001158_2014-06-17_15-32-16_260595134347_rgbf000138-resize_2-target.png,125,4.5315,9,3977,125,feet,jsons/VE125_randls_76.json,478935,911649,40,Man
7,591908,DepthScenes,duration_manipulation_targetAtFixation,jsons/VE125_randls_76.json,http://54.235.29.9/FacialAge/BNav_EC2/DepthDuration/v2_depth_duration_MTurk/v2_DepthDuration_HTML.html#413,413,1366,657,1366,768,9-31-2022,11-38-50,8,depth_duration_stimuli/000556_2014-06-09_22-42-56_260595134347_rgbf000214-resize_1/000556_2014-06-09_22-42-56_260595134347_rgbf000214-resize_1-target.png,125,4.8415,4,2234,124,feet,jsons/VE125_randls_76.json,478935,911649,40,Man
8,591908,DepthScenes,duration_manipulation_targetAtFixation,jsons/VE125_randls_76.json,http://54.235.29.9/FacialAge/BNav_EC2/DepthDuration/v2_depth_duration_MTurk/v2_DepthDuration_HTML.html#413,413,1366,657,1366,768,9-31-2022,11-38-50,9,depth_duration_stimuli/000917_2014-06-09_22-45-29_260595134347_rgbf000149-resize_3/000917_2014-06-09_22-45-29_260595134347_rgbf000149-resize_3-target.png,125,4.1865,6,2633,125,feet,jsons/VE125_randls_76.json,478935,911649,40,Man
9,591908,DepthScenes,duration_manipulation_targetAtFixation,jsons/VE125_randls_76.json,http://54.235.29.9/FacialAge/BNav_EC2/DepthDuration/v2_depth_duration_MTurk/v2_DepthDuration_HTML.html#413,413,1366,657,1366,768,9-31-2022,11-38-50,10,depth_duration_stimuli/002323_2014-06-28_20-01-54_260595134347_rgbf000051-resize_4/002323_2014-06-28_20-01-54_260595134347_rgbf000051-resize_4-target.png,125,3.7310000000000003,5,1837,126,feet,jsons/VE125_randls_76.json,478935,911649,40,Man
10,591908,DepthScenes,duration_manipulation_targetAtFixation,jsons/VE125_randls_76.json,http://54.235.29.9/FacialAge/BNav_EC2/DepthDuration/v2_depth_duration_MTurk/v2_DepthDuration_HTML.html#413,413,1366,657,1366,768,9-31-2022,11-38-50,11,depth_duration_stimuli/000878_2014-06-08_22-52-45_260595134347_rgbf000045-resize_2/000878_2014-06-08_22-52-45_260595134347_rgbf000045-resize_2-target.png,125,2.092,4,2167,124,feet,jsons/VE125_randls_76.json,478935,911649,40,Man
11,591908,DepthScenes,duration_manipulation_targetAtFixation,jsons/VE125_randls_76.json,http://54.235.29.9/FacialAge/BNav_EC2/DepthDuration/v2_depth_duration_MTurk/v2_DepthDuration_HTML.html#413,413,1366,657,1366,768,9-31-2022,11-38-50,12,depth_duration_stimuli/002953_2014-06-08_17-32-18_094959634447_rgbf000059-resize_5/002953_2014-06-08_17-32-18_094959634447_rgbf000059-resize_5-target.png,125,1.551,4,2170,124,feet,jsons/VE125_randls_76.json,478935,911649,40,Man
12,591908,DepthScenes,duration_manipulation_targetAtFixation,jsons/VE125_randls_76.json,http://54.235.29.9/FacialAge/BNav_EC2/DepthDuration/v2_depth_duration_MTurk/v2_DepthDuration_HTML.html#413,413,1366,657,1366,768,9-31-2022,11-38-50,13,depth_duration_stimuli/000569_2014-06-09_22-51-47_260595134347_rgbf000141-resize_3/000569_2014-06-09_22-51-47_260595134347_rgbf000141-resize-original.jpg,125,4.512,0,2938,124,feet,jsons/VE125_randls_76.json,478935,911649,40,Man
13,591908,DepthScenes,duration_manipulation_targetAtFixation,jsons/VE125_randls_76.json,http://54.235.29.9/FacialAge/BNav_EC2/DepthDuration/v2_depth_duration_MTurk/v2_DepthDuration_HTML.html#413,413,1366,657,1366,768,9-31-2022,11-38-50,14,depth_duration_stimuli/001029_2014-06-08_13-17-57_260595134347_rgbf000065-resize_1/001029_2014-06-08_13-17-57_260595134347_rgbf000065-resize_1-target.png,125,3.0835,5,3402,124,feet,jsons/VE125_randls_76.json,478935,911649,40,Man
14,591908,DepthScenes,duration_manipulation_targetAtFixation,jsons/VE125_randls_76.json,http://54.235.29.9/FacialAge/BNav_EC2/DepthDuration/v2_depth_duration_MTurk/v2_DepthDuration_HTML.html#413,413,1366,657,1366,768,9-31-2022,11-38-50,15,depth_duration_stimuli/000677_2014-06-08_23-10-32_260595134347_rgbf000158-resize_6/000677_2014-06-08_23-10-32_260595134347_rgbf000158-resize_6-target.png,125,3.556,5,1851,124,feet,jsons/VE125_randls_76.json,478935,911649,40,Man
15,591908,DepthScenes,duration_manipulation_targetAtFixation,jsons/VE125_randls_76.json,http://54.235.29.9/FacialAge/BNav_EC2/DepthDuration/v2_depth_duration_MTurk/v2_DepthDuration_HTML.html#413,413,1366,657,1366,768,9-31-2022,11-38-50,16,depth_duration_stimuli/002043_2014-06-24_20-29-38_260595134347_rgbf000039-resize_4/002043_2014-06-24_20-29-38_260595134347_rgbf000039-resize_4-target.png,125,2.8435,4,1833,125,feet,jsons/VE125_randls_76.json,478935,911649,40,Man
16,591908,DepthScenes,duration_manipulation_targetAtFixation,jsons/VE125_randls_76.json,http://54.235.29.9/FacialAge/BNav_EC2/DepthDuration/v2_depth_duration_MTurk/v2_DepthDuration_HTML.html#413,413,1366,657,1366,768,9-31-2022,11-38-50,17,depth_duration_stimuli/003048_2014-06-15_13-49-43_094959634447_rgbf000150-resize_1/003048_2014-06-15_13-49-43_094959634447_rgbf000150-resize_1-target.png,125,4.0035,5,1869,124,feet,jsons/VE125_randls_76.json,478935,911649,40,Man
17,591908,DepthScenes,duration_manipulation_targetAtFixation,jsons/VE125_randls_76.json,http://54.235.29.9/FacialAge/BNav_EC2/DepthDuration/v2_depth_duration_MTurk/v2_DepthDuration_HTML.html#413,413,1366,657,1366,768,9-31-2022,11-38-50,18,depth_duration_stimuli/001066_2014-06-08_22-03-20_260595134347_rgbf000066-resize_4/001066_2014-06-08_22-03-20_260595134347_rgbf000066-resize_4-target.png,125,4.2330000000000005,8,2359,125,feet,jsons/VE125_randls_76.json,478935,911649,40,Man
18,591908,DepthScenes,duration_manipulation_targetAtFixation,jsons/VE125_randls_76.json,http://54.235.29.9/FacialAge/BNav_EC2/DepthDuration/v2_depth_duration_MTurk/v2_DepthDuration_HTML.html#413,413,1366,657,1366,768,9-31-2022,11-38-50,19,depth_duration_stimuli/000742_2014-06-08_18-48-09_260595134347_rgbf000164-resize_4/000742_2014-06-08_18-48-09_260595134347_rgbf000164-resize_4-target.png,125,4.632,7,1931,125,feet,jsons/VE125_randls_76.json,478935,911649,40,Man
19,591908,DepthScenes,duration_manipulation_targetAtFixation,jsons/VE125_randls_76.json,http://54.235.29.9/FacialAge/BNav_EC2/DepthDuration/v2_depth_duration_MTurk/v2_DepthDuration_HTML.html#413,413,1366,657,1366,768,9-31-2022,11-38-50,20,depth_duration_stimuli/000368_2014-06-09_15-53-01_260595134347_rgbf000155-resize_2/000368_2014-06-09_15-53-01_260595134347_rgbf000155-resize_2-target.png,125,2.4859999999999998,3,2073,124,feet,jsons/VE125_randls_76.json,478935,911649,40,Man
20,591908,DepthScenes,duration_manipulation_targetAtFixation,jsons/VE125_randls_76.json,http://54.235.29.9/FacialAge/BNav_EC2/DepthDuration/v2_depth_duration_MTurk/v2_DepthDuration_HTML.html#413,413,1366,657,1366,768,9-31-2022,11-38-50,21,depth_duration_stimuli/002678_2014-06-13_16-15-32_094959634447_rgbf000151-resize_6/002678_2014-06-13_16-15-32_094959634447_rgbf000151-resize_6-target.png,125,2.1830000000000003,5,1931,125,feet,jsons/VE125_randls_76.json,478935,911649,40,Man
21,591908,DepthScenes,duration_manipulation_targetAtFixation,jsons/VE125_randls_76.json,http://54.235.29.9/FacialAge/BNav_EC2/DepthDuration/v2_depth_duration_MTurk/v2_DepthDuration_HTML.html#413,413,1366,657,1366,768,9-31-2022,11-38-50,22,depth_duration_stimuli/002549_2014-06-24_13-41-39_094959634447_rgbf000022-resize_3/002549_2014-06-24_13-41-39_094959634447_rgbf000022-resize_3-target.png,125,1.476,4,1946,126,feet,jsons/VE125_randls_76.json,478935,911649,40,Man
22,591908,DepthScenes,duration_manipulation_targetAtFixation,jsons/VE125_randls_76.json,http://54.235.29.9/FacialAge/BNav_EC2/DepthDuration/v2_depth_duration_MTurk/v2_DepthDuration_HTML.html#413,413,1366,657,1366,768,9-31-2022,11-38-50,23,depth_duration_stimuli/002750_2014-06-22_19-08-03_094959634447_rgbf000094-resize_4/002750_2014-06-22_19-08-03_094959634447_rgbf000094-resize_4-target.png,125,2.354,6,4779,124,feet,jsons/VE125_randls_76.json,478935,911649,40,Man
23,591908,DepthScenes,duration_manipulation_targetAtFixation,jsons/VE125_randls_76.json,http://54.235.29.9/FacialAge/BNav_EC2/DepthDuration/v2_depth_duration_MTurk/v2_DepthDuration_HTML.html#413,413,1366,657,1366,768,9-31-2022,11-38-50,24,depth_duration_stimuli/003070_2014-06-15_14-58-27_094959634447_rgbf000150-resize_3/003070_2014-06-15_14-58-27_094959634447_rgbf000150-resize_3-target.png,125,2.9415,3,2764,125,feet,jsons/VE125_randls_76.json,478935,911649,40,Man
24,591908,DepthScenes,duration_manipulation_targetAtFixation,jsons/VE125_randls_76.json,http://54.235.29.9/FacialAge/BNav_EC2/DepthDuration/v2_depth_duration_MTurk/v2_DepthDuration_HTML.html#413,413,1366,657,1366,768,9-31-2022,11-38-50,25,depth_duration_stimuli/000943_2014-06-09_19-31-07_260595134347_rgbf000128-resize_1/000943_2014-06-09_19-31-07_260595134347_rgbf000128-resize_1-target.png,125,1.9765,4,2604,124,feet,jsons/VE125_randls_76.json,478935,911649,40,Man
25,591908,DepthScenes,duration_manipulation_targetAtFixation,jsons/VE125_randls_76.json,http://54.235.29.9/FacialAge/BNav_EC2/DepthDuration/v2_depth_duration_MTurk/v2_DepthDuration_HTML.html#413,413,1366,657,1366,768,9-31-2022,11-38-50,26,depth_duration_stimuli/000929_2014-06-09_16-33-19_260595134347_rgbf000139-resize_0/000929_2014-06-09_16-33-19_260595134347_rgbf000139-resize_0-target.png,125,2.8680000000000003,2,2136,124,feet,jsons/VE125_randls_76.json,478935,911649,40,Man
26,591908,DepthScenes,duration_manipulation_targetAtFixation,jsons/VE125_randls_76.json,http://54.235.29.9/FacialAge/BNav_EC2/DepthDuration/v2_depth_duration_MTurk/v2_DepthDuration_HTML.html#413,413,1366,657,1366,768,9-31-2022,11-38-50,27,depth_duration_stimuli/000457_2014-06-08_16-52-43_260595134347_rgbf000199-resize_1/000457_2014-06-08_16-52-43_260595134347_rgbf000199-resize_1-target.png,125,3.6489999999999996,5,1770,126,feet,jsons/VE125_randls_76.json,478935,911649,40,Man
27,591908,DepthScenes,duration_manipulation_targetAtFixation,jsons/VE125_randls_76.json,http://54.235.29.9/FacialAge/BNav_EC2/DepthDuration/v2_depth_duration_MTurk/v2_DepthDuration_HTML.html#413,413,1366,657,1366,768,9-31-2022,11-38-50,28,depth_duration_stimuli/002600_2014-06-24_14-27-04_094959634447_rgbf000074-resize_2/002600_2014-06-24_14-27-04_094959634447_rgbf000074-resize_2-target.png,125,2.7575,3,1753,125,feet,jsons/VE125_randls_76.json,478935,911649,40,Man
28,591908,DepthScenes,duration_manipulation_targetAtFixation,jsons/VE125_randls_76.json,http://54.235.29.9/FacialAge/BNav_EC2/DepthDuration/v2_depth_duration_MTurk/v2_DepthDuration_HTML.html#413,413,1366,657,1366,768,9-31-2022,11-38-50,29,depth_duration_stimuli/003228_2014-05-14_13-42-35_094959634447_rgbf000101-resize_1/003228_2014-05-14_13-42-35_094959634447_rgbf000101-resize_1-target.png,125,1.9680000000000002,3,5372,124,feet,jsons/VE125_randls_76.json,478935,911649,40,Man
29,591908,DepthScenes,duration_manipulation_targetAtFixation,jsons/VE125_randls_76.json,http://54.235.29.9/FacialAge/BNav_EC2/DepthDuration/v2_depth_duration_MTurk/v2_DepthDuration_HTML.html#413,413,1366,657,1366,768,9-31-2022,11-38-50,30,depth_duration_stimuli/000375_2014-06-08_11-17-29_260595134347_rgbf000133-resize_2/000375_2014-06-08_11-17-29_260595134347_rgbf000133-resize-original.jpg,125,4.718,0,3228,124,feet,jsons/VE125_randls_76.json,478935,911649,40,Man
30,591908,DepthScenes,duration_manipulation_targetAtFixation,jsons/VE125_randls_76.json,http://54.235.29.9/FacialAge/BNav_EC2/DepthDuration/v2_depth_duration_MTurk/v2_DepthDuration_HTML.html#413,413,1366,657,1366,768,9-31-2022,11-38-50,31,depth_duration_stimuli/001199_2014-06-17_16-03-48_260595134347_rgbf000077-resize_0/001199_2014-06-17_16-03-48_260595134347_rgbf000077-resize_0-target.png,125,3.4375,6,2794,124,feet,jsons/VE125_randls_76.json,478935,911649,40,Man
31,591908,DepthScenes,duration_manipulation_targetAtFixation,jsons/VE125_randls_76.json,http://54.235.29.9/FacialAge/BNav_EC2/DepthDuration/v2_depth_duration_MTurk/v2_DepthDuration_HTML.html#413,413,1366,657,1366,768,9-31-2022,11-38-50,32,depth_duration_stimuli/000502_2014-06-08_23-02-32_260595134347_rgbf000063-resize_4/000502_2014-06-08_23-02-32_260595134347_rgbf000063-resize_4-target.png,125,2.431,4,1992,124,feet,jsons/VE125_randls_76.json,478935,911649,40,Man
32,591908,DepthScenes,duration_manipulation_targetAtFixation,jsons/VE125_randls_76.json,http://54.235.29.9/FacialAge/BNav_EC2/DepthDuration/v2_depth_duration_MTurk/v2_DepthDuration_HTML.html#413,413,1366,657,1366,768,9-31-2022,11-38-50,33,depth_duration_stimuli/000486_2014-06-09_20-47-20_260595134347_rgbf000143-resize_2/000486_2014-06-09_20-47-20_260595134347_rgbf000143-resize_2-target.png,125,4.8325,4,1771,124,feet,jsons/VE125_randls_76.json,478935,911649,40,Man
33,591908,DepthScenes,duration_manipulation_targetAtFixation,jsons/VE125_randls_76.json,http://54.235.29.9/FacialAge/BNav_EC2/DepthDuration/v2_depth_duration_MTurk/v2_DepthDuration_HTML.html#413,413,1366,657,1366,768,9-31-2022,11-38-50,34,depth_duration_stimuli/003083_2014-06-15_15-21-03_094959634447_rgbf000063-resize_1/003083_2014-06-15_15-21-03_094959634447_rgbf000063-resize_1-target.png,125,4.1405,8,1925,125,feet,jsons/VE125_randls_76.json,478935,911649,40,Man
34,591908,DepthScenes,duration_manipulation_targetAtFixation,jsons/VE125_randls_76.json,http://54.235.29.9/FacialAge/BNav_EC2/DepthDuration/v2_depth_duration_MTurk/v2_DepthDuration_HTML.html#413,413,1366,657,1366,768,9-31-2022,11-38-50,35,depth_duration_stimuli/001167_2014-06-17_15-38-07_260595134347_rgbf000108-resize_0/001167_2014-06-17_15-38-07_260595134347_rgbf000108-resize_0-target.png,125,1.8505,3,2176,125,feet,jsons/VE125_randls_76.json,478935,911649,40,Man
35,591908,DepthScenes,duration_manipulation_targetAtFixation,jsons/VE125_randls_76.json,http://54.235.29.9/FacialAge/BNav_EC2/DepthDuration/v2_depth_duration_MTurk/v2_DepthDuration_HTML.html#413,413,1366,657,1366,768,9-31-2022,11-38-50,36,depth_duration_stimuli/003587_2014-05-23_16-48-02_094959634447_rgbf002384-resize_2/003587_2014-05-23_16-48-02_094959634447_rgbf002384-resize_2-target.png,125,1.357,3,2794,124,feet,jsons/VE125_randls_76.json,478935,911649,40,Man
36,591908,DepthScenes,duration_manipulation_targetAtFixation,jsons/VE125_randls_76.json,http://54.235.29.9/FacialAge/BNav_EC2/DepthDuration/v2_depth_duration_MTurk/v2_DepthDuration_HTML.html#413,413,1366,657,1366,768,9-31-2022,11-38-50,37,depth_duration_stimuli/000773_2014-06-08_22-24-54_260595134347_rgbf000093-resize_1/000773_2014-06-08_22-24-54_260595134347_rgbf000093-resize_1-target.png,125,4.973,6,4714,125,feet,jsons/VE125_randls_76.json,478935,911649,40,Man
37,591908,DepthScenes,duration_manipulation_targetAtFixation,jsons/VE125_randls_76.json,http://54.235.29.9/FacialAge/BNav_EC2/DepthDuration/v2_depth_duration_MTurk/v2_DepthDuration_HTML.html#413,413,1366,657,1366,768,9-31-2022,11-38-50,38,depth_duration_stimuli/002414_2014-06-28_20-24-58_260595134347_rgbf000067-resize_4/002414_2014-06-28_20-24-58_260595134347_rgbf000067-resize_4-target.png,125,4.363,5,2090,124,feet,jsons/VE125_randls_76.json,478935,911649,40,Man
38,591908,DepthScenes,duration_manipulation_targetAtFixation,jsons/VE125_randls_76.json,http://54.235.29.9/FacialAge/BNav_EC2/DepthDuration/v2_depth_duration_MTurk/v2_DepthDuration_HTML.html#413,413,1366,657,1366,768,9-31-2022,11-38-50,39,depth_duration_stimuli/000447_2014-06-08_16-15-46_260595134347_rgbf000130-resize_1/000447_2014-06-08_16-15-46_260595134347_rgbf000130-resize_1-target.png,125,4.479,5,1834,125,feet,jsons/VE125_randls_76.json,478935,911649,40,Man
39,591908,DepthScenes,duration_manipulation_targetAtFixation,jsons/VE125_randls_76.json,http://54.235.29.9/FacialAge/BNav_EC2/DepthDuration/v2_depth_duration_MTurk/v2_DepthDuration_HTML.html#413,413,1366,657,1366,768,9-31-2022,11-38-50,40,depth_duration_stimuli/001447_2014-06-19_17-00-32_260595134347_rgbf000082-resize_5/001447_2014-06-19_17-00-32_260595134347_rgbf000082-resize_5-target.png,125,4.13775,4,2140,125,feet,jsons/VE125_randls_76.json,478935,911649,40,Man
40,591908,DepthScenes,duration_manipulation_targetAtFixation,jsons/VE125_randls_76.json,http://54.235.29.9/FacialAge/BNav_EC2/DepthDuration/v2_depth_duration_MTurk/v2_DepthDuration_HTML.html#413,413,1366,657,1366,768,9-31-2022,11-38-50,41,depth_duration_stimuli/002272_2014-06-28_18-53-56_260595134347_rgbf000067-resize_2/002272_2014-06-28_18-53-56_260595134347_rgbf000067-resize_2-target.png,125,1.138,3,2457,125,feet,jsons/VE125_randls_76.json,478935,911649,40,Man
41,591908,DepthScenes,duration_manipulation_targetAtFixation,jsons/VE125_randls_76.json,http://54.235.29.9/FacialAge/BNav_EC2/DepthDuration/v2_depth_duration_MTurk/v2_DepthDuration_HTML.html#413,413,1366,657,1366,768,9-31-2022,11-38-50,42,depth_duration_stimuli/001571_2014-06-20_17-21-32_260595134347_rgbf000089-resize_1/001571_2014-06-20_17-21-32_260595134347_rgbf000089-resize_1-target.png,125,1.86,3,2266,125,feet,jsons/VE125_randls_76.json,478935,911649,40,Man
42,591908,DepthScenes,duration_manipulation_targetAtFixation,jsons/VE125_randls_76.json,http://54.235.29.9/FacialAge/BNav_EC2/DepthDuration/v2_depth_duration_MTurk/v2_DepthDuration_HTML.html#413,413,1366,657,1366,768,9-31-2022,11-38-50,43,depth_duration_stimuli/001056_2014-06-08_18-46-44_260595134347_rgbf000068-resize_0/001056_2014-06-08_18-46-44_260595134347_rgbf000068-resize_0-target.png,125,2.6625,4,2330,125,feet,jsons/VE125_randls_76.json,478935,911649,40,Man
43,591908,DepthScenes,duration_manipulation_targetAtFixation,jsons/VE125_randls_76.json,http://54.235.29.9/FacialAge/BNav_EC2/DepthDuration/v2_depth_duration_MTurk/v2_DepthDuration_HTML.html#413,413,1366,657,1366,768,9-31-2022,11-38-50,44,depth_duration_stimuli/002199_2014-06-28_18-33-56_260595134347_rgbf000074-resize_0/002199_2014-06-28_18-33-56_260595134347_rgbf000074-resize_0-target.png,125,1.996,2,4665,125,feet,jsons/VE125_randls_76.json,478935,911649,40,Man
44,591908,DepthScenes,duration_manipulation_targetAtFixation,jsons/VE125_randls_76.json,http://54.235.29.9/FacialAge/BNav_EC2/DepthDuration/v2_depth_duration_MTurk/v2_DepthDuration_HTML.html#413,413,1366,657,1366,768,9-31-2022,11-38-50,45,depth_duration_stimuli/000787_2014-06-08_22-33-53_260595134347_rgbf000175-resize_1/000787_2014-06-08_22-33-53_260595134347_rgbf000175-resize-original.jpg,125,4.784,0,2458,124,feet,jsons/VE125_randls_76.json,478935,911649,40,Man
45,591908,DepthScenes,duration_manipulation_targetAtFixation,jsons/VE125_randls_76.json,http://54.235.29.9/FacialAge/BNav_EC2/DepthDuration/v2_depth_duration_MTurk/v2_DepthDuration_HTML.html#413,413,1366,657,1366,768,9-31-2022,11-38-50,46,depth_duration_stimuli/000642_2014-06-08_16-59-25_260595134347_rgbf000098-resize_2/000642_2014-06-08_16-59-25_260595134347_rgbf000098-resize_2-target.png,125,2.8815,4,2266,124,feet,jsons/VE125_randls_76.json,478935,911649,40,Man
46,591908,DepthScenes,duration_manipulation_targetAtFixation,jsons/VE125_randls_76.json,http://54.235.29.9/FacialAge/BNav_EC2/DepthDuration/v2_depth_duration_MTurk/v2_DepthDuration_HTML.html#413,413,1366,657,1366,768,9-31-2022,11-38-50,47,depth_duration_stimuli/002425_2014-06-28_20-27-29_260595134347_rgbf000031-resize_8/002425_2014-06-28_20-27-29_260595134347_rgbf000031-resize_8-target.png,125,3.8960000000000004,5,1899,124,feet,jsons/VE125_randls_76.json,478935,911649,40,Man
47,591908,DepthScenes,duration_manipulation_targetAtFixation,jsons/VE125_randls_76.json,http://54.235.29.9/FacialAge/BNav_EC2/DepthDuration/v2_depth_duration_MTurk/v2_DepthDuration_HTML.html#413,413,1366,657,1366,768,9-31-2022,11-38-50,48,depth_duration_stimuli/000682_2014-06-08_23-14-58_260595134347_rgbf000041-resize_5/000682_2014-06-08_23-14-58_260595134347_rgbf000041-resize_5-target.png,125,2.7239999999999998,3,2089,125,feet,jsons/VE125_randls_76.json,478935,911649,40,Man
48,591908,DepthScenes,duration_manipulation_targetAtFixation,jsons/VE125_randls_76.json,http://54.235.29.9/FacialAge/BNav_EC2/DepthDuration/v2_depth_duration_MTurk/v2_DepthDuration_HTML.html#413,413,1366,657,1366,768,9-31-2022,11-38-50,49,depth_duration_stimuli/001650_2014-06-20_12-09-00_260595134347_rgbf000087-resize_3/001650_2014-06-20_12-09-00_260595134347_rgbf000087-resize_3-target.png,125,1.9505,2,1962,125,feet,jsons/VE125_randls_76.json,478935,911649,40,Man
49,591908,DepthScenes,duration_manipulation_targetAtFixation,jsons/VE125_randls_76.json,http://54.235.29.9/FacialAge/BNav_EC2/DepthDuration/v2_depth_duration_MTurk/v2_DepthDuration_HTML.html#413,413,1366,657,1366,768,9-31-2022,11-38-50,50,depth_duration_stimuli/002763_2014-06-22_19-13-10_094959634447_rgbf000075-resize_4/002763_2014-06-22_19-13-10_094959634447_rgbf000075-resize_4-target.png,125,1.68375,3,1868,125,feet,jsons/VE125_randls_76.json,478935,911649,40,Man
50,591908,DepthScenes,duration_manipulation_targetAtFixation,jsons/VE125_randls_76.json,http://54.235.29.9/FacialAge/BNav_EC2/DepthDuration/v2_depth_duration_MTurk/v2_DepthDuration_HTML.html#413,413,1366,657,1366,768,9-31-2022,11-38-50,51,depth_duration_stimuli/002209_2014-06-28_18-36-10_260595134347_rgbf000051-resize_1/002209_2014-06-28_18-36-10_260595134347_rgbf000051-resize_1-target.png,125,2.057,4,1850,125,feet,jsons/VE125_randls_76.json,478935,911649,40,Man
51,591908,DepthScenes,duration_manipulation_targetAtFixation,jsons/VE125_randls_76.json,http://54.235.29.9/FacialAge/BNav_EC2/DepthDuration/v2_depth_duration_MTurk/v2_DepthDuration_HTML.html#413,413,1366,657,1366,768,9-31-2022,11-38-50,52,depth_duration_stimuli/000470_2014-06-09_19-42-40_260595134347_rgbf000094-resize_1/000470_2014-06-09_19-42-40_260595134347_rgbf000094-resize_1-target.png,125,1.831,3,1819,125,feet,jsons/VE125_randls_76.json,478935,911649,40,Man
52,591908,DepthScenes,duration_manipulation_targetAtFixation,jsons/VE125_randls_76.json,http://54.235.29.9/FacialAge/BNav_EC2/DepthDuration/v2_depth_duration_MTurk/v2_DepthDuration_HTML.html#413,413,1366,657,1366,768,9-31-2022,11-38-50,53,depth_duration_stimuli/000109_2014-05-14_23-41-52_260595134347_rgbf000035-resize_9/000109_2014-05-14_23-41-52_260595134347_rgbf000035-resize_9-target.png,125,1.3545,3,1881,124,feet,jsons/VE125_randls_76.json,478935,911649,40,Man
53,591908,DepthScenes,duration_manipulation_targetAtFixation,jsons/VE125_randls_76.json,http://54.235.29.9/FacialAge/BNav_EC2/DepthDuration/v2_depth_duration_MTurk/v2_DepthDuration_HTML.html#413,413,1366,657,1366,768,9-31-2022,11-38-50,54,depth_duration_stimuli/002988_2014-06-15_12-24-20_094959634447_rgbf000150-resize_1/002988_2014-06-15_12-24-20_094959634447_rgbf000150-resize_1-target.png,125,4.7669999999999995,8,2222,125,feet,jsons/VE125_randls_76.json,478935,911649,40,Man
54,591908,DepthScenes,duration_manipulation_targetAtFixation,jsons/VE125_randls_76.json,http://54.235.29.9/FacialAge/BNav_EC2/DepthDuration/v2_depth_duration_MTurk/v2_DepthDuration_HTML.html#413,413,1366,657,1366,768,9-31-2022,11-38-50,55,depth_duration_stimuli/001052_2014-06-08_18-24-54_260595134347_rgbf000130-resize_1/001052_2014-06-08_18-24-54_260595134347_rgbf000130-resize_1-target.png,125,4.1045,7,1816,124,feet,jsons/VE125_randls_76.json,478935,911649,40,Man
55,591908,DepthScenes,duration_manipulation_targetAtFixation,jsons/VE125_randls_76.json,http://54.235.29.9/FacialAge/BNav_EC2/DepthDuration/v2_depth_duration_MTurk/v2_DepthDuration_HTML.html#413,413,1366,657,1366,768,9-31-2022,11-38-50,56,depth_duration_stimuli/000522_2014-06-08_13-35-06_260595134347_rgbf000244-resize_1/000522_2014-06-08_13-35-06_260595134347_rgbf000244-resize_1-target.png,125,2.3715,4,2059,125,feet,jsons/VE125_randls_76.json,478935,911649,40,Man
56,591908,DepthScenes,duration_manipulation_targetAtFixation,jsons/VE125_randls_76.json,http://54.235.29.9/FacialAge/BNav_EC2/DepthDuration/v2_depth_duration_MTurk/v2_DepthDuration_HTML.html#413,413,1366,657,1366,768,9-31-2022,11-38-50,57,depth_duration_stimuli/002949_2014-06-26_15-57-42_094959634447_rgbf000079-resize_1/002949_2014-06-26_15-57-42_094959634447_rgbf000079-resize_1-target.png,125,1.8915,3,2138,125,feet,jsons/VE125_randls_76.json,478935,911649,40,Man
57,591908,DepthScenes,duration_manipulation_targetAtFixation,jsons/VE125_randls_76.json,http://54.235.29.9/FacialAge/BNav_EC2/DepthDuration/v2_depth_duration_MTurk/v2_DepthDuration_HTML.html#413,413,1366,657,1366,768,9-31-2022,11-38-50,58,depth_duration_stimuli/002509_2014-06-24_13-19-22_094959634447_rgbf000077-resize_0/002509_2014-06-24_13-19-22_094959634447_rgbf000077-resize_0-target.png,125,1.3065,4,2026,125,feet,jsons/VE125_randls_76.json,478935,911649,40,Man
58,591908,DepthScenes,duration_manipulation_targetAtFixation,jsons/VE125_randls_76.json,http://54.235.29.9/FacialAge/BNav_EC2/DepthDuration/v2_depth_duration_MTurk/v2_DepthDuration_HTML.html#413,413,1366,657,1366,768,9-31-2022,11-38-50,59,depth_duration_stimuli/003338_2014-05-20_11-01-23_094959634447_rgbf000051-resize_6/003338_2014-05-20_11-01-23_094959634447_rgbf000051-resize_6-target.png,125,1.693,3,1915,124,feet,jsons/VE125_randls_76.json,478935,911649,40,Man
59,591908,DepthScenes,duration_manipulation_targetAtFixation,jsons/VE125_randls_76.json,http://54.235.29.9/FacialAge/BNav_EC2/DepthDuration/v2_depth_duration_MTurk/v2_DepthDuration_HTML.html#413,413,1366,657,1366,768,9-31-2022,11-38-50,60,depth_duration_stimuli/000436_2014-06-09_22-25-11_260595134347_rgbf000137-resize_1/000436_2014-06-09_22-25-11_260595134347_rgbf000137-resize_1-target.png,125,4.0705,7,2010,125,feet,jsons/VE125_randls_76.json,478935,911649,40,Man
60,591908,DepthScenes,duration_manipulation_targetAtFixation,jsons/VE125_randls_76.json,http://54.235.29.9/FacialAge/BNav_EC2/DepthDuration/v2_depth_duration_MTurk/v2_DepthDuration_HTML.html#413,413,1366,657,1366,768,9-31-2022,11-38-50,61,depth_duration_stimuli/002444_2014-06-28_20-32-08_260595134347_rgbf000027-resize_0/002444_2014-06-28_20-32-08_260595134347_rgbf000027-resize_0-target.png,125,4.388999999999999,8,2395,124,feet,jsons/VE125_randls_76.json,478935,911649,40,Man
61,591908,DepthScenes,duration_manipulation_targetAtFixation,jsons/VE125_randls_76.json,http://54.235.29.9/FacialAge/BNav_EC2/DepthDuration/v2_depth_duration_MTurk/v2_DepthDuration_HTML.html#413,413,1366,657,1366,768,9-31-2022,11-38-50,62,depth_duration_stimuli/003621_2014-05-23_18-06-08_094959634447_rgbf000101-resize_1/003621_2014-05-23_18-06-08_094959634447_rgbf000101-resize_1-target.png,125,3.9835,5,2378,124,feet,jsons/VE125_randls_76.json,478935,911649,40,Man
62,591908,DepthScenes,duration_manipulation_targetAtFixation,jsons/VE125_randls_76.json,http://54.235.29.9/FacialAge/BNav_EC2/DepthDuration/v2_depth_duration_MTurk/v2_DepthDuration_HTML.html#413,413,1366,657,1366,768,9-31-2022,11-38-50,63,depth_duration_stimuli/001584_2014-06-20_11-07-43_260595134347_rgbf000002-resize_1/001584_2014-06-20_11-07-43_260595134347_rgbf000002-resize_1-target.png,125,3.53,63,2154,124,feet,jsons/VE125_randls_76.json,478935,911649,40,Man
63,591908,DepthScenes,duration_manipulation_targetAtFixation,jsons/VE125_randls_76.json,http://54.235.29.9/FacialAge/BNav_EC2/DepthDuration/v2_depth_duration_MTurk/v2_DepthDuration_HTML.html#413,413,1366,657,1366,768,9-31-2022,11-38-50,64,depth_duration_stimuli/001055_2014-06-08_18-45-35_260595134347_rgbf000111-resize_4/001055_2014-06-08_18-45-35_260595134347_rgbf000111-resize_4-target.png,125,2.4290000000000003,4,2954,124,feet,jsons/VE125_randls_76.json,478935,911649,40,Man
64,591908,DepthScenes,duration_manipulation_targetAtFixation,jsons/VE125_randls_76.json,http://54.235.29.9/FacialAge/BNav_EC2/DepthDuration/v2_depth_duration_MTurk/v2_DepthDuration_HTML.html#413,413,1366,657,1366,768,9-31-2022,11-38-50,65,depth_duration_stimuli/000549_2014-06-08_22-10-24_260595134347_rgbf000247-resize_3/000549_2014-06-08_22-10-24_260595134347_rgbf000247-resize_3-target.png,125,1.841,3,3691,124,feet,jsons/VE125_randls_76.json,478935,911649,40,Man
65,591908,DepthScenes,duration_manipulation_targetAtFixation,jsons/VE125_randls_76.json,http://54.235.29.9/FacialAge/BNav_EC2/DepthDuration/v2_depth_duration_MTurk/v2_DepthDuration_HTML.html#413,413,1366,657,1366,768,9-31-2022,11-38-50,66,depth_duration_stimuli/001222_2014-06-17_16-24-06_260595134347_rgbf000073-resize_0/001222_2014-06-17_16-24-06_260595134347_rgbf000073-resize-original.jpg,125,1.4385,0,2233,125,feet,jsons/VE125_randls_76.json,478935,911649,40,Man
66,591908,DepthScenes,duration_manipulation_targetAtFixation,jsons/VE125_randls_76.json,http://54.235.29.9/FacialAge/BNav_EC2/DepthDuration/v2_depth_duration_MTurk/v2_DepthDuration_HTML.html#413,413,1366,657,1366,768,9-31-2022,11-38-50,67,depth_duration_stimuli/000810_2014-06-08_17-20-01_260595134347_rgbf000105-resize_0/000810_2014-06-08_17-20-01_260595134347_rgbf000105-resize_0-target.png,125,1.4865,3,2507,124,feet,jsons/VE125_randls_76.json,478935,911649,40,Man
67,591908,DepthScenes,duration_manipulation_targetAtFixation,jsons/VE125_randls_76.json,http://54.235.29.9/FacialAge/BNav_EC2/DepthDuration/v2_depth_duration_MTurk/v2_DepthDuration_HTML.html#413,413,1366,657,1366,768,9-31-2022,11-38-50,68,depth_duration_stimuli/001214_2014-06-17_16-13-55_260595134347_rgbf000111-resize_0/001214_2014-06-17_16-13-55_260595134347_rgbf000111-resize_0-target.png,125,2.6505,3,2025,125,feet,jsons/VE125_randls_76.json,478935,911649,40,Man
68,591908,DepthScenes,duration_manipulation_targetAtFixation,jsons/VE125_randls_76.json,http://54.235.29.9/FacialAge/BNav_EC2/DepthDuration/v2_depth_duration_MTurk/v2_DepthDuration_HTML.html#413,413,1366,657,1366,768,9-31-2022,11-38-50,69,depth_duration_stimuli/002039_2014-06-24_20-22-38_260595134347_rgbf000084-resize_1/002039_2014-06-24_20-22-38_260595134347_rgbf000084-resize_1-target.png,125,4.408,4,1882,124,feet,jsons/VE125_randls_76.json,478935,911649,40,Man
69,591908,DepthScenes,duration_manipulation_targetAtFixation,jsons/VE125_randls_76.json,http://54.235.29.9/FacialAge/BNav_EC2/DepthDuration/v2_depth_duration_MTurk/v2_DepthDuration_HTML.html#413,413,1366,657,1366,768,9-31-2022,11-38-50,70,depth_duration_stimuli/002103_2014-06-25_20-00-40_260595134347_rgbf000049-resize_0/002103_2014-06-25_20-00-40_260595134347_rgbf000049-resize_0-target.png,125,4.105,5,1994,126,feet,jsons/VE125_randls_76.json,478935,911649,40,Man
70,591908,DepthScenes,duration_manipulation_targetAtFixation,jsons/VE125_randls_76.json,http://54.235.29.9/FacialAge/BNav_EC2/DepthDuration/v2_depth_duration_MTurk/v2_DepthDuration_HTML.html#413,413,1366,657,1366,768,9-31-2022,11-38-50,71,depth_duration_stimuli/002375_2014-06-28_20-13-44_260595134347_rgbf000032-resize_1/002375_2014-06-28_20-13-44_260595134347_rgbf000032-resize_1-target.png,125,4.0175,3,2171,125,feet,jsons/VE125_randls_76.json,478935,911649,40,Man
71,591908,DepthScenes,duration_manipulation_targetAtFixation,jsons/VE125_randls_76.json,http://54.235.29.9/FacialAge/BNav_EC2/DepthDuration/v2_depth_duration_MTurk/v2_DepthDuration_HTML.html#413,413,1366,657,1366,768,9-31-2022,11-38-50,72,depth_duration_stimuli/002657_2014-06-13_15-29-54_094959634447_rgbf000150-resize_1/002657_2014-06-13_15-29-54_094959634447_rgbf000150-resize_1-target.png,125,4.919,5,1961,124,feet,jsons/VE125_randls_76.json,478935,911649,40,Man
72,591908,DepthScenes,duration_manipulation_targetAtFixation,jsons/VE125_randls_76.json,http://54.235.29.9/FacialAge/BNav_EC2/DepthDuration/v2_depth_duration_MTurk/v2_DepthDuration_HTML.html#413,413,1366,657,1366,768,9-31-2022,11-38-50,73,depth_duration_stimuli/002663_2014-06-13_15-50-26_094959634447_rgbf000075-resize_1/002663_2014-06-13_15-50-26_094959634447_rgbf000075-resize_1-target.png,125,4.7495,7,1995,124,feet,jsons/VE125_randls_76.json,478935,911649,40,Man
73,591908,DepthScenes,duration_manipulation_targetAtFixation,jsons/VE125_randls_76.json,http://54.235.29.9/FacialAge/BNav_EC2/DepthDuration/v2_depth_duration_MTurk/v2_DepthDuration_HTML.html#413,413,1366,657,1366,768,9-31-2022,11-38-50,74,depth_duration_stimuli/000409_2014-06-04_19-23-33_260595134347_rgbf000067-resize_0/000409_2014-06-04_19-23-33_260595134347_rgbf000067-resize_0-target.png,125,3.7335,4,2585,124,feet,jsons/VE125_randls_76.json,478935,911649,40,Man
74,591908,DepthScenes,duration_manipulation_targetAtFixation,jsons/VE125_randls_76.json,http://54.235.29.9/FacialAge/BNav_EC2/DepthDuration/v2_depth_duration_MTurk/v2_DepthDuration_HTML.html#413,413,1366,657,1366,768,9-31-2022,11-38-50,75,depth_duration_stimuli/002153_2014-06-25_21-27-18_260595134347_rgbf000038-resize_5/002153_2014-06-25_21-27-18_260595134347_rgbf000038-resize_5-target.png,125,2.505,3,1882,124,feet,jsons/VE125_randls_76.json,478935,911649,40,Man
75,591908,DepthScenes,duration_manipulation_targetAtFixation,jsons/VE125_randls_76.json,http://54.235.29.9/FacialAge/BNav_EC2/DepthDuration/v2_depth_duration_MTurk/v2_DepthDuration_HTML.html#413,413,1366,657,1366,768,9-31-2022,11-38-50,76,depth_duration_stimuli/002660_2014-06-13_15-44-18_094959634447_rgbf001878-resize_2/002660_2014-06-13_15-44-18_094959634447_rgbf001878-resize_2-target.png,125,3.576,3,2106,125,feet,jsons/VE125_randls_76.json,478935,911649,40,Man
76,591908,DepthScenes,duration_manipulation_targetAtFixation,jsons/VE125_randls_76.json,http://54.235.29.9/FacialAge/BNav_EC2/DepthDuration/v2_depth_duration_MTurk/v2_DepthDuration_HTML.html#413,413,1366,657,1366,768,9-31-2022,11-38-50,77,depth_duration_stimuli/001016_2014-06-09_16-16-10_260595134347_rgbf000112-resize_5/001016_2014-06-09_16-16-10_260595134347_rgbf000112-resize_5-target.png,125,1.6565,5,1819,126,feet,jsons/VE125_randls_76.json,478935,911649,40,Man
77,591908,DepthScenes,duration_manipulation_targetAtFixation,jsons/VE125_randls_76.json,http://54.235.29.9/FacialAge/BNav_EC2/DepthDuration/v2_depth_duration_MTurk/v2_DepthDuration_HTML.html#413,413,1366,657,1366,768,9-31-2022,11-38-50,78,depth_duration_stimuli/002340_2014-06-28_20-05-46_260595134347_rgbf000113-resize_0/002340_2014-06-28_20-05-46_260595134347_rgbf000113-resize_0-target.png,125,2.4735,4,2026,125,feet,jsons/VE125_randls_76.json,478935,911649,40,Man
78,591908,DepthScenes,duration_manipulation_targetAtFixation,jsons/VE125_randls_76.json,http://54.235.29.9/FacialAge/BNav_EC2/DepthDuration/v2_depth_duration_MTurk/v2_DepthDuration_HTML.html#413,413,1366,657,1366,768,9-31-2022,11-38-50,79,depth_duration_stimuli/000009_2014-05-26_14-32-05_260595134347_rgbf000034-resize_3/000009_2014-05-26_14-32-05_260595134347_rgbf000034-resize_3-target.png,125,3.8715,5,2202,124,feet,jsons/VE125_randls_76.json,478935,911649,40,Man
79,591908,DepthScenes,duration_manipulation_targetAtFixation,jsons/VE125_randls_76.json,http://54.235.29.9/FacialAge/BNav_EC2/DepthDuration/v2_depth_duration_MTurk/v2_DepthDuration_HTML.html#413,413,1366,657,1366,768,9-31-2022,11-38-50,80,depth_duration_stimuli/001828_2014-06-26_21-40-03_260595134347_rgbf000024-resize_0/001828_2014-06-26_21-40-03_260595134347_rgbf000024-resize_0-target.png,125,4.8260000000000005,63,2058,124,feet,jsons/VE125_randls_76.json,478935,911649,40,Man
80,591908,DepthScenes,duration_manipulation_targetAtFixation,jsons/VE125_randls_76.json,http://54.235.29.9/FacialAge/BNav_EC2/DepthDuration/v2_depth_duration_MTurk/v2_DepthDuration_HTML.html#413,413,1366,657,1366,768,9-31-2022,11-38-50,81,depth_duration_stimuli/001570_2014-06-20_17-21-09_260595134347_rgbf000135-resize_4/001570_2014-06-20_17-21-09_260595134347_rgbf000135-resize_4-target.png,125,4.467,5,1929,125,feet,jsons/VE125_randls_76.json,478935,911649,40,Man
81,591908,DepthScenes,duration_manipulation_targetAtFixation,jsons/VE125_randls_76.json,http://54.235.29.9/FacialAge/BNav_EC2/DepthDuration/v2_depth_duration_MTurk/v2_DepthDuration_HTML.html#413,413,1366,657,1366,768,9-31-2022,11-38-50,82,depth_duration_stimuli/001392_2014-06-19_16-07-59_260595134347_rgbf000046-resize_1/001392_2014-06-19_16-07-59_260595134347_rgbf000046-resize_1-target.png,125,4.135,7,1930,124,feet,jsons/VE125_randls_76.json,478935,911649,40,Man
82,591908,DepthScenes,duration_manipulation_targetAtFixation,jsons/VE125_randls_76.json,http://54.235.29.9/FacialAge/BNav_EC2/DepthDuration/v2_depth_duration_MTurk/v2_DepthDuration_HTML.html#413,413,1366,657,1366,768,9-31-2022,11-38-50,83,depth_duration_stimuli/002118_2014-06-25_20-32-08_260595134347_rgbf000078-resize_1/002118_2014-06-25_20-32-08_260595134347_rgbf000078-resize_1-target.png,125,2.6460000000000004,3,2123,126,feet,jsons/VE125_randls_76.json,478935,911649,40,Man
83,591908,DepthScenes,duration_manipulation_targetAtFixation,jsons/VE125_randls_76.json,http://54.235.29.9/FacialAge/BNav_EC2/DepthDuration/v2_depth_duration_MTurk/v2_DepthDuration_HTML.html#413,413,1366,657,1366,768,9-31-2022,11-38-50,84,depth_duration_stimuli/001516_2014-06-20_16-25-09_260595134347_rgbf000076-resize_2/001516_2014-06-20_16-25-09_260595134347_rgbf000076-resize_2-target.png,125,1.7445,5,2028,124,feet,jsons/VE125_randls_76.json,478935,911649,40,Man
84,591908,DepthScenes,duration_manipulation_targetAtFixation,jsons/VE125_randls_76.json,http://54.235.29.9/FacialAge/BNav_EC2/DepthDuration/v2_depth_duration_MTurk/v2_DepthDuration_HTML.html#413,413,1366,657,1366,768,9-31-2022,11-38-50,85,depth_duration_stimuli/000692_2014-06-08_13-09-42_260595134347_rgbf000199-resize_2/000692_2014-06-08_13-09-42_260595134347_rgbf000199-resize_2-target.png,125,3.661,4,2617,125,feet,jsons/VE125_randls_76.json,478935,911649,40,Man
85,591908,DepthScenes,duration_manipulation_targetAtFixation,jsons/VE125_randls_76.json,http://54.235.29.9/FacialAge/BNav_EC2/DepthDuration/v2_depth_duration_MTurk/v2_DepthDuration_HTML.html#413,413,1366,657,1366,768,9-31-2022,11-38-50,86,depth_duration_stimuli/001094_2014-06-15_17-36-00_260595134347_rgbf000205-resize_0/001094_2014-06-15_17-36-00_260595134347_rgbf000205-resize_0-target.png,125,4.2175,5,1818,125,feet,jsons/VE125_randls_76.json,478935,911649,40,Man
86,591908,DepthScenes,duration_manipulation_targetAtFixation,jsons/VE125_randls_76.json,http://54.235.29.9/FacialAge/BNav_EC2/DepthDuration/v2_depth_duration_MTurk/v2_DepthDuration_HTML.html#413,413,1366,657,1366,768,9-31-2022,11-38-50,87,depth_duration_stimuli/001417_2014-06-19_16-25-36_260595134347_rgbf000115-resize_5/001417_2014-06-19_16-25-36_260595134347_rgbf000115-resize_5-target.png,125,4.6255,5,2106,125,feet,jsons/VE125_randls_76.json,478935,911649,40,Man
87,591908,DepthScenes,duration_manipulation_targetAtFixation,jsons/VE125_randls_76.json,http://54.235.29.9/FacialAge/BNav_EC2/DepthDuration/v2_depth_duration_MTurk/v2_DepthDuration_HTML.html#413,413,1366,657,1366,768,9-31-2022,11-38-50,88,depth_duration_stimuli/003081_2014-06-15_15-19-16_094959634447_rgbf000150-resize_1/003081_2014-06-15_15-19-16_094959634447_rgbf000150-resize_1-target.png,125,3.9125,5,1882,124,feet,jsons/VE125_randls_76.json,478935,911649,40,Man
88,591908,DepthScenes,duration_manipulation_targetAtFixation,jsons/VE125_randls_76.json,http://54.235.29.9/FacialAge/BNav_EC2/DepthDuration/v2_depth_duration_MTurk/v2_DepthDuration_HTML.html#413,413,1366,657,1366,768,9-31-2022,11-38-50,89,depth_duration_stimuli/000758_2014-06-08_22-05-08_260595134347_rgbf000085-resize_0/000758_2014-06-08_22-05-08_260595134347_rgbf000085-resize_0-target.png,125,3.3810000000000002,4,1804,125,feet,jsons/VE125_randls_76.json,478935,911649,40,Man
89,591908,DepthScenes,duration_manipulation_targetAtFixation,jsons/VE125_randls_76.json,http://54.235.29.9/FacialAge/BNav_EC2/DepthDuration/v2_depth_duration_MTurk/v2_DepthDuration_HTML.html#413,413,1366,657,1366,768,9-31-2022,11-38-50,90,depth_duration_stimuli/000854_2014-06-09_19-43-13_260595134347_rgbf000066-resize_0/000854_2014-06-09_19-43-13_260595134347_rgbf000066-resize_0-target.png,125,3.068,3,1977,124,feet,jsons/VE125_randls_76.json,478935,911649,40,Man
90,591908,DepthScenes,duration_manipulation_targetAtFixation,jsons/VE125_randls_76.json,http://54.235.29.9/FacialAge/BNav_EC2/DepthDuration/v2_depth_duration_MTurk/v2_DepthDuration_HTML.html#413,413,1366,657,1366,768,9-31-2022,11-38-50,91,depth_duration_stimuli/002964_2014-06-08_17-46-11_094959634447_rgbf000091-resize_4/002964_2014-06-08_17-46-11_094959634447_rgbf000091-resize_4-target.png,125,1.6909999999999998,3,1946,126,feet,jsons/VE125_randls_76.json,478935,911649,40,Man
91,591908,DepthScenes,duration_manipulation_targetAtFixation,jsons/VE125_randls_76.json,http://54.235.29.9/FacialAge/BNav_EC2/DepthDuration/v2_depth_duration_MTurk/v2_DepthDuration_HTML.html#413,413,1366,657,1366,768,9-31-2022,11-38-50,92,depth_duration_stimuli/002136_2014-06-25_21-18-03_260595134347_rgbf000109-resize_3/002136_2014-06-25_21-18-03_260595134347_rgbf000109-resize_3-target.png,125,1.9569999999999999,2,2410,125,feet,jsons/VE125_randls_76.json,478935,911649,40,Man
92,591908,DepthScenes,duration_manipulation_targetAtFixation,jsons/VE125_randls_76.json,http://54.235.29.9/FacialAge/BNav_EC2/DepthDuration/v2_depth_duration_MTurk/v2_DepthDuration_HTML.html#413,413,1366,657,1366,768,9-31-2022,11-38-50,93,depth_duration_stimuli/003534_2014-05-22_15-06-10_094959634447_rgbf000102-resize_4/003534_2014-05-22_15-06-10_094959634447_rgbf000102-resize_4-target.png,125,1.426,1,3466,124,feet,jsons/VE125_randls_76.json,478935,911649,40,Man
93,591908,DepthScenes,duration_manipulation_targetAtFixation,jsons/VE125_randls_76.json,http://54.235.29.9/FacialAge/BNav_EC2/DepthDuration/v2_depth_duration_MTurk/v2_DepthDuration_HTML.html#413,413,1366,657,1366,768,9-31-2022,11-38-50,94,depth_duration_stimuli/002637_2014-06-24_14-51-13_094959634447_rgbf000066-resize_4/002637_2014-06-24_14-51-13_094959634447_rgbf000066-resize_4-target.png,125,1.9955,4,2490,125,feet,jsons/VE125_randls_76.json,478935,911649,40,Man
94,591908,DepthScenes,duration_manipulation_targetAtFixation,jsons/VE125_randls_76.json,http://54.235.29.9/FacialAge/BNav_EC2/DepthDuration/v2_depth_duration_MTurk/v2_DepthDuration_HTML.html#413,413,1366,657,1366,768,9-31-2022,11-38-50,95,depth_duration_stimuli/001164_2014-06-17_15-35-46_260595134347_rgbf000085-resize_3/001164_2014-06-17_15-35-46_260595134347_rgbf000085-resize_3-target.png,125,2.354,5,2042,125,feet,jsons/VE125_randls_76.json,478935,911649,40,Man
95,591908,DepthScenes,duration_manipulation_targetAtFixation,jsons/VE125_randls_76.json,http://54.235.29.9/FacialAge/BNav_EC2/DepthDuration/v2_depth_duration_MTurk/v2_DepthDuration_HTML.html#413,413,1366,657,1366,768,9-31-2022,11-38-50,96,depth_duration_stimuli/001136_2014-06-17_15-19-41_260595134347_rgbf000076-resize_3/001136_2014-06-17_15-19-41_260595134347_rgbf000076-resize_3-target.png,125,1.8655,5,2558,125,feet,jsons/VE125_randls_76.json,478935,911649,40,Man
96,591908,DepthScenes,duration_manipulation_targetAtFixation,jsons/VE125_randls_76.json,http://54.235.29.9/FacialAge/BNav_EC2/DepthDuration/v2_depth_duration_MTurk/v2_DepthDuration_HTML.html#413,413,1366,657,1366,768,9-31-2022,11-38-50,97,depth_duration_stimuli/002057_2014-06-24_21-00-13_260595134347_rgbf000120-resize_1/002057_2014-06-24_21-00-13_260595134347_rgbf000120-resize_1-target.png,125,2.967,6,4040,125,feet,jsons/VE125_randls_76.json,478935,911649,40,Man
97,591908,DepthScenes,duration_manipulation_targetAtFixation,jsons/VE125_randls_76.json,http://54.235.29.9/FacialAge/BNav_EC2/DepthDuration/v2_depth_duration_MTurk/v2_DepthDuration_HTML.html#413,413,1366,657,1366,768,9-31-2022,11-38-50,98,depth_duration_stimuli/000709_2014-06-08_13-51-55_260595134347_rgbf000068-resize_3/000709_2014-06-08_13-51-55_260595134347_rgbf000068-resize_3-target.png,125,1.8030000000000002,0,3370,125,feet,jsons/VE125_randls_76.json,478935,911649,40,Man
98,591908,DepthScenes,duration_manipulation_targetAtFixation,jsons/VE125_randls_76.json,http://54.235.29.9/FacialAge/BNav_EC2/DepthDuration/v2_depth_duration_MTurk/v2_DepthDuration_HTML.html#413,413,1366,657,1366,768,9-31-2022,11-38-50,99,depth_duration_stimuli/001540_2014-06-20_17-01-05_260595134347_rgbf000086-resize_2/001540_2014-06-20_17-01-05_260595134347_rgbf000086-resize-original.jpg,125,1.459,0,1980,124,feet,jsons/VE125_randls_76.json,478935,911649,40,Man
99,591908,DepthScenes,duration_manipulation_targetAtFixation,jsons/VE125_randls_76.json,http://54.235.29.9/FacialAge/BNav_EC2/DepthDuration/v2_depth_duration_MTurk/v2_DepthDuration_HTML.html#413,413,1366,657,1366,768,9-31-2022,11-38-50,100,depth_duration_stimuli/001555_2014-06-20_17-12-10_260595134347_rgbf000065-resize_4/001555_2014-06-20_17-12-10_260595134347_rgbf000065-resize_4-target.png,125,1.633,3,2984,125,feet,jsons/VE125_randls_76.json,478935,911649,40,Man
100,591908,DepthScenes,duration_manipulation_targetAtFixation,jsons/VE125_randls_76.json,http://54.235.29.9/FacialAge/BNav_EC2/DepthDuration/v2_depth_duration_MTurk/v2_DepthDuration_HTML.html#413,413,1366,657,1366,768,9-31-2022,11-38-50,101,depth_duration_stimuli/000103_2014-05-14_22-01-17_260595134347_rgbf000152-resize_5/000103_2014-05-14_22-01-17_260595134347_rgbf000152-resize_5-target.png,125,1.993,7,2635,124,feet,jsons/VE125_randls_76.json,478935,911649,40,Man
101,591908,DepthScenes,duration_manipulation_targetAtFixation,jsons/VE125_randls_76.json,http://54.235.29.9/FacialAge/BNav_EC2/DepthDuration/v2_depth_duration_MTurk/v2_DepthDuration_HTML.html#413,413,1366,657,1366,768,9-31-2022,11-38-50,102,depth_duration_stimuli/003292_2014-05-14_21-53-49_094959634447_rgbf000100-resize_2/003292_2014-05-14_21-53-49_094959634447_rgbf000100-resize_2-target.png,125,3.4815,5,1964,125,feet,jsons/VE125_randls_76.json,478935,911649,40,Man
102,591908,DepthScenes,duration_manipulation_targetAtFixation,jsons/VE125_randls_76.json,http://54.235.29.9/FacialAge/BNav_EC2/DepthDuration/v2_depth_duration_MTurk/v2_DepthDuration_HTML.html#413,413,1366,657,1366,768,9-31-2022,11-38-50,103,depth_duration_stimuli/002639_2014-06-24_14-51-37_094959634447_rgbf000074-resize_4/002639_2014-06-24_14-51-37_094959634447_rgbf000074-resize_4-target.png,125,4.0375,5,2058,124,feet,jsons/VE125_randls_76.json,478935,911649,40,Man
103,591908,DepthScenes,duration_manipulation_targetAtFixation,jsons/VE125_randls_76.json,http://54.235.29.9/FacialAge/BNav_EC2/DepthDuration/v2_depth_duration_MTurk/v2_DepthDuration_HTML.html#413,413,1366,657,1366,768,9-31-2022,11-38-50,104,depth_duration_stimuli/001059_2014-06-08_21-53-27_260595134347_rgbf000061-resize_4/001059_2014-06-08_21-53-27_260595134347_rgbf000061-resize_4-target.png,125,2.4185,4,2154,124,feet,jsons/VE125_randls_76.json,478935,911649,40,Man
104,591908,DepthScenes,duration_manipulation_targetAtFixation,jsons/VE125_randls_76.json,http://54.235.29.9/FacialAge/BNav_EC2/DepthDuration/v2_depth_duration_MTurk/v2_DepthDuration_HTML.html#413,413,1366,657,1366,768,9-31-2022,11-38-50,105,depth_duration_stimuli/001032_2014-06-08_13-23-17_260595134347_rgbf000021-resize_3/001032_2014-06-08_13-23-17_260595134347_rgbf000021-resize_3-target.png,125,3.2725,3,2187,125,feet,jsons/VE125_randls_76.json,478935,911649,40,Man
105,591908,DepthScenes,duration_manipulation_targetAtFixation,jsons/VE125_randls_76.json,http://54.235.29.9/FacialAge/BNav_EC2/DepthDuration/v2_depth_duration_MTurk/v2_DepthDuration_HTML.html#413,413,1366,657,1366,768,9-31-2022,11-38-50,106,depth_duration_stimuli/000906_2014-06-08_13-35-43_260595134347_rgbf000155-resize_1/000906_2014-06-08_13-35-43_260595134347_rgbf000155-resize_1-target.png,125,2.8489999999999998,4,1961,124,feet,jsons/VE125_randls_76.json,478935,911649,40,Man
106,591908,DepthScenes,duration_manipulation_targetAtFixation,jsons/VE125_randls_76.json,http://54.235.29.9/FacialAge/BNav_EC2/DepthDuration/v2_depth_duration_MTurk/v2_DepthDuration_HTML.html#413,413,1366,657,1366,768,9-31-2022,11-38-50,107,depth_duration_stimuli/002805_2014-06-22_19-54-03_094959634447_rgbf000079-resize_1/002805_2014-06-22_19-54-03_094959634447_rgbf000079-resize_1-target.png,125,3.1439999999999997,4,1994,124,feet,jsons/VE125_randls_76.json,478935,911649,40,Man
107,591908,DepthScenes,duration_manipulation_targetAtFixation,jsons/VE125_randls_76.json,http://54.235.29.9/FacialAge/BNav_EC2/DepthDuration/v2_depth_duration_MTurk/v2_DepthDuration_HTML.html#413,413,1366,657,1366,768,9-31-2022,11-38-50,108,depth_duration_stimuli/002213_2014-06-28_18-37-58_260595134347_rgbf000055-resize_1/002213_2014-06-28_18-37-58_260595134347_rgbf000055-resize_1-target.png,125,3.62,6,2635,126,feet,jsons/VE125_randls_76.json,478935,911649,40,Man
108,591908,DepthScenes,duration_manipulation_targetAtFixation,jsons/VE125_randls_76.json,http://54.235.29.9/FacialAge/BNav_EC2/DepthDuration/v2_depth_duration_MTurk/v2_DepthDuration_HTML.html#413,413,1366,657,1366,768,9-31-2022,11-38-50,109,depth_duration_stimuli/000691_2014-06-08_13-08-50_260595134347_rgbf000132-resize_3/000691_2014-06-08_13-08-50_260595134347_rgbf000132-resize_3-target.png,125,4.1530000000000005,5,1978,126,feet,jsons/VE125_randls_76.json,478935,911649,40,Man
109,591908,DepthScenes,duration_manipulation_targetAtFixation,jsons/VE125_randls_76.json,http://54.235.29.9/FacialAge/BNav_EC2/DepthDuration/v2_depth_duration_MTurk/v2_DepthDuration_HTML.html#413,413,1366,657,1366,768,9-31-2022,11-38-50,110,depth_duration_stimuli/001011_2014-06-08_23-18-54_260595134347_rgbf000044-resize_4/001011_2014-06-08_23-18-54_260595134347_rgbf000044-resize_4-target.png,125,2.4730000000000003,5,2011,125,feet,jsons/VE125_randls_76.json,478935,911649,40,Man
110,591908,DepthScenes,duration_manipulation_targetAtFixation,jsons/VE125_randls_76.json,http://54.235.29.9/FacialAge/BNav_EC2/DepthDuration/v2_depth_duration_MTurk/v2_DepthDuration_HTML.html#413,413,1366,657,1366,768,9-31-2022,11-38-50,111,depth_duration_stimuli/002875_2014-06-01_15-19-00_094959634447_rgbf000151-resize_1/002875_2014-06-01_15-19-00_094959634447_rgbf000151-resize_1-target.png,125,1.9675,3,3850,124,feet,jsons/VE125_randls_76.json,478935,911649,40,Man
111,591908,DepthScenes,duration_manipulation_targetAtFixation,jsons/VE125_randls_76.json,http://54.235.29.9/FacialAge/BNav_EC2/DepthDuration/v2_depth_duration_MTurk/v2_DepthDuration_HTML.html#413,413,1366,657,1366,768,9-31-2022,11-38-50,112,depth_duration_stimuli/002630_2014-06-24_14-47-50_094959634447_rgbf000055-resize_1/002630_2014-06-24_14-47-50_094959634447_rgbf000055-resize_1-target.png,125,3.0095,4,1866,125,feet,jsons/VE125_randls_76.json,478935,911649,40,Man
112,591908,DepthScenes,duration_manipulation_targetAtFixation,jsons/VE125_randls_76.json,http://54.235.29.9/FacialAge/BNav_EC2/DepthDuration/v2_depth_duration_MTurk/v2_DepthDuration_HTML.html#413,413,1366,657,1366,768,9-31-2022,11-38-50,113,depth_duration_stimuli/002758_2014-06-22_19-11-20_094959634447_rgbf000128-resize_1/002758_2014-06-22_19-11-20_094959634447_rgbf000128-resize_1-target.png,125,2.555,3,2074,124,feet,jsons/VE125_randls_76.json,478935,911649,40,Man
113,591908,DepthScenes,duration_manipulation_targetAtFixation,jsons/VE125_randls_76.json,http://54.235.29.9/FacialAge/BNav_EC2/DepthDuration/v2_depth_duration_MTurk/v2_DepthDuration_HTML.html#413,413,1366,657,1366,768,9-31-2022,11-38-50,114,depth_duration_stimuli/001110_2014-06-15_17-25-28_260595134347_rgbf000150-resize_1/001110_2014-06-15_17-25-28_260595134347_rgbf000150-resize_1-target.png,125,1.7115,3,1945,125,feet,jsons/VE125_randls_76.json,478935,911649,40,Man
114,591908,DepthScenes,duration_manipulation_targetAtFixation,jsons/VE125_randls_76.json,http://54.235.29.9/FacialAge/BNav_EC2/DepthDuration/v2_depth_duration_MTurk/v2_DepthDuration_HTML.html#413,413,1366,657,1366,768,9-31-2022,11-38-50,115,depth_duration_stimuli/000927_2014-06-09_16-32-30_260595134347_rgbf000123-resize_3/000927_2014-06-09_16-32-30_260595134347_rgbf000123-resize_3-target.png,125,2.6785,5,2986,125,feet,jsons/VE125_randls_76.json,478935,911649,40,Man
115,591908,DepthScenes,duration_manipulation_targetAtFixation,jsons/VE125_randls_76.json,http://54.235.29.9/FacialAge/BNav_EC2/DepthDuration/v2_depth_duration_MTurk/v2_DepthDuration_HTML.html#413,413,1366,657,1366,768,9-31-2022,11-38-50,116,depth_duration_stimuli/001170_2014-06-17_15-43-44_260595134347_rgbf000096-resize_6/001170_2014-06-17_15-43-44_260595134347_rgbf000096-resize-original.jpg,125,1.1909999999999998,0,2123,125,feet,jsons/VE125_randls_76.json,478935,911649,40,Man
116,591908,DepthScenes,duration_manipulation_targetAtFixation,jsons/VE125_randls_76.json,http://54.235.29.9/FacialAge/BNav_EC2/DepthDuration/v2_depth_duration_MTurk/v2_DepthDuration_HTML.html#413,413,1366,657,1366,768,9-31-2022,11-38-50,117,depth_duration_stimuli/001806_2014-06-26_20-50-20_260595134347_rgbf000091-resize_1/001806_2014-06-26_20-50-20_260595134347_rgbf000091-resize_1-target.png,125,2.7305,3,2042,124,feet,jsons/VE125_randls_76.json,478935,911649,40,Man
117,591908,DepthScenes,duration_manipulation_targetAtFixation,jsons/VE125_randls_76.json,http://54.235.29.9/FacialAge/BNav_EC2/DepthDuration/v2_depth_duration_MTurk/v2_DepthDuration_HTML.html#413,413,1366,657,1366,768,9-31-2022,11-38-50,118,depth_duration_stimuli/001617_2014-06-20_11-35-32_260595134347_rgbf000066-resize_1/001617_2014-06-20_11-35-32_260595134347_rgbf000066-resize_1-target.png,125,3.7910000000000004,5,1819,125,feet,jsons/VE125_randls_76.json,478935,911649,40,Man
118,591908,DepthScenes,duration_manipulation_targetAtFixation,jsons/VE125_randls_76.json,http://54.235.29.9/FacialAge/BNav_EC2/DepthDuration/v2_depth_duration_MTurk/v2_DepthDuration_HTML.html#413,413,1366,657,1366,768,9-31-2022,11-38-50,119,depth_duration_stimuli/002445_2014-06-28_20-32-16_260595134347_rgbf000029-resize_4/002445_2014-06-28_20-32-16_260595134347_rgbf000029-resize_4-target.png,125,2.5315,3,1755,125,feet,jsons/VE125_randls_76.json,478935,911649,40,Man
119,591908,DepthScenes,duration_manipulation_targetAtFixation,jsons/VE125_randls_76.json,http://54.235.29.9/FacialAge/BNav_EC2/DepthDuration/v2_depth_duration_MTurk/v2_DepthDuration_HTML.html#413,413,1366,657,1366,768,9-31-2022,11-38-50,120,depth_duration_stimuli/000780_2014-06-08_22-28-29_260595134347_rgbf000126-resize_1/000780_2014-06-08_22-28-29_260595134347_rgbf000126-resize_1-target.png,125,3.3825,4,2154,124,feet,jsons/VE125_randls_76.json,478935,911649,40,Man
120,591908,DepthScenes,duration_manipulation_targetAtFixation,jsons/VE125_randls_76.json,http://54.235.29.9/FacialAge/BNav_EC2/DepthDuration/v2_depth_duration_MTurk/v2_DepthDuration_HTML.html#413,413,1366,657,1366,768,9-31-2022,11-38-50,121,depth_duration_stimuli/001808_2014-06-26_20-50-58_260595134347_rgbf000029-resize_1/001808_2014-06-26_20-50-58_260595134347_rgbf000029-resize_1-target.png,125,4.249,7,2234,124,feet,jsons/VE125_randls_76.json,478935,911649,40,Man
121,591908,DepthScenes,duration_manipulation_targetAtFixation,jsons/VE125_randls_76.json,http://54.235.29.9/FacialAge/BNav_EC2/DepthDuration/v2_depth_duration_MTurk/v2_DepthDuration_HTML.html#413,413,1366,657,1366,768,9-31-2022,11-38-50,122,depth_duration_stimuli/001815_2014-06-26_20-52-55_260595134347_rgbf000020-resize_0/001815_2014-06-26_20-52-55_260595134347_rgbf000020-resize_0-target.png,125,3.3865,5,1690,124,feet,jsons/VE125_randls_76.json,478935,911649,40,Man
122,591908,DepthScenes,duration_manipulation_targetAtFixation,jsons/VE125_randls_76.json,http://54.235.29.9/FacialAge/BNav_EC2/DepthDuration/v2_depth_duration_MTurk/v2_DepthDuration_HTML.html#413,413,1366,657,1366,768,9-31-2022,11-38-50,123,depth_duration_stimuli/001810_2014-06-26_20-51-35_260595134347_rgbf000040-resize_3/001810_2014-06-26_20-51-35_260595134347_rgbf000040-resize_3-target.png,125,2.2525,3,2314,124,feet,jsons/VE125_randls_76.json,478935,911649,40,Man
123,591908,DepthScenes,duration_manipulation_targetAtFixation,jsons/VE125_randls_76.json,http://54.235.29.9/FacialAge/BNav_EC2/DepthDuration/v2_depth_duration_MTurk/v2_DepthDuration_HTML.html#413,413,1366,657,1366,768,9-31-2022,11-38-50,124,depth_duration_stimuli/003010_2014-06-15_12-54-35_094959634447_rgbf000112-resize_0/003010_2014-06-15_12-54-35_094959634447_rgbf000112-resize_0-target.png,125,3.1185,7,2346,125,feet,jsons/VE125_randls_76.json,478935,911649,40,Man
124,591908,DepthScenes,duration_manipulation_targetAtFixation,jsons/VE125_randls_76.json,http://54.235.29.9/FacialAge/BNav_EC2/DepthDuration/v2_depth_duration_MTurk/v2_DepthDuration_HTML.html#413,413,1366,657,1366,768,9-31-2022,11-38-50,125,depth_duration_stimuli/001175_2014-06-17_15-45-55_260595134347_rgbf000129-resize_4/001175_2014-06-17_15-45-55_260595134347_rgbf000129-resize_4-target.png,125,4.255,5,2250,125,feet,jsons/VE125_randls_76.json,478935,911649,40,Man
125,591908,DepthScenes,duration_manipulation_targetAtFixation,jsons/VE125_randls_76.json,http://54.235.29.9/FacialAge/BNav_EC2/DepthDuration/v2_depth_duration_MTurk/v2_DepthDuration_HTML.html#413,413,1366,657,1366,768,9-31-2022,11-38-50,126,depth_duration_stimuli/003490_2014-05-21_15-50-11_094959634447_rgbf000101-resize_3/003490_2014-05-21_15-50-11_094959634447_rgbf000101-resize_3-target.png,125,3.6445,6,4709,125,feet,jsons/VE125_randls_76.json,478935,911649,40,Man
126,591908,DepthScenes,duration_manipulation_targetAtFixation,jsons/VE125_randls_76.json,http://54.235.29.9/FacialAge/BNav_EC2/DepthDuration/v2_depth_duration_MTurk/v2_DepthDuration_HTML.html#413,413,1366,657,1366,768,9-31-2022,11-38-50,127,depth_duration_stimuli/000493_2014-06-09_21-01-18_260595134347_rgbf000196-resize_3/000493_2014-06-09_21-01-18_260595134347_rgbf000196-resize_3-target.png,125,3.44,4,3727,123,feet,jsons/VE125_randls_76.json,478935,911649,40,Man
127,591908,DepthScenes,duration_manipulation_targetAtFixation,jsons/VE125_randls_76.json,http://54.235.29.9/FacialAge/BNav_EC2/DepthDuration/v2_depth_duration_MTurk/v2_DepthDuration_HTML.html#413,413,1366,657,1366,768,9-31-2022,11-38-50,128,depth_duration_stimuli/000191_2014-05-12_17-07-38_260595134347_rgbf000199-resize_0/000191_2014-05-12_17-07-38_260595134347_rgbf000199-resize_0-target.png,125,3.7995,7,2297,125,feet,jsons/VE125_randls_76.json,478935,911649,40,Man
128,591908,DepthScenes,duration_manipulation_targetAtFixation,jsons/VE125_randls_76.json,http://54.235.29.9/FacialAge/BNav_EC2/DepthDuration/v2_depth_duration_MTurk/v2_DepthDuration_HTML.html#413,413,1366,657,1366,768,9-31-2022,11-38-50,129,depth_duration_stimuli/002279_2014-06-28_18-55-32_260595134347_rgbf000040-resize_5/002279_2014-06-28_18-55-32_260595134347_rgbf000040-resize_5-target.png,125,1.5043333333333,3,1963,125,feet,jsons/VE125_randls_76.json,478935,911649,40,Man
129,591908,DepthScenes,duration_manipulation_targetAtFixation,jsons/VE125_randls_76.json,http://54.235.29.9/FacialAge/BNav_EC2/DepthDuration/v2_depth_duration_MTurk/v2_DepthDuration_HTML.html#413,413,1366,657,1366,768,9-31-2022,11-38-50,130,depth_duration_stimuli/000635_2014-06-08_16-38-42_260595134347_rgbf000106-resize_1/000635_2014-06-08_16-38-42_260595134347_rgbf000106-resize_1-target.png,125,2.074,4,1913,125,feet,jsons/VE125_randls_76.json,478935,911649,40,Man
130,591908,DepthScenes,duration_manipulation_targetAtFixation,jsons/VE125_randls_76.json,http://54.235.29.9/FacialAge/BNav_EC2/DepthDuration/v2_depth_duration_MTurk/v2_DepthDuration_HTML.html#413,413,1366,657,1366,768,9-31-2022,11-38-50,131,depth_duration_stimuli/001092_2014-06-15_17-34-58_260595134347_rgbf000171-resize_3/001092_2014-06-15_17-34-58_260595134347_rgbf000171-resize_3-target.png,125,2.6935,3,4268,126,feet,jsons/VE125_randls_76.json,478935,911649,40,Man
131,591908,DepthScenes,duration_manipulation_targetAtFixation,jsons/VE125_randls_76.json,http://54.235.29.9/FacialAge/BNav_EC2/DepthDuration/v2_depth_duration_MTurk/v2_DepthDuration_HTML.html#413,413,1366,657,1366,768,9-31-2022,11-38-50,132,depth_duration_stimuli/002545_2014-06-24_13-38-53_094959634447_rgbf000080-resize_4/002545_2014-06-24_13-38-53_094959634447_rgbf000080-resize_4-target.png,125,1.9205,3,3193,124,feet,jsons/VE125_randls_76.json,478935,911649,40,Man
132,591908,DepthScenes,duration_manipulation_targetAtFixation,jsons/VE125_randls_76.json,http://54.235.29.9/FacialAge/BNav_EC2/DepthDuration/v2_depth_duration_MTurk/v2_DepthDuration_HTML.html#413,413,1366,657,1366,768,9-31-2022,11-38-50,133,depth_duration_stimuli/000469_2014-06-09_19-42-10_260595134347_rgbf000081-resize_1/000469_2014-06-09_19-42-10_260595134347_rgbf000081-resize_1-target.png,125,1.652,3,4698,124,feet,jsons/VE125_randls_76.json,478935,911649,40,Man
133,591908,DepthScenes,duration_manipulation_targetAtFixation,jsons/VE125_randls_76.json,http://54.235.29.9/FacialAge/BNav_EC2/DepthDuration/v2_depth_duration_MTurk/v2_DepthDuration_HTML.html#413,413,1366,657,1366,768,9-31-2022,11-38-50,134,depth_duration_stimuli/000483_2014-06-09_20-41-45_260595134347_rgbf000116-resize_4/000483_2014-06-09_20-41-45_260595134347_rgbf000116-resize_4-target.png,125,1.337,2,2300,125,feet,jsons/VE125_randls_76.json,478935,911649,40,Man
134,591908,DepthScenes,duration_manipulation_targetAtFixation,jsons/VE125_randls_76.json,http://54.235.29.9/FacialAge/BNav_EC2/DepthDuration/v2_depth_duration_MTurk/v2_DepthDuration_HTML.html#413,413,1366,657,1366,768,9-31-2022,11-38-50,135,depth_duration_stimuli/002072_2014-06-24_21-48-06_260595134347_rgbf000115-resize_0/002072_2014-06-24_21-48-06_260595134347_rgbf000115-resize-original.jpg,125,4.702,0,2202,124,feet,jsons/VE125_randls_76.json,478935,911649,40,Man
135,591908,DepthScenes,duration_manipulation_targetAtFixation,jsons/VE125_randls_76.json,http://54.235.29.9/FacialAge/BNav_EC2/DepthDuration/v2_depth_duration_MTurk/v2_DepthDuration_HTML.html#413,413,1366,657,1366,768,9-31-2022,11-38-50,136,depth_duration_stimuli/001449_2014-06-19_17-01-27_260595134347_rgbf000116-resize_2/001449_2014-06-19_17-01-27_260595134347_rgbf000116-resize_2-target.png,125,3.452,3,2730,125,feet,jsons/VE125_randls_76.json,478935,911649,40,Man
136,591908,DepthScenes,duration_manipulation_targetAtFixation,jsons/VE125_randls_76.json,http://54.235.29.9/FacialAge/BNav_EC2/DepthDuration/v2_depth_duration_MTurk/v2_DepthDuration_HTML.html#413,413,1366,657,1366,768,9-31-2022,11-38-50,137,depth_duration_stimuli/001450_2014-06-19_17-02-03_260595134347_rgbf000203-resize_4/001450_2014-06-19_17-02-03_260595134347_rgbf000203-resize_4-target.png,125,4.0106666666667,2,3291,124,feet,jsons/VE125_randls_76.json,478935,911649,40,Man
137,591908,DepthScenes,duration_manipulation_targetAtFixation,jsons/VE125_randls_76.json,http://54.235.29.9/FacialAge/BNav_EC2/DepthDuration/v2_depth_duration_MTurk/v2_DepthDuration_HTML.html#413,413,1366,657,1366,768,9-31-2022,11-38-50,138,depth_duration_stimuli/000736_2014-06-08_18-24-15_260595134347_rgbf000206-resize_3/000736_2014-06-08_18-24-15_260595134347_rgbf000206-resize_3-target.png,125,3.515,3,2585,125,feet,jsons/VE125_randls_76.json,478935,911649,40,Man
138,591908,DepthScenes,duration_manipulation_targetAtFixation,jsons/VE125_randls_76.json,http://54.235.29.9/FacialAge/BNav_EC2/DepthDuration/v2_depth_duration_MTurk/v2_DepthDuration_HTML.html#413,413,1366,657,1366,768,9-31-2022,11-38-50,139,depth_duration_stimuli/000137_2014-05-20_17-04-49_260595134347_rgbf000120-resize_1/000137_2014-05-20_17-04-49_260595134347_rgbf000120-resize_1-target.png,125,3.786,4,3067,125,feet,jsons/VE125_randls_76.json,478935,911649,40,Man
139,591908,DepthScenes,duration_manipulation_targetAtFixation,jsons/VE125_randls_76.json,http://54.235.29.9/FacialAge/BNav_EC2/DepthDuration/v2_depth_duration_MTurk/v2_DepthDuration_HTML.html#413,413,1366,657,1366,768,9-31-2022,11-38-50,140,depth_duration_stimuli/000739_2014-06-08_18-45-58_260595134347_rgbf000068-resize_1/000739_2014-06-08_18-45-58_260595134347_rgbf000068-resize_1-target.png,125,3.534,5,3193,124,feet,jsons/VE125_randls_76.json,478935,911649,40,Man
140,591908,DepthScenes,duration_manipulation_targetAtFixation,jsons/VE125_randls_76.json,http://54.235.29.9/FacialAge/BNav_EC2/DepthDuration/v2_depth_duration_MTurk/v2_DepthDuration_HTML.html#413,413,1366,657,1366,768,9-31-2022,11-38-50,141,depth_duration_stimuli/000734_2014-06-08_17-39-11_260595134347_rgbf000128-resize_2/000734_2014-06-08_17-39-11_260595134347_rgbf000128-resize_2-target.png,125,4.098,5,2235,124,feet,jsons/VE125_randls_76.json,478935,911649,40,Man
141,591908,DepthScenes,duration_manipulation_targetAtFixation,jsons/VE125_randls_76.json,http://54.235.29.9/FacialAge/BNav_EC2/DepthDuration/v2_depth_duration_MTurk/v2_DepthDuration_HTML.html#413,413,1366,657,1366,768,9-31-2022,11-38-50,142,depth_duration_stimuli/001244_2014-06-17_16-47-45_260595134347_rgbf000030-resize_4/001244_2014-06-17_16-47-45_260595134347_rgbf000030-resize_4-target.png,125,2.0425,6,3019,125,feet,jsons/VE125_randls_76.json,478935,911649,40,Man
142,591908,DepthScenes,duration_manipulation_targetAtFixation,jsons/VE125_randls_76.json,http://54.235.29.9/FacialAge/BNav_EC2/DepthDuration/v2_depth_duration_MTurk/v2_DepthDuration_HTML.html#413,413,1366,657,1366,768,9-31-2022,11-38-50,143,depth_duration_stimuli/003495_2014-05-21_16-01-51_094959634447_rgbf000100-resize_3/003495_2014-05-21_16-01-51_094959634447_rgbf000100-resize_3-target.png,125,1.6255,3,3112,124,feet,jsons/VE125_randls_76.json,478935,911649,40,Man
143,591908,DepthScenes,duration_manipulation_targetAtFixation,jsons/VE125_randls_76.json,http://54.235.29.9/FacialAge/BNav_EC2/DepthDuration/v2_depth_duration_MTurk/v2_DepthDuration_HTML.html#413,413,1366,657,1366,768,9-31-2022,11-38-50,144,depth_duration_stimuli/001150_2014-06-17_15-27-34_260595134347_rgbf000108-resize_2/001150_2014-06-17_15-27-34_260595134347_rgbf000108-resize_2-target.png,125,4.0325,4,1930,124,feet,jsons/VE125_randls_76.json,478935,911649,40,Man
144,591908,DepthScenes,duration_manipulation_targetAtFixation,jsons/VE125_randls_76.json,http://54.235.29.9/FacialAge/BNav_EC2/DepthDuration/v2_depth_duration_MTurk/v2_DepthDuration_HTML.html#413,413,1366,657,1366,768,9-31-2022,11-38-50,145,depth_duration_stimuli/000665_2014-06-09_20-42-35_260595134347_rgbf000110-resize_1/000665_2014-06-09_20-42-35_260595134347_rgbf000110-resize_1-target.png,125,3.057,5,1899,124,feet,jsons/VE125_randls_76.json,478935,911649,40,Man
145,591908,DepthScenes,duration_manipulation_targetAtFixation,jsons/VE125_randls_76.json,http://54.235.29.9/FacialAge/BNav_EC2/DepthDuration/v2_depth_duration_MTurk/v2_DepthDuration_HTML.html#413,413,1366,657,1366,768,9-31-2022,11-38-50,146,depth_duration_stimuli/001498_2014-06-19_17-45-14_260595134347_rgbf000129-resize_4/001498_2014-06-19_17-45-14_260595134347_rgbf000129-resize-original.jpg,125,1.4075,0,2155,124,feet,jsons/VE125_randls_76.json,478935,911649,40,Man
146,591908,DepthScenes,duration_manipulation_targetAtFixation,jsons/VE125_randls_76.json,http://54.235.29.9/FacialAge/BNav_EC2/DepthDuration/v2_depth_duration_MTurk/v2_DepthDuration_HTML.html#413,413,1366,657,1366,768,9-31-2022,11-38-50,147,depth_duration_stimuli/001133_2014-06-17_14-49-16_260595134347_rgbf000100-resize_0/001133_2014-06-17_14-49-16_260595134347_rgbf000100-resize_0-target.png,125,4.2115,6,2793,124,feet,jsons/VE125_randls_76.json,478935,911649,40,Man
147,591908,DepthScenes,duration_manipulation_targetAtFixation,jsons/VE125_randls_76.json,http://54.235.29.9/FacialAge/BNav_EC2/DepthDuration/v2_depth_duration_MTurk/v2_DepthDuration_HTML.html#413,413,1366,657,1366,768,9-31-2022,11-38-50,148,depth_duration_stimuli/001132_2014-06-17_14-48-54_260595134347_rgbf000100-resize_2/001132_2014-06-17_14-48-54_260595134347_rgbf000100-resize_2-target.png,125,3.753,5,1948,124,feet,jsons/VE125_randls_76.json,478935,911649,40,Man
148,591908,DepthScenes,duration_manipulation_targetAtFixation,jsons/VE125_randls_76.json,http://54.235.29.9/FacialAge/BNav_EC2/DepthDuration/v2_depth_duration_MTurk/v2_DepthDuration_HTML.html#413,413,1366,657,1366,768,9-31-2022,11-38-50,149,depth_duration_stimuli/000414_2014-06-04_19-49-13_260595134347_rgbf000044-resize_0/000414_2014-06-04_19-49-13_260595134347_rgbf000044-resize_0-target.png,125,4.329,4,2858,125,feet,jsons/VE125_randls_76.json,478935,911649,40,Man
149,591908,DepthScenes,duration_manipulation_targetAtFixation,jsons/VE125_randls_76.json,http://54.235.29.9/FacialAge/BNav_EC2/DepthDuration/v2_depth_duration_MTurk/v2_DepthDuration_HTML.html#413,413,1366,657,1366,768,9-31-2022,11-38-50,150,depth_duration_stimuli/003129_2014-05-12_10-48-10_094959634447_rgbf000100-resize_0/003129_2014-05-12_10-48-10_094959634447_rgbf000100-resize_0-target.png,125,4.9305,4,2922,125,feet,jsons/VE125_randls_76.json,478935,911649,40,Man
150,591908,DepthScenes,duration_manipulation_targetAtFixation,jsons/VE125_randls_76.json,http://54.235.29.9/FacialAge/BNav_EC2/DepthDuration/v2_depth_duration_MTurk/v2_DepthDuration_HTML.html#413,413,1366,657,1366,768,9-31-2022,11-38-50,151,depth_duration_stimuli/000788_2014-06-08_22-34-36_260595134347_rgbf000131-resize_1/000788_2014-06-08_22-34-36_260595134347_rgbf000131-resize_1-target.png,125,3.359,3,2681,125,feet,jsons/VE125_randls_76.json,478935,911649,40,Man
151,591908,DepthScenes,duration_manipulation_targetAtFixation,jsons/VE125_randls_76.json,http://54.235.29.9/FacialAge/BNav_EC2/DepthDuration/v2_depth_duration_MTurk/v2_DepthDuration_HTML.html#413,413,1366,657,1366,768,9-31-2022,11-38-50,152,depth_duration_stimuli/001235_2014-06-17_16-37-36_260595134347_rgbf000084-resize_4/001235_2014-06-17_16-37-36_260595134347_rgbf000084-resize_4-target.png,125,3.6605,4,2009,124,feet,jsons/VE125_randls_76.json,478935,911649,40,Man
152,591908,DepthScenes,duration_manipulation_targetAtFixation,jsons/VE125_randls_76.json,http://54.235.29.9/FacialAge/BNav_EC2/DepthDuration/v2_depth_duration_MTurk/v2_DepthDuration_HTML.html#413,413,1366,657,1366,768,9-31-2022,11-38-50,153,depth_duration_stimuli/003492_2014-05-21_15-50-55_094959634447_rgbf000828-resize_1/003492_2014-05-21_15-50-55_094959634447_rgbf000828-resize_1-target.png,125,4.06875,2,2091,125,feet,jsons/VE125_randls_76.json,478935,911649,40,Man
153,591908,DepthScenes,duration_manipulation_targetAtFixation,jsons/VE125_randls_76.json,http://54.235.29.9/FacialAge/BNav_EC2/DepthDuration/v2_depth_duration_MTurk/v2_DepthDuration_HTML.html#413,413,1366,657,1366,768,9-31-2022,11-38-50,154,depth_duration_stimuli/002568_2014-06-24_13-59-21_094959634447_rgbf000062-resize_4/002568_2014-06-24_13-59-21_094959634447_rgbf000062-resize_4-target.png,125,3.015,3,2153,125,feet,jsons/VE125_randls_76.json,478935,911649,40,Man
154,591908,DepthScenes,duration_manipulation_targetAtFixation,jsons/VE125_randls_76.json,http://54.235.29.9/FacialAge/BNav_EC2/DepthDuration/v2_depth_duration_MTurk/v2_DepthDuration_HTML.html#413,413,1366,657,1366,768,9-31-2022,11-38-50,155,depth_duration_stimuli/002748_2014-06-22_19-07-22_094959634447_rgbf000078-resize_1/002748_2014-06-22_19-07-22_094959634447_rgbf000078-resize_1-target.png,125,4.6705,4,2140,125,feet,jsons/VE125_randls_76.json,478935,911649,40,Man
155,591908,DepthScenes,duration_manipulation_targetAtFixation,jsons/VE125_randls_76.json,http://54.235.29.9/FacialAge/BNav_EC2/DepthDuration/v2_depth_duration_MTurk/v2_DepthDuration_HTML.html#413,413,1366,657,1366,768,9-31-2022,11-38-50,156,depth_duration_stimuli/002995_2014-06-15_12-31-26_094959634447_rgbf000150-resize_1/002995_2014-06-15_12-31-26_094959634447_rgbf000150-resize_1-target.png,125,3.8360000000000003,5,2026,125,feet,jsons/VE125_randls_76.json,478935,911649,40,Man
156,591908,DepthScenes,duration_manipulation_targetAtFixation,jsons/VE125_randls_76.json,http://54.235.29.9/FacialAge/BNav_EC2/DepthDuration/v2_depth_duration_MTurk/v2_DepthDuration_HTML.html#413,413,1366,657,1366,768,9-31-2022,11-38-50,157,depth_duration_stimuli/002788_2014-06-22_19-36-03_094959634447_rgbf000088-resize_2/002788_2014-06-22_19-36-03_094959634447_rgbf000088-resize_2-target.png,125,1.6465,3,2474,125,feet,jsons/VE125_randls_76.json,478935,911649,40,Man
157,591908,DepthScenes,duration_manipulation_targetAtFixation,jsons/VE125_randls_76.json,http://54.235.29.9/FacialAge/BNav_EC2/DepthDuration/v2_depth_duration_MTurk/v2_DepthDuration_HTML.html#413,413,1366,657,1366,768,9-31-2022,11-38-50,158,depth_duration_stimuli/000749_2014-06-08_21-55-06_260595134347_rgbf000070-resize_2/000749_2014-06-08_21-55-06_260595134347_rgbf000070-resize_2-target.png,125,2.331,4,3467,124,feet,jsons/VE125_randls_76.json,478935,911649,40,Man
158,591908,DepthScenes,duration_manipulation_targetAtFixation,jsons/VE125_randls_76.json,http://54.235.29.9/FacialAge/BNav_EC2/DepthDuration/v2_depth_duration_MTurk/v2_DepthDuration_HTML.html#413,413,1366,657,1366,768,9-31-2022,11-38-50,159,depth_duration_stimuli/000506_2014-06-08_23-21-00_260595134347_rgbf000070-resize_7/000506_2014-06-08_23-21-00_260595134347_rgbf000070-resize_7-target.png,125,4.0585,5,1884,125,feet,jsons/VE125_randls_76.json,478935,911649,40,Man
159,591908,DepthScenes,duration_manipulation_targetAtFixation,jsons/VE125_randls_76.json,http://54.235.29.9/FacialAge/BNav_EC2/DepthDuration/v2_depth_duration_MTurk/v2_DepthDuration_HTML.html#413,413,1366,657,1366,768,9-31-2022,11-38-50,160,depth_duration_stimuli/003079_2014-06-15_15-18-20_094959634447_rgbf000152-resize_8/003079_2014-06-15_15-18-20_094959634447_rgbf000152-resize_8-target.png,125,2.8775,7,1930,124,feet,jsons/VE125_randls_76.json,478935,911649,40,Man
160,591908,DepthScenes,duration_manipulation_targetAtFixation,jsons/VE125_randls_76.json,http://54.235.29.9/FacialAge/BNav_EC2/DepthDuration/v2_depth_duration_MTurk/v2_DepthDuration_HTML.html#413,413,1366,657,1366,768,9-31-2022,11-38-50,161,depth_duration_stimuli/002570_2014-06-24_13-59-54_094959634447_rgbf000059-resize_0/002570_2014-06-24_13-59-54_094959634447_rgbf000059-resize_0-target.png,125,4.037,3,2587,126,feet,jsons/VE125_randls_76.json,478935,911649,40,Man
161,591908,DepthScenes,duration_manipulation_targetAtFixation,jsons/VE125_randls_76.json,http://54.235.29.9/FacialAge/BNav_EC2/DepthDuration/v2_depth_duration_MTurk/v2_DepthDuration_HTML.html#413,413,1366,657,1366,768,9-31-2022,11-38-50,162,depth_duration_stimuli/002467_2014-06-28_20-38-07_260595134347_rgbf000026-resize_2/002467_2014-06-28_20-38-07_260595134347_rgbf000026-resize_2-target.png,125,4.742,4,1898,125,feet,jsons/VE125_randls_76.json,478935,911649,40,Man
162,591908,DepthScenes,duration_manipulation_targetAtFixation,jsons/VE125_randls_76.json,http://54.235.29.9/FacialAge/BNav_EC2/DepthDuration/v2_depth_duration_MTurk/v2_DepthDuration_HTML.html#413,413,1366,657,1366,768,9-31-2022,11-38-50,163,depth_duration_stimuli/002784_2014-06-22_19-26-30_094959634447_rgbf000083-resize_3/002784_2014-06-22_19-26-30_094959634447_rgbf000083-resize_3-target.png,125,1.8046666666667,3,2361,125,feet,jsons/VE125_randls_76.json,478935,911649,40,Man
163,591908,DepthScenes,duration_manipulation_targetAtFixation,jsons/VE125_randls_76.json,http://54.235.29.9/FacialAge/BNav_EC2/DepthDuration/v2_depth_duration_MTurk/v2_DepthDuration_HTML.html#413,413,1366,657,1366,768,9-31-2022,11-38-50,164,depth_duration_stimuli/001100_2014-06-15_17-46-26_260595134347_rgbf000225-resize_2/001100_2014-06-15_17-46-26_260595134347_rgbf000225-resize_2-target.png,125,2.24,3,1850,125,feet,jsons/VE125_randls_76.json,478935,911649,40,Man
