,subjID,experimentName,versionName,sequenceName,url,selected_row,windowWidth,windowHeight,screenWidth,screenHeight,startDate,startTime,trial,stimulus,duration,actual_depth,depth_estimate,trial_RT,log_sceneDuration,unitSelection,seq_filepath,experimentTime,totalTime,age,gender
0,596417,DepthScenes,duration_manipulation_targetAtFixation,jsons/v1_VE1000_randls_51_rotated.json,http://54.235.29.9/FacialAge/BNav_EC2/DepthDuration/v2_depth_duration_MTurk/v2_DepthDuration_HTML.html#122,122,1046,760,1600,900,8-22-2022,8-13-29,1,depth_duration_stimuli/002425_2014-06-28_20-27-29_260595134347_rgbf000031-resize_8/002425_2014-06-28_20-27-29_260595134347_rgbf000031-resize_8-target.png,1000,3.8960000000000004,6,5080,999,feet,jsons/v1_VE1000_randls_51_rotated.json,712349,858711,28,Man
1,596417,DepthScenes,duration_manipulation_targetAtFixation,jsons/v1_VE1000_randls_51_rotated.json,http://54.235.29.9/FacialAge/BNav_EC2/DepthDuration/v2_depth_duration_MTurk/v2_DepthDuration_HTML.html#122,122,1046,760,1600,900,8-22-2022,8-13-29,2,depth_duration_stimuli/000642_2014-06-08_16-59-25_260595134347_rgbf000098-resize_2/000642_2014-06-08_16-59-25_260595134347_rgbf000098-resize_2-target.png,1000,2.8815,6,3054,999,feet,jsons/v1_VE1000_randls_51_rotated.json,712349,858711,28,Man
2,596417,DepthScenes,duration_manipulation_targetAtFixation,jsons/v1_VE1000_randls_51_rotated.json,http://54.235.29.9/FacialAge/BNav_EC2/DepthDuration/v2_depth_duration_MTurk/v2_DepthDuration_HTML.html#122,122,1046,760,1600,900,8-22-2022,8-13-29,3,depth_duration_stimuli/000483_2014-06-09_20-41-45_260595134347_rgbf000116-resize_4/000483_2014-06-09_20-41-45_260595134347_rgbf000116-resize_4-target.png,1000,1.337,3,3245,999,feet,jsons/v1_VE1000_randls_51_rotated.json,712349,858711,28,Man
3,596417,DepthScenes,duration_manipulation_targetAtFixation,jsons/v1_VE1000_randls_51_rotated.json,http://54.235.29.9/FacialAge/BNav_EC2/DepthDuration/v2_depth_duration_MTurk/v2_DepthDuration_HTML.html#122,122,1046,760,1600,900,8-22-2022,8-13-29,4,depth_duration_stimuli/000469_2014-06-09_19-42-10_260595134347_rgbf000081-resize_1/000469_2014-06-09_19-42-10_260595134347_rgbf000081-resize_1-target.png,1000,1.652,4,3174,1000,feet,jsons/v1_VE1000_randls_51_rotated.json,712349,858711,28,Man
4,596417,DepthScenes,duration_manipulation_targetAtFixation,jsons/v1_VE1000_randls_51_rotated.json,http://54.235.29.9/FacialAge/BNav_EC2/DepthDuration/v2_depth_duration_MTurk/v2_DepthDuration_HTML.html#122,122,1046,760,1600,900,8-22-2022,8-13-29,5,depth_duration_stimuli/001450_2014-06-19_17-02-03_260595134347_rgbf000203-resize_4/001450_2014-06-19_17-02-03_260595134347_rgbf000203-resize_4-target.png,1000,4.0106666666667,10,3677,999,feet,jsons/v1_VE1000_randls_51_rotated.json,712349,858711,28,Man
5,596417,DepthScenes,duration_manipulation_targetAtFixation,jsons/v1_VE1000_randls_51_rotated.json,http://54.235.29.9/FacialAge/BNav_EC2/DepthDuration/v2_depth_duration_MTurk/v2_DepthDuration_HTML.html#122,122,1046,760,1600,900,8-22-2022,8-13-29,6,depth_duration_stimuli/001449_2014-06-19_17-01-27_260595134347_rgbf000116-resize_2/001449_2014-06-19_17-01-27_260595134347_rgbf000116-resize_2-target.png,1000,3.452,5,4745,1000,feet,jsons/v1_VE1000_randls_51_rotated.json,712349,858711,28,Man
6,596417,DepthScenes,duration_manipulation_targetAtFixation,jsons/v1_VE1000_randls_51_rotated.json,http://54.235.29.9/FacialAge/BNav_EC2/DepthDuration/v2_depth_duration_MTurk/v2_DepthDuration_HTML.html#122,122,1046,760,1600,900,8-22-2022,8-13-29,7,depth_duration_stimuli/001584_2014-06-20_11-07-43_260595134347_rgbf000002-resize_1/001584_2014-06-20_11-07-43_260595134347_rgbf000002-resize_1-target.png,1000,3.53,7,3177,1000,feet,jsons/v1_VE1000_randls_51_rotated.json,712349,858711,28,Man
7,596417,DepthScenes,duration_manipulation_targetAtFixation,jsons/v1_VE1000_randls_51_rotated.json,http://54.235.29.9/FacialAge/BNav_EC2/DepthDuration/v2_depth_duration_MTurk/v2_DepthDuration_HTML.html#122,122,1046,760,1600,900,8-22-2022,8-13-29,8,depth_duration_stimuli/003621_2014-05-23_18-06-08_094959634447_rgbf000101-resize_1/003621_2014-05-23_18-06-08_094959634447_rgbf000101-resize_1-target.png,1000,3.9835,10,4476,999,feet,jsons/v1_VE1000_randls_51_rotated.json,712349,858711,28,Man
8,596417,DepthScenes,duration_manipulation_targetAtFixation,jsons/v1_VE1000_randls_51_rotated.json,http://54.235.29.9/FacialAge/BNav_EC2/DepthDuration/v2_depth_duration_MTurk/v2_DepthDuration_HTML.html#122,122,1046,760,1600,900,8-22-2022,8-13-29,9,depth_duration_stimuli/000665_2014-06-09_20-42-35_260595134347_rgbf000110-resize_1/000665_2014-06-09_20-42-35_260595134347_rgbf000110-resize_1-target.png,1000,3.057,8,3593,999,feet,jsons/v1_VE1000_randls_51_rotated.json,712349,858711,28,Man
9,596417,DepthScenes,duration_manipulation_targetAtFixation,jsons/v1_VE1000_randls_51_rotated.json,http://54.235.29.9/FacialAge/BNav_EC2/DepthDuration/v2_depth_duration_MTurk/v2_DepthDuration_HTML.html#122,122,1046,760,1600,900,8-22-2022,8-13-29,10,depth_duration_stimuli/001150_2014-06-17_15-27-34_260595134347_rgbf000108-resize_2/001150_2014-06-17_15-27-34_260595134347_rgbf000108-resize_2-target.png,1000,4.0325,10,6029,998,feet,jsons/v1_VE1000_randls_51_rotated.json,712349,858711,28,Man
10,596417,DepthScenes,duration_manipulation_targetAtFixation,jsons/v1_VE1000_randls_51_rotated.json,http://54.235.29.9/FacialAge/BNav_EC2/DepthDuration/v2_depth_duration_MTurk/v2_DepthDuration_HTML.html#122,122,1046,760,1600,900,8-22-2022,8-13-29,11,depth_duration_stimuli/000734_2014-06-08_17-39-11_260595134347_rgbf000128-resize_2/000734_2014-06-08_17-39-11_260595134347_rgbf000128-resize_2-target.png,1000,4.098,10,4395,1000,feet,jsons/v1_VE1000_randls_51_rotated.json,712349,858711,28,Man
11,596417,DepthScenes,duration_manipulation_targetAtFixation,jsons/v1_VE1000_randls_51_rotated.json,http://54.235.29.9/FacialAge/BNav_EC2/DepthDuration/v2_depth_duration_MTurk/v2_DepthDuration_HTML.html#122,122,1046,760,1600,900,8-22-2022,8-13-29,12,depth_duration_stimuli/000739_2014-06-08_18-45-58_260595134347_rgbf000068-resize_1/000739_2014-06-08_18-45-58_260595134347_rgbf000068-resize_1-target.png,1000,3.534,10,3211,1000,feet,jsons/v1_VE1000_randls_51_rotated.json,712349,858711,28,Man
12,596417,DepthScenes,duration_manipulation_targetAtFixation,jsons/v1_VE1000_randls_51_rotated.json,http://54.235.29.9/FacialAge/BNav_EC2/DepthDuration/v2_depth_duration_MTurk/v2_DepthDuration_HTML.html#122,122,1046,760,1600,900,8-22-2022,8-13-29,13,depth_duration_stimuli/002467_2014-06-28_20-38-07_260595134347_rgbf000026-resize_2/002467_2014-06-28_20-38-07_260595134347_rgbf000026-resize_2-target.png,1000,4.742,14,3883,999,feet,jsons/v1_VE1000_randls_51_rotated.json,712349,858711,28,Man
13,596417,DepthScenes,duration_manipulation_targetAtFixation,jsons/v1_VE1000_randls_51_rotated.json,http://54.235.29.9/FacialAge/BNav_EC2/DepthDuration/v2_depth_duration_MTurk/v2_DepthDuration_HTML.html#122,122,1046,760,1600,900,8-22-2022,8-13-29,14,depth_duration_stimuli/002570_2014-06-24_13-59-54_094959634447_rgbf000059-resize_0/002570_2014-06-24_13-59-54_094959634447_rgbf000059-resize_0-target.png,1000,4.037,10,4537,1000,feet,jsons/v1_VE1000_randls_51_rotated.json,712349,858711,28,Man
14,596417,DepthScenes,duration_manipulation_targetAtFixation,jsons/v1_VE1000_randls_51_rotated.json,http://54.235.29.9/FacialAge/BNav_EC2/DepthDuration/v2_depth_duration_MTurk/v2_DepthDuration_HTML.html#122,122,1046,760,1600,900,8-22-2022,8-13-29,15,depth_duration_stimuli/002637_2014-06-24_14-51-13_094959634447_rgbf000066-resize_4/002637_2014-06-24_14-51-13_094959634447_rgbf000066-resize_4-target.png,1000,1.9955,6,3247,999,feet,jsons/v1_VE1000_randls_51_rotated.json,712349,858711,28,Man
15,596417,DepthScenes,duration_manipulation_targetAtFixation,jsons/v1_VE1000_randls_51_rotated.json,http://54.235.29.9/FacialAge/BNav_EC2/DepthDuration/v2_depth_duration_MTurk/v2_DepthDuration_HTML.html#122,122,1046,760,1600,900,8-22-2022,8-13-29,16,depth_duration_stimuli/003534_2014-05-22_15-06-10_094959634447_rgbf000102-resize_4/003534_2014-05-22_15-06-10_094959634447_rgbf000102-resize_4-target.png,1000,1.426,3,2953,1000,feet,jsons/v1_VE1000_randls_51_rotated.json,712349,858711,28,Man
16,596417,DepthScenes,duration_manipulation_targetAtFixation,jsons/v1_VE1000_randls_51_rotated.json,http://54.235.29.9/FacialAge/BNav_EC2/DepthDuration/v2_depth_duration_MTurk/v2_DepthDuration_HTML.html#122,122,1046,760,1600,900,8-22-2022,8-13-29,17,depth_duration_stimuli/003338_2014-05-20_11-01-23_094959634447_rgbf000051-resize_6/003338_2014-05-20_11-01-23_094959634447_rgbf000051-resize_6-target.png,1000,1.693,3,2913,1000,feet,jsons/v1_VE1000_randls_51_rotated.json,712349,858711,28,Man
17,596417,DepthScenes,duration_manipulation_targetAtFixation,jsons/v1_VE1000_randls_51_rotated.json,http://54.235.29.9/FacialAge/BNav_EC2/DepthDuration/v2_depth_duration_MTurk/v2_DepthDuration_HTML.html#122,122,1046,760,1600,900,8-22-2022,8-13-29,18,depth_duration_stimuli/002509_2014-06-24_13-19-22_094959634447_rgbf000077-resize_0/002509_2014-06-24_13-19-22_094959634447_rgbf000077-resize_0-target.png,1000,1.3065,3,3144,999,feet,jsons/v1_VE1000_randls_51_rotated.json,712349,858711,28,Man
18,596417,DepthScenes,duration_manipulation_targetAtFixation,jsons/v1_VE1000_randls_51_rotated.json,http://54.235.29.9/FacialAge/BNav_EC2/DepthDuration/v2_depth_duration_MTurk/v2_DepthDuration_HTML.html#122,122,1046,760,1600,900,8-22-2022,8-13-29,19,depth_duration_stimuli/001498_2014-06-19_17-45-14_260595134347_rgbf000129-resize_4/001498_2014-06-19_17-45-14_260595134347_rgbf000129-resize-original.jpg,1000,1.4075,0,3610,999,feet,jsons/v1_VE1000_randls_51_rotated.json,712349,858711,28,Man
19,596417,DepthScenes,duration_manipulation_targetAtFixation,jsons/v1_VE1000_randls_51_rotated.json,http://54.235.29.9/FacialAge/BNav_EC2/DepthDuration/v2_depth_duration_MTurk/v2_DepthDuration_HTML.html#122,122,1046,760,1600,900,8-22-2022,8-13-29,20,depth_duration_stimuli/002545_2014-06-24_13-38-53_094959634447_rgbf000080-resize_4/002545_2014-06-24_13-38-53_094959634447_rgbf000080-resize_4-target.png,1000,1.9205,5,7053,1000,feet,jsons/v1_VE1000_randls_51_rotated.json,712349,858711,28,Man
20,596417,DepthScenes,duration_manipulation_targetAtFixation,jsons/v1_VE1000_randls_51_rotated.json,http://54.235.29.9/FacialAge/BNav_EC2/DepthDuration/v2_depth_duration_MTurk/v2_DepthDuration_HTML.html#122,122,1046,760,1600,900,8-22-2022,8-13-29,21,depth_duration_stimuli/001092_2014-06-15_17-34-58_260595134347_rgbf000171-resize_3/001092_2014-06-15_17-34-58_260595134347_rgbf000171-resize_3-target.png,1000,2.6935,5,2745,1000,feet,jsons/v1_VE1000_randls_51_rotated.json,712349,858711,28,Man
21,596417,DepthScenes,duration_manipulation_targetAtFixation,jsons/v1_VE1000_randls_51_rotated.json,http://54.235.29.9/FacialAge/BNav_EC2/DepthDuration/v2_depth_duration_MTurk/v2_DepthDuration_HTML.html#122,122,1046,760,1600,900,8-22-2022,8-13-29,22,depth_duration_stimuli/002340_2014-06-28_20-05-46_260595134347_rgbf000113-resize_0/002340_2014-06-28_20-05-46_260595134347_rgbf000113-resize_0-target.png,1000,2.4735,8,3371,998,feet,jsons/v1_VE1000_randls_51_rotated.json,712349,858711,28,Man
22,596417,DepthScenes,duration_manipulation_targetAtFixation,jsons/v1_VE1000_randls_51_rotated.json,http://54.235.29.9/FacialAge/BNav_EC2/DepthDuration/v2_depth_duration_MTurk/v2_DepthDuration_HTML.html#122,122,1046,760,1600,900,8-22-2022,8-13-29,23,depth_duration_stimuli/001016_2014-06-09_16-16-10_260595134347_rgbf000112-resize_5/001016_2014-06-09_16-16-10_260595134347_rgbf000112-resize_5-target.png,1000,1.6565,7,3210,999,feet,jsons/v1_VE1000_randls_51_rotated.json,712349,858711,28,Man
23,596417,DepthScenes,duration_manipulation_targetAtFixation,jsons/v1_VE1000_randls_51_rotated.json,http://54.235.29.9/FacialAge/BNav_EC2/DepthDuration/v2_depth_duration_MTurk/v2_DepthDuration_HTML.html#122,122,1046,760,1600,900,8-22-2022,8-13-29,24,depth_duration_stimuli/003587_2014-05-23_16-48-02_094959634447_rgbf002384-resize_2/003587_2014-05-23_16-48-02_094959634447_rgbf002384-resize_2-target.png,1000,1.357,0,12637,999,feet,jsons/v1_VE1000_randls_51_rotated.json,712349,858711,28,Man
24,596417,DepthScenes,duration_manipulation_targetAtFixation,jsons/v1_VE1000_randls_51_rotated.json,http://54.235.29.9/FacialAge/BNav_EC2/DepthDuration/v2_depth_duration_MTurk/v2_DepthDuration_HTML.html#122,122,1046,760,1600,900,8-22-2022,8-13-29,25,depth_duration_stimuli/001167_2014-06-17_15-38-07_260595134347_rgbf000108-resize_0/001167_2014-06-17_15-38-07_260595134347_rgbf000108-resize_0-target.png,1000,1.8505,4,3179,1000,feet,jsons/v1_VE1000_randls_51_rotated.json,712349,858711,28,Man
25,596417,DepthScenes,duration_manipulation_targetAtFixation,jsons/v1_VE1000_randls_51_rotated.json,http://54.235.29.9/FacialAge/BNav_EC2/DepthDuration/v2_depth_duration_MTurk/v2_DepthDuration_HTML.html#122,122,1046,760,1600,900,8-22-2022,8-13-29,26,depth_duration_stimuli/000866_2014-06-09_20-45-42_260595134347_rgbf000139-resize_1/000866_2014-06-09_20-45-42_260595134347_rgbf000139-resize_1-target.png,1000,3.2155,8,3769,1000,feet,jsons/v1_VE1000_randls_51_rotated.json,712349,858711,28,Man
26,596417,DepthScenes,duration_manipulation_targetAtFixation,jsons/v1_VE1000_randls_51_rotated.json,http://54.235.29.9/FacialAge/BNav_EC2/DepthDuration/v2_depth_duration_MTurk/v2_DepthDuration_HTML.html#122,122,1046,760,1600,900,8-22-2022,8-13-29,27,depth_duration_stimuli/002989_2014-06-15_12-25-03_094959634447_rgbf000150-resize_3/002989_2014-06-15_12-25-03_094959634447_rgbf000150-resize_3-target.png,1000,4.1975,12,3483,999,feet,jsons/v1_VE1000_randls_51_rotated.json,712349,858711,28,Man
27,596417,DepthScenes,duration_manipulation_targetAtFixation,jsons/v1_VE1000_randls_51_rotated.json,http://54.235.29.9/FacialAge/BNav_EC2/DepthDuration/v2_depth_duration_MTurk/v2_DepthDuration_HTML.html#122,122,1046,760,1600,900,8-22-2022,8-13-29,28,depth_duration_stimuli/000103_2014-05-14_22-01-17_260595134347_rgbf000152-resize_5/000103_2014-05-14_22-01-17_260595134347_rgbf000152-resize_5-target.png,1000,1.993,0,10973,1000,feet,jsons/v1_VE1000_randls_51_rotated.json,712349,858711,28,Man
28,596417,DepthScenes,duration_manipulation_targetAtFixation,jsons/v1_VE1000_randls_51_rotated.json,http://54.235.29.9/FacialAge/BNav_EC2/DepthDuration/v2_depth_duration_MTurk/v2_DepthDuration_HTML.html#122,122,1046,760,1600,900,8-22-2022,8-13-29,29,depth_duration_stimuli/001555_2014-06-20_17-12-10_260595134347_rgbf000065-resize_4/001555_2014-06-20_17-12-10_260595134347_rgbf000065-resize_4-target.png,1000,1.633,4,3305,999,feet,jsons/v1_VE1000_randls_51_rotated.json,712349,858711,28,Man
29,596417,DepthScenes,duration_manipulation_targetAtFixation,jsons/v1_VE1000_randls_51_rotated.json,http://54.235.29.9/FacialAge/BNav_EC2/DepthDuration/v2_depth_duration_MTurk/v2_DepthDuration_HTML.html#122,122,1046,760,1600,900,8-22-2022,8-13-29,30,depth_duration_stimuli/002072_2014-06-24_21-48-06_260595134347_rgbf000115-resize_0/002072_2014-06-24_21-48-06_260595134347_rgbf000115-resize-original.jpg,1000,4.702,0,3581,999,feet,jsons/v1_VE1000_randls_51_rotated.json,712349,858711,28,Man
30,596417,DepthScenes,duration_manipulation_targetAtFixation,jsons/v1_VE1000_randls_51_rotated.json,http://54.235.29.9/FacialAge/BNav_EC2/DepthDuration/v2_depth_duration_MTurk/v2_DepthDuration_HTML.html#122,122,1046,760,1600,900,8-22-2022,8-13-29,31,depth_duration_stimuli/000409_2014-06-04_19-23-33_260595134347_rgbf000067-resize_0/000409_2014-06-04_19-23-33_260595134347_rgbf000067-resize_0-target.png,1000,3.7335,0,13673,999,feet,jsons/v1_VE1000_randls_51_rotated.json,712349,858711,28,Man
31,596417,DepthScenes,duration_manipulation_targetAtFixation,jsons/v1_VE1000_randls_51_rotated.json,http://54.235.29.9/FacialAge/BNav_EC2/DepthDuration/v2_depth_duration_MTurk/v2_DepthDuration_HTML.html#122,122,1046,760,1600,900,8-22-2022,8-13-29,32,depth_duration_stimuli/002663_2014-06-13_15-50-26_094959634447_rgbf000075-resize_1/002663_2014-06-13_15-50-26_094959634447_rgbf000075-resize_1-target.png,1000,4.7495,12,3774,1000,feet,jsons/v1_VE1000_randls_51_rotated.json,712349,858711,28,Man
32,596417,DepthScenes,duration_manipulation_targetAtFixation,jsons/v1_VE1000_randls_51_rotated.json,http://54.235.29.9/FacialAge/BNav_EC2/DepthDuration/v2_depth_duration_MTurk/v2_DepthDuration_HTML.html#122,122,1046,760,1600,900,8-22-2022,8-13-29,33,depth_duration_stimuli/000556_2014-06-09_22-42-56_260595134347_rgbf000214-resize_1/000556_2014-06-09_22-42-56_260595134347_rgbf000214-resize_1-target.png,1000,4.8415,14,5517,1000,feet,jsons/v1_VE1000_randls_51_rotated.json,712349,858711,28,Man
33,596417,DepthScenes,duration_manipulation_targetAtFixation,jsons/v1_VE1000_randls_51_rotated.json,http://54.235.29.9/FacialAge/BNav_EC2/DepthDuration/v2_depth_duration_MTurk/v2_DepthDuration_HTML.html#122,122,1046,760,1600,900,8-22-2022,8-13-29,34,depth_duration_stimuli/001158_2014-06-17_15-32-16_260595134347_rgbf000138-resize_2/001158_2014-06-17_15-32-16_260595134347_rgbf000138-resize_2-target.png,1000,4.5315,15,3399,999,feet,jsons/v1_VE1000_randls_51_rotated.json,712349,858711,28,Man
34,596417,DepthScenes,duration_manipulation_targetAtFixation,jsons/v1_VE1000_randls_51_rotated.json,http://54.235.29.9/FacialAge/BNav_EC2/DepthDuration/v2_depth_duration_MTurk/v2_DepthDuration_HTML.html#122,122,1046,760,1600,900,8-22-2022,8-13-29,35,depth_duration_stimuli/002209_2014-06-28_18-36-10_260595134347_rgbf000051-resize_1/002209_2014-06-28_18-36-10_260595134347_rgbf000051-resize_1-target.png,1000,2.057,4,4060,1000,feet,jsons/v1_VE1000_randls_51_rotated.json,712349,858711,28,Man
35,596417,DepthScenes,duration_manipulation_targetAtFixation,jsons/v1_VE1000_randls_51_rotated.json,http://54.235.29.9/FacialAge/BNav_EC2/DepthDuration/v2_depth_duration_MTurk/v2_DepthDuration_HTML.html#122,122,1046,760,1600,900,8-22-2022,8-13-29,36,depth_duration_stimuli/002763_2014-06-22_19-13-10_094959634447_rgbf000075-resize_4/002763_2014-06-22_19-13-10_094959634447_rgbf000075-resize_4-target.png,1000,1.68375,5,3578,1000,feet,jsons/v1_VE1000_randls_51_rotated.json,712349,858711,28,Man
36,596417,DepthScenes,duration_manipulation_targetAtFixation,jsons/v1_VE1000_randls_51_rotated.json,http://54.235.29.9/FacialAge/BNav_EC2/DepthDuration/v2_depth_duration_MTurk/v2_DepthDuration_HTML.html#122,122,1046,760,1600,900,8-22-2022,8-13-29,37,depth_duration_stimuli/001571_2014-06-20_17-21-32_260595134347_rgbf000089-resize_1/001571_2014-06-20_17-21-32_260595134347_rgbf000089-resize_1-target.png,1000,1.86,5,3309,1000,feet,jsons/v1_VE1000_randls_51_rotated.json,712349,858711,28,Man
37,596417,DepthScenes,duration_manipulation_targetAtFixation,jsons/v1_VE1000_randls_51_rotated.json,http://54.235.29.9/FacialAge/BNav_EC2/DepthDuration/v2_depth_duration_MTurk/v2_DepthDuration_HTML.html#122,122,1046,760,1600,900,8-22-2022,8-13-29,38,depth_duration_stimuli/002272_2014-06-28_18-53-56_260595134347_rgbf000067-resize_2/002272_2014-06-28_18-53-56_260595134347_rgbf000067-resize_2-target.png,1000,1.138,3,2731,999,feet,jsons/v1_VE1000_randls_51_rotated.json,712349,858711,28,Man
38,596417,DepthScenes,duration_manipulation_targetAtFixation,jsons/v1_VE1000_randls_51_rotated.json,http://54.235.29.9/FacialAge/BNav_EC2/DepthDuration/v2_depth_duration_MTurk/v2_DepthDuration_HTML.html#122,122,1046,760,1600,900,8-22-2022,8-13-29,39,depth_duration_stimuli/000635_2014-06-08_16-38-42_260595134347_rgbf000106-resize_1/000635_2014-06-08_16-38-42_260595134347_rgbf000106-resize_1-target.png,1000,2.074,5,4714,999,feet,jsons/v1_VE1000_randls_51_rotated.json,712349,858711,28,Man
39,596417,DepthScenes,duration_manipulation_targetAtFixation,jsons/v1_VE1000_randls_51_rotated.json,http://54.235.29.9/FacialAge/BNav_EC2/DepthDuration/v2_depth_duration_MTurk/v2_DepthDuration_HTML.html#122,122,1046,760,1600,900,8-22-2022,8-13-29,40,depth_duration_stimuli/002279_2014-06-28_18-55-32_260595134347_rgbf000040-resize_5/002279_2014-06-28_18-55-32_260595134347_rgbf000040-resize_5-target.png,1000,1.5043333333333,3,2781,999,feet,jsons/v1_VE1000_randls_51_rotated.json,712349,858711,28,Man
40,596417,DepthScenes,duration_manipulation_targetAtFixation,jsons/v1_VE1000_randls_51_rotated.json,http://54.235.29.9/FacialAge/BNav_EC2/DepthDuration/v2_depth_duration_MTurk/v2_DepthDuration_HTML.html#122,122,1046,760,1600,900,8-22-2022,8-13-29,41,depth_duration_stimuli/002344_2014-06-28_20-06-29_260595134347_rgbf000030-resize_1/002344_2014-06-28_20-06-29_260595134347_rgbf000030-resize_1-target.png,1000,1.5795,3,2681,1000,feet,jsons/v1_VE1000_randls_51_rotated.json,712349,858711,28,Man
41,596417,DepthScenes,duration_manipulation_targetAtFixation,jsons/v1_VE1000_randls_51_rotated.json,http://54.235.29.9/FacialAge/BNav_EC2/DepthDuration/v2_depth_duration_MTurk/v2_DepthDuration_HTML.html#122,122,1046,760,1600,900,8-22-2022,8-13-29,42,depth_duration_stimuli/002725_2014-06-22_11-47-51_094959634447_rgbf000070-resize_1/002725_2014-06-22_11-47-51_094959634447_rgbf000070-resize_1-target.png,1000,2.195,6,4443,1000,feet,jsons/v1_VE1000_randls_51_rotated.json,712349,858711,28,Man
42,596417,DepthScenes,duration_manipulation_targetAtFixation,jsons/v1_VE1000_randls_51_rotated.json,http://54.235.29.9/FacialAge/BNav_EC2/DepthDuration/v2_depth_duration_MTurk/v2_DepthDuration_HTML.html#122,122,1046,760,1600,900,8-22-2022,8-13-29,43,depth_duration_stimuli/001214_2014-06-17_16-13-55_260595134347_rgbf000111-resize_0/001214_2014-06-17_16-13-55_260595134347_rgbf000111-resize_0-target.png,1000,2.6505,6,3131,999,feet,jsons/v1_VE1000_randls_51_rotated.json,712349,858711,28,Man
43,596417,DepthScenes,duration_manipulation_targetAtFixation,jsons/v1_VE1000_randls_51_rotated.json,http://54.235.29.9/FacialAge/BNav_EC2/DepthDuration/v2_depth_duration_MTurk/v2_DepthDuration_HTML.html#122,122,1046,760,1600,900,8-22-2022,8-13-29,44,depth_duration_stimuli/000810_2014-06-08_17-20-01_260595134347_rgbf000105-resize_0/000810_2014-06-08_17-20-01_260595134347_rgbf000105-resize_0-target.png,1000,1.4865,5,5978,1000,feet,jsons/v1_VE1000_randls_51_rotated.json,712349,858711,28,Man
44,596417,DepthScenes,duration_manipulation_targetAtFixation,jsons/v1_VE1000_randls_51_rotated.json,http://54.235.29.9/FacialAge/BNav_EC2/DepthDuration/v2_depth_duration_MTurk/v2_DepthDuration_HTML.html#122,122,1046,760,1600,900,8-22-2022,8-13-29,45,depth_duration_stimuli/002953_2014-06-08_17-32-18_094959634447_rgbf000059-resize_5/002953_2014-06-08_17-32-18_094959634447_rgbf000059-resize_5-target.png,1000,1.551,5,15532,1000,feet,jsons/v1_VE1000_randls_51_rotated.json,712349,858711,28,Man
45,596417,DepthScenes,duration_manipulation_targetAtFixation,jsons/v1_VE1000_randls_51_rotated.json,http://54.235.29.9/FacialAge/BNav_EC2/DepthDuration/v2_depth_duration_MTurk/v2_DepthDuration_HTML.html#122,122,1046,760,1600,900,8-22-2022,8-13-29,46,depth_duration_stimuli/000878_2014-06-08_22-52-45_260595134347_rgbf000045-resize_2/000878_2014-06-08_22-52-45_260595134347_rgbf000045-resize_2-target.png,1000,2.092,6,5466,999,feet,jsons/v1_VE1000_randls_51_rotated.json,712349,858711,28,Man
46,596417,DepthScenes,duration_manipulation_targetAtFixation,jsons/v1_VE1000_randls_51_rotated.json,http://54.235.29.9/FacialAge/BNav_EC2/DepthDuration/v2_depth_duration_MTurk/v2_DepthDuration_HTML.html#122,122,1046,760,1600,900,8-22-2022,8-13-29,47,depth_duration_stimuli/000709_2014-06-08_13-51-55_260595134347_rgbf000068-resize_3/000709_2014-06-08_13-51-55_260595134347_rgbf000068-resize_3-target.png,1000,1.8030000000000002,6,3468,1000,feet,jsons/v1_VE1000_randls_51_rotated.json,712349,858711,28,Man
47,596417,DepthScenes,duration_manipulation_targetAtFixation,jsons/v1_VE1000_randls_51_rotated.json,http://54.235.29.9/FacialAge/BNav_EC2/DepthDuration/v2_depth_duration_MTurk/v2_DepthDuration_HTML.html#122,122,1046,760,1600,900,8-22-2022,8-13-29,48,depth_duration_stimuli/002057_2014-06-24_21-00-13_260595134347_rgbf000120-resize_1/002057_2014-06-24_21-00-13_260595134347_rgbf000120-resize_1-target.png,1000,2.967,10,3645,1000,feet,jsons/v1_VE1000_randls_51_rotated.json,712349,858711,28,Man
48,596417,DepthScenes,duration_manipulation_targetAtFixation,jsons/v1_VE1000_randls_51_rotated.json,http://54.235.29.9/FacialAge/BNav_EC2/DepthDuration/v2_depth_duration_MTurk/v2_DepthDuration_HTML.html#122,122,1046,760,1600,900,8-22-2022,8-13-29,49,depth_duration_stimuli/001170_2014-06-17_15-43-44_260595134347_rgbf000096-resize_6/001170_2014-06-17_15-43-44_260595134347_rgbf000096-resize-original.jpg,1000,1.1909999999999998,0,4171,1000,feet,jsons/v1_VE1000_randls_51_rotated.json,712349,858711,28,Man
49,596417,DepthScenes,duration_manipulation_targetAtFixation,jsons/v1_VE1000_randls_51_rotated.json,http://54.235.29.9/FacialAge/BNav_EC2/DepthDuration/v2_depth_duration_MTurk/v2_DepthDuration_HTML.html#122,122,1046,760,1600,900,8-22-2022,8-13-29,50,depth_duration_stimuli/000749_2014-06-08_21-55-06_260595134347_rgbf000070-resize_2/000749_2014-06-08_21-55-06_260595134347_rgbf000070-resize_2-target.png,1000,2.331,6,4634,1000,feet,jsons/v1_VE1000_randls_51_rotated.json,712349,858711,28,Man
50,596417,DepthScenes,duration_manipulation_targetAtFixation,jsons/v1_VE1000_randls_51_rotated.json,http://54.235.29.9/FacialAge/BNav_EC2/DepthDuration/v2_depth_duration_MTurk/v2_DepthDuration_HTML.html#122,122,1046,760,1600,900,8-22-2022,8-13-29,51,depth_duration_stimuli/002788_2014-06-22_19-36-03_094959634447_rgbf000088-resize_2/002788_2014-06-22_19-36-03_094959634447_rgbf000088-resize_2-target.png,1000,1.6465,9,3641,1000,feet,jsons/v1_VE1000_randls_51_rotated.json,712349,858711,28,Man
51,596417,DepthScenes,duration_manipulation_targetAtFixation,jsons/v1_VE1000_randls_51_rotated.json,http://54.235.29.9/FacialAge/BNav_EC2/DepthDuration/v2_depth_duration_MTurk/v2_DepthDuration_HTML.html#122,122,1046,760,1600,900,8-22-2022,8-13-29,52,depth_duration_stimuli/001650_2014-06-20_12-09-00_260595134347_rgbf000087-resize_3/001650_2014-06-20_12-09-00_260595134347_rgbf000087-resize_3-target.png,1000,1.9505,3,2941,999,feet,jsons/v1_VE1000_randls_51_rotated.json,712349,858711,28,Man
52,596417,DepthScenes,duration_manipulation_targetAtFixation,jsons/v1_VE1000_randls_51_rotated.json,http://54.235.29.9/FacialAge/BNav_EC2/DepthDuration/v2_depth_duration_MTurk/v2_DepthDuration_HTML.html#122,122,1046,760,1600,900,8-22-2022,8-13-29,53,depth_duration_stimuli/000682_2014-06-08_23-14-58_260595134347_rgbf000041-resize_5/000682_2014-06-08_23-14-58_260595134347_rgbf000041-resize_5-target.png,1000,2.7239999999999998,6,2924,999,feet,jsons/v1_VE1000_randls_51_rotated.json,712349,858711,28,Man
53,596417,DepthScenes,duration_manipulation_targetAtFixation,jsons/v1_VE1000_randls_51_rotated.json,http://54.235.29.9/FacialAge/BNav_EC2/DepthDuration/v2_depth_duration_MTurk/v2_DepthDuration_HTML.html#122,122,1046,760,1600,900,8-22-2022,8-13-29,54,depth_duration_stimuli/000502_2014-06-08_23-02-32_260595134347_rgbf000063-resize_4/000502_2014-06-08_23-02-32_260595134347_rgbf000063-resize_4-target.png,1000,2.431,7,4680,999,feet,jsons/v1_VE1000_randls_51_rotated.json,712349,858711,28,Man
54,596417,DepthScenes,duration_manipulation_targetAtFixation,jsons/v1_VE1000_randls_51_rotated.json,http://54.235.29.9/FacialAge/BNav_EC2/DepthDuration/v2_depth_duration_MTurk/v2_DepthDuration_HTML.html#122,122,1046,760,1600,900,8-22-2022,8-13-29,55,depth_duration_stimuli/001199_2014-06-17_16-03-48_260595134347_rgbf000077-resize_0/001199_2014-06-17_16-03-48_260595134347_rgbf000077-resize_0-target.png,1000,3.4375,14,3610,1000,feet,jsons/v1_VE1000_randls_51_rotated.json,712349,858711,28,Man
55,596417,DepthScenes,duration_manipulation_targetAtFixation,jsons/v1_VE1000_randls_51_rotated.json,http://54.235.29.9/FacialAge/BNav_EC2/DepthDuration/v2_depth_duration_MTurk/v2_DepthDuration_HTML.html#122,122,1046,760,1600,900,8-22-2022,8-13-29,56,depth_duration_stimuli/003423_2014-05-21_10-23-26_094959634447_rgbf002665-resize_2/003423_2014-05-21_10-23-26_094959634447_rgbf002665-resize_2-target.png,1000,3.2575,12,3644,1000,feet,jsons/v1_VE1000_randls_51_rotated.json,712349,858711,28,Man
56,596417,DepthScenes,duration_manipulation_targetAtFixation,jsons/v1_VE1000_randls_51_rotated.json,http://54.235.29.9/FacialAge/BNav_EC2/DepthDuration/v2_depth_duration_MTurk/v2_DepthDuration_HTML.html#122,122,1046,760,1600,900,8-22-2022,8-13-29,57,depth_duration_stimuli/002905_2014-06-03_18-04-43_094959634447_rgbf000151-resize_2/002905_2014-06-03_18-04-43_094959634447_rgbf000151-resize_2-target.png,1000,2.0295,8,4332,1000,feet,jsons/v1_VE1000_randls_51_rotated.json,712349,858711,28,Man
57,596417,DepthScenes,duration_manipulation_targetAtFixation,jsons/v1_VE1000_randls_51_rotated.json,http://54.235.29.9/FacialAge/BNav_EC2/DepthDuration/v2_depth_duration_MTurk/v2_DepthDuration_HTML.html#122,122,1046,760,1600,900,8-22-2022,8-13-29,58,depth_duration_stimuli/003228_2014-05-14_13-42-35_094959634447_rgbf000101-resize_1/003228_2014-05-14_13-42-35_094959634447_rgbf000101-resize_1-target.png,1000,1.9680000000000002,5,7148,1000,feet,jsons/v1_VE1000_randls_51_rotated.json,712349,858711,28,Man
58,596417,DepthScenes,duration_manipulation_targetAtFixation,jsons/v1_VE1000_randls_51_rotated.json,http://54.235.29.9/FacialAge/BNav_EC2/DepthDuration/v2_depth_duration_MTurk/v2_DepthDuration_HTML.html#122,122,1046,760,1600,900,8-22-2022,8-13-29,59,depth_duration_stimuli/002600_2014-06-24_14-27-04_094959634447_rgbf000074-resize_2/002600_2014-06-24_14-27-04_094959634447_rgbf000074-resize_2-target.png,1000,2.7575,9,3227,1000,feet,jsons/v1_VE1000_randls_51_rotated.json,712349,858711,28,Man
59,596417,DepthScenes,duration_manipulation_targetAtFixation,jsons/v1_VE1000_randls_51_rotated.json,http://54.235.29.9/FacialAge/BNav_EC2/DepthDuration/v2_depth_duration_MTurk/v2_DepthDuration_HTML.html#122,122,1046,760,1600,900,8-22-2022,8-13-29,60,depth_duration_stimuli/001235_2014-06-17_16-37-36_260595134347_rgbf000084-resize_4/001235_2014-06-17_16-37-36_260595134347_rgbf000084-resize_4-target.png,1000,3.6605,11,3371,999,feet,jsons/v1_VE1000_randls_51_rotated.json,712349,858711,28,Man
60,596417,DepthScenes,duration_manipulation_targetAtFixation,jsons/v1_VE1000_randls_51_rotated.json,http://54.235.29.9/FacialAge/BNav_EC2/DepthDuration/v2_depth_duration_MTurk/v2_DepthDuration_HTML.html#122,122,1046,760,1600,900,8-22-2022,8-13-29,61,depth_duration_stimuli/000788_2014-06-08_22-34-36_260595134347_rgbf000131-resize_1/000788_2014-06-08_22-34-36_260595134347_rgbf000131-resize_1-target.png,1000,3.359,8,3292,1000,feet,jsons/v1_VE1000_randls_51_rotated.json,712349,858711,28,Man
61,596417,DepthScenes,duration_manipulation_targetAtFixation,jsons/v1_VE1000_randls_51_rotated.json,http://54.235.29.9/FacialAge/BNav_EC2/DepthDuration/v2_depth_duration_MTurk/v2_DepthDuration_HTML.html#122,122,1046,760,1600,900,8-22-2022,8-13-29,62,depth_duration_stimuli/001100_2014-06-15_17-46-26_260595134347_rgbf000225-resize_2/001100_2014-06-15_17-46-26_260595134347_rgbf000225-resize_2-target.png,1000,2.24,4,3005,999,feet,jsons/v1_VE1000_randls_51_rotated.json,712349,858711,28,Man
62,596417,DepthScenes,duration_manipulation_targetAtFixation,jsons/v1_VE1000_randls_51_rotated.json,http://54.235.29.9/FacialAge/BNav_EC2/DepthDuration/v2_depth_duration_MTurk/v2_DepthDuration_HTML.html#122,122,1046,760,1600,900,8-22-2022,8-13-29,63,depth_duration_stimuli/002784_2014-06-22_19-26-30_094959634447_rgbf000083-resize_3/002784_2014-06-22_19-26-30_094959634447_rgbf000083-resize_3-target.png,1000,1.8046666666667,6,3066,999,feet,jsons/v1_VE1000_randls_51_rotated.json,712349,858711,28,Man
63,596417,DepthScenes,duration_manipulation_targetAtFixation,jsons/v1_VE1000_randls_51_rotated.json,http://54.235.29.9/FacialAge/BNav_EC2/DepthDuration/v2_depth_duration_MTurk/v2_DepthDuration_HTML.html#122,122,1046,760,1600,900,8-22-2022,8-13-29,64,depth_duration_stimuli/000943_2014-06-09_19-31-07_260595134347_rgbf000128-resize_1/000943_2014-06-09_19-31-07_260595134347_rgbf000128-resize_1-target.png,1000,1.9765,5,4698,1000,feet,jsons/v1_VE1000_randls_51_rotated.json,712349,858711,28,Man
64,596417,DepthScenes,duration_manipulation_targetAtFixation,jsons/v1_VE1000_randls_51_rotated.json,http://54.235.29.9/FacialAge/BNav_EC2/DepthDuration/v2_depth_duration_MTurk/v2_DepthDuration_HTML.html#122,122,1046,760,1600,900,8-22-2022,8-13-29,65,depth_duration_stimuli/003070_2014-06-15_14-58-27_094959634447_rgbf000150-resize_3/003070_2014-06-15_14-58-27_094959634447_rgbf000150-resize_3-target.png,1000,2.9415,13,2939,1000,feet,jsons/v1_VE1000_randls_51_rotated.json,712349,858711,28,Man
65,596417,DepthScenes,duration_manipulation_targetAtFixation,jsons/v1_VE1000_randls_51_rotated.json,http://54.235.29.9/FacialAge/BNav_EC2/DepthDuration/v2_depth_duration_MTurk/v2_DepthDuration_HTML.html#122,122,1046,760,1600,900,8-22-2022,8-13-29,66,depth_duration_stimuli/001540_2014-06-20_17-01-05_260595134347_rgbf000086-resize_2/001540_2014-06-20_17-01-05_260595134347_rgbf000086-resize-original.jpg,1000,1.459,0,3550,999,feet,jsons/v1_VE1000_randls_51_rotated.json,712349,858711,28,Man
66,596417,DepthScenes,duration_manipulation_targetAtFixation,jsons/v1_VE1000_randls_51_rotated.json,http://54.235.29.9/FacialAge/BNav_EC2/DepthDuration/v2_depth_duration_MTurk/v2_DepthDuration_HTML.html#122,122,1046,760,1600,900,8-22-2022,8-13-29,67,depth_duration_stimuli/003129_2014-05-12_10-48-10_094959634447_rgbf000100-resize_0/003129_2014-05-12_10-48-10_094959634447_rgbf000100-resize_0-target.png,1000,4.9305,17,3351,999,feet,jsons/v1_VE1000_randls_51_rotated.json,712349,858711,28,Man
67,596417,DepthScenes,duration_manipulation_targetAtFixation,jsons/v1_VE1000_randls_51_rotated.json,http://54.235.29.9/FacialAge/BNav_EC2/DepthDuration/v2_depth_duration_MTurk/v2_DepthDuration_HTML.html#122,122,1046,760,1600,900,8-22-2022,8-13-29,68,depth_duration_stimuli/000414_2014-06-04_19-49-13_260595134347_rgbf000044-resize_0/000414_2014-06-04_19-49-13_260595134347_rgbf000044-resize_0-target.png,1000,4.329,15,4475,999,feet,jsons/v1_VE1000_randls_51_rotated.json,712349,858711,28,Man
68,596417,DepthScenes,duration_manipulation_targetAtFixation,jsons/v1_VE1000_randls_51_rotated.json,http://54.235.29.9/FacialAge/BNav_EC2/DepthDuration/v2_depth_duration_MTurk/v2_DepthDuration_HTML.html#122,122,1046,760,1600,900,8-22-2022,8-13-29,69,depth_duration_stimuli/002995_2014-06-15_12-31-26_094959634447_rgbf000150-resize_1/002995_2014-06-15_12-31-26_094959634447_rgbf000150-resize_1-target.png,1000,3.8360000000000003,17,3291,999,feet,jsons/v1_VE1000_randls_51_rotated.json,712349,858711,28,Man
69,596417,DepthScenes,duration_manipulation_targetAtFixation,jsons/v1_VE1000_randls_51_rotated.json,http://54.235.29.9/FacialAge/BNav_EC2/DepthDuration/v2_depth_duration_MTurk/v2_DepthDuration_HTML.html#122,122,1046,760,1600,900,8-22-2022,8-13-29,70,depth_duration_stimuli/002748_2014-06-22_19-07-22_094959634447_rgbf000078-resize_1/002748_2014-06-22_19-07-22_094959634447_rgbf000078-resize_1-target.png,1000,4.6705,18,3276,999,feet,jsons/v1_VE1000_randls_51_rotated.json,712349,858711,28,Man
70,596417,DepthScenes,duration_manipulation_targetAtFixation,jsons/v1_VE1000_randls_51_rotated.json,http://54.235.29.9/FacialAge/BNav_EC2/DepthDuration/v2_depth_duration_MTurk/v2_DepthDuration_HTML.html#122,122,1046,760,1600,900,8-22-2022,8-13-29,71,depth_duration_stimuli/000742_2014-06-08_18-48-09_260595134347_rgbf000164-resize_4/000742_2014-06-08_18-48-09_260595134347_rgbf000164-resize_4-target.png,1000,4.632,15,2974,999,feet,jsons/v1_VE1000_randls_51_rotated.json,712349,858711,28,Man
71,596417,DepthScenes,duration_manipulation_targetAtFixation,jsons/v1_VE1000_randls_51_rotated.json,http://54.235.29.9/FacialAge/BNav_EC2/DepthDuration/v2_depth_duration_MTurk/v2_DepthDuration_HTML.html#122,122,1046,760,1600,900,8-22-2022,8-13-29,72,depth_duration_stimuli/001066_2014-06-08_22-03-20_260595134347_rgbf000066-resize_4/001066_2014-06-08_22-03-20_260595134347_rgbf000066-resize_4-target.png,1000,4.2330000000000005,22,2874,999,feet,jsons/v1_VE1000_randls_51_rotated.json,712349,858711,28,Man
72,596417,DepthScenes,duration_manipulation_targetAtFixation,jsons/v1_VE1000_randls_51_rotated.json,http://54.235.29.9/FacialAge/BNav_EC2/DepthDuration/v2_depth_duration_MTurk/v2_DepthDuration_HTML.html#122,122,1046,760,1600,900,8-22-2022,8-13-29,73,depth_duration_stimuli/002103_2014-06-25_20-00-40_260595134347_rgbf000049-resize_0/002103_2014-06-25_20-00-40_260595134347_rgbf000049-resize_0-target.png,1000,4.105,17,3355,999,feet,jsons/v1_VE1000_randls_51_rotated.json,712349,858711,28,Man
73,596417,DepthScenes,duration_manipulation_targetAtFixation,jsons/v1_VE1000_randls_51_rotated.json,http://54.235.29.9/FacialAge/BNav_EC2/DepthDuration/v2_depth_duration_MTurk/v2_DepthDuration_HTML.html#122,122,1046,760,1600,900,8-22-2022,8-13-29,74,depth_duration_stimuli/002039_2014-06-24_20-22-38_260595134347_rgbf000084-resize_1/002039_2014-06-24_20-22-38_260595134347_rgbf000084-resize_1-target.png,1000,4.408,15,3003,999,feet,jsons/v1_VE1000_randls_51_rotated.json,712349,858711,28,Man
74,596417,DepthScenes,duration_manipulation_targetAtFixation,jsons/v1_VE1000_randls_51_rotated.json,http://54.235.29.9/FacialAge/BNav_EC2/DepthDuration/v2_depth_duration_MTurk/v2_DepthDuration_HTML.html#122,122,1046,760,1600,900,8-22-2022,8-13-29,75,depth_duration_stimuli/000191_2014-05-12_17-07-38_260595134347_rgbf000199-resize_0/000191_2014-05-12_17-07-38_260595134347_rgbf000199-resize_0-target.png,1000,3.7995,15,2924,999,feet,jsons/v1_VE1000_randls_51_rotated.json,712349,858711,28,Man
75,596417,DepthScenes,duration_manipulation_targetAtFixation,jsons/v1_VE1000_randls_51_rotated.json,http://54.235.29.9/FacialAge/BNav_EC2/DepthDuration/v2_depth_duration_MTurk/v2_DepthDuration_HTML.html#122,122,1046,760,1600,900,8-22-2022,8-13-29,76,depth_duration_stimuli/000493_2014-06-09_21-01-18_260595134347_rgbf000196-resize_3/000493_2014-06-09_21-01-18_260595134347_rgbf000196-resize_3-target.png,1000,3.44,13,4808,999,feet,jsons/v1_VE1000_randls_51_rotated.json,712349,858711,28,Man
76,596417,DepthScenes,duration_manipulation_targetAtFixation,jsons/v1_VE1000_randls_51_rotated.json,http://54.235.29.9/FacialAge/BNav_EC2/DepthDuration/v2_depth_duration_MTurk/v2_DepthDuration_HTML.html#122,122,1046,760,1600,900,8-22-2022,8-13-29,77,depth_duration_stimuli/002660_2014-06-13_15-44-18_094959634447_rgbf001878-resize_2/002660_2014-06-13_15-44-18_094959634447_rgbf001878-resize_2-target.png,1000,3.576,12,2684,1000,feet,jsons/v1_VE1000_randls_51_rotated.json,712349,858711,28,Man
77,596417,DepthScenes,duration_manipulation_targetAtFixation,jsons/v1_VE1000_randls_51_rotated.json,http://54.235.29.9/FacialAge/BNav_EC2/DepthDuration/v2_depth_duration_MTurk/v2_DepthDuration_HTML.html#122,122,1046,760,1600,900,8-22-2022,8-13-29,78,depth_duration_stimuli/002153_2014-06-25_21-27-18_260595134347_rgbf000038-resize_5/002153_2014-06-25_21-27-18_260595134347_rgbf000038-resize_5-target.png,1000,2.505,6,2765,1001,feet,jsons/v1_VE1000_randls_51_rotated.json,712349,858711,28,Man
78,596417,DepthScenes,duration_manipulation_targetAtFixation,jsons/v1_VE1000_randls_51_rotated.json,http://54.235.29.9/FacialAge/BNav_EC2/DepthDuration/v2_depth_duration_MTurk/v2_DepthDuration_HTML.html#122,122,1046,760,1600,900,8-22-2022,8-13-29,79,depth_duration_stimuli/001815_2014-06-26_20-52-55_260595134347_rgbf000020-resize_0/001815_2014-06-26_20-52-55_260595134347_rgbf000020-resize_0-target.png,1000,3.3865,12,2888,1000,feet,jsons/v1_VE1000_randls_51_rotated.json,712349,858711,28,Man
79,596417,DepthScenes,duration_manipulation_targetAtFixation,jsons/v1_VE1000_randls_51_rotated.json,http://54.235.29.9/FacialAge/BNav_EC2/DepthDuration/v2_depth_duration_MTurk/v2_DepthDuration_HTML.html#122,122,1046,760,1600,900,8-22-2022,8-13-29,80,depth_duration_stimuli/001808_2014-06-26_20-50-58_260595134347_rgbf000029-resize_1/001808_2014-06-26_20-50-58_260595134347_rgbf000029-resize_1-target.png,1000,4.249,15,7037,1000,feet,jsons/v1_VE1000_randls_51_rotated.json,712349,858711,28,Man
80,596417,DepthScenes,duration_manipulation_targetAtFixation,jsons/v1_VE1000_randls_51_rotated.json,http://54.235.29.9/FacialAge/BNav_EC2/DepthDuration/v2_depth_duration_MTurk/v2_DepthDuration_HTML.html#122,122,1046,760,1600,900,8-22-2022,8-13-29,81,depth_duration_stimuli/001136_2014-06-17_15-19-41_260595134347_rgbf000076-resize_3/001136_2014-06-17_15-19-41_260595134347_rgbf000076-resize_3-target.png,1000,1.8655,7,2906,999,feet,jsons/v1_VE1000_randls_51_rotated.json,712349,858711,28,Man
81,596417,DepthScenes,duration_manipulation_targetAtFixation,jsons/v1_VE1000_randls_51_rotated.json,http://54.235.29.9/FacialAge/BNav_EC2/DepthDuration/v2_depth_duration_MTurk/v2_DepthDuration_HTML.html#122,122,1046,760,1600,900,8-22-2022,8-13-29,82,depth_duration_stimuli/001164_2014-06-17_15-35-46_260595134347_rgbf000085-resize_3/001164_2014-06-17_15-35-46_260595134347_rgbf000085-resize_3-target.png,1000,2.354,6,2748,1000,feet,jsons/v1_VE1000_randls_51_rotated.json,712349,858711,28,Man
82,596417,DepthScenes,duration_manipulation_targetAtFixation,jsons/v1_VE1000_randls_51_rotated.json,http://54.235.29.9/FacialAge/BNav_EC2/DepthDuration/v2_depth_duration_MTurk/v2_DepthDuration_HTML.html#122,122,1046,760,1600,900,8-22-2022,8-13-29,83,depth_duration_stimuli/002758_2014-06-22_19-11-20_094959634447_rgbf000128-resize_1/002758_2014-06-22_19-11-20_094959634447_rgbf000128-resize_1-target.png,1000,2.555,6,2714,999,feet,jsons/v1_VE1000_randls_51_rotated.json,712349,858711,28,Man
83,596417,DepthScenes,duration_manipulation_targetAtFixation,jsons/v1_VE1000_randls_51_rotated.json,http://54.235.29.9/FacialAge/BNav_EC2/DepthDuration/v2_depth_duration_MTurk/v2_DepthDuration_HTML.html#122,122,1046,760,1600,900,8-22-2022,8-13-29,84,depth_duration_stimuli/002630_2014-06-24_14-47-50_094959634447_rgbf000055-resize_1/002630_2014-06-24_14-47-50_094959634447_rgbf000055-resize_1-target.png,1000,3.0095,12,6575,1000,feet,jsons/v1_VE1000_randls_51_rotated.json,712349,858711,28,Man
84,596417,DepthScenes,duration_manipulation_targetAtFixation,jsons/v1_VE1000_randls_51_rotated.json,http://54.235.29.9/FacialAge/BNav_EC2/DepthDuration/v2_depth_duration_MTurk/v2_DepthDuration_HTML.html#122,122,1046,760,1600,900,8-22-2022,8-13-29,85,depth_duration_stimuli/001447_2014-06-19_17-00-32_260595134347_rgbf000082-resize_5/001447_2014-06-19_17-00-32_260595134347_rgbf000082-resize_5-target.png,1000,4.13775,10,4087,999,feet,jsons/v1_VE1000_randls_51_rotated.json,712349,858711,28,Man
85,596417,DepthScenes,duration_manipulation_targetAtFixation,jsons/v1_VE1000_randls_51_rotated.json,http://54.235.29.9/FacialAge/BNav_EC2/DepthDuration/v2_depth_duration_MTurk/v2_DepthDuration_HTML.html#122,122,1046,760,1600,900,8-22-2022,8-13-29,86,depth_duration_stimuli/000447_2014-06-08_16-15-46_260595134347_rgbf000130-resize_1/000447_2014-06-08_16-15-46_260595134347_rgbf000130-resize_1-target.png,1000,4.479,14,2972,999,feet,jsons/v1_VE1000_randls_51_rotated.json,712349,858711,28,Man
86,596417,DepthScenes,duration_manipulation_targetAtFixation,jsons/v1_VE1000_randls_51_rotated.json,http://54.235.29.9/FacialAge/BNav_EC2/DepthDuration/v2_depth_duration_MTurk/v2_DepthDuration_HTML.html#122,122,1046,760,1600,900,8-22-2022,8-13-29,87,depth_duration_stimuli/000109_2014-05-14_23-41-52_260595134347_rgbf000035-resize_9/000109_2014-05-14_23-41-52_260595134347_rgbf000035-resize_9-target.png,1000,1.3545,4,3004,1000,feet,jsons/v1_VE1000_randls_51_rotated.json,712349,858711,28,Man
87,596417,DepthScenes,duration_manipulation_targetAtFixation,jsons/v1_VE1000_randls_51_rotated.json,http://54.235.29.9/FacialAge/BNav_EC2/DepthDuration/v2_depth_duration_MTurk/v2_DepthDuration_HTML.html#122,122,1046,760,1600,900,8-22-2022,8-13-29,88,depth_duration_stimuli/000470_2014-06-09_19-42-40_260595134347_rgbf000094-resize_1/000470_2014-06-09_19-42-40_260595134347_rgbf000094-resize_1-target.png,1000,1.831,4,2827,1001,feet,jsons/v1_VE1000_randls_51_rotated.json,712349,858711,28,Man
88,596417,DepthScenes,duration_manipulation_targetAtFixation,jsons/v1_VE1000_randls_51_rotated.json,http://54.235.29.9/FacialAge/BNav_EC2/DepthDuration/v2_depth_duration_MTurk/v2_DepthDuration_HTML.html#122,122,1046,760,1600,900,8-22-2022,8-13-29,89,depth_duration_stimuli/003081_2014-06-15_15-19-16_094959634447_rgbf000150-resize_1/003081_2014-06-15_15-19-16_094959634447_rgbf000150-resize_1-target.png,1000,3.9125,12,3977,999,feet,jsons/v1_VE1000_randls_51_rotated.json,712349,858711,28,Man
89,596417,DepthScenes,duration_manipulation_targetAtFixation,jsons/v1_VE1000_randls_51_rotated.json,http://54.235.29.9/FacialAge/BNav_EC2/DepthDuration/v2_depth_duration_MTurk/v2_DepthDuration_HTML.html#122,122,1046,760,1600,900,8-22-2022,8-13-29,90,depth_duration_stimuli/001417_2014-06-19_16-25-36_260595134347_rgbf000115-resize_5/001417_2014-06-19_16-25-36_260595134347_rgbf000115-resize_5-target.png,1000,4.6255,15,3532,1000,feet,jsons/v1_VE1000_randls_51_rotated.json,712349,858711,28,Man
90,596417,DepthScenes,duration_manipulation_targetAtFixation,jsons/v1_VE1000_randls_51_rotated.json,http://54.235.29.9/FacialAge/BNav_EC2/DepthDuration/v2_depth_duration_MTurk/v2_DepthDuration_HTML.html#122,122,1046,760,1600,900,8-22-2022,8-13-29,91,depth_duration_stimuli/001094_2014-06-15_17-36-00_260595134347_rgbf000205-resize_0/001094_2014-06-15_17-36-00_260595134347_rgbf000205-resize_0-target.png,1000,4.2175,22,4011,999,feet,jsons/v1_VE1000_randls_51_rotated.json,712349,858711,28,Man
91,596417,DepthScenes,duration_manipulation_targetAtFixation,jsons/v1_VE1000_randls_51_rotated.json,http://54.235.29.9/FacialAge/BNav_EC2/DepthDuration/v2_depth_duration_MTurk/v2_DepthDuration_HTML.html#122,122,1046,760,1600,900,8-22-2022,8-13-29,92,depth_duration_stimuli/000692_2014-06-08_13-09-42_260595134347_rgbf000199-resize_2/000692_2014-06-08_13-09-42_260595134347_rgbf000199-resize_2-target.png,1000,3.661,21,2840,999,feet,jsons/v1_VE1000_randls_51_rotated.json,712349,858711,28,Man
92,596417,DepthScenes,duration_manipulation_targetAtFixation,jsons/v1_VE1000_randls_51_rotated.json,http://54.235.29.9/FacialAge/BNav_EC2/DepthDuration/v2_depth_duration_MTurk/v2_DepthDuration_HTML.html#122,122,1046,760,1600,900,8-22-2022,8-13-29,93,depth_duration_stimuli/002639_2014-06-24_14-51-37_094959634447_rgbf000074-resize_4/002639_2014-06-24_14-51-37_094959634447_rgbf000074-resize_4-target.png,1000,4.0375,18,3371,1000,feet,jsons/v1_VE1000_randls_51_rotated.json,712349,858711,28,Man
93,596417,DepthScenes,duration_manipulation_targetAtFixation,jsons/v1_VE1000_randls_51_rotated.json,http://54.235.29.9/FacialAge/BNav_EC2/DepthDuration/v2_depth_duration_MTurk/v2_DepthDuration_HTML.html#122,122,1046,760,1600,900,8-22-2022,8-13-29,94,depth_duration_stimuli/003292_2014-05-14_21-53-49_094959634447_rgbf000100-resize_2/003292_2014-05-14_21-53-49_094959634447_rgbf000100-resize_2-target.png,1000,3.4815,10,2715,1000,feet,jsons/v1_VE1000_randls_51_rotated.json,712349,858711,28,Man
94,596417,DepthScenes,duration_manipulation_targetAtFixation,jsons/v1_VE1000_randls_51_rotated.json,http://54.235.29.9/FacialAge/BNav_EC2/DepthDuration/v2_depth_duration_MTurk/v2_DepthDuration_HTML.html#122,122,1046,760,1600,900,8-22-2022,8-13-29,95,depth_duration_stimuli/000927_2014-06-09_16-32-30_260595134347_rgbf000123-resize_3/000927_2014-06-09_16-32-30_260595134347_rgbf000123-resize_3-target.png,1000,2.6785,11,2890,998,feet,jsons/v1_VE1000_randls_51_rotated.json,712349,858711,28,Man
95,596417,DepthScenes,duration_manipulation_targetAtFixation,jsons/v1_VE1000_randls_51_rotated.json,http://54.235.29.9/FacialAge/BNav_EC2/DepthDuration/v2_depth_duration_MTurk/v2_DepthDuration_HTML.html#122,122,1046,760,1600,900,8-22-2022,8-13-29,96,depth_duration_stimuli/001110_2014-06-15_17-25-28_260595134347_rgbf000150-resize_1/001110_2014-06-15_17-25-28_260595134347_rgbf000150-resize_1-target.png,1000,1.7115,7,3055,998,feet,jsons/v1_VE1000_randls_51_rotated.json,712349,858711,28,Man
96,596417,DepthScenes,duration_manipulation_targetAtFixation,jsons/v1_VE1000_randls_51_rotated.json,http://54.235.29.9/FacialAge/BNav_EC2/DepthDuration/v2_depth_duration_MTurk/v2_DepthDuration_HTML.html#122,122,1046,760,1600,900,8-22-2022,8-13-29,97,depth_duration_stimuli/000549_2014-06-08_22-10-24_260595134347_rgbf000247-resize_3/000549_2014-06-08_22-10-24_260595134347_rgbf000247-resize_3-target.png,1000,1.841,5,2840,1000,feet,jsons/v1_VE1000_randls_51_rotated.json,712349,858711,28,Man
97,596417,DepthScenes,duration_manipulation_targetAtFixation,jsons/v1_VE1000_randls_51_rotated.json,http://54.235.29.9/FacialAge/BNav_EC2/DepthDuration/v2_depth_duration_MTurk/v2_DepthDuration_HTML.html#122,122,1046,760,1600,900,8-22-2022,8-13-29,98,depth_duration_stimuli/001055_2014-06-08_18-45-35_260595134347_rgbf000111-resize_4/001055_2014-06-08_18-45-35_260595134347_rgbf000111-resize_4-target.png,1000,2.4290000000000003,17,5291,1001,feet,jsons/v1_VE1000_randls_51_rotated.json,712349,858711,28,Man
98,596417,DepthScenes,duration_manipulation_targetAtFixation,jsons/v1_VE1000_randls_51_rotated.json,http://54.235.29.9/FacialAge/BNav_EC2/DepthDuration/v2_depth_duration_MTurk/v2_DepthDuration_HTML.html#122,122,1046,760,1600,900,8-22-2022,8-13-29,99,depth_duration_stimuli/001222_2014-06-17_16-24-06_260595134347_rgbf000073-resize_0/001222_2014-06-17_16-24-06_260595134347_rgbf000073-resize-original.jpg,1000,1.4385,0,3598,999,feet,jsons/v1_VE1000_randls_51_rotated.json,712349,858711,28,Man
99,596417,DepthScenes,duration_manipulation_targetAtFixation,jsons/v1_VE1000_randls_51_rotated.json,http://54.235.29.9/FacialAge/BNav_EC2/DepthDuration/v2_depth_duration_MTurk/v2_DepthDuration_HTML.html#122,122,1046,760,1600,900,8-22-2022,8-13-29,100,depth_duration_stimuli/002949_2014-06-26_15-57-42_094959634447_rgbf000079-resize_1/002949_2014-06-26_15-57-42_094959634447_rgbf000079-resize_1-target.png,1000,1.8915,5,2860,999,feet,jsons/v1_VE1000_randls_51_rotated.json,712349,858711,28,Man
100,596417,DepthScenes,duration_manipulation_targetAtFixation,jsons/v1_VE1000_randls_51_rotated.json,http://54.235.29.9/FacialAge/BNav_EC2/DepthDuration/v2_depth_duration_MTurk/v2_DepthDuration_HTML.html#122,122,1046,760,1600,900,8-22-2022,8-13-29,101,depth_duration_stimuli/000522_2014-06-08_13-35-06_260595134347_rgbf000244-resize_1/000522_2014-06-08_13-35-06_260595134347_rgbf000244-resize_1-target.png,1000,2.3715,3,4605,1000,feet,jsons/v1_VE1000_randls_51_rotated.json,712349,858711,28,Man
101,596417,DepthScenes,duration_manipulation_targetAtFixation,jsons/v1_VE1000_randls_51_rotated.json,http://54.235.29.9/FacialAge/BNav_EC2/DepthDuration/v2_depth_duration_MTurk/v2_DepthDuration_HTML.html#122,122,1046,760,1600,900,8-22-2022,8-13-29,102,depth_duration_stimuli/000854_2014-06-09_19-43-13_260595134347_rgbf000066-resize_0/000854_2014-06-09_19-43-13_260595134347_rgbf000066-resize_0-target.png,1000,3.068,5,3672,999,feet,jsons/v1_VE1000_randls_51_rotated.json,712349,858711,28,Man
102,596417,DepthScenes,duration_manipulation_targetAtFixation,jsons/v1_VE1000_randls_51_rotated.json,http://54.235.29.9/FacialAge/BNav_EC2/DepthDuration/v2_depth_duration_MTurk/v2_DepthDuration_HTML.html#122,122,1046,760,1600,900,8-22-2022,8-13-29,103,depth_duration_stimuli/000758_2014-06-08_22-05-08_260595134347_rgbf000085-resize_0/000758_2014-06-08_22-05-08_260595134347_rgbf000085-resize_0-target.png,1000,3.3810000000000002,11,5931,999,feet,jsons/v1_VE1000_randls_51_rotated.json,712349,858711,28,Man
103,596417,DepthScenes,duration_manipulation_targetAtFixation,jsons/v1_VE1000_randls_51_rotated.json,http://54.235.29.9/FacialAge/BNav_EC2/DepthDuration/v2_depth_duration_MTurk/v2_DepthDuration_HTML.html#122,122,1046,760,1600,900,8-22-2022,8-13-29,104,depth_duration_stimuli/000457_2014-06-08_16-52-43_260595134347_rgbf000199-resize_1/000457_2014-06-08_16-52-43_260595134347_rgbf000199-resize_1-target.png,1000,3.6489999999999996,9,3390,999,feet,jsons/v1_VE1000_randls_51_rotated.json,712349,858711,28,Man
104,596417,DepthScenes,duration_manipulation_targetAtFixation,jsons/v1_VE1000_randls_51_rotated.json,http://54.235.29.9/FacialAge/BNav_EC2/DepthDuration/v2_depth_duration_MTurk/v2_DepthDuration_HTML.html#122,122,1046,760,1600,900,8-22-2022,8-13-29,105,depth_duration_stimuli/000929_2014-06-09_16-33-19_260595134347_rgbf000139-resize_0/000929_2014-06-09_16-33-19_260595134347_rgbf000139-resize_0-target.png,1000,2.8680000000000003,7,3479,999,feet,jsons/v1_VE1000_randls_51_rotated.json,712349,858711,28,Man
105,596417,DepthScenes,duration_manipulation_targetAtFixation,jsons/v1_VE1000_randls_51_rotated.json,http://54.235.29.9/FacialAge/BNav_EC2/DepthDuration/v2_depth_duration_MTurk/v2_DepthDuration_HTML.html#122,122,1046,760,1600,900,8-22-2022,8-13-29,106,depth_duration_stimuli/002199_2014-06-28_18-33-56_260595134347_rgbf000074-resize_0/002199_2014-06-28_18-33-56_260595134347_rgbf000074-resize_0-target.png,1000,1.996,3,2669,1000,feet,jsons/v1_VE1000_randls_51_rotated.json,712349,858711,28,Man
106,596417,DepthScenes,duration_manipulation_targetAtFixation,jsons/v1_VE1000_randls_51_rotated.json,http://54.235.29.9/FacialAge/BNav_EC2/DepthDuration/v2_depth_duration_MTurk/v2_DepthDuration_HTML.html#122,122,1046,760,1600,900,8-22-2022,8-13-29,107,depth_duration_stimuli/001056_2014-06-08_18-46-44_260595134347_rgbf000068-resize_0/001056_2014-06-08_18-46-44_260595134347_rgbf000068-resize_0-target.png,1000,2.6625,8,4204,1000,feet,jsons/v1_VE1000_randls_51_rotated.json,712349,858711,28,Man
107,596417,DepthScenes,duration_manipulation_targetAtFixation,jsons/v1_VE1000_randls_51_rotated.json,http://54.235.29.9/FacialAge/BNav_EC2/DepthDuration/v2_depth_duration_MTurk/v2_DepthDuration_HTML.html#122,122,1046,760,1600,900,8-22-2022,8-13-29,108,depth_duration_stimuli/002323_2014-06-28_20-01-54_260595134347_rgbf000051-resize_4/002323_2014-06-28_20-01-54_260595134347_rgbf000051-resize_4-target.png,1000,3.7310000000000003,15,3003,999,feet,jsons/v1_VE1000_randls_51_rotated.json,712349,858711,28,Man
108,596417,DepthScenes,duration_manipulation_targetAtFixation,jsons/v1_VE1000_randls_51_rotated.json,http://54.235.29.9/FacialAge/BNav_EC2/DepthDuration/v2_depth_duration_MTurk/v2_DepthDuration_HTML.html#122,122,1046,760,1600,900,8-22-2022,8-13-29,109,depth_duration_stimuli/000917_2014-06-09_22-45-29_260595134347_rgbf000149-resize_3/000917_2014-06-09_22-45-29_260595134347_rgbf000149-resize_3-target.png,1000,4.1865,12,2921,1000,feet,jsons/v1_VE1000_randls_51_rotated.json,712349,858711,28,Man
109,596417,DepthScenes,duration_manipulation_targetAtFixation,jsons/v1_VE1000_randls_51_rotated.json,http://54.235.29.9/FacialAge/BNav_EC2/DepthDuration/v2_depth_duration_MTurk/v2_DepthDuration_HTML.html#122,122,1046,760,1600,900,8-22-2022,8-13-29,110,depth_duration_stimuli/002136_2014-06-25_21-18-03_260595134347_rgbf000109-resize_3/002136_2014-06-25_21-18-03_260595134347_rgbf000109-resize_3-target.png,1000,1.9569999999999999,7,3309,1000,feet,jsons/v1_VE1000_randls_51_rotated.json,712349,858711,28,Man
110,596417,DepthScenes,duration_manipulation_targetAtFixation,jsons/v1_VE1000_randls_51_rotated.json,http://54.235.29.9/FacialAge/BNav_EC2/DepthDuration/v2_depth_duration_MTurk/v2_DepthDuration_HTML.html#122,122,1046,760,1600,900,8-22-2022,8-13-29,111,depth_duration_stimuli/002964_2014-06-08_17-46-11_094959634447_rgbf000091-resize_4/002964_2014-06-08_17-46-11_094959634447_rgbf000091-resize_4-target.png,1000,1.6909999999999998,5,9246,1000,feet,jsons/v1_VE1000_randls_51_rotated.json,712349,858711,28,Man
111,596417,DepthScenes,duration_manipulation_targetAtFixation,jsons/v1_VE1000_randls_51_rotated.json,http://54.235.29.9/FacialAge/BNav_EC2/DepthDuration/v2_depth_duration_MTurk/v2_DepthDuration_HTML.html#122,122,1046,760,1600,900,8-22-2022,8-13-29,112,depth_duration_stimuli/001617_2014-06-20_11-35-32_260595134347_rgbf000066-resize_1/001617_2014-06-20_11-35-32_260595134347_rgbf000066-resize_1-target.png,1000,3.7910000000000004,15,3352,999,feet,jsons/v1_VE1000_randls_51_rotated.json,712349,858711,28,Man
112,596417,DepthScenes,duration_manipulation_targetAtFixation,jsons/v1_VE1000_randls_51_rotated.json,http://54.235.29.9/FacialAge/BNav_EC2/DepthDuration/v2_depth_duration_MTurk/v2_DepthDuration_HTML.html#122,122,1046,760,1600,900,8-22-2022,8-13-29,113,depth_duration_stimuli/001806_2014-06-26_20-50-20_260595134347_rgbf000091-resize_1/001806_2014-06-26_20-50-20_260595134347_rgbf000091-resize_1-target.png,1000,2.7305,5,2697,999,feet,jsons/v1_VE1000_randls_51_rotated.json,712349,858711,28,Man
113,596417,DepthScenes,duration_manipulation_targetAtFixation,jsons/v1_VE1000_randls_51_rotated.json,http://54.235.29.9/FacialAge/BNav_EC2/DepthDuration/v2_depth_duration_MTurk/v2_DepthDuration_HTML.html#122,122,1046,760,1600,900,8-22-2022,8-13-29,114,depth_duration_stimuli/000691_2014-06-08_13-08-50_260595134347_rgbf000132-resize_3/000691_2014-06-08_13-08-50_260595134347_rgbf000132-resize_3-target.png,1000,4.1530000000000005,12,2865,1000,feet,jsons/v1_VE1000_randls_51_rotated.json,712349,858711,28,Man
114,596417,DepthScenes,duration_manipulation_targetAtFixation,jsons/v1_VE1000_randls_51_rotated.json,http://54.235.29.9/FacialAge/BNav_EC2/DepthDuration/v2_depth_duration_MTurk/v2_DepthDuration_HTML.html#122,122,1046,760,1600,900,8-22-2022,8-13-29,115,depth_duration_stimuli/002213_2014-06-28_18-37-58_260595134347_rgbf000055-resize_1/002213_2014-06-28_18-37-58_260595134347_rgbf000055-resize_1-target.png,1000,3.62,15,2854,1001,feet,jsons/v1_VE1000_randls_51_rotated.json,712349,858711,28,Man
115,596417,DepthScenes,duration_manipulation_targetAtFixation,jsons/v1_VE1000_randls_51_rotated.json,http://54.235.29.9/FacialAge/BNav_EC2/DepthDuration/v2_depth_duration_MTurk/v2_DepthDuration_HTML.html#122,122,1046,760,1600,900,8-22-2022,8-13-29,116,depth_duration_stimuli/002568_2014-06-24_13-59-21_094959634447_rgbf000062-resize_4/002568_2014-06-24_13-59-21_094959634447_rgbf000062-resize_4-target.png,1000,3.015,8,5883,1001,feet,jsons/v1_VE1000_randls_51_rotated.json,712349,858711,28,Man
116,596417,DepthScenes,duration_manipulation_targetAtFixation,jsons/v1_VE1000_randls_51_rotated.json,http://54.235.29.9/FacialAge/BNav_EC2/DepthDuration/v2_depth_duration_MTurk/v2_DepthDuration_HTML.html#122,122,1046,760,1600,900,8-22-2022,8-13-29,117,depth_duration_stimuli/003492_2014-05-21_15-50-55_094959634447_rgbf000828-resize_1/003492_2014-05-21_15-50-55_094959634447_rgbf000828-resize_1-target.png,1000,4.06875,12,3086,1000,feet,jsons/v1_VE1000_randls_51_rotated.json,712349,858711,28,Man
117,596417,DepthScenes,duration_manipulation_targetAtFixation,jsons/v1_VE1000_randls_51_rotated.json,http://54.235.29.9/FacialAge/BNav_EC2/DepthDuration/v2_depth_duration_MTurk/v2_DepthDuration_HTML.html#122,122,1046,760,1600,900,8-22-2022,8-13-29,118,depth_duration_stimuli/003495_2014-05-21_16-01-51_094959634447_rgbf000100-resize_3/003495_2014-05-21_16-01-51_094959634447_rgbf000100-resize_3-target.png,1000,1.6255,5,2732,1000,feet,jsons/v1_VE1000_randls_51_rotated.json,712349,858711,28,Man
118,596417,DepthScenes,duration_manipulation_targetAtFixation,jsons/v1_VE1000_randls_51_rotated.json,http://54.235.29.9/FacialAge/BNav_EC2/DepthDuration/v2_depth_duration_MTurk/v2_DepthDuration_HTML.html#122,122,1046,760,1600,900,8-22-2022,8-13-29,119,depth_duration_stimuli/001244_2014-06-17_16-47-45_260595134347_rgbf000030-resize_4/001244_2014-06-17_16-47-45_260595134347_rgbf000030-resize_4-target.png,1000,2.0425,6,2932,999,feet,jsons/v1_VE1000_randls_51_rotated.json,712349,858711,28,Man
119,596417,DepthScenes,duration_manipulation_targetAtFixation,jsons/v1_VE1000_randls_51_rotated.json,http://54.235.29.9/FacialAge/BNav_EC2/DepthDuration/v2_depth_duration_MTurk/v2_DepthDuration_HTML.html#122,122,1046,760,1600,900,8-22-2022,8-13-29,120,depth_duration_stimuli/000787_2014-06-08_22-33-53_260595134347_rgbf000175-resize_1/000787_2014-06-08_22-33-53_260595134347_rgbf000175-resize-original.jpg,1000,4.784,0,3453,999,feet,jsons/v1_VE1000_randls_51_rotated.json,712349,858711,28,Man
120,596417,DepthScenes,duration_manipulation_targetAtFixation,jsons/v1_VE1000_randls_51_rotated.json,http://54.235.29.9/FacialAge/BNav_EC2/DepthDuration/v2_depth_duration_MTurk/v2_DepthDuration_HTML.html#122,122,1046,760,1600,900,8-22-2022,8-13-29,121,depth_duration_stimuli/001516_2014-06-20_16-25-09_260595134347_rgbf000076-resize_2/001516_2014-06-20_16-25-09_260595134347_rgbf000076-resize_2-target.png,1000,1.7445,7,3002,999,feet,jsons/v1_VE1000_randls_51_rotated.json,712349,858711,28,Man
121,596417,DepthScenes,duration_manipulation_targetAtFixation,jsons/v1_VE1000_randls_51_rotated.json,http://54.235.29.9/FacialAge/BNav_EC2/DepthDuration/v2_depth_duration_MTurk/v2_DepthDuration_HTML.html#122,122,1046,760,1600,900,8-22-2022,8-13-29,122,depth_duration_stimuli/002118_2014-06-25_20-32-08_260595134347_rgbf000078-resize_1/002118_2014-06-25_20-32-08_260595134347_rgbf000078-resize_1-target.png,1000,2.6460000000000004,6,3695,999,feet,jsons/v1_VE1000_randls_51_rotated.json,712349,858711,28,Man
122,596417,DepthScenes,duration_manipulation_targetAtFixation,jsons/v1_VE1000_randls_51_rotated.json,http://54.235.29.9/FacialAge/BNav_EC2/DepthDuration/v2_depth_duration_MTurk/v2_DepthDuration_HTML.html#122,122,1046,760,1600,900,8-22-2022,8-13-29,123,depth_duration_stimuli/000137_2014-05-20_17-04-49_260595134347_rgbf000120-resize_1/000137_2014-05-20_17-04-49_260595134347_rgbf000120-resize_1-target.png,1000,3.786,12,3542,999,feet,jsons/v1_VE1000_randls_51_rotated.json,712349,858711,28,Man
123,596417,DepthScenes,duration_manipulation_targetAtFixation,jsons/v1_VE1000_randls_51_rotated.json,http://54.235.29.9/FacialAge/BNav_EC2/DepthDuration/v2_depth_duration_MTurk/v2_DepthDuration_HTML.html#122,122,1046,760,1600,900,8-22-2022,8-13-29,124,depth_duration_stimuli/000736_2014-06-08_18-24-15_260595134347_rgbf000206-resize_3/000736_2014-06-08_18-24-15_260595134347_rgbf000206-resize_3-target.png,1000,3.515,8,2988,999,feet,jsons/v1_VE1000_randls_51_rotated.json,712349,858711,28,Man
124,596417,DepthScenes,duration_manipulation_targetAtFixation,jsons/v1_VE1000_randls_51_rotated.json,http://54.235.29.9/FacialAge/BNav_EC2/DepthDuration/v2_depth_duration_MTurk/v2_DepthDuration_HTML.html#122,122,1046,760,1600,900,8-22-2022,8-13-29,125,depth_duration_stimuli/001828_2014-06-26_21-40-03_260595134347_rgbf000024-resize_0/001828_2014-06-26_21-40-03_260595134347_rgbf000024-resize_0-target.png,1000,4.8260000000000005,11,3482,1000,feet,jsons/v1_VE1000_randls_51_rotated.json,712349,858711,28,Man
125,596417,DepthScenes,duration_manipulation_targetAtFixation,jsons/v1_VE1000_randls_51_rotated.json,http://54.235.29.9/FacialAge/BNav_EC2/DepthDuration/v2_depth_duration_MTurk/v2_DepthDuration_HTML.html#122,122,1046,760,1600,900,8-22-2022,8-13-29,126,depth_duration_stimuli/000009_2014-05-26_14-32-05_260595134347_rgbf000034-resize_3/000009_2014-05-26_14-32-05_260595134347_rgbf000034-resize_3-target.png,1000,3.8715,13,3100,1000,feet,jsons/v1_VE1000_randls_51_rotated.json,712349,858711,28,Man
126,596417,DepthScenes,duration_manipulation_targetAtFixation,jsons/v1_VE1000_randls_51_rotated.json,http://54.235.29.9/FacialAge/BNav_EC2/DepthDuration/v2_depth_duration_MTurk/v2_DepthDuration_HTML.html#122,122,1046,760,1600,900,8-22-2022,8-13-29,127,depth_duration_stimuli/000677_2014-06-08_23-10-32_260595134347_rgbf000158-resize_6/000677_2014-06-08_23-10-32_260595134347_rgbf000158-resize_6-target.png,1000,3.556,10,2620,1000,feet,jsons/v1_VE1000_randls_51_rotated.json,712349,858711,28,Man
127,596417,DepthScenes,duration_manipulation_targetAtFixation,jsons/v1_VE1000_randls_51_rotated.json,http://54.235.29.9/FacialAge/BNav_EC2/DepthDuration/v2_depth_duration_MTurk/v2_DepthDuration_HTML.html#122,122,1046,760,1600,900,8-22-2022,8-13-29,128,depth_duration_stimuli/001029_2014-06-08_13-17-57_260595134347_rgbf000065-resize_1/001029_2014-06-08_13-17-57_260595134347_rgbf000065-resize_1-target.png,1000,3.0835,9,5993,999,feet,jsons/v1_VE1000_randls_51_rotated.json,712349,858711,28,Man
128,596417,DepthScenes,duration_manipulation_targetAtFixation,jsons/v1_VE1000_randls_51_rotated.json,http://54.235.29.9/FacialAge/BNav_EC2/DepthDuration/v2_depth_duration_MTurk/v2_DepthDuration_HTML.html#122,122,1046,760,1600,900,8-22-2022,8-13-29,129,depth_duration_stimuli/002875_2014-06-01_15-19-00_094959634447_rgbf000151-resize_1/002875_2014-06-01_15-19-00_094959634447_rgbf000151-resize_1-target.png,1000,1.9675,7,3647,1000,feet,jsons/v1_VE1000_randls_51_rotated.json,712349,858711,28,Man
129,596417,DepthScenes,duration_manipulation_targetAtFixation,jsons/v1_VE1000_randls_51_rotated.json,http://54.235.29.9/FacialAge/BNav_EC2/DepthDuration/v2_depth_duration_MTurk/v2_DepthDuration_HTML.html#122,122,1046,760,1600,900,8-22-2022,8-13-29,130,depth_duration_stimuli/001011_2014-06-08_23-18-54_260595134347_rgbf000044-resize_4/001011_2014-06-08_23-18-54_260595134347_rgbf000044-resize_4-target.png,1000,2.4730000000000003,8,3513,1000,feet,jsons/v1_VE1000_randls_51_rotated.json,712349,858711,28,Man
130,596417,DepthScenes,duration_manipulation_targetAtFixation,jsons/v1_VE1000_randls_51_rotated.json,http://54.235.29.9/FacialAge/BNav_EC2/DepthDuration/v2_depth_duration_MTurk/v2_DepthDuration_HTML.html#122,122,1046,760,1600,900,8-22-2022,8-13-29,131,depth_duration_stimuli/003079_2014-06-15_15-18-20_094959634447_rgbf000152-resize_8/003079_2014-06-15_15-18-20_094959634447_rgbf000152-resize_8-target.png,1000,2.8775,8,3229,1000,feet,jsons/v1_VE1000_randls_51_rotated.json,712349,858711,28,Man
131,596417,DepthScenes,duration_manipulation_targetAtFixation,jsons/v1_VE1000_randls_51_rotated.json,http://54.235.29.9/FacialAge/BNav_EC2/DepthDuration/v2_depth_duration_MTurk/v2_DepthDuration_HTML.html#122,122,1046,760,1600,900,8-22-2022,8-13-29,132,depth_duration_stimuli/000506_2014-06-08_23-21-00_260595134347_rgbf000070-resize_7/000506_2014-06-08_23-21-00_260595134347_rgbf000070-resize_7-target.png,1000,4.0585,8,3243,999,feet,jsons/v1_VE1000_randls_51_rotated.json,712349,858711,28,Man
132,596417,DepthScenes,duration_manipulation_targetAtFixation,jsons/v1_VE1000_randls_51_rotated.json,http://54.235.29.9/FacialAge/BNav_EC2/DepthDuration/v2_depth_duration_MTurk/v2_DepthDuration_HTML.html#122,122,1046,760,1600,900,8-22-2022,8-13-29,133,depth_duration_stimuli/002414_2014-06-28_20-24-58_260595134347_rgbf000067-resize_4/002414_2014-06-28_20-24-58_260595134347_rgbf000067-resize_4-target.png,1000,4.363,12,2954,999,feet,jsons/v1_VE1000_randls_51_rotated.json,712349,858711,28,Man
133,596417,DepthScenes,duration_manipulation_targetAtFixation,jsons/v1_VE1000_randls_51_rotated.json,http://54.235.29.9/FacialAge/BNav_EC2/DepthDuration/v2_depth_duration_MTurk/v2_DepthDuration_HTML.html#122,122,1046,760,1600,900,8-22-2022,8-13-29,134,depth_duration_stimuli/000773_2014-06-08_22-24-54_260595134347_rgbf000093-resize_1/000773_2014-06-08_22-24-54_260595134347_rgbf000093-resize_1-target.png,1000,4.973,13,5386,999,feet,jsons/v1_VE1000_randls_51_rotated.json,712349,858711,28,Man
134,596417,DepthScenes,duration_manipulation_targetAtFixation,jsons/v1_VE1000_randls_51_rotated.json,http://54.235.29.9/FacialAge/BNav_EC2/DepthDuration/v2_depth_duration_MTurk/v2_DepthDuration_HTML.html#122,122,1046,760,1600,900,8-22-2022,8-13-29,135,depth_duration_stimuli/000375_2014-06-08_11-17-29_260595134347_rgbf000133-resize_2/000375_2014-06-08_11-17-29_260595134347_rgbf000133-resize-original.jpg,1000,4.718,0,3035,1000,feet,jsons/v1_VE1000_randls_51_rotated.json,712349,858711,28,Man
135,596417,DepthScenes,duration_manipulation_targetAtFixation,jsons/v1_VE1000_randls_51_rotated.json,http://54.235.29.9/FacialAge/BNav_EC2/DepthDuration/v2_depth_duration_MTurk/v2_DepthDuration_HTML.html#122,122,1046,760,1600,900,8-22-2022,8-13-29,136,depth_duration_stimuli/002657_2014-06-13_15-29-54_094959634447_rgbf000150-resize_1/002657_2014-06-13_15-29-54_094959634447_rgbf000150-resize_1-target.png,1000,4.919,15,2845,1000,feet,jsons/v1_VE1000_randls_51_rotated.json,712349,858711,28,Man
136,596417,DepthScenes,duration_manipulation_targetAtFixation,jsons/v1_VE1000_randls_51_rotated.json,http://54.235.29.9/FacialAge/BNav_EC2/DepthDuration/v2_depth_duration_MTurk/v2_DepthDuration_HTML.html#122,122,1046,760,1600,900,8-22-2022,8-13-29,137,depth_duration_stimuli/002375_2014-06-28_20-13-44_260595134347_rgbf000032-resize_1/002375_2014-06-28_20-13-44_260595134347_rgbf000032-resize_1-target.png,1000,4.0175,11,2795,999,feet,jsons/v1_VE1000_randls_51_rotated.json,712349,858711,28,Man
137,596417,DepthScenes,duration_manipulation_targetAtFixation,jsons/v1_VE1000_randls_51_rotated.json,http://54.235.29.9/FacialAge/BNav_EC2/DepthDuration/v2_depth_duration_MTurk/v2_DepthDuration_HTML.html#122,122,1046,760,1600,900,8-22-2022,8-13-29,138,depth_duration_stimuli/001052_2014-06-08_18-24-54_260595134347_rgbf000130-resize_1/001052_2014-06-08_18-24-54_260595134347_rgbf000130-resize_1-target.png,1000,4.1045,15,3047,999,feet,jsons/v1_VE1000_randls_51_rotated.json,712349,858711,28,Man
138,596417,DepthScenes,duration_manipulation_targetAtFixation,jsons/v1_VE1000_randls_51_rotated.json,http://54.235.29.9/FacialAge/BNav_EC2/DepthDuration/v2_depth_duration_MTurk/v2_DepthDuration_HTML.html#122,122,1046,760,1600,900,8-22-2022,8-13-29,139,depth_duration_stimuli/002988_2014-06-15_12-24-20_094959634447_rgbf000150-resize_1/002988_2014-06-15_12-24-20_094959634447_rgbf000150-resize_1-target.png,1000,4.7669999999999995,14,2893,1000,feet,jsons/v1_VE1000_randls_51_rotated.json,712349,858711,28,Man
139,596417,DepthScenes,duration_manipulation_targetAtFixation,jsons/v1_VE1000_randls_51_rotated.json,http://54.235.29.9/FacialAge/BNav_EC2/DepthDuration/v2_depth_duration_MTurk/v2_DepthDuration_HTML.html#122,122,1046,760,1600,900,8-22-2022,8-13-29,140,depth_duration_stimuli/002678_2014-06-13_16-15-32_094959634447_rgbf000151-resize_6/002678_2014-06-13_16-15-32_094959634447_rgbf000151-resize_6-target.png,1000,2.1830000000000003,9,3403,999,feet,jsons/v1_VE1000_randls_51_rotated.json,712349,858711,28,Man
140,596417,DepthScenes,duration_manipulation_targetAtFixation,jsons/v1_VE1000_randls_51_rotated.json,http://54.235.29.9/FacialAge/BNav_EC2/DepthDuration/v2_depth_duration_MTurk/v2_DepthDuration_HTML.html#122,122,1046,760,1600,900,8-22-2022,8-13-29,141,depth_duration_stimuli/000368_2014-06-09_15-53-01_260595134347_rgbf000155-resize_2/000368_2014-06-09_15-53-01_260595134347_rgbf000155-resize_2-target.png,1000,2.4859999999999998,7,5800,999,feet,jsons/v1_VE1000_randls_51_rotated.json,712349,858711,28,Man
141,596417,DepthScenes,duration_manipulation_targetAtFixation,jsons/v1_VE1000_randls_51_rotated.json,http://54.235.29.9/FacialAge/BNav_EC2/DepthDuration/v2_depth_duration_MTurk/v2_DepthDuration_HTML.html#122,122,1046,760,1600,900,8-22-2022,8-13-29,142,depth_duration_stimuli/001392_2014-06-19_16-07-59_260595134347_rgbf000046-resize_1/001392_2014-06-19_16-07-59_260595134347_rgbf000046-resize_1-target.png,1000,4.135,11,2783,999,feet,jsons/v1_VE1000_randls_51_rotated.json,712349,858711,28,Man
142,596417,DepthScenes,duration_manipulation_targetAtFixation,jsons/v1_VE1000_randls_51_rotated.json,http://54.235.29.9/FacialAge/BNav_EC2/DepthDuration/v2_depth_duration_MTurk/v2_DepthDuration_HTML.html#122,122,1046,760,1600,900,8-22-2022,8-13-29,143,depth_duration_stimuli/001570_2014-06-20_17-21-09_260595134347_rgbf000135-resize_4/001570_2014-06-20_17-21-09_260595134347_rgbf000135-resize_4-target.png,1000,4.467,12,2796,1000,feet,jsons/v1_VE1000_randls_51_rotated.json,712349,858711,28,Man
143,596417,DepthScenes,duration_manipulation_targetAtFixation,jsons/v1_VE1000_randls_51_rotated.json,http://54.235.29.9/FacialAge/BNav_EC2/DepthDuration/v2_depth_duration_MTurk/v2_DepthDuration_HTML.html#122,122,1046,760,1600,900,8-22-2022,8-13-29,144,depth_duration_stimuli/003490_2014-05-21_15-50-11_094959634447_rgbf000101-resize_3/003490_2014-05-21_15-50-11_094959634447_rgbf000101-resize_3-target.png,1000,3.6445,15,3208,999,feet,jsons/v1_VE1000_randls_51_rotated.json,712349,858711,28,Man
144,596417,DepthScenes,duration_manipulation_targetAtFixation,jsons/v1_VE1000_randls_51_rotated.json,http://54.235.29.9/FacialAge/BNav_EC2/DepthDuration/v2_depth_duration_MTurk/v2_DepthDuration_HTML.html#122,122,1046,760,1600,900,8-22-2022,8-13-29,145,depth_duration_stimuli/001175_2014-06-17_15-45-55_260595134347_rgbf000129-resize_4/001175_2014-06-17_15-45-55_260595134347_rgbf000129-resize_4-target.png,1000,4.255,22,2763,1000,feet,jsons/v1_VE1000_randls_51_rotated.json,712349,858711,28,Man
145,596417,DepthScenes,duration_manipulation_targetAtFixation,jsons/v1_VE1000_randls_51_rotated.json,http://54.235.29.9/FacialAge/BNav_EC2/DepthDuration/v2_depth_duration_MTurk/v2_DepthDuration_HTML.html#122,122,1046,760,1600,900,8-22-2022,8-13-29,146,depth_duration_stimuli/000780_2014-06-08_22-28-29_260595134347_rgbf000126-resize_1/000780_2014-06-08_22-28-29_260595134347_rgbf000126-resize_1-target.png,1000,3.3825,11,2682,1000,feet,jsons/v1_VE1000_randls_51_rotated.json,712349,858711,28,Man
146,596417,DepthScenes,duration_manipulation_targetAtFixation,jsons/v1_VE1000_randls_51_rotated.json,http://54.235.29.9/FacialAge/BNav_EC2/DepthDuration/v2_depth_duration_MTurk/v2_DepthDuration_HTML.html#122,122,1046,760,1600,900,8-22-2022,8-13-29,147,depth_duration_stimuli/002445_2014-06-28_20-32-16_260595134347_rgbf000029-resize_4/002445_2014-06-28_20-32-16_260595134347_rgbf000029-resize_4-target.png,1000,2.5315,8,3422,1000,feet,jsons/v1_VE1000_randls_51_rotated.json,712349,858711,28,Man
147,596417,DepthScenes,duration_manipulation_targetAtFixation,jsons/v1_VE1000_randls_51_rotated.json,http://54.235.29.9/FacialAge/BNav_EC2/DepthDuration/v2_depth_duration_MTurk/v2_DepthDuration_HTML.html#122,122,1046,760,1600,900,8-22-2022,8-13-29,148,depth_duration_stimuli/002444_2014-06-28_20-32-08_260595134347_rgbf000027-resize_0/002444_2014-06-28_20-32-08_260595134347_rgbf000027-resize_0-target.png,1000,4.388999999999999,13,3818,999,feet,jsons/v1_VE1000_randls_51_rotated.json,712349,858711,28,Man
148,596417,DepthScenes,duration_manipulation_targetAtFixation,jsons/v1_VE1000_randls_51_rotated.json,http://54.235.29.9/FacialAge/BNav_EC2/DepthDuration/v2_depth_duration_MTurk/v2_DepthDuration_HTML.html#122,122,1046,760,1600,900,8-22-2022,8-13-29,149,depth_duration_stimuli/000436_2014-06-09_22-25-11_260595134347_rgbf000137-resize_1/000436_2014-06-09_22-25-11_260595134347_rgbf000137-resize_1-target.png,1000,4.0705,21,2937,999,feet,jsons/v1_VE1000_randls_51_rotated.json,712349,858711,28,Man
149,596417,DepthScenes,duration_manipulation_targetAtFixation,jsons/v1_VE1000_randls_51_rotated.json,http://54.235.29.9/FacialAge/BNav_EC2/DepthDuration/v2_depth_duration_MTurk/v2_DepthDuration_HTML.html#122,122,1046,760,1600,900,8-22-2022,8-13-29,150,depth_duration_stimuli/002750_2014-06-22_19-08-03_094959634447_rgbf000094-resize_4/002750_2014-06-22_19-08-03_094959634447_rgbf000094-resize_4-target.png,1000,2.354,8,3149,999,feet,jsons/v1_VE1000_randls_51_rotated.json,712349,858711,28,Man
150,596417,DepthScenes,duration_manipulation_targetAtFixation,jsons/v1_VE1000_randls_51_rotated.json,http://54.235.29.9/FacialAge/BNav_EC2/DepthDuration/v2_depth_duration_MTurk/v2_DepthDuration_HTML.html#122,122,1046,760,1600,900,8-22-2022,8-13-29,151,depth_duration_stimuli/002549_2014-06-24_13-41-39_094959634447_rgbf000022-resize_3/002549_2014-06-24_13-41-39_094959634447_rgbf000022-resize_3-target.png,1000,1.476,5,2711,999,feet,jsons/v1_VE1000_randls_51_rotated.json,712349,858711,28,Man
151,596417,DepthScenes,duration_manipulation_targetAtFixation,jsons/v1_VE1000_randls_51_rotated.json,http://54.235.29.9/FacialAge/BNav_EC2/DepthDuration/v2_depth_duration_MTurk/v2_DepthDuration_HTML.html#122,122,1046,760,1600,900,8-22-2022,8-13-29,152,depth_duration_stimuli/000569_2014-06-09_22-51-47_260595134347_rgbf000141-resize_3/000569_2014-06-09_22-51-47_260595134347_rgbf000141-resize-original.jpg,1000,4.512,0,3391,999,feet,jsons/v1_VE1000_randls_51_rotated.json,712349,858711,28,Man
152,596417,DepthScenes,duration_manipulation_targetAtFixation,jsons/v1_VE1000_randls_51_rotated.json,http://54.235.29.9/FacialAge/BNav_EC2/DepthDuration/v2_depth_duration_MTurk/v2_DepthDuration_HTML.html#122,122,1046,760,1600,900,8-22-2022,8-13-29,153,depth_duration_stimuli/002805_2014-06-22_19-54-03_094959634447_rgbf000079-resize_1/002805_2014-06-22_19-54-03_094959634447_rgbf000079-resize_1-target.png,1000,3.1439999999999997,11,2905,999,feet,jsons/v1_VE1000_randls_51_rotated.json,712349,858711,28,Man
153,596417,DepthScenes,duration_manipulation_targetAtFixation,jsons/v1_VE1000_randls_51_rotated.json,http://54.235.29.9/FacialAge/BNav_EC2/DepthDuration/v2_depth_duration_MTurk/v2_DepthDuration_HTML.html#122,122,1046,760,1600,900,8-22-2022,8-13-29,154,depth_duration_stimuli/000906_2014-06-08_13-35-43_260595134347_rgbf000155-resize_1/000906_2014-06-08_13-35-43_260595134347_rgbf000155-resize_1-target.png,1000,2.8489999999999998,12,4047,1000,feet,jsons/v1_VE1000_randls_51_rotated.json,712349,858711,28,Man
154,596417,DepthScenes,duration_manipulation_targetAtFixation,jsons/v1_VE1000_randls_51_rotated.json,http://54.235.29.9/FacialAge/BNav_EC2/DepthDuration/v2_depth_duration_MTurk/v2_DepthDuration_HTML.html#122,122,1046,760,1600,900,8-22-2022,8-13-29,155,depth_duration_stimuli/001132_2014-06-17_14-48-54_260595134347_rgbf000100-resize_2/001132_2014-06-17_14-48-54_260595134347_rgbf000100-resize_2-target.png,1000,3.753,9,3080,999,feet,jsons/v1_VE1000_randls_51_rotated.json,712349,858711,28,Man
155,596417,DepthScenes,duration_manipulation_targetAtFixation,jsons/v1_VE1000_randls_51_rotated.json,http://54.235.29.9/FacialAge/BNav_EC2/DepthDuration/v2_depth_duration_MTurk/v2_DepthDuration_HTML.html#122,122,1046,760,1600,900,8-22-2022,8-13-29,156,depth_duration_stimuli/001133_2014-06-17_14-49-16_260595134347_rgbf000100-resize_0/001133_2014-06-17_14-49-16_260595134347_rgbf000100-resize_0-target.png,1000,4.2115,14,2731,1000,feet,jsons/v1_VE1000_randls_51_rotated.json,712349,858711,28,Man
156,596417,DepthScenes,duration_manipulation_targetAtFixation,jsons/v1_VE1000_randls_51_rotated.json,http://54.235.29.9/FacialAge/BNav_EC2/DepthDuration/v2_depth_duration_MTurk/v2_DepthDuration_HTML.html#122,122,1046,760,1600,900,8-22-2022,8-13-29,157,depth_duration_stimuli/003083_2014-06-15_15-21-03_094959634447_rgbf000063-resize_1/003083_2014-06-15_15-21-03_094959634447_rgbf000063-resize_1-target.png,1000,4.1405,15,2652,999,feet,jsons/v1_VE1000_randls_51_rotated.json,712349,858711,28,Man
157,596417,DepthScenes,duration_manipulation_targetAtFixation,jsons/v1_VE1000_randls_51_rotated.json,http://54.235.29.9/FacialAge/BNav_EC2/DepthDuration/v2_depth_duration_MTurk/v2_DepthDuration_HTML.html#122,122,1046,760,1600,900,8-22-2022,8-13-29,158,depth_duration_stimuli/000486_2014-06-09_20-47-20_260595134347_rgbf000143-resize_2/000486_2014-06-09_20-47-20_260595134347_rgbf000143-resize_2-target.png,1000,4.8325,16,4139,1000,feet,jsons/v1_VE1000_randls_51_rotated.json,712349,858711,28,Man
158,596417,DepthScenes,duration_manipulation_targetAtFixation,jsons/v1_VE1000_randls_51_rotated.json,http://54.235.29.9/FacialAge/BNav_EC2/DepthDuration/v2_depth_duration_MTurk/v2_DepthDuration_HTML.html#122,122,1046,760,1600,900,8-22-2022,8-13-29,159,depth_duration_stimuli/003048_2014-06-15_13-49-43_094959634447_rgbf000150-resize_1/003048_2014-06-15_13-49-43_094959634447_rgbf000150-resize_1-target.png,1000,4.0035,15,2747,998,feet,jsons/v1_VE1000_randls_51_rotated.json,712349,858711,28,Man
159,596417,DepthScenes,duration_manipulation_targetAtFixation,jsons/v1_VE1000_randls_51_rotated.json,http://54.235.29.9/FacialAge/BNav_EC2/DepthDuration/v2_depth_duration_MTurk/v2_DepthDuration_HTML.html#122,122,1046,760,1600,900,8-22-2022,8-13-29,160,depth_duration_stimuli/002043_2014-06-24_20-29-38_260595134347_rgbf000039-resize_4/002043_2014-06-24_20-29-38_260595134347_rgbf000039-resize_4-target.png,1000,2.8435,13,2892,1000,feet,jsons/v1_VE1000_randls_51_rotated.json,712349,858711,28,Man
160,596417,DepthScenes,duration_manipulation_targetAtFixation,jsons/v1_VE1000_randls_51_rotated.json,http://54.235.29.9/FacialAge/BNav_EC2/DepthDuration/v2_depth_duration_MTurk/v2_DepthDuration_HTML.html#122,122,1046,760,1600,900,8-22-2022,8-13-29,161,depth_duration_stimuli/001032_2014-06-08_13-23-17_260595134347_rgbf000021-resize_3/001032_2014-06-08_13-23-17_260595134347_rgbf000021-resize_3-target.png,1000,3.2725,11,3181,999,feet,jsons/v1_VE1000_randls_51_rotated.json,712349,858711,28,Man
161,596417,DepthScenes,duration_manipulation_targetAtFixation,jsons/v1_VE1000_randls_51_rotated.json,http://54.235.29.9/FacialAge/BNav_EC2/DepthDuration/v2_depth_duration_MTurk/v2_DepthDuration_HTML.html#122,122,1046,760,1600,900,8-22-2022,8-13-29,162,depth_duration_stimuli/001059_2014-06-08_21-53-27_260595134347_rgbf000061-resize_4/001059_2014-06-08_21-53-27_260595134347_rgbf000061-resize_4-target.png,1000,2.4185,12,2713,999,feet,jsons/v1_VE1000_randls_51_rotated.json,712349,858711,28,Man
162,596417,DepthScenes,duration_manipulation_targetAtFixation,jsons/v1_VE1000_randls_51_rotated.json,http://54.235.29.9/FacialAge/BNav_EC2/DepthDuration/v2_depth_duration_MTurk/v2_DepthDuration_HTML.html#122,122,1046,760,1600,900,8-22-2022,8-13-29,163,depth_duration_stimuli/003010_2014-06-15_12-54-35_094959634447_rgbf000112-resize_0/003010_2014-06-15_12-54-35_094959634447_rgbf000112-resize_0-target.png,1000,3.1185,12,2745,1000,feet,jsons/v1_VE1000_randls_51_rotated.json,712349,858711,28,Man
163,596417,DepthScenes,duration_manipulation_targetAtFixation,jsons/v1_VE1000_randls_51_rotated.json,http://54.235.29.9/FacialAge/BNav_EC2/DepthDuration/v2_depth_duration_MTurk/v2_DepthDuration_HTML.html#122,122,1046,760,1600,900,8-22-2022,8-13-29,164,depth_duration_stimuli/001810_2014-06-26_20-51-35_260595134347_rgbf000040-resize_3/001810_2014-06-26_20-51-35_260595134347_rgbf000040-resize_3-target.png,1000,2.2525,7,3491,1000,feet,jsons/v1_VE1000_randls_51_rotated.json,712349,858711,28,Man
