,subjID,experimentName,versionName,sequenceName,url,selected_row,windowWidth,windowHeight,screenWidth,screenHeight,startDate,startTime,trial,stimulus,duration,actual_depth,depth_estimate,trial_RT,log_sceneDuration,unitSelection,seq_filepath,experimentTime,totalTime,age,gender
0,597682,DepthScenes,duration_manipulation_targetAtFixation,jsons/VE125_randls_44.json,http://54.235.29.9/FacialAge/BNav_EC2/DepthDuration/v2_depth_duration_MTurk/v2_DepthDuration_HTML.html#182,182,1366,768,1366,768,8-29-2022,11-38-8,1,depth_duration_stimuli/001110_2014-06-15_17-25-28_260595134347_rgbf000150-resize_1/001110_2014-06-15_17-25-28_260595134347_rgbf000150-resize_1-target.png,125,1.7115,4,2426,124,feet,jsons/VE125_randls_44.json,359311,498783,44,Man
1,597682,DepthScenes,duration_manipulation_targetAtFixation,jsons/VE125_randls_44.json,http://54.235.29.9/FacialAge/BNav_EC2/DepthDuration/v2_depth_duration_MTurk/v2_DepthDuration_HTML.html#182,182,1366,768,1366,768,8-29-2022,11-38-8,2,depth_duration_stimuli/000927_2014-06-09_16-32-30_260595134347_rgbf000123-resize_3/000927_2014-06-09_16-32-30_260595134347_rgbf000123-resize_3-target.png,125,2.6785,6,1948,124,feet,jsons/VE125_randls_44.json,359311,498783,44,Man
2,597682,DepthScenes,duration_manipulation_targetAtFixation,jsons/VE125_randls_44.json,http://54.235.29.9/FacialAge/BNav_EC2/DepthDuration/v2_depth_duration_MTurk/v2_DepthDuration_HTML.html#182,182,1366,768,1366,768,8-29-2022,11-38-8,3,depth_duration_stimuli/000773_2014-06-08_22-24-54_260595134347_rgbf000093-resize_1/000773_2014-06-08_22-24-54_260595134347_rgbf000093-resize_1-target.png,125,4.973,5,2050,124,feet,jsons/VE125_randls_44.json,359311,498783,44,Man
3,597682,DepthScenes,duration_manipulation_targetAtFixation,jsons/VE125_randls_44.json,http://54.235.29.9/FacialAge/BNav_EC2/DepthDuration/v2_depth_duration_MTurk/v2_DepthDuration_HTML.html#182,182,1366,768,1366,768,8-29-2022,11-38-8,4,depth_duration_stimuli/002414_2014-06-28_20-24-58_260595134347_rgbf000067-resize_4/002414_2014-06-28_20-24-58_260595134347_rgbf000067-resize_4-target.png,125,4.363,5,1725,124,feet,jsons/VE125_randls_44.json,359311,498783,44,Man
4,597682,DepthScenes,duration_manipulation_targetAtFixation,jsons/VE125_randls_44.json,http://54.235.29.9/FacialAge/BNav_EC2/DepthDuration/v2_depth_duration_MTurk/v2_DepthDuration_HTML.html#182,182,1366,768,1366,768,8-29-2022,11-38-8,5,depth_duration_stimuli/000009_2014-05-26_14-32-05_260595134347_rgbf000034-resize_3/000009_2014-05-26_14-32-05_260595134347_rgbf000034-resize_3-target.png,125,3.8715,7,2230,123,feet,jsons/VE125_randls_44.json,359311,498783,44,Man
5,597682,DepthScenes,duration_manipulation_targetAtFixation,jsons/VE125_randls_44.json,http://54.235.29.9/FacialAge/BNav_EC2/DepthDuration/v2_depth_duration_MTurk/v2_DepthDuration_HTML.html#182,182,1366,768,1366,768,8-29-2022,11-38-8,6,depth_duration_stimuli/001828_2014-06-26_21-40-03_260595134347_rgbf000024-resize_0/001828_2014-06-26_21-40-03_260595134347_rgbf000024-resize_0-target.png,125,4.8260000000000005,6,2059,124,feet,jsons/VE125_randls_44.json,359311,498783,44,Man
6,597682,DepthScenes,duration_manipulation_targetAtFixation,jsons/VE125_randls_44.json,http://54.235.29.9/FacialAge/BNav_EC2/DepthDuration/v2_depth_duration_MTurk/v2_DepthDuration_HTML.html#182,182,1366,768,1366,768,8-29-2022,11-38-8,7,depth_duration_stimuli/002570_2014-06-24_13-59-54_094959634447_rgbf000059-resize_0/002570_2014-06-24_13-59-54_094959634447_rgbf000059-resize_0-target.png,125,4.037,6,1614,125,feet,jsons/VE125_randls_44.json,359311,498783,44,Man
7,597682,DepthScenes,duration_manipulation_targetAtFixation,jsons/VE125_randls_44.json,http://54.235.29.9/FacialAge/BNav_EC2/DepthDuration/v2_depth_duration_MTurk/v2_DepthDuration_HTML.html#182,182,1366,768,1366,768,8-29-2022,11-38-8,8,depth_duration_stimuli/002467_2014-06-28_20-38-07_260595134347_rgbf000026-resize_2/002467_2014-06-28_20-38-07_260595134347_rgbf000026-resize_2-target.png,125,4.742,7,1895,125,feet,jsons/VE125_randls_44.json,359311,498783,44,Man
8,597682,DepthScenes,duration_manipulation_targetAtFixation,jsons/VE125_randls_44.json,http://54.235.29.9/FacialAge/BNav_EC2/DepthDuration/v2_depth_duration_MTurk/v2_DepthDuration_HTML.html#182,182,1366,768,1366,768,8-29-2022,11-38-8,9,depth_duration_stimuli/002118_2014-06-25_20-32-08_260595134347_rgbf000078-resize_1/002118_2014-06-25_20-32-08_260595134347_rgbf000078-resize_1-target.png,125,2.6460000000000004,6,2262,124,feet,jsons/VE125_randls_44.json,359311,498783,44,Man
9,597682,DepthScenes,duration_manipulation_targetAtFixation,jsons/VE125_randls_44.json,http://54.235.29.9/FacialAge/BNav_EC2/DepthDuration/v2_depth_duration_MTurk/v2_DepthDuration_HTML.html#182,182,1366,768,1366,768,8-29-2022,11-38-8,10,depth_duration_stimuli/001516_2014-06-20_16-25-09_260595134347_rgbf000076-resize_2/001516_2014-06-20_16-25-09_260595134347_rgbf000076-resize_2-target.png,125,1.7445,6,1747,124,feet,jsons/VE125_randls_44.json,359311,498783,44,Man
10,597682,DepthScenes,duration_manipulation_targetAtFixation,jsons/VE125_randls_44.json,http://54.235.29.9/FacialAge/BNav_EC2/DepthDuration/v2_depth_duration_MTurk/v2_DepthDuration_HTML.html#182,182,1366,768,1366,768,8-29-2022,11-38-8,11,depth_duration_stimuli/000810_2014-06-08_17-20-01_260595134347_rgbf000105-resize_0/000810_2014-06-08_17-20-01_260595134347_rgbf000105-resize_0-target.png,125,1.4865,6,2214,124,feet,jsons/VE125_randls_44.json,359311,498783,44,Man
11,597682,DepthScenes,duration_manipulation_targetAtFixation,jsons/VE125_randls_44.json,http://54.235.29.9/FacialAge/BNav_EC2/DepthDuration/v2_depth_duration_MTurk/v2_DepthDuration_HTML.html#182,182,1366,768,1366,768,8-29-2022,11-38-8,12,depth_duration_stimuli/001214_2014-06-17_16-13-55_260595134347_rgbf000111-resize_0/001214_2014-06-17_16-13-55_260595134347_rgbf000111-resize_0-target.png,125,2.6505,4,2005,124,feet,jsons/VE125_randls_44.json,359311,498783,44,Man
12,597682,DepthScenes,duration_manipulation_targetAtFixation,jsons/VE125_randls_44.json,http://54.235.29.9/FacialAge/BNav_EC2/DepthDuration/v2_depth_duration_MTurk/v2_DepthDuration_HTML.html#182,182,1366,768,1366,768,8-29-2022,11-38-8,13,depth_duration_stimuli/000569_2014-06-09_22-51-47_260595134347_rgbf000141-resize_3/000569_2014-06-09_22-51-47_260595134347_rgbf000141-resize-original.jpg,125,4.512,9,2464,124,feet,jsons/VE125_randls_44.json,359311,498783,44,Man
13,597682,DepthScenes,duration_manipulation_targetAtFixation,jsons/VE125_randls_44.json,http://54.235.29.9/FacialAge/BNav_EC2/DepthDuration/v2_depth_duration_MTurk/v2_DepthDuration_HTML.html#182,182,1366,768,1366,768,8-29-2022,11-38-8,14,depth_duration_stimuli/000692_2014-06-08_13-09-42_260595134347_rgbf000199-resize_2/000692_2014-06-08_13-09-42_260595134347_rgbf000199-resize_2-target.png,125,3.661,6,2416,125,feet,jsons/VE125_randls_44.json,359311,498783,44,Man
14,597682,DepthScenes,duration_manipulation_targetAtFixation,jsons/VE125_randls_44.json,http://54.235.29.9/FacialAge/BNav_EC2/DepthDuration/v2_depth_duration_MTurk/v2_DepthDuration_HTML.html#182,182,1366,768,1366,768,8-29-2022,11-38-8,15,depth_duration_stimuli/001094_2014-06-15_17-36-00_260595134347_rgbf000205-resize_0/001094_2014-06-15_17-36-00_260595134347_rgbf000205-resize_0-target.png,125,4.2175,6,1350,125,feet,jsons/VE125_randls_44.json,359311,498783,44,Man
15,597682,DepthScenes,duration_manipulation_targetAtFixation,jsons/VE125_randls_44.json,http://54.235.29.9/FacialAge/BNav_EC2/DepthDuration/v2_depth_duration_MTurk/v2_DepthDuration_HTML.html#182,182,1366,768,1366,768,8-29-2022,11-38-8,16,depth_duration_stimuli/002445_2014-06-28_20-32-16_260595134347_rgbf000029-resize_4/002445_2014-06-28_20-32-16_260595134347_rgbf000029-resize_4-target.png,125,2.5315,4,1918,124,feet,jsons/VE125_randls_44.json,359311,498783,44,Man
16,597682,DepthScenes,duration_manipulation_targetAtFixation,jsons/VE125_randls_44.json,http://54.235.29.9/FacialAge/BNav_EC2/DepthDuration/v2_depth_duration_MTurk/v2_DepthDuration_HTML.html#182,182,1366,768,1366,768,8-29-2022,11-38-8,17,depth_duration_stimuli/000780_2014-06-08_22-28-29_260595134347_rgbf000126-resize_1/000780_2014-06-08_22-28-29_260595134347_rgbf000126-resize_1-target.png,125,3.3825,5,1784,124,feet,jsons/VE125_randls_44.json,359311,498783,44,Man
17,597682,DepthScenes,duration_manipulation_targetAtFixation,jsons/VE125_randls_44.json,http://54.235.29.9/FacialAge/BNav_EC2/DepthDuration/v2_depth_duration_MTurk/v2_DepthDuration_HTML.html#182,182,1366,768,1366,768,8-29-2022,11-38-8,18,depth_duration_stimuli/000470_2014-06-09_19-42-40_260595134347_rgbf000094-resize_1/000470_2014-06-09_19-42-40_260595134347_rgbf000094-resize_1-target.png,125,1.831,4,2287,124,feet,jsons/VE125_randls_44.json,359311,498783,44,Man
18,597682,DepthScenes,duration_manipulation_targetAtFixation,jsons/VE125_randls_44.json,http://54.235.29.9/FacialAge/BNav_EC2/DepthDuration/v2_depth_duration_MTurk/v2_DepthDuration_HTML.html#182,182,1366,768,1366,768,8-29-2022,11-38-8,19,depth_duration_stimuli/000109_2014-05-14_23-41-52_260595134347_rgbf000035-resize_9/000109_2014-05-14_23-41-52_260595134347_rgbf000035-resize_9-target.png,125,1.3545,4,1502,124,feet,jsons/VE125_randls_44.json,359311,498783,44,Man
19,597682,DepthScenes,duration_manipulation_targetAtFixation,jsons/VE125_randls_44.json,http://54.235.29.9/FacialAge/BNav_EC2/DepthDuration/v2_depth_duration_MTurk/v2_DepthDuration_HTML.html#182,182,1366,768,1366,768,8-29-2022,11-38-8,20,depth_duration_stimuli/002375_2014-06-28_20-13-44_260595134347_rgbf000032-resize_1/002375_2014-06-28_20-13-44_260595134347_rgbf000032-resize_1-target.png,125,4.0175,4,1427,125,feet,jsons/VE125_randls_44.json,359311,498783,44,Man
20,597682,DepthScenes,duration_manipulation_targetAtFixation,jsons/VE125_randls_44.json,http://54.235.29.9/FacialAge/BNav_EC2/DepthDuration/v2_depth_duration_MTurk/v2_DepthDuration_HTML.html#182,182,1366,768,1366,768,8-29-2022,11-38-8,21,depth_duration_stimuli/002657_2014-06-13_15-29-54_094959634447_rgbf000150-resize_1/002657_2014-06-13_15-29-54_094959634447_rgbf000150-resize_1-target.png,125,4.919,4,1363,124,feet,jsons/VE125_randls_44.json,359311,498783,44,Man
21,597682,DepthScenes,duration_manipulation_targetAtFixation,jsons/VE125_randls_44.json,http://54.235.29.9/FacialAge/BNav_EC2/DepthDuration/v2_depth_duration_MTurk/v2_DepthDuration_HTML.html#182,182,1366,768,1366,768,8-29-2022,11-38-8,22,depth_duration_stimuli/002213_2014-06-28_18-37-58_260595134347_rgbf000055-resize_1/002213_2014-06-28_18-37-58_260595134347_rgbf000055-resize_1-target.png,125,3.62,6,1676,124,feet,jsons/VE125_randls_44.json,359311,498783,44,Man
22,597682,DepthScenes,duration_manipulation_targetAtFixation,jsons/VE125_randls_44.json,http://54.235.29.9/FacialAge/BNav_EC2/DepthDuration/v2_depth_duration_MTurk/v2_DepthDuration_HTML.html#182,182,1366,768,1366,768,8-29-2022,11-38-8,23,depth_duration_stimuli/000691_2014-06-08_13-08-50_260595134347_rgbf000132-resize_3/000691_2014-06-08_13-08-50_260595134347_rgbf000132-resize_3-target.png,125,4.1530000000000005,4,1414,124,feet,jsons/VE125_randls_44.json,359311,498783,44,Man
23,597682,DepthScenes,duration_manipulation_targetAtFixation,jsons/VE125_randls_44.json,http://54.235.29.9/FacialAge/BNav_EC2/DepthDuration/v2_depth_duration_MTurk/v2_DepthDuration_HTML.html#182,182,1366,768,1366,768,8-29-2022,11-38-8,24,depth_duration_stimuli/000642_2014-06-08_16-59-25_260595134347_rgbf000098-resize_2/000642_2014-06-08_16-59-25_260595134347_rgbf000098-resize_2-target.png,125,2.8815,4,1393,125,feet,jsons/VE125_randls_44.json,359311,498783,44,Man
24,597682,DepthScenes,duration_manipulation_targetAtFixation,jsons/VE125_randls_44.json,http://54.235.29.9/FacialAge/BNav_EC2/DepthDuration/v2_depth_duration_MTurk/v2_DepthDuration_HTML.html#182,182,1366,768,1366,768,8-29-2022,11-38-8,25,depth_duration_stimuli/002425_2014-06-28_20-27-29_260595134347_rgbf000031-resize_8/002425_2014-06-28_20-27-29_260595134347_rgbf000031-resize_8-target.png,125,3.8960000000000004,6,1630,124,feet,jsons/VE125_randls_44.json,359311,498783,44,Man
25,597682,DepthScenes,duration_manipulation_targetAtFixation,jsons/VE125_randls_44.json,http://54.235.29.9/FacialAge/BNav_EC2/DepthDuration/v2_depth_duration_MTurk/v2_DepthDuration_HTML.html#182,182,1366,768,1366,768,8-29-2022,11-38-8,26,depth_duration_stimuli/001133_2014-06-17_14-49-16_260595134347_rgbf000100-resize_0/001133_2014-06-17_14-49-16_260595134347_rgbf000100-resize_0-target.png,125,4.2115,4,1972,124,feet,jsons/VE125_randls_44.json,359311,498783,44,Man
26,597682,DepthScenes,duration_manipulation_targetAtFixation,jsons/VE125_randls_44.json,http://54.235.29.9/FacialAge/BNav_EC2/DepthDuration/v2_depth_duration_MTurk/v2_DepthDuration_HTML.html#182,182,1366,768,1366,768,8-29-2022,11-38-8,27,depth_duration_stimuli/001132_2014-06-17_14-48-54_260595134347_rgbf000100-resize_2/001132_2014-06-17_14-48-54_260595134347_rgbf000100-resize_2-target.png,125,3.753,6,1733,124,feet,jsons/VE125_randls_44.json,359311,498783,44,Man
27,597682,DepthScenes,duration_manipulation_targetAtFixation,jsons/VE125_randls_44.json,http://54.235.29.9/FacialAge/BNav_EC2/DepthDuration/v2_depth_duration_MTurk/v2_DepthDuration_HTML.html#182,182,1366,768,1366,768,8-29-2022,11-38-8,28,depth_duration_stimuli/001417_2014-06-19_16-25-36_260595134347_rgbf000115-resize_5/001417_2014-06-19_16-25-36_260595134347_rgbf000115-resize_5-target.png,125,4.6255,5,1840,124,feet,jsons/VE125_randls_44.json,359311,498783,44,Man
28,597682,DepthScenes,duration_manipulation_targetAtFixation,jsons/VE125_randls_44.json,http://54.235.29.9/FacialAge/BNav_EC2/DepthDuration/v2_depth_duration_MTurk/v2_DepthDuration_HTML.html#182,182,1366,768,1366,768,8-29-2022,11-38-8,29,depth_duration_stimuli/003081_2014-06-15_15-19-16_094959634447_rgbf000150-resize_1/003081_2014-06-15_15-19-16_094959634447_rgbf000150-resize_1-target.png,125,3.9125,5,1918,124,feet,jsons/VE125_randls_44.json,359311,498783,44,Man
29,597682,DepthScenes,duration_manipulation_targetAtFixation,jsons/VE125_randls_44.json,http://54.235.29.9/FacialAge/BNav_EC2/DepthDuration/v2_depth_duration_MTurk/v2_DepthDuration_HTML.html#182,182,1366,768,1366,768,8-29-2022,11-38-8,30,depth_duration_stimuli/000375_2014-06-08_11-17-29_260595134347_rgbf000133-resize_2/000375_2014-06-08_11-17-29_260595134347_rgbf000133-resize-original.jpg,125,4.718,6,1878,124,feet,jsons/VE125_randls_44.json,359311,498783,44,Man
30,597682,DepthScenes,duration_manipulation_targetAtFixation,jsons/VE125_randls_44.json,http://54.235.29.9/FacialAge/BNav_EC2/DepthDuration/v2_depth_duration_MTurk/v2_DepthDuration_HTML.html#182,182,1366,768,1366,768,8-29-2022,11-38-8,31,depth_duration_stimuli/002279_2014-06-28_18-55-32_260595134347_rgbf000040-resize_5/002279_2014-06-28_18-55-32_260595134347_rgbf000040-resize_5-target.png,125,1.5043333333333,5,1428,124,feet,jsons/VE125_randls_44.json,359311,498783,44,Man
31,597682,DepthScenes,duration_manipulation_targetAtFixation,jsons/VE125_randls_44.json,http://54.235.29.9/FacialAge/BNav_EC2/DepthDuration/v2_depth_duration_MTurk/v2_DepthDuration_HTML.html#182,182,1366,768,1366,768,8-29-2022,11-38-8,32,depth_duration_stimuli/000635_2014-06-08_16-38-42_260595134347_rgbf000106-resize_1/000635_2014-06-08_16-38-42_260595134347_rgbf000106-resize_1-target.png,125,2.074,6,1348,125,feet,jsons/VE125_randls_44.json,359311,498783,44,Man
32,597682,DepthScenes,duration_manipulation_targetAtFixation,jsons/VE125_randls_44.json,http://54.235.29.9/FacialAge/BNav_EC2/DepthDuration/v2_depth_duration_MTurk/v2_DepthDuration_HTML.html#182,182,1366,768,1366,768,8-29-2022,11-38-8,33,depth_duration_stimuli/000929_2014-06-09_16-33-19_260595134347_rgbf000139-resize_0/000929_2014-06-09_16-33-19_260595134347_rgbf000139-resize_0-target.png,125,2.8680000000000003,5,1364,123,feet,jsons/VE125_randls_44.json,359311,498783,44,Man
33,597682,DepthScenes,duration_manipulation_targetAtFixation,jsons/VE125_randls_44.json,http://54.235.29.9/FacialAge/BNav_EC2/DepthDuration/v2_depth_duration_MTurk/v2_DepthDuration_HTML.html#182,182,1366,768,1366,768,8-29-2022,11-38-8,34,depth_duration_stimuli/000457_2014-06-08_16-52-43_260595134347_rgbf000199-resize_1/000457_2014-06-08_16-52-43_260595134347_rgbf000199-resize_1-target.png,125,3.6489999999999996,6,1339,124,feet,jsons/VE125_randls_44.json,359311,498783,44,Man
34,597682,DepthScenes,duration_manipulation_targetAtFixation,jsons/VE125_randls_44.json,http://54.235.29.9/FacialAge/BNav_EC2/DepthDuration/v2_depth_duration_MTurk/v2_DepthDuration_HTML.html#182,182,1366,768,1366,768,8-29-2022,11-38-8,35,depth_duration_stimuli/002039_2014-06-24_20-22-38_260595134347_rgbf000084-resize_1/002039_2014-06-24_20-22-38_260595134347_rgbf000084-resize_1-target.png,125,4.408,6,1413,124,feet,jsons/VE125_randls_44.json,359311,498783,44,Man
35,597682,DepthScenes,duration_manipulation_targetAtFixation,jsons/VE125_randls_44.json,http://54.235.29.9/FacialAge/BNav_EC2/DepthDuration/v2_depth_duration_MTurk/v2_DepthDuration_HTML.html#182,182,1366,768,1366,768,8-29-2022,11-38-8,36,depth_duration_stimuli/002103_2014-06-25_20-00-40_260595134347_rgbf000049-resize_0/002103_2014-06-25_20-00-40_260595134347_rgbf000049-resize_0-target.png,125,4.105,6,1488,125,feet,jsons/VE125_randls_44.json,359311,498783,44,Man
36,597682,DepthScenes,duration_manipulation_targetAtFixation,jsons/VE125_randls_44.json,http://54.235.29.9/FacialAge/BNav_EC2/DepthDuration/v2_depth_duration_MTurk/v2_DepthDuration_HTML.html#182,182,1366,768,1366,768,8-29-2022,11-38-8,37,depth_duration_stimuli/000739_2014-06-08_18-45-58_260595134347_rgbf000068-resize_1/000739_2014-06-08_18-45-58_260595134347_rgbf000068-resize_1-target.png,125,3.534,6,1325,123,feet,jsons/VE125_randls_44.json,359311,498783,44,Man
37,597682,DepthScenes,duration_manipulation_targetAtFixation,jsons/VE125_randls_44.json,http://54.235.29.9/FacialAge/BNav_EC2/DepthDuration/v2_depth_duration_MTurk/v2_DepthDuration_HTML.html#182,182,1366,768,1366,768,8-29-2022,11-38-8,38,depth_duration_stimuli/000734_2014-06-08_17-39-11_260595134347_rgbf000128-resize_2/000734_2014-06-08_17-39-11_260595134347_rgbf000128-resize_2-target.png,125,4.098,6,1342,124,feet,jsons/VE125_randls_44.json,359311,498783,44,Man
38,597682,DepthScenes,duration_manipulation_targetAtFixation,jsons/VE125_randls_44.json,http://54.235.29.9/FacialAge/BNav_EC2/DepthDuration/v2_depth_duration_MTurk/v2_DepthDuration_HTML.html#182,182,1366,768,1366,768,8-29-2022,11-38-8,39,depth_duration_stimuli/001175_2014-06-17_15-45-55_260595134347_rgbf000129-resize_4/001175_2014-06-17_15-45-55_260595134347_rgbf000129-resize_4-target.png,125,4.255,7,1667,125,feet,jsons/VE125_randls_44.json,359311,498783,44,Man
39,597682,DepthScenes,duration_manipulation_targetAtFixation,jsons/VE125_randls_44.json,http://54.235.29.9/FacialAge/BNav_EC2/DepthDuration/v2_depth_duration_MTurk/v2_DepthDuration_HTML.html#182,182,1366,768,1366,768,8-29-2022,11-38-8,40,depth_duration_stimuli/003490_2014-05-21_15-50-11_094959634447_rgbf000101-resize_3/003490_2014-05-21_15-50-11_094959634447_rgbf000101-resize_3-target.png,125,3.6445,6,1327,124,feet,jsons/VE125_randls_44.json,359311,498783,44,Man
40,597682,DepthScenes,duration_manipulation_targetAtFixation,jsons/VE125_randls_44.json,http://54.235.29.9/FacialAge/BNav_EC2/DepthDuration/v2_depth_duration_MTurk/v2_DepthDuration_HTML.html#182,182,1366,768,1366,768,8-29-2022,11-38-8,41,depth_duration_stimuli/002663_2014-06-13_15-50-26_094959634447_rgbf000075-resize_1/002663_2014-06-13_15-50-26_094959634447_rgbf000075-resize_1-target.png,125,4.7495,6,1370,124,feet,jsons/VE125_randls_44.json,359311,498783,44,Man
41,597682,DepthScenes,duration_manipulation_targetAtFixation,jsons/VE125_randls_44.json,http://54.235.29.9/FacialAge/BNav_EC2/DepthDuration/v2_depth_duration_MTurk/v2_DepthDuration_HTML.html#182,182,1366,768,1366,768,8-29-2022,11-38-8,42,depth_duration_stimuli/000409_2014-06-04_19-23-33_260595134347_rgbf000067-resize_0/000409_2014-06-04_19-23-33_260595134347_rgbf000067-resize_0-target.png,125,3.7335,6,1334,124,feet,jsons/VE125_randls_44.json,359311,498783,44,Man
42,597682,DepthScenes,duration_manipulation_targetAtFixation,jsons/VE125_randls_44.json,http://54.235.29.9/FacialAge/BNav_EC2/DepthDuration/v2_depth_duration_MTurk/v2_DepthDuration_HTML.html#182,182,1366,768,1366,768,8-29-2022,11-38-8,43,depth_duration_stimuli/001164_2014-06-17_15-35-46_260595134347_rgbf000085-resize_3/001164_2014-06-17_15-35-46_260595134347_rgbf000085-resize_3-target.png,125,2.354,6,1326,124,feet,jsons/VE125_randls_44.json,359311,498783,44,Man
43,597682,DepthScenes,duration_manipulation_targetAtFixation,jsons/VE125_randls_44.json,http://54.235.29.9/FacialAge/BNav_EC2/DepthDuration/v2_depth_duration_MTurk/v2_DepthDuration_HTML.html#182,182,1366,768,1366,768,8-29-2022,11-38-8,44,depth_duration_stimuli/001136_2014-06-17_15-19-41_260595134347_rgbf000076-resize_3/001136_2014-06-17_15-19-41_260595134347_rgbf000076-resize_3-target.png,125,1.8655,6,1330,124,feet,jsons/VE125_randls_44.json,359311,498783,44,Man
44,597682,DepthScenes,duration_manipulation_targetAtFixation,jsons/VE125_randls_44.json,http://54.235.29.9/FacialAge/BNav_EC2/DepthDuration/v2_depth_duration_MTurk/v2_DepthDuration_HTML.html#182,182,1366,768,1366,768,8-29-2022,11-38-8,45,depth_duration_stimuli/000787_2014-06-08_22-33-53_260595134347_rgbf000175-resize_1/000787_2014-06-08_22-33-53_260595134347_rgbf000175-resize-original.jpg,125,4.784,0,4604,124,feet,jsons/VE125_randls_44.json,359311,498783,44,Man
45,597682,DepthScenes,duration_manipulation_targetAtFixation,jsons/VE125_randls_44.json,http://54.235.29.9/FacialAge/BNav_EC2/DepthDuration/v2_depth_duration_MTurk/v2_DepthDuration_HTML.html#182,182,1366,768,1366,768,8-29-2022,11-38-8,46,depth_duration_stimuli/000878_2014-06-08_22-52-45_260595134347_rgbf000045-resize_2/000878_2014-06-08_22-52-45_260595134347_rgbf000045-resize_2-target.png,125,2.092,5,2528,124,feet,jsons/VE125_randls_44.json,359311,498783,44,Man
46,597682,DepthScenes,duration_manipulation_targetAtFixation,jsons/VE125_randls_44.json,http://54.235.29.9/FacialAge/BNav_EC2/DepthDuration/v2_depth_duration_MTurk/v2_DepthDuration_HTML.html#182,182,1366,768,1366,768,8-29-2022,11-38-8,47,depth_duration_stimuli/002953_2014-06-08_17-32-18_094959634447_rgbf000059-resize_5/002953_2014-06-08_17-32-18_094959634447_rgbf000059-resize_5-target.png,125,1.551,4,1386,125,feet,jsons/VE125_randls_44.json,359311,498783,44,Man
47,597682,DepthScenes,duration_manipulation_targetAtFixation,jsons/VE125_randls_44.json,http://54.235.29.9/FacialAge/BNav_EC2/DepthDuration/v2_depth_duration_MTurk/v2_DepthDuration_HTML.html#182,182,1366,768,1366,768,8-29-2022,11-38-8,48,depth_duration_stimuli/001199_2014-06-17_16-03-48_260595134347_rgbf000077-resize_0/001199_2014-06-17_16-03-48_260595134347_rgbf000077-resize_0-target.png,125,3.4375,6,1699,124,feet,jsons/VE125_randls_44.json,359311,498783,44,Man
48,597682,DepthScenes,duration_manipulation_targetAtFixation,jsons/VE125_randls_44.json,http://54.235.29.9/FacialAge/BNav_EC2/DepthDuration/v2_depth_duration_MTurk/v2_DepthDuration_HTML.html#182,182,1366,768,1366,768,8-29-2022,11-38-8,49,depth_duration_stimuli/000502_2014-06-08_23-02-32_260595134347_rgbf000063-resize_4/000502_2014-06-08_23-02-32_260595134347_rgbf000063-resize_4-target.png,125,2.431,5,2098,125,feet,jsons/VE125_randls_44.json,359311,498783,44,Man
49,597682,DepthScenes,duration_manipulation_targetAtFixation,jsons/VE125_randls_44.json,http://54.235.29.9/FacialAge/BNav_EC2/DepthDuration/v2_depth_duration_MTurk/v2_DepthDuration_HTML.html#182,182,1366,768,1366,768,8-29-2022,11-38-8,50,depth_duration_stimuli/001806_2014-06-26_20-50-20_260595134347_rgbf000091-resize_1/001806_2014-06-26_20-50-20_260595134347_rgbf000091-resize_1-target.png,125,2.7305,4,1340,124,feet,jsons/VE125_randls_44.json,359311,498783,44,Man
50,597682,DepthScenes,duration_manipulation_targetAtFixation,jsons/VE125_randls_44.json,http://54.235.29.9/FacialAge/BNav_EC2/DepthDuration/v2_depth_duration_MTurk/v2_DepthDuration_HTML.html#182,182,1366,768,1366,768,8-29-2022,11-38-8,51,depth_duration_stimuli/001617_2014-06-20_11-35-32_260595134347_rgbf000066-resize_1/001617_2014-06-20_11-35-32_260595134347_rgbf000066-resize_1-target.png,125,3.7910000000000004,6,1708,123,feet,jsons/VE125_randls_44.json,359311,498783,44,Man
51,597682,DepthScenes,duration_manipulation_targetAtFixation,jsons/VE125_randls_44.json,http://54.235.29.9/FacialAge/BNav_EC2/DepthDuration/v2_depth_duration_MTurk/v2_DepthDuration_HTML.html#182,182,1366,768,1366,768,8-29-2022,11-38-8,52,depth_duration_stimuli/003621_2014-05-23_18-06-08_094959634447_rgbf000101-resize_1/003621_2014-05-23_18-06-08_094959634447_rgbf000101-resize_1-target.png,125,3.9835,6,1325,124,feet,jsons/VE125_randls_44.json,359311,498783,44,Man
52,597682,DepthScenes,duration_manipulation_targetAtFixation,jsons/VE125_randls_44.json,http://54.235.29.9/FacialAge/BNav_EC2/DepthDuration/v2_depth_duration_MTurk/v2_DepthDuration_HTML.html#182,182,1366,768,1366,768,8-29-2022,11-38-8,53,depth_duration_stimuli/001584_2014-06-20_11-07-43_260595134347_rgbf000002-resize_1/001584_2014-06-20_11-07-43_260595134347_rgbf000002-resize_1-target.png,125,3.53,6,1387,124,feet,jsons/VE125_randls_44.json,359311,498783,44,Man
53,597682,DepthScenes,duration_manipulation_targetAtFixation,jsons/VE125_randls_44.json,http://54.235.29.9/FacialAge/BNav_EC2/DepthDuration/v2_depth_duration_MTurk/v2_DepthDuration_HTML.html#182,182,1366,768,1366,768,8-29-2022,11-38-8,54,depth_duration_stimuli/001016_2014-06-09_16-16-10_260595134347_rgbf000112-resize_5/001016_2014-06-09_16-16-10_260595134347_rgbf000112-resize_5-target.png,125,1.6565,6,1325,125,feet,jsons/VE125_randls_44.json,359311,498783,44,Man
54,597682,DepthScenes,duration_manipulation_targetAtFixation,jsons/VE125_randls_44.json,http://54.235.29.9/FacialAge/BNav_EC2/DepthDuration/v2_depth_duration_MTurk/v2_DepthDuration_HTML.html#182,182,1366,768,1366,768,8-29-2022,11-38-8,55,depth_duration_stimuli/002340_2014-06-28_20-05-46_260595134347_rgbf000113-resize_0/002340_2014-06-28_20-05-46_260595134347_rgbf000113-resize_0-target.png,125,2.4735,6,1342,124,feet,jsons/VE125_randls_44.json,359311,498783,44,Man
55,597682,DepthScenes,duration_manipulation_targetAtFixation,jsons/VE125_randls_44.json,http://54.235.29.9/FacialAge/BNav_EC2/DepthDuration/v2_depth_duration_MTurk/v2_DepthDuration_HTML.html#182,182,1366,768,1366,768,8-29-2022,11-38-8,56,depth_duration_stimuli/002630_2014-06-24_14-47-50_094959634447_rgbf000055-resize_1/002630_2014-06-24_14-47-50_094959634447_rgbf000055-resize_1-target.png,125,3.0095,7,2066,125,feet,jsons/VE125_randls_44.json,359311,498783,44,Man
56,597682,DepthScenes,duration_manipulation_targetAtFixation,jsons/VE125_randls_44.json,http://54.235.29.9/FacialAge/BNav_EC2/DepthDuration/v2_depth_duration_MTurk/v2_DepthDuration_HTML.html#182,182,1366,768,1366,768,8-29-2022,11-38-8,57,depth_duration_stimuli/002758_2014-06-22_19-11-20_094959634447_rgbf000128-resize_1/002758_2014-06-22_19-11-20_094959634447_rgbf000128-resize_1-target.png,125,2.555,5,2108,124,feet,jsons/VE125_randls_44.json,359311,498783,44,Man
57,597682,DepthScenes,duration_manipulation_targetAtFixation,jsons/VE125_randls_44.json,http://54.235.29.9/FacialAge/BNav_EC2/DepthDuration/v2_depth_duration_MTurk/v2_DepthDuration_HTML.html#182,182,1366,768,1366,768,8-29-2022,11-38-8,58,depth_duration_stimuli/003070_2014-06-15_14-58-27_094959634447_rgbf000150-resize_3/003070_2014-06-15_14-58-27_094959634447_rgbf000150-resize_3-target.png,125,2.9415,5,1367,124,feet,jsons/VE125_randls_44.json,359311,498783,44,Man
58,597682,DepthScenes,duration_manipulation_targetAtFixation,jsons/VE125_randls_44.json,http://54.235.29.9/FacialAge/BNav_EC2/DepthDuration/v2_depth_duration_MTurk/v2_DepthDuration_HTML.html#182,182,1366,768,1366,768,8-29-2022,11-38-8,59,depth_duration_stimuli/000943_2014-06-09_19-31-07_260595134347_rgbf000128-resize_1/000943_2014-06-09_19-31-07_260595134347_rgbf000128-resize_1-target.png,125,1.9765,4,1568,124,feet,jsons/VE125_randls_44.json,359311,498783,44,Man
59,597682,DepthScenes,duration_manipulation_targetAtFixation,jsons/VE125_randls_44.json,http://54.235.29.9/FacialAge/BNav_EC2/DepthDuration/v2_depth_duration_MTurk/v2_DepthDuration_HTML.html#182,182,1366,768,1366,768,8-29-2022,11-38-8,60,depth_duration_stimuli/002725_2014-06-22_11-47-51_094959634447_rgbf000070-resize_1/002725_2014-06-22_11-47-51_094959634447_rgbf000070-resize_1-target.png,125,2.195,5,1380,124,feet,jsons/VE125_randls_44.json,359311,498783,44,Man
60,597682,DepthScenes,duration_manipulation_targetAtFixation,jsons/VE125_randls_44.json,http://54.235.29.9/FacialAge/BNav_EC2/DepthDuration/v2_depth_duration_MTurk/v2_DepthDuration_HTML.html#182,182,1366,768,1366,768,8-29-2022,11-38-8,61,depth_duration_stimuli/002344_2014-06-28_20-06-29_260595134347_rgbf000030-resize_1/002344_2014-06-28_20-06-29_260595134347_rgbf000030-resize_1-target.png,125,1.5795,4,1364,125,feet,jsons/VE125_randls_44.json,359311,498783,44,Man
61,597682,DepthScenes,duration_manipulation_targetAtFixation,jsons/VE125_randls_44.json,http://54.235.29.9/FacialAge/BNav_EC2/DepthDuration/v2_depth_duration_MTurk/v2_DepthDuration_HTML.html#182,182,1366,768,1366,768,8-29-2022,11-38-8,62,depth_duration_stimuli/000522_2014-06-08_13-35-06_260595134347_rgbf000244-resize_1/000522_2014-06-08_13-35-06_260595134347_rgbf000244-resize_1-target.png,125,2.3715,4,1334,124,feet,jsons/VE125_randls_44.json,359311,498783,44,Man
62,597682,DepthScenes,duration_manipulation_targetAtFixation,jsons/VE125_randls_44.json,http://54.235.29.9/FacialAge/BNav_EC2/DepthDuration/v2_depth_duration_MTurk/v2_DepthDuration_HTML.html#182,182,1366,768,1366,768,8-29-2022,11-38-8,63,depth_duration_stimuli/002949_2014-06-26_15-57-42_094959634447_rgbf000079-resize_1/002949_2014-06-26_15-57-42_094959634447_rgbf000079-resize_1-target.png,125,1.8915,4,1479,124,feet,jsons/VE125_randls_44.json,359311,498783,44,Man
63,597682,DepthScenes,duration_manipulation_targetAtFixation,jsons/VE125_randls_44.json,http://54.235.29.9/FacialAge/BNav_EC2/DepthDuration/v2_depth_duration_MTurk/v2_DepthDuration_HTML.html#182,182,1366,768,1366,768,8-29-2022,11-38-8,64,depth_duration_stimuli/002989_2014-06-15_12-25-03_094959634447_rgbf000150-resize_3/002989_2014-06-15_12-25-03_094959634447_rgbf000150-resize_3-target.png,125,4.1975,7,1850,124,feet,jsons/VE125_randls_44.json,359311,498783,44,Man
64,597682,DepthScenes,duration_manipulation_targetAtFixation,jsons/VE125_randls_44.json,http://54.235.29.9/FacialAge/BNav_EC2/DepthDuration/v2_depth_duration_MTurk/v2_DepthDuration_HTML.html#182,182,1366,768,1366,768,8-29-2022,11-38-8,65,depth_duration_stimuli/000866_2014-06-09_20-45-42_260595134347_rgbf000139-resize_1/000866_2014-06-09_20-45-42_260595134347_rgbf000139-resize_1-target.png,125,3.2155,7,1325,124,feet,jsons/VE125_randls_44.json,359311,498783,44,Man
65,597682,DepthScenes,duration_manipulation_targetAtFixation,jsons/VE125_randls_44.json,http://54.235.29.9/FacialAge/BNav_EC2/DepthDuration/v2_depth_duration_MTurk/v2_DepthDuration_HTML.html#182,182,1366,768,1366,768,8-29-2022,11-38-8,66,depth_duration_stimuli/001222_2014-06-17_16-24-06_260595134347_rgbf000073-resize_0/001222_2014-06-17_16-24-06_260595134347_rgbf000073-resize-original.jpg,125,1.4385,0,2588,125,feet,jsons/VE125_randls_44.json,359311,498783,44,Man
66,597682,DepthScenes,duration_manipulation_targetAtFixation,jsons/VE125_randls_44.json,http://54.235.29.9/FacialAge/BNav_EC2/DepthDuration/v2_depth_duration_MTurk/v2_DepthDuration_HTML.html#182,182,1366,768,1366,768,8-29-2022,11-38-8,67,depth_duration_stimuli/000447_2014-06-08_16-15-46_260595134347_rgbf000130-resize_1/000447_2014-06-08_16-15-46_260595134347_rgbf000130-resize_1-target.png,125,4.479,6,1872,124,feet,jsons/VE125_randls_44.json,359311,498783,44,Man
67,597682,DepthScenes,duration_manipulation_targetAtFixation,jsons/VE125_randls_44.json,http://54.235.29.9/FacialAge/BNav_EC2/DepthDuration/v2_depth_duration_MTurk/v2_DepthDuration_HTML.html#182,182,1366,768,1366,768,8-29-2022,11-38-8,68,depth_duration_stimuli/001447_2014-06-19_17-00-32_260595134347_rgbf000082-resize_5/001447_2014-06-19_17-00-32_260595134347_rgbf000082-resize_5-target.png,125,4.13775,5,1785,124,feet,jsons/VE125_randls_44.json,359311,498783,44,Man
68,597682,DepthScenes,duration_manipulation_targetAtFixation,jsons/VE125_randls_44.json,http://54.235.29.9/FacialAge/BNav_EC2/DepthDuration/v2_depth_duration_MTurk/v2_DepthDuration_HTML.html#182,182,1366,768,1366,768,8-29-2022,11-38-8,69,depth_duration_stimuli/000682_2014-06-08_23-14-58_260595134347_rgbf000041-resize_5/000682_2014-06-08_23-14-58_260595134347_rgbf000041-resize_5-target.png,125,2.7239999999999998,5,1388,124,feet,jsons/VE125_randls_44.json,359311,498783,44,Man
69,597682,DepthScenes,duration_manipulation_targetAtFixation,jsons/VE125_randls_44.json,http://54.235.29.9/FacialAge/BNav_EC2/DepthDuration/v2_depth_duration_MTurk/v2_DepthDuration_HTML.html#182,182,1366,768,1366,768,8-29-2022,11-38-8,70,depth_duration_stimuli/001650_2014-06-20_12-09-00_260595134347_rgbf000087-resize_3/001650_2014-06-20_12-09-00_260595134347_rgbf000087-resize_3-target.png,125,1.9505,4,2120,124,feet,jsons/VE125_randls_44.json,359311,498783,44,Man
70,597682,DepthScenes,duration_manipulation_targetAtFixation,jsons/VE125_randls_44.json,http://54.235.29.9/FacialAge/BNav_EC2/DepthDuration/v2_depth_duration_MTurk/v2_DepthDuration_HTML.html#182,182,1366,768,1366,768,8-29-2022,11-38-8,71,depth_duration_stimuli/002549_2014-06-24_13-41-39_094959634447_rgbf000022-resize_3/002549_2014-06-24_13-41-39_094959634447_rgbf000022-resize_3-target.png,125,1.476,4,1326,124,feet,jsons/VE125_randls_44.json,359311,498783,44,Man
71,597682,DepthScenes,duration_manipulation_targetAtFixation,jsons/VE125_randls_44.json,http://54.235.29.9/FacialAge/BNav_EC2/DepthDuration/v2_depth_duration_MTurk/v2_DepthDuration_HTML.html#182,182,1366,768,1366,768,8-29-2022,11-38-8,72,depth_duration_stimuli/002750_2014-06-22_19-08-03_094959634447_rgbf000094-resize_4/002750_2014-06-22_19-08-03_094959634447_rgbf000094-resize_4-target.png,125,2.354,5,1326,124,feet,jsons/VE125_randls_44.json,359311,498783,44,Man
72,597682,DepthScenes,duration_manipulation_targetAtFixation,jsons/VE125_randls_44.json,http://54.235.29.9/FacialAge/BNav_EC2/DepthDuration/v2_depth_duration_MTurk/v2_DepthDuration_HTML.html#182,182,1366,768,1366,768,8-29-2022,11-38-8,73,depth_duration_stimuli/000917_2014-06-09_22-45-29_260595134347_rgbf000149-resize_3/000917_2014-06-09_22-45-29_260595134347_rgbf000149-resize_3-target.png,125,4.1865,5,1479,125,feet,jsons/VE125_randls_44.json,359311,498783,44,Man
73,597682,DepthScenes,duration_manipulation_targetAtFixation,jsons/VE125_randls_44.json,http://54.235.29.9/FacialAge/BNav_EC2/DepthDuration/v2_depth_duration_MTurk/v2_DepthDuration_HTML.html#182,182,1366,768,1366,768,8-29-2022,11-38-8,74,depth_duration_stimuli/002323_2014-06-28_20-01-54_260595134347_rgbf000051-resize_4/002323_2014-06-28_20-01-54_260595134347_rgbf000051-resize_4-target.png,125,3.7310000000000003,5,1318,124,feet,jsons/VE125_randls_44.json,359311,498783,44,Man
74,597682,DepthScenes,duration_manipulation_targetAtFixation,jsons/VE125_randls_44.json,http://54.235.29.9/FacialAge/BNav_EC2/DepthDuration/v2_depth_duration_MTurk/v2_DepthDuration_HTML.html#182,182,1366,768,1366,768,8-29-2022,11-38-8,75,depth_duration_stimuli/001158_2014-06-17_15-32-16_260595134347_rgbf000138-resize_2/001158_2014-06-17_15-32-16_260595134347_rgbf000138-resize_2-target.png,125,4.5315,6,2207,124,feet,jsons/VE125_randls_44.json,359311,498783,44,Man
75,597682,DepthScenes,duration_manipulation_targetAtFixation,jsons/VE125_randls_44.json,http://54.235.29.9/FacialAge/BNav_EC2/DepthDuration/v2_depth_duration_MTurk/v2_DepthDuration_HTML.html#182,182,1366,768,1366,768,8-29-2022,11-38-8,76,depth_duration_stimuli/000556_2014-06-09_22-42-56_260595134347_rgbf000214-resize_1/000556_2014-06-09_22-42-56_260595134347_rgbf000214-resize_1-target.png,125,4.8415,6,1331,124,feet,jsons/VE125_randls_44.json,359311,498783,44,Man
76,597682,DepthScenes,duration_manipulation_targetAtFixation,jsons/VE125_randls_44.json,http://54.235.29.9/FacialAge/BNav_EC2/DepthDuration/v2_depth_duration_MTurk/v2_DepthDuration_HTML.html#182,182,1366,768,1366,768,8-29-2022,11-38-8,77,depth_duration_stimuli/003534_2014-05-22_15-06-10_094959634447_rgbf000102-resize_4/003534_2014-05-22_15-06-10_094959634447_rgbf000102-resize_4-target.png,125,1.426,4,1897,124,feet,jsons/VE125_randls_44.json,359311,498783,44,Man
77,597682,DepthScenes,duration_manipulation_targetAtFixation,jsons/VE125_randls_44.json,http://54.235.29.9/FacialAge/BNav_EC2/DepthDuration/v2_depth_duration_MTurk/v2_DepthDuration_HTML.html#182,182,1366,768,1366,768,8-29-2022,11-38-8,78,depth_duration_stimuli/002637_2014-06-24_14-51-13_094959634447_rgbf000066-resize_4/002637_2014-06-24_14-51-13_094959634447_rgbf000066-resize_4-target.png,125,1.9955,5,1619,124,feet,jsons/VE125_randls_44.json,359311,498783,44,Man
78,597682,DepthScenes,duration_manipulation_targetAtFixation,jsons/VE125_randls_44.json,http://54.235.29.9/FacialAge/BNav_EC2/DepthDuration/v2_depth_duration_MTurk/v2_DepthDuration_HTML.html#182,182,1366,768,1366,768,8-29-2022,11-38-8,79,depth_duration_stimuli/000736_2014-06-08_18-24-15_260595134347_rgbf000206-resize_3/000736_2014-06-08_18-24-15_260595134347_rgbf000206-resize_3-target.png,125,3.515,5,1326,125,feet,jsons/VE125_randls_44.json,359311,498783,44,Man
79,597682,DepthScenes,duration_manipulation_targetAtFixation,jsons/VE125_randls_44.json,http://54.235.29.9/FacialAge/BNav_EC2/DepthDuration/v2_depth_duration_MTurk/v2_DepthDuration_HTML.html#182,182,1366,768,1366,768,8-29-2022,11-38-8,80,depth_duration_stimuli/000137_2014-05-20_17-04-49_260595134347_rgbf000120-resize_1/000137_2014-05-20_17-04-49_260595134347_rgbf000120-resize_1-target.png,125,3.786,5,1348,124,feet,jsons/VE125_randls_44.json,359311,498783,44,Man
80,597682,DepthScenes,duration_manipulation_targetAtFixation,jsons/VE125_randls_44.json,http://54.235.29.9/FacialAge/BNav_EC2/DepthDuration/v2_depth_duration_MTurk/v2_DepthDuration_HTML.html#182,182,1366,768,1366,768,8-29-2022,11-38-8,81,depth_duration_stimuli/002784_2014-06-22_19-26-30_094959634447_rgbf000083-resize_3/002784_2014-06-22_19-26-30_094959634447_rgbf000083-resize_3-target.png,125,1.8046666666667,4,2168,125,feet,jsons/VE125_randls_44.json,359311,498783,44,Man
81,597682,DepthScenes,duration_manipulation_targetAtFixation,jsons/VE125_randls_44.json,http://54.235.29.9/FacialAge/BNav_EC2/DepthDuration/v2_depth_duration_MTurk/v2_DepthDuration_HTML.html#182,182,1366,768,1366,768,8-29-2022,11-38-8,82,depth_duration_stimuli/001100_2014-06-15_17-46-26_260595134347_rgbf000225-resize_2/001100_2014-06-15_17-46-26_260595134347_rgbf000225-resize_2-target.png,125,2.24,4,1644,125,feet,jsons/VE125_randls_44.json,359311,498783,44,Man
82,597682,DepthScenes,duration_manipulation_targetAtFixation,jsons/VE125_randls_44.json,http://54.235.29.9/FacialAge/BNav_EC2/DepthDuration/v2_depth_duration_MTurk/v2_DepthDuration_HTML.html#182,182,1366,768,1366,768,8-29-2022,11-38-8,83,depth_duration_stimuli/002988_2014-06-15_12-24-20_094959634447_rgbf000150-resize_1/002988_2014-06-15_12-24-20_094959634447_rgbf000150-resize_1-target.png,125,4.7669999999999995,6,2261,124,feet,jsons/VE125_randls_44.json,359311,498783,44,Man
83,597682,DepthScenes,duration_manipulation_targetAtFixation,jsons/VE125_randls_44.json,http://54.235.29.9/FacialAge/BNav_EC2/DepthDuration/v2_depth_duration_MTurk/v2_DepthDuration_HTML.html#182,182,1366,768,1366,768,8-29-2022,11-38-8,84,depth_duration_stimuli/001052_2014-06-08_18-24-54_260595134347_rgbf000130-resize_1/001052_2014-06-08_18-24-54_260595134347_rgbf000130-resize_1-target.png,125,4.1045,7,1684,124,feet,jsons/VE125_randls_44.json,359311,498783,44,Man
84,597682,DepthScenes,duration_manipulation_targetAtFixation,jsons/VE125_randls_44.json,http://54.235.29.9/FacialAge/BNav_EC2/DepthDuration/v2_depth_duration_MTurk/v2_DepthDuration_HTML.html#182,182,1366,768,1366,768,8-29-2022,11-38-8,85,depth_duration_stimuli/002509_2014-06-24_13-19-22_094959634447_rgbf000077-resize_0/002509_2014-06-24_13-19-22_094959634447_rgbf000077-resize_0-target.png,125,1.3065,4,1607,124,feet,jsons/VE125_randls_44.json,359311,498783,44,Man
85,597682,DepthScenes,duration_manipulation_targetAtFixation,jsons/VE125_randls_44.json,http://54.235.29.9/FacialAge/BNav_EC2/DepthDuration/v2_depth_duration_MTurk/v2_DepthDuration_HTML.html#182,182,1366,768,1366,768,8-29-2022,11-38-8,86,depth_duration_stimuli/003338_2014-05-20_11-01-23_094959634447_rgbf000051-resize_6/003338_2014-05-20_11-01-23_094959634447_rgbf000051-resize_6-target.png,125,1.693,4,1316,124,feet,jsons/VE125_randls_44.json,359311,498783,44,Man
86,597682,DepthScenes,duration_manipulation_targetAtFixation,jsons/VE125_randls_44.json,http://54.235.29.9/FacialAge/BNav_EC2/DepthDuration/v2_depth_duration_MTurk/v2_DepthDuration_HTML.html#182,182,1366,768,1366,768,8-29-2022,11-38-8,87,depth_duration_stimuli/001150_2014-06-17_15-27-34_260595134347_rgbf000108-resize_2/001150_2014-06-17_15-27-34_260595134347_rgbf000108-resize_2-target.png,125,4.0325,7,1707,124,feet,jsons/VE125_randls_44.json,359311,498783,44,Man
87,597682,DepthScenes,duration_manipulation_targetAtFixation,jsons/VE125_randls_44.json,http://54.235.29.9/FacialAge/BNav_EC2/DepthDuration/v2_depth_duration_MTurk/v2_DepthDuration_HTML.html#182,182,1366,768,1366,768,8-29-2022,11-38-8,88,depth_duration_stimuli/000665_2014-06-09_20-42-35_260595134347_rgbf000110-resize_1/000665_2014-06-09_20-42-35_260595134347_rgbf000110-resize_1-target.png,125,3.057,6,2199,124,feet,jsons/VE125_randls_44.json,359311,498783,44,Man
88,597682,DepthScenes,duration_manipulation_targetAtFixation,jsons/VE125_randls_44.json,http://54.235.29.9/FacialAge/BNav_EC2/DepthDuration/v2_depth_duration_MTurk/v2_DepthDuration_HTML.html#182,182,1366,768,1366,768,8-29-2022,11-38-8,89,depth_duration_stimuli/002043_2014-06-24_20-29-38_260595134347_rgbf000039-resize_4/002043_2014-06-24_20-29-38_260595134347_rgbf000039-resize_4-target.png,125,2.8435,6,1387,124,feet,jsons/VE125_randls_44.json,359311,498783,44,Man
89,597682,DepthScenes,duration_manipulation_targetAtFixation,jsons/VE125_randls_44.json,http://54.235.29.9/FacialAge/BNav_EC2/DepthDuration/v2_depth_duration_MTurk/v2_DepthDuration_HTML.html#182,182,1366,768,1366,768,8-29-2022,11-38-8,90,depth_duration_stimuli/003048_2014-06-15_13-49-43_094959634447_rgbf000150-resize_1/003048_2014-06-15_13-49-43_094959634447_rgbf000150-resize_1-target.png,125,4.0035,6,1333,124,feet,jsons/VE125_randls_44.json,359311,498783,44,Man
90,597682,DepthScenes,duration_manipulation_targetAtFixation,jsons/VE125_randls_44.json,http://54.235.29.9/FacialAge/BNav_EC2/DepthDuration/v2_depth_duration_MTurk/v2_DepthDuration_HTML.html#182,182,1366,768,1366,768,8-29-2022,11-38-8,91,depth_duration_stimuli/001167_2014-06-17_15-38-07_260595134347_rgbf000108-resize_0/001167_2014-06-17_15-38-07_260595134347_rgbf000108-resize_0-target.png,125,1.8505,4,1630,124,feet,jsons/VE125_randls_44.json,359311,498783,44,Man
91,597682,DepthScenes,duration_manipulation_targetAtFixation,jsons/VE125_randls_44.json,http://54.235.29.9/FacialAge/BNav_EC2/DepthDuration/v2_depth_duration_MTurk/v2_DepthDuration_HTML.html#182,182,1366,768,1366,768,8-29-2022,11-38-8,92,depth_duration_stimuli/003587_2014-05-23_16-48-02_094959634447_rgbf002384-resize_2/003587_2014-05-23_16-48-02_094959634447_rgbf002384-resize_2-target.png,125,1.357,4,1369,124,feet,jsons/VE125_randls_44.json,359311,498783,44,Man
92,597682,DepthScenes,duration_manipulation_targetAtFixation,jsons/VE125_randls_44.json,http://54.235.29.9/FacialAge/BNav_EC2/DepthDuration/v2_depth_duration_MTurk/v2_DepthDuration_HTML.html#182,182,1366,768,1366,768,8-29-2022,11-38-8,93,depth_duration_stimuli/001808_2014-06-26_20-50-58_260595134347_rgbf000029-resize_1/001808_2014-06-26_20-50-58_260595134347_rgbf000029-resize_1-target.png,125,4.249,6,1967,124,feet,jsons/VE125_randls_44.json,359311,498783,44,Man
93,597682,DepthScenes,duration_manipulation_targetAtFixation,jsons/VE125_randls_44.json,http://54.235.29.9/FacialAge/BNav_EC2/DepthDuration/v2_depth_duration_MTurk/v2_DepthDuration_HTML.html#182,182,1366,768,1366,768,8-29-2022,11-38-8,94,depth_duration_stimuli/001815_2014-06-26_20-52-55_260595134347_rgbf000020-resize_0/001815_2014-06-26_20-52-55_260595134347_rgbf000020-resize_0-target.png,125,3.3865,7,1923,124,feet,jsons/VE125_randls_44.json,359311,498783,44,Man
94,597682,DepthScenes,duration_manipulation_targetAtFixation,jsons/VE125_randls_44.json,http://54.235.29.9/FacialAge/BNav_EC2/DepthDuration/v2_depth_duration_MTurk/v2_DepthDuration_HTML.html#182,182,1366,768,1366,768,8-29-2022,11-38-8,95,depth_duration_stimuli/000469_2014-06-09_19-42-10_260595134347_rgbf000081-resize_1/000469_2014-06-09_19-42-10_260595134347_rgbf000081-resize_1-target.png,125,1.652,4,1638,124,feet,jsons/VE125_randls_44.json,359311,498783,44,Man
95,597682,DepthScenes,duration_manipulation_targetAtFixation,jsons/VE125_randls_44.json,http://54.235.29.9/FacialAge/BNav_EC2/DepthDuration/v2_depth_duration_MTurk/v2_DepthDuration_HTML.html#182,182,1366,768,1366,768,8-29-2022,11-38-8,96,depth_duration_stimuli/000483_2014-06-09_20-41-45_260595134347_rgbf000116-resize_4/000483_2014-06-09_20-41-45_260595134347_rgbf000116-resize_4-target.png,125,1.337,4,1404,124,feet,jsons/VE125_randls_44.json,359311,498783,44,Man
96,597682,DepthScenes,duration_manipulation_targetAtFixation,jsons/VE125_randls_44.json,http://54.235.29.9/FacialAge/BNav_EC2/DepthDuration/v2_depth_duration_MTurk/v2_DepthDuration_HTML.html#182,182,1366,768,1366,768,8-29-2022,11-38-8,97,depth_duration_stimuli/001092_2014-06-15_17-34-58_260595134347_rgbf000171-resize_3/001092_2014-06-15_17-34-58_260595134347_rgbf000171-resize_3-target.png,125,2.6935,6,2004,124,feet,jsons/VE125_randls_44.json,359311,498783,44,Man
97,597682,DepthScenes,duration_manipulation_targetAtFixation,jsons/VE125_randls_44.json,http://54.235.29.9/FacialAge/BNav_EC2/DepthDuration/v2_depth_duration_MTurk/v2_DepthDuration_HTML.html#182,182,1366,768,1366,768,8-29-2022,11-38-8,98,depth_duration_stimuli/002545_2014-06-24_13-38-53_094959634447_rgbf000080-resize_4/002545_2014-06-24_13-38-53_094959634447_rgbf000080-resize_4-target.png,125,1.9205,5,1465,125,feet,jsons/VE125_randls_44.json,359311,498783,44,Man
98,597682,DepthScenes,duration_manipulation_targetAtFixation,jsons/VE125_randls_44.json,http://54.235.29.9/FacialAge/BNav_EC2/DepthDuration/v2_depth_duration_MTurk/v2_DepthDuration_HTML.html#182,182,1366,768,1366,768,8-29-2022,11-38-8,99,depth_duration_stimuli/001540_2014-06-20_17-01-05_260595134347_rgbf000086-resize_2/001540_2014-06-20_17-01-05_260595134347_rgbf000086-resize-original.jpg,125,1.459,0,2236,124,feet,jsons/VE125_randls_44.json,359311,498783,44,Man
99,597682,DepthScenes,duration_manipulation_targetAtFixation,jsons/VE125_randls_44.json,http://54.235.29.9/FacialAge/BNav_EC2/DepthDuration/v2_depth_duration_MTurk/v2_DepthDuration_HTML.html#182,182,1366,768,1366,768,8-29-2022,11-38-8,100,depth_duration_stimuli/001056_2014-06-08_18-46-44_260595134347_rgbf000068-resize_0/001056_2014-06-08_18-46-44_260595134347_rgbf000068-resize_0-target.png,125,2.6625,5,2034,124,feet,jsons/VE125_randls_44.json,359311,498783,44,Man
100,597682,DepthScenes,duration_manipulation_targetAtFixation,jsons/VE125_randls_44.json,http://54.235.29.9/FacialAge/BNav_EC2/DepthDuration/v2_depth_duration_MTurk/v2_DepthDuration_HTML.html#182,182,1366,768,1366,768,8-29-2022,11-38-8,101,depth_duration_stimuli/002199_2014-06-28_18-33-56_260595134347_rgbf000074-resize_0/002199_2014-06-28_18-33-56_260595134347_rgbf000074-resize_0-target.png,125,1.996,4,1631,124,feet,jsons/VE125_randls_44.json,359311,498783,44,Man
101,597682,DepthScenes,duration_manipulation_targetAtFixation,jsons/VE125_randls_44.json,http://54.235.29.9/FacialAge/BNav_EC2/DepthDuration/v2_depth_duration_MTurk/v2_DepthDuration_HTML.html#182,182,1366,768,1366,768,8-29-2022,11-38-8,102,depth_duration_stimuli/002905_2014-06-03_18-04-43_094959634447_rgbf000151-resize_2/002905_2014-06-03_18-04-43_094959634447_rgbf000151-resize_2-target.png,125,2.0295,5,1675,125,feet,jsons/VE125_randls_44.json,359311,498783,44,Man
102,597682,DepthScenes,duration_manipulation_targetAtFixation,jsons/VE125_randls_44.json,http://54.235.29.9/FacialAge/BNav_EC2/DepthDuration/v2_depth_duration_MTurk/v2_DepthDuration_HTML.html#182,182,1366,768,1366,768,8-29-2022,11-38-8,103,depth_duration_stimuli/003423_2014-05-21_10-23-26_094959634447_rgbf002665-resize_2/003423_2014-05-21_10-23-26_094959634447_rgbf002665-resize_2-target.png,125,3.2575,6,1998,124,feet,jsons/VE125_randls_44.json,359311,498783,44,Man
103,597682,DepthScenes,duration_manipulation_targetAtFixation,jsons/VE125_randls_44.json,http://54.235.29.9/FacialAge/BNav_EC2/DepthDuration/v2_depth_duration_MTurk/v2_DepthDuration_HTML.html#182,182,1366,768,1366,768,8-29-2022,11-38-8,104,depth_duration_stimuli/001066_2014-06-08_22-03-20_260595134347_rgbf000066-resize_4/001066_2014-06-08_22-03-20_260595134347_rgbf000066-resize_4-target.png,125,4.2330000000000005,6,1385,124,feet,jsons/VE125_randls_44.json,359311,498783,44,Man
104,597682,DepthScenes,duration_manipulation_targetAtFixation,jsons/VE125_randls_44.json,http://54.235.29.9/FacialAge/BNav_EC2/DepthDuration/v2_depth_duration_MTurk/v2_DepthDuration_HTML.html#182,182,1366,768,1366,768,8-29-2022,11-38-8,105,depth_duration_stimuli/000742_2014-06-08_18-48-09_260595134347_rgbf000164-resize_4/000742_2014-06-08_18-48-09_260595134347_rgbf000164-resize_4-target.png,125,4.632,7,1647,124,feet,jsons/VE125_randls_44.json,359311,498783,44,Man
105,597682,DepthScenes,duration_manipulation_targetAtFixation,jsons/VE125_randls_44.json,http://54.235.29.9/FacialAge/BNav_EC2/DepthDuration/v2_depth_duration_MTurk/v2_DepthDuration_HTML.html#182,182,1366,768,1366,768,8-29-2022,11-38-8,106,depth_duration_stimuli/001810_2014-06-26_20-51-35_260595134347_rgbf000040-resize_3/001810_2014-06-26_20-51-35_260595134347_rgbf000040-resize_3-target.png,125,2.2525,5,1754,124,feet,jsons/VE125_randls_44.json,359311,498783,44,Man
106,597682,DepthScenes,duration_manipulation_targetAtFixation,jsons/VE125_randls_44.json,http://54.235.29.9/FacialAge/BNav_EC2/DepthDuration/v2_depth_duration_MTurk/v2_DepthDuration_HTML.html#182,182,1366,768,1366,768,8-29-2022,11-38-8,107,depth_duration_stimuli/003010_2014-06-15_12-54-35_094959634447_rgbf000112-resize_0/003010_2014-06-15_12-54-35_094959634447_rgbf000112-resize_0-target.png,125,3.1185,7,2051,125,feet,jsons/VE125_randls_44.json,359311,498783,44,Man
107,597682,DepthScenes,duration_manipulation_targetAtFixation,jsons/VE125_randls_44.json,http://54.235.29.9/FacialAge/BNav_EC2/DepthDuration/v2_depth_duration_MTurk/v2_DepthDuration_HTML.html#182,182,1366,768,1366,768,8-29-2022,11-38-8,108,depth_duration_stimuli/002272_2014-06-28_18-53-56_260595134347_rgbf000067-resize_2/002272_2014-06-28_18-53-56_260595134347_rgbf000067-resize_2-target.png,125,1.138,4,1535,125,feet,jsons/VE125_randls_44.json,359311,498783,44,Man
108,597682,DepthScenes,duration_manipulation_targetAtFixation,jsons/VE125_randls_44.json,http://54.235.29.9/FacialAge/BNav_EC2/DepthDuration/v2_depth_duration_MTurk/v2_DepthDuration_HTML.html#182,182,1366,768,1366,768,8-29-2022,11-38-8,109,depth_duration_stimuli/001571_2014-06-20_17-21-32_260595134347_rgbf000089-resize_1/001571_2014-06-20_17-21-32_260595134347_rgbf000089-resize_1-target.png,125,1.86,4,1316,124,feet,jsons/VE125_randls_44.json,359311,498783,44,Man
109,597682,DepthScenes,duration_manipulation_targetAtFixation,jsons/VE125_randls_44.json,http://54.235.29.9/FacialAge/BNav_EC2/DepthDuration/v2_depth_duration_MTurk/v2_DepthDuration_HTML.html#182,182,1366,768,1366,768,8-29-2022,11-38-8,110,depth_duration_stimuli/002788_2014-06-22_19-36-03_094959634447_rgbf000088-resize_2/002788_2014-06-22_19-36-03_094959634447_rgbf000088-resize_2-target.png,125,1.6465,6,2090,124,feet,jsons/VE125_randls_44.json,359311,498783,44,Man
110,597682,DepthScenes,duration_manipulation_targetAtFixation,jsons/VE125_randls_44.json,http://54.235.29.9/FacialAge/BNav_EC2/DepthDuration/v2_depth_duration_MTurk/v2_DepthDuration_HTML.html#182,182,1366,768,1366,768,8-29-2022,11-38-8,111,depth_duration_stimuli/000749_2014-06-08_21-55-06_260595134347_rgbf000070-resize_2/000749_2014-06-08_21-55-06_260595134347_rgbf000070-resize_2-target.png,125,2.331,5,1363,124,feet,jsons/VE125_randls_44.json,359311,498783,44,Man
111,597682,DepthScenes,duration_manipulation_targetAtFixation,jsons/VE125_randls_44.json,http://54.235.29.9/FacialAge/BNav_EC2/DepthDuration/v2_depth_duration_MTurk/v2_DepthDuration_HTML.html#182,182,1366,768,1366,768,8-29-2022,11-38-8,112,depth_duration_stimuli/001244_2014-06-17_16-47-45_260595134347_rgbf000030-resize_4/001244_2014-06-17_16-47-45_260595134347_rgbf000030-resize_4-target.png,125,2.0425,5,1347,125,feet,jsons/VE125_randls_44.json,359311,498783,44,Man
112,597682,DepthScenes,duration_manipulation_targetAtFixation,jsons/VE125_randls_44.json,http://54.235.29.9/FacialAge/BNav_EC2/DepthDuration/v2_depth_duration_MTurk/v2_DepthDuration_HTML.html#182,182,1366,768,1366,768,8-29-2022,11-38-8,113,depth_duration_stimuli/003495_2014-05-21_16-01-51_094959634447_rgbf000100-resize_3/003495_2014-05-21_16-01-51_094959634447_rgbf000100-resize_3-target.png,125,1.6255,5,1326,124,feet,jsons/VE125_randls_44.json,359311,498783,44,Man
113,597682,DepthScenes,duration_manipulation_targetAtFixation,jsons/VE125_randls_44.json,http://54.235.29.9/FacialAge/BNav_EC2/DepthDuration/v2_depth_duration_MTurk/v2_DepthDuration_HTML.html#182,182,1366,768,1366,768,8-29-2022,11-38-8,114,depth_duration_stimuli/000906_2014-06-08_13-35-43_260595134347_rgbf000155-resize_1/000906_2014-06-08_13-35-43_260595134347_rgbf000155-resize_1-target.png,125,2.8489999999999998,6,1690,124,feet,jsons/VE125_randls_44.json,359311,498783,44,Man
114,597682,DepthScenes,duration_manipulation_targetAtFixation,jsons/VE125_randls_44.json,http://54.235.29.9/FacialAge/BNav_EC2/DepthDuration/v2_depth_duration_MTurk/v2_DepthDuration_HTML.html#182,182,1366,768,1366,768,8-29-2022,11-38-8,115,depth_duration_stimuli/002805_2014-06-22_19-54-03_094959634447_rgbf000079-resize_1/002805_2014-06-22_19-54-03_094959634447_rgbf000079-resize_1-target.png,125,3.1439999999999997,6,1335,124,feet,jsons/VE125_randls_44.json,359311,498783,44,Man
115,597682,DepthScenes,duration_manipulation_targetAtFixation,jsons/VE125_randls_44.json,http://54.235.29.9/FacialAge/BNav_EC2/DepthDuration/v2_depth_duration_MTurk/v2_DepthDuration_HTML.html#182,182,1366,768,1366,768,8-29-2022,11-38-8,116,depth_duration_stimuli/001170_2014-06-17_15-43-44_260595134347_rgbf000096-resize_6/001170_2014-06-17_15-43-44_260595134347_rgbf000096-resize-original.jpg,125,1.1909999999999998,0,2230,124,feet,jsons/VE125_randls_44.json,359311,498783,44,Man
116,597682,DepthScenes,duration_manipulation_targetAtFixation,jsons/VE125_randls_44.json,http://54.235.29.9/FacialAge/BNav_EC2/DepthDuration/v2_depth_duration_MTurk/v2_DepthDuration_HTML.html#182,182,1366,768,1366,768,8-29-2022,11-38-8,117,depth_duration_stimuli/000414_2014-06-04_19-49-13_260595134347_rgbf000044-resize_0/000414_2014-06-04_19-49-13_260595134347_rgbf000044-resize_0-target.png,125,4.329,6,2050,124,feet,jsons/VE125_randls_44.json,359311,498783,44,Man
117,597682,DepthScenes,duration_manipulation_targetAtFixation,jsons/VE125_randls_44.json,http://54.235.29.9/FacialAge/BNav_EC2/DepthDuration/v2_depth_duration_MTurk/v2_DepthDuration_HTML.html#182,182,1366,768,1366,768,8-29-2022,11-38-8,118,depth_duration_stimuli/003129_2014-05-12_10-48-10_094959634447_rgbf000100-resize_0/003129_2014-05-12_10-48-10_094959634447_rgbf000100-resize_0-target.png,125,4.9305,6,1420,124,feet,jsons/VE125_randls_44.json,359311,498783,44,Man
118,597682,DepthScenes,duration_manipulation_targetAtFixation,jsons/VE125_randls_44.json,http://54.235.29.9/FacialAge/BNav_EC2/DepthDuration/v2_depth_duration_MTurk/v2_DepthDuration_HTML.html#182,182,1366,768,1366,768,8-29-2022,11-38-8,119,depth_duration_stimuli/002763_2014-06-22_19-13-10_094959634447_rgbf000075-resize_4/002763_2014-06-22_19-13-10_094959634447_rgbf000075-resize_4-target.png,125,1.68375,6,1294,125,feet,jsons/VE125_randls_44.json,359311,498783,44,Man
119,597682,DepthScenes,duration_manipulation_targetAtFixation,jsons/VE125_randls_44.json,http://54.235.29.9/FacialAge/BNav_EC2/DepthDuration/v2_depth_duration_MTurk/v2_DepthDuration_HTML.html#182,182,1366,768,1366,768,8-29-2022,11-38-8,120,depth_duration_stimuli/002209_2014-06-28_18-36-10_260595134347_rgbf000051-resize_1/002209_2014-06-28_18-36-10_260595134347_rgbf000051-resize_1-target.png,125,2.057,5,1463,124,feet,jsons/VE125_randls_44.json,359311,498783,44,Man
120,597682,DepthScenes,duration_manipulation_targetAtFixation,jsons/VE125_randls_44.json,http://54.235.29.9/FacialAge/BNav_EC2/DepthDuration/v2_depth_duration_MTurk/v2_DepthDuration_HTML.html#182,182,1366,768,1366,768,8-29-2022,11-38-8,121,depth_duration_stimuli/000436_2014-06-09_22-25-11_260595134347_rgbf000137-resize_1/000436_2014-06-09_22-25-11_260595134347_rgbf000137-resize_1-target.png,125,4.0705,7,2201,125,feet,jsons/VE125_randls_44.json,359311,498783,44,Man
121,597682,DepthScenes,duration_manipulation_targetAtFixation,jsons/VE125_randls_44.json,http://54.235.29.9/FacialAge/BNav_EC2/DepthDuration/v2_depth_duration_MTurk/v2_DepthDuration_HTML.html#182,182,1366,768,1366,768,8-29-2022,11-38-8,122,depth_duration_stimuli/002444_2014-06-28_20-32-08_260595134347_rgbf000027-resize_0/002444_2014-06-28_20-32-08_260595134347_rgbf000027-resize_0-target.png,125,4.388999999999999,6,1690,124,feet,jsons/VE125_randls_44.json,359311,498783,44,Man
122,597682,DepthScenes,duration_manipulation_targetAtFixation,jsons/VE125_randls_44.json,http://54.235.29.9/FacialAge/BNav_EC2/DepthDuration/v2_depth_duration_MTurk/v2_DepthDuration_HTML.html#182,182,1366,768,1366,768,8-29-2022,11-38-8,123,depth_duration_stimuli/001029_2014-06-08_13-17-57_260595134347_rgbf000065-resize_1/001029_2014-06-08_13-17-57_260595134347_rgbf000065-resize_1-target.png,125,3.0835,6,1334,124,feet,jsons/VE125_randls_44.json,359311,498783,44,Man
123,597682,DepthScenes,duration_manipulation_targetAtFixation,jsons/VE125_randls_44.json,http://54.235.29.9/FacialAge/BNav_EC2/DepthDuration/v2_depth_duration_MTurk/v2_DepthDuration_HTML.html#182,182,1366,768,1366,768,8-29-2022,11-38-8,124,depth_duration_stimuli/000677_2014-06-08_23-10-32_260595134347_rgbf000158-resize_6/000677_2014-06-08_23-10-32_260595134347_rgbf000158-resize_6-target.png,125,3.556,6,1378,125,feet,jsons/VE125_randls_44.json,359311,498783,44,Man
124,597682,DepthScenes,duration_manipulation_targetAtFixation,jsons/VE125_randls_44.json,http://54.235.29.9/FacialAge/BNav_EC2/DepthDuration/v2_depth_duration_MTurk/v2_DepthDuration_HTML.html#182,182,1366,768,1366,768,8-29-2022,11-38-8,125,depth_duration_stimuli/001059_2014-06-08_21-53-27_260595134347_rgbf000061-resize_4/001059_2014-06-08_21-53-27_260595134347_rgbf000061-resize_4-target.png,125,2.4185,5,2293,125,feet,jsons/VE125_randls_44.json,359311,498783,44,Man
125,597682,DepthScenes,duration_manipulation_targetAtFixation,jsons/VE125_randls_44.json,http://54.235.29.9/FacialAge/BNav_EC2/DepthDuration/v2_depth_duration_MTurk/v2_DepthDuration_HTML.html#182,182,1366,768,1366,768,8-29-2022,11-38-8,126,depth_duration_stimuli/001032_2014-06-08_13-23-17_260595134347_rgbf000021-resize_3/001032_2014-06-08_13-23-17_260595134347_rgbf000021-resize_3-target.png,125,3.2725,5,1343,124,feet,jsons/VE125_randls_44.json,359311,498783,44,Man
126,597682,DepthScenes,duration_manipulation_targetAtFixation,jsons/VE125_randls_44.json,http://54.235.29.9/FacialAge/BNav_EC2/DepthDuration/v2_depth_duration_MTurk/v2_DepthDuration_HTML.html#182,182,1366,768,1366,768,8-29-2022,11-38-8,127,depth_duration_stimuli/002964_2014-06-08_17-46-11_094959634447_rgbf000091-resize_4/002964_2014-06-08_17-46-11_094959634447_rgbf000091-resize_4-target.png,125,1.6909999999999998,4,2002,125,feet,jsons/VE125_randls_44.json,359311,498783,44,Man
127,597682,DepthScenes,duration_manipulation_targetAtFixation,jsons/VE125_randls_44.json,http://54.235.29.9/FacialAge/BNav_EC2/DepthDuration/v2_depth_duration_MTurk/v2_DepthDuration_HTML.html#182,182,1366,768,1366,768,8-29-2022,11-38-8,128,depth_duration_stimuli/002136_2014-06-25_21-18-03_260595134347_rgbf000109-resize_3/002136_2014-06-25_21-18-03_260595134347_rgbf000109-resize_3-target.png,125,1.9569999999999999,4,1606,125,feet,jsons/VE125_randls_44.json,359311,498783,44,Man
128,597682,DepthScenes,duration_manipulation_targetAtFixation,jsons/VE125_randls_44.json,http://54.235.29.9/FacialAge/BNav_EC2/DepthDuration/v2_depth_duration_MTurk/v2_DepthDuration_HTML.html#182,182,1366,768,1366,768,8-29-2022,11-38-8,129,depth_duration_stimuli/001011_2014-06-08_23-18-54_260595134347_rgbf000044-resize_4/001011_2014-06-08_23-18-54_260595134347_rgbf000044-resize_4-target.png,125,2.4730000000000003,4,1443,124,feet,jsons/VE125_randls_44.json,359311,498783,44,Man
129,597682,DepthScenes,duration_manipulation_targetAtFixation,jsons/VE125_randls_44.json,http://54.235.29.9/FacialAge/BNav_EC2/DepthDuration/v2_depth_duration_MTurk/v2_DepthDuration_HTML.html#182,182,1366,768,1366,768,8-29-2022,11-38-8,130,depth_duration_stimuli/002875_2014-06-01_15-19-00_094959634447_rgbf000151-resize_1/002875_2014-06-01_15-19-00_094959634447_rgbf000151-resize_1-target.png,125,1.9675,4,1256,124,feet,jsons/VE125_randls_44.json,359311,498783,44,Man
130,597682,DepthScenes,duration_manipulation_targetAtFixation,jsons/VE125_randls_44.json,http://54.235.29.9/FacialAge/BNav_EC2/DepthDuration/v2_depth_duration_MTurk/v2_DepthDuration_HTML.html#182,182,1366,768,1366,768,8-29-2022,11-38-8,131,depth_duration_stimuli/001055_2014-06-08_18-45-35_260595134347_rgbf000111-resize_4/001055_2014-06-08_18-45-35_260595134347_rgbf000111-resize_4-target.png,125,2.4290000000000003,7,1582,125,feet,jsons/VE125_randls_44.json,359311,498783,44,Man
131,597682,DepthScenes,duration_manipulation_targetAtFixation,jsons/VE125_randls_44.json,http://54.235.29.9/FacialAge/BNav_EC2/DepthDuration/v2_depth_duration_MTurk/v2_DepthDuration_HTML.html#182,182,1366,768,1366,768,8-29-2022,11-38-8,132,depth_duration_stimuli/000549_2014-06-08_22-10-24_260595134347_rgbf000247-resize_3/000549_2014-06-08_22-10-24_260595134347_rgbf000247-resize_3-target.png,125,1.841,4,1574,124,feet,jsons/VE125_randls_44.json,359311,498783,44,Man
132,597682,DepthScenes,duration_manipulation_targetAtFixation,jsons/VE125_randls_44.json,http://54.235.29.9/FacialAge/BNav_EC2/DepthDuration/v2_depth_duration_MTurk/v2_DepthDuration_HTML.html#182,182,1366,768,1366,768,8-29-2022,11-38-8,133,depth_duration_stimuli/001449_2014-06-19_17-01-27_260595134347_rgbf000116-resize_2/001449_2014-06-19_17-01-27_260595134347_rgbf000116-resize_2-target.png,125,3.452,6,1927,124,feet,jsons/VE125_randls_44.json,359311,498783,44,Man
133,597682,DepthScenes,duration_manipulation_targetAtFixation,jsons/VE125_randls_44.json,http://54.235.29.9/FacialAge/BNav_EC2/DepthDuration/v2_depth_duration_MTurk/v2_DepthDuration_HTML.html#182,182,1366,768,1366,768,8-29-2022,11-38-8,134,depth_duration_stimuli/001450_2014-06-19_17-02-03_260595134347_rgbf000203-resize_4/001450_2014-06-19_17-02-03_260595134347_rgbf000203-resize_4-target.png,125,4.0106666666667,7,2105,125,feet,jsons/VE125_randls_44.json,359311,498783,44,Man
134,597682,DepthScenes,duration_manipulation_targetAtFixation,jsons/VE125_randls_44.json,http://54.235.29.9/FacialAge/BNav_EC2/DepthDuration/v2_depth_duration_MTurk/v2_DepthDuration_HTML.html#182,182,1366,768,1366,768,8-29-2022,11-38-8,135,depth_duration_stimuli/002072_2014-06-24_21-48-06_260595134347_rgbf000115-resize_0/002072_2014-06-24_21-48-06_260595134347_rgbf000115-resize-original.jpg,125,4.702,0,2036,124,feet,jsons/VE125_randls_44.json,359311,498783,44,Man
135,597682,DepthScenes,duration_manipulation_targetAtFixation,jsons/VE125_randls_44.json,http://54.235.29.9/FacialAge/BNav_EC2/DepthDuration/v2_depth_duration_MTurk/v2_DepthDuration_HTML.html#182,182,1366,768,1366,768,8-29-2022,11-38-8,136,depth_duration_stimuli/000493_2014-06-09_21-01-18_260595134347_rgbf000196-resize_3/000493_2014-06-09_21-01-18_260595134347_rgbf000196-resize_3-target.png,125,3.44,6,2183,124,feet,jsons/VE125_randls_44.json,359311,498783,44,Man
136,597682,DepthScenes,duration_manipulation_targetAtFixation,jsons/VE125_randls_44.json,http://54.235.29.9/FacialAge/BNav_EC2/DepthDuration/v2_depth_duration_MTurk/v2_DepthDuration_HTML.html#182,182,1366,768,1366,768,8-29-2022,11-38-8,137,depth_duration_stimuli/000191_2014-05-12_17-07-38_260595134347_rgbf000199-resize_0/000191_2014-05-12_17-07-38_260595134347_rgbf000199-resize_0-target.png,125,3.7995,7,1779,124,feet,jsons/VE125_randls_44.json,359311,498783,44,Man
137,597682,DepthScenes,duration_manipulation_targetAtFixation,jsons/VE125_randls_44.json,http://54.235.29.9/FacialAge/BNav_EC2/DepthDuration/v2_depth_duration_MTurk/v2_DepthDuration_HTML.html#182,182,1366,768,1366,768,8-29-2022,11-38-8,138,depth_duration_stimuli/002057_2014-06-24_21-00-13_260595134347_rgbf000120-resize_1/002057_2014-06-24_21-00-13_260595134347_rgbf000120-resize_1-target.png,125,2.967,7,1291,125,feet,jsons/VE125_randls_44.json,359311,498783,44,Man
138,597682,DepthScenes,duration_manipulation_targetAtFixation,jsons/VE125_randls_44.json,http://54.235.29.9/FacialAge/BNav_EC2/DepthDuration/v2_depth_duration_MTurk/v2_DepthDuration_HTML.html#182,182,1366,768,1366,768,8-29-2022,11-38-8,139,depth_duration_stimuli/000709_2014-06-08_13-51-55_260595134347_rgbf000068-resize_3/000709_2014-06-08_13-51-55_260595134347_rgbf000068-resize_3-target.png,125,1.8030000000000002,6,2019,124,feet,jsons/VE125_randls_44.json,359311,498783,44,Man
139,597682,DepthScenes,duration_manipulation_targetAtFixation,jsons/VE125_randls_44.json,http://54.235.29.9/FacialAge/BNav_EC2/DepthDuration/v2_depth_duration_MTurk/v2_DepthDuration_HTML.html#182,182,1366,768,1366,768,8-29-2022,11-38-8,140,depth_duration_stimuli/000788_2014-06-08_22-34-36_260595134347_rgbf000131-resize_1/000788_2014-06-08_22-34-36_260595134347_rgbf000131-resize_1-target.png,125,3.359,6,1738,124,feet,jsons/VE125_randls_44.json,359311,498783,44,Man
140,597682,DepthScenes,duration_manipulation_targetAtFixation,jsons/VE125_randls_44.json,http://54.235.29.9/FacialAge/BNav_EC2/DepthDuration/v2_depth_duration_MTurk/v2_DepthDuration_HTML.html#182,182,1366,768,1366,768,8-29-2022,11-38-8,141,depth_duration_stimuli/001235_2014-06-17_16-37-36_260595134347_rgbf000084-resize_4/001235_2014-06-17_16-37-36_260595134347_rgbf000084-resize_4-target.png,125,3.6605,6,1386,124,feet,jsons/VE125_randls_44.json,359311,498783,44,Man
141,597682,DepthScenes,duration_manipulation_targetAtFixation,jsons/VE125_randls_44.json,http://54.235.29.9/FacialAge/BNav_EC2/DepthDuration/v2_depth_duration_MTurk/v2_DepthDuration_HTML.html#182,182,1366,768,1366,768,8-29-2022,11-38-8,142,depth_duration_stimuli/000758_2014-06-08_22-05-08_260595134347_rgbf000085-resize_0/000758_2014-06-08_22-05-08_260595134347_rgbf000085-resize_0-target.png,125,3.3810000000000002,6,1388,124,feet,jsons/VE125_randls_44.json,359311,498783,44,Man
142,597682,DepthScenes,duration_manipulation_targetAtFixation,jsons/VE125_randls_44.json,http://54.235.29.9/FacialAge/BNav_EC2/DepthDuration/v2_depth_duration_MTurk/v2_DepthDuration_HTML.html#182,182,1366,768,1366,768,8-29-2022,11-38-8,143,depth_duration_stimuli/000854_2014-06-09_19-43-13_260595134347_rgbf000066-resize_0/000854_2014-06-09_19-43-13_260595134347_rgbf000066-resize_0-target.png,125,3.068,4,1838,124,feet,jsons/VE125_randls_44.json,359311,498783,44,Man
143,597682,DepthScenes,duration_manipulation_targetAtFixation,jsons/VE125_randls_44.json,http://54.235.29.9/FacialAge/BNav_EC2/DepthDuration/v2_depth_duration_MTurk/v2_DepthDuration_HTML.html#182,182,1366,768,1366,768,8-29-2022,11-38-8,144,depth_duration_stimuli/003492_2014-05-21_15-50-55_094959634447_rgbf000828-resize_1/003492_2014-05-21_15-50-55_094959634447_rgbf000828-resize_1-target.png,125,4.06875,7,1725,124,feet,jsons/VE125_randls_44.json,359311,498783,44,Man
144,597682,DepthScenes,duration_manipulation_targetAtFixation,jsons/VE125_randls_44.json,http://54.235.29.9/FacialAge/BNav_EC2/DepthDuration/v2_depth_duration_MTurk/v2_DepthDuration_HTML.html#182,182,1366,768,1366,768,8-29-2022,11-38-8,145,depth_duration_stimuli/002568_2014-06-24_13-59-21_094959634447_rgbf000062-resize_4/002568_2014-06-24_13-59-21_094959634447_rgbf000062-resize_4-target.png,125,3.015,7,1463,124,feet,jsons/VE125_randls_44.json,359311,498783,44,Man
145,597682,DepthScenes,duration_manipulation_targetAtFixation,jsons/VE125_randls_44.json,http://54.235.29.9/FacialAge/BNav_EC2/DepthDuration/v2_depth_duration_MTurk/v2_DepthDuration_HTML.html#182,182,1366,768,1366,768,8-29-2022,11-38-8,146,depth_duration_stimuli/001498_2014-06-19_17-45-14_260595134347_rgbf000129-resize_4/001498_2014-06-19_17-45-14_260595134347_rgbf000129-resize-original.jpg,125,1.4075,0,2044,124,feet,jsons/VE125_randls_44.json,359311,498783,44,Man
146,597682,DepthScenes,duration_manipulation_targetAtFixation,jsons/VE125_randls_44.json,http://54.235.29.9/FacialAge/BNav_EC2/DepthDuration/v2_depth_duration_MTurk/v2_DepthDuration_HTML.html#182,182,1366,768,1366,768,8-29-2022,11-38-8,147,depth_duration_stimuli/002748_2014-06-22_19-07-22_094959634447_rgbf000078-resize_1/002748_2014-06-22_19-07-22_094959634447_rgbf000078-resize_1-target.png,125,4.6705,7,1823,124,feet,jsons/VE125_randls_44.json,359311,498783,44,Man
147,597682,DepthScenes,duration_manipulation_targetAtFixation,jsons/VE125_randls_44.json,http://54.235.29.9/FacialAge/BNav_EC2/DepthDuration/v2_depth_duration_MTurk/v2_DepthDuration_HTML.html#182,182,1366,768,1366,768,8-29-2022,11-38-8,148,depth_duration_stimuli/002995_2014-06-15_12-31-26_094959634447_rgbf000150-resize_1/002995_2014-06-15_12-31-26_094959634447_rgbf000150-resize_1-target.png,125,3.8360000000000003,7,1629,124,feet,jsons/VE125_randls_44.json,359311,498783,44,Man
148,597682,DepthScenes,duration_manipulation_targetAtFixation,jsons/VE125_randls_44.json,http://54.235.29.9/FacialAge/BNav_EC2/DepthDuration/v2_depth_duration_MTurk/v2_DepthDuration_HTML.html#182,182,1366,768,1366,768,8-29-2022,11-38-8,149,depth_duration_stimuli/003292_2014-05-14_21-53-49_094959634447_rgbf000100-resize_2/003292_2014-05-14_21-53-49_094959634447_rgbf000100-resize_2-target.png,125,3.4815,5,1661,124,feet,jsons/VE125_randls_44.json,359311,498783,44,Man
149,597682,DepthScenes,duration_manipulation_targetAtFixation,jsons/VE125_randls_44.json,http://54.235.29.9/FacialAge/BNav_EC2/DepthDuration/v2_depth_duration_MTurk/v2_DepthDuration_HTML.html#182,182,1366,768,1366,768,8-29-2022,11-38-8,150,depth_duration_stimuli/002639_2014-06-24_14-51-37_094959634447_rgbf000074-resize_4/002639_2014-06-24_14-51-37_094959634447_rgbf000074-resize_4-target.png,125,4.0375,7,2152,124,feet,jsons/VE125_randls_44.json,359311,498783,44,Man
150,597682,DepthScenes,duration_manipulation_targetAtFixation,jsons/VE125_randls_44.json,http://54.235.29.9/FacialAge/BNav_EC2/DepthDuration/v2_depth_duration_MTurk/v2_DepthDuration_HTML.html#182,182,1366,768,1366,768,8-29-2022,11-38-8,151,depth_duration_stimuli/001555_2014-06-20_17-12-10_260595134347_rgbf000065-resize_4/001555_2014-06-20_17-12-10_260595134347_rgbf000065-resize_4-target.png,125,1.633,4,1684,125,feet,jsons/VE125_randls_44.json,359311,498783,44,Man
151,597682,DepthScenes,duration_manipulation_targetAtFixation,jsons/VE125_randls_44.json,http://54.235.29.9/FacialAge/BNav_EC2/DepthDuration/v2_depth_duration_MTurk/v2_DepthDuration_HTML.html#182,182,1366,768,1366,768,8-29-2022,11-38-8,152,depth_duration_stimuli/000103_2014-05-14_22-01-17_260595134347_rgbf000152-resize_5/000103_2014-05-14_22-01-17_260595134347_rgbf000152-resize_5-target.png,125,1.993,4,1323,124,feet,jsons/VE125_randls_44.json,359311,498783,44,Man
152,597682,DepthScenes,duration_manipulation_targetAtFixation,jsons/VE125_randls_44.json,http://54.235.29.9/FacialAge/BNav_EC2/DepthDuration/v2_depth_duration_MTurk/v2_DepthDuration_HTML.html#182,182,1366,768,1366,768,8-29-2022,11-38-8,153,depth_duration_stimuli/002600_2014-06-24_14-27-04_094959634447_rgbf000074-resize_2/002600_2014-06-24_14-27-04_094959634447_rgbf000074-resize_2-target.png,125,2.7575,5,1411,124,feet,jsons/VE125_randls_44.json,359311,498783,44,Man
153,597682,DepthScenes,duration_manipulation_targetAtFixation,jsons/VE125_randls_44.json,http://54.235.29.9/FacialAge/BNav_EC2/DepthDuration/v2_depth_duration_MTurk/v2_DepthDuration_HTML.html#182,182,1366,768,1366,768,8-29-2022,11-38-8,154,depth_duration_stimuli/003228_2014-05-14_13-42-35_094959634447_rgbf000101-resize_1/003228_2014-05-14_13-42-35_094959634447_rgbf000101-resize_1-target.png,125,1.9680000000000002,4,1356,124,feet,jsons/VE125_randls_44.json,359311,498783,44,Man
154,597682,DepthScenes,duration_manipulation_targetAtFixation,jsons/VE125_randls_44.json,http://54.235.29.9/FacialAge/BNav_EC2/DepthDuration/v2_depth_duration_MTurk/v2_DepthDuration_HTML.html#182,182,1366,768,1366,768,8-29-2022,11-38-8,155,depth_duration_stimuli/000486_2014-06-09_20-47-20_260595134347_rgbf000143-resize_2/000486_2014-06-09_20-47-20_260595134347_rgbf000143-resize_2-target.png,125,4.8325,6,1615,125,feet,jsons/VE125_randls_44.json,359311,498783,44,Man
155,597682,DepthScenes,duration_manipulation_targetAtFixation,jsons/VE125_randls_44.json,http://54.235.29.9/FacialAge/BNav_EC2/DepthDuration/v2_depth_duration_MTurk/v2_DepthDuration_HTML.html#182,182,1366,768,1366,768,8-29-2022,11-38-8,156,depth_duration_stimuli/003083_2014-06-15_15-21-03_094959634447_rgbf000063-resize_1/003083_2014-06-15_15-21-03_094959634447_rgbf000063-resize_1-target.png,125,4.1405,6,1371,124,feet,jsons/VE125_randls_44.json,359311,498783,44,Man
156,597682,DepthScenes,duration_manipulation_targetAtFixation,jsons/VE125_randls_44.json,http://54.235.29.9/FacialAge/BNav_EC2/DepthDuration/v2_depth_duration_MTurk/v2_DepthDuration_HTML.html#182,182,1366,768,1366,768,8-29-2022,11-38-8,157,depth_duration_stimuli/000506_2014-06-08_23-21-00_260595134347_rgbf000070-resize_7/000506_2014-06-08_23-21-00_260595134347_rgbf000070-resize_7-target.png,125,4.0585,6,1262,125,feet,jsons/VE125_randls_44.json,359311,498783,44,Man
157,597682,DepthScenes,duration_manipulation_targetAtFixation,jsons/VE125_randls_44.json,http://54.235.29.9/FacialAge/BNav_EC2/DepthDuration/v2_depth_duration_MTurk/v2_DepthDuration_HTML.html#182,182,1366,768,1366,768,8-29-2022,11-38-8,158,depth_duration_stimuli/003079_2014-06-15_15-18-20_094959634447_rgbf000152-resize_8/003079_2014-06-15_15-18-20_094959634447_rgbf000152-resize_8-target.png,125,2.8775,7,1566,124,feet,jsons/VE125_randls_44.json,359311,498783,44,Man
158,597682,DepthScenes,duration_manipulation_targetAtFixation,jsons/VE125_randls_44.json,http://54.235.29.9/FacialAge/BNav_EC2/DepthDuration/v2_depth_duration_MTurk/v2_DepthDuration_HTML.html#182,182,1366,768,1366,768,8-29-2022,11-38-8,159,depth_duration_stimuli/000368_2014-06-09_15-53-01_260595134347_rgbf000155-resize_2/000368_2014-06-09_15-53-01_260595134347_rgbf000155-resize_2-target.png,125,2.4859999999999998,4,1488,125,feet,jsons/VE125_randls_44.json,359311,498783,44,Man
159,597682,DepthScenes,duration_manipulation_targetAtFixation,jsons/VE125_randls_44.json,http://54.235.29.9/FacialAge/BNav_EC2/DepthDuration/v2_depth_duration_MTurk/v2_DepthDuration_HTML.html#182,182,1366,768,1366,768,8-29-2022,11-38-8,160,depth_duration_stimuli/002678_2014-06-13_16-15-32_094959634447_rgbf000151-resize_6/002678_2014-06-13_16-15-32_094959634447_rgbf000151-resize_6-target.png,125,2.1830000000000003,6,1606,125,feet,jsons/VE125_randls_44.json,359311,498783,44,Man
160,597682,DepthScenes,duration_manipulation_targetAtFixation,jsons/VE125_randls_44.json,http://54.235.29.9/FacialAge/BNav_EC2/DepthDuration/v2_depth_duration_MTurk/v2_DepthDuration_HTML.html#182,182,1366,768,1366,768,8-29-2022,11-38-8,161,depth_duration_stimuli/002153_2014-06-25_21-27-18_260595134347_rgbf000038-resize_5/002153_2014-06-25_21-27-18_260595134347_rgbf000038-resize_5-target.png,125,2.505,4,1488,124,feet,jsons/VE125_randls_44.json,359311,498783,44,Man
161,597682,DepthScenes,duration_manipulation_targetAtFixation,jsons/VE125_randls_44.json,http://54.235.29.9/FacialAge/BNav_EC2/DepthDuration/v2_depth_duration_MTurk/v2_DepthDuration_HTML.html#182,182,1366,768,1366,768,8-29-2022,11-38-8,162,depth_duration_stimuli/002660_2014-06-13_15-44-18_094959634447_rgbf001878-resize_2/002660_2014-06-13_15-44-18_094959634447_rgbf001878-resize_2-target.png,125,3.576,6,1520,124,feet,jsons/VE125_randls_44.json,359311,498783,44,Man
162,597682,DepthScenes,duration_manipulation_targetAtFixation,jsons/VE125_randls_44.json,http://54.235.29.9/FacialAge/BNav_EC2/DepthDuration/v2_depth_duration_MTurk/v2_DepthDuration_HTML.html#182,182,1366,768,1366,768,8-29-2022,11-38-8,163,depth_duration_stimuli/001570_2014-06-20_17-21-09_260595134347_rgbf000135-resize_4/001570_2014-06-20_17-21-09_260595134347_rgbf000135-resize_4-target.png,125,4.467,7,1544,124,feet,jsons/VE125_randls_44.json,359311,498783,44,Man
163,597682,DepthScenes,duration_manipulation_targetAtFixation,jsons/VE125_randls_44.json,http://54.235.29.9/FacialAge/BNav_EC2/DepthDuration/v2_depth_duration_MTurk/v2_DepthDuration_HTML.html#182,182,1366,768,1366,768,8-29-2022,11-38-8,164,depth_duration_stimuli/001392_2014-06-19_16-07-59_260595134347_rgbf000046-resize_1/001392_2014-06-19_16-07-59_260595134347_rgbf000046-resize_1-target.png,125,4.135,6,1394,124,feet,jsons/VE125_randls_44.json,359311,498783,44,Man
