,subjID,experimentName,versionName,sequenceName,url,selected_row,windowWidth,windowHeight,screenWidth,screenHeight,startDate,startTime,trial,stimulus,duration,actual_depth,depth_estimate,trial_RT,log_sceneDuration,unitSelection,seq_filepath,experimentTime,totalTime,age,gender
0,599523,DepthScenes,duration_manipulation_targetAtFixation,jsons/v1_VE1000_randls_53_rotated.json,http://54.235.29.9/FacialAge/BNav_EC2/DepthDuration/v2_depth_duration_MTurk/v2_DepthDuration_HTML.html#157,157,1920,983,1920,1080,9-18-2022,12-23-29,1,depth_duration_stimuli/000635_2014-06-08_16-38-42_260595134347_rgbf000106-resize_1/000635_2014-06-08_16-38-42_260595134347_rgbf000106-resize_1-target.png,1000,2.074,5,4472,999,feet,jsons/v1_VE1000_randls_53_rotated.json,642102,770879,47,Man
1,599523,DepthScenes,duration_manipulation_targetAtFixation,jsons/v1_VE1000_randls_53_rotated.json,http://54.235.29.9/FacialAge/BNav_EC2/DepthDuration/v2_depth_duration_MTurk/v2_DepthDuration_HTML.html#157,157,1920,983,1920,1080,9-18-2022,12-23-29,2,depth_duration_stimuli/002279_2014-06-28_18-55-32_260595134347_rgbf000040-resize_5/002279_2014-06-28_18-55-32_260595134347_rgbf000040-resize_5-target.png,1000,1.5043333333333,3,2792,999,feet,jsons/v1_VE1000_randls_53_rotated.json,642102,770879,47,Man
2,599523,DepthScenes,duration_manipulation_targetAtFixation,jsons/v1_VE1000_randls_53_rotated.json,http://54.235.29.9/FacialAge/BNav_EC2/DepthDuration/v2_depth_duration_MTurk/v2_DepthDuration_HTML.html#157,157,1920,983,1920,1080,9-18-2022,12-23-29,3,depth_duration_stimuli/000677_2014-06-08_23-10-32_260595134347_rgbf000158-resize_6/000677_2014-06-08_23-10-32_260595134347_rgbf000158-resize_6-target.png,1000,3.556,4,2862,999,feet,jsons/v1_VE1000_randls_53_rotated.json,642102,770879,47,Man
3,599523,DepthScenes,duration_manipulation_targetAtFixation,jsons/v1_VE1000_randls_53_rotated.json,http://54.235.29.9/FacialAge/BNav_EC2/DepthDuration/v2_depth_duration_MTurk/v2_DepthDuration_HTML.html#157,157,1920,983,1920,1080,9-18-2022,12-23-29,4,depth_duration_stimuli/001029_2014-06-08_13-17-57_260595134347_rgbf000065-resize_1/001029_2014-06-08_13-17-57_260595134347_rgbf000065-resize_1-target.png,1000,3.0835,6,3534,999,feet,jsons/v1_VE1000_randls_53_rotated.json,642102,770879,47,Man
4,599523,DepthScenes,duration_manipulation_targetAtFixation,jsons/v1_VE1000_randls_53_rotated.json,http://54.235.29.9/FacialAge/BNav_EC2/DepthDuration/v2_depth_duration_MTurk/v2_DepthDuration_HTML.html#157,157,1920,983,1920,1080,9-18-2022,12-23-29,5,depth_duration_stimuli/003081_2014-06-15_15-19-16_094959634447_rgbf000150-resize_1/003081_2014-06-15_15-19-16_094959634447_rgbf000150-resize_1-target.png,1000,3.9125,9,3749,1000,feet,jsons/v1_VE1000_randls_53_rotated.json,642102,770879,47,Man
5,599523,DepthScenes,duration_manipulation_targetAtFixation,jsons/v1_VE1000_randls_53_rotated.json,http://54.235.29.9/FacialAge/BNav_EC2/DepthDuration/v2_depth_duration_MTurk/v2_DepthDuration_HTML.html#157,157,1920,983,1920,1080,9-18-2022,12-23-29,6,depth_duration_stimuli/001417_2014-06-19_16-25-36_260595134347_rgbf000115-resize_5/001417_2014-06-19_16-25-36_260595134347_rgbf000115-resize_5-target.png,1000,4.6255,8,2745,1000,feet,jsons/v1_VE1000_randls_53_rotated.json,642102,770879,47,Man
6,599523,DepthScenes,duration_manipulation_targetAtFixation,jsons/v1_VE1000_randls_53_rotated.json,http://54.235.29.9/FacialAge/BNav_EC2/DepthDuration/v2_depth_duration_MTurk/v2_DepthDuration_HTML.html#157,157,1920,983,1920,1080,9-18-2022,12-23-29,7,depth_duration_stimuli/000549_2014-06-08_22-10-24_260595134347_rgbf000247-resize_3/000549_2014-06-08_22-10-24_260595134347_rgbf000247-resize_3-target.png,1000,1.841,3,3411,999,feet,jsons/v1_VE1000_randls_53_rotated.json,642102,770879,47,Man
7,599523,DepthScenes,duration_manipulation_targetAtFixation,jsons/v1_VE1000_randls_53_rotated.json,http://54.235.29.9/FacialAge/BNav_EC2/DepthDuration/v2_depth_duration_MTurk/v2_DepthDuration_HTML.html#157,157,1920,983,1920,1080,9-18-2022,12-23-29,8,depth_duration_stimuli/001055_2014-06-08_18-45-35_260595134347_rgbf000111-resize_4/001055_2014-06-08_18-45-35_260595134347_rgbf000111-resize_4-target.png,1000,2.4290000000000003,7,3747,999,feet,jsons/v1_VE1000_randls_53_rotated.json,642102,770879,47,Man
8,599523,DepthScenes,duration_manipulation_targetAtFixation,jsons/v1_VE1000_randls_53_rotated.json,http://54.235.29.9/FacialAge/BNav_EC2/DepthDuration/v2_depth_duration_MTurk/v2_DepthDuration_HTML.html#157,157,1920,983,1920,1080,9-18-2022,12-23-29,9,depth_duration_stimuli/001650_2014-06-20_12-09-00_260595134347_rgbf000087-resize_3/001650_2014-06-20_12-09-00_260595134347_rgbf000087-resize_3-target.png,1000,1.9505,2,3818,999,feet,jsons/v1_VE1000_randls_53_rotated.json,642102,770879,47,Man
9,599523,DepthScenes,duration_manipulation_targetAtFixation,jsons/v1_VE1000_randls_53_rotated.json,http://54.235.29.9/FacialAge/BNav_EC2/DepthDuration/v2_depth_duration_MTurk/v2_DepthDuration_HTML.html#157,157,1920,983,1920,1080,9-18-2022,12-23-29,10,depth_duration_stimuli/000682_2014-06-08_23-14-58_260595134347_rgbf000041-resize_5/000682_2014-06-08_23-14-58_260595134347_rgbf000041-resize_5-target.png,1000,2.7239999999999998,4,2607,1000,feet,jsons/v1_VE1000_randls_53_rotated.json,642102,770879,47,Man
10,599523,DepthScenes,duration_manipulation_targetAtFixation,jsons/v1_VE1000_randls_53_rotated.json,http://54.235.29.9/FacialAge/BNav_EC2/DepthDuration/v2_depth_duration_MTurk/v2_DepthDuration_HTML.html#157,157,1920,983,1920,1080,9-18-2022,12-23-29,11,depth_duration_stimuli/003490_2014-05-21_15-50-11_094959634447_rgbf000101-resize_3/003490_2014-05-21_15-50-11_094959634447_rgbf000101-resize_3-target.png,1000,3.6445,8,3417,1000,feet,jsons/v1_VE1000_randls_53_rotated.json,642102,770879,47,Man
11,599523,DepthScenes,duration_manipulation_targetAtFixation,jsons/v1_VE1000_randls_53_rotated.json,http://54.235.29.9/FacialAge/BNav_EC2/DepthDuration/v2_depth_duration_MTurk/v2_DepthDuration_HTML.html#157,157,1920,983,1920,1080,9-18-2022,12-23-29,12,depth_duration_stimuli/001175_2014-06-17_15-45-55_260595134347_rgbf000129-resize_4/001175_2014-06-17_15-45-55_260595134347_rgbf000129-resize_4-target.png,1000,4.255,10,3961,1000,feet,jsons/v1_VE1000_randls_53_rotated.json,642102,770879,47,Man
12,599523,DepthScenes,duration_manipulation_targetAtFixation,jsons/v1_VE1000_randls_53_rotated.json,http://54.235.29.9/FacialAge/BNav_EC2/DepthDuration/v2_depth_duration_MTurk/v2_DepthDuration_HTML.html#157,157,1920,983,1920,1080,9-18-2022,12-23-29,13,depth_duration_stimuli/001828_2014-06-26_21-40-03_260595134347_rgbf000024-resize_0/001828_2014-06-26_21-40-03_260595134347_rgbf000024-resize_0-target.png,1000,4.8260000000000005,8,3630,1000,feet,jsons/v1_VE1000_randls_53_rotated.json,642102,770879,47,Man
13,599523,DepthScenes,duration_manipulation_targetAtFixation,jsons/v1_VE1000_randls_53_rotated.json,http://54.235.29.9/FacialAge/BNav_EC2/DepthDuration/v2_depth_duration_MTurk/v2_DepthDuration_HTML.html#157,157,1920,983,1920,1080,9-18-2022,12-23-29,14,depth_duration_stimuli/000009_2014-05-26_14-32-05_260595134347_rgbf000034-resize_3/000009_2014-05-26_14-32-05_260595134347_rgbf000034-resize_3-target.png,1000,3.8715,12,3993,999,feet,jsons/v1_VE1000_randls_53_rotated.json,642102,770879,47,Man
14,599523,DepthScenes,duration_manipulation_targetAtFixation,jsons/v1_VE1000_randls_53_rotated.json,http://54.235.29.9/FacialAge/BNav_EC2/DepthDuration/v2_depth_duration_MTurk/v2_DepthDuration_HTML.html#157,157,1920,983,1920,1080,9-18-2022,12-23-29,15,depth_duration_stimuli/002949_2014-06-26_15-57-42_094959634447_rgbf000079-resize_1/002949_2014-06-26_15-57-42_094959634447_rgbf000079-resize_1-target.png,1000,1.8915,3,2512,999,feet,jsons/v1_VE1000_randls_53_rotated.json,642102,770879,47,Man
15,599523,DepthScenes,duration_manipulation_targetAtFixation,jsons/v1_VE1000_randls_53_rotated.json,http://54.235.29.9/FacialAge/BNav_EC2/DepthDuration/v2_depth_duration_MTurk/v2_DepthDuration_HTML.html#157,157,1920,983,1920,1080,9-18-2022,12-23-29,16,depth_duration_stimuli/000522_2014-06-08_13-35-06_260595134347_rgbf000244-resize_1/000522_2014-06-08_13-35-06_260595134347_rgbf000244-resize_1-target.png,1000,2.3715,3,2773,1000,feet,jsons/v1_VE1000_randls_53_rotated.json,642102,770879,47,Man
16,599523,DepthScenes,duration_manipulation_targetAtFixation,jsons/v1_VE1000_randls_53_rotated.json,http://54.235.29.9/FacialAge/BNav_EC2/DepthDuration/v2_depth_duration_MTurk/v2_DepthDuration_HTML.html#157,157,1920,983,1920,1080,9-18-2022,12-23-29,17,depth_duration_stimuli/003129_2014-05-12_10-48-10_094959634447_rgbf000100-resize_0/003129_2014-05-12_10-48-10_094959634447_rgbf000100-resize_0-target.png,1000,4.9305,9,3857,1000,feet,jsons/v1_VE1000_randls_53_rotated.json,642102,770879,47,Man
17,599523,DepthScenes,duration_manipulation_targetAtFixation,jsons/v1_VE1000_randls_53_rotated.json,http://54.235.29.9/FacialAge/BNav_EC2/DepthDuration/v2_depth_duration_MTurk/v2_DepthDuration_HTML.html#157,157,1920,983,1920,1080,9-18-2022,12-23-29,18,depth_duration_stimuli/000414_2014-06-04_19-49-13_260595134347_rgbf000044-resize_0/000414_2014-06-04_19-49-13_260595134347_rgbf000044-resize_0-target.png,1000,4.329,8,3795,1000,feet,jsons/v1_VE1000_randls_53_rotated.json,642102,770879,47,Man
18,599523,DepthScenes,duration_manipulation_targetAtFixation,jsons/v1_VE1000_randls_53_rotated.json,http://54.235.29.9/FacialAge/BNav_EC2/DepthDuration/v2_depth_duration_MTurk/v2_DepthDuration_HTML.html#157,157,1920,983,1920,1080,9-18-2022,12-23-29,19,depth_duration_stimuli/001498_2014-06-19_17-45-14_260595134347_rgbf000129-resize_4/001498_2014-06-19_17-45-14_260595134347_rgbf000129-resize-original.jpg,1000,1.4075,0,3336,1001,feet,jsons/v1_VE1000_randls_53_rotated.json,642102,770879,47,Man
19,599523,DepthScenes,duration_manipulation_targetAtFixation,jsons/v1_VE1000_randls_53_rotated.json,http://54.235.29.9/FacialAge/BNav_EC2/DepthDuration/v2_depth_duration_MTurk/v2_DepthDuration_HTML.html#157,157,1920,983,1920,1080,9-18-2022,12-23-29,20,depth_duration_stimuli/002199_2014-06-28_18-33-56_260595134347_rgbf000074-resize_0/002199_2014-06-28_18-33-56_260595134347_rgbf000074-resize_0-target.png,1000,1.996,3,2758,1000,feet,jsons/v1_VE1000_randls_53_rotated.json,642102,770879,47,Man
20,599523,DepthScenes,duration_manipulation_targetAtFixation,jsons/v1_VE1000_randls_53_rotated.json,http://54.235.29.9/FacialAge/BNav_EC2/DepthDuration/v2_depth_duration_MTurk/v2_DepthDuration_HTML.html#157,157,1920,983,1920,1080,9-18-2022,12-23-29,21,depth_duration_stimuli/001056_2014-06-08_18-46-44_260595134347_rgbf000068-resize_0/001056_2014-06-08_18-46-44_260595134347_rgbf000068-resize_0-target.png,1000,2.6625,5,3652,1000,feet,jsons/v1_VE1000_randls_53_rotated.json,642102,770879,47,Man
21,599523,DepthScenes,duration_manipulation_targetAtFixation,jsons/v1_VE1000_randls_53_rotated.json,http://54.235.29.9/FacialAge/BNav_EC2/DepthDuration/v2_depth_duration_MTurk/v2_DepthDuration_HTML.html#157,157,1920,983,1920,1080,9-18-2022,12-23-29,22,depth_duration_stimuli/000191_2014-05-12_17-07-38_260595134347_rgbf000199-resize_0/000191_2014-05-12_17-07-38_260595134347_rgbf000199-resize_0-target.png,1000,3.7995,8,3418,1000,feet,jsons/v1_VE1000_randls_53_rotated.json,642102,770879,47,Man
22,599523,DepthScenes,duration_manipulation_targetAtFixation,jsons/v1_VE1000_randls_53_rotated.json,http://54.235.29.9/FacialAge/BNav_EC2/DepthDuration/v2_depth_duration_MTurk/v2_DepthDuration_HTML.html#157,157,1920,983,1920,1080,9-18-2022,12-23-29,23,depth_duration_stimuli/000493_2014-06-09_21-01-18_260595134347_rgbf000196-resize_3/000493_2014-06-09_21-01-18_260595134347_rgbf000196-resize_3-target.png,1000,3.44,7,3931,999,feet,jsons/v1_VE1000_randls_53_rotated.json,642102,770879,47,Man
23,599523,DepthScenes,duration_manipulation_targetAtFixation,jsons/v1_VE1000_randls_53_rotated.json,http://54.235.29.9/FacialAge/BNav_EC2/DepthDuration/v2_depth_duration_MTurk/v2_DepthDuration_HTML.html#157,157,1920,983,1920,1080,9-18-2022,12-23-29,24,depth_duration_stimuli/002323_2014-06-28_20-01-54_260595134347_rgbf000051-resize_4/002323_2014-06-28_20-01-54_260595134347_rgbf000051-resize_4-target.png,1000,3.7310000000000003,12,2778,1000,feet,jsons/v1_VE1000_randls_53_rotated.json,642102,770879,47,Man
24,599523,DepthScenes,duration_manipulation_targetAtFixation,jsons/v1_VE1000_randls_53_rotated.json,http://54.235.29.9/FacialAge/BNav_EC2/DepthDuration/v2_depth_duration_MTurk/v2_DepthDuration_HTML.html#157,157,1920,983,1920,1080,9-18-2022,12-23-29,25,depth_duration_stimuli/000917_2014-06-09_22-45-29_260595134347_rgbf000149-resize_3/000917_2014-06-09_22-45-29_260595134347_rgbf000149-resize_3-target.png,1000,4.1865,7,3809,999,feet,jsons/v1_VE1000_randls_53_rotated.json,642102,770879,47,Man
25,599523,DepthScenes,duration_manipulation_targetAtFixation,jsons/v1_VE1000_randls_53_rotated.json,http://54.235.29.9/FacialAge/BNav_EC2/DepthDuration/v2_depth_duration_MTurk/v2_DepthDuration_HTML.html#157,157,1920,983,1920,1080,9-18-2022,12-23-29,26,depth_duration_stimuli/002425_2014-06-28_20-27-29_260595134347_rgbf000031-resize_8/002425_2014-06-28_20-27-29_260595134347_rgbf000031-resize_8-target.png,1000,3.8960000000000004,8,2888,999,feet,jsons/v1_VE1000_randls_53_rotated.json,642102,770879,47,Man
26,599523,DepthScenes,duration_manipulation_targetAtFixation,jsons/v1_VE1000_randls_53_rotated.json,http://54.235.29.9/FacialAge/BNav_EC2/DepthDuration/v2_depth_duration_MTurk/v2_DepthDuration_HTML.html#157,157,1920,983,1920,1080,9-18-2022,12-23-29,27,depth_duration_stimuli/000642_2014-06-08_16-59-25_260595134347_rgbf000098-resize_2/000642_2014-06-08_16-59-25_260595134347_rgbf000098-resize_2-target.png,1000,2.8815,4,3987,1000,feet,jsons/v1_VE1000_randls_53_rotated.json,642102,770879,47,Man
27,599523,DepthScenes,duration_manipulation_targetAtFixation,jsons/v1_VE1000_randls_53_rotated.json,http://54.235.29.9/FacialAge/BNav_EC2/DepthDuration/v2_depth_duration_MTurk/v2_DepthDuration_HTML.html#157,157,1920,983,1920,1080,9-18-2022,12-23-29,28,depth_duration_stimuli/003587_2014-05-23_16-48-02_094959634447_rgbf002384-resize_2/003587_2014-05-23_16-48-02_094959634447_rgbf002384-resize_2-target.png,1000,1.357,2,2862,1000,feet,jsons/v1_VE1000_randls_53_rotated.json,642102,770879,47,Man
28,599523,DepthScenes,duration_manipulation_targetAtFixation,jsons/v1_VE1000_randls_53_rotated.json,http://54.235.29.9/FacialAge/BNav_EC2/DepthDuration/v2_depth_duration_MTurk/v2_DepthDuration_HTML.html#157,157,1920,983,1920,1080,9-18-2022,12-23-29,29,depth_duration_stimuli/001167_2014-06-17_15-38-07_260595134347_rgbf000108-resize_0/001167_2014-06-17_15-38-07_260595134347_rgbf000108-resize_0-target.png,1000,1.8505,3,2854,999,feet,jsons/v1_VE1000_randls_53_rotated.json,642102,770879,47,Man
29,599523,DepthScenes,duration_manipulation_targetAtFixation,jsons/v1_VE1000_randls_53_rotated.json,http://54.235.29.9/FacialAge/BNav_EC2/DepthDuration/v2_depth_duration_MTurk/v2_DepthDuration_HTML.html#157,157,1920,983,1920,1080,9-18-2022,12-23-29,30,depth_duration_stimuli/002072_2014-06-24_21-48-06_260595134347_rgbf000115-resize_0/002072_2014-06-24_21-48-06_260595134347_rgbf000115-resize-original.jpg,1000,4.702,0,3277,1000,feet,jsons/v1_VE1000_randls_53_rotated.json,642102,770879,47,Man
30,599523,DepthScenes,duration_manipulation_targetAtFixation,jsons/v1_VE1000_randls_53_rotated.json,http://54.235.29.9/FacialAge/BNav_EC2/DepthDuration/v2_depth_duration_MTurk/v2_DepthDuration_HTML.html#157,157,1920,983,1920,1080,9-18-2022,12-23-29,31,depth_duration_stimuli/002545_2014-06-24_13-38-53_094959634447_rgbf000080-resize_4/002545_2014-06-24_13-38-53_094959634447_rgbf000080-resize_4-target.png,1000,1.9205,5,3387,1001,feet,jsons/v1_VE1000_randls_53_rotated.json,642102,770879,47,Man
31,599523,DepthScenes,duration_manipulation_targetAtFixation,jsons/v1_VE1000_randls_53_rotated.json,http://54.235.29.9/FacialAge/BNav_EC2/DepthDuration/v2_depth_duration_MTurk/v2_DepthDuration_HTML.html#157,157,1920,983,1920,1080,9-18-2022,12-23-29,32,depth_duration_stimuli/001092_2014-06-15_17-34-58_260595134347_rgbf000171-resize_3/001092_2014-06-15_17-34-58_260595134347_rgbf000171-resize_3-target.png,1000,2.6935,5,4405,999,feet,jsons/v1_VE1000_randls_53_rotated.json,642102,770879,47,Man
32,599523,DepthScenes,duration_manipulation_targetAtFixation,jsons/v1_VE1000_randls_53_rotated.json,http://54.235.29.9/FacialAge/BNav_EC2/DepthDuration/v2_depth_duration_MTurk/v2_DepthDuration_HTML.html#157,157,1920,983,1920,1080,9-18-2022,12-23-29,33,depth_duration_stimuli/001214_2014-06-17_16-13-55_260595134347_rgbf000111-resize_0/001214_2014-06-17_16-13-55_260595134347_rgbf000111-resize_0-target.png,1000,2.6505,4,3409,999,feet,jsons/v1_VE1000_randls_53_rotated.json,642102,770879,47,Man
33,599523,DepthScenes,duration_manipulation_targetAtFixation,jsons/v1_VE1000_randls_53_rotated.json,http://54.235.29.9/FacialAge/BNav_EC2/DepthDuration/v2_depth_duration_MTurk/v2_DepthDuration_HTML.html#157,157,1920,983,1920,1080,9-18-2022,12-23-29,34,depth_duration_stimuli/000810_2014-06-08_17-20-01_260595134347_rgbf000105-resize_0/000810_2014-06-08_17-20-01_260595134347_rgbf000105-resize_0-target.png,1000,1.4865,5,2867,1000,feet,jsons/v1_VE1000_randls_53_rotated.json,642102,770879,47,Man
34,599523,DepthScenes,duration_manipulation_targetAtFixation,jsons/v1_VE1000_randls_53_rotated.json,http://54.235.29.9/FacialAge/BNav_EC2/DepthDuration/v2_depth_duration_MTurk/v2_DepthDuration_HTML.html#157,157,1920,983,1920,1080,9-18-2022,12-23-29,35,depth_duration_stimuli/001052_2014-06-08_18-24-54_260595134347_rgbf000130-resize_1/001052_2014-06-08_18-24-54_260595134347_rgbf000130-resize_1-target.png,1000,4.1045,10,4001,999,feet,jsons/v1_VE1000_randls_53_rotated.json,642102,770879,47,Man
35,599523,DepthScenes,duration_manipulation_targetAtFixation,jsons/v1_VE1000_randls_53_rotated.json,http://54.235.29.9/FacialAge/BNav_EC2/DepthDuration/v2_depth_duration_MTurk/v2_DepthDuration_HTML.html#157,157,1920,983,1920,1080,9-18-2022,12-23-29,36,depth_duration_stimuli/002988_2014-06-15_12-24-20_094959634447_rgbf000150-resize_1/002988_2014-06-15_12-24-20_094959634447_rgbf000150-resize_1-target.png,1000,4.7669999999999995,11,3322,1001,feet,jsons/v1_VE1000_randls_53_rotated.json,642102,770879,47,Man
36,599523,DepthScenes,duration_manipulation_targetAtFixation,jsons/v1_VE1000_randls_53_rotated.json,http://54.235.29.9/FacialAge/BNav_EC2/DepthDuration/v2_depth_duration_MTurk/v2_DepthDuration_HTML.html#157,157,1920,983,1920,1080,9-18-2022,12-23-29,37,depth_duration_stimuli/002637_2014-06-24_14-51-13_094959634447_rgbf000066-resize_4/002637_2014-06-24_14-51-13_094959634447_rgbf000066-resize_4-target.png,1000,1.9955,5,3405,1001,feet,jsons/v1_VE1000_randls_53_rotated.json,642102,770879,47,Man
37,599523,DepthScenes,duration_manipulation_targetAtFixation,jsons/v1_VE1000_randls_53_rotated.json,http://54.235.29.9/FacialAge/BNav_EC2/DepthDuration/v2_depth_duration_MTurk/v2_DepthDuration_HTML.html#157,157,1920,983,1920,1080,9-18-2022,12-23-29,38,depth_duration_stimuli/003534_2014-05-22_15-06-10_094959634447_rgbf000102-resize_4/003534_2014-05-22_15-06-10_094959634447_rgbf000102-resize_4-target.png,1000,1.426,3,2565,1000,feet,jsons/v1_VE1000_randls_53_rotated.json,642102,770879,47,Man
38,599523,DepthScenes,duration_manipulation_targetAtFixation,jsons/v1_VE1000_randls_53_rotated.json,http://54.235.29.9/FacialAge/BNav_EC2/DepthDuration/v2_depth_duration_MTurk/v2_DepthDuration_HTML.html#157,157,1920,983,1920,1080,9-18-2022,12-23-29,39,depth_duration_stimuli/000665_2014-06-09_20-42-35_260595134347_rgbf000110-resize_1/000665_2014-06-09_20-42-35_260595134347_rgbf000110-resize_1-target.png,1000,3.057,6,3399,1000,feet,jsons/v1_VE1000_randls_53_rotated.json,642102,770879,47,Man
39,599523,DepthScenes,duration_manipulation_targetAtFixation,jsons/v1_VE1000_randls_53_rotated.json,http://54.235.29.9/FacialAge/BNav_EC2/DepthDuration/v2_depth_duration_MTurk/v2_DepthDuration_HTML.html#157,157,1920,983,1920,1080,9-18-2022,12-23-29,40,depth_duration_stimuli/001150_2014-06-17_15-27-34_260595134347_rgbf000108-resize_2/001150_2014-06-17_15-27-34_260595134347_rgbf000108-resize_2-target.png,1000,4.0325,8,3145,999,feet,jsons/v1_VE1000_randls_53_rotated.json,642102,770879,47,Man
40,599523,DepthScenes,duration_manipulation_targetAtFixation,jsons/v1_VE1000_randls_53_rotated.json,http://54.235.29.9/FacialAge/BNav_EC2/DepthDuration/v2_depth_duration_MTurk/v2_DepthDuration_HTML.html#157,157,1920,983,1920,1080,9-18-2022,12-23-29,41,depth_duration_stimuli/001617_2014-06-20_11-35-32_260595134347_rgbf000066-resize_1/001617_2014-06-20_11-35-32_260595134347_rgbf000066-resize_1-target.png,1000,3.7910000000000004,10,4204,1000,feet,jsons/v1_VE1000_randls_53_rotated.json,642102,770879,47,Man
41,599523,DepthScenes,duration_manipulation_targetAtFixation,jsons/v1_VE1000_randls_53_rotated.json,http://54.235.29.9/FacialAge/BNav_EC2/DepthDuration/v2_depth_duration_MTurk/v2_DepthDuration_HTML.html#157,157,1920,983,1920,1080,9-18-2022,12-23-29,42,depth_duration_stimuli/001806_2014-06-26_20-50-20_260595134347_rgbf000091-resize_1/001806_2014-06-26_20-50-20_260595134347_rgbf000091-resize_1-target.png,1000,2.7305,4,3719,1000,feet,jsons/v1_VE1000_randls_53_rotated.json,642102,770879,47,Man
42,599523,DepthScenes,duration_manipulation_targetAtFixation,jsons/v1_VE1000_randls_53_rotated.json,http://54.235.29.9/FacialAge/BNav_EC2/DepthDuration/v2_depth_duration_MTurk/v2_DepthDuration_HTML.html#157,157,1920,983,1920,1080,9-18-2022,12-23-29,43,depth_duration_stimuli/003083_2014-06-15_15-21-03_094959634447_rgbf000063-resize_1/003083_2014-06-15_15-21-03_094959634447_rgbf000063-resize_1-target.png,1000,4.1405,11,3773,1001,feet,jsons/v1_VE1000_randls_53_rotated.json,642102,770879,47,Man
43,599523,DepthScenes,duration_manipulation_targetAtFixation,jsons/v1_VE1000_randls_53_rotated.json,http://54.235.29.9/FacialAge/BNav_EC2/DepthDuration/v2_depth_duration_MTurk/v2_DepthDuration_HTML.html#157,157,1920,983,1920,1080,9-18-2022,12-23-29,44,depth_duration_stimuli/000486_2014-06-09_20-47-20_260595134347_rgbf000143-resize_2/000486_2014-06-09_20-47-20_260595134347_rgbf000143-resize_2-target.png,1000,4.8325,12,2886,999,feet,jsons/v1_VE1000_randls_53_rotated.json,642102,770879,47,Man
44,599523,DepthScenes,duration_manipulation_targetAtFixation,jsons/v1_VE1000_randls_53_rotated.json,http://54.235.29.9/FacialAge/BNav_EC2/DepthDuration/v2_depth_duration_MTurk/v2_DepthDuration_HTML.html#157,157,1920,983,1920,1080,9-18-2022,12-23-29,45,depth_duration_stimuli/001815_2014-06-26_20-52-55_260595134347_rgbf000020-resize_0/001815_2014-06-26_20-52-55_260595134347_rgbf000020-resize_0-target.png,1000,3.3865,10,3861,999,feet,jsons/v1_VE1000_randls_53_rotated.json,642102,770879,47,Man
45,599523,DepthScenes,duration_manipulation_targetAtFixation,jsons/v1_VE1000_randls_53_rotated.json,http://54.235.29.9/FacialAge/BNav_EC2/DepthDuration/v2_depth_duration_MTurk/v2_DepthDuration_HTML.html#157,157,1920,983,1920,1080,9-18-2022,12-23-29,46,depth_duration_stimuli/001808_2014-06-26_20-50-58_260595134347_rgbf000029-resize_1/001808_2014-06-26_20-50-58_260595134347_rgbf000029-resize_1-target.png,1000,4.249,11,2963,1000,feet,jsons/v1_VE1000_randls_53_rotated.json,642102,770879,47,Man
46,599523,DepthScenes,duration_manipulation_targetAtFixation,jsons/v1_VE1000_randls_53_rotated.json,http://54.235.29.9/FacialAge/BNav_EC2/DepthDuration/v2_depth_duration_MTurk/v2_DepthDuration_HTML.html#157,157,1920,983,1920,1080,9-18-2022,12-23-29,47,depth_duration_stimuli/002758_2014-06-22_19-11-20_094959634447_rgbf000128-resize_1/002758_2014-06-22_19-11-20_094959634447_rgbf000128-resize_1-target.png,1000,2.555,5,3753,1000,feet,jsons/v1_VE1000_randls_53_rotated.json,642102,770879,47,Man
47,599523,DepthScenes,duration_manipulation_targetAtFixation,jsons/v1_VE1000_randls_53_rotated.json,http://54.235.29.9/FacialAge/BNav_EC2/DepthDuration/v2_depth_duration_MTurk/v2_DepthDuration_HTML.html#157,157,1920,983,1920,1080,9-18-2022,12-23-29,48,depth_duration_stimuli/002630_2014-06-24_14-47-50_094959634447_rgbf000055-resize_1/002630_2014-06-24_14-47-50_094959634447_rgbf000055-resize_1-target.png,1000,3.0095,12,2614,1000,feet,jsons/v1_VE1000_randls_53_rotated.json,642102,770879,47,Man
48,599523,DepthScenes,duration_manipulation_targetAtFixation,jsons/v1_VE1000_randls_53_rotated.json,http://54.235.29.9/FacialAge/BNav_EC2/DepthDuration/v2_depth_duration_MTurk/v2_DepthDuration_HTML.html#157,157,1920,983,1920,1080,9-18-2022,12-23-29,49,depth_duration_stimuli/001170_2014-06-17_15-43-44_260595134347_rgbf000096-resize_6/001170_2014-06-17_15-43-44_260595134347_rgbf000096-resize-original.jpg,1000,1.1909999999999998,0,3270,1000,feet,jsons/v1_VE1000_randls_53_rotated.json,642102,770879,47,Man
49,599523,DepthScenes,duration_manipulation_targetAtFixation,jsons/v1_VE1000_randls_53_rotated.json,http://54.235.29.9/FacialAge/BNav_EC2/DepthDuration/v2_depth_duration_MTurk/v2_DepthDuration_HTML.html#157,157,1920,983,1920,1080,9-18-2022,12-23-29,50,depth_duration_stimuli/002444_2014-06-28_20-32-08_260595134347_rgbf000027-resize_0/002444_2014-06-28_20-32-08_260595134347_rgbf000027-resize_0-target.png,1000,4.388999999999999,10,4186,999,feet,jsons/v1_VE1000_randls_53_rotated.json,642102,770879,47,Man
50,599523,DepthScenes,duration_manipulation_targetAtFixation,jsons/v1_VE1000_randls_53_rotated.json,http://54.235.29.9/FacialAge/BNav_EC2/DepthDuration/v2_depth_duration_MTurk/v2_DepthDuration_HTML.html#157,157,1920,983,1920,1080,9-18-2022,12-23-29,51,depth_duration_stimuli/000436_2014-06-09_22-25-11_260595134347_rgbf000137-resize_1/000436_2014-06-09_22-25-11_260595134347_rgbf000137-resize_1-target.png,1000,4.0705,11,2887,1000,feet,jsons/v1_VE1000_randls_53_rotated.json,642102,770879,47,Man
51,599523,DepthScenes,duration_manipulation_targetAtFixation,jsons/v1_VE1000_randls_53_rotated.json,http://54.235.29.9/FacialAge/BNav_EC2/DepthDuration/v2_depth_duration_MTurk/v2_DepthDuration_HTML.html#157,157,1920,983,1920,1080,9-18-2022,12-23-29,52,depth_duration_stimuli/002209_2014-06-28_18-36-10_260595134347_rgbf000051-resize_1/002209_2014-06-28_18-36-10_260595134347_rgbf000051-resize_1-target.png,1000,2.057,4,2919,1001,feet,jsons/v1_VE1000_randls_53_rotated.json,642102,770879,47,Man
52,599523,DepthScenes,duration_manipulation_targetAtFixation,jsons/v1_VE1000_randls_53_rotated.json,http://54.235.29.9/FacialAge/BNav_EC2/DepthDuration/v2_depth_duration_MTurk/v2_DepthDuration_HTML.html#157,157,1920,983,1920,1080,9-18-2022,12-23-29,53,depth_duration_stimuli/002763_2014-06-22_19-13-10_094959634447_rgbf000075-resize_4/002763_2014-06-22_19-13-10_094959634447_rgbf000075-resize_4-target.png,1000,1.68375,5,2833,1000,feet,jsons/v1_VE1000_randls_53_rotated.json,642102,770879,47,Man
53,599523,DepthScenes,duration_manipulation_targetAtFixation,jsons/v1_VE1000_randls_53_rotated.json,http://54.235.29.9/FacialAge/BNav_EC2/DepthDuration/v2_depth_duration_MTurk/v2_DepthDuration_HTML.html#157,157,1920,983,1920,1080,9-18-2022,12-23-29,54,depth_duration_stimuli/000103_2014-05-14_22-01-17_260595134347_rgbf000152-resize_5/000103_2014-05-14_22-01-17_260595134347_rgbf000152-resize_5-target.png,1000,1.993,7,3422,999,feet,jsons/v1_VE1000_randls_53_rotated.json,642102,770879,47,Man
54,599523,DepthScenes,duration_manipulation_targetAtFixation,jsons/v1_VE1000_randls_53_rotated.json,http://54.235.29.9/FacialAge/BNav_EC2/DepthDuration/v2_depth_duration_MTurk/v2_DepthDuration_HTML.html#157,157,1920,983,1920,1080,9-18-2022,12-23-29,55,depth_duration_stimuli/001555_2014-06-20_17-12-10_260595134347_rgbf000065-resize_4/001555_2014-06-20_17-12-10_260595134347_rgbf000065-resize_4-target.png,1000,1.633,3,2579,1000,feet,jsons/v1_VE1000_randls_53_rotated.json,642102,770879,47,Man
55,599523,DepthScenes,duration_manipulation_targetAtFixation,jsons/v1_VE1000_randls_53_rotated.json,http://54.235.29.9/FacialAge/BNav_EC2/DepthDuration/v2_depth_duration_MTurk/v2_DepthDuration_HTML.html#157,157,1920,983,1920,1080,9-18-2022,12-23-29,56,depth_duration_stimuli/002678_2014-06-13_16-15-32_094959634447_rgbf000151-resize_6/002678_2014-06-13_16-15-32_094959634447_rgbf000151-resize_6-target.png,1000,2.1830000000000003,5,3972,999,feet,jsons/v1_VE1000_randls_53_rotated.json,642102,770879,47,Man
56,599523,DepthScenes,duration_manipulation_targetAtFixation,jsons/v1_VE1000_randls_53_rotated.json,http://54.235.29.9/FacialAge/BNav_EC2/DepthDuration/v2_depth_duration_MTurk/v2_DepthDuration_HTML.html#157,157,1920,983,1920,1080,9-18-2022,12-23-29,57,depth_duration_stimuli/000368_2014-06-09_15-53-01_260595134347_rgbf000155-resize_2/000368_2014-06-09_15-53-01_260595134347_rgbf000155-resize_2-target.png,1000,2.4859999999999998,6,3623,998,feet,jsons/v1_VE1000_randls_53_rotated.json,642102,770879,47,Man
57,599523,DepthScenes,duration_manipulation_targetAtFixation,jsons/v1_VE1000_randls_53_rotated.json,http://54.235.29.9/FacialAge/BNav_EC2/DepthDuration/v2_depth_duration_MTurk/v2_DepthDuration_HTML.html#157,157,1920,983,1920,1080,9-18-2022,12-23-29,58,depth_duration_stimuli/001447_2014-06-19_17-00-32_260595134347_rgbf000082-resize_5/001447_2014-06-19_17-00-32_260595134347_rgbf000082-resize_5-target.png,1000,4.13775,7,3898,1000,feet,jsons/v1_VE1000_randls_53_rotated.json,642102,770879,47,Man
58,599523,DepthScenes,duration_manipulation_targetAtFixation,jsons/v1_VE1000_randls_53_rotated.json,http://54.235.29.9/FacialAge/BNav_EC2/DepthDuration/v2_depth_duration_MTurk/v2_DepthDuration_HTML.html#157,157,1920,983,1920,1080,9-18-2022,12-23-29,59,depth_duration_stimuli/000447_2014-06-08_16-15-46_260595134347_rgbf000130-resize_1/000447_2014-06-08_16-15-46_260595134347_rgbf000130-resize_1-target.png,1000,4.479,10,7373,999,feet,jsons/v1_VE1000_randls_53_rotated.json,642102,770879,47,Man
59,599523,DepthScenes,duration_manipulation_targetAtFixation,jsons/v1_VE1000_randls_53_rotated.json,http://54.235.29.9/FacialAge/BNav_EC2/DepthDuration/v2_depth_duration_MTurk/v2_DepthDuration_HTML.html#157,157,1920,983,1920,1080,9-18-2022,12-23-29,60,depth_duration_stimuli/003079_2014-06-15_15-18-20_094959634447_rgbf000152-resize_8/003079_2014-06-15_15-18-20_094959634447_rgbf000152-resize_8-target.png,1000,2.8775,9,3763,1000,feet,jsons/v1_VE1000_randls_53_rotated.json,642102,770879,47,Man
60,599523,DepthScenes,duration_manipulation_targetAtFixation,jsons/v1_VE1000_randls_53_rotated.json,http://54.235.29.9/FacialAge/BNav_EC2/DepthDuration/v2_depth_duration_MTurk/v2_DepthDuration_HTML.html#157,157,1920,983,1920,1080,9-18-2022,12-23-29,61,depth_duration_stimuli/000506_2014-06-08_23-21-00_260595134347_rgbf000070-resize_7/000506_2014-06-08_23-21-00_260595134347_rgbf000070-resize_7-target.png,1000,4.0585,8,2715,1000,feet,jsons/v1_VE1000_randls_53_rotated.json,642102,770879,47,Man
61,599523,DepthScenes,duration_manipulation_targetAtFixation,jsons/v1_VE1000_randls_53_rotated.json,http://54.235.29.9/FacialAge/BNav_EC2/DepthDuration/v2_depth_duration_MTurk/v2_DepthDuration_HTML.html#157,157,1920,983,1920,1080,9-18-2022,12-23-29,62,depth_duration_stimuli/002340_2014-06-28_20-05-46_260595134347_rgbf000113-resize_0/002340_2014-06-28_20-05-46_260595134347_rgbf000113-resize_0-target.png,1000,2.4735,8,2677,1000,feet,jsons/v1_VE1000_randls_53_rotated.json,642102,770879,47,Man
62,599523,DepthScenes,duration_manipulation_targetAtFixation,jsons/v1_VE1000_randls_53_rotated.json,http://54.235.29.9/FacialAge/BNav_EC2/DepthDuration/v2_depth_duration_MTurk/v2_DepthDuration_HTML.html#157,157,1920,983,1920,1080,9-18-2022,12-23-29,63,depth_duration_stimuli/001016_2014-06-09_16-16-10_260595134347_rgbf000112-resize_5/001016_2014-06-09_16-16-10_260595134347_rgbf000112-resize_5-target.png,1000,1.6565,5,3039,1000,feet,jsons/v1_VE1000_randls_53_rotated.json,642102,770879,47,Man
63,599523,DepthScenes,duration_manipulation_targetAtFixation,jsons/v1_VE1000_randls_53_rotated.json,http://54.235.29.9/FacialAge/BNav_EC2/DepthDuration/v2_depth_duration_MTurk/v2_DepthDuration_HTML.html#157,157,1920,983,1920,1080,9-18-2022,12-23-29,64,depth_duration_stimuli/000734_2014-06-08_17-39-11_260595134347_rgbf000128-resize_2/000734_2014-06-08_17-39-11_260595134347_rgbf000128-resize_2-target.png,1000,4.098,6,3048,1001,feet,jsons/v1_VE1000_randls_53_rotated.json,642102,770879,47,Man
64,599523,DepthScenes,duration_manipulation_targetAtFixation,jsons/v1_VE1000_randls_53_rotated.json,http://54.235.29.9/FacialAge/BNav_EC2/DepthDuration/v2_depth_duration_MTurk/v2_DepthDuration_HTML.html#157,157,1920,983,1920,1080,9-18-2022,12-23-29,65,depth_duration_stimuli/000739_2014-06-08_18-45-58_260595134347_rgbf000068-resize_1/000739_2014-06-08_18-45-58_260595134347_rgbf000068-resize_1-target.png,1000,3.534,8,3998,1005,feet,jsons/v1_VE1000_randls_53_rotated.json,642102,770879,47,Man
65,599523,DepthScenes,duration_manipulation_targetAtFixation,jsons/v1_VE1000_randls_53_rotated.json,http://54.235.29.9/FacialAge/BNav_EC2/DepthDuration/v2_depth_duration_MTurk/v2_DepthDuration_HTML.html#157,157,1920,983,1920,1080,9-18-2022,12-23-29,66,depth_duration_stimuli/001540_2014-06-20_17-01-05_260595134347_rgbf000086-resize_2/001540_2014-06-20_17-01-05_260595134347_rgbf000086-resize-original.jpg,1000,1.459,0,3571,1001,feet,jsons/v1_VE1000_randls_53_rotated.json,642102,770879,47,Man
66,599523,DepthScenes,duration_manipulation_targetAtFixation,jsons/v1_VE1000_randls_53_rotated.json,http://54.235.29.9/FacialAge/BNav_EC2/DepthDuration/v2_depth_duration_MTurk/v2_DepthDuration_HTML.html#157,157,1920,983,1920,1080,9-18-2022,12-23-29,67,depth_duration_stimuli/000502_2014-06-08_23-02-32_260595134347_rgbf000063-resize_4/000502_2014-06-08_23-02-32_260595134347_rgbf000063-resize_4-target.png,1000,2.431,6,3257,999,feet,jsons/v1_VE1000_randls_53_rotated.json,642102,770879,47,Man
67,599523,DepthScenes,duration_manipulation_targetAtFixation,jsons/v1_VE1000_randls_53_rotated.json,http://54.235.29.9/FacialAge/BNav_EC2/DepthDuration/v2_depth_duration_MTurk/v2_DepthDuration_HTML.html#157,157,1920,983,1920,1080,9-18-2022,12-23-29,68,depth_duration_stimuli/001199_2014-06-17_16-03-48_260595134347_rgbf000077-resize_0/001199_2014-06-17_16-03-48_260595134347_rgbf000077-resize_0-target.png,1000,3.4375,10,5440,1001,feet,jsons/v1_VE1000_randls_53_rotated.json,642102,770879,47,Man
68,599523,DepthScenes,duration_manipulation_targetAtFixation,jsons/v1_VE1000_randls_53_rotated.json,http://54.235.29.9/FacialAge/BNav_EC2/DepthDuration/v2_depth_duration_MTurk/v2_DepthDuration_HTML.html#157,157,1920,983,1920,1080,9-18-2022,12-23-29,69,depth_duration_stimuli/000749_2014-06-08_21-55-06_260595134347_rgbf000070-resize_2/000749_2014-06-08_21-55-06_260595134347_rgbf000070-resize_2-target.png,1000,2.331,5,3010,999,feet,jsons/v1_VE1000_randls_53_rotated.json,642102,770879,47,Man
69,599523,DepthScenes,duration_manipulation_targetAtFixation,jsons/v1_VE1000_randls_53_rotated.json,http://54.235.29.9/FacialAge/BNav_EC2/DepthDuration/v2_depth_duration_MTurk/v2_DepthDuration_HTML.html#157,157,1920,983,1920,1080,9-18-2022,12-23-29,70,depth_duration_stimuli/002788_2014-06-22_19-36-03_094959634447_rgbf000088-resize_2/002788_2014-06-22_19-36-03_094959634447_rgbf000088-resize_2-target.png,1000,1.6465,7,3427,1000,feet,jsons/v1_VE1000_randls_53_rotated.json,642102,770879,47,Man
70,599523,DepthScenes,duration_manipulation_targetAtFixation,jsons/v1_VE1000_randls_53_rotated.json,http://54.235.29.9/FacialAge/BNav_EC2/DepthDuration/v2_depth_duration_MTurk/v2_DepthDuration_HTML.html#157,157,1920,983,1920,1080,9-18-2022,12-23-29,71,depth_duration_stimuli/002995_2014-06-15_12-31-26_094959634447_rgbf000150-resize_1/002995_2014-06-15_12-31-26_094959634447_rgbf000150-resize_1-target.png,1000,3.8360000000000003,12,2794,1000,feet,jsons/v1_VE1000_randls_53_rotated.json,642102,770879,47,Man
71,599523,DepthScenes,duration_manipulation_targetAtFixation,jsons/v1_VE1000_randls_53_rotated.json,http://54.235.29.9/FacialAge/BNav_EC2/DepthDuration/v2_depth_duration_MTurk/v2_DepthDuration_HTML.html#157,157,1920,983,1920,1080,9-18-2022,12-23-29,72,depth_duration_stimuli/002748_2014-06-22_19-07-22_094959634447_rgbf000078-resize_1/002748_2014-06-22_19-07-22_094959634447_rgbf000078-resize_1-target.png,1000,4.6705,14,3686,1001,feet,jsons/v1_VE1000_randls_53_rotated.json,642102,770879,47,Man
72,599523,DepthScenes,duration_manipulation_targetAtFixation,jsons/v1_VE1000_randls_53_rotated.json,http://54.235.29.9/FacialAge/BNav_EC2/DepthDuration/v2_depth_duration_MTurk/v2_DepthDuration_HTML.html#157,157,1920,983,1920,1080,9-18-2022,12-23-29,73,depth_duration_stimuli/000709_2014-06-08_13-51-55_260595134347_rgbf000068-resize_3/000709_2014-06-08_13-51-55_260595134347_rgbf000068-resize_3-target.png,1000,1.8030000000000002,5,2995,1000,feet,jsons/v1_VE1000_randls_53_rotated.json,642102,770879,47,Man
73,599523,DepthScenes,duration_manipulation_targetAtFixation,jsons/v1_VE1000_randls_53_rotated.json,http://54.235.29.9/FacialAge/BNav_EC2/DepthDuration/v2_depth_duration_MTurk/v2_DepthDuration_HTML.html#157,157,1920,983,1920,1080,9-18-2022,12-23-29,74,depth_duration_stimuli/002057_2014-06-24_21-00-13_260595134347_rgbf000120-resize_1/002057_2014-06-24_21-00-13_260595134347_rgbf000120-resize_1-target.png,1000,2.967,11,2698,1001,feet,jsons/v1_VE1000_randls_53_rotated.json,642102,770879,47,Man
74,599523,DepthScenes,duration_manipulation_targetAtFixation,jsons/v1_VE1000_randls_53_rotated.json,http://54.235.29.9/FacialAge/BNav_EC2/DepthDuration/v2_depth_duration_MTurk/v2_DepthDuration_HTML.html#157,157,1920,983,1920,1080,9-18-2022,12-23-29,75,depth_duration_stimuli/000742_2014-06-08_18-48-09_260595134347_rgbf000164-resize_4/000742_2014-06-08_18-48-09_260595134347_rgbf000164-resize_4-target.png,1000,4.632,10,4127,999,feet,jsons/v1_VE1000_randls_53_rotated.json,642102,770879,47,Man
75,599523,DepthScenes,duration_manipulation_targetAtFixation,jsons/v1_VE1000_randls_53_rotated.json,http://54.235.29.9/FacialAge/BNav_EC2/DepthDuration/v2_depth_duration_MTurk/v2_DepthDuration_HTML.html#157,157,1920,983,1920,1080,9-18-2022,12-23-29,76,depth_duration_stimuli/001066_2014-06-08_22-03-20_260595134347_rgbf000066-resize_4/001066_2014-06-08_22-03-20_260595134347_rgbf000066-resize_4-target.png,1000,4.2330000000000005,13,4324,1000,feet,jsons/v1_VE1000_randls_53_rotated.json,642102,770879,47,Man
76,599523,DepthScenes,duration_manipulation_targetAtFixation,jsons/v1_VE1000_randls_53_rotated.json,http://54.235.29.9/FacialAge/BNav_EC2/DepthDuration/v2_depth_duration_MTurk/v2_DepthDuration_HTML.html#157,157,1920,983,1920,1080,9-18-2022,12-23-29,77,depth_duration_stimuli/001516_2014-06-20_16-25-09_260595134347_rgbf000076-resize_2/001516_2014-06-20_16-25-09_260595134347_rgbf000076-resize_2-target.png,1000,1.7445,5,3009,999,feet,jsons/v1_VE1000_randls_53_rotated.json,642102,770879,47,Man
77,599523,DepthScenes,duration_manipulation_targetAtFixation,jsons/v1_VE1000_randls_53_rotated.json,http://54.235.29.9/FacialAge/BNav_EC2/DepthDuration/v2_depth_duration_MTurk/v2_DepthDuration_HTML.html#157,157,1920,983,1920,1080,9-18-2022,12-23-29,78,depth_duration_stimuli/002118_2014-06-25_20-32-08_260595134347_rgbf000078-resize_1/002118_2014-06-25_20-32-08_260595134347_rgbf000078-resize_1-target.png,1000,2.6460000000000004,7,3322,1000,feet,jsons/v1_VE1000_randls_53_rotated.json,642102,770879,47,Man
78,599523,DepthScenes,duration_manipulation_targetAtFixation,jsons/v1_VE1000_randls_53_rotated.json,http://54.235.29.9/FacialAge/BNav_EC2/DepthDuration/v2_depth_duration_MTurk/v2_DepthDuration_HTML.html#157,157,1920,983,1920,1080,9-18-2022,12-23-29,79,depth_duration_stimuli/002657_2014-06-13_15-29-54_094959634447_rgbf000150-resize_1/002657_2014-06-13_15-29-54_094959634447_rgbf000150-resize_1-target.png,1000,4.919,8,2847,999,feet,jsons/v1_VE1000_randls_53_rotated.json,642102,770879,47,Man
79,599523,DepthScenes,duration_manipulation_targetAtFixation,jsons/v1_VE1000_randls_53_rotated.json,http://54.235.29.9/FacialAge/BNav_EC2/DepthDuration/v2_depth_duration_MTurk/v2_DepthDuration_HTML.html#157,157,1920,983,1920,1080,9-18-2022,12-23-29,80,depth_duration_stimuli/002375_2014-06-28_20-13-44_260595134347_rgbf000032-resize_1/002375_2014-06-28_20-13-44_260595134347_rgbf000032-resize_1-target.png,1000,4.0175,7,3399,1000,feet,jsons/v1_VE1000_randls_53_rotated.json,642102,770879,47,Man
80,599523,DepthScenes,duration_manipulation_targetAtFixation,jsons/v1_VE1000_randls_53_rotated.json,http://54.235.29.9/FacialAge/BNav_EC2/DepthDuration/v2_depth_duration_MTurk/v2_DepthDuration_HTML.html#157,157,1920,983,1920,1080,9-18-2022,12-23-29,81,depth_duration_stimuli/000109_2014-05-14_23-41-52_260595134347_rgbf000035-resize_9/000109_2014-05-14_23-41-52_260595134347_rgbf000035-resize_9-target.png,1000,1.3545,3,3171,1001,feet,jsons/v1_VE1000_randls_53_rotated.json,642102,770879,47,Man
81,599523,DepthScenes,duration_manipulation_targetAtFixation,jsons/v1_VE1000_randls_53_rotated.json,http://54.235.29.9/FacialAge/BNav_EC2/DepthDuration/v2_depth_duration_MTurk/v2_DepthDuration_HTML.html#157,157,1920,983,1920,1080,9-18-2022,12-23-29,82,depth_duration_stimuli/000470_2014-06-09_19-42-40_260595134347_rgbf000094-resize_1/000470_2014-06-09_19-42-40_260595134347_rgbf000094-resize_1-target.png,1000,1.831,4,3854,1000,feet,jsons/v1_VE1000_randls_53_rotated.json,642102,770879,47,Man
82,599523,DepthScenes,duration_manipulation_targetAtFixation,jsons/v1_VE1000_randls_53_rotated.json,http://54.235.29.9/FacialAge/BNav_EC2/DepthDuration/v2_depth_duration_MTurk/v2_DepthDuration_HTML.html#157,157,1920,983,1920,1080,9-18-2022,12-23-29,83,depth_duration_stimuli/001571_2014-06-20_17-21-32_260595134347_rgbf000089-resize_1/001571_2014-06-20_17-21-32_260595134347_rgbf000089-resize_1-target.png,1000,1.86,4,2737,999,feet,jsons/v1_VE1000_randls_53_rotated.json,642102,770879,47,Man
83,599523,DepthScenes,duration_manipulation_targetAtFixation,jsons/v1_VE1000_randls_53_rotated.json,http://54.235.29.9/FacialAge/BNav_EC2/DepthDuration/v2_depth_duration_MTurk/v2_DepthDuration_HTML.html#157,157,1920,983,1920,1080,9-18-2022,12-23-29,84,depth_duration_stimuli/002272_2014-06-28_18-53-56_260595134347_rgbf000067-resize_2/002272_2014-06-28_18-53-56_260595134347_rgbf000067-resize_2-target.png,1000,1.138,3,2528,999,feet,jsons/v1_VE1000_randls_53_rotated.json,642102,770879,47,Man
84,599523,DepthScenes,duration_manipulation_targetAtFixation,jsons/v1_VE1000_randls_53_rotated.json,http://54.235.29.9/FacialAge/BNav_EC2/DepthDuration/v2_depth_duration_MTurk/v2_DepthDuration_HTML.html#157,157,1920,983,1920,1080,9-18-2022,12-23-29,85,depth_duration_stimuli/000556_2014-06-09_22-42-56_260595134347_rgbf000214-resize_1/000556_2014-06-09_22-42-56_260595134347_rgbf000214-resize_1-target.png,1000,4.8415,9,3833,1000,feet,jsons/v1_VE1000_randls_53_rotated.json,642102,770879,47,Man
85,599523,DepthScenes,duration_manipulation_targetAtFixation,jsons/v1_VE1000_randls_53_rotated.json,http://54.235.29.9/FacialAge/BNav_EC2/DepthDuration/v2_depth_duration_MTurk/v2_DepthDuration_HTML.html#157,157,1920,983,1920,1080,9-18-2022,12-23-29,86,depth_duration_stimuli/001158_2014-06-17_15-32-16_260595134347_rgbf000138-resize_2/001158_2014-06-17_15-32-16_260595134347_rgbf000138-resize_2-target.png,1000,4.5315,12,3088,1000,feet,jsons/v1_VE1000_randls_53_rotated.json,642102,770879,47,Man
86,599523,DepthScenes,duration_manipulation_targetAtFixation,jsons/v1_VE1000_randls_53_rotated.json,http://54.235.29.9/FacialAge/BNav_EC2/DepthDuration/v2_depth_duration_MTurk/v2_DepthDuration_HTML.html#157,157,1920,983,1920,1080,9-18-2022,12-23-29,87,depth_duration_stimuli/001100_2014-06-15_17-46-26_260595134347_rgbf000225-resize_2/001100_2014-06-15_17-46-26_260595134347_rgbf000225-resize_2-target.png,1000,2.24,3,2924,1000,feet,jsons/v1_VE1000_randls_53_rotated.json,642102,770879,47,Man
87,599523,DepthScenes,duration_manipulation_targetAtFixation,jsons/v1_VE1000_randls_53_rotated.json,http://54.235.29.9/FacialAge/BNav_EC2/DepthDuration/v2_depth_duration_MTurk/v2_DepthDuration_HTML.html#157,157,1920,983,1920,1080,9-18-2022,12-23-29,88,depth_duration_stimuli/002784_2014-06-22_19-26-30_094959634447_rgbf000083-resize_3/002784_2014-06-22_19-26-30_094959634447_rgbf000083-resize_3-target.png,1000,1.8046666666667,4,2664,999,feet,jsons/v1_VE1000_randls_53_rotated.json,642102,770879,47,Man
88,599523,DepthScenes,duration_manipulation_targetAtFixation,jsons/v1_VE1000_randls_53_rotated.json,http://54.235.29.9/FacialAge/BNav_EC2/DepthDuration/v2_depth_duration_MTurk/v2_DepthDuration_HTML.html#157,157,1920,983,1920,1080,9-18-2022,12-23-29,89,depth_duration_stimuli/000854_2014-06-09_19-43-13_260595134347_rgbf000066-resize_0/000854_2014-06-09_19-43-13_260595134347_rgbf000066-resize_0-target.png,1000,3.068,5,3500,1000,feet,jsons/v1_VE1000_randls_53_rotated.json,642102,770879,47,Man
89,599523,DepthScenes,duration_manipulation_targetAtFixation,jsons/v1_VE1000_randls_53_rotated.json,http://54.235.29.9/FacialAge/BNav_EC2/DepthDuration/v2_depth_duration_MTurk/v2_DepthDuration_HTML.html#157,157,1920,983,1920,1080,9-18-2022,12-23-29,90,depth_duration_stimuli/000758_2014-06-08_22-05-08_260595134347_rgbf000085-resize_0/000758_2014-06-08_22-05-08_260595134347_rgbf000085-resize_0-target.png,1000,3.3810000000000002,8,3628,999,feet,jsons/v1_VE1000_randls_53_rotated.json,642102,770879,47,Man
90,599523,DepthScenes,duration_manipulation_targetAtFixation,jsons/v1_VE1000_randls_53_rotated.json,http://54.235.29.9/FacialAge/BNav_EC2/DepthDuration/v2_depth_duration_MTurk/v2_DepthDuration_HTML.html#157,157,1920,983,1920,1080,9-18-2022,12-23-29,91,depth_duration_stimuli/001584_2014-06-20_11-07-43_260595134347_rgbf000002-resize_1/001584_2014-06-20_11-07-43_260595134347_rgbf000002-resize_1-target.png,1000,3.53,8,4080,1000,feet,jsons/v1_VE1000_randls_53_rotated.json,642102,770879,47,Man
91,599523,DepthScenes,duration_manipulation_targetAtFixation,jsons/v1_VE1000_randls_53_rotated.json,http://54.235.29.9/FacialAge/BNav_EC2/DepthDuration/v2_depth_duration_MTurk/v2_DepthDuration_HTML.html#157,157,1920,983,1920,1080,9-18-2022,12-23-29,92,depth_duration_stimuli/003621_2014-05-23_18-06-08_094959634447_rgbf000101-resize_1/003621_2014-05-23_18-06-08_094959634447_rgbf000101-resize_1-target.png,1000,3.9835,9,4073,1000,feet,jsons/v1_VE1000_randls_53_rotated.json,642102,770879,47,Man
92,599523,DepthScenes,duration_manipulation_targetAtFixation,jsons/v1_VE1000_randls_53_rotated.json,http://54.235.29.9/FacialAge/BNav_EC2/DepthDuration/v2_depth_duration_MTurk/v2_DepthDuration_HTML.html#157,157,1920,983,1920,1080,9-18-2022,12-23-29,93,depth_duration_stimuli/002467_2014-06-28_20-38-07_260595134347_rgbf000026-resize_2/002467_2014-06-28_20-38-07_260595134347_rgbf000026-resize_2-target.png,1000,4.742,12,3335,999,feet,jsons/v1_VE1000_randls_53_rotated.json,642102,770879,47,Man
93,599523,DepthScenes,duration_manipulation_targetAtFixation,jsons/v1_VE1000_randls_53_rotated.json,http://54.235.29.9/FacialAge/BNav_EC2/DepthDuration/v2_depth_duration_MTurk/v2_DepthDuration_HTML.html#157,157,1920,983,1920,1080,9-18-2022,12-23-29,94,depth_duration_stimuli/002570_2014-06-24_13-59-54_094959634447_rgbf000059-resize_0/002570_2014-06-24_13-59-54_094959634447_rgbf000059-resize_0-target.png,1000,4.037,12,4642,1000,feet,jsons/v1_VE1000_randls_53_rotated.json,642102,770879,47,Man
94,599523,DepthScenes,duration_manipulation_targetAtFixation,jsons/v1_VE1000_randls_53_rotated.json,http://54.235.29.9/FacialAge/BNav_EC2/DepthDuration/v2_depth_duration_MTurk/v2_DepthDuration_HTML.html#157,157,1920,983,1920,1080,9-18-2022,12-23-29,95,depth_duration_stimuli/001450_2014-06-19_17-02-03_260595134347_rgbf000203-resize_4/001450_2014-06-19_17-02-03_260595134347_rgbf000203-resize_4-target.png,1000,4.0106666666667,10,4675,1001,feet,jsons/v1_VE1000_randls_53_rotated.json,642102,770879,47,Man
95,599523,DepthScenes,duration_manipulation_targetAtFixation,jsons/v1_VE1000_randls_53_rotated.json,http://54.235.29.9/FacialAge/BNav_EC2/DepthDuration/v2_depth_duration_MTurk/v2_DepthDuration_HTML.html#157,157,1920,983,1920,1080,9-18-2022,12-23-29,96,depth_duration_stimuli/001449_2014-06-19_17-01-27_260595134347_rgbf000116-resize_2/001449_2014-06-19_17-01-27_260595134347_rgbf000116-resize_2-target.png,1000,3.452,7,3778,1001,feet,jsons/v1_VE1000_randls_53_rotated.json,642102,770879,47,Man
96,599523,DepthScenes,duration_manipulation_targetAtFixation,jsons/v1_VE1000_randls_53_rotated.json,http://54.235.29.9/FacialAge/BNav_EC2/DepthDuration/v2_depth_duration_MTurk/v2_DepthDuration_HTML.html#157,157,1920,983,1920,1080,9-18-2022,12-23-29,97,depth_duration_stimuli/002136_2014-06-25_21-18-03_260595134347_rgbf000109-resize_3/002136_2014-06-25_21-18-03_260595134347_rgbf000109-resize_3-target.png,1000,1.9569999999999999,5,3377,1000,feet,jsons/v1_VE1000_randls_53_rotated.json,642102,770879,47,Man
97,599523,DepthScenes,duration_manipulation_targetAtFixation,jsons/v1_VE1000_randls_53_rotated.json,http://54.235.29.9/FacialAge/BNav_EC2/DepthDuration/v2_depth_duration_MTurk/v2_DepthDuration_HTML.html#157,157,1920,983,1920,1080,9-18-2022,12-23-29,98,depth_duration_stimuli/002964_2014-06-08_17-46-11_094959634447_rgbf000091-resize_4/002964_2014-06-08_17-46-11_094959634447_rgbf000091-resize_4-target.png,1000,1.6909999999999998,4,3337,999,feet,jsons/v1_VE1000_randls_53_rotated.json,642102,770879,47,Man
98,599523,DepthScenes,duration_manipulation_targetAtFixation,jsons/v1_VE1000_randls_53_rotated.json,http://54.235.29.9/FacialAge/BNav_EC2/DepthDuration/v2_depth_duration_MTurk/v2_DepthDuration_HTML.html#157,157,1920,983,1920,1080,9-18-2022,12-23-29,99,depth_duration_stimuli/001222_2014-06-17_16-24-06_260595134347_rgbf000073-resize_0/001222_2014-06-17_16-24-06_260595134347_rgbf000073-resize-original.jpg,1000,1.4385,0,3841,1000,feet,jsons/v1_VE1000_randls_53_rotated.json,642102,770879,47,Man
99,599523,DepthScenes,duration_manipulation_targetAtFixation,jsons/v1_VE1000_randls_53_rotated.json,http://54.235.29.9/FacialAge/BNav_EC2/DepthDuration/v2_depth_duration_MTurk/v2_DepthDuration_HTML.html#157,157,1920,983,1920,1080,9-18-2022,12-23-29,100,depth_duration_stimuli/000780_2014-06-08_22-28-29_260595134347_rgbf000126-resize_1/000780_2014-06-08_22-28-29_260595134347_rgbf000126-resize_1-target.png,1000,3.3825,12,3109,1000,feet,jsons/v1_VE1000_randls_53_rotated.json,642102,770879,47,Man
100,599523,DepthScenes,duration_manipulation_targetAtFixation,jsons/v1_VE1000_randls_53_rotated.json,http://54.235.29.9/FacialAge/BNav_EC2/DepthDuration/v2_depth_duration_MTurk/v2_DepthDuration_HTML.html#157,157,1920,983,1920,1080,9-18-2022,12-23-29,101,depth_duration_stimuli/002445_2014-06-28_20-32-16_260595134347_rgbf000029-resize_4/002445_2014-06-28_20-32-16_260595134347_rgbf000029-resize_4-target.png,1000,2.5315,6,3595,999,feet,jsons/v1_VE1000_randls_53_rotated.json,642102,770879,47,Man
101,599523,DepthScenes,duration_manipulation_targetAtFixation,jsons/v1_VE1000_randls_53_rotated.json,http://54.235.29.9/FacialAge/BNav_EC2/DepthDuration/v2_depth_duration_MTurk/v2_DepthDuration_HTML.html#157,157,1920,983,1920,1080,9-18-2022,12-23-29,102,depth_duration_stimuli/002344_2014-06-28_20-06-29_260595134347_rgbf000030-resize_1/002344_2014-06-28_20-06-29_260595134347_rgbf000030-resize_1-target.png,1000,1.5795,3,2971,1000,feet,jsons/v1_VE1000_randls_53_rotated.json,642102,770879,47,Man
102,599523,DepthScenes,duration_manipulation_targetAtFixation,jsons/v1_VE1000_randls_53_rotated.json,http://54.235.29.9/FacialAge/BNav_EC2/DepthDuration/v2_depth_duration_MTurk/v2_DepthDuration_HTML.html#157,157,1920,983,1920,1080,9-18-2022,12-23-29,103,depth_duration_stimuli/002725_2014-06-22_11-47-51_094959634447_rgbf000070-resize_1/002725_2014-06-22_11-47-51_094959634447_rgbf000070-resize_1-target.png,1000,2.195,6,3349,1000,feet,jsons/v1_VE1000_randls_53_rotated.json,642102,770879,47,Man
103,599523,DepthScenes,duration_manipulation_targetAtFixation,jsons/v1_VE1000_randls_53_rotated.json,http://54.235.29.9/FacialAge/BNav_EC2/DepthDuration/v2_depth_duration_MTurk/v2_DepthDuration_HTML.html#157,157,1920,983,1920,1080,9-18-2022,12-23-29,104,depth_duration_stimuli/002414_2014-06-28_20-24-58_260595134347_rgbf000067-resize_4/002414_2014-06-28_20-24-58_260595134347_rgbf000067-resize_4-target.png,1000,4.363,10,3967,999,feet,jsons/v1_VE1000_randls_53_rotated.json,642102,770879,47,Man
104,599523,DepthScenes,duration_manipulation_targetAtFixation,jsons/v1_VE1000_randls_53_rotated.json,http://54.235.29.9/FacialAge/BNav_EC2/DepthDuration/v2_depth_duration_MTurk/v2_DepthDuration_HTML.html#157,157,1920,983,1920,1080,9-18-2022,12-23-29,105,depth_duration_stimuli/000773_2014-06-08_22-24-54_260595134347_rgbf000093-resize_1/000773_2014-06-08_22-24-54_260595134347_rgbf000093-resize_1-target.png,1000,4.973,9,3977,1000,feet,jsons/v1_VE1000_randls_53_rotated.json,642102,770879,47,Man
105,599523,DepthScenes,duration_manipulation_targetAtFixation,jsons/v1_VE1000_randls_53_rotated.json,http://54.235.29.9/FacialAge/BNav_EC2/DepthDuration/v2_depth_duration_MTurk/v2_DepthDuration_HTML.html#157,157,1920,983,1920,1080,9-18-2022,12-23-29,106,depth_duration_stimuli/002805_2014-06-22_19-54-03_094959634447_rgbf000079-resize_1/002805_2014-06-22_19-54-03_094959634447_rgbf000079-resize_1-target.png,1000,3.1439999999999997,9,4846,1000,feet,jsons/v1_VE1000_randls_53_rotated.json,642102,770879,47,Man
106,599523,DepthScenes,duration_manipulation_targetAtFixation,jsons/v1_VE1000_randls_53_rotated.json,http://54.235.29.9/FacialAge/BNav_EC2/DepthDuration/v2_depth_duration_MTurk/v2_DepthDuration_HTML.html#157,157,1920,983,1920,1080,9-18-2022,12-23-29,107,depth_duration_stimuli/000906_2014-06-08_13-35-43_260595134347_rgbf000155-resize_1/000906_2014-06-08_13-35-43_260595134347_rgbf000155-resize_1-target.png,1000,2.8489999999999998,10,3747,999,feet,jsons/v1_VE1000_randls_53_rotated.json,642102,770879,47,Man
107,599523,DepthScenes,duration_manipulation_targetAtFixation,jsons/v1_VE1000_randls_53_rotated.json,http://54.235.29.9/FacialAge/BNav_EC2/DepthDuration/v2_depth_duration_MTurk/v2_DepthDuration_HTML.html#157,157,1920,983,1920,1080,9-18-2022,12-23-29,108,depth_duration_stimuli/000409_2014-06-04_19-23-33_260595134347_rgbf000067-resize_0/000409_2014-06-04_19-23-33_260595134347_rgbf000067-resize_0-target.png,1000,3.7335,8,3350,1001,feet,jsons/v1_VE1000_randls_53_rotated.json,642102,770879,47,Man
108,599523,DepthScenes,duration_manipulation_targetAtFixation,jsons/v1_VE1000_randls_53_rotated.json,http://54.235.29.9/FacialAge/BNav_EC2/DepthDuration/v2_depth_duration_MTurk/v2_DepthDuration_HTML.html#157,157,1920,983,1920,1080,9-18-2022,12-23-29,109,depth_duration_stimuli/002663_2014-06-13_15-50-26_094959634447_rgbf000075-resize_1/002663_2014-06-13_15-50-26_094959634447_rgbf000075-resize_1-target.png,1000,4.7495,12,2749,1000,feet,jsons/v1_VE1000_randls_53_rotated.json,642102,770879,47,Man
109,599523,DepthScenes,duration_manipulation_targetAtFixation,jsons/v1_VE1000_randls_53_rotated.json,http://54.235.29.9/FacialAge/BNav_EC2/DepthDuration/v2_depth_duration_MTurk/v2_DepthDuration_HTML.html#157,157,1920,983,1920,1080,9-18-2022,12-23-29,110,depth_duration_stimuli/003423_2014-05-21_10-23-26_094959634447_rgbf002665-resize_2/003423_2014-05-21_10-23-26_094959634447_rgbf002665-resize_2-target.png,1000,3.2575,12,3253,1000,feet,jsons/v1_VE1000_randls_53_rotated.json,642102,770879,47,Man
110,599523,DepthScenes,duration_manipulation_targetAtFixation,jsons/v1_VE1000_randls_53_rotated.json,http://54.235.29.9/FacialAge/BNav_EC2/DepthDuration/v2_depth_duration_MTurk/v2_DepthDuration_HTML.html#157,157,1920,983,1920,1080,9-18-2022,12-23-29,111,depth_duration_stimuli/002905_2014-06-03_18-04-43_094959634447_rgbf000151-resize_2/002905_2014-06-03_18-04-43_094959634447_rgbf000151-resize_2-target.png,1000,2.0295,4,3599,1000,feet,jsons/v1_VE1000_randls_53_rotated.json,642102,770879,47,Man
111,599523,DepthScenes,duration_manipulation_targetAtFixation,jsons/v1_VE1000_randls_53_rotated.json,http://54.235.29.9/FacialAge/BNav_EC2/DepthDuration/v2_depth_duration_MTurk/v2_DepthDuration_HTML.html#157,157,1920,983,1920,1080,9-18-2022,12-23-29,112,depth_duration_stimuli/002639_2014-06-24_14-51-37_094959634447_rgbf000074-resize_4/002639_2014-06-24_14-51-37_094959634447_rgbf000074-resize_4-target.png,1000,4.0375,10,3834,999,feet,jsons/v1_VE1000_randls_53_rotated.json,642102,770879,47,Man
112,599523,DepthScenes,duration_manipulation_targetAtFixation,jsons/v1_VE1000_randls_53_rotated.json,http://54.235.29.9/FacialAge/BNav_EC2/DepthDuration/v2_depth_duration_MTurk/v2_DepthDuration_HTML.html#157,157,1920,983,1920,1080,9-18-2022,12-23-29,113,depth_duration_stimuli/003292_2014-05-14_21-53-49_094959634447_rgbf000100-resize_2/003292_2014-05-14_21-53-49_094959634447_rgbf000100-resize_2-target.png,1000,3.4815,8,3519,999,feet,jsons/v1_VE1000_randls_53_rotated.json,642102,770879,47,Man
113,599523,DepthScenes,duration_manipulation_targetAtFixation,jsons/v1_VE1000_randls_53_rotated.json,http://54.235.29.9/FacialAge/BNav_EC2/DepthDuration/v2_depth_duration_MTurk/v2_DepthDuration_HTML.html#157,157,1920,983,1920,1080,9-18-2022,12-23-29,114,depth_duration_stimuli/000943_2014-06-09_19-31-07_260595134347_rgbf000128-resize_1/000943_2014-06-09_19-31-07_260595134347_rgbf000128-resize_1-target.png,1000,1.9765,5,3691,1000,feet,jsons/v1_VE1000_randls_53_rotated.json,642102,770879,47,Man
114,599523,DepthScenes,duration_manipulation_targetAtFixation,jsons/v1_VE1000_randls_53_rotated.json,http://54.235.29.9/FacialAge/BNav_EC2/DepthDuration/v2_depth_duration_MTurk/v2_DepthDuration_HTML.html#157,157,1920,983,1920,1080,9-18-2022,12-23-29,115,depth_duration_stimuli/003070_2014-06-15_14-58-27_094959634447_rgbf000150-resize_3/003070_2014-06-15_14-58-27_094959634447_rgbf000150-resize_3-target.png,1000,2.9415,8,3398,1000,feet,jsons/v1_VE1000_randls_53_rotated.json,642102,770879,47,Man
115,599523,DepthScenes,duration_manipulation_targetAtFixation,jsons/v1_VE1000_randls_53_rotated.json,http://54.235.29.9/FacialAge/BNav_EC2/DepthDuration/v2_depth_duration_MTurk/v2_DepthDuration_HTML.html#157,157,1920,983,1920,1080,9-18-2022,12-23-29,116,depth_duration_stimuli/002750_2014-06-22_19-08-03_094959634447_rgbf000094-resize_4/002750_2014-06-22_19-08-03_094959634447_rgbf000094-resize_4-target.png,1000,2.354,6,2986,1001,feet,jsons/v1_VE1000_randls_53_rotated.json,642102,770879,47,Man
116,599523,DepthScenes,duration_manipulation_targetAtFixation,jsons/v1_VE1000_randls_53_rotated.json,http://54.235.29.9/FacialAge/BNav_EC2/DepthDuration/v2_depth_duration_MTurk/v2_DepthDuration_HTML.html#157,157,1920,983,1920,1080,9-18-2022,12-23-29,117,depth_duration_stimuli/002549_2014-06-24_13-41-39_094959634447_rgbf000022-resize_3/002549_2014-06-24_13-41-39_094959634447_rgbf000022-resize_3-target.png,1000,1.476,3,2609,1000,feet,jsons/v1_VE1000_randls_53_rotated.json,642102,770879,47,Man
117,599523,DepthScenes,duration_manipulation_targetAtFixation,jsons/v1_VE1000_randls_53_rotated.json,http://54.235.29.9/FacialAge/BNav_EC2/DepthDuration/v2_depth_duration_MTurk/v2_DepthDuration_HTML.html#157,157,1920,983,1920,1080,9-18-2022,12-23-29,118,depth_duration_stimuli/003010_2014-06-15_12-54-35_094959634447_rgbf000112-resize_0/003010_2014-06-15_12-54-35_094959634447_rgbf000112-resize_0-target.png,1000,3.1185,8,3925,1000,feet,jsons/v1_VE1000_randls_53_rotated.json,642102,770879,47,Man
118,599523,DepthScenes,duration_manipulation_targetAtFixation,jsons/v1_VE1000_randls_53_rotated.json,http://54.235.29.9/FacialAge/BNav_EC2/DepthDuration/v2_depth_duration_MTurk/v2_DepthDuration_HTML.html#157,157,1920,983,1920,1080,9-18-2022,12-23-29,119,depth_duration_stimuli/001810_2014-06-26_20-51-35_260595134347_rgbf000040-resize_3/001810_2014-06-26_20-51-35_260595134347_rgbf000040-resize_3-target.png,1000,2.2525,5,2767,1000,feet,jsons/v1_VE1000_randls_53_rotated.json,642102,770879,47,Man
119,599523,DepthScenes,duration_manipulation_targetAtFixation,jsons/v1_VE1000_randls_53_rotated.json,http://54.235.29.9/FacialAge/BNav_EC2/DepthDuration/v2_depth_duration_MTurk/v2_DepthDuration_HTML.html#157,157,1920,983,1920,1080,9-18-2022,12-23-29,120,depth_duration_stimuli/000787_2014-06-08_22-33-53_260595134347_rgbf000175-resize_1/000787_2014-06-08_22-33-53_260595134347_rgbf000175-resize-original.jpg,1000,4.784,0,2902,1001,feet,jsons/v1_VE1000_randls_53_rotated.json,642102,770879,47,Man
120,599523,DepthScenes,duration_manipulation_targetAtFixation,jsons/v1_VE1000_randls_53_rotated.json,http://54.235.29.9/FacialAge/BNav_EC2/DepthDuration/v2_depth_duration_MTurk/v2_DepthDuration_HTML.html#157,157,1920,983,1920,1080,9-18-2022,12-23-29,121,depth_duration_stimuli/001392_2014-06-19_16-07-59_260595134347_rgbf000046-resize_1/001392_2014-06-19_16-07-59_260595134347_rgbf000046-resize_1-target.png,1000,4.135,11,3097,1001,feet,jsons/v1_VE1000_randls_53_rotated.json,642102,770879,47,Man
121,599523,DepthScenes,duration_manipulation_targetAtFixation,jsons/v1_VE1000_randls_53_rotated.json,http://54.235.29.9/FacialAge/BNav_EC2/DepthDuration/v2_depth_duration_MTurk/v2_DepthDuration_HTML.html#157,157,1920,983,1920,1080,9-18-2022,12-23-29,122,depth_duration_stimuli/001570_2014-06-20_17-21-09_260595134347_rgbf000135-resize_4/001570_2014-06-20_17-21-09_260595134347_rgbf000135-resize_4-target.png,1000,4.467,10,4082,999,feet,jsons/v1_VE1000_randls_53_rotated.json,642102,770879,47,Man
122,599523,DepthScenes,duration_manipulation_targetAtFixation,jsons/v1_VE1000_randls_53_rotated.json,http://54.235.29.9/FacialAge/BNav_EC2/DepthDuration/v2_depth_duration_MTurk/v2_DepthDuration_HTML.html#157,157,1920,983,1920,1080,9-18-2022,12-23-29,123,depth_duration_stimuli/000483_2014-06-09_20-41-45_260595134347_rgbf000116-resize_4/000483_2014-06-09_20-41-45_260595134347_rgbf000116-resize_4-target.png,1000,1.337,3,2553,1001,feet,jsons/v1_VE1000_randls_53_rotated.json,642102,770879,47,Man
123,599523,DepthScenes,duration_manipulation_targetAtFixation,jsons/v1_VE1000_randls_53_rotated.json,http://54.235.29.9/FacialAge/BNav_EC2/DepthDuration/v2_depth_duration_MTurk/v2_DepthDuration_HTML.html#157,157,1920,983,1920,1080,9-18-2022,12-23-29,124,depth_duration_stimuli/000469_2014-06-09_19-42-10_260595134347_rgbf000081-resize_1/000469_2014-06-09_19-42-10_260595134347_rgbf000081-resize_1-target.png,1000,1.652,4,2559,1000,feet,jsons/v1_VE1000_randls_53_rotated.json,642102,770879,47,Man
124,599523,DepthScenes,duration_manipulation_targetAtFixation,jsons/v1_VE1000_randls_53_rotated.json,http://54.235.29.9/FacialAge/BNav_EC2/DepthDuration/v2_depth_duration_MTurk/v2_DepthDuration_HTML.html#157,157,1920,983,1920,1080,9-18-2022,12-23-29,125,depth_duration_stimuli/000137_2014-05-20_17-04-49_260595134347_rgbf000120-resize_1/000137_2014-05-20_17-04-49_260595134347_rgbf000120-resize_1-target.png,1000,3.786,7,3113,1000,feet,jsons/v1_VE1000_randls_53_rotated.json,642102,770879,47,Man
125,599523,DepthScenes,duration_manipulation_targetAtFixation,jsons/v1_VE1000_randls_53_rotated.json,http://54.235.29.9/FacialAge/BNav_EC2/DepthDuration/v2_depth_duration_MTurk/v2_DepthDuration_HTML.html#157,157,1920,983,1920,1080,9-18-2022,12-23-29,126,depth_duration_stimuli/000736_2014-06-08_18-24-15_260595134347_rgbf000206-resize_3/000736_2014-06-08_18-24-15_260595134347_rgbf000206-resize_3-target.png,1000,3.515,6,2612,1001,feet,jsons/v1_VE1000_randls_53_rotated.json,642102,770879,47,Man
126,599523,DepthScenes,duration_manipulation_targetAtFixation,jsons/v1_VE1000_randls_53_rotated.json,http://54.235.29.9/FacialAge/BNav_EC2/DepthDuration/v2_depth_duration_MTurk/v2_DepthDuration_HTML.html#157,157,1920,983,1920,1080,9-18-2022,12-23-29,127,depth_duration_stimuli/002568_2014-06-24_13-59-21_094959634447_rgbf000062-resize_4/002568_2014-06-24_13-59-21_094959634447_rgbf000062-resize_4-target.png,1000,3.015,6,3167,1001,feet,jsons/v1_VE1000_randls_53_rotated.json,642102,770879,47,Man
127,599523,DepthScenes,duration_manipulation_targetAtFixation,jsons/v1_VE1000_randls_53_rotated.json,http://54.235.29.9/FacialAge/BNav_EC2/DepthDuration/v2_depth_duration_MTurk/v2_DepthDuration_HTML.html#157,157,1920,983,1920,1080,9-18-2022,12-23-29,128,depth_duration_stimuli/003492_2014-05-21_15-50-55_094959634447_rgbf000828-resize_1/003492_2014-05-21_15-50-55_094959634447_rgbf000828-resize_1-target.png,1000,4.06875,10,3829,999,feet,jsons/v1_VE1000_randls_53_rotated.json,642102,770879,47,Man
128,599523,DepthScenes,duration_manipulation_targetAtFixation,jsons/v1_VE1000_randls_53_rotated.json,http://54.235.29.9/FacialAge/BNav_EC2/DepthDuration/v2_depth_duration_MTurk/v2_DepthDuration_HTML.html#157,157,1920,983,1920,1080,9-18-2022,12-23-29,129,depth_duration_stimuli/001235_2014-06-17_16-37-36_260595134347_rgbf000084-resize_4/001235_2014-06-17_16-37-36_260595134347_rgbf000084-resize_4-target.png,1000,3.6605,8,2931,999,feet,jsons/v1_VE1000_randls_53_rotated.json,642102,770879,47,Man
129,599523,DepthScenes,duration_manipulation_targetAtFixation,jsons/v1_VE1000_randls_53_rotated.json,http://54.235.29.9/FacialAge/BNav_EC2/DepthDuration/v2_depth_duration_MTurk/v2_DepthDuration_HTML.html#157,157,1920,983,1920,1080,9-18-2022,12-23-29,130,depth_duration_stimuli/000788_2014-06-08_22-34-36_260595134347_rgbf000131-resize_1/000788_2014-06-08_22-34-36_260595134347_rgbf000131-resize_1-target.png,1000,3.359,7,4468,1000,feet,jsons/v1_VE1000_randls_53_rotated.json,642102,770879,47,Man
130,599523,DepthScenes,duration_manipulation_targetAtFixation,jsons/v1_VE1000_randls_53_rotated.json,http://54.235.29.9/FacialAge/BNav_EC2/DepthDuration/v2_depth_duration_MTurk/v2_DepthDuration_HTML.html#157,157,1920,983,1920,1080,9-18-2022,12-23-29,131,depth_duration_stimuli/000866_2014-06-09_20-45-42_260595134347_rgbf000139-resize_1/000866_2014-06-09_20-45-42_260595134347_rgbf000139-resize_1-target.png,1000,3.2155,7,3303,1000,feet,jsons/v1_VE1000_randls_53_rotated.json,642102,770879,47,Man
131,599523,DepthScenes,duration_manipulation_targetAtFixation,jsons/v1_VE1000_randls_53_rotated.json,http://54.235.29.9/FacialAge/BNav_EC2/DepthDuration/v2_depth_duration_MTurk/v2_DepthDuration_HTML.html#157,157,1920,983,1920,1080,9-18-2022,12-23-29,132,depth_duration_stimuli/002989_2014-06-15_12-25-03_094959634447_rgbf000150-resize_3/002989_2014-06-15_12-25-03_094959634447_rgbf000150-resize_3-target.png,1000,4.1975,10,3428,1000,feet,jsons/v1_VE1000_randls_53_rotated.json,642102,770879,47,Man
132,599523,DepthScenes,duration_manipulation_targetAtFixation,jsons/v1_VE1000_randls_53_rotated.json,http://54.235.29.9/FacialAge/BNav_EC2/DepthDuration/v2_depth_duration_MTurk/v2_DepthDuration_HTML.html#157,157,1920,983,1920,1080,9-18-2022,12-23-29,133,depth_duration_stimuli/002660_2014-06-13_15-44-18_094959634447_rgbf001878-resize_2/002660_2014-06-13_15-44-18_094959634447_rgbf001878-resize_2-target.png,1000,3.576,8,2923,1000,feet,jsons/v1_VE1000_randls_53_rotated.json,642102,770879,47,Man
133,599523,DepthScenes,duration_manipulation_targetAtFixation,jsons/v1_VE1000_randls_53_rotated.json,http://54.235.29.9/FacialAge/BNav_EC2/DepthDuration/v2_depth_duration_MTurk/v2_DepthDuration_HTML.html#157,157,1920,983,1920,1080,9-18-2022,12-23-29,134,depth_duration_stimuli/002153_2014-06-25_21-27-18_260595134347_rgbf000038-resize_5/002153_2014-06-25_21-27-18_260595134347_rgbf000038-resize_5-target.png,1000,2.505,5,3281,1000,feet,jsons/v1_VE1000_randls_53_rotated.json,642102,770879,47,Man
134,599523,DepthScenes,duration_manipulation_targetAtFixation,jsons/v1_VE1000_randls_53_rotated.json,http://54.235.29.9/FacialAge/BNav_EC2/DepthDuration/v2_depth_duration_MTurk/v2_DepthDuration_HTML.html#157,157,1920,983,1920,1080,9-18-2022,12-23-29,135,depth_duration_stimuli/000375_2014-06-08_11-17-29_260595134347_rgbf000133-resize_2/000375_2014-06-08_11-17-29_260595134347_rgbf000133-resize-original.jpg,1000,4.718,0,2774,1000,feet,jsons/v1_VE1000_randls_53_rotated.json,642102,770879,47,Man
135,599523,DepthScenes,duration_manipulation_targetAtFixation,jsons/v1_VE1000_randls_53_rotated.json,http://54.235.29.9/FacialAge/BNav_EC2/DepthDuration/v2_depth_duration_MTurk/v2_DepthDuration_HTML.html#157,157,1920,983,1920,1080,9-18-2022,12-23-29,136,depth_duration_stimuli/003338_2014-05-20_11-01-23_094959634447_rgbf000051-resize_6/003338_2014-05-20_11-01-23_094959634447_rgbf000051-resize_6-target.png,1000,1.693,3,2916,1000,feet,jsons/v1_VE1000_randls_53_rotated.json,642102,770879,47,Man
136,599523,DepthScenes,duration_manipulation_targetAtFixation,jsons/v1_VE1000_randls_53_rotated.json,http://54.235.29.9/FacialAge/BNav_EC2/DepthDuration/v2_depth_duration_MTurk/v2_DepthDuration_HTML.html#157,157,1920,983,1920,1080,9-18-2022,12-23-29,137,depth_duration_stimuli/002509_2014-06-24_13-19-22_094959634447_rgbf000077-resize_0/002509_2014-06-24_13-19-22_094959634447_rgbf000077-resize_0-target.png,1000,1.3065,4,2649,999,feet,jsons/v1_VE1000_randls_53_rotated.json,642102,770879,47,Man
137,599523,DepthScenes,duration_manipulation_targetAtFixation,jsons/v1_VE1000_randls_53_rotated.json,http://54.235.29.9/FacialAge/BNav_EC2/DepthDuration/v2_depth_duration_MTurk/v2_DepthDuration_HTML.html#157,157,1920,983,1920,1080,9-18-2022,12-23-29,138,depth_duration_stimuli/003228_2014-05-14_13-42-35_094959634447_rgbf000101-resize_1/003228_2014-05-14_13-42-35_094959634447_rgbf000101-resize_1-target.png,1000,1.9680000000000002,4,2476,1000,feet,jsons/v1_VE1000_randls_53_rotated.json,642102,770879,47,Man
138,599523,DepthScenes,duration_manipulation_targetAtFixation,jsons/v1_VE1000_randls_53_rotated.json,http://54.235.29.9/FacialAge/BNav_EC2/DepthDuration/v2_depth_duration_MTurk/v2_DepthDuration_HTML.html#157,157,1920,983,1920,1080,9-18-2022,12-23-29,139,depth_duration_stimuli/002600_2014-06-24_14-27-04_094959634447_rgbf000074-resize_2/002600_2014-06-24_14-27-04_094959634447_rgbf000074-resize_2-target.png,1000,2.7575,7,2722,1000,feet,jsons/v1_VE1000_randls_53_rotated.json,642102,770879,47,Man
139,599523,DepthScenes,duration_manipulation_targetAtFixation,jsons/v1_VE1000_randls_53_rotated.json,http://54.235.29.9/FacialAge/BNav_EC2/DepthDuration/v2_depth_duration_MTurk/v2_DepthDuration_HTML.html#157,157,1920,983,1920,1080,9-18-2022,12-23-29,140,depth_duration_stimuli/001032_2014-06-08_13-23-17_260595134347_rgbf000021-resize_3/001032_2014-06-08_13-23-17_260595134347_rgbf000021-resize_3-target.png,1000,3.2725,7,2547,999,feet,jsons/v1_VE1000_randls_53_rotated.json,642102,770879,47,Man
140,599523,DepthScenes,duration_manipulation_targetAtFixation,jsons/v1_VE1000_randls_53_rotated.json,http://54.235.29.9/FacialAge/BNav_EC2/DepthDuration/v2_depth_duration_MTurk/v2_DepthDuration_HTML.html#157,157,1920,983,1920,1080,9-18-2022,12-23-29,141,depth_duration_stimuli/001059_2014-06-08_21-53-27_260595134347_rgbf000061-resize_4/001059_2014-06-08_21-53-27_260595134347_rgbf000061-resize_4-target.png,1000,2.4185,6,2364,999,feet,jsons/v1_VE1000_randls_53_rotated.json,642102,770879,47,Man
141,599523,DepthScenes,duration_manipulation_targetAtFixation,jsons/v1_VE1000_randls_53_rotated.json,http://54.235.29.9/FacialAge/BNav_EC2/DepthDuration/v2_depth_duration_MTurk/v2_DepthDuration_HTML.html#157,157,1920,983,1920,1080,9-18-2022,12-23-29,142,depth_duration_stimuli/001136_2014-06-17_15-19-41_260595134347_rgbf000076-resize_3/001136_2014-06-17_15-19-41_260595134347_rgbf000076-resize_3-target.png,1000,1.8655,6,2770,999,feet,jsons/v1_VE1000_randls_53_rotated.json,642102,770879,47,Man
142,599523,DepthScenes,duration_manipulation_targetAtFixation,jsons/v1_VE1000_randls_53_rotated.json,http://54.235.29.9/FacialAge/BNav_EC2/DepthDuration/v2_depth_duration_MTurk/v2_DepthDuration_HTML.html#157,157,1920,983,1920,1080,9-18-2022,12-23-29,143,depth_duration_stimuli/001164_2014-06-17_15-35-46_260595134347_rgbf000085-resize_3/001164_2014-06-17_15-35-46_260595134347_rgbf000085-resize_3-target.png,1000,2.354,8,4982,999,feet,jsons/v1_VE1000_randls_53_rotated.json,642102,770879,47,Man
143,599523,DepthScenes,duration_manipulation_targetAtFixation,jsons/v1_VE1000_randls_53_rotated.json,http://54.235.29.9/FacialAge/BNav_EC2/DepthDuration/v2_depth_duration_MTurk/v2_DepthDuration_HTML.html#157,157,1920,983,1920,1080,9-18-2022,12-23-29,144,depth_duration_stimuli/003048_2014-06-15_13-49-43_094959634447_rgbf000150-resize_1/003048_2014-06-15_13-49-43_094959634447_rgbf000150-resize_1-target.png,1000,4.0035,10,4247,1000,feet,jsons/v1_VE1000_randls_53_rotated.json,642102,770879,47,Man
144,599523,DepthScenes,duration_manipulation_targetAtFixation,jsons/v1_VE1000_randls_53_rotated.json,http://54.235.29.9/FacialAge/BNav_EC2/DepthDuration/v2_depth_duration_MTurk/v2_DepthDuration_HTML.html#157,157,1920,983,1920,1080,9-18-2022,12-23-29,145,depth_duration_stimuli/002043_2014-06-24_20-29-38_260595134347_rgbf000039-resize_4/002043_2014-06-24_20-29-38_260595134347_rgbf000039-resize_4-target.png,1000,2.8435,8,2610,1000,feet,jsons/v1_VE1000_randls_53_rotated.json,642102,770879,47,Man
145,599523,DepthScenes,duration_manipulation_targetAtFixation,jsons/v1_VE1000_randls_53_rotated.json,http://54.235.29.9/FacialAge/BNav_EC2/DepthDuration/v2_depth_duration_MTurk/v2_DepthDuration_HTML.html#157,157,1920,983,1920,1080,9-18-2022,12-23-29,146,depth_duration_stimuli/000927_2014-06-09_16-32-30_260595134347_rgbf000123-resize_3/000927_2014-06-09_16-32-30_260595134347_rgbf000123-resize_3-target.png,1000,2.6785,8,2538,999,feet,jsons/v1_VE1000_randls_53_rotated.json,642102,770879,47,Man
146,599523,DepthScenes,duration_manipulation_targetAtFixation,jsons/v1_VE1000_randls_53_rotated.json,http://54.235.29.9/FacialAge/BNav_EC2/DepthDuration/v2_depth_duration_MTurk/v2_DepthDuration_HTML.html#157,157,1920,983,1920,1080,9-18-2022,12-23-29,147,depth_duration_stimuli/001110_2014-06-15_17-25-28_260595134347_rgbf000150-resize_1/001110_2014-06-15_17-25-28_260595134347_rgbf000150-resize_1-target.png,1000,1.7115,4,3981,1000,feet,jsons/v1_VE1000_randls_53_rotated.json,642102,770879,47,Man
147,599523,DepthScenes,duration_manipulation_targetAtFixation,jsons/v1_VE1000_randls_53_rotated.json,http://54.235.29.9/FacialAge/BNav_EC2/DepthDuration/v2_depth_duration_MTurk/v2_DepthDuration_HTML.html#157,157,1920,983,1920,1080,9-18-2022,12-23-29,148,depth_duration_stimuli/002875_2014-06-01_15-19-00_094959634447_rgbf000151-resize_1/002875_2014-06-01_15-19-00_094959634447_rgbf000151-resize_1-target.png,1000,1.9675,5,3040,1000,feet,jsons/v1_VE1000_randls_53_rotated.json,642102,770879,47,Man
148,599523,DepthScenes,duration_manipulation_targetAtFixation,jsons/v1_VE1000_randls_53_rotated.json,http://54.235.29.9/FacialAge/BNav_EC2/DepthDuration/v2_depth_duration_MTurk/v2_DepthDuration_HTML.html#157,157,1920,983,1920,1080,9-18-2022,12-23-29,149,depth_duration_stimuli/001011_2014-06-08_23-18-54_260595134347_rgbf000044-resize_4/001011_2014-06-08_23-18-54_260595134347_rgbf000044-resize_4-target.png,1000,2.4730000000000003,7,2971,1000,feet,jsons/v1_VE1000_randls_53_rotated.json,642102,770879,47,Man
149,599523,DepthScenes,duration_manipulation_targetAtFixation,jsons/v1_VE1000_randls_53_rotated.json,http://54.235.29.9/FacialAge/BNav_EC2/DepthDuration/v2_depth_duration_MTurk/v2_DepthDuration_HTML.html#157,157,1920,983,1920,1080,9-18-2022,12-23-29,150,depth_duration_stimuli/001132_2014-06-17_14-48-54_260595134347_rgbf000100-resize_2/001132_2014-06-17_14-48-54_260595134347_rgbf000100-resize_2-target.png,1000,3.753,9,3282,1000,feet,jsons/v1_VE1000_randls_53_rotated.json,642102,770879,47,Man
150,599523,DepthScenes,duration_manipulation_targetAtFixation,jsons/v1_VE1000_randls_53_rotated.json,http://54.235.29.9/FacialAge/BNav_EC2/DepthDuration/v2_depth_duration_MTurk/v2_DepthDuration_HTML.html#157,157,1920,983,1920,1080,9-18-2022,12-23-29,151,depth_duration_stimuli/001133_2014-06-17_14-49-16_260595134347_rgbf000100-resize_0/001133_2014-06-17_14-49-16_260595134347_rgbf000100-resize_0-target.png,1000,4.2115,10,3683,998,feet,jsons/v1_VE1000_randls_53_rotated.json,642102,770879,47,Man
151,599523,DepthScenes,duration_manipulation_targetAtFixation,jsons/v1_VE1000_randls_53_rotated.json,http://54.235.29.9/FacialAge/BNav_EC2/DepthDuration/v2_depth_duration_MTurk/v2_DepthDuration_HTML.html#157,157,1920,983,1920,1080,9-18-2022,12-23-29,152,depth_duration_stimuli/000569_2014-06-09_22-51-47_260595134347_rgbf000141-resize_3/000569_2014-06-09_22-51-47_260595134347_rgbf000141-resize-original.jpg,1000,4.512,0,3385,1000,feet,jsons/v1_VE1000_randls_53_rotated.json,642102,770879,47,Man
152,599523,DepthScenes,duration_manipulation_targetAtFixation,jsons/v1_VE1000_randls_53_rotated.json,http://54.235.29.9/FacialAge/BNav_EC2/DepthDuration/v2_depth_duration_MTurk/v2_DepthDuration_HTML.html#157,157,1920,983,1920,1080,9-18-2022,12-23-29,153,depth_duration_stimuli/000691_2014-06-08_13-08-50_260595134347_rgbf000132-resize_3/000691_2014-06-08_13-08-50_260595134347_rgbf000132-resize_3-target.png,1000,4.1530000000000005,9,3850,1000,feet,jsons/v1_VE1000_randls_53_rotated.json,642102,770879,47,Man
153,599523,DepthScenes,duration_manipulation_targetAtFixation,jsons/v1_VE1000_randls_53_rotated.json,http://54.235.29.9/FacialAge/BNav_EC2/DepthDuration/v2_depth_duration_MTurk/v2_DepthDuration_HTML.html#157,157,1920,983,1920,1080,9-18-2022,12-23-29,154,depth_duration_stimuli/002213_2014-06-28_18-37-58_260595134347_rgbf000055-resize_1/002213_2014-06-28_18-37-58_260595134347_rgbf000055-resize_1-target.png,1000,3.62,10,3819,1001,feet,jsons/v1_VE1000_randls_53_rotated.json,642102,770879,47,Man
154,599523,DepthScenes,duration_manipulation_targetAtFixation,jsons/v1_VE1000_randls_53_rotated.json,http://54.235.29.9/FacialAge/BNav_EC2/DepthDuration/v2_depth_duration_MTurk/v2_DepthDuration_HTML.html#157,157,1920,983,1920,1080,9-18-2022,12-23-29,155,depth_duration_stimuli/000457_2014-06-08_16-52-43_260595134347_rgbf000199-resize_1/000457_2014-06-08_16-52-43_260595134347_rgbf000199-resize_1-target.png,1000,3.6489999999999996,9,3825,1000,feet,jsons/v1_VE1000_randls_53_rotated.json,642102,770879,47,Man
155,599523,DepthScenes,duration_manipulation_targetAtFixation,jsons/v1_VE1000_randls_53_rotated.json,http://54.235.29.9/FacialAge/BNav_EC2/DepthDuration/v2_depth_duration_MTurk/v2_DepthDuration_HTML.html#157,157,1920,983,1920,1080,9-18-2022,12-23-29,156,depth_duration_stimuli/000929_2014-06-09_16-33-19_260595134347_rgbf000139-resize_0/000929_2014-06-09_16-33-19_260595134347_rgbf000139-resize_0-target.png,1000,2.8680000000000003,4,6655,999,feet,jsons/v1_VE1000_randls_53_rotated.json,642102,770879,47,Man
156,599523,DepthScenes,duration_manipulation_targetAtFixation,jsons/v1_VE1000_randls_53_rotated.json,http://54.235.29.9/FacialAge/BNav_EC2/DepthDuration/v2_depth_duration_MTurk/v2_DepthDuration_HTML.html#157,157,1920,983,1920,1080,9-18-2022,12-23-29,157,depth_duration_stimuli/002103_2014-06-25_20-00-40_260595134347_rgbf000049-resize_0/002103_2014-06-25_20-00-40_260595134347_rgbf000049-resize_0-target.png,1000,4.105,12,3076,1001,feet,jsons/v1_VE1000_randls_53_rotated.json,642102,770879,47,Man
157,599523,DepthScenes,duration_manipulation_targetAtFixation,jsons/v1_VE1000_randls_53_rotated.json,http://54.235.29.9/FacialAge/BNav_EC2/DepthDuration/v2_depth_duration_MTurk/v2_DepthDuration_HTML.html#157,157,1920,983,1920,1080,9-18-2022,12-23-29,158,depth_duration_stimuli/002039_2014-06-24_20-22-38_260595134347_rgbf000084-resize_1/002039_2014-06-24_20-22-38_260595134347_rgbf000084-resize_1-target.png,1000,4.408,10,3934,1000,feet,jsons/v1_VE1000_randls_53_rotated.json,642102,770879,47,Man
158,599523,DepthScenes,duration_manipulation_targetAtFixation,jsons/v1_VE1000_randls_53_rotated.json,http://54.235.29.9/FacialAge/BNav_EC2/DepthDuration/v2_depth_duration_MTurk/v2_DepthDuration_HTML.html#157,157,1920,983,1920,1080,9-18-2022,12-23-29,159,depth_duration_stimuli/001094_2014-06-15_17-36-00_260595134347_rgbf000205-resize_0/001094_2014-06-15_17-36-00_260595134347_rgbf000205-resize_0-target.png,1000,4.2175,9,4952,1001,feet,jsons/v1_VE1000_randls_53_rotated.json,642102,770879,47,Man
159,599523,DepthScenes,duration_manipulation_targetAtFixation,jsons/v1_VE1000_randls_53_rotated.json,http://54.235.29.9/FacialAge/BNav_EC2/DepthDuration/v2_depth_duration_MTurk/v2_DepthDuration_HTML.html#157,157,1920,983,1920,1080,9-18-2022,12-23-29,160,depth_duration_stimuli/000692_2014-06-08_13-09-42_260595134347_rgbf000199-resize_2/000692_2014-06-08_13-09-42_260595134347_rgbf000199-resize_2-target.png,1000,3.661,9,3083,998,feet,jsons/v1_VE1000_randls_53_rotated.json,642102,770879,47,Man
160,599523,DepthScenes,duration_manipulation_targetAtFixation,jsons/v1_VE1000_randls_53_rotated.json,http://54.235.29.9/FacialAge/BNav_EC2/DepthDuration/v2_depth_duration_MTurk/v2_DepthDuration_HTML.html#157,157,1920,983,1920,1080,9-18-2022,12-23-29,161,depth_duration_stimuli/002953_2014-06-08_17-32-18_094959634447_rgbf000059-resize_5/002953_2014-06-08_17-32-18_094959634447_rgbf000059-resize_5-target.png,1000,1.551,3,2844,1001,feet,jsons/v1_VE1000_randls_53_rotated.json,642102,770879,47,Man
161,599523,DepthScenes,duration_manipulation_targetAtFixation,jsons/v1_VE1000_randls_53_rotated.json,http://54.235.29.9/FacialAge/BNav_EC2/DepthDuration/v2_depth_duration_MTurk/v2_DepthDuration_HTML.html#157,157,1920,983,1920,1080,9-18-2022,12-23-29,162,depth_duration_stimuli/000878_2014-06-08_22-52-45_260595134347_rgbf000045-resize_2/000878_2014-06-08_22-52-45_260595134347_rgbf000045-resize_2-target.png,1000,2.092,5,3241,1000,feet,jsons/v1_VE1000_randls_53_rotated.json,642102,770879,47,Man
162,599523,DepthScenes,duration_manipulation_targetAtFixation,jsons/v1_VE1000_randls_53_rotated.json,http://54.235.29.9/FacialAge/BNav_EC2/DepthDuration/v2_depth_duration_MTurk/v2_DepthDuration_HTML.html#157,157,1920,983,1920,1080,9-18-2022,12-23-29,163,depth_duration_stimuli/003495_2014-05-21_16-01-51_094959634447_rgbf000100-resize_3/003495_2014-05-21_16-01-51_094959634447_rgbf000100-resize_3-target.png,1000,1.6255,4,2626,999,feet,jsons/v1_VE1000_randls_53_rotated.json,642102,770879,47,Man
163,599523,DepthScenes,duration_manipulation_targetAtFixation,jsons/v1_VE1000_randls_53_rotated.json,http://54.235.29.9/FacialAge/BNav_EC2/DepthDuration/v2_depth_duration_MTurk/v2_DepthDuration_HTML.html#157,157,1920,983,1920,1080,9-18-2022,12-23-29,164,depth_duration_stimuli/001244_2014-06-17_16-47-45_260595134347_rgbf000030-resize_4/001244_2014-06-17_16-47-45_260595134347_rgbf000030-resize_4-target.png,1000,2.0425,4,2561,1000,feet,jsons/v1_VE1000_randls_53_rotated.json,642102,770879,47,Man
