,subjID,experimentName,versionName,sequenceName,url,selected_row,windowWidth,windowHeight,screenWidth,screenHeight,startDate,startTime,trial,stimulus,duration,actual_depth,depth_estimate,trial_RT,log_sceneDuration,unitSelection,seq_filepath,experimentTime,totalTime,age,gender
0,601968,DepthScenes,duration_manipulation_targetAtFixation,jsons/VE125_randls_51.json,http://54.235.29.9/FacialAge/BNav_EC2/DepthDuration/v2_depth_duration_MTurk/v2_DepthDuration_HTML.html#324,324,1366,625,1366,768,9-4-2022,10-14-55,1,depth_duration_stimuli/001810_2014-06-26_20-51-35_260595134347_rgbf000040-resize_3/001810_2014-06-26_20-51-35_260595134347_rgbf000040-resize_3-target.png,125,2.2525,1,6766,121,meters,jsons/VE125_randls_51.json,769498,1024940,61,Man
1,601968,DepthScenes,duration_manipulation_targetAtFixation,jsons/VE125_randls_51.json,http://54.235.29.9/FacialAge/BNav_EC2/DepthDuration/v2_depth_duration_MTurk/v2_DepthDuration_HTML.html#324,324,1366,625,1366,768,9-4-2022,10-14-55,2,depth_duration_stimuli/003010_2014-06-15_12-54-35_094959634447_rgbf000112-resize_0/003010_2014-06-15_12-54-35_094959634447_rgbf000112-resize_0-target.png,125,3.1185,1,4186,120,meters,jsons/VE125_randls_51.json,769498,1024940,61,Man
2,601968,DepthScenes,duration_manipulation_targetAtFixation,jsons/VE125_randls_51.json,http://54.235.29.9/FacialAge/BNav_EC2/DepthDuration/v2_depth_duration_MTurk/v2_DepthDuration_HTML.html#324,324,1366,625,1366,768,9-4-2022,10-14-55,3,depth_duration_stimuli/001059_2014-06-08_21-53-27_260595134347_rgbf000061-resize_4/001059_2014-06-08_21-53-27_260595134347_rgbf000061-resize_4-target.png,125,2.4185,2,2384,129,meters,jsons/VE125_randls_51.json,769498,1024940,61,Man
3,601968,DepthScenes,duration_manipulation_targetAtFixation,jsons/VE125_randls_51.json,http://54.235.29.9/FacialAge/BNav_EC2/DepthDuration/v2_depth_duration_MTurk/v2_DepthDuration_HTML.html#324,324,1366,625,1366,768,9-4-2022,10-14-55,4,depth_duration_stimuli/001032_2014-06-08_13-23-17_260595134347_rgbf000021-resize_3/001032_2014-06-08_13-23-17_260595134347_rgbf000021-resize_3-target.png,125,3.2725,2,3697,126,meters,jsons/VE125_randls_51.json,769498,1024940,61,Man
4,601968,DepthScenes,duration_manipulation_targetAtFixation,jsons/VE125_randls_51.json,http://54.235.29.9/FacialAge/BNav_EC2/DepthDuration/v2_depth_duration_MTurk/v2_DepthDuration_HTML.html#324,324,1366,625,1366,768,9-4-2022,10-14-55,5,depth_duration_stimuli/002043_2014-06-24_20-29-38_260595134347_rgbf000039-resize_4/002043_2014-06-24_20-29-38_260595134347_rgbf000039-resize_4-target.png,125,2.8435,2,6236,127,meters,jsons/VE125_randls_51.json,769498,1024940,61,Man
5,601968,DepthScenes,duration_manipulation_targetAtFixation,jsons/VE125_randls_51.json,http://54.235.29.9/FacialAge/BNav_EC2/DepthDuration/v2_depth_duration_MTurk/v2_DepthDuration_HTML.html#324,324,1366,625,1366,768,9-4-2022,10-14-55,6,depth_duration_stimuli/003048_2014-06-15_13-49-43_094959634447_rgbf000150-resize_1/003048_2014-06-15_13-49-43_094959634447_rgbf000150-resize_1-target.png,125,4.0035,3,3717,127,meters,jsons/VE125_randls_51.json,769498,1024940,61,Man
6,601968,DepthScenes,duration_manipulation_targetAtFixation,jsons/VE125_randls_51.json,http://54.235.29.9/FacialAge/BNav_EC2/DepthDuration/v2_depth_duration_MTurk/v2_DepthDuration_HTML.html#324,324,1366,625,1366,768,9-4-2022,10-14-55,7,depth_duration_stimuli/000486_2014-06-09_20-47-20_260595134347_rgbf000143-resize_2/000486_2014-06-09_20-47-20_260595134347_rgbf000143-resize_2-target.png,125,4.8325,3,4011,117,meters,jsons/VE125_randls_51.json,769498,1024940,61,Man
7,601968,DepthScenes,duration_manipulation_targetAtFixation,jsons/VE125_randls_51.json,http://54.235.29.9/FacialAge/BNav_EC2/DepthDuration/v2_depth_duration_MTurk/v2_DepthDuration_HTML.html#324,324,1366,625,1366,768,9-4-2022,10-14-55,8,depth_duration_stimuli/003083_2014-06-15_15-21-03_094959634447_rgbf000063-resize_1/003083_2014-06-15_15-21-03_094959634447_rgbf000063-resize_1-target.png,125,4.1405,3,3188,129,meters,jsons/VE125_randls_51.json,769498,1024940,61,Man
8,601968,DepthScenes,duration_manipulation_targetAtFixation,jsons/VE125_randls_51.json,http://54.235.29.9/FacialAge/BNav_EC2/DepthDuration/v2_depth_duration_MTurk/v2_DepthDuration_HTML.html#324,324,1366,625,1366,768,9-4-2022,10-14-55,9,depth_duration_stimuli/001133_2014-06-17_14-49-16_260595134347_rgbf000100-resize_0/001133_2014-06-17_14-49-16_260595134347_rgbf000100-resize_0-target.png,125,4.2115,2,10249,117,meters,jsons/VE125_randls_51.json,769498,1024940,61,Man
9,601968,DepthScenes,duration_manipulation_targetAtFixation,jsons/VE125_randls_51.json,http://54.235.29.9/FacialAge/BNav_EC2/DepthDuration/v2_depth_duration_MTurk/v2_DepthDuration_HTML.html#324,324,1366,625,1366,768,9-4-2022,10-14-55,10,depth_duration_stimuli/001132_2014-06-17_14-48-54_260595134347_rgbf000100-resize_2/001132_2014-06-17_14-48-54_260595134347_rgbf000100-resize_2-target.png,125,3.753,1,3275,111,meters,jsons/VE125_randls_51.json,769498,1024940,61,Man
10,601968,DepthScenes,duration_manipulation_targetAtFixation,jsons/VE125_randls_51.json,http://54.235.29.9/FacialAge/BNav_EC2/DepthDuration/v2_depth_duration_MTurk/v2_DepthDuration_HTML.html#324,324,1366,625,1366,768,9-4-2022,10-14-55,11,depth_duration_stimuli/000906_2014-06-08_13-35-43_260595134347_rgbf000155-resize_1/000906_2014-06-08_13-35-43_260595134347_rgbf000155-resize_1-target.png,125,2.8489999999999998,2,2961,125,meters,jsons/VE125_randls_51.json,769498,1024940,61,Man
11,601968,DepthScenes,duration_manipulation_targetAtFixation,jsons/VE125_randls_51.json,http://54.235.29.9/FacialAge/BNav_EC2/DepthDuration/v2_depth_duration_MTurk/v2_DepthDuration_HTML.html#324,324,1366,625,1366,768,9-4-2022,10-14-55,12,depth_duration_stimuli/002805_2014-06-22_19-54-03_094959634447_rgbf000079-resize_1/002805_2014-06-22_19-54-03_094959634447_rgbf000079-resize_1-target.png,125,3.1439999999999997,2,2906,129,meters,jsons/VE125_randls_51.json,769498,1024940,61,Man
12,601968,DepthScenes,duration_manipulation_targetAtFixation,jsons/VE125_randls_51.json,http://54.235.29.9/FacialAge/BNav_EC2/DepthDuration/v2_depth_duration_MTurk/v2_DepthDuration_HTML.html#324,324,1366,625,1366,768,9-4-2022,10-14-55,13,depth_duration_stimuli/000569_2014-06-09_22-51-47_260595134347_rgbf000141-resize_3/000569_2014-06-09_22-51-47_260595134347_rgbf000141-resize-original.jpg,125,4.512,0,3006,124,meters,jsons/VE125_randls_51.json,769498,1024940,61,Man
13,601968,DepthScenes,duration_manipulation_targetAtFixation,jsons/VE125_randls_51.json,http://54.235.29.9/FacialAge/BNav_EC2/DepthDuration/v2_depth_duration_MTurk/v2_DepthDuration_HTML.html#324,324,1366,625,1366,768,9-4-2022,10-14-55,14,depth_duration_stimuli/002549_2014-06-24_13-41-39_094959634447_rgbf000022-resize_3/002549_2014-06-24_13-41-39_094959634447_rgbf000022-resize_3-target.png,125,1.476,2,3418,114,meters,jsons/VE125_randls_51.json,769498,1024940,61,Man
14,601968,DepthScenes,duration_manipulation_targetAtFixation,jsons/VE125_randls_51.json,http://54.235.29.9/FacialAge/BNav_EC2/DepthDuration/v2_depth_duration_MTurk/v2_DepthDuration_HTML.html#324,324,1366,625,1366,768,9-4-2022,10-14-55,15,depth_duration_stimuli/002750_2014-06-22_19-08-03_094959634447_rgbf000094-resize_4/002750_2014-06-22_19-08-03_094959634447_rgbf000094-resize_4-target.png,125,2.354,2,3319,111,meters,jsons/VE125_randls_51.json,769498,1024940,61,Man
15,601968,DepthScenes,duration_manipulation_targetAtFixation,jsons/VE125_randls_51.json,http://54.235.29.9/FacialAge/BNav_EC2/DepthDuration/v2_depth_duration_MTurk/v2_DepthDuration_HTML.html#324,324,1366,625,1366,768,9-4-2022,10-14-55,16,depth_duration_stimuli/000436_2014-06-09_22-25-11_260595134347_rgbf000137-resize_1/000436_2014-06-09_22-25-11_260595134347_rgbf000137-resize_1-target.png,125,4.0705,3,4879,110,meters,jsons/VE125_randls_51.json,769498,1024940,61,Man
16,601968,DepthScenes,duration_manipulation_targetAtFixation,jsons/VE125_randls_51.json,http://54.235.29.9/FacialAge/BNav_EC2/DepthDuration/v2_depth_duration_MTurk/v2_DepthDuration_HTML.html#324,324,1366,625,1366,768,9-4-2022,10-14-55,17,depth_duration_stimuli/002444_2014-06-28_20-32-08_260595134347_rgbf000027-resize_0/002444_2014-06-28_20-32-08_260595134347_rgbf000027-resize_0-target.png,125,4.388999999999999,2,2880,124,meters,jsons/VE125_randls_51.json,769498,1024940,61,Man
17,601968,DepthScenes,duration_manipulation_targetAtFixation,jsons/VE125_randls_51.json,http://54.235.29.9/FacialAge/BNav_EC2/DepthDuration/v2_depth_duration_MTurk/v2_DepthDuration_HTML.html#324,324,1366,625,1366,768,9-4-2022,10-14-55,18,depth_duration_stimuli/002445_2014-06-28_20-32-16_260595134347_rgbf000029-resize_4/002445_2014-06-28_20-32-16_260595134347_rgbf000029-resize_4-target.png,125,2.5315,2,3088,123,meters,jsons/VE125_randls_51.json,769498,1024940,61,Man
18,601968,DepthScenes,duration_manipulation_targetAtFixation,jsons/VE125_randls_51.json,http://54.235.29.9/FacialAge/BNav_EC2/DepthDuration/v2_depth_duration_MTurk/v2_DepthDuration_HTML.html#324,324,1366,625,1366,768,9-4-2022,10-14-55,19,depth_duration_stimuli/000780_2014-06-08_22-28-29_260595134347_rgbf000126-resize_1/000780_2014-06-08_22-28-29_260595134347_rgbf000126-resize_1-target.png,125,3.3825,3,3532,126,meters,jsons/VE125_randls_51.json,769498,1024940,61,Man
19,601968,DepthScenes,duration_manipulation_targetAtFixation,jsons/VE125_randls_51.json,http://54.235.29.9/FacialAge/BNav_EC2/DepthDuration/v2_depth_duration_MTurk/v2_DepthDuration_HTML.html#324,324,1366,625,1366,768,9-4-2022,10-14-55,20,depth_duration_stimuli/001175_2014-06-17_15-45-55_260595134347_rgbf000129-resize_4/001175_2014-06-17_15-45-55_260595134347_rgbf000129-resize_4-target.png,125,4.255,3,2969,125,meters,jsons/VE125_randls_51.json,769498,1024940,61,Man
20,601968,DepthScenes,duration_manipulation_targetAtFixation,jsons/VE125_randls_51.json,http://54.235.29.9/FacialAge/BNav_EC2/DepthDuration/v2_depth_duration_MTurk/v2_DepthDuration_HTML.html#324,324,1366,625,1366,768,9-4-2022,10-14-55,21,depth_duration_stimuli/003490_2014-05-21_15-50-11_094959634447_rgbf000101-resize_3/003490_2014-05-21_15-50-11_094959634447_rgbf000101-resize_3-target.png,125,3.6445,2,3009,138,meters,jsons/VE125_randls_51.json,769498,1024940,61,Man
21,601968,DepthScenes,duration_manipulation_targetAtFixation,jsons/VE125_randls_51.json,http://54.235.29.9/FacialAge/BNav_EC2/DepthDuration/v2_depth_duration_MTurk/v2_DepthDuration_HTML.html#324,324,1366,625,1366,768,9-4-2022,10-14-55,22,depth_duration_stimuli/001570_2014-06-20_17-21-09_260595134347_rgbf000135-resize_4/001570_2014-06-20_17-21-09_260595134347_rgbf000135-resize_4-target.png,125,4.467,2,4871,115,meters,jsons/VE125_randls_51.json,769498,1024940,61,Man
22,601968,DepthScenes,duration_manipulation_targetAtFixation,jsons/VE125_randls_51.json,http://54.235.29.9/FacialAge/BNav_EC2/DepthDuration/v2_depth_duration_MTurk/v2_DepthDuration_HTML.html#324,324,1366,625,1366,768,9-4-2022,10-14-55,23,depth_duration_stimuli/001392_2014-06-19_16-07-59_260595134347_rgbf000046-resize_1/001392_2014-06-19_16-07-59_260595134347_rgbf000046-resize_1-target.png,125,4.135,3,4453,111,meters,jsons/VE125_randls_51.json,769498,1024940,61,Man
23,601968,DepthScenes,duration_manipulation_targetAtFixation,jsons/VE125_randls_51.json,http://54.235.29.9/FacialAge/BNav_EC2/DepthDuration/v2_depth_duration_MTurk/v2_DepthDuration_HTML.html#324,324,1366,625,1366,768,9-4-2022,10-14-55,24,depth_duration_stimuli/000368_2014-06-09_15-53-01_260595134347_rgbf000155-resize_2/000368_2014-06-09_15-53-01_260595134347_rgbf000155-resize_2-target.png,125,2.4859999999999998,2,3027,117,meters,jsons/VE125_randls_51.json,769498,1024940,61,Man
24,601968,DepthScenes,duration_manipulation_targetAtFixation,jsons/VE125_randls_51.json,http://54.235.29.9/FacialAge/BNav_EC2/DepthDuration/v2_depth_duration_MTurk/v2_DepthDuration_HTML.html#324,324,1366,625,1366,768,9-4-2022,10-14-55,25,depth_duration_stimuli/002678_2014-06-13_16-15-32_094959634447_rgbf000151-resize_6/002678_2014-06-13_16-15-32_094959634447_rgbf000151-resize_6-target.png,125,2.1830000000000003,2,3776,125,meters,jsons/VE125_randls_51.json,769498,1024940,61,Man
25,601968,DepthScenes,duration_manipulation_targetAtFixation,jsons/VE125_randls_51.json,http://54.235.29.9/FacialAge/BNav_EC2/DepthDuration/v2_depth_duration_MTurk/v2_DepthDuration_HTML.html#324,324,1366,625,1366,768,9-4-2022,10-14-55,26,depth_duration_stimuli/002988_2014-06-15_12-24-20_094959634447_rgbf000150-resize_1/002988_2014-06-15_12-24-20_094959634447_rgbf000150-resize_1-target.png,125,4.7669999999999995,3,2661,125,meters,jsons/VE125_randls_51.json,769498,1024940,61,Man
26,601968,DepthScenes,duration_manipulation_targetAtFixation,jsons/VE125_randls_51.json,http://54.235.29.9/FacialAge/BNav_EC2/DepthDuration/v2_depth_duration_MTurk/v2_DepthDuration_HTML.html#324,324,1366,625,1366,768,9-4-2022,10-14-55,27,depth_duration_stimuli/001052_2014-06-08_18-24-54_260595134347_rgbf000130-resize_1/001052_2014-06-08_18-24-54_260595134347_rgbf000130-resize_1-target.png,125,4.1045,3,3209,124,meters,jsons/VE125_randls_51.json,769498,1024940,61,Man
27,601968,DepthScenes,duration_manipulation_targetAtFixation,jsons/VE125_randls_51.json,http://54.235.29.9/FacialAge/BNav_EC2/DepthDuration/v2_depth_duration_MTurk/v2_DepthDuration_HTML.html#324,324,1366,625,1366,768,9-4-2022,10-14-55,28,depth_duration_stimuli/002375_2014-06-28_20-13-44_260595134347_rgbf000032-resize_1/002375_2014-06-28_20-13-44_260595134347_rgbf000032-resize_1-target.png,125,4.0175,3,4058,126,meters,jsons/VE125_randls_51.json,769498,1024940,61,Man
28,601968,DepthScenes,duration_manipulation_targetAtFixation,jsons/VE125_randls_51.json,http://54.235.29.9/FacialAge/BNav_EC2/DepthDuration/v2_depth_duration_MTurk/v2_DepthDuration_HTML.html#324,324,1366,625,1366,768,9-4-2022,10-14-55,29,depth_duration_stimuli/002657_2014-06-13_15-29-54_094959634447_rgbf000150-resize_1/002657_2014-06-13_15-29-54_094959634447_rgbf000150-resize_1-target.png,125,4.919,2,10089,123,meters,jsons/VE125_randls_51.json,769498,1024940,61,Man
29,601968,DepthScenes,duration_manipulation_targetAtFixation,jsons/VE125_randls_51.json,http://54.235.29.9/FacialAge/BNav_EC2/DepthDuration/v2_depth_duration_MTurk/v2_DepthDuration_HTML.html#324,324,1366,625,1366,768,9-4-2022,10-14-55,30,depth_duration_stimuli/000375_2014-06-08_11-17-29_260595134347_rgbf000133-resize_2/000375_2014-06-08_11-17-29_260595134347_rgbf000133-resize-original.jpg,125,4.718,0,5440,125,meters,jsons/VE125_randls_51.json,769498,1024940,61,Man
30,601968,DepthScenes,duration_manipulation_targetAtFixation,jsons/VE125_randls_51.json,http://54.235.29.9/FacialAge/BNav_EC2/DepthDuration/v2_depth_duration_MTurk/v2_DepthDuration_HTML.html#324,324,1366,625,1366,768,9-4-2022,10-14-55,31,depth_duration_stimuli/000773_2014-06-08_22-24-54_260595134347_rgbf000093-resize_1/000773_2014-06-08_22-24-54_260595134347_rgbf000093-resize_1-target.png,125,4.973,1,3497,119,meters,jsons/VE125_randls_51.json,769498,1024940,61,Man
31,601968,DepthScenes,duration_manipulation_targetAtFixation,jsons/VE125_randls_51.json,http://54.235.29.9/FacialAge/BNav_EC2/DepthDuration/v2_depth_duration_MTurk/v2_DepthDuration_HTML.html#324,324,1366,625,1366,768,9-4-2022,10-14-55,32,depth_duration_stimuli/002414_2014-06-28_20-24-58_260595134347_rgbf000067-resize_4/002414_2014-06-28_20-24-58_260595134347_rgbf000067-resize_4-target.png,125,4.363,2,4858,122,meters,jsons/VE125_randls_51.json,769498,1024940,61,Man
32,601968,DepthScenes,duration_manipulation_targetAtFixation,jsons/VE125_randls_51.json,http://54.235.29.9/FacialAge/BNav_EC2/DepthDuration/v2_depth_duration_MTurk/v2_DepthDuration_HTML.html#324,324,1366,625,1366,768,9-4-2022,10-14-55,33,depth_duration_stimuli/000506_2014-06-08_23-21-00_260595134347_rgbf000070-resize_7/000506_2014-06-08_23-21-00_260595134347_rgbf000070-resize_7-target.png,125,4.0585,3,3558,118,meters,jsons/VE125_randls_51.json,769498,1024940,61,Man
33,601968,DepthScenes,duration_manipulation_targetAtFixation,jsons/VE125_randls_51.json,http://54.235.29.9/FacialAge/BNav_EC2/DepthDuration/v2_depth_duration_MTurk/v2_DepthDuration_HTML.html#324,324,1366,625,1366,768,9-4-2022,10-14-55,34,depth_duration_stimuli/003079_2014-06-15_15-18-20_094959634447_rgbf000152-resize_8/003079_2014-06-15_15-18-20_094959634447_rgbf000152-resize_8-target.png,125,2.8775,2,3403,125,meters,jsons/VE125_randls_51.json,769498,1024940,61,Man
34,601968,DepthScenes,duration_manipulation_targetAtFixation,jsons/VE125_randls_51.json,http://54.235.29.9/FacialAge/BNav_EC2/DepthDuration/v2_depth_duration_MTurk/v2_DepthDuration_HTML.html#324,324,1366,625,1366,768,9-4-2022,10-14-55,35,depth_duration_stimuli/001011_2014-06-08_23-18-54_260595134347_rgbf000044-resize_4/001011_2014-06-08_23-18-54_260595134347_rgbf000044-resize_4-target.png,125,2.4730000000000003,2,4844,116,meters,jsons/VE125_randls_51.json,769498,1024940,61,Man
35,601968,DepthScenes,duration_manipulation_targetAtFixation,jsons/VE125_randls_51.json,http://54.235.29.9/FacialAge/BNav_EC2/DepthDuration/v2_depth_duration_MTurk/v2_DepthDuration_HTML.html#324,324,1366,625,1366,768,9-4-2022,10-14-55,36,depth_duration_stimuli/002875_2014-06-01_15-19-00_094959634447_rgbf000151-resize_1/002875_2014-06-01_15-19-00_094959634447_rgbf000151-resize_1-target.png,125,1.9675,1,3545,122,meters,jsons/VE125_randls_51.json,769498,1024940,61,Man
36,601968,DepthScenes,duration_manipulation_targetAtFixation,jsons/VE125_randls_51.json,http://54.235.29.9/FacialAge/BNav_EC2/DepthDuration/v2_depth_duration_MTurk/v2_DepthDuration_HTML.html#324,324,1366,625,1366,768,9-4-2022,10-14-55,37,depth_duration_stimuli/001029_2014-06-08_13-17-57_260595134347_rgbf000065-resize_1/001029_2014-06-08_13-17-57_260595134347_rgbf000065-resize_1-target.png,125,3.0835,2,3888,119,meters,jsons/VE125_randls_51.json,769498,1024940,61,Man
37,601968,DepthScenes,duration_manipulation_targetAtFixation,jsons/VE125_randls_51.json,http://54.235.29.9/FacialAge/BNav_EC2/DepthDuration/v2_depth_duration_MTurk/v2_DepthDuration_HTML.html#324,324,1366,625,1366,768,9-4-2022,10-14-55,38,depth_duration_stimuli/000677_2014-06-08_23-10-32_260595134347_rgbf000158-resize_6/000677_2014-06-08_23-10-32_260595134347_rgbf000158-resize_6-target.png,125,3.556,0,3347,133,meters,jsons/VE125_randls_51.json,769498,1024940,61,Man
38,601968,DepthScenes,duration_manipulation_targetAtFixation,jsons/VE125_randls_51.json,http://54.235.29.9/FacialAge/BNav_EC2/DepthDuration/v2_depth_duration_MTurk/v2_DepthDuration_HTML.html#324,324,1366,625,1366,768,9-4-2022,10-14-55,39,depth_duration_stimuli/000009_2014-05-26_14-32-05_260595134347_rgbf000034-resize_3/000009_2014-05-26_14-32-05_260595134347_rgbf000034-resize_3-target.png,125,3.8715,3,3720,115,meters,jsons/VE125_randls_51.json,769498,1024940,61,Man
39,601968,DepthScenes,duration_manipulation_targetAtFixation,jsons/VE125_randls_51.json,http://54.235.29.9/FacialAge/BNav_EC2/DepthDuration/v2_depth_duration_MTurk/v2_DepthDuration_HTML.html#324,324,1366,625,1366,768,9-4-2022,10-14-55,40,depth_duration_stimuli/001828_2014-06-26_21-40-03_260595134347_rgbf000024-resize_0/001828_2014-06-26_21-40-03_260595134347_rgbf000024-resize_0-target.png,125,4.8260000000000005,2,3741,117,meters,jsons/VE125_randls_51.json,769498,1024940,61,Man
40,601968,DepthScenes,duration_manipulation_targetAtFixation,jsons/VE125_randls_51.json,http://54.235.29.9/FacialAge/BNav_EC2/DepthDuration/v2_depth_duration_MTurk/v2_DepthDuration_HTML.html#324,324,1366,625,1366,768,9-4-2022,10-14-55,41,depth_duration_stimuli/000736_2014-06-08_18-24-15_260595134347_rgbf000206-resize_3/000736_2014-06-08_18-24-15_260595134347_rgbf000206-resize_3-target.png,125,3.515,2,3827,127,meters,jsons/VE125_randls_51.json,769498,1024940,61,Man
41,601968,DepthScenes,duration_manipulation_targetAtFixation,jsons/VE125_randls_51.json,http://54.235.29.9/FacialAge/BNav_EC2/DepthDuration/v2_depth_duration_MTurk/v2_DepthDuration_HTML.html#324,324,1366,625,1366,768,9-4-2022,10-14-55,42,depth_duration_stimuli/000137_2014-05-20_17-04-49_260595134347_rgbf000120-resize_1/000137_2014-05-20_17-04-49_260595134347_rgbf000120-resize_1-target.png,125,3.786,3,3727,125,meters,jsons/VE125_randls_51.json,769498,1024940,61,Man
42,601968,DepthScenes,duration_manipulation_targetAtFixation,jsons/VE125_randls_51.json,http://54.235.29.9/FacialAge/BNav_EC2/DepthDuration/v2_depth_duration_MTurk/v2_DepthDuration_HTML.html#324,324,1366,625,1366,768,9-4-2022,10-14-55,43,depth_duration_stimuli/002118_2014-06-25_20-32-08_260595134347_rgbf000078-resize_1/002118_2014-06-25_20-32-08_260595134347_rgbf000078-resize_1-target.png,125,2.6460000000000004,1,3291,116,meters,jsons/VE125_randls_51.json,769498,1024940,61,Man
43,601968,DepthScenes,duration_manipulation_targetAtFixation,jsons/VE125_randls_51.json,http://54.235.29.9/FacialAge/BNav_EC2/DepthDuration/v2_depth_duration_MTurk/v2_DepthDuration_HTML.html#324,324,1366,625,1366,768,9-4-2022,10-14-55,44,depth_duration_stimuli/001516_2014-06-20_16-25-09_260595134347_rgbf000076-resize_2/001516_2014-06-20_16-25-09_260595134347_rgbf000076-resize_2-target.png,125,1.7445,1,3118,119,meters,jsons/VE125_randls_51.json,769498,1024940,61,Man
44,601968,DepthScenes,duration_manipulation_targetAtFixation,jsons/VE125_randls_51.json,http://54.235.29.9/FacialAge/BNav_EC2/DepthDuration/v2_depth_duration_MTurk/v2_DepthDuration_HTML.html#324,324,1366,625,1366,768,9-4-2022,10-14-55,45,depth_duration_stimuli/000787_2014-06-08_22-33-53_260595134347_rgbf000175-resize_1/000787_2014-06-08_22-33-53_260595134347_rgbf000175-resize-original.jpg,125,4.784,2,4326,123,meters,jsons/VE125_randls_51.json,769498,1024940,61,Man
45,601968,DepthScenes,duration_manipulation_targetAtFixation,jsons/VE125_randls_51.json,http://54.235.29.9/FacialAge/BNav_EC2/DepthDuration/v2_depth_duration_MTurk/v2_DepthDuration_HTML.html#324,324,1366,625,1366,768,9-4-2022,10-14-55,46,depth_duration_stimuli/001244_2014-06-17_16-47-45_260595134347_rgbf000030-resize_4/001244_2014-06-17_16-47-45_260595134347_rgbf000030-resize_4-target.png,125,2.0425,2,4515,141,meters,jsons/VE125_randls_51.json,769498,1024940,61,Man
46,601968,DepthScenes,duration_manipulation_targetAtFixation,jsons/VE125_randls_51.json,http://54.235.29.9/FacialAge/BNav_EC2/DepthDuration/v2_depth_duration_MTurk/v2_DepthDuration_HTML.html#324,324,1366,625,1366,768,9-4-2022,10-14-55,47,depth_duration_stimuli/003495_2014-05-21_16-01-51_094959634447_rgbf000100-resize_3/003495_2014-05-21_16-01-51_094959634447_rgbf000100-resize_3-target.png,125,1.6255,1,3093,125,meters,jsons/VE125_randls_51.json,769498,1024940,61,Man
47,601968,DepthScenes,duration_manipulation_targetAtFixation,jsons/VE125_randls_51.json,http://54.235.29.9/FacialAge/BNav_EC2/DepthDuration/v2_depth_duration_MTurk/v2_DepthDuration_HTML.html#324,324,1366,625,1366,768,9-4-2022,10-14-55,48,depth_duration_stimuli/003492_2014-05-21_15-50-55_094959634447_rgbf000828-resize_1/003492_2014-05-21_15-50-55_094959634447_rgbf000828-resize_1-target.png,125,4.06875,2,3921,110,meters,jsons/VE125_randls_51.json,769498,1024940,61,Man
48,601968,DepthScenes,duration_manipulation_targetAtFixation,jsons/VE125_randls_51.json,http://54.235.29.9/FacialAge/BNav_EC2/DepthDuration/v2_depth_duration_MTurk/v2_DepthDuration_HTML.html#324,324,1366,625,1366,768,9-4-2022,10-14-55,49,depth_duration_stimuli/002568_2014-06-24_13-59-21_094959634447_rgbf000062-resize_4/002568_2014-06-24_13-59-21_094959634447_rgbf000062-resize_4-target.png,125,3.015,1,3992,113,meters,jsons/VE125_randls_51.json,769498,1024940,61,Man
49,601968,DepthScenes,duration_manipulation_targetAtFixation,jsons/VE125_randls_51.json,http://54.235.29.9/FacialAge/BNav_EC2/DepthDuration/v2_depth_duration_MTurk/v2_DepthDuration_HTML.html#324,324,1366,625,1366,768,9-4-2022,10-14-55,50,depth_duration_stimuli/002213_2014-06-28_18-37-58_260595134347_rgbf000055-resize_1/002213_2014-06-28_18-37-58_260595134347_rgbf000055-resize_1-target.png,125,3.62,3,3912,125,meters,jsons/VE125_randls_51.json,769498,1024940,61,Man
50,601968,DepthScenes,duration_manipulation_targetAtFixation,jsons/VE125_randls_51.json,http://54.235.29.9/FacialAge/BNav_EC2/DepthDuration/v2_depth_duration_MTurk/v2_DepthDuration_HTML.html#324,324,1366,625,1366,768,9-4-2022,10-14-55,51,depth_duration_stimuli/000691_2014-06-08_13-08-50_260595134347_rgbf000132-resize_3/000691_2014-06-08_13-08-50_260595134347_rgbf000132-resize_3-target.png,125,4.1530000000000005,2,4787,130,meters,jsons/VE125_randls_51.json,769498,1024940,61,Man
51,601968,DepthScenes,duration_manipulation_targetAtFixation,jsons/VE125_randls_51.json,http://54.235.29.9/FacialAge/BNav_EC2/DepthDuration/v2_depth_duration_MTurk/v2_DepthDuration_HTML.html#324,324,1366,625,1366,768,9-4-2022,10-14-55,52,depth_duration_stimuli/001806_2014-06-26_20-50-20_260595134347_rgbf000091-resize_1/001806_2014-06-26_20-50-20_260595134347_rgbf000091-resize_1-target.png,125,2.7305,3,3891,126,meters,jsons/VE125_randls_51.json,769498,1024940,61,Man
52,601968,DepthScenes,duration_manipulation_targetAtFixation,jsons/VE125_randls_51.json,http://54.235.29.9/FacialAge/BNav_EC2/DepthDuration/v2_depth_duration_MTurk/v2_DepthDuration_HTML.html#324,324,1366,625,1366,768,9-4-2022,10-14-55,53,depth_duration_stimuli/001617_2014-06-20_11-35-32_260595134347_rgbf000066-resize_1/001617_2014-06-20_11-35-32_260595134347_rgbf000066-resize_1-target.png,125,3.7910000000000004,2,3462,118,meters,jsons/VE125_randls_51.json,769498,1024940,61,Man
53,601968,DepthScenes,duration_manipulation_targetAtFixation,jsons/VE125_randls_51.json,http://54.235.29.9/FacialAge/BNav_EC2/DepthDuration/v2_depth_duration_MTurk/v2_DepthDuration_HTML.html#324,324,1366,625,1366,768,9-4-2022,10-14-55,54,depth_duration_stimuli/002964_2014-06-08_17-46-11_094959634447_rgbf000091-resize_4/002964_2014-06-08_17-46-11_094959634447_rgbf000091-resize_4-target.png,125,1.6909999999999998,2,3678,127,meters,jsons/VE125_randls_51.json,769498,1024940,61,Man
54,601968,DepthScenes,duration_manipulation_targetAtFixation,jsons/VE125_randls_51.json,http://54.235.29.9/FacialAge/BNav_EC2/DepthDuration/v2_depth_duration_MTurk/v2_DepthDuration_HTML.html#324,324,1366,625,1366,768,9-4-2022,10-14-55,55,depth_duration_stimuli/002136_2014-06-25_21-18-03_260595134347_rgbf000109-resize_3/002136_2014-06-25_21-18-03_260595134347_rgbf000109-resize_3-target.png,125,1.9569999999999999,2,3233,123,meters,jsons/VE125_randls_51.json,769498,1024940,61,Man
55,601968,DepthScenes,duration_manipulation_targetAtFixation,jsons/VE125_randls_51.json,http://54.235.29.9/FacialAge/BNav_EC2/DepthDuration/v2_depth_duration_MTurk/v2_DepthDuration_HTML.html#324,324,1366,625,1366,768,9-4-2022,10-14-55,56,depth_duration_stimuli/000917_2014-06-09_22-45-29_260595134347_rgbf000149-resize_3/000917_2014-06-09_22-45-29_260595134347_rgbf000149-resize_3-target.png,125,4.1865,1,3271,120,meters,jsons/VE125_randls_51.json,769498,1024940,61,Man
56,601968,DepthScenes,duration_manipulation_targetAtFixation,jsons/VE125_randls_51.json,http://54.235.29.9/FacialAge/BNav_EC2/DepthDuration/v2_depth_duration_MTurk/v2_DepthDuration_HTML.html#324,324,1366,625,1366,768,9-4-2022,10-14-55,57,depth_duration_stimuli/002323_2014-06-28_20-01-54_260595134347_rgbf000051-resize_4/002323_2014-06-28_20-01-54_260595134347_rgbf000051-resize_4-target.png,125,3.7310000000000003,2,3414,128,meters,jsons/VE125_randls_51.json,769498,1024940,61,Man
57,601968,DepthScenes,duration_manipulation_targetAtFixation,jsons/VE125_randls_51.json,http://54.235.29.9/FacialAge/BNav_EC2/DepthDuration/v2_depth_duration_MTurk/v2_DepthDuration_HTML.html#324,324,1366,625,1366,768,9-4-2022,10-14-55,58,depth_duration_stimuli/001056_2014-06-08_18-46-44_260595134347_rgbf000068-resize_0/001056_2014-06-08_18-46-44_260595134347_rgbf000068-resize_0-target.png,125,2.6625,2,3128,130,meters,jsons/VE125_randls_51.json,769498,1024940,61,Man
58,601968,DepthScenes,duration_manipulation_targetAtFixation,jsons/VE125_randls_51.json,http://54.235.29.9/FacialAge/BNav_EC2/DepthDuration/v2_depth_duration_MTurk/v2_DepthDuration_HTML.html#324,324,1366,625,1366,768,9-4-2022,10-14-55,59,depth_duration_stimuli/002199_2014-06-28_18-33-56_260595134347_rgbf000074-resize_0/002199_2014-06-28_18-33-56_260595134347_rgbf000074-resize_0-target.png,125,1.996,1,3346,82,meters,jsons/VE125_randls_51.json,769498,1024940,61,Man
59,601968,DepthScenes,duration_manipulation_targetAtFixation,jsons/VE125_randls_51.json,http://54.235.29.9/FacialAge/BNav_EC2/DepthDuration/v2_depth_duration_MTurk/v2_DepthDuration_HTML.html#324,324,1366,625,1366,768,9-4-2022,10-14-55,60,depth_duration_stimuli/000929_2014-06-09_16-33-19_260595134347_rgbf000139-resize_0/000929_2014-06-09_16-33-19_260595134347_rgbf000139-resize_0-target.png,125,2.8680000000000003,1,3067,104,meters,jsons/VE125_randls_51.json,769498,1024940,61,Man
60,601968,DepthScenes,duration_manipulation_targetAtFixation,jsons/VE125_randls_51.json,http://54.235.29.9/FacialAge/BNav_EC2/DepthDuration/v2_depth_duration_MTurk/v2_DepthDuration_HTML.html#324,324,1366,625,1366,768,9-4-2022,10-14-55,61,depth_duration_stimuli/000457_2014-06-08_16-52-43_260595134347_rgbf000199-resize_1/000457_2014-06-08_16-52-43_260595134347_rgbf000199-resize_1-target.png,125,3.6489999999999996,2,3389,125,meters,jsons/VE125_randls_51.json,769498,1024940,61,Man
61,601968,DepthScenes,duration_manipulation_targetAtFixation,jsons/VE125_randls_51.json,http://54.235.29.9/FacialAge/BNav_EC2/DepthDuration/v2_depth_duration_MTurk/v2_DepthDuration_HTML.html#324,324,1366,625,1366,768,9-4-2022,10-14-55,62,depth_duration_stimuli/000758_2014-06-08_22-05-08_260595134347_rgbf000085-resize_0/000758_2014-06-08_22-05-08_260595134347_rgbf000085-resize_0-target.png,125,3.3810000000000002,3,3383,135,meters,jsons/VE125_randls_51.json,769498,1024940,61,Man
62,601968,DepthScenes,duration_manipulation_targetAtFixation,jsons/VE125_randls_51.json,http://54.235.29.9/FacialAge/BNav_EC2/DepthDuration/v2_depth_duration_MTurk/v2_DepthDuration_HTML.html#324,324,1366,625,1366,768,9-4-2022,10-14-55,63,depth_duration_stimuli/000854_2014-06-09_19-43-13_260595134347_rgbf000066-resize_0/000854_2014-06-09_19-43-13_260595134347_rgbf000066-resize_0-target.png,125,3.068,1,3351,125,meters,jsons/VE125_randls_51.json,769498,1024940,61,Man
63,601968,DepthScenes,duration_manipulation_targetAtFixation,jsons/VE125_randls_51.json,http://54.235.29.9/FacialAge/BNav_EC2/DepthDuration/v2_depth_duration_MTurk/v2_DepthDuration_HTML.html#324,324,1366,625,1366,768,9-4-2022,10-14-55,64,depth_duration_stimuli/000522_2014-06-08_13-35-06_260595134347_rgbf000244-resize_1/000522_2014-06-08_13-35-06_260595134347_rgbf000244-resize_1-target.png,125,2.3715,2,3085,122,meters,jsons/VE125_randls_51.json,769498,1024940,61,Man
64,601968,DepthScenes,duration_manipulation_targetAtFixation,jsons/VE125_randls_51.json,http://54.235.29.9/FacialAge/BNav_EC2/DepthDuration/v2_depth_duration_MTurk/v2_DepthDuration_HTML.html#324,324,1366,625,1366,768,9-4-2022,10-14-55,65,depth_duration_stimuli/002949_2014-06-26_15-57-42_094959634447_rgbf000079-resize_1/002949_2014-06-26_15-57-42_094959634447_rgbf000079-resize_1-target.png,125,1.8915,2,3808,128,meters,jsons/VE125_randls_51.json,769498,1024940,61,Man
65,601968,DepthScenes,duration_manipulation_targetAtFixation,jsons/VE125_randls_51.json,http://54.235.29.9/FacialAge/BNav_EC2/DepthDuration/v2_depth_duration_MTurk/v2_DepthDuration_HTML.html#324,324,1366,625,1366,768,9-4-2022,10-14-55,66,depth_duration_stimuli/001222_2014-06-17_16-24-06_260595134347_rgbf000073-resize_0/001222_2014-06-17_16-24-06_260595134347_rgbf000073-resize-original.jpg,125,1.4385,0,2989,132,meters,jsons/VE125_randls_51.json,769498,1024940,61,Man
66,601968,DepthScenes,duration_manipulation_targetAtFixation,jsons/VE125_randls_51.json,http://54.235.29.9/FacialAge/BNav_EC2/DepthDuration/v2_depth_duration_MTurk/v2_DepthDuration_HTML.html#324,324,1366,625,1366,768,9-4-2022,10-14-55,67,depth_duration_stimuli/001055_2014-06-08_18-45-35_260595134347_rgbf000111-resize_4/001055_2014-06-08_18-45-35_260595134347_rgbf000111-resize_4-target.png,125,2.4290000000000003,3,3207,122,meters,jsons/VE125_randls_51.json,769498,1024940,61,Man
67,601968,DepthScenes,duration_manipulation_targetAtFixation,jsons/VE125_randls_51.json,http://54.235.29.9/FacialAge/BNav_EC2/DepthDuration/v2_depth_duration_MTurk/v2_DepthDuration_HTML.html#324,324,1366,625,1366,768,9-4-2022,10-14-55,68,depth_duration_stimuli/000549_2014-06-08_22-10-24_260595134347_rgbf000247-resize_3/000549_2014-06-08_22-10-24_260595134347_rgbf000247-resize_3-target.png,125,1.841,2,4245,121,meters,jsons/VE125_randls_51.json,769498,1024940,61,Man
68,601968,DepthScenes,duration_manipulation_targetAtFixation,jsons/VE125_randls_51.json,http://54.235.29.9/FacialAge/BNav_EC2/DepthDuration/v2_depth_duration_MTurk/v2_DepthDuration_HTML.html#324,324,1366,625,1366,768,9-4-2022,10-14-55,69,depth_duration_stimuli/001110_2014-06-15_17-25-28_260595134347_rgbf000150-resize_1/001110_2014-06-15_17-25-28_260595134347_rgbf000150-resize_1-target.png,125,1.7115,2,3357,134,meters,jsons/VE125_randls_51.json,769498,1024940,61,Man
69,601968,DepthScenes,duration_manipulation_targetAtFixation,jsons/VE125_randls_51.json,http://54.235.29.9/FacialAge/BNav_EC2/DepthDuration/v2_depth_duration_MTurk/v2_DepthDuration_HTML.html#324,324,1366,625,1366,768,9-4-2022,10-14-55,70,depth_duration_stimuli/000927_2014-06-09_16-32-30_260595134347_rgbf000123-resize_3/000927_2014-06-09_16-32-30_260595134347_rgbf000123-resize_3-target.png,125,2.6785,3,3904,125,meters,jsons/VE125_randls_51.json,769498,1024940,61,Man
70,601968,DepthScenes,duration_manipulation_targetAtFixation,jsons/VE125_randls_51.json,http://54.235.29.9/FacialAge/BNav_EC2/DepthDuration/v2_depth_duration_MTurk/v2_DepthDuration_HTML.html#324,324,1366,625,1366,768,9-4-2022,10-14-55,71,depth_duration_stimuli/003292_2014-05-14_21-53-49_094959634447_rgbf000100-resize_2/003292_2014-05-14_21-53-49_094959634447_rgbf000100-resize_2-target.png,125,3.4815,1,3391,121,meters,jsons/VE125_randls_51.json,769498,1024940,61,Man
71,601968,DepthScenes,duration_manipulation_targetAtFixation,jsons/VE125_randls_51.json,http://54.235.29.9/FacialAge/BNav_EC2/DepthDuration/v2_depth_duration_MTurk/v2_DepthDuration_HTML.html#324,324,1366,625,1366,768,9-4-2022,10-14-55,72,depth_duration_stimuli/002639_2014-06-24_14-51-37_094959634447_rgbf000074-resize_4/002639_2014-06-24_14-51-37_094959634447_rgbf000074-resize_4-target.png,125,4.0375,2,2832,122,meters,jsons/VE125_randls_51.json,769498,1024940,61,Man
72,601968,DepthScenes,duration_manipulation_targetAtFixation,jsons/VE125_randls_51.json,http://54.235.29.9/FacialAge/BNav_EC2/DepthDuration/v2_depth_duration_MTurk/v2_DepthDuration_HTML.html#324,324,1366,625,1366,768,9-4-2022,10-14-55,73,depth_duration_stimuli/000692_2014-06-08_13-09-42_260595134347_rgbf000199-resize_2/000692_2014-06-08_13-09-42_260595134347_rgbf000199-resize_2-target.png,125,3.661,2,2860,124,meters,jsons/VE125_randls_51.json,769498,1024940,61,Man
73,601968,DepthScenes,duration_manipulation_targetAtFixation,jsons/VE125_randls_51.json,http://54.235.29.9/FacialAge/BNav_EC2/DepthDuration/v2_depth_duration_MTurk/v2_DepthDuration_HTML.html#324,324,1366,625,1366,768,9-4-2022,10-14-55,74,depth_duration_stimuli/001094_2014-06-15_17-36-00_260595134347_rgbf000205-resize_0/001094_2014-06-15_17-36-00_260595134347_rgbf000205-resize_0-target.png,125,4.2175,3,2929,110,meters,jsons/VE125_randls_51.json,769498,1024940,61,Man
74,601968,DepthScenes,duration_manipulation_targetAtFixation,jsons/VE125_randls_51.json,http://54.235.29.9/FacialAge/BNav_EC2/DepthDuration/v2_depth_duration_MTurk/v2_DepthDuration_HTML.html#324,324,1366,625,1366,768,9-4-2022,10-14-55,75,depth_duration_stimuli/001417_2014-06-19_16-25-36_260595134347_rgbf000115-resize_5/001417_2014-06-19_16-25-36_260595134347_rgbf000115-resize_5-target.png,125,4.6255,3,3535,115,meters,jsons/VE125_randls_51.json,769498,1024940,61,Man
75,601968,DepthScenes,duration_manipulation_targetAtFixation,jsons/VE125_randls_51.json,http://54.235.29.9/FacialAge/BNav_EC2/DepthDuration/v2_depth_duration_MTurk/v2_DepthDuration_HTML.html#324,324,1366,625,1366,768,9-4-2022,10-14-55,76,depth_duration_stimuli/003081_2014-06-15_15-19-16_094959634447_rgbf000150-resize_1/003081_2014-06-15_15-19-16_094959634447_rgbf000150-resize_1-target.png,125,3.9125,2,3838,118,meters,jsons/VE125_randls_51.json,769498,1024940,61,Man
76,601968,DepthScenes,duration_manipulation_targetAtFixation,jsons/VE125_randls_51.json,http://54.235.29.9/FacialAge/BNav_EC2/DepthDuration/v2_depth_duration_MTurk/v2_DepthDuration_HTML.html#324,324,1366,625,1366,768,9-4-2022,10-14-55,77,depth_duration_stimuli/000470_2014-06-09_19-42-40_260595134347_rgbf000094-resize_1/000470_2014-06-09_19-42-40_260595134347_rgbf000094-resize_1-target.png,125,1.831,1,8881,125,meters,jsons/VE125_randls_51.json,769498,1024940,61,Man
77,601968,DepthScenes,duration_manipulation_targetAtFixation,jsons/VE125_randls_51.json,http://54.235.29.9/FacialAge/BNav_EC2/DepthDuration/v2_depth_duration_MTurk/v2_DepthDuration_HTML.html#324,324,1366,625,1366,768,9-4-2022,10-14-55,78,depth_duration_stimuli/000109_2014-05-14_23-41-52_260595134347_rgbf000035-resize_9/000109_2014-05-14_23-41-52_260595134347_rgbf000035-resize_9-target.png,125,1.3545,2,3771,114,meters,jsons/VE125_randls_51.json,769498,1024940,61,Man
78,601968,DepthScenes,duration_manipulation_targetAtFixation,jsons/VE125_randls_51.json,http://54.235.29.9/FacialAge/BNav_EC2/DepthDuration/v2_depth_duration_MTurk/v2_DepthDuration_HTML.html#324,324,1366,625,1366,768,9-4-2022,10-14-55,79,depth_duration_stimuli/000447_2014-06-08_16-15-46_260595134347_rgbf000130-resize_1/000447_2014-06-08_16-15-46_260595134347_rgbf000130-resize_1-target.png,125,4.479,1,3938,119,meters,jsons/VE125_randls_51.json,769498,1024940,61,Man
79,601968,DepthScenes,duration_manipulation_targetAtFixation,jsons/VE125_randls_51.json,http://54.235.29.9/FacialAge/BNav_EC2/DepthDuration/v2_depth_duration_MTurk/v2_DepthDuration_HTML.html#324,324,1366,625,1366,768,9-4-2022,10-14-55,80,depth_duration_stimuli/001447_2014-06-19_17-00-32_260595134347_rgbf000082-resize_5/001447_2014-06-19_17-00-32_260595134347_rgbf000082-resize_5-target.png,125,4.13775,2,6342,127,meters,jsons/VE125_randls_51.json,769498,1024940,61,Man
80,601968,DepthScenes,duration_manipulation_targetAtFixation,jsons/VE125_randls_51.json,http://54.235.29.9/FacialAge/BNav_EC2/DepthDuration/v2_depth_duration_MTurk/v2_DepthDuration_HTML.html#324,324,1366,625,1366,768,9-4-2022,10-14-55,81,depth_duration_stimuli/002630_2014-06-24_14-47-50_094959634447_rgbf000055-resize_1/002630_2014-06-24_14-47-50_094959634447_rgbf000055-resize_1-target.png,125,3.0095,3,5263,122,meters,jsons/VE125_randls_51.json,769498,1024940,61,Man
81,601968,DepthScenes,duration_manipulation_targetAtFixation,jsons/VE125_randls_51.json,http://54.235.29.9/FacialAge/BNav_EC2/DepthDuration/v2_depth_duration_MTurk/v2_DepthDuration_HTML.html#324,324,1366,625,1366,768,9-4-2022,10-14-55,82,depth_duration_stimuli/002758_2014-06-22_19-11-20_094959634447_rgbf000128-resize_1/002758_2014-06-22_19-11-20_094959634447_rgbf000128-resize_1-target.png,125,2.555,2,5727,123,meters,jsons/VE125_randls_51.json,769498,1024940,61,Man
82,601968,DepthScenes,duration_manipulation_targetAtFixation,jsons/VE125_randls_51.json,http://54.235.29.9/FacialAge/BNav_EC2/DepthDuration/v2_depth_duration_MTurk/v2_DepthDuration_HTML.html#324,324,1366,625,1366,768,9-4-2022,10-14-55,83,depth_duration_stimuli/001164_2014-06-17_15-35-46_260595134347_rgbf000085-resize_3/001164_2014-06-17_15-35-46_260595134347_rgbf000085-resize_3-target.png,125,2.354,3,3243,121,meters,jsons/VE125_randls_51.json,769498,1024940,61,Man
83,601968,DepthScenes,duration_manipulation_targetAtFixation,jsons/VE125_randls_51.json,http://54.235.29.9/FacialAge/BNav_EC2/DepthDuration/v2_depth_duration_MTurk/v2_DepthDuration_HTML.html#324,324,1366,625,1366,768,9-4-2022,10-14-55,84,depth_duration_stimuli/001136_2014-06-17_15-19-41_260595134347_rgbf000076-resize_3/001136_2014-06-17_15-19-41_260595134347_rgbf000076-resize_3-target.png,125,1.8655,2,3980,124,meters,jsons/VE125_randls_51.json,769498,1024940,61,Man
84,601968,DepthScenes,duration_manipulation_targetAtFixation,jsons/VE125_randls_51.json,http://54.235.29.9/FacialAge/BNav_EC2/DepthDuration/v2_depth_duration_MTurk/v2_DepthDuration_HTML.html#324,324,1366,625,1366,768,9-4-2022,10-14-55,85,depth_duration_stimuli/001808_2014-06-26_20-50-58_260595134347_rgbf000029-resize_1/001808_2014-06-26_20-50-58_260595134347_rgbf000029-resize_1-target.png,125,4.249,2,5479,131,meters,jsons/VE125_randls_51.json,769498,1024940,61,Man
85,601968,DepthScenes,duration_manipulation_targetAtFixation,jsons/VE125_randls_51.json,http://54.235.29.9/FacialAge/BNav_EC2/DepthDuration/v2_depth_duration_MTurk/v2_DepthDuration_HTML.html#324,324,1366,625,1366,768,9-4-2022,10-14-55,86,depth_duration_stimuli/001815_2014-06-26_20-52-55_260595134347_rgbf000020-resize_0/001815_2014-06-26_20-52-55_260595134347_rgbf000020-resize_0-target.png,125,3.3865,1,3471,125,meters,jsons/VE125_randls_51.json,769498,1024940,61,Man
86,601968,DepthScenes,duration_manipulation_targetAtFixation,jsons/VE125_randls_51.json,http://54.235.29.9/FacialAge/BNav_EC2/DepthDuration/v2_depth_duration_MTurk/v2_DepthDuration_HTML.html#324,324,1366,625,1366,768,9-4-2022,10-14-55,87,depth_duration_stimuli/002153_2014-06-25_21-27-18_260595134347_rgbf000038-resize_5/002153_2014-06-25_21-27-18_260595134347_rgbf000038-resize_5-target.png,125,2.505,2,4487,124,meters,jsons/VE125_randls_51.json,769498,1024940,61,Man
87,601968,DepthScenes,duration_manipulation_targetAtFixation,jsons/VE125_randls_51.json,http://54.235.29.9/FacialAge/BNav_EC2/DepthDuration/v2_depth_duration_MTurk/v2_DepthDuration_HTML.html#324,324,1366,625,1366,768,9-4-2022,10-14-55,88,depth_duration_stimuli/002660_2014-06-13_15-44-18_094959634447_rgbf001878-resize_2/002660_2014-06-13_15-44-18_094959634447_rgbf001878-resize_2-target.png,125,3.576,2,5724,111,meters,jsons/VE125_randls_51.json,769498,1024940,61,Man
88,601968,DepthScenes,duration_manipulation_targetAtFixation,jsons/VE125_randls_51.json,http://54.235.29.9/FacialAge/BNav_EC2/DepthDuration/v2_depth_duration_MTurk/v2_DepthDuration_HTML.html#324,324,1366,625,1366,768,9-4-2022,10-14-55,89,depth_duration_stimuli/000493_2014-06-09_21-01-18_260595134347_rgbf000196-resize_3/000493_2014-06-09_21-01-18_260595134347_rgbf000196-resize_3-target.png,125,3.44,3,3807,120,meters,jsons/VE125_randls_51.json,769498,1024940,61,Man
89,601968,DepthScenes,duration_manipulation_targetAtFixation,jsons/VE125_randls_51.json,http://54.235.29.9/FacialAge/BNav_EC2/DepthDuration/v2_depth_duration_MTurk/v2_DepthDuration_HTML.html#324,324,1366,625,1366,768,9-4-2022,10-14-55,90,depth_duration_stimuli/000191_2014-05-12_17-07-38_260595134347_rgbf000199-resize_0/000191_2014-05-12_17-07-38_260595134347_rgbf000199-resize_0-target.png,125,3.7995,2,4126,125,meters,jsons/VE125_randls_51.json,769498,1024940,61,Man
90,601968,DepthScenes,duration_manipulation_targetAtFixation,jsons/VE125_randls_51.json,http://54.235.29.9/FacialAge/BNav_EC2/DepthDuration/v2_depth_duration_MTurk/v2_DepthDuration_HTML.html#324,324,1366,625,1366,768,9-4-2022,10-14-55,91,depth_duration_stimuli/002039_2014-06-24_20-22-38_260595134347_rgbf000084-resize_1/002039_2014-06-24_20-22-38_260595134347_rgbf000084-resize_1-target.png,125,4.408,2,3009,117,meters,jsons/VE125_randls_51.json,769498,1024940,61,Man
91,601968,DepthScenes,duration_manipulation_targetAtFixation,jsons/VE125_randls_51.json,http://54.235.29.9/FacialAge/BNav_EC2/DepthDuration/v2_depth_duration_MTurk/v2_DepthDuration_HTML.html#324,324,1366,625,1366,768,9-4-2022,10-14-55,92,depth_duration_stimuli/002103_2014-06-25_20-00-40_260595134347_rgbf000049-resize_0/002103_2014-06-25_20-00-40_260595134347_rgbf000049-resize_0-target.png,125,4.105,2,4392,119,meters,jsons/VE125_randls_51.json,769498,1024940,61,Man
92,601968,DepthScenes,duration_manipulation_targetAtFixation,jsons/VE125_randls_51.json,http://54.235.29.9/FacialAge/BNav_EC2/DepthDuration/v2_depth_duration_MTurk/v2_DepthDuration_HTML.html#324,324,1366,625,1366,768,9-4-2022,10-14-55,93,depth_duration_stimuli/001066_2014-06-08_22-03-20_260595134347_rgbf000066-resize_4/001066_2014-06-08_22-03-20_260595134347_rgbf000066-resize_4-target.png,125,4.2330000000000005,2,5521,117,meters,jsons/VE125_randls_51.json,769498,1024940,61,Man
93,601968,DepthScenes,duration_manipulation_targetAtFixation,jsons/VE125_randls_51.json,http://54.235.29.9/FacialAge/BNav_EC2/DepthDuration/v2_depth_duration_MTurk/v2_DepthDuration_HTML.html#324,324,1366,625,1366,768,9-4-2022,10-14-55,94,depth_duration_stimuli/000742_2014-06-08_18-48-09_260595134347_rgbf000164-resize_4/000742_2014-06-08_18-48-09_260595134347_rgbf000164-resize_4-target.png,125,4.632,2,5546,127,meters,jsons/VE125_randls_51.json,769498,1024940,61,Man
94,601968,DepthScenes,duration_manipulation_targetAtFixation,jsons/VE125_randls_51.json,http://54.235.29.9/FacialAge/BNav_EC2/DepthDuration/v2_depth_duration_MTurk/v2_DepthDuration_HTML.html#324,324,1366,625,1366,768,9-4-2022,10-14-55,95,depth_duration_stimuli/002748_2014-06-22_19-07-22_094959634447_rgbf000078-resize_1/002748_2014-06-22_19-07-22_094959634447_rgbf000078-resize_1-target.png,125,4.6705,2,6687,109,meters,jsons/VE125_randls_51.json,769498,1024940,61,Man
95,601968,DepthScenes,duration_manipulation_targetAtFixation,jsons/VE125_randls_51.json,http://54.235.29.9/FacialAge/BNav_EC2/DepthDuration/v2_depth_duration_MTurk/v2_DepthDuration_HTML.html#324,324,1366,625,1366,768,9-4-2022,10-14-55,96,depth_duration_stimuli/002995_2014-06-15_12-31-26_094959634447_rgbf000150-resize_1/002995_2014-06-15_12-31-26_094959634447_rgbf000150-resize_1-target.png,125,3.8360000000000003,2,3211,113,meters,jsons/VE125_randls_51.json,769498,1024940,61,Man
96,601968,DepthScenes,duration_manipulation_targetAtFixation,jsons/VE125_randls_51.json,http://54.235.29.9/FacialAge/BNav_EC2/DepthDuration/v2_depth_duration_MTurk/v2_DepthDuration_HTML.html#324,324,1366,625,1366,768,9-4-2022,10-14-55,97,depth_duration_stimuli/000414_2014-06-04_19-49-13_260595134347_rgbf000044-resize_0/000414_2014-06-04_19-49-13_260595134347_rgbf000044-resize_0-target.png,125,4.329,3,3675,127,meters,jsons/VE125_randls_51.json,769498,1024940,61,Man
97,601968,DepthScenes,duration_manipulation_targetAtFixation,jsons/VE125_randls_51.json,http://54.235.29.9/FacialAge/BNav_EC2/DepthDuration/v2_depth_duration_MTurk/v2_DepthDuration_HTML.html#324,324,1366,625,1366,768,9-4-2022,10-14-55,98,depth_duration_stimuli/003129_2014-05-12_10-48-10_094959634447_rgbf000100-resize_0/003129_2014-05-12_10-48-10_094959634447_rgbf000100-resize_0-target.png,125,4.9305,2,21207,126,meters,jsons/VE125_randls_51.json,769498,1024940,61,Man
98,601968,DepthScenes,duration_manipulation_targetAtFixation,jsons/VE125_randls_51.json,http://54.235.29.9/FacialAge/BNav_EC2/DepthDuration/v2_depth_duration_MTurk/v2_DepthDuration_HTML.html#324,324,1366,625,1366,768,9-4-2022,10-14-55,99,depth_duration_stimuli/001540_2014-06-20_17-01-05_260595134347_rgbf000086-resize_2/001540_2014-06-20_17-01-05_260595134347_rgbf000086-resize-original.jpg,125,1.459,0,3602,112,meters,jsons/VE125_randls_51.json,769498,1024940,61,Man
99,601968,DepthScenes,duration_manipulation_targetAtFixation,jsons/VE125_randls_51.json,http://54.235.29.9/FacialAge/BNav_EC2/DepthDuration/v2_depth_duration_MTurk/v2_DepthDuration_HTML.html#324,324,1366,625,1366,768,9-4-2022,10-14-55,100,depth_duration_stimuli/003070_2014-06-15_14-58-27_094959634447_rgbf000150-resize_3/003070_2014-06-15_14-58-27_094959634447_rgbf000150-resize_3-target.png,125,2.9415,2,3259,125,meters,jsons/VE125_randls_51.json,769498,1024940,61,Man
100,601968,DepthScenes,duration_manipulation_targetAtFixation,jsons/VE125_randls_51.json,http://54.235.29.9/FacialAge/BNav_EC2/DepthDuration/v2_depth_duration_MTurk/v2_DepthDuration_HTML.html#324,324,1366,625,1366,768,9-4-2022,10-14-55,101,depth_duration_stimuli/000943_2014-06-09_19-31-07_260595134347_rgbf000128-resize_1/000943_2014-06-09_19-31-07_260595134347_rgbf000128-resize_1-target.png,125,1.9765,2,3406,125,meters,jsons/VE125_randls_51.json,769498,1024940,61,Man
101,601968,DepthScenes,duration_manipulation_targetAtFixation,jsons/VE125_randls_51.json,http://54.235.29.9/FacialAge/BNav_EC2/DepthDuration/v2_depth_duration_MTurk/v2_DepthDuration_HTML.html#324,324,1366,625,1366,768,9-4-2022,10-14-55,102,depth_duration_stimuli/002784_2014-06-22_19-26-30_094959634447_rgbf000083-resize_3/002784_2014-06-22_19-26-30_094959634447_rgbf000083-resize_3-target.png,125,1.8046666666667,3,2878,119,meters,jsons/VE125_randls_51.json,769498,1024940,61,Man
102,601968,DepthScenes,duration_manipulation_targetAtFixation,jsons/VE125_randls_51.json,http://54.235.29.9/FacialAge/BNav_EC2/DepthDuration/v2_depth_duration_MTurk/v2_DepthDuration_HTML.html#324,324,1366,625,1366,768,9-4-2022,10-14-55,103,depth_duration_stimuli/001100_2014-06-15_17-46-26_260595134347_rgbf000225-resize_2/001100_2014-06-15_17-46-26_260595134347_rgbf000225-resize_2-target.png,125,2.24,1,2904,137,meters,jsons/VE125_randls_51.json,769498,1024940,61,Man
103,601968,DepthScenes,duration_manipulation_targetAtFixation,jsons/VE125_randls_51.json,http://54.235.29.9/FacialAge/BNav_EC2/DepthDuration/v2_depth_duration_MTurk/v2_DepthDuration_HTML.html#324,324,1366,625,1366,768,9-4-2022,10-14-55,104,depth_duration_stimuli/000788_2014-06-08_22-34-36_260595134347_rgbf000131-resize_1/000788_2014-06-08_22-34-36_260595134347_rgbf000131-resize_1-target.png,125,3.359,2,3089,129,meters,jsons/VE125_randls_51.json,769498,1024940,61,Man
104,601968,DepthScenes,duration_manipulation_targetAtFixation,jsons/VE125_randls_51.json,http://54.235.29.9/FacialAge/BNav_EC2/DepthDuration/v2_depth_duration_MTurk/v2_DepthDuration_HTML.html#324,324,1366,625,1366,768,9-4-2022,10-14-55,105,depth_duration_stimuli/001235_2014-06-17_16-37-36_260595134347_rgbf000084-resize_4/001235_2014-06-17_16-37-36_260595134347_rgbf000084-resize_4-target.png,125,3.6605,3,2824,122,meters,jsons/VE125_randls_51.json,769498,1024940,61,Man
105,601968,DepthScenes,duration_manipulation_targetAtFixation,jsons/VE125_randls_51.json,http://54.235.29.9/FacialAge/BNav_EC2/DepthDuration/v2_depth_duration_MTurk/v2_DepthDuration_HTML.html#324,324,1366,625,1366,768,9-4-2022,10-14-55,106,depth_duration_stimuli/002600_2014-06-24_14-27-04_094959634447_rgbf000074-resize_2/002600_2014-06-24_14-27-04_094959634447_rgbf000074-resize_2-target.png,125,2.7575,1,5474,134,meters,jsons/VE125_randls_51.json,769498,1024940,61,Man
106,601968,DepthScenes,duration_manipulation_targetAtFixation,jsons/VE125_randls_51.json,http://54.235.29.9/FacialAge/BNav_EC2/DepthDuration/v2_depth_duration_MTurk/v2_DepthDuration_HTML.html#324,324,1366,625,1366,768,9-4-2022,10-14-55,107,depth_duration_stimuli/003228_2014-05-14_13-42-35_094959634447_rgbf000101-resize_1/003228_2014-05-14_13-42-35_094959634447_rgbf000101-resize_1-target.png,125,1.9680000000000002,2,3398,123,meters,jsons/VE125_randls_51.json,769498,1024940,61,Man
107,601968,DepthScenes,duration_manipulation_targetAtFixation,jsons/VE125_randls_51.json,http://54.235.29.9/FacialAge/BNav_EC2/DepthDuration/v2_depth_duration_MTurk/v2_DepthDuration_HTML.html#324,324,1366,625,1366,768,9-4-2022,10-14-55,108,depth_duration_stimuli/002905_2014-06-03_18-04-43_094959634447_rgbf000151-resize_2/002905_2014-06-03_18-04-43_094959634447_rgbf000151-resize_2-target.png,125,2.0295,1,4122,125,meters,jsons/VE125_randls_51.json,769498,1024940,61,Man
108,601968,DepthScenes,duration_manipulation_targetAtFixation,jsons/VE125_randls_51.json,http://54.235.29.9/FacialAge/BNav_EC2/DepthDuration/v2_depth_duration_MTurk/v2_DepthDuration_HTML.html#324,324,1366,625,1366,768,9-4-2022,10-14-55,109,depth_duration_stimuli/003423_2014-05-21_10-23-26_094959634447_rgbf002665-resize_2/003423_2014-05-21_10-23-26_094959634447_rgbf002665-resize_2-target.png,125,3.2575,2,3316,128,meters,jsons/VE125_randls_51.json,769498,1024940,61,Man
109,601968,DepthScenes,duration_manipulation_targetAtFixation,jsons/VE125_randls_51.json,http://54.235.29.9/FacialAge/BNav_EC2/DepthDuration/v2_depth_duration_MTurk/v2_DepthDuration_HTML.html#324,324,1366,625,1366,768,9-4-2022,10-14-55,110,depth_duration_stimuli/001199_2014-06-17_16-03-48_260595134347_rgbf000077-resize_0/001199_2014-06-17_16-03-48_260595134347_rgbf000077-resize_0-target.png,125,3.4375,3,3671,132,meters,jsons/VE125_randls_51.json,769498,1024940,61,Man
110,601968,DepthScenes,duration_manipulation_targetAtFixation,jsons/VE125_randls_51.json,http://54.235.29.9/FacialAge/BNav_EC2/DepthDuration/v2_depth_duration_MTurk/v2_DepthDuration_HTML.html#324,324,1366,625,1366,768,9-4-2022,10-14-55,111,depth_duration_stimuli/000502_2014-06-08_23-02-32_260595134347_rgbf000063-resize_4/000502_2014-06-08_23-02-32_260595134347_rgbf000063-resize_4-target.png,125,2.431,0,4230,123,meters,jsons/VE125_randls_51.json,769498,1024940,61,Man
111,601968,DepthScenes,duration_manipulation_targetAtFixation,jsons/VE125_randls_51.json,http://54.235.29.9/FacialAge/BNav_EC2/DepthDuration/v2_depth_duration_MTurk/v2_DepthDuration_HTML.html#324,324,1366,625,1366,768,9-4-2022,10-14-55,112,depth_duration_stimuli/000682_2014-06-08_23-14-58_260595134347_rgbf000041-resize_5/000682_2014-06-08_23-14-58_260595134347_rgbf000041-resize_5-target.png,125,2.7239999999999998,2,3146,111,meters,jsons/VE125_randls_51.json,769498,1024940,61,Man
112,601968,DepthScenes,duration_manipulation_targetAtFixation,jsons/VE125_randls_51.json,http://54.235.29.9/FacialAge/BNav_EC2/DepthDuration/v2_depth_duration_MTurk/v2_DepthDuration_HTML.html#324,324,1366,625,1366,768,9-4-2022,10-14-55,113,depth_duration_stimuli/001650_2014-06-20_12-09-00_260595134347_rgbf000087-resize_3/001650_2014-06-20_12-09-00_260595134347_rgbf000087-resize_3-target.png,125,1.9505,1,6512,118,meters,jsons/VE125_randls_51.json,769498,1024940,61,Man
113,601968,DepthScenes,duration_manipulation_targetAtFixation,jsons/VE125_randls_51.json,http://54.235.29.9/FacialAge/BNav_EC2/DepthDuration/v2_depth_duration_MTurk/v2_DepthDuration_HTML.html#324,324,1366,625,1366,768,9-4-2022,10-14-55,114,depth_duration_stimuli/002788_2014-06-22_19-36-03_094959634447_rgbf000088-resize_2/002788_2014-06-22_19-36-03_094959634447_rgbf000088-resize_2-target.png,125,1.6465,2,4720,133,meters,jsons/VE125_randls_51.json,769498,1024940,61,Man
114,601968,DepthScenes,duration_manipulation_targetAtFixation,jsons/VE125_randls_51.json,http://54.235.29.9/FacialAge/BNav_EC2/DepthDuration/v2_depth_duration_MTurk/v2_DepthDuration_HTML.html#324,324,1366,625,1366,768,9-4-2022,10-14-55,115,depth_duration_stimuli/000749_2014-06-08_21-55-06_260595134347_rgbf000070-resize_2/000749_2014-06-08_21-55-06_260595134347_rgbf000070-resize_2-target.png,125,2.331,1,11777,136,meters,jsons/VE125_randls_51.json,769498,1024940,61,Man
115,601968,DepthScenes,duration_manipulation_targetAtFixation,jsons/VE125_randls_51.json,http://54.235.29.9/FacialAge/BNav_EC2/DepthDuration/v2_depth_duration_MTurk/v2_DepthDuration_HTML.html#324,324,1366,625,1366,768,9-4-2022,10-14-55,116,depth_duration_stimuli/001170_2014-06-17_15-43-44_260595134347_rgbf000096-resize_6/001170_2014-06-17_15-43-44_260595134347_rgbf000096-resize-original.jpg,125,1.1909999999999998,0,4277,101,meters,jsons/VE125_randls_51.json,769498,1024940,61,Man
116,601968,DepthScenes,duration_manipulation_targetAtFixation,jsons/VE125_randls_51.json,http://54.235.29.9/FacialAge/BNav_EC2/DepthDuration/v2_depth_duration_MTurk/v2_DepthDuration_HTML.html#324,324,1366,625,1366,768,9-4-2022,10-14-55,117,depth_duration_stimuli/002057_2014-06-24_21-00-13_260595134347_rgbf000120-resize_1/002057_2014-06-24_21-00-13_260595134347_rgbf000120-resize_1-target.png,125,2.967,2,3836,120,meters,jsons/VE125_randls_51.json,769498,1024940,61,Man
117,601968,DepthScenes,duration_manipulation_targetAtFixation,jsons/VE125_randls_51.json,http://54.235.29.9/FacialAge/BNav_EC2/DepthDuration/v2_depth_duration_MTurk/v2_DepthDuration_HTML.html#324,324,1366,625,1366,768,9-4-2022,10-14-55,118,depth_duration_stimuli/000709_2014-06-08_13-51-55_260595134347_rgbf000068-resize_3/000709_2014-06-08_13-51-55_260595134347_rgbf000068-resize_3-target.png,125,1.8030000000000002,2,3761,124,meters,jsons/VE125_randls_51.json,769498,1024940,61,Man
118,601968,DepthScenes,duration_manipulation_targetAtFixation,jsons/VE125_randls_51.json,http://54.235.29.9/FacialAge/BNav_EC2/DepthDuration/v2_depth_duration_MTurk/v2_DepthDuration_HTML.html#324,324,1366,625,1366,768,9-4-2022,10-14-55,119,depth_duration_stimuli/000878_2014-06-08_22-52-45_260595134347_rgbf000045-resize_2/000878_2014-06-08_22-52-45_260595134347_rgbf000045-resize_2-target.png,125,2.092,3,4573,121,meters,jsons/VE125_randls_51.json,769498,1024940,61,Man
119,601968,DepthScenes,duration_manipulation_targetAtFixation,jsons/VE125_randls_51.json,http://54.235.29.9/FacialAge/BNav_EC2/DepthDuration/v2_depth_duration_MTurk/v2_DepthDuration_HTML.html#324,324,1366,625,1366,768,9-4-2022,10-14-55,120,depth_duration_stimuli/002953_2014-06-08_17-32-18_094959634447_rgbf000059-resize_5/002953_2014-06-08_17-32-18_094959634447_rgbf000059-resize_5-target.png,125,1.551,2,4962,122,meters,jsons/VE125_randls_51.json,769498,1024940,61,Man
120,601968,DepthScenes,duration_manipulation_targetAtFixation,jsons/VE125_randls_51.json,http://54.235.29.9/FacialAge/BNav_EC2/DepthDuration/v2_depth_duration_MTurk/v2_DepthDuration_HTML.html#324,324,1366,625,1366,768,9-4-2022,10-14-55,121,depth_duration_stimuli/000810_2014-06-08_17-20-01_260595134347_rgbf000105-resize_0/000810_2014-06-08_17-20-01_260595134347_rgbf000105-resize_0-target.png,125,1.4865,2,3922,124,meters,jsons/VE125_randls_51.json,769498,1024940,61,Man
121,601968,DepthScenes,duration_manipulation_targetAtFixation,jsons/VE125_randls_51.json,http://54.235.29.9/FacialAge/BNav_EC2/DepthDuration/v2_depth_duration_MTurk/v2_DepthDuration_HTML.html#324,324,1366,625,1366,768,9-4-2022,10-14-55,122,depth_duration_stimuli/001214_2014-06-17_16-13-55_260595134347_rgbf000111-resize_0/001214_2014-06-17_16-13-55_260595134347_rgbf000111-resize_0-target.png,125,2.6505,2,3756,123,meters,jsons/VE125_randls_51.json,769498,1024940,61,Man
122,601968,DepthScenes,duration_manipulation_targetAtFixation,jsons/VE125_randls_51.json,http://54.235.29.9/FacialAge/BNav_EC2/DepthDuration/v2_depth_duration_MTurk/v2_DepthDuration_HTML.html#324,324,1366,625,1366,768,9-4-2022,10-14-55,123,depth_duration_stimuli/002725_2014-06-22_11-47-51_094959634447_rgbf000070-resize_1/002725_2014-06-22_11-47-51_094959634447_rgbf000070-resize_1-target.png,125,2.195,3,3757,110,meters,jsons/VE125_randls_51.json,769498,1024940,61,Man
123,601968,DepthScenes,duration_manipulation_targetAtFixation,jsons/VE125_randls_51.json,http://54.235.29.9/FacialAge/BNav_EC2/DepthDuration/v2_depth_duration_MTurk/v2_DepthDuration_HTML.html#324,324,1366,625,1366,768,9-4-2022,10-14-55,124,depth_duration_stimuli/002344_2014-06-28_20-06-29_260595134347_rgbf000030-resize_1/002344_2014-06-28_20-06-29_260595134347_rgbf000030-resize_1-target.png,125,1.5795,2,4405,125,meters,jsons/VE125_randls_51.json,769498,1024940,61,Man
124,601968,DepthScenes,duration_manipulation_targetAtFixation,jsons/VE125_randls_51.json,http://54.235.29.9/FacialAge/BNav_EC2/DepthDuration/v2_depth_duration_MTurk/v2_DepthDuration_HTML.html#324,324,1366,625,1366,768,9-4-2022,10-14-55,125,depth_duration_stimuli/002279_2014-06-28_18-55-32_260595134347_rgbf000040-resize_5/002279_2014-06-28_18-55-32_260595134347_rgbf000040-resize_5-target.png,125,1.5043333333333,2,3631,127,meters,jsons/VE125_randls_51.json,769498,1024940,61,Man
125,601968,DepthScenes,duration_manipulation_targetAtFixation,jsons/VE125_randls_51.json,http://54.235.29.9/FacialAge/BNav_EC2/DepthDuration/v2_depth_duration_MTurk/v2_DepthDuration_HTML.html#324,324,1366,625,1366,768,9-4-2022,10-14-55,126,depth_duration_stimuli/000635_2014-06-08_16-38-42_260595134347_rgbf000106-resize_1/000635_2014-06-08_16-38-42_260595134347_rgbf000106-resize_1-target.png,125,2.074,2,4660,124,meters,jsons/VE125_randls_51.json,769498,1024940,61,Man
126,601968,DepthScenes,duration_manipulation_targetAtFixation,jsons/VE125_randls_51.json,http://54.235.29.9/FacialAge/BNav_EC2/DepthDuration/v2_depth_duration_MTurk/v2_DepthDuration_HTML.html#324,324,1366,625,1366,768,9-4-2022,10-14-55,127,depth_duration_stimuli/002272_2014-06-28_18-53-56_260595134347_rgbf000067-resize_2/002272_2014-06-28_18-53-56_260595134347_rgbf000067-resize_2-target.png,125,1.138,3,3137,125,meters,jsons/VE125_randls_51.json,769498,1024940,61,Man
127,601968,DepthScenes,duration_manipulation_targetAtFixation,jsons/VE125_randls_51.json,http://54.235.29.9/FacialAge/BNav_EC2/DepthDuration/v2_depth_duration_MTurk/v2_DepthDuration_HTML.html#324,324,1366,625,1366,768,9-4-2022,10-14-55,128,depth_duration_stimuli/001571_2014-06-20_17-21-32_260595134347_rgbf000089-resize_1/001571_2014-06-20_17-21-32_260595134347_rgbf000089-resize_1-target.png,125,1.86,2,3551,128,meters,jsons/VE125_randls_51.json,769498,1024940,61,Man
128,601968,DepthScenes,duration_manipulation_targetAtFixation,jsons/VE125_randls_51.json,http://54.235.29.9/FacialAge/BNav_EC2/DepthDuration/v2_depth_duration_MTurk/v2_DepthDuration_HTML.html#324,324,1366,625,1366,768,9-4-2022,10-14-55,129,depth_duration_stimuli/002763_2014-06-22_19-13-10_094959634447_rgbf000075-resize_4/002763_2014-06-22_19-13-10_094959634447_rgbf000075-resize_4-target.png,125,1.68375,3,3681,130,meters,jsons/VE125_randls_51.json,769498,1024940,61,Man
129,601968,DepthScenes,duration_manipulation_targetAtFixation,jsons/VE125_randls_51.json,http://54.235.29.9/FacialAge/BNav_EC2/DepthDuration/v2_depth_duration_MTurk/v2_DepthDuration_HTML.html#324,324,1366,625,1366,768,9-4-2022,10-14-55,130,depth_duration_stimuli/002209_2014-06-28_18-36-10_260595134347_rgbf000051-resize_1/002209_2014-06-28_18-36-10_260595134347_rgbf000051-resize_1-target.png,125,2.057,2,4709,125,meters,jsons/VE125_randls_51.json,769498,1024940,61,Man
130,601968,DepthScenes,duration_manipulation_targetAtFixation,jsons/VE125_randls_51.json,http://54.235.29.9/FacialAge/BNav_EC2/DepthDuration/v2_depth_duration_MTurk/v2_DepthDuration_HTML.html#324,324,1366,625,1366,768,9-4-2022,10-14-55,131,depth_duration_stimuli/001158_2014-06-17_15-32-16_260595134347_rgbf000138-resize_2/001158_2014-06-17_15-32-16_260595134347_rgbf000138-resize_2-target.png,125,4.5315,2,5530,126,meters,jsons/VE125_randls_51.json,769498,1024940,61,Man
131,601968,DepthScenes,duration_manipulation_targetAtFixation,jsons/VE125_randls_51.json,http://54.235.29.9/FacialAge/BNav_EC2/DepthDuration/v2_depth_duration_MTurk/v2_DepthDuration_HTML.html#324,324,1366,625,1366,768,9-4-2022,10-14-55,132,depth_duration_stimuli/000556_2014-06-09_22-42-56_260595134347_rgbf000214-resize_1/000556_2014-06-09_22-42-56_260595134347_rgbf000214-resize_1-target.png,125,4.8415,2,3972,119,meters,jsons/VE125_randls_51.json,769498,1024940,61,Man
132,601968,DepthScenes,duration_manipulation_targetAtFixation,jsons/VE125_randls_51.json,http://54.235.29.9/FacialAge/BNav_EC2/DepthDuration/v2_depth_duration_MTurk/v2_DepthDuration_HTML.html#324,324,1366,625,1366,768,9-4-2022,10-14-55,133,depth_duration_stimuli/002663_2014-06-13_15-50-26_094959634447_rgbf000075-resize_1/002663_2014-06-13_15-50-26_094959634447_rgbf000075-resize_1-target.png,125,4.7495,3,3685,141,meters,jsons/VE125_randls_51.json,769498,1024940,61,Man
133,601968,DepthScenes,duration_manipulation_targetAtFixation,jsons/VE125_randls_51.json,http://54.235.29.9/FacialAge/BNav_EC2/DepthDuration/v2_depth_duration_MTurk/v2_DepthDuration_HTML.html#324,324,1366,625,1366,768,9-4-2022,10-14-55,134,depth_duration_stimuli/000409_2014-06-04_19-23-33_260595134347_rgbf000067-resize_0/000409_2014-06-04_19-23-33_260595134347_rgbf000067-resize_0-target.png,125,3.7335,2,16523,110,meters,jsons/VE125_randls_51.json,769498,1024940,61,Man
134,601968,DepthScenes,duration_manipulation_targetAtFixation,jsons/VE125_randls_51.json,http://54.235.29.9/FacialAge/BNav_EC2/DepthDuration/v2_depth_duration_MTurk/v2_DepthDuration_HTML.html#324,324,1366,625,1366,768,9-4-2022,10-14-55,135,depth_duration_stimuli/002072_2014-06-24_21-48-06_260595134347_rgbf000115-resize_0/002072_2014-06-24_21-48-06_260595134347_rgbf000115-resize-original.jpg,125,4.702,0,4372,124,meters,jsons/VE125_randls_51.json,769498,1024940,61,Man
135,601968,DepthScenes,duration_manipulation_targetAtFixation,jsons/VE125_randls_51.json,http://54.235.29.9/FacialAge/BNav_EC2/DepthDuration/v2_depth_duration_MTurk/v2_DepthDuration_HTML.html#324,324,1366,625,1366,768,9-4-2022,10-14-55,136,depth_duration_stimuli/001555_2014-06-20_17-12-10_260595134347_rgbf000065-resize_4/001555_2014-06-20_17-12-10_260595134347_rgbf000065-resize_4-target.png,125,1.633,2,3342,125,meters,jsons/VE125_randls_51.json,769498,1024940,61,Man
136,601968,DepthScenes,duration_manipulation_targetAtFixation,jsons/VE125_randls_51.json,http://54.235.29.9/FacialAge/BNav_EC2/DepthDuration/v2_depth_duration_MTurk/v2_DepthDuration_HTML.html#324,324,1366,625,1366,768,9-4-2022,10-14-55,137,depth_duration_stimuli/000103_2014-05-14_22-01-17_260595134347_rgbf000152-resize_5/000103_2014-05-14_22-01-17_260595134347_rgbf000152-resize_5-target.png,125,1.993,2,4477,123,meters,jsons/VE125_randls_51.json,769498,1024940,61,Man
137,601968,DepthScenes,duration_manipulation_targetAtFixation,jsons/VE125_randls_51.json,http://54.235.29.9/FacialAge/BNav_EC2/DepthDuration/v2_depth_duration_MTurk/v2_DepthDuration_HTML.html#324,324,1366,625,1366,768,9-4-2022,10-14-55,138,depth_duration_stimuli/002989_2014-06-15_12-25-03_094959634447_rgbf000150-resize_3/002989_2014-06-15_12-25-03_094959634447_rgbf000150-resize_3-target.png,125,4.1975,3,3428,138,meters,jsons/VE125_randls_51.json,769498,1024940,61,Man
138,601968,DepthScenes,duration_manipulation_targetAtFixation,jsons/VE125_randls_51.json,http://54.235.29.9/FacialAge/BNav_EC2/DepthDuration/v2_depth_duration_MTurk/v2_DepthDuration_HTML.html#324,324,1366,625,1366,768,9-4-2022,10-14-55,139,depth_duration_stimuli/000866_2014-06-09_20-45-42_260595134347_rgbf000139-resize_1/000866_2014-06-09_20-45-42_260595134347_rgbf000139-resize_1-target.png,125,3.2155,3,3392,138,meters,jsons/VE125_randls_51.json,769498,1024940,61,Man
139,601968,DepthScenes,duration_manipulation_targetAtFixation,jsons/VE125_randls_51.json,http://54.235.29.9/FacialAge/BNav_EC2/DepthDuration/v2_depth_duration_MTurk/v2_DepthDuration_HTML.html#324,324,1366,625,1366,768,9-4-2022,10-14-55,140,depth_duration_stimuli/001167_2014-06-17_15-38-07_260595134347_rgbf000108-resize_0/001167_2014-06-17_15-38-07_260595134347_rgbf000108-resize_0-target.png,125,1.8505,2,4002,115,meters,jsons/VE125_randls_51.json,769498,1024940,61,Man
140,601968,DepthScenes,duration_manipulation_targetAtFixation,jsons/VE125_randls_51.json,http://54.235.29.9/FacialAge/BNav_EC2/DepthDuration/v2_depth_duration_MTurk/v2_DepthDuration_HTML.html#324,324,1366,625,1366,768,9-4-2022,10-14-55,141,depth_duration_stimuli/003587_2014-05-23_16-48-02_094959634447_rgbf002384-resize_2/003587_2014-05-23_16-48-02_094959634447_rgbf002384-resize_2-target.png,125,1.357,2,3895,170,meters,jsons/VE125_randls_51.json,769498,1024940,61,Man
141,601968,DepthScenes,duration_manipulation_targetAtFixation,jsons/VE125_randls_51.json,http://54.235.29.9/FacialAge/BNav_EC2/DepthDuration/v2_depth_duration_MTurk/v2_DepthDuration_HTML.html#324,324,1366,625,1366,768,9-4-2022,10-14-55,142,depth_duration_stimuli/001016_2014-06-09_16-16-10_260595134347_rgbf000112-resize_5/001016_2014-06-09_16-16-10_260595134347_rgbf000112-resize_5-target.png,125,1.6565,3,3499,148,meters,jsons/VE125_randls_51.json,769498,1024940,61,Man
142,601968,DepthScenes,duration_manipulation_targetAtFixation,jsons/VE125_randls_51.json,http://54.235.29.9/FacialAge/BNav_EC2/DepthDuration/v2_depth_duration_MTurk/v2_DepthDuration_HTML.html#324,324,1366,625,1366,768,9-4-2022,10-14-55,143,depth_duration_stimuli/002340_2014-06-28_20-05-46_260595134347_rgbf000113-resize_0/002340_2014-06-28_20-05-46_260595134347_rgbf000113-resize_0-target.png,125,2.4735,3,2926,123,meters,jsons/VE125_randls_51.json,769498,1024940,61,Man
143,601968,DepthScenes,duration_manipulation_targetAtFixation,jsons/VE125_randls_51.json,http://54.235.29.9/FacialAge/BNav_EC2/DepthDuration/v2_depth_duration_MTurk/v2_DepthDuration_HTML.html#324,324,1366,625,1366,768,9-4-2022,10-14-55,144,depth_duration_stimuli/001092_2014-06-15_17-34-58_260595134347_rgbf000171-resize_3/001092_2014-06-15_17-34-58_260595134347_rgbf000171-resize_3-target.png,125,2.6935,2,3828,125,meters,jsons/VE125_randls_51.json,769498,1024940,61,Man
144,601968,DepthScenes,duration_manipulation_targetAtFixation,jsons/VE125_randls_51.json,http://54.235.29.9/FacialAge/BNav_EC2/DepthDuration/v2_depth_duration_MTurk/v2_DepthDuration_HTML.html#324,324,1366,625,1366,768,9-4-2022,10-14-55,145,depth_duration_stimuli/002545_2014-06-24_13-38-53_094959634447_rgbf000080-resize_4/002545_2014-06-24_13-38-53_094959634447_rgbf000080-resize_4-target.png,125,1.9205,3,4270,189,meters,jsons/VE125_randls_51.json,769498,1024940,61,Man
145,601968,DepthScenes,duration_manipulation_targetAtFixation,jsons/VE125_randls_51.json,http://54.235.29.9/FacialAge/BNav_EC2/DepthDuration/v2_depth_duration_MTurk/v2_DepthDuration_HTML.html#324,324,1366,625,1366,768,9-4-2022,10-14-55,146,depth_duration_stimuli/001498_2014-06-19_17-45-14_260595134347_rgbf000129-resize_4/001498_2014-06-19_17-45-14_260595134347_rgbf000129-resize-original.jpg,125,1.4075,0,3293,123,meters,jsons/VE125_randls_51.json,769498,1024940,61,Man
146,601968,DepthScenes,duration_manipulation_targetAtFixation,jsons/VE125_randls_51.json,http://54.235.29.9/FacialAge/BNav_EC2/DepthDuration/v2_depth_duration_MTurk/v2_DepthDuration_HTML.html#324,324,1366,625,1366,768,9-4-2022,10-14-55,147,depth_duration_stimuli/002509_2014-06-24_13-19-22_094959634447_rgbf000077-resize_0/002509_2014-06-24_13-19-22_094959634447_rgbf000077-resize_0-target.png,125,1.3065,2,4053,124,meters,jsons/VE125_randls_51.json,769498,1024940,61,Man
147,601968,DepthScenes,duration_manipulation_targetAtFixation,jsons/VE125_randls_51.json,http://54.235.29.9/FacialAge/BNav_EC2/DepthDuration/v2_depth_duration_MTurk/v2_DepthDuration_HTML.html#324,324,1366,625,1366,768,9-4-2022,10-14-55,148,depth_duration_stimuli/003338_2014-05-20_11-01-23_094959634447_rgbf000051-resize_6/003338_2014-05-20_11-01-23_094959634447_rgbf000051-resize_6-target.png,125,1.693,2,3313,130,meters,jsons/VE125_randls_51.json,769498,1024940,61,Man
148,601968,DepthScenes,duration_manipulation_targetAtFixation,jsons/VE125_randls_51.json,http://54.235.29.9/FacialAge/BNav_EC2/DepthDuration/v2_depth_duration_MTurk/v2_DepthDuration_HTML.html#324,324,1366,625,1366,768,9-4-2022,10-14-55,149,depth_duration_stimuli/003534_2014-05-22_15-06-10_094959634447_rgbf000102-resize_4/003534_2014-05-22_15-06-10_094959634447_rgbf000102-resize_4-target.png,125,1.426,2,3728,125,meters,jsons/VE125_randls_51.json,769498,1024940,61,Man
149,601968,DepthScenes,duration_manipulation_targetAtFixation,jsons/VE125_randls_51.json,http://54.235.29.9/FacialAge/BNav_EC2/DepthDuration/v2_depth_duration_MTurk/v2_DepthDuration_HTML.html#324,324,1366,625,1366,768,9-4-2022,10-14-55,150,depth_duration_stimuli/002637_2014-06-24_14-51-13_094959634447_rgbf000066-resize_4/002637_2014-06-24_14-51-13_094959634447_rgbf000066-resize_4-target.png,125,1.9955,2,3327,128,meters,jsons/VE125_randls_51.json,769498,1024940,61,Man
150,601968,DepthScenes,duration_manipulation_targetAtFixation,jsons/VE125_randls_51.json,http://54.235.29.9/FacialAge/BNav_EC2/DepthDuration/v2_depth_duration_MTurk/v2_DepthDuration_HTML.html#324,324,1366,625,1366,768,9-4-2022,10-14-55,151,depth_duration_stimuli/002570_2014-06-24_13-59-54_094959634447_rgbf000059-resize_0/002570_2014-06-24_13-59-54_094959634447_rgbf000059-resize_0-target.png,125,4.037,2,3683,124,meters,jsons/VE125_randls_51.json,769498,1024940,61,Man
151,601968,DepthScenes,duration_manipulation_targetAtFixation,jsons/VE125_randls_51.json,http://54.235.29.9/FacialAge/BNav_EC2/DepthDuration/v2_depth_duration_MTurk/v2_DepthDuration_HTML.html#324,324,1366,625,1366,768,9-4-2022,10-14-55,152,depth_duration_stimuli/002467_2014-06-28_20-38-07_260595134347_rgbf000026-resize_2/002467_2014-06-28_20-38-07_260595134347_rgbf000026-resize_2-target.png,125,4.742,1,3091,125,meters,jsons/VE125_randls_51.json,769498,1024940,61,Man
152,601968,DepthScenes,duration_manipulation_targetAtFixation,jsons/VE125_randls_51.json,http://54.235.29.9/FacialAge/BNav_EC2/DepthDuration/v2_depth_duration_MTurk/v2_DepthDuration_HTML.html#324,324,1366,625,1366,768,9-4-2022,10-14-55,153,depth_duration_stimuli/000739_2014-06-08_18-45-58_260595134347_rgbf000068-resize_1/000739_2014-06-08_18-45-58_260595134347_rgbf000068-resize_1-target.png,125,3.534,2,2699,126,meters,jsons/VE125_randls_51.json,769498,1024940,61,Man
153,601968,DepthScenes,duration_manipulation_targetAtFixation,jsons/VE125_randls_51.json,http://54.235.29.9/FacialAge/BNav_EC2/DepthDuration/v2_depth_duration_MTurk/v2_DepthDuration_HTML.html#324,324,1366,625,1366,768,9-4-2022,10-14-55,154,depth_duration_stimuli/000734_2014-06-08_17-39-11_260595134347_rgbf000128-resize_2/000734_2014-06-08_17-39-11_260595134347_rgbf000128-resize_2-target.png,125,4.098,2,8427,130,meters,jsons/VE125_randls_51.json,769498,1024940,61,Man
154,601968,DepthScenes,duration_manipulation_targetAtFixation,jsons/VE125_randls_51.json,http://54.235.29.9/FacialAge/BNav_EC2/DepthDuration/v2_depth_duration_MTurk/v2_DepthDuration_HTML.html#324,324,1366,625,1366,768,9-4-2022,10-14-55,155,depth_duration_stimuli/001150_2014-06-17_15-27-34_260595134347_rgbf000108-resize_2/001150_2014-06-17_15-27-34_260595134347_rgbf000108-resize_2-target.png,125,4.0325,3,3170,128,meters,jsons/VE125_randls_51.json,769498,1024940,61,Man
155,601968,DepthScenes,duration_manipulation_targetAtFixation,jsons/VE125_randls_51.json,http://54.235.29.9/FacialAge/BNav_EC2/DepthDuration/v2_depth_duration_MTurk/v2_DepthDuration_HTML.html#324,324,1366,625,1366,768,9-4-2022,10-14-55,156,depth_duration_stimuli/000665_2014-06-09_20-42-35_260595134347_rgbf000110-resize_1/000665_2014-06-09_20-42-35_260595134347_rgbf000110-resize_1-target.png,125,3.057,2,3777,112,meters,jsons/VE125_randls_51.json,769498,1024940,61,Man
156,601968,DepthScenes,duration_manipulation_targetAtFixation,jsons/VE125_randls_51.json,http://54.235.29.9/FacialAge/BNav_EC2/DepthDuration/v2_depth_duration_MTurk/v2_DepthDuration_HTML.html#324,324,1366,625,1366,768,9-4-2022,10-14-55,157,depth_duration_stimuli/003621_2014-05-23_18-06-08_094959634447_rgbf000101-resize_1/003621_2014-05-23_18-06-08_094959634447_rgbf000101-resize_1-target.png,125,3.9835,3,3921,126,meters,jsons/VE125_randls_51.json,769498,1024940,61,Man
157,601968,DepthScenes,duration_manipulation_targetAtFixation,jsons/VE125_randls_51.json,http://54.235.29.9/FacialAge/BNav_EC2/DepthDuration/v2_depth_duration_MTurk/v2_DepthDuration_HTML.html#324,324,1366,625,1366,768,9-4-2022,10-14-55,158,depth_duration_stimuli/001584_2014-06-20_11-07-43_260595134347_rgbf000002-resize_1/001584_2014-06-20_11-07-43_260595134347_rgbf000002-resize_1-target.png,125,3.53,3,3137,135,meters,jsons/VE125_randls_51.json,769498,1024940,61,Man
158,601968,DepthScenes,duration_manipulation_targetAtFixation,jsons/VE125_randls_51.json,http://54.235.29.9/FacialAge/BNav_EC2/DepthDuration/v2_depth_duration_MTurk/v2_DepthDuration_HTML.html#324,324,1366,625,1366,768,9-4-2022,10-14-55,159,depth_duration_stimuli/001449_2014-06-19_17-01-27_260595134347_rgbf000116-resize_2/001449_2014-06-19_17-01-27_260595134347_rgbf000116-resize_2-target.png,125,3.452,2,3541,136,meters,jsons/VE125_randls_51.json,769498,1024940,61,Man
159,601968,DepthScenes,duration_manipulation_targetAtFixation,jsons/VE125_randls_51.json,http://54.235.29.9/FacialAge/BNav_EC2/DepthDuration/v2_depth_duration_MTurk/v2_DepthDuration_HTML.html#324,324,1366,625,1366,768,9-4-2022,10-14-55,160,depth_duration_stimuli/001450_2014-06-19_17-02-03_260595134347_rgbf000203-resize_4/001450_2014-06-19_17-02-03_260595134347_rgbf000203-resize_4-target.png,125,4.0106666666667,2,3163,137,meters,jsons/VE125_randls_51.json,769498,1024940,61,Man
160,601968,DepthScenes,duration_manipulation_targetAtFixation,jsons/VE125_randls_51.json,http://54.235.29.9/FacialAge/BNav_EC2/DepthDuration/v2_depth_duration_MTurk/v2_DepthDuration_HTML.html#324,324,1366,625,1366,768,9-4-2022,10-14-55,161,depth_duration_stimuli/000469_2014-06-09_19-42-10_260595134347_rgbf000081-resize_1/000469_2014-06-09_19-42-10_260595134347_rgbf000081-resize_1-target.png,125,1.652,2,3484,125,meters,jsons/VE125_randls_51.json,769498,1024940,61,Man
161,601968,DepthScenes,duration_manipulation_targetAtFixation,jsons/VE125_randls_51.json,http://54.235.29.9/FacialAge/BNav_EC2/DepthDuration/v2_depth_duration_MTurk/v2_DepthDuration_HTML.html#324,324,1366,625,1366,768,9-4-2022,10-14-55,162,depth_duration_stimuli/000483_2014-06-09_20-41-45_260595134347_rgbf000116-resize_4/000483_2014-06-09_20-41-45_260595134347_rgbf000116-resize_4-target.png,125,1.337,2,3128,136,meters,jsons/VE125_randls_51.json,769498,1024940,61,Man
162,601968,DepthScenes,duration_manipulation_targetAtFixation,jsons/VE125_randls_51.json,http://54.235.29.9/FacialAge/BNav_EC2/DepthDuration/v2_depth_duration_MTurk/v2_DepthDuration_HTML.html#324,324,1366,625,1366,768,9-4-2022,10-14-55,163,depth_duration_stimuli/000642_2014-06-08_16-59-25_260595134347_rgbf000098-resize_2/000642_2014-06-08_16-59-25_260595134347_rgbf000098-resize_2-target.png,125,2.8815,3,3086,129,meters,jsons/VE125_randls_51.json,769498,1024940,61,Man
163,601968,DepthScenes,duration_manipulation_targetAtFixation,jsons/VE125_randls_51.json,http://54.235.29.9/FacialAge/BNav_EC2/DepthDuration/v2_depth_duration_MTurk/v2_DepthDuration_HTML.html#324,324,1366,625,1366,768,9-4-2022,10-14-55,164,depth_duration_stimuli/002425_2014-06-28_20-27-29_260595134347_rgbf000031-resize_8/002425_2014-06-28_20-27-29_260595134347_rgbf000031-resize_8-target.png,125,3.8960000000000004,1,3329,130,meters,jsons/VE125_randls_51.json,769498,1024940,61,Man
