,subjID,experimentName,versionName,sequenceName,url,selected_row,windowWidth,windowHeight,screenWidth,screenHeight,startDate,startTime,trial,stimulus,duration,actual_depth,depth_estimate,trial_RT,log_sceneDuration,unitSelection,seq_filepath,experimentTime,totalTime,age,gender
0,602527,DepthScenes,duration_manipulation_targetAtFixation,jsons/v1_VE250_randls_10.json,http://54.235.29.9/FacialAge/BNav_EC2/DepthDuration/v2_depth_duration_MTurk/v2_DepthDuration_HTML.html#91,91,1280,800,1280,800,8-20-2022,10-44-31,1,depth_duration_stimuli/000917_2014-06-09_22-45-29_260595134347_rgbf000149-resize_3/000917_2014-06-09_22-45-29_260595134347_rgbf000149-resize_3-target.png,250,4.1865,5,3785,253,feet,jsons/v1_VE250_randls_10.json,659282,1240103,61,Woman
1,602527,DepthScenes,duration_manipulation_targetAtFixation,jsons/v1_VE250_randls_10.json,http://54.235.29.9/FacialAge/BNav_EC2/DepthDuration/v2_depth_duration_MTurk/v2_DepthDuration_HTML.html#91,91,1280,800,1280,800,8-20-2022,10-44-31,2,depth_duration_stimuli/002323_2014-06-28_20-01-54_260595134347_rgbf000051-resize_4/002323_2014-06-28_20-01-54_260595134347_rgbf000051-resize_4-target.png,250,3.7310000000000003,4,3022,245,feet,jsons/v1_VE250_randls_10.json,659282,1240103,61,Woman
2,602527,DepthScenes,duration_manipulation_targetAtFixation,jsons/v1_VE250_randls_10.json,http://54.235.29.9/FacialAge/BNav_EC2/DepthDuration/v2_depth_duration_MTurk/v2_DepthDuration_HTML.html#91,91,1280,800,1280,800,8-20-2022,10-44-31,3,depth_duration_stimuli/001133_2014-06-17_14-49-16_260595134347_rgbf000100-resize_0/001133_2014-06-17_14-49-16_260595134347_rgbf000100-resize_0-target.png,250,4.2115,8,3511,249,feet,jsons/v1_VE250_randls_10.json,659282,1240103,61,Woman
3,602527,DepthScenes,duration_manipulation_targetAtFixation,jsons/v1_VE250_randls_10.json,http://54.235.29.9/FacialAge/BNav_EC2/DepthDuration/v2_depth_duration_MTurk/v2_DepthDuration_HTML.html#91,91,1280,800,1280,800,8-20-2022,10-44-31,4,depth_duration_stimuli/001132_2014-06-17_14-48-54_260595134347_rgbf000100-resize_2/001132_2014-06-17_14-48-54_260595134347_rgbf000100-resize_2-target.png,250,3.753,7,3122,253,feet,jsons/v1_VE250_randls_10.json,659282,1240103,61,Woman
4,602527,DepthScenes,duration_manipulation_targetAtFixation,jsons/v1_VE250_randls_10.json,http://54.235.29.9/FacialAge/BNav_EC2/DepthDuration/v2_depth_duration_MTurk/v2_DepthDuration_HTML.html#91,91,1280,800,1280,800,8-20-2022,10-44-31,5,depth_duration_stimuli/000522_2014-06-08_13-35-06_260595134347_rgbf000244-resize_1/000522_2014-06-08_13-35-06_260595134347_rgbf000244-resize_1-target.png,250,2.3715,0,3939,251,feet,jsons/v1_VE250_randls_10.json,659282,1240103,61,Woman
5,602527,DepthScenes,duration_manipulation_targetAtFixation,jsons/v1_VE250_randls_10.json,http://54.235.29.9/FacialAge/BNav_EC2/DepthDuration/v2_depth_duration_MTurk/v2_DepthDuration_HTML.html#91,91,1280,800,1280,800,8-20-2022,10-44-31,6,depth_duration_stimuli/002949_2014-06-26_15-57-42_094959634447_rgbf000079-resize_1/002949_2014-06-26_15-57-42_094959634447_rgbf000079-resize_1-target.png,250,1.8915,3,4146,256,feet,jsons/v1_VE250_randls_10.json,659282,1240103,61,Woman
6,602527,DepthScenes,duration_manipulation_targetAtFixation,jsons/v1_VE250_randls_10.json,http://54.235.29.9/FacialAge/BNav_EC2/DepthDuration/v2_depth_duration_MTurk/v2_DepthDuration_HTML.html#91,91,1280,800,1280,800,8-20-2022,10-44-31,7,depth_duration_stimuli/001055_2014-06-08_18-45-35_260595134347_rgbf000111-resize_4/001055_2014-06-08_18-45-35_260595134347_rgbf000111-resize_4-target.png,250,2.4290000000000003,6,3373,254,feet,jsons/v1_VE250_randls_10.json,659282,1240103,61,Woman
7,602527,DepthScenes,duration_manipulation_targetAtFixation,jsons/v1_VE250_randls_10.json,http://54.235.29.9/FacialAge/BNav_EC2/DepthDuration/v2_depth_duration_MTurk/v2_DepthDuration_HTML.html#91,91,1280,800,1280,800,8-20-2022,10-44-31,8,depth_duration_stimuli/000549_2014-06-08_22-10-24_260595134347_rgbf000247-resize_3/000549_2014-06-08_22-10-24_260595134347_rgbf000247-resize_3-target.png,250,1.841,2,3002,251,feet,jsons/v1_VE250_randls_10.json,659282,1240103,61,Woman
8,602527,DepthScenes,duration_manipulation_targetAtFixation,jsons/v1_VE250_randls_10.json,http://54.235.29.9/FacialAge/BNav_EC2/DepthDuration/v2_depth_duration_MTurk/v2_DepthDuration_HTML.html#91,91,1280,800,1280,800,8-20-2022,10-44-31,9,depth_duration_stimuli/002964_2014-06-08_17-46-11_094959634447_rgbf000091-resize_4/002964_2014-06-08_17-46-11_094959634447_rgbf000091-resize_4-target.png,250,1.6909999999999998,3,2652,256,feet,jsons/v1_VE250_randls_10.json,659282,1240103,61,Woman
9,602527,DepthScenes,duration_manipulation_targetAtFixation,jsons/v1_VE250_randls_10.json,http://54.235.29.9/FacialAge/BNav_EC2/DepthDuration/v2_depth_duration_MTurk/v2_DepthDuration_HTML.html#91,91,1280,800,1280,800,8-20-2022,10-44-31,10,depth_duration_stimuli/002136_2014-06-25_21-18-03_260595134347_rgbf000109-resize_3/002136_2014-06-25_21-18-03_260595134347_rgbf000109-resize_3-target.png,250,1.9569999999999999,4,2508,243,feet,jsons/v1_VE250_randls_10.json,659282,1240103,61,Woman
10,602527,DepthScenes,duration_manipulation_targetAtFixation,jsons/v1_VE250_randls_10.json,http://54.235.29.9/FacialAge/BNav_EC2/DepthDuration/v2_depth_duration_MTurk/v2_DepthDuration_HTML.html#91,91,1280,800,1280,800,8-20-2022,10-44-31,11,depth_duration_stimuli/002375_2014-06-28_20-13-44_260595134347_rgbf000032-resize_1/002375_2014-06-28_20-13-44_260595134347_rgbf000032-resize_1-target.png,250,4.0175,6,3197,249,feet,jsons/v1_VE250_randls_10.json,659282,1240103,61,Woman
11,602527,DepthScenes,duration_manipulation_targetAtFixation,jsons/v1_VE250_randls_10.json,http://54.235.29.9/FacialAge/BNav_EC2/DepthDuration/v2_depth_duration_MTurk/v2_DepthDuration_HTML.html#91,91,1280,800,1280,800,8-20-2022,10-44-31,12,depth_duration_stimuli/002657_2014-06-13_15-29-54_094959634447_rgbf000150-resize_1/002657_2014-06-13_15-29-54_094959634447_rgbf000150-resize_1-target.png,250,4.919,10,3067,245,feet,jsons/v1_VE250_randls_10.json,659282,1240103,61,Woman
12,602527,DepthScenes,duration_manipulation_targetAtFixation,jsons/v1_VE250_randls_10.json,http://54.235.29.9/FacialAge/BNav_EC2/DepthDuration/v2_depth_duration_MTurk/v2_DepthDuration_HTML.html#91,91,1280,800,1280,800,8-20-2022,10-44-31,13,depth_duration_stimuli/000569_2014-06-09_22-51-47_260595134347_rgbf000141-resize_3/000569_2014-06-09_22-51-47_260595134347_rgbf000141-resize-original.jpg,250,4.512,0,3148,241,feet,jsons/v1_VE250_randls_10.json,659282,1240103,61,Woman
13,602527,DepthScenes,duration_manipulation_targetAtFixation,jsons/v1_VE250_randls_10.json,http://54.235.29.9/FacialAge/BNav_EC2/DepthDuration/v2_depth_duration_MTurk/v2_DepthDuration_HTML.html#91,91,1280,800,1280,800,8-20-2022,10-44-31,14,depth_duration_stimuli/001808_2014-06-26_20-50-58_260595134347_rgbf000029-resize_1/001808_2014-06-26_20-50-58_260595134347_rgbf000029-resize_1-target.png,250,4.249,9,4773,249,feet,jsons/v1_VE250_randls_10.json,659282,1240103,61,Woman
14,602527,DepthScenes,duration_manipulation_targetAtFixation,jsons/v1_VE250_randls_10.json,http://54.235.29.9/FacialAge/BNav_EC2/DepthDuration/v2_depth_duration_MTurk/v2_DepthDuration_HTML.html#91,91,1280,800,1280,800,8-20-2022,10-44-31,15,depth_duration_stimuli/001815_2014-06-26_20-52-55_260595134347_rgbf000020-resize_0/001815_2014-06-26_20-52-55_260595134347_rgbf000020-resize_0-target.png,250,3.3865,15,4858,245,feet,jsons/v1_VE250_randls_10.json,659282,1240103,61,Woman
15,602527,DepthScenes,duration_manipulation_targetAtFixation,jsons/v1_VE250_randls_10.json,http://54.235.29.9/FacialAge/BNav_EC2/DepthDuration/v2_depth_duration_MTurk/v2_DepthDuration_HTML.html#91,91,1280,800,1280,800,8-20-2022,10-44-31,16,depth_duration_stimuli/001066_2014-06-08_22-03-20_260595134347_rgbf000066-resize_4/001066_2014-06-08_22-03-20_260595134347_rgbf000066-resize_4-target.png,250,4.2330000000000005,10,4264,252,feet,jsons/v1_VE250_randls_10.json,659282,1240103,61,Woman
16,602527,DepthScenes,duration_manipulation_targetAtFixation,jsons/v1_VE250_randls_10.json,http://54.235.29.9/FacialAge/BNav_EC2/DepthDuration/v2_depth_duration_MTurk/v2_DepthDuration_HTML.html#91,91,1280,800,1280,800,8-20-2022,10-44-31,17,depth_duration_stimuli/000742_2014-06-08_18-48-09_260595134347_rgbf000164-resize_4/000742_2014-06-08_18-48-09_260595134347_rgbf000164-resize_4-target.png,250,4.632,12,3745,245,feet,jsons/v1_VE250_randls_10.json,659282,1240103,61,Woman
17,602527,DepthScenes,duration_manipulation_targetAtFixation,jsons/v1_VE250_randls_10.json,http://54.235.29.9/FacialAge/BNav_EC2/DepthDuration/v2_depth_duration_MTurk/v2_DepthDuration_HTML.html#91,91,1280,800,1280,800,8-20-2022,10-44-31,18,depth_duration_stimuli/001417_2014-06-19_16-25-36_260595134347_rgbf000115-resize_5/001417_2014-06-19_16-25-36_260595134347_rgbf000115-resize_5-target.png,250,4.6255,9,3854,250,feet,jsons/v1_VE250_randls_10.json,659282,1240103,61,Woman
18,602527,DepthScenes,duration_manipulation_targetAtFixation,jsons/v1_VE250_randls_10.json,http://54.235.29.9/FacialAge/BNav_EC2/DepthDuration/v2_depth_duration_MTurk/v2_DepthDuration_HTML.html#91,91,1280,800,1280,800,8-20-2022,10-44-31,19,depth_duration_stimuli/003081_2014-06-15_15-19-16_094959634447_rgbf000150-resize_1/003081_2014-06-15_15-19-16_094959634447_rgbf000150-resize_1-target.png,250,3.9125,10,4027,251,feet,jsons/v1_VE250_randls_10.json,659282,1240103,61,Woman
19,602527,DepthScenes,duration_manipulation_targetAtFixation,jsons/v1_VE250_randls_10.json,http://54.235.29.9/FacialAge/BNav_EC2/DepthDuration/v2_depth_duration_MTurk/v2_DepthDuration_HTML.html#91,91,1280,800,1280,800,8-20-2022,10-44-31,20,depth_duration_stimuli/000642_2014-06-08_16-59-25_260595134347_rgbf000098-resize_2/000642_2014-06-08_16-59-25_260595134347_rgbf000098-resize_2-target.png,250,2.8815,0,3403,271,feet,jsons/v1_VE250_randls_10.json,659282,1240103,61,Woman
20,602527,DepthScenes,duration_manipulation_targetAtFixation,jsons/v1_VE250_randls_10.json,http://54.235.29.9/FacialAge/BNav_EC2/DepthDuration/v2_depth_duration_MTurk/v2_DepthDuration_HTML.html#91,91,1280,800,1280,800,8-20-2022,10-44-31,21,depth_duration_stimuli/002425_2014-06-28_20-27-29_260595134347_rgbf000031-resize_8/002425_2014-06-28_20-27-29_260595134347_rgbf000031-resize_8-target.png,250,3.8960000000000004,9,3573,249,feet,jsons/v1_VE250_randls_10.json,659282,1240103,61,Woman
21,602527,DepthScenes,duration_manipulation_targetAtFixation,jsons/v1_VE250_randls_10.json,http://54.235.29.9/FacialAge/BNav_EC2/DepthDuration/v2_depth_duration_MTurk/v2_DepthDuration_HTML.html#91,91,1280,800,1280,800,8-20-2022,10-44-31,22,depth_duration_stimuli/002784_2014-06-22_19-26-30_094959634447_rgbf000083-resize_3/002784_2014-06-22_19-26-30_094959634447_rgbf000083-resize_3-target.png,250,1.8046666666667,4,3444,249,feet,jsons/v1_VE250_randls_10.json,659282,1240103,61,Woman
22,602527,DepthScenes,duration_manipulation_targetAtFixation,jsons/v1_VE250_randls_10.json,http://54.235.29.9/FacialAge/BNav_EC2/DepthDuration/v2_depth_duration_MTurk/v2_DepthDuration_HTML.html#91,91,1280,800,1280,800,8-20-2022,10-44-31,23,depth_duration_stimuli/001100_2014-06-15_17-46-26_260595134347_rgbf000225-resize_2/001100_2014-06-15_17-46-26_260595134347_rgbf000225-resize_2-target.png,250,2.24,0,4479,501,feet,jsons/v1_VE250_randls_10.json,659282,1240103,61,Woman
23,602527,DepthScenes,duration_manipulation_targetAtFixation,jsons/v1_VE250_randls_10.json,http://54.235.29.9/FacialAge/BNav_EC2/DepthDuration/v2_depth_duration_MTurk/v2_DepthDuration_HTML.html#91,91,1280,800,1280,800,8-20-2022,10-44-31,24,depth_duration_stimuli/000470_2014-06-09_19-42-40_260595134347_rgbf000094-resize_1/000470_2014-06-09_19-42-40_260595134347_rgbf000094-resize_1-target.png,250,1.831,0,2790,300,feet,jsons/v1_VE250_randls_10.json,659282,1240103,61,Woman
24,602527,DepthScenes,duration_manipulation_targetAtFixation,jsons/v1_VE250_randls_10.json,http://54.235.29.9/FacialAge/BNav_EC2/DepthDuration/v2_depth_duration_MTurk/v2_DepthDuration_HTML.html#91,91,1280,800,1280,800,8-20-2022,10-44-31,25,depth_duration_stimuli/000109_2014-05-14_23-41-52_260595134347_rgbf000035-resize_9/000109_2014-05-14_23-41-52_260595134347_rgbf000035-resize_9-target.png,250,1.3545,2,2852,250,feet,jsons/v1_VE250_randls_10.json,659282,1240103,61,Woman
25,602527,DepthScenes,duration_manipulation_targetAtFixation,jsons/v1_VE250_randls_10.json,http://54.235.29.9/FacialAge/BNav_EC2/DepthDuration/v2_depth_duration_MTurk/v2_DepthDuration_HTML.html#91,91,1280,800,1280,800,8-20-2022,10-44-31,26,depth_duration_stimuli/001555_2014-06-20_17-12-10_260595134347_rgbf000065-resize_4/001555_2014-06-20_17-12-10_260595134347_rgbf000065-resize_4-target.png,250,1.633,2,3116,247,feet,jsons/v1_VE250_randls_10.json,659282,1240103,61,Woman
26,602527,DepthScenes,duration_manipulation_targetAtFixation,jsons/v1_VE250_randls_10.json,http://54.235.29.9/FacialAge/BNav_EC2/DepthDuration/v2_depth_duration_MTurk/v2_DepthDuration_HTML.html#91,91,1280,800,1280,800,8-20-2022,10-44-31,27,depth_duration_stimuli/000103_2014-05-14_22-01-17_260595134347_rgbf000152-resize_5/000103_2014-05-14_22-01-17_260595134347_rgbf000152-resize_5-target.png,250,1.993,5,2767,249,feet,jsons/v1_VE250_randls_10.json,659282,1240103,61,Woman
27,602527,DepthScenes,duration_manipulation_targetAtFixation,jsons/v1_VE250_randls_10.json,http://54.235.29.9/FacialAge/BNav_EC2/DepthDuration/v2_depth_duration_MTurk/v2_DepthDuration_HTML.html#91,91,1280,800,1280,800,8-20-2022,10-44-31,28,depth_duration_stimuli/001110_2014-06-15_17-25-28_260595134347_rgbf000150-resize_1/001110_2014-06-15_17-25-28_260595134347_rgbf000150-resize_1-target.png,250,1.7115,3,2651,246,feet,jsons/v1_VE250_randls_10.json,659282,1240103,61,Woman
28,602527,DepthScenes,duration_manipulation_targetAtFixation,jsons/v1_VE250_randls_10.json,http://54.235.29.9/FacialAge/BNav_EC2/DepthDuration/v2_depth_duration_MTurk/v2_DepthDuration_HTML.html#91,91,1280,800,1280,800,8-20-2022,10-44-31,29,depth_duration_stimuli/000927_2014-06-09_16-32-30_260595134347_rgbf000123-resize_3/000927_2014-06-09_16-32-30_260595134347_rgbf000123-resize_3-target.png,250,2.6785,6,4141,244,feet,jsons/v1_VE250_randls_10.json,659282,1240103,61,Woman
29,602527,DepthScenes,duration_manipulation_targetAtFixation,jsons/v1_VE250_randls_10.json,http://54.235.29.9/FacialAge/BNav_EC2/DepthDuration/v2_depth_duration_MTurk/v2_DepthDuration_HTML.html#91,91,1280,800,1280,800,8-20-2022,10-44-31,30,depth_duration_stimuli/000375_2014-06-08_11-17-29_260595134347_rgbf000133-resize_2/000375_2014-06-08_11-17-29_260595134347_rgbf000133-resize-original.jpg,250,4.718,0,2600,247,feet,jsons/v1_VE250_randls_10.json,659282,1240103,61,Woman
30,602527,DepthScenes,duration_manipulation_targetAtFixation,jsons/v1_VE250_randls_10.json,http://54.235.29.9/FacialAge/BNav_EC2/DepthDuration/v2_depth_duration_MTurk/v2_DepthDuration_HTML.html#91,91,1280,800,1280,800,8-20-2022,10-44-31,31,depth_duration_stimuli/003292_2014-05-14_21-53-49_094959634447_rgbf000100-resize_2/003292_2014-05-14_21-53-49_094959634447_rgbf000100-resize_2-target.png,250,3.4815,5,2566,251,feet,jsons/v1_VE250_randls_10.json,659282,1240103,61,Woman
31,602527,DepthScenes,duration_manipulation_targetAtFixation,jsons/v1_VE250_randls_10.json,http://54.235.29.9/FacialAge/BNav_EC2/DepthDuration/v2_depth_duration_MTurk/v2_DepthDuration_HTML.html#91,91,1280,800,1280,800,8-20-2022,10-44-31,32,depth_duration_stimuli/002639_2014-06-24_14-51-37_094959634447_rgbf000074-resize_4/002639_2014-06-24_14-51-37_094959634447_rgbf000074-resize_4-target.png,250,4.0375,11,4192,256,feet,jsons/v1_VE250_randls_10.json,659282,1240103,61,Woman
32,602527,DepthScenes,duration_manipulation_targetAtFixation,jsons/v1_VE250_randls_10.json,http://54.235.29.9/FacialAge/BNav_EC2/DepthDuration/v2_depth_duration_MTurk/v2_DepthDuration_HTML.html#91,91,1280,800,1280,800,8-20-2022,10-44-31,33,depth_duration_stimuli/000368_2014-06-09_15-53-01_260595134347_rgbf000155-resize_2/000368_2014-06-09_15-53-01_260595134347_rgbf000155-resize_2-target.png,250,2.4859999999999998,5,3851,249,feet,jsons/v1_VE250_randls_10.json,659282,1240103,61,Woman
33,602527,DepthScenes,duration_manipulation_targetAtFixation,jsons/v1_VE250_randls_10.json,http://54.235.29.9/FacialAge/BNav_EC2/DepthDuration/v2_depth_duration_MTurk/v2_DepthDuration_HTML.html#91,91,1280,800,1280,800,8-20-2022,10-44-31,34,depth_duration_stimuli/002678_2014-06-13_16-15-32_094959634447_rgbf000151-resize_6/002678_2014-06-13_16-15-32_094959634447_rgbf000151-resize_6-target.png,250,2.1830000000000003,11,3570,253,feet,jsons/v1_VE250_randls_10.json,659282,1240103,61,Woman
34,602527,DepthScenes,duration_manipulation_targetAtFixation,jsons/v1_VE250_randls_10.json,http://54.235.29.9/FacialAge/BNav_EC2/DepthDuration/v2_depth_duration_MTurk/v2_DepthDuration_HTML.html#91,91,1280,800,1280,800,8-20-2022,10-44-31,35,depth_duration_stimuli/001570_2014-06-20_17-21-09_260595134347_rgbf000135-resize_4/001570_2014-06-20_17-21-09_260595134347_rgbf000135-resize_4-target.png,250,4.467,16,4164,254,feet,jsons/v1_VE250_randls_10.json,659282,1240103,61,Woman
35,602527,DepthScenes,duration_manipulation_targetAtFixation,jsons/v1_VE250_randls_10.json,http://54.235.29.9/FacialAge/BNav_EC2/DepthDuration/v2_depth_duration_MTurk/v2_DepthDuration_HTML.html#91,91,1280,800,1280,800,8-20-2022,10-44-31,36,depth_duration_stimuli/001392_2014-06-19_16-07-59_260595134347_rgbf000046-resize_1/001392_2014-06-19_16-07-59_260595134347_rgbf000046-resize_1-target.png,250,4.135,12,3468,253,feet,jsons/v1_VE250_randls_10.json,659282,1240103,61,Woman
36,602527,DepthScenes,duration_manipulation_targetAtFixation,jsons/v1_VE250_randls_10.json,http://54.235.29.9/FacialAge/BNav_EC2/DepthDuration/v2_depth_duration_MTurk/v2_DepthDuration_HTML.html#91,91,1280,800,1280,800,8-20-2022,10-44-31,37,depth_duration_stimuli/001167_2014-06-17_15-38-07_260595134347_rgbf000108-resize_0/001167_2014-06-17_15-38-07_260595134347_rgbf000108-resize_0-target.png,250,1.8505,3,2809,249,feet,jsons/v1_VE250_randls_10.json,659282,1240103,61,Woman
37,602527,DepthScenes,duration_manipulation_targetAtFixation,jsons/v1_VE250_randls_10.json,http://54.235.29.9/FacialAge/BNav_EC2/DepthDuration/v2_depth_duration_MTurk/v2_DepthDuration_HTML.html#91,91,1280,800,1280,800,8-20-2022,10-44-31,38,depth_duration_stimuli/003587_2014-05-23_16-48-02_094959634447_rgbf002384-resize_2/003587_2014-05-23_16-48-02_094959634447_rgbf002384-resize_2-target.png,250,1.357,2,4014,245,feet,jsons/v1_VE250_randls_10.json,659282,1240103,61,Woman
38,602527,DepthScenes,duration_manipulation_targetAtFixation,jsons/v1_VE250_randls_10.json,http://54.235.29.9/FacialAge/BNav_EC2/DepthDuration/v2_depth_duration_MTurk/v2_DepthDuration_HTML.html#91,91,1280,800,1280,800,8-20-2022,10-44-31,39,depth_duration_stimuli/000486_2014-06-09_20-47-20_260595134347_rgbf000143-resize_2/000486_2014-06-09_20-47-20_260595134347_rgbf000143-resize_2-target.png,250,4.8325,4,2887,250,feet,jsons/v1_VE250_randls_10.json,659282,1240103,61,Woman
39,602527,DepthScenes,duration_manipulation_targetAtFixation,jsons/v1_VE250_randls_10.json,http://54.235.29.9/FacialAge/BNav_EC2/DepthDuration/v2_depth_duration_MTurk/v2_DepthDuration_HTML.html#91,91,1280,800,1280,800,8-20-2022,10-44-31,40,depth_duration_stimuli/003083_2014-06-15_15-21-03_094959634447_rgbf000063-resize_1/003083_2014-06-15_15-21-03_094959634447_rgbf000063-resize_1-target.png,250,4.1405,10,9300,246,feet,jsons/v1_VE250_randls_10.json,659282,1240103,61,Woman
40,602527,DepthScenes,duration_manipulation_targetAtFixation,jsons/v1_VE250_randls_10.json,http://54.235.29.9/FacialAge/BNav_EC2/DepthDuration/v2_depth_duration_MTurk/v2_DepthDuration_HTML.html#91,91,1280,800,1280,800,8-20-2022,10-44-31,41,depth_duration_stimuli/000810_2014-06-08_17-20-01_260595134347_rgbf000105-resize_0/000810_2014-06-08_17-20-01_260595134347_rgbf000105-resize_0-target.png,250,1.4865,4,3097,250,feet,jsons/v1_VE250_randls_10.json,659282,1240103,61,Woman
41,602527,DepthScenes,duration_manipulation_targetAtFixation,jsons/v1_VE250_randls_10.json,http://54.235.29.9/FacialAge/BNav_EC2/DepthDuration/v2_depth_duration_MTurk/v2_DepthDuration_HTML.html#91,91,1280,800,1280,800,8-20-2022,10-44-31,42,depth_duration_stimuli/001214_2014-06-17_16-13-55_260595134347_rgbf000111-resize_0/001214_2014-06-17_16-13-55_260595134347_rgbf000111-resize_0-target.png,250,2.6505,3,2671,242,feet,jsons/v1_VE250_randls_10.json,659282,1240103,61,Woman
42,602527,DepthScenes,duration_manipulation_targetAtFixation,jsons/v1_VE250_randls_10.json,http://54.235.29.9/FacialAge/BNav_EC2/DepthDuration/v2_depth_duration_MTurk/v2_DepthDuration_HTML.html#91,91,1280,800,1280,800,8-20-2022,10-44-31,43,depth_duration_stimuli/000692_2014-06-08_13-09-42_260595134347_rgbf000199-resize_2/000692_2014-06-08_13-09-42_260595134347_rgbf000199-resize_2-target.png,250,3.661,12,3709,286,feet,jsons/v1_VE250_randls_10.json,659282,1240103,61,Woman
43,602527,DepthScenes,duration_manipulation_targetAtFixation,jsons/v1_VE250_randls_10.json,http://54.235.29.9/FacialAge/BNav_EC2/DepthDuration/v2_depth_duration_MTurk/v2_DepthDuration_HTML.html#91,91,1280,800,1280,800,8-20-2022,10-44-31,44,depth_duration_stimuli/001094_2014-06-15_17-36-00_260595134347_rgbf000205-resize_0/001094_2014-06-15_17-36-00_260595134347_rgbf000205-resize_0-target.png,250,4.2175,8,3031,243,feet,jsons/v1_VE250_randls_10.json,659282,1240103,61,Woman
44,602527,DepthScenes,duration_manipulation_targetAtFixation,jsons/v1_VE250_randls_10.json,http://54.235.29.9/FacialAge/BNav_EC2/DepthDuration/v2_depth_duration_MTurk/v2_DepthDuration_HTML.html#91,91,1280,800,1280,800,8-20-2022,10-44-31,45,depth_duration_stimuli/000787_2014-06-08_22-33-53_260595134347_rgbf000175-resize_1/000787_2014-06-08_22-33-53_260595134347_rgbf000175-resize-original.jpg,250,4.784,0,2959,249,feet,jsons/v1_VE250_randls_10.json,659282,1240103,61,Woman
45,602527,DepthScenes,duration_manipulation_targetAtFixation,jsons/v1_VE250_randls_10.json,http://54.235.29.9/FacialAge/BNav_EC2/DepthDuration/v2_depth_duration_MTurk/v2_DepthDuration_HTML.html#91,91,1280,800,1280,800,8-20-2022,10-44-31,46,depth_duration_stimuli/003534_2014-05-22_15-06-10_094959634447_rgbf000102-resize_4/003534_2014-05-22_15-06-10_094959634447_rgbf000102-resize_4-target.png,250,1.426,2,2884,256,feet,jsons/v1_VE250_randls_10.json,659282,1240103,61,Woman
46,602527,DepthScenes,duration_manipulation_targetAtFixation,jsons/v1_VE250_randls_10.json,http://54.235.29.9/FacialAge/BNav_EC2/DepthDuration/v2_depth_duration_MTurk/v2_DepthDuration_HTML.html#91,91,1280,800,1280,800,8-20-2022,10-44-31,47,depth_duration_stimuli/002637_2014-06-24_14-51-13_094959634447_rgbf000066-resize_4/002637_2014-06-24_14-51-13_094959634447_rgbf000066-resize_4-target.png,250,1.9955,0,3212,240,feet,jsons/v1_VE250_randls_10.json,659282,1240103,61,Woman
47,602527,DepthScenes,duration_manipulation_targetAtFixation,jsons/v1_VE250_randls_10.json,http://54.235.29.9/FacialAge/BNav_EC2/DepthDuration/v2_depth_duration_MTurk/v2_DepthDuration_HTML.html#91,91,1280,800,1280,800,8-20-2022,10-44-31,48,depth_duration_stimuli/000493_2014-06-09_21-01-18_260595134347_rgbf000196-resize_3/000493_2014-06-09_21-01-18_260595134347_rgbf000196-resize_3-target.png,250,3.44,5,3102,241,feet,jsons/v1_VE250_randls_10.json,659282,1240103,61,Woman
48,602527,DepthScenes,duration_manipulation_targetAtFixation,jsons/v1_VE250_randls_10.json,http://54.235.29.9/FacialAge/BNav_EC2/DepthDuration/v2_depth_duration_MTurk/v2_DepthDuration_HTML.html#91,91,1280,800,1280,800,8-20-2022,10-44-31,49,depth_duration_stimuli/000191_2014-05-12_17-07-38_260595134347_rgbf000199-resize_0/000191_2014-05-12_17-07-38_260595134347_rgbf000199-resize_0-target.png,250,3.7995,11,4412,251,feet,jsons/v1_VE250_randls_10.json,659282,1240103,61,Woman
49,602527,DepthScenes,duration_manipulation_targetAtFixation,jsons/v1_VE250_randls_10.json,http://54.235.29.9/FacialAge/BNav_EC2/DepthDuration/v2_depth_duration_MTurk/v2_DepthDuration_HTML.html#91,91,1280,800,1280,800,8-20-2022,10-44-31,50,depth_duration_stimuli/001056_2014-06-08_18-46-44_260595134347_rgbf000068-resize_0/001056_2014-06-08_18-46-44_260595134347_rgbf000068-resize_0-target.png,250,2.6625,5,2894,250,feet,jsons/v1_VE250_randls_10.json,659282,1240103,61,Woman
50,602527,DepthScenes,duration_manipulation_targetAtFixation,jsons/v1_VE250_randls_10.json,http://54.235.29.9/FacialAge/BNav_EC2/DepthDuration/v2_depth_duration_MTurk/v2_DepthDuration_HTML.html#91,91,1280,800,1280,800,8-20-2022,10-44-31,51,depth_duration_stimuli/002199_2014-06-28_18-33-56_260595134347_rgbf000074-resize_0/002199_2014-06-28_18-33-56_260595134347_rgbf000074-resize_0-target.png,250,1.996,2,3176,254,feet,jsons/v1_VE250_randls_10.json,659282,1240103,61,Woman
51,602527,DepthScenes,duration_manipulation_targetAtFixation,jsons/v1_VE250_randls_10.json,http://54.235.29.9/FacialAge/BNav_EC2/DepthDuration/v2_depth_duration_MTurk/v2_DepthDuration_HTML.html#91,91,1280,800,1280,800,8-20-2022,10-44-31,52,depth_duration_stimuli/001449_2014-06-19_17-01-27_260595134347_rgbf000116-resize_2/001449_2014-06-19_17-01-27_260595134347_rgbf000116-resize_2-target.png,250,3.452,6,4212,240,feet,jsons/v1_VE250_randls_10.json,659282,1240103,61,Woman
52,602527,DepthScenes,duration_manipulation_targetAtFixation,jsons/v1_VE250_randls_10.json,http://54.235.29.9/FacialAge/BNav_EC2/DepthDuration/v2_depth_duration_MTurk/v2_DepthDuration_HTML.html#91,91,1280,800,1280,800,8-20-2022,10-44-31,53,depth_duration_stimuli/001450_2014-06-19_17-02-03_260595134347_rgbf000203-resize_4/001450_2014-06-19_17-02-03_260595134347_rgbf000203-resize_4-target.png,250,4.0106666666667,8,4123,252,feet,jsons/v1_VE250_randls_10.json,659282,1240103,61,Woman
53,602527,DepthScenes,duration_manipulation_targetAtFixation,jsons/v1_VE250_randls_10.json,http://54.235.29.9/FacialAge/BNav_EC2/DepthDuration/v2_depth_duration_MTurk/v2_DepthDuration_HTML.html#91,91,1280,800,1280,800,8-20-2022,10-44-31,54,depth_duration_stimuli/002663_2014-06-13_15-50-26_094959634447_rgbf000075-resize_1/002663_2014-06-13_15-50-26_094959634447_rgbf000075-resize_1-target.png,250,4.7495,8,4380,255,feet,jsons/v1_VE250_randls_10.json,659282,1240103,61,Woman
54,602527,DepthScenes,duration_manipulation_targetAtFixation,jsons/v1_VE250_randls_10.json,http://54.235.29.9/FacialAge/BNav_EC2/DepthDuration/v2_depth_duration_MTurk/v2_DepthDuration_HTML.html#91,91,1280,800,1280,800,8-20-2022,10-44-31,55,depth_duration_stimuli/000409_2014-06-04_19-23-33_260595134347_rgbf000067-resize_0/000409_2014-06-04_19-23-33_260595134347_rgbf000067-resize_0-target.png,250,3.7335,7,4449,243,feet,jsons/v1_VE250_randls_10.json,659282,1240103,61,Woman
55,602527,DepthScenes,duration_manipulation_targetAtFixation,jsons/v1_VE250_randls_10.json,http://54.235.29.9/FacialAge/BNav_EC2/DepthDuration/v2_depth_duration_MTurk/v2_DepthDuration_HTML.html#91,91,1280,800,1280,800,8-20-2022,10-44-31,56,depth_duration_stimuli/002788_2014-06-22_19-36-03_094959634447_rgbf000088-resize_2/002788_2014-06-22_19-36-03_094959634447_rgbf000088-resize_2-target.png,250,1.6465,5,2977,256,feet,jsons/v1_VE250_randls_10.json,659282,1240103,61,Woman
56,602527,DepthScenes,duration_manipulation_targetAtFixation,jsons/v1_VE250_randls_10.json,http://54.235.29.9/FacialAge/BNav_EC2/DepthDuration/v2_depth_duration_MTurk/v2_DepthDuration_HTML.html#91,91,1280,800,1280,800,8-20-2022,10-44-31,57,depth_duration_stimuli/000749_2014-06-08_21-55-06_260595134347_rgbf000070-resize_2/000749_2014-06-08_21-55-06_260595134347_rgbf000070-resize_2-target.png,250,2.331,4,2972,250,feet,jsons/v1_VE250_randls_10.json,659282,1240103,61,Woman
57,602527,DepthScenes,duration_manipulation_targetAtFixation,jsons/v1_VE250_randls_10.json,http://54.235.29.9/FacialAge/BNav_EC2/DepthDuration/v2_depth_duration_MTurk/v2_DepthDuration_HTML.html#91,91,1280,800,1280,800,8-20-2022,10-44-31,58,depth_duration_stimuli/000436_2014-06-09_22-25-11_260595134347_rgbf000137-resize_1/000436_2014-06-09_22-25-11_260595134347_rgbf000137-resize_1-target.png,250,4.0705,11,3759,249,feet,jsons/v1_VE250_randls_10.json,659282,1240103,61,Woman
58,602527,DepthScenes,duration_manipulation_targetAtFixation,jsons/v1_VE250_randls_10.json,http://54.235.29.9/FacialAge/BNav_EC2/DepthDuration/v2_depth_duration_MTurk/v2_DepthDuration_HTML.html#91,91,1280,800,1280,800,8-20-2022,10-44-31,59,depth_duration_stimuli/002444_2014-06-28_20-32-08_260595134347_rgbf000027-resize_0/002444_2014-06-28_20-32-08_260595134347_rgbf000027-resize_0-target.png,250,4.388999999999999,5,3180,246,feet,jsons/v1_VE250_randls_10.json,659282,1240103,61,Woman
59,602527,DepthScenes,duration_manipulation_targetAtFixation,jsons/v1_VE250_randls_10.json,http://54.235.29.9/FacialAge/BNav_EC2/DepthDuration/v2_depth_duration_MTurk/v2_DepthDuration_HTML.html#91,91,1280,800,1280,800,8-20-2022,10-44-31,60,depth_duration_stimuli/000878_2014-06-08_22-52-45_260595134347_rgbf000045-resize_2/000878_2014-06-08_22-52-45_260595134347_rgbf000045-resize_2-target.png,250,2.092,3,3355,242,feet,jsons/v1_VE250_randls_10.json,659282,1240103,61,Woman
60,602527,DepthScenes,duration_manipulation_targetAtFixation,jsons/v1_VE250_randls_10.json,http://54.235.29.9/FacialAge/BNav_EC2/DepthDuration/v2_depth_duration_MTurk/v2_DepthDuration_HTML.html#91,91,1280,800,1280,800,8-20-2022,10-44-31,61,depth_duration_stimuli/002953_2014-06-08_17-32-18_094959634447_rgbf000059-resize_5/002953_2014-06-08_17-32-18_094959634447_rgbf000059-resize_5-target.png,250,1.551,2,3945,247,feet,jsons/v1_VE250_randls_10.json,659282,1240103,61,Woman
61,602527,DepthScenes,duration_manipulation_targetAtFixation,jsons/v1_VE250_randls_10.json,http://54.235.29.9/FacialAge/BNav_EC2/DepthDuration/v2_depth_duration_MTurk/v2_DepthDuration_HTML.html#91,91,1280,800,1280,800,8-20-2022,10-44-31,62,depth_duration_stimuli/002213_2014-06-28_18-37-58_260595134347_rgbf000055-resize_1/002213_2014-06-28_18-37-58_260595134347_rgbf000055-resize_1-target.png,250,3.62,9,3999,249,feet,jsons/v1_VE250_randls_10.json,659282,1240103,61,Woman
62,602527,DepthScenes,duration_manipulation_targetAtFixation,jsons/v1_VE250_randls_10.json,http://54.235.29.9/FacialAge/BNav_EC2/DepthDuration/v2_depth_duration_MTurk/v2_DepthDuration_HTML.html#91,91,1280,800,1280,800,8-20-2022,10-44-31,63,depth_duration_stimuli/000691_2014-06-08_13-08-50_260595134347_rgbf000132-resize_3/000691_2014-06-08_13-08-50_260595134347_rgbf000132-resize_3-target.png,250,4.1530000000000005,7,3382,257,feet,jsons/v1_VE250_randls_10.json,659282,1240103,61,Woman
63,602527,DepthScenes,duration_manipulation_targetAtFixation,jsons/v1_VE250_randls_10.json,http://54.235.29.9/FacialAge/BNav_EC2/DepthDuration/v2_depth_duration_MTurk/v2_DepthDuration_HTML.html#91,91,1280,800,1280,800,8-20-2022,10-44-31,64,depth_duration_stimuli/001158_2014-06-17_15-32-16_260595134347_rgbf000138-resize_2/001158_2014-06-17_15-32-16_260595134347_rgbf000138-resize_2-target.png,250,4.5315,8,4016,243,feet,jsons/v1_VE250_randls_10.json,659282,1240103,61,Woman
64,602527,DepthScenes,duration_manipulation_targetAtFixation,jsons/v1_VE250_randls_10.json,http://54.235.29.9/FacialAge/BNav_EC2/DepthDuration/v2_depth_duration_MTurk/v2_DepthDuration_HTML.html#91,91,1280,800,1280,800,8-20-2022,10-44-31,65,depth_duration_stimuli/000556_2014-06-09_22-42-56_260595134347_rgbf000214-resize_1/000556_2014-06-09_22-42-56_260595134347_rgbf000214-resize_1-target.png,250,4.8415,8,5027,255,feet,jsons/v1_VE250_randls_10.json,659282,1240103,61,Woman
65,602527,DepthScenes,duration_manipulation_targetAtFixation,jsons/v1_VE250_randls_10.json,http://54.235.29.9/FacialAge/BNav_EC2/DepthDuration/v2_depth_duration_MTurk/v2_DepthDuration_HTML.html#91,91,1280,800,1280,800,8-20-2022,10-44-31,66,depth_duration_stimuli/001222_2014-06-17_16-24-06_260595134347_rgbf000073-resize_0/001222_2014-06-17_16-24-06_260595134347_rgbf000073-resize-original.jpg,250,1.4385,0,2921,256,feet,jsons/v1_VE250_randls_10.json,659282,1240103,61,Woman
66,602527,DepthScenes,duration_manipulation_targetAtFixation,jsons/v1_VE250_randls_10.json,http://54.235.29.9/FacialAge/BNav_EC2/DepthDuration/v2_depth_duration_MTurk/v2_DepthDuration_HTML.html#91,91,1280,800,1280,800,8-20-2022,10-44-31,67,depth_duration_stimuli/000773_2014-06-08_22-24-54_260595134347_rgbf000093-resize_1/000773_2014-06-08_22-24-54_260595134347_rgbf000093-resize_1-target.png,250,4.973,6,3844,242,feet,jsons/v1_VE250_randls_10.json,659282,1240103,61,Woman
67,602527,DepthScenes,duration_manipulation_targetAtFixation,jsons/v1_VE250_randls_10.json,http://54.235.29.9/FacialAge/BNav_EC2/DepthDuration/v2_depth_duration_MTurk/v2_DepthDuration_HTML.html#91,91,1280,800,1280,800,8-20-2022,10-44-31,68,depth_duration_stimuli/002414_2014-06-28_20-24-58_260595134347_rgbf000067-resize_4/002414_2014-06-28_20-24-58_260595134347_rgbf000067-resize_4-target.png,250,4.363,12,4418,249,feet,jsons/v1_VE250_randls_10.json,659282,1240103,61,Woman
68,602527,DepthScenes,duration_manipulation_targetAtFixation,jsons/v1_VE250_randls_10.json,http://54.235.29.9/FacialAge/BNav_EC2/DepthDuration/v2_depth_duration_MTurk/v2_DepthDuration_HTML.html#91,91,1280,800,1280,800,8-20-2022,10-44-31,69,depth_duration_stimuli/001806_2014-06-26_20-50-20_260595134347_rgbf000091-resize_1/001806_2014-06-26_20-50-20_260595134347_rgbf000091-resize_1-target.png,250,2.7305,3,2887,250,feet,jsons/v1_VE250_randls_10.json,659282,1240103,61,Woman
69,602527,DepthScenes,duration_manipulation_targetAtFixation,jsons/v1_VE250_randls_10.json,http://54.235.29.9/FacialAge/BNav_EC2/DepthDuration/v2_depth_duration_MTurk/v2_DepthDuration_HTML.html#91,91,1280,800,1280,800,8-20-2022,10-44-31,70,depth_duration_stimuli/001617_2014-06-20_11-35-32_260595134347_rgbf000066-resize_1/001617_2014-06-20_11-35-32_260595134347_rgbf000066-resize_1-target.png,250,3.7910000000000004,5,3482,247,feet,jsons/v1_VE250_randls_10.json,659282,1240103,61,Woman
70,602527,DepthScenes,duration_manipulation_targetAtFixation,jsons/v1_VE250_randls_10.json,http://54.235.29.9/FacialAge/BNav_EC2/DepthDuration/v2_depth_duration_MTurk/v2_DepthDuration_HTML.html#91,91,1280,800,1280,800,8-20-2022,10-44-31,71,depth_duration_stimuli/002988_2014-06-15_12-24-20_094959634447_rgbf000150-resize_1/002988_2014-06-15_12-24-20_094959634447_rgbf000150-resize_1-target.png,250,4.7669999999999995,8,4123,248,feet,jsons/v1_VE250_randls_10.json,659282,1240103,61,Woman
71,602527,DepthScenes,duration_manipulation_targetAtFixation,jsons/v1_VE250_randls_10.json,http://54.235.29.9/FacialAge/BNav_EC2/DepthDuration/v2_depth_duration_MTurk/v2_DepthDuration_HTML.html#91,91,1280,800,1280,800,8-20-2022,10-44-31,72,depth_duration_stimuli/001052_2014-06-08_18-24-54_260595134347_rgbf000130-resize_1/001052_2014-06-08_18-24-54_260595134347_rgbf000130-resize_1-target.png,250,4.1045,6,3024,256,feet,jsons/v1_VE250_randls_10.json,659282,1240103,61,Woman
72,602527,DepthScenes,duration_manipulation_targetAtFixation,jsons/v1_VE250_randls_10.json,http://54.235.29.9/FacialAge/BNav_EC2/DepthDuration/v2_depth_duration_MTurk/v2_DepthDuration_HTML.html#91,91,1280,800,1280,800,8-20-2022,10-44-31,73,depth_duration_stimuli/001059_2014-06-08_21-53-27_260595134347_rgbf000061-resize_4/001059_2014-06-08_21-53-27_260595134347_rgbf000061-resize_4-target.png,250,2.4185,5,3364,248,feet,jsons/v1_VE250_randls_10.json,659282,1240103,61,Woman
73,602527,DepthScenes,duration_manipulation_targetAtFixation,jsons/v1_VE250_randls_10.json,http://54.235.29.9/FacialAge/BNav_EC2/DepthDuration/v2_depth_duration_MTurk/v2_DepthDuration_HTML.html#91,91,1280,800,1280,800,8-20-2022,10-44-31,74,depth_duration_stimuli/001032_2014-06-08_13-23-17_260595134347_rgbf000021-resize_3/001032_2014-06-08_13-23-17_260595134347_rgbf000021-resize_3-target.png,250,3.2725,4,3150,248,feet,jsons/v1_VE250_randls_10.json,659282,1240103,61,Woman
74,602527,DepthScenes,duration_manipulation_targetAtFixation,jsons/v1_VE250_randls_10.json,http://54.235.29.9/FacialAge/BNav_EC2/DepthDuration/v2_depth_duration_MTurk/v2_DepthDuration_HTML.html#91,91,1280,800,1280,800,8-20-2022,10-44-31,75,depth_duration_stimuli/002118_2014-06-25_20-32-08_260595134347_rgbf000078-resize_1/002118_2014-06-25_20-32-08_260595134347_rgbf000078-resize_1-target.png,250,2.6460000000000004,4,5217,243,feet,jsons/v1_VE250_randls_10.json,659282,1240103,61,Woman
75,602527,DepthScenes,duration_manipulation_targetAtFixation,jsons/v1_VE250_randls_10.json,http://54.235.29.9/FacialAge/BNav_EC2/DepthDuration/v2_depth_duration_MTurk/v2_DepthDuration_HTML.html#91,91,1280,800,1280,800,8-20-2022,10-44-31,76,depth_duration_stimuli/001516_2014-06-20_16-25-09_260595134347_rgbf000076-resize_2/001516_2014-06-20_16-25-09_260595134347_rgbf000076-resize_2-target.png,250,1.7445,4,3184,254,feet,jsons/v1_VE250_randls_10.json,659282,1240103,61,Woman
76,602527,DepthScenes,duration_manipulation_targetAtFixation,jsons/v1_VE250_randls_10.json,http://54.235.29.9/FacialAge/BNav_EC2/DepthDuration/v2_depth_duration_MTurk/v2_DepthDuration_HTML.html#91,91,1280,800,1280,800,8-20-2022,10-44-31,77,depth_duration_stimuli/002057_2014-06-24_21-00-13_260595134347_rgbf000120-resize_1/002057_2014-06-24_21-00-13_260595134347_rgbf000120-resize_1-target.png,250,2.967,7,3633,255,feet,jsons/v1_VE250_randls_10.json,659282,1240103,61,Woman
77,602527,DepthScenes,duration_manipulation_targetAtFixation,jsons/v1_VE250_randls_10.json,http://54.235.29.9/FacialAge/BNav_EC2/DepthDuration/v2_depth_duration_MTurk/v2_DepthDuration_HTML.html#91,91,1280,800,1280,800,8-20-2022,10-44-31,78,depth_duration_stimuli/000709_2014-06-08_13-51-55_260595134347_rgbf000068-resize_3/000709_2014-06-08_13-51-55_260595134347_rgbf000068-resize_3-target.png,250,1.8030000000000002,4,3005,247,feet,jsons/v1_VE250_randls_10.json,659282,1240103,61,Woman
78,602527,DepthScenes,duration_manipulation_targetAtFixation,jsons/v1_VE250_randls_10.json,http://54.235.29.9/FacialAge/BNav_EC2/DepthDuration/v2_depth_duration_MTurk/v2_DepthDuration_HTML.html#91,91,1280,800,1280,800,8-20-2022,10-44-31,79,depth_duration_stimuli/000929_2014-06-09_16-33-19_260595134347_rgbf000139-resize_0/000929_2014-06-09_16-33-19_260595134347_rgbf000139-resize_0-target.png,250,2.8680000000000003,5,2827,249,feet,jsons/v1_VE250_randls_10.json,659282,1240103,61,Woman
79,602527,DepthScenes,duration_manipulation_targetAtFixation,jsons/v1_VE250_randls_10.json,http://54.235.29.9/FacialAge/BNav_EC2/DepthDuration/v2_depth_duration_MTurk/v2_DepthDuration_HTML.html#91,91,1280,800,1280,800,8-20-2022,10-44-31,80,depth_duration_stimuli/000457_2014-06-08_16-52-43_260595134347_rgbf000199-resize_1/000457_2014-06-08_16-52-43_260595134347_rgbf000199-resize_1-target.png,250,3.6489999999999996,4,3088,247,feet,jsons/v1_VE250_randls_10.json,659282,1240103,61,Woman
80,602527,DepthScenes,duration_manipulation_targetAtFixation,jsons/v1_VE250_randls_10.json,http://54.235.29.9/FacialAge/BNav_EC2/DepthDuration/v2_depth_duration_MTurk/v2_DepthDuration_HTML.html#91,91,1280,800,1280,800,8-20-2022,10-44-31,81,depth_duration_stimuli/000009_2014-05-26_14-32-05_260595134347_rgbf000034-resize_3/000009_2014-05-26_14-32-05_260595134347_rgbf000034-resize_3-target.png,250,3.8715,8,8128,249,feet,jsons/v1_VE250_randls_10.json,659282,1240103,61,Woman
81,602527,DepthScenes,duration_manipulation_targetAtFixation,jsons/v1_VE250_randls_10.json,http://54.235.29.9/FacialAge/BNav_EC2/DepthDuration/v2_depth_duration_MTurk/v2_DepthDuration_HTML.html#91,91,1280,800,1280,800,8-20-2022,10-44-31,82,depth_duration_stimuli/001828_2014-06-26_21-40-03_260595134347_rgbf000024-resize_0/001828_2014-06-26_21-40-03_260595134347_rgbf000024-resize_0-target.png,250,4.8260000000000005,4,3161,245,feet,jsons/v1_VE250_randls_10.json,659282,1240103,61,Woman
82,602527,DepthScenes,duration_manipulation_targetAtFixation,jsons/v1_VE250_randls_10.json,http://54.235.29.9/FacialAge/BNav_EC2/DepthDuration/v2_depth_duration_MTurk/v2_DepthDuration_HTML.html#91,91,1280,800,1280,800,8-20-2022,10-44-31,83,depth_duration_stimuli/002272_2014-06-28_18-53-56_260595134347_rgbf000067-resize_2/002272_2014-06-28_18-53-56_260595134347_rgbf000067-resize_2-target.png,250,1.138,3,3116,255,feet,jsons/v1_VE250_randls_10.json,659282,1240103,61,Woman
83,602527,DepthScenes,duration_manipulation_targetAtFixation,jsons/v1_VE250_randls_10.json,http://54.235.29.9/FacialAge/BNav_EC2/DepthDuration/v2_depth_duration_MTurk/v2_DepthDuration_HTML.html#91,91,1280,800,1280,800,8-20-2022,10-44-31,84,depth_duration_stimuli/001571_2014-06-20_17-21-32_260595134347_rgbf000089-resize_1/001571_2014-06-20_17-21-32_260595134347_rgbf000089-resize_1-target.png,250,1.86,0,2985,249,feet,jsons/v1_VE250_randls_10.json,659282,1240103,61,Woman
84,602527,DepthScenes,duration_manipulation_targetAtFixation,jsons/v1_VE250_randls_10.json,http://54.235.29.9/FacialAge/BNav_EC2/DepthDuration/v2_depth_duration_MTurk/v2_DepthDuration_HTML.html#91,91,1280,800,1280,800,8-20-2022,10-44-31,85,depth_duration_stimuli/002043_2014-06-24_20-29-38_260595134347_rgbf000039-resize_4/002043_2014-06-24_20-29-38_260595134347_rgbf000039-resize_4-target.png,250,2.8435,4,3078,245,feet,jsons/v1_VE250_randls_10.json,659282,1240103,61,Woman
85,602527,DepthScenes,duration_manipulation_targetAtFixation,jsons/v1_VE250_randls_10.json,http://54.235.29.9/FacialAge/BNav_EC2/DepthDuration/v2_depth_duration_MTurk/v2_DepthDuration_HTML.html#91,91,1280,800,1280,800,8-20-2022,10-44-31,86,depth_duration_stimuli/003048_2014-06-15_13-49-43_094959634447_rgbf000150-resize_1/003048_2014-06-15_13-49-43_094959634447_rgbf000150-resize_1-target.png,250,4.0035,6,3708,250,feet,jsons/v1_VE250_randls_10.json,659282,1240103,61,Woman
86,602527,DepthScenes,duration_manipulation_targetAtFixation,jsons/v1_VE250_randls_10.json,http://54.235.29.9/FacialAge/BNav_EC2/DepthDuration/v2_depth_duration_MTurk/v2_DepthDuration_HTML.html#91,91,1280,800,1280,800,8-20-2022,10-44-31,87,depth_duration_stimuli/002630_2014-06-24_14-47-50_094959634447_rgbf000055-resize_1/002630_2014-06-24_14-47-50_094959634447_rgbf000055-resize_1-target.png,250,3.0095,7,3823,243,feet,jsons/v1_VE250_randls_10.json,659282,1240103,61,Woman
87,602527,DepthScenes,duration_manipulation_targetAtFixation,jsons/v1_VE250_randls_10.json,http://54.235.29.9/FacialAge/BNav_EC2/DepthDuration/v2_depth_duration_MTurk/v2_DepthDuration_HTML.html#91,91,1280,800,1280,800,8-20-2022,10-44-31,88,depth_duration_stimuli/002758_2014-06-22_19-11-20_094959634447_rgbf000128-resize_1/002758_2014-06-22_19-11-20_094959634447_rgbf000128-resize_1-target.png,250,2.555,5,2722,246,feet,jsons/v1_VE250_randls_10.json,659282,1240103,61,Woman
88,602527,DepthScenes,duration_manipulation_targetAtFixation,jsons/v1_VE250_randls_10.json,http://54.235.29.9/FacialAge/BNav_EC2/DepthDuration/v2_depth_duration_MTurk/v2_DepthDuration_HTML.html#91,91,1280,800,1280,800,8-20-2022,10-44-31,89,depth_duration_stimuli/001150_2014-06-17_15-27-34_260595134347_rgbf000108-resize_2/001150_2014-06-17_15-27-34_260595134347_rgbf000108-resize_2-target.png,250,4.0325,6,2828,251,feet,jsons/v1_VE250_randls_10.json,659282,1240103,61,Woman
89,602527,DepthScenes,duration_manipulation_targetAtFixation,jsons/v1_VE250_randls_10.json,http://54.235.29.9/FacialAge/BNav_EC2/DepthDuration/v2_depth_duration_MTurk/v2_DepthDuration_HTML.html#91,91,1280,800,1280,800,8-20-2022,10-44-31,90,depth_duration_stimuli/000665_2014-06-09_20-42-35_260595134347_rgbf000110-resize_1/000665_2014-06-09_20-42-35_260595134347_rgbf000110-resize_1-target.png,250,3.057,5,3965,245,feet,jsons/v1_VE250_randls_10.json,659282,1240103,61,Woman
90,602527,DepthScenes,duration_manipulation_targetAtFixation,jsons/v1_VE250_randls_10.json,http://54.235.29.9/FacialAge/BNav_EC2/DepthDuration/v2_depth_duration_MTurk/v2_DepthDuration_HTML.html#91,91,1280,800,1280,800,8-20-2022,10-44-31,91,depth_duration_stimuli/000469_2014-06-09_19-42-10_260595134347_rgbf000081-resize_1/000469_2014-06-09_19-42-10_260595134347_rgbf000081-resize_1-target.png,250,1.652,3,2917,256,feet,jsons/v1_VE250_randls_10.json,659282,1240103,61,Woman
91,602527,DepthScenes,duration_manipulation_targetAtFixation,jsons/v1_VE250_randls_10.json,http://54.235.29.9/FacialAge/BNav_EC2/DepthDuration/v2_depth_duration_MTurk/v2_DepthDuration_HTML.html#91,91,1280,800,1280,800,8-20-2022,10-44-31,92,depth_duration_stimuli/000483_2014-06-09_20-41-45_260595134347_rgbf000116-resize_4/000483_2014-06-09_20-41-45_260595134347_rgbf000116-resize_4-target.png,250,1.337,2,3153,257,feet,jsons/v1_VE250_randls_10.json,659282,1240103,61,Woman
92,602527,DepthScenes,duration_manipulation_targetAtFixation,jsons/v1_VE250_randls_10.json,http://54.235.29.9/FacialAge/BNav_EC2/DepthDuration/v2_depth_duration_MTurk/v2_DepthDuration_HTML.html#91,91,1280,800,1280,800,8-20-2022,10-44-31,93,depth_duration_stimuli/002600_2014-06-24_14-27-04_094959634447_rgbf000074-resize_2/002600_2014-06-24_14-27-04_094959634447_rgbf000074-resize_2-target.png,250,2.7575,5,3794,251,feet,jsons/v1_VE250_randls_10.json,659282,1240103,61,Woman
93,602527,DepthScenes,duration_manipulation_targetAtFixation,jsons/v1_VE250_randls_10.json,http://54.235.29.9/FacialAge/BNav_EC2/DepthDuration/v2_depth_duration_MTurk/v2_DepthDuration_HTML.html#91,91,1280,800,1280,800,8-20-2022,10-44-31,94,depth_duration_stimuli/003228_2014-05-14_13-42-35_094959634447_rgbf000101-resize_1/003228_2014-05-14_13-42-35_094959634447_rgbf000101-resize_1-target.png,250,1.9680000000000002,3,2650,244,feet,jsons/v1_VE250_randls_10.json,659282,1240103,61,Woman
94,602527,DepthScenes,duration_manipulation_targetAtFixation,jsons/v1_VE250_randls_10.json,http://54.235.29.9/FacialAge/BNav_EC2/DepthDuration/v2_depth_duration_MTurk/v2_DepthDuration_HTML.html#91,91,1280,800,1280,800,8-20-2022,10-44-31,95,depth_duration_stimuli/001011_2014-06-08_23-18-54_260595134347_rgbf000044-resize_4/001011_2014-06-08_23-18-54_260595134347_rgbf000044-resize_4-target.png,250,2.4730000000000003,5,2861,250,feet,jsons/v1_VE250_randls_10.json,659282,1240103,61,Woman
95,602527,DepthScenes,duration_manipulation_targetAtFixation,jsons/v1_VE250_randls_10.json,http://54.235.29.9/FacialAge/BNav_EC2/DepthDuration/v2_depth_duration_MTurk/v2_DepthDuration_HTML.html#91,91,1280,800,1280,800,8-20-2022,10-44-31,96,depth_duration_stimuli/002875_2014-06-01_15-19-00_094959634447_rgbf000151-resize_1/002875_2014-06-01_15-19-00_094959634447_rgbf000151-resize_1-target.png,250,1.9675,3,3323,244,feet,jsons/v1_VE250_randls_10.json,659282,1240103,61,Woman
96,602527,DepthScenes,duration_manipulation_targetAtFixation,jsons/v1_VE250_randls_10.json,http://54.235.29.9/FacialAge/BNav_EC2/DepthDuration/v2_depth_duration_MTurk/v2_DepthDuration_HTML.html#91,91,1280,800,1280,800,8-20-2022,10-44-31,97,depth_duration_stimuli/002279_2014-06-28_18-55-32_260595134347_rgbf000040-resize_5/002279_2014-06-28_18-55-32_260595134347_rgbf000040-resize_5-target.png,250,1.5043333333333,3,2527,244,feet,jsons/v1_VE250_randls_10.json,659282,1240103,61,Woman
97,602527,DepthScenes,duration_manipulation_targetAtFixation,jsons/v1_VE250_randls_10.json,http://54.235.29.9/FacialAge/BNav_EC2/DepthDuration/v2_depth_duration_MTurk/v2_DepthDuration_HTML.html#91,91,1280,800,1280,800,8-20-2022,10-44-31,98,depth_duration_stimuli/000635_2014-06-08_16-38-42_260595134347_rgbf000106-resize_1/000635_2014-06-08_16-38-42_260595134347_rgbf000106-resize_1-target.png,250,2.074,4,2708,253,feet,jsons/v1_VE250_randls_10.json,659282,1240103,61,Woman
98,602527,DepthScenes,duration_manipulation_targetAtFixation,jsons/v1_VE250_randls_10.json,http://54.235.29.9/FacialAge/BNav_EC2/DepthDuration/v2_depth_duration_MTurk/v2_DepthDuration_HTML.html#91,91,1280,800,1280,800,8-20-2022,10-44-31,99,depth_duration_stimuli/001540_2014-06-20_17-01-05_260595134347_rgbf000086-resize_2/001540_2014-06-20_17-01-05_260595134347_rgbf000086-resize-original.jpg,250,1.459,0,2769,245,feet,jsons/v1_VE250_randls_10.json,659282,1240103,61,Woman
99,602527,DepthScenes,duration_manipulation_targetAtFixation,jsons/v1_VE250_randls_10.json,http://54.235.29.9/FacialAge/BNav_EC2/DepthDuration/v2_depth_duration_MTurk/v2_DepthDuration_HTML.html#91,91,1280,800,1280,800,8-20-2022,10-44-31,100,depth_duration_stimuli/002989_2014-06-15_12-25-03_094959634447_rgbf000150-resize_3/002989_2014-06-15_12-25-03_094959634447_rgbf000150-resize_3-target.png,250,4.1975,0,6126,252,feet,jsons/v1_VE250_randls_10.json,659282,1240103,61,Woman
100,602527,DepthScenes,duration_manipulation_targetAtFixation,jsons/v1_VE250_randls_10.json,http://54.235.29.9/FacialAge/BNav_EC2/DepthDuration/v2_depth_duration_MTurk/v2_DepthDuration_HTML.html#91,91,1280,800,1280,800,8-20-2022,10-44-31,101,depth_duration_stimuli/000866_2014-06-09_20-45-42_260595134347_rgbf000139-resize_1/000866_2014-06-09_20-45-42_260595134347_rgbf000139-resize_1-target.png,250,3.2155,5,2928,247,feet,jsons/v1_VE250_randls_10.json,659282,1240103,61,Woman
101,602527,DepthScenes,duration_manipulation_targetAtFixation,jsons/v1_VE250_randls_10.json,http://54.235.29.9/FacialAge/BNav_EC2/DepthDuration/v2_depth_duration_MTurk/v2_DepthDuration_HTML.html#91,91,1280,800,1280,800,8-20-2022,10-44-31,102,depth_duration_stimuli/000447_2014-06-08_16-15-46_260595134347_rgbf000130-resize_1/000447_2014-06-08_16-15-46_260595134347_rgbf000130-resize_1-target.png,250,4.479,6,3123,243,feet,jsons/v1_VE250_randls_10.json,659282,1240103,61,Woman
102,602527,DepthScenes,duration_manipulation_targetAtFixation,jsons/v1_VE250_randls_10.json,http://54.235.29.9/FacialAge/BNav_EC2/DepthDuration/v2_depth_duration_MTurk/v2_DepthDuration_HTML.html#91,91,1280,800,1280,800,8-20-2022,10-44-31,103,depth_duration_stimuli/001447_2014-06-19_17-00-32_260595134347_rgbf000082-resize_5/001447_2014-06-19_17-00-32_260595134347_rgbf000082-resize_5-target.png,250,4.13775,4,2759,242,feet,jsons/v1_VE250_randls_10.json,659282,1240103,61,Woman
103,602527,DepthScenes,duration_manipulation_targetAtFixation,jsons/v1_VE250_randls_10.json,http://54.235.29.9/FacialAge/BNav_EC2/DepthDuration/v2_depth_duration_MTurk/v2_DepthDuration_HTML.html#91,91,1280,800,1280,800,8-20-2022,10-44-31,104,depth_duration_stimuli/001029_2014-06-08_13-17-57_260595134347_rgbf000065-resize_1/001029_2014-06-08_13-17-57_260595134347_rgbf000065-resize_1-target.png,250,3.0835,5,2549,248,feet,jsons/v1_VE250_randls_10.json,659282,1240103,61,Woman
104,602527,DepthScenes,duration_manipulation_targetAtFixation,jsons/v1_VE250_randls_10.json,http://54.235.29.9/FacialAge/BNav_EC2/DepthDuration/v2_depth_duration_MTurk/v2_DepthDuration_HTML.html#91,91,1280,800,1280,800,8-20-2022,10-44-31,105,depth_duration_stimuli/000677_2014-06-08_23-10-32_260595134347_rgbf000158-resize_6/000677_2014-06-08_23-10-32_260595134347_rgbf000158-resize_6-target.png,250,3.556,4,2892,253,feet,jsons/v1_VE250_randls_10.json,659282,1240103,61,Woman
105,602527,DepthScenes,duration_manipulation_targetAtFixation,jsons/v1_VE250_randls_10.json,http://54.235.29.9/FacialAge/BNav_EC2/DepthDuration/v2_depth_duration_MTurk/v2_DepthDuration_HTML.html#91,91,1280,800,1280,800,8-20-2022,10-44-31,106,depth_duration_stimuli/002509_2014-06-24_13-19-22_094959634447_rgbf000077-resize_0/002509_2014-06-24_13-19-22_094959634447_rgbf000077-resize_0-target.png,250,1.3065,3,5950,254,feet,jsons/v1_VE250_randls_10.json,659282,1240103,61,Woman
106,602527,DepthScenes,duration_manipulation_targetAtFixation,jsons/v1_VE250_randls_10.json,http://54.235.29.9/FacialAge/BNav_EC2/DepthDuration/v2_depth_duration_MTurk/v2_DepthDuration_HTML.html#91,91,1280,800,1280,800,8-20-2022,10-44-31,107,depth_duration_stimuli/003338_2014-05-20_11-01-23_094959634447_rgbf000051-resize_6/003338_2014-05-20_11-01-23_094959634447_rgbf000051-resize_6-target.png,250,1.693,4,2818,257,feet,jsons/v1_VE250_randls_10.json,659282,1240103,61,Woman
107,602527,DepthScenes,duration_manipulation_targetAtFixation,jsons/v1_VE250_randls_10.json,http://54.235.29.9/FacialAge/BNav_EC2/DepthDuration/v2_depth_duration_MTurk/v2_DepthDuration_HTML.html#91,91,1280,800,1280,800,8-20-2022,10-44-31,108,depth_duration_stimuli/000758_2014-06-08_22-05-08_260595134347_rgbf000085-resize_0/000758_2014-06-08_22-05-08_260595134347_rgbf000085-resize_0-target.png,250,3.3810000000000002,7,4367,249,feet,jsons/v1_VE250_randls_10.json,659282,1240103,61,Woman
108,602527,DepthScenes,duration_manipulation_targetAtFixation,jsons/v1_VE250_randls_10.json,http://54.235.29.9/FacialAge/BNav_EC2/DepthDuration/v2_depth_duration_MTurk/v2_DepthDuration_HTML.html#91,91,1280,800,1280,800,8-20-2022,10-44-31,109,depth_duration_stimuli/000854_2014-06-09_19-43-13_260595134347_rgbf000066-resize_0/000854_2014-06-09_19-43-13_260595134347_rgbf000066-resize_0-target.png,250,3.068,4,3003,240,feet,jsons/v1_VE250_randls_10.json,659282,1240103,61,Woman
109,602527,DepthScenes,duration_manipulation_targetAtFixation,jsons/v1_VE250_randls_10.json,http://54.235.29.9/FacialAge/BNav_EC2/DepthDuration/v2_depth_duration_MTurk/v2_DepthDuration_HTML.html#91,91,1280,800,1280,800,8-20-2022,10-44-31,110,depth_duration_stimuli/001810_2014-06-26_20-51-35_260595134347_rgbf000040-resize_3/001810_2014-06-26_20-51-35_260595134347_rgbf000040-resize_3-target.png,250,2.2525,4,2534,258,feet,jsons/v1_VE250_randls_10.json,659282,1240103,61,Woman
110,602527,DepthScenes,duration_manipulation_targetAtFixation,jsons/v1_VE250_randls_10.json,http://54.235.29.9/FacialAge/BNav_EC2/DepthDuration/v2_depth_duration_MTurk/v2_DepthDuration_HTML.html#91,91,1280,800,1280,800,8-20-2022,10-44-31,111,depth_duration_stimuli/003010_2014-06-15_12-54-35_094959634447_rgbf000112-resize_0/003010_2014-06-15_12-54-35_094959634447_rgbf000112-resize_0-target.png,250,3.1185,6,4617,248,feet,jsons/v1_VE250_randls_10.json,659282,1240103,61,Woman
111,602527,DepthScenes,duration_manipulation_targetAtFixation,jsons/v1_VE250_randls_10.json,http://54.235.29.9/FacialAge/BNav_EC2/DepthDuration/v2_depth_duration_MTurk/v2_DepthDuration_HTML.html#91,91,1280,800,1280,800,8-20-2022,10-44-31,112,depth_duration_stimuli/001199_2014-06-17_16-03-48_260595134347_rgbf000077-resize_0/001199_2014-06-17_16-03-48_260595134347_rgbf000077-resize_0-target.png,250,3.4375,7,3572,253,feet,jsons/v1_VE250_randls_10.json,659282,1240103,61,Woman
112,602527,DepthScenes,duration_manipulation_targetAtFixation,jsons/v1_VE250_randls_10.json,http://54.235.29.9/FacialAge/BNav_EC2/DepthDuration/v2_depth_duration_MTurk/v2_DepthDuration_HTML.html#91,91,1280,800,1280,800,8-20-2022,10-44-31,113,depth_duration_stimuli/000502_2014-06-08_23-02-32_260595134347_rgbf000063-resize_4/000502_2014-06-08_23-02-32_260595134347_rgbf000063-resize_4-target.png,250,2.431,4,2950,249,feet,jsons/v1_VE250_randls_10.json,659282,1240103,61,Woman
113,602527,DepthScenes,duration_manipulation_targetAtFixation,jsons/v1_VE250_randls_10.json,http://54.235.29.9/FacialAge/BNav_EC2/DepthDuration/v2_depth_duration_MTurk/v2_DepthDuration_HTML.html#91,91,1280,800,1280,800,8-20-2022,10-44-31,114,depth_duration_stimuli/002570_2014-06-24_13-59-54_094959634447_rgbf000059-resize_0/002570_2014-06-24_13-59-54_094959634447_rgbf000059-resize_0-target.png,250,4.037,5,3502,249,feet,jsons/v1_VE250_randls_10.json,659282,1240103,61,Woman
114,602527,DepthScenes,duration_manipulation_targetAtFixation,jsons/v1_VE250_randls_10.json,http://54.235.29.9/FacialAge/BNav_EC2/DepthDuration/v2_depth_duration_MTurk/v2_DepthDuration_HTML.html#91,91,1280,800,1280,800,8-20-2022,10-44-31,115,depth_duration_stimuli/002467_2014-06-28_20-38-07_260595134347_rgbf000026-resize_2/002467_2014-06-28_20-38-07_260595134347_rgbf000026-resize_2-target.png,250,4.742,5,4728,250,feet,jsons/v1_VE250_randls_10.json,659282,1240103,61,Woman
115,602527,DepthScenes,duration_manipulation_targetAtFixation,jsons/v1_VE250_randls_10.json,http://54.235.29.9/FacialAge/BNav_EC2/DepthDuration/v2_depth_duration_MTurk/v2_DepthDuration_HTML.html#91,91,1280,800,1280,800,8-20-2022,10-44-31,116,depth_duration_stimuli/001170_2014-06-17_15-43-44_260595134347_rgbf000096-resize_6/001170_2014-06-17_15-43-44_260595134347_rgbf000096-resize-original.jpg,250,1.1909999999999998,0,3883,257,feet,jsons/v1_VE250_randls_10.json,659282,1240103,61,Woman
116,602527,DepthScenes,duration_manipulation_targetAtFixation,jsons/v1_VE250_randls_10.json,http://54.235.29.9/FacialAge/BNav_EC2/DepthDuration/v2_depth_duration_MTurk/v2_DepthDuration_HTML.html#91,91,1280,800,1280,800,8-20-2022,10-44-31,117,depth_duration_stimuli/000682_2014-06-08_23-14-58_260595134347_rgbf000041-resize_5/000682_2014-06-08_23-14-58_260595134347_rgbf000041-resize_5-target.png,250,2.7239999999999998,5,3322,247,feet,jsons/v1_VE250_randls_10.json,659282,1240103,61,Woman
117,602527,DepthScenes,duration_manipulation_targetAtFixation,jsons/v1_VE250_randls_10.json,http://54.235.29.9/FacialAge/BNav_EC2/DepthDuration/v2_depth_duration_MTurk/v2_DepthDuration_HTML.html#91,91,1280,800,1280,800,8-20-2022,10-44-31,118,depth_duration_stimuli/001650_2014-06-20_12-09-00_260595134347_rgbf000087-resize_3/001650_2014-06-20_12-09-00_260595134347_rgbf000087-resize_3-target.png,250,1.9505,1,2975,249,feet,jsons/v1_VE250_randls_10.json,659282,1240103,61,Woman
118,602527,DepthScenes,duration_manipulation_targetAtFixation,jsons/v1_VE250_randls_10.json,http://54.235.29.9/FacialAge/BNav_EC2/DepthDuration/v2_depth_duration_MTurk/v2_DepthDuration_HTML.html#91,91,1280,800,1280,800,8-20-2022,10-44-31,119,depth_duration_stimuli/000739_2014-06-08_18-45-58_260595134347_rgbf000068-resize_1/000739_2014-06-08_18-45-58_260595134347_rgbf000068-resize_1-target.png,250,3.534,6,5230,249,feet,jsons/v1_VE250_randls_10.json,659282,1240103,61,Woman
119,602527,DepthScenes,duration_manipulation_targetAtFixation,jsons/v1_VE250_randls_10.json,http://54.235.29.9/FacialAge/BNav_EC2/DepthDuration/v2_depth_duration_MTurk/v2_DepthDuration_HTML.html#91,91,1280,800,1280,800,8-20-2022,10-44-31,120,depth_duration_stimuli/000734_2014-06-08_17-39-11_260595134347_rgbf000128-resize_2/000734_2014-06-08_17-39-11_260595134347_rgbf000128-resize_2-target.png,250,4.098,5,3504,249,feet,jsons/v1_VE250_randls_10.json,659282,1240103,61,Woman
120,602527,DepthScenes,duration_manipulation_targetAtFixation,jsons/v1_VE250_randls_10.json,http://54.235.29.9/FacialAge/BNav_EC2/DepthDuration/v2_depth_duration_MTurk/v2_DepthDuration_HTML.html#91,91,1280,800,1280,800,8-20-2022,10-44-31,121,depth_duration_stimuli/002725_2014-06-22_11-47-51_094959634447_rgbf000070-resize_1/002725_2014-06-22_11-47-51_094959634447_rgbf000070-resize_1-target.png,250,2.195,4,3285,253,feet,jsons/v1_VE250_randls_10.json,659282,1240103,61,Woman
121,602527,DepthScenes,duration_manipulation_targetAtFixation,jsons/v1_VE250_randls_10.json,http://54.235.29.9/FacialAge/BNav_EC2/DepthDuration/v2_depth_duration_MTurk/v2_DepthDuration_HTML.html#91,91,1280,800,1280,800,8-20-2022,10-44-31,122,depth_duration_stimuli/002344_2014-06-28_20-06-29_260595134347_rgbf000030-resize_1/002344_2014-06-28_20-06-29_260595134347_rgbf000030-resize_1-target.png,250,1.5795,2,2863,249,feet,jsons/v1_VE250_randls_10.json,659282,1240103,61,Woman
122,602527,DepthScenes,duration_manipulation_targetAtFixation,jsons/v1_VE250_randls_10.json,http://54.235.29.9/FacialAge/BNav_EC2/DepthDuration/v2_depth_duration_MTurk/v2_DepthDuration_HTML.html#91,91,1280,800,1280,800,8-20-2022,10-44-31,123,depth_duration_stimuli/000906_2014-06-08_13-35-43_260595134347_rgbf000155-resize_1/000906_2014-06-08_13-35-43_260595134347_rgbf000155-resize_1-target.png,250,2.8489999999999998,0,3540,247,feet,jsons/v1_VE250_randls_10.json,659282,1240103,61,Woman
123,602527,DepthScenes,duration_manipulation_targetAtFixation,jsons/v1_VE250_randls_10.json,http://54.235.29.9/FacialAge/BNav_EC2/DepthDuration/v2_depth_duration_MTurk/v2_DepthDuration_HTML.html#91,91,1280,800,1280,800,8-20-2022,10-44-31,124,depth_duration_stimuli/002805_2014-06-22_19-54-03_094959634447_rgbf000079-resize_1/002805_2014-06-22_19-54-03_094959634447_rgbf000079-resize_1-target.png,250,3.1439999999999997,5,2823,250,feet,jsons/v1_VE250_randls_10.json,659282,1240103,61,Woman
124,602527,DepthScenes,duration_manipulation_targetAtFixation,jsons/v1_VE250_randls_10.json,http://54.235.29.9/FacialAge/BNav_EC2/DepthDuration/v2_depth_duration_MTurk/v2_DepthDuration_HTML.html#91,91,1280,800,1280,800,8-20-2022,10-44-31,125,depth_duration_stimuli/003070_2014-06-15_14-58-27_094959634447_rgbf000150-resize_3/003070_2014-06-15_14-58-27_094959634447_rgbf000150-resize_3-target.png,250,2.9415,5,2905,250,feet,jsons/v1_VE250_randls_10.json,659282,1240103,61,Woman
125,602527,DepthScenes,duration_manipulation_targetAtFixation,jsons/v1_VE250_randls_10.json,http://54.235.29.9/FacialAge/BNav_EC2/DepthDuration/v2_depth_duration_MTurk/v2_DepthDuration_HTML.html#91,91,1280,800,1280,800,8-20-2022,10-44-31,126,depth_duration_stimuli/000943_2014-06-09_19-31-07_260595134347_rgbf000128-resize_1/000943_2014-06-09_19-31-07_260595134347_rgbf000128-resize_1-target.png,250,1.9765,4,3326,246,feet,jsons/v1_VE250_randls_10.json,659282,1240103,61,Woman
126,602527,DepthScenes,duration_manipulation_targetAtFixation,jsons/v1_VE250_randls_10.json,http://54.235.29.9/FacialAge/BNav_EC2/DepthDuration/v2_depth_duration_MTurk/v2_DepthDuration_HTML.html#91,91,1280,800,1280,800,8-20-2022,10-44-31,127,depth_duration_stimuli/002748_2014-06-22_19-07-22_094959634447_rgbf000078-resize_1/002748_2014-06-22_19-07-22_094959634447_rgbf000078-resize_1-target.png,250,4.6705,10,3842,250,feet,jsons/v1_VE250_randls_10.json,659282,1240103,61,Woman
127,602527,DepthScenes,duration_manipulation_targetAtFixation,jsons/v1_VE250_randls_10.json,http://54.235.29.9/FacialAge/BNav_EC2/DepthDuration/v2_depth_duration_MTurk/v2_DepthDuration_HTML.html#91,91,1280,800,1280,800,8-20-2022,10-44-31,128,depth_duration_stimuli/002995_2014-06-15_12-31-26_094959634447_rgbf000150-resize_1/002995_2014-06-15_12-31-26_094959634447_rgbf000150-resize_1-target.png,250,3.8360000000000003,6,3647,249,feet,jsons/v1_VE250_randls_10.json,659282,1240103,61,Woman
128,602527,DepthScenes,duration_manipulation_targetAtFixation,jsons/v1_VE250_randls_10.json,http://54.235.29.9/FacialAge/BNav_EC2/DepthDuration/v2_depth_duration_MTurk/v2_DepthDuration_HTML.html#91,91,1280,800,1280,800,8-20-2022,10-44-31,129,depth_duration_stimuli/000788_2014-06-08_22-34-36_260595134347_rgbf000131-resize_1/000788_2014-06-08_22-34-36_260595134347_rgbf000131-resize_1-target.png,250,3.359,4,3591,250,feet,jsons/v1_VE250_randls_10.json,659282,1240103,61,Woman
129,602527,DepthScenes,duration_manipulation_targetAtFixation,jsons/v1_VE250_randls_10.json,http://54.235.29.9/FacialAge/BNav_EC2/DepthDuration/v2_depth_duration_MTurk/v2_DepthDuration_HTML.html#91,91,1280,800,1280,800,8-20-2022,10-44-31,130,depth_duration_stimuli/001235_2014-06-17_16-37-36_260595134347_rgbf000084-resize_4/001235_2014-06-17_16-37-36_260595134347_rgbf000084-resize_4-target.png,250,3.6605,4,2576,250,feet,jsons/v1_VE250_randls_10.json,659282,1240103,61,Woman
130,602527,DepthScenes,duration_manipulation_targetAtFixation,jsons/v1_VE250_randls_10.json,http://54.235.29.9/FacialAge/BNav_EC2/DepthDuration/v2_depth_duration_MTurk/v2_DepthDuration_HTML.html#91,91,1280,800,1280,800,8-20-2022,10-44-31,131,depth_duration_stimuli/002549_2014-06-24_13-41-39_094959634447_rgbf000022-resize_3/002549_2014-06-24_13-41-39_094959634447_rgbf000022-resize_3-target.png,250,1.476,3,2389,251,feet,jsons/v1_VE250_randls_10.json,659282,1240103,61,Woman
131,602527,DepthScenes,duration_manipulation_targetAtFixation,jsons/v1_VE250_randls_10.json,http://54.235.29.9/FacialAge/BNav_EC2/DepthDuration/v2_depth_duration_MTurk/v2_DepthDuration_HTML.html#91,91,1280,800,1280,800,8-20-2022,10-44-31,132,depth_duration_stimuli/002750_2014-06-22_19-08-03_094959634447_rgbf000094-resize_4/002750_2014-06-22_19-08-03_094959634447_rgbf000094-resize_4-target.png,250,2.354,4,3409,242,feet,jsons/v1_VE250_randls_10.json,659282,1240103,61,Woman
132,602527,DepthScenes,duration_manipulation_targetAtFixation,jsons/v1_VE250_randls_10.json,http://54.235.29.9/FacialAge/BNav_EC2/DepthDuration/v2_depth_duration_MTurk/v2_DepthDuration_HTML.html#91,91,1280,800,1280,800,8-20-2022,10-44-31,133,depth_duration_stimuli/002445_2014-06-28_20-32-16_260595134347_rgbf000029-resize_4/002445_2014-06-28_20-32-16_260595134347_rgbf000029-resize_4-target.png,250,2.5315,5,3512,251,feet,jsons/v1_VE250_randls_10.json,659282,1240103,61,Woman
133,602527,DepthScenes,duration_manipulation_targetAtFixation,jsons/v1_VE250_randls_10.json,http://54.235.29.9/FacialAge/BNav_EC2/DepthDuration/v2_depth_duration_MTurk/v2_DepthDuration_HTML.html#91,91,1280,800,1280,800,8-20-2022,10-44-31,134,depth_duration_stimuli/000780_2014-06-08_22-28-29_260595134347_rgbf000126-resize_1/000780_2014-06-08_22-28-29_260595134347_rgbf000126-resize_1-target.png,250,3.3825,6,3414,244,feet,jsons/v1_VE250_randls_10.json,659282,1240103,61,Woman
134,602527,DepthScenes,duration_manipulation_targetAtFixation,jsons/v1_VE250_randls_10.json,http://54.235.29.9/FacialAge/BNav_EC2/DepthDuration/v2_depth_duration_MTurk/v2_DepthDuration_HTML.html#91,91,1280,800,1280,800,8-20-2022,10-44-31,135,depth_duration_stimuli/002072_2014-06-24_21-48-06_260595134347_rgbf000115-resize_0/002072_2014-06-24_21-48-06_260595134347_rgbf000115-resize-original.jpg,250,4.702,0,3235,255,feet,jsons/v1_VE250_randls_10.json,659282,1240103,61,Woman
135,602527,DepthScenes,duration_manipulation_targetAtFixation,jsons/v1_VE250_randls_10.json,http://54.235.29.9/FacialAge/BNav_EC2/DepthDuration/v2_depth_duration_MTurk/v2_DepthDuration_HTML.html#91,91,1280,800,1280,800,8-20-2022,10-44-31,136,depth_duration_stimuli/000414_2014-06-04_19-49-13_260595134347_rgbf000044-resize_0/000414_2014-06-04_19-49-13_260595134347_rgbf000044-resize_0-target.png,250,4.329,8,4585,250,feet,jsons/v1_VE250_randls_10.json,659282,1240103,61,Woman
136,602527,DepthScenes,duration_manipulation_targetAtFixation,jsons/v1_VE250_randls_10.json,http://54.235.29.9/FacialAge/BNav_EC2/DepthDuration/v2_depth_duration_MTurk/v2_DepthDuration_HTML.html#91,91,1280,800,1280,800,8-20-2022,10-44-31,137,depth_duration_stimuli/003129_2014-05-12_10-48-10_094959634447_rgbf000100-resize_0/003129_2014-05-12_10-48-10_094959634447_rgbf000100-resize_0-target.png,250,4.9305,10,3638,250,feet,jsons/v1_VE250_randls_10.json,659282,1240103,61,Woman
137,602527,DepthScenes,duration_manipulation_targetAtFixation,jsons/v1_VE250_randls_10.json,http://54.235.29.9/FacialAge/BNav_EC2/DepthDuration/v2_depth_duration_MTurk/v2_DepthDuration_HTML.html#91,91,1280,800,1280,800,8-20-2022,10-44-31,138,depth_duration_stimuli/000506_2014-06-08_23-21-00_260595134347_rgbf000070-resize_7/000506_2014-06-08_23-21-00_260595134347_rgbf000070-resize_7-target.png,250,4.0585,0,3006,250,feet,jsons/v1_VE250_randls_10.json,659282,1240103,61,Woman
138,602527,DepthScenes,duration_manipulation_targetAtFixation,jsons/v1_VE250_randls_10.json,http://54.235.29.9/FacialAge/BNav_EC2/DepthDuration/v2_depth_duration_MTurk/v2_DepthDuration_HTML.html#91,91,1280,800,1280,800,8-20-2022,10-44-31,139,depth_duration_stimuli/003079_2014-06-15_15-18-20_094959634447_rgbf000152-resize_8/003079_2014-06-15_15-18-20_094959634447_rgbf000152-resize_8-target.png,250,2.8775,6,3519,271,feet,jsons/v1_VE250_randls_10.json,659282,1240103,61,Woman
139,602527,DepthScenes,duration_manipulation_targetAtFixation,jsons/v1_VE250_randls_10.json,http://54.235.29.9/FacialAge/BNav_EC2/DepthDuration/v2_depth_duration_MTurk/v2_DepthDuration_HTML.html#91,91,1280,800,1280,800,8-20-2022,10-44-31,140,depth_duration_stimuli/003492_2014-05-21_15-50-55_094959634447_rgbf000828-resize_1/003492_2014-05-21_15-50-55_094959634447_rgbf000828-resize_1-target.png,250,4.06875,14,3715,250,feet,jsons/v1_VE250_randls_10.json,659282,1240103,61,Woman
140,602527,DepthScenes,duration_manipulation_targetAtFixation,jsons/v1_VE250_randls_10.json,http://54.235.29.9/FacialAge/BNav_EC2/DepthDuration/v2_depth_duration_MTurk/v2_DepthDuration_HTML.html#91,91,1280,800,1280,800,8-20-2022,10-44-31,141,depth_duration_stimuli/002568_2014-06-24_13-59-21_094959634447_rgbf000062-resize_4/002568_2014-06-24_13-59-21_094959634447_rgbf000062-resize_4-target.png,250,3.015,0,3110,249,feet,jsons/v1_VE250_randls_10.json,659282,1240103,61,Woman
141,602527,DepthScenes,duration_manipulation_targetAtFixation,jsons/v1_VE250_randls_10.json,http://54.235.29.9/FacialAge/BNav_EC2/DepthDuration/v2_depth_duration_MTurk/v2_DepthDuration_HTML.html#91,91,1280,800,1280,800,8-20-2022,10-44-31,142,depth_duration_stimuli/002763_2014-06-22_19-13-10_094959634447_rgbf000075-resize_4/002763_2014-06-22_19-13-10_094959634447_rgbf000075-resize_4-target.png,250,1.68375,3,2832,249,feet,jsons/v1_VE250_randls_10.json,659282,1240103,61,Woman
142,602527,DepthScenes,duration_manipulation_targetAtFixation,jsons/v1_VE250_randls_10.json,http://54.235.29.9/FacialAge/BNav_EC2/DepthDuration/v2_depth_duration_MTurk/v2_DepthDuration_HTML.html#91,91,1280,800,1280,800,8-20-2022,10-44-31,143,depth_duration_stimuli/002209_2014-06-28_18-36-10_260595134347_rgbf000051-resize_1/002209_2014-06-28_18-36-10_260595134347_rgbf000051-resize_1-target.png,250,2.057,4,2905,249,feet,jsons/v1_VE250_randls_10.json,659282,1240103,61,Woman
143,602527,DepthScenes,duration_manipulation_targetAtFixation,jsons/v1_VE250_randls_10.json,http://54.235.29.9/FacialAge/BNav_EC2/DepthDuration/v2_depth_duration_MTurk/v2_DepthDuration_HTML.html#91,91,1280,800,1280,800,8-20-2022,10-44-31,144,depth_duration_stimuli/002153_2014-06-25_21-27-18_260595134347_rgbf000038-resize_5/002153_2014-06-25_21-27-18_260595134347_rgbf000038-resize_5-target.png,250,2.505,5,3391,249,feet,jsons/v1_VE250_randls_10.json,659282,1240103,61,Woman
144,602527,DepthScenes,duration_manipulation_targetAtFixation,jsons/v1_VE250_randls_10.json,http://54.235.29.9/FacialAge/BNav_EC2/DepthDuration/v2_depth_duration_MTurk/v2_DepthDuration_HTML.html#91,91,1280,800,1280,800,8-20-2022,10-44-31,145,depth_duration_stimuli/002660_2014-06-13_15-44-18_094959634447_rgbf001878-resize_2/002660_2014-06-13_15-44-18_094959634447_rgbf001878-resize_2-target.png,250,3.576,0,2972,249,feet,jsons/v1_VE250_randls_10.json,659282,1240103,61,Woman
145,602527,DepthScenes,duration_manipulation_targetAtFixation,jsons/v1_VE250_randls_10.json,http://54.235.29.9/FacialAge/BNav_EC2/DepthDuration/v2_depth_duration_MTurk/v2_DepthDuration_HTML.html#91,91,1280,800,1280,800,8-20-2022,10-44-31,146,depth_duration_stimuli/001498_2014-06-19_17-45-14_260595134347_rgbf000129-resize_4/001498_2014-06-19_17-45-14_260595134347_rgbf000129-resize-original.jpg,250,1.4075,0,2337,242,feet,jsons/v1_VE250_randls_10.json,659282,1240103,61,Woman
146,602527,DepthScenes,duration_manipulation_targetAtFixation,jsons/v1_VE250_randls_10.json,http://54.235.29.9/FacialAge/BNav_EC2/DepthDuration/v2_depth_duration_MTurk/v2_DepthDuration_HTML.html#91,91,1280,800,1280,800,8-20-2022,10-44-31,147,depth_duration_stimuli/002039_2014-06-24_20-22-38_260595134347_rgbf000084-resize_1/002039_2014-06-24_20-22-38_260595134347_rgbf000084-resize_1-target.png,250,4.408,7,3866,246,feet,jsons/v1_VE250_randls_10.json,659282,1240103,61,Woman
147,602527,DepthScenes,duration_manipulation_targetAtFixation,jsons/v1_VE250_randls_10.json,http://54.235.29.9/FacialAge/BNav_EC2/DepthDuration/v2_depth_duration_MTurk/v2_DepthDuration_HTML.html#91,91,1280,800,1280,800,8-20-2022,10-44-31,148,depth_duration_stimuli/002103_2014-06-25_20-00-40_260595134347_rgbf000049-resize_0/002103_2014-06-25_20-00-40_260595134347_rgbf000049-resize_0-target.png,250,4.105,0,2859,254,feet,jsons/v1_VE250_randls_10.json,659282,1240103,61,Woman
148,602527,DepthScenes,duration_manipulation_targetAtFixation,jsons/v1_VE250_randls_10.json,http://54.235.29.9/FacialAge/BNav_EC2/DepthDuration/v2_depth_duration_MTurk/v2_DepthDuration_HTML.html#91,91,1280,800,1280,800,8-20-2022,10-44-31,149,depth_duration_stimuli/003621_2014-05-23_18-06-08_094959634447_rgbf000101-resize_1/003621_2014-05-23_18-06-08_094959634447_rgbf000101-resize_1-target.png,250,3.9835,0,2750,246,feet,jsons/v1_VE250_randls_10.json,659282,1240103,61,Woman
149,602527,DepthScenes,duration_manipulation_targetAtFixation,jsons/v1_VE250_randls_10.json,http://54.235.29.9/FacialAge/BNav_EC2/DepthDuration/v2_depth_duration_MTurk/v2_DepthDuration_HTML.html#91,91,1280,800,1280,800,8-20-2022,10-44-31,150,depth_duration_stimuli/001584_2014-06-20_11-07-43_260595134347_rgbf000002-resize_1/001584_2014-06-20_11-07-43_260595134347_rgbf000002-resize_1-target.png,250,3.53,5,2715,246,feet,jsons/v1_VE250_randls_10.json,659282,1240103,61,Woman
150,602527,DepthScenes,duration_manipulation_targetAtFixation,jsons/v1_VE250_randls_10.json,http://54.235.29.9/FacialAge/BNav_EC2/DepthDuration/v2_depth_duration_MTurk/v2_DepthDuration_HTML.html#91,91,1280,800,1280,800,8-20-2022,10-44-31,151,depth_duration_stimuli/001016_2014-06-09_16-16-10_260595134347_rgbf000112-resize_5/001016_2014-06-09_16-16-10_260595134347_rgbf000112-resize_5-target.png,250,1.6565,4,2910,242,feet,jsons/v1_VE250_randls_10.json,659282,1240103,61,Woman
151,602527,DepthScenes,duration_manipulation_targetAtFixation,jsons/v1_VE250_randls_10.json,http://54.235.29.9/FacialAge/BNav_EC2/DepthDuration/v2_depth_duration_MTurk/v2_DepthDuration_HTML.html#91,91,1280,800,1280,800,8-20-2022,10-44-31,152,depth_duration_stimuli/002340_2014-06-28_20-05-46_260595134347_rgbf000113-resize_0/002340_2014-06-28_20-05-46_260595134347_rgbf000113-resize_0-target.png,250,2.4735,0,3158,249,feet,jsons/v1_VE250_randls_10.json,659282,1240103,61,Woman
152,602527,DepthScenes,duration_manipulation_targetAtFixation,jsons/v1_VE250_randls_10.json,http://54.235.29.9/FacialAge/BNav_EC2/DepthDuration/v2_depth_duration_MTurk/v2_DepthDuration_HTML.html#91,91,1280,800,1280,800,8-20-2022,10-44-31,153,depth_duration_stimuli/000736_2014-06-08_18-24-15_260595134347_rgbf000206-resize_3/000736_2014-06-08_18-24-15_260595134347_rgbf000206-resize_3-target.png,250,3.515,6,2792,250,feet,jsons/v1_VE250_randls_10.json,659282,1240103,61,Woman
153,602527,DepthScenes,duration_manipulation_targetAtFixation,jsons/v1_VE250_randls_10.json,http://54.235.29.9/FacialAge/BNav_EC2/DepthDuration/v2_depth_duration_MTurk/v2_DepthDuration_HTML.html#91,91,1280,800,1280,800,8-20-2022,10-44-31,154,depth_duration_stimuli/000137_2014-05-20_17-04-49_260595134347_rgbf000120-resize_1/000137_2014-05-20_17-04-49_260595134347_rgbf000120-resize_1-target.png,250,3.786,5,7775,249,feet,jsons/v1_VE250_randls_10.json,659282,1240103,61,Woman
154,602527,DepthScenes,duration_manipulation_targetAtFixation,jsons/v1_VE250_randls_10.json,http://54.235.29.9/FacialAge/BNav_EC2/DepthDuration/v2_depth_duration_MTurk/v2_DepthDuration_HTML.html#91,91,1280,800,1280,800,8-20-2022,10-44-31,155,depth_duration_stimuli/001175_2014-06-17_15-45-55_260595134347_rgbf000129-resize_4/001175_2014-06-17_15-45-55_260595134347_rgbf000129-resize_4-target.png,250,4.255,10,3880,250,feet,jsons/v1_VE250_randls_10.json,659282,1240103,61,Woman
155,602527,DepthScenes,duration_manipulation_targetAtFixation,jsons/v1_VE250_randls_10.json,http://54.235.29.9/FacialAge/BNav_EC2/DepthDuration/v2_depth_duration_MTurk/v2_DepthDuration_HTML.html#91,91,1280,800,1280,800,8-20-2022,10-44-31,156,depth_duration_stimuli/003490_2014-05-21_15-50-11_094959634447_rgbf000101-resize_3/003490_2014-05-21_15-50-11_094959634447_rgbf000101-resize_3-target.png,250,3.6445,4,6031,250,feet,jsons/v1_VE250_randls_10.json,659282,1240103,61,Woman
156,602527,DepthScenes,duration_manipulation_targetAtFixation,jsons/v1_VE250_randls_10.json,http://54.235.29.9/FacialAge/BNav_EC2/DepthDuration/v2_depth_duration_MTurk/v2_DepthDuration_HTML.html#91,91,1280,800,1280,800,8-20-2022,10-44-31,157,depth_duration_stimuli/001164_2014-06-17_15-35-46_260595134347_rgbf000085-resize_3/001164_2014-06-17_15-35-46_260595134347_rgbf000085-resize_3-target.png,250,2.354,4,3124,249,feet,jsons/v1_VE250_randls_10.json,659282,1240103,61,Woman
157,602527,DepthScenes,duration_manipulation_targetAtFixation,jsons/v1_VE250_randls_10.json,http://54.235.29.9/FacialAge/BNav_EC2/DepthDuration/v2_depth_duration_MTurk/v2_DepthDuration_HTML.html#91,91,1280,800,1280,800,8-20-2022,10-44-31,158,depth_duration_stimuli/001136_2014-06-17_15-19-41_260595134347_rgbf000076-resize_3/001136_2014-06-17_15-19-41_260595134347_rgbf000076-resize_3-target.png,250,1.8655,5,2684,247,feet,jsons/v1_VE250_randls_10.json,659282,1240103,61,Woman
158,602527,DepthScenes,duration_manipulation_targetAtFixation,jsons/v1_VE250_randls_10.json,http://54.235.29.9/FacialAge/BNav_EC2/DepthDuration/v2_depth_duration_MTurk/v2_DepthDuration_HTML.html#91,91,1280,800,1280,800,8-20-2022,10-44-31,159,depth_duration_stimuli/001092_2014-06-15_17-34-58_260595134347_rgbf000171-resize_3/001092_2014-06-15_17-34-58_260595134347_rgbf000171-resize_3-target.png,250,2.6935,3,3524,249,feet,jsons/v1_VE250_randls_10.json,659282,1240103,61,Woman
159,602527,DepthScenes,duration_manipulation_targetAtFixation,jsons/v1_VE250_randls_10.json,http://54.235.29.9/FacialAge/BNav_EC2/DepthDuration/v2_depth_duration_MTurk/v2_DepthDuration_HTML.html#91,91,1280,800,1280,800,8-20-2022,10-44-31,160,depth_duration_stimuli/002545_2014-06-24_13-38-53_094959634447_rgbf000080-resize_4/002545_2014-06-24_13-38-53_094959634447_rgbf000080-resize_4-target.png,250,1.9205,4,3182,250,feet,jsons/v1_VE250_randls_10.json,659282,1240103,61,Woman
160,602527,DepthScenes,duration_manipulation_targetAtFixation,jsons/v1_VE250_randls_10.json,http://54.235.29.9/FacialAge/BNav_EC2/DepthDuration/v2_depth_duration_MTurk/v2_DepthDuration_HTML.html#91,91,1280,800,1280,800,8-20-2022,10-44-31,161,depth_duration_stimuli/001244_2014-06-17_16-47-45_260595134347_rgbf000030-resize_4/001244_2014-06-17_16-47-45_260595134347_rgbf000030-resize_4-target.png,250,2.0425,3,2745,240,feet,jsons/v1_VE250_randls_10.json,659282,1240103,61,Woman
161,602527,DepthScenes,duration_manipulation_targetAtFixation,jsons/v1_VE250_randls_10.json,http://54.235.29.9/FacialAge/BNav_EC2/DepthDuration/v2_depth_duration_MTurk/v2_DepthDuration_HTML.html#91,91,1280,800,1280,800,8-20-2022,10-44-31,162,depth_duration_stimuli/003495_2014-05-21_16-01-51_094959634447_rgbf000100-resize_3/003495_2014-05-21_16-01-51_094959634447_rgbf000100-resize_3-target.png,250,1.6255,3,4612,249,feet,jsons/v1_VE250_randls_10.json,659282,1240103,61,Woman
162,602527,DepthScenes,duration_manipulation_targetAtFixation,jsons/v1_VE250_randls_10.json,http://54.235.29.9/FacialAge/BNav_EC2/DepthDuration/v2_depth_duration_MTurk/v2_DepthDuration_HTML.html#91,91,1280,800,1280,800,8-20-2022,10-44-31,163,depth_duration_stimuli/002905_2014-06-03_18-04-43_094959634447_rgbf000151-resize_2/002905_2014-06-03_18-04-43_094959634447_rgbf000151-resize_2-target.png,250,2.0295,4,3009,257,feet,jsons/v1_VE250_randls_10.json,659282,1240103,61,Woman
163,602527,DepthScenes,duration_manipulation_targetAtFixation,jsons/v1_VE250_randls_10.json,http://54.235.29.9/FacialAge/BNav_EC2/DepthDuration/v2_depth_duration_MTurk/v2_DepthDuration_HTML.html#91,91,1280,800,1280,800,8-20-2022,10-44-31,164,depth_duration_stimuli/003423_2014-05-21_10-23-26_094959634447_rgbf002665-resize_2/003423_2014-05-21_10-23-26_094959634447_rgbf002665-resize_2-target.png,250,3.2575,8,3137,253,feet,jsons/v1_VE250_randls_10.json,659282,1240103,61,Woman
