,subjID,experimentName,versionName,sequenceName,url,selected_row,windowWidth,windowHeight,screenWidth,screenHeight,startDate,startTime,trial,stimulus,duration,actual_depth,depth_estimate,trial_RT,log_sceneDuration,unitSelection,seq_filepath,experimentTime,totalTime,age,gender
0,602927,DepthScenes,duration_manipulation_targetAtFixation,jsons/v1_VE1000_randls_35_rotated.json,http://54.235.29.9/FacialAge/BNav_EC2/DepthDuration/v2_depth_duration_MTurk/v2_DepthDuration_HTML.html#113,113,1366,625,1366,768,8-22-2022,9-12-2,1,depth_duration_stimuli/002444_2014-06-28_20-32-08_260595134347_rgbf000027-resize_0/002444_2014-06-28_20-32-08_260595134347_rgbf000027-resize_0-target.png,1000,4.388999999999999,2,4451,999,meters,jsons/v1_VE1000_randls_35_rotated.json,767539,898158,54,Woman
1,602927,DepthScenes,duration_manipulation_targetAtFixation,jsons/v1_VE1000_randls_35_rotated.json,http://54.235.29.9/FacialAge/BNav_EC2/DepthDuration/v2_depth_duration_MTurk/v2_DepthDuration_HTML.html#113,113,1366,625,1366,768,8-22-2022,9-12-2,2,depth_duration_stimuli/000436_2014-06-09_22-25-11_260595134347_rgbf000137-resize_1/000436_2014-06-09_22-25-11_260595134347_rgbf000137-resize_1-target.png,1000,4.0705,3,11651,1146,meters,jsons/v1_VE1000_randls_35_rotated.json,767539,898158,54,Woman
2,602927,DepthScenes,duration_manipulation_targetAtFixation,jsons/v1_VE1000_randls_35_rotated.json,http://54.235.29.9/FacialAge/BNav_EC2/DepthDuration/v2_depth_duration_MTurk/v2_DepthDuration_HTML.html#113,113,1366,625,1366,768,8-22-2022,9-12-2,3,depth_duration_stimuli/001094_2014-06-15_17-36-00_260595134347_rgbf000205-resize_0/001094_2014-06-15_17-36-00_260595134347_rgbf000205-resize_0-target.png,1000,4.2175,3,4321,874,meters,jsons/v1_VE1000_randls_35_rotated.json,767539,898158,54,Woman
3,602927,DepthScenes,duration_manipulation_targetAtFixation,jsons/v1_VE1000_randls_35_rotated.json,http://54.235.29.9/FacialAge/BNav_EC2/DepthDuration/v2_depth_duration_MTurk/v2_DepthDuration_HTML.html#113,113,1366,625,1366,768,8-22-2022,9-12-2,4,depth_duration_stimuli/000692_2014-06-08_13-09-42_260595134347_rgbf000199-resize_2/000692_2014-06-08_13-09-42_260595134347_rgbf000199-resize_2-target.png,1000,3.661,2,3893,984,meters,jsons/v1_VE1000_randls_35_rotated.json,767539,898158,54,Woman
4,602927,DepthScenes,duration_manipulation_targetAtFixation,jsons/v1_VE1000_randls_35_rotated.json,http://54.235.29.9/FacialAge/BNav_EC2/DepthDuration/v2_depth_duration_MTurk/v2_DepthDuration_HTML.html#113,113,1366,625,1366,768,8-22-2022,9-12-2,5,depth_duration_stimuli/000734_2014-06-08_17-39-11_260595134347_rgbf000128-resize_2/000734_2014-06-08_17-39-11_260595134347_rgbf000128-resize_2-target.png,1000,4.098,4,18411,981,meters,jsons/v1_VE1000_randls_35_rotated.json,767539,898158,54,Woman
5,602927,DepthScenes,duration_manipulation_targetAtFixation,jsons/v1_VE1000_randls_35_rotated.json,http://54.235.29.9/FacialAge/BNav_EC2/DepthDuration/v2_depth_duration_MTurk/v2_DepthDuration_HTML.html#113,113,1366,625,1366,768,8-22-2022,9-12-2,6,depth_duration_stimuli/000739_2014-06-08_18-45-58_260595134347_rgbf000068-resize_1/000739_2014-06-08_18-45-58_260595134347_rgbf000068-resize_1-target.png,1000,3.534,2,3524,1230,meters,jsons/v1_VE1000_randls_35_rotated.json,767539,898158,54,Woman
6,602927,DepthScenes,duration_manipulation_targetAtFixation,jsons/v1_VE1000_randls_35_rotated.json,http://54.235.29.9/FacialAge/BNav_EC2/DepthDuration/v2_depth_duration_MTurk/v2_DepthDuration_HTML.html#113,113,1366,625,1366,768,8-22-2022,9-12-2,7,depth_duration_stimuli/002750_2014-06-22_19-08-03_094959634447_rgbf000094-resize_4/002750_2014-06-22_19-08-03_094959634447_rgbf000094-resize_4-target.png,1000,2.354,3,4024,945,meters,jsons/v1_VE1000_randls_35_rotated.json,767539,898158,54,Woman
7,602927,DepthScenes,duration_manipulation_targetAtFixation,jsons/v1_VE1000_randls_35_rotated.json,http://54.235.29.9/FacialAge/BNav_EC2/DepthDuration/v2_depth_duration_MTurk/v2_DepthDuration_HTML.html#113,113,1366,625,1366,768,8-22-2022,9-12-2,8,depth_duration_stimuli/002549_2014-06-24_13-41-39_094959634447_rgbf000022-resize_3/002549_2014-06-24_13-41-39_094959634447_rgbf000022-resize_3-target.png,1000,1.476,2,3492,1019,meters,jsons/v1_VE1000_randls_35_rotated.json,767539,898158,54,Woman
8,602927,DepthScenes,duration_manipulation_targetAtFixation,jsons/v1_VE1000_randls_35_rotated.json,http://54.235.29.9/FacialAge/BNav_EC2/DepthDuration/v2_depth_duration_MTurk/v2_DepthDuration_HTML.html#113,113,1366,625,1366,768,8-22-2022,9-12-2,9,depth_duration_stimuli/000549_2014-06-08_22-10-24_260595134347_rgbf000247-resize_3/000549_2014-06-08_22-10-24_260595134347_rgbf000247-resize_3-target.png,1000,1.841,3,4032,1000,meters,jsons/v1_VE1000_randls_35_rotated.json,767539,898158,54,Woman
9,602927,DepthScenes,duration_manipulation_targetAtFixation,jsons/v1_VE1000_randls_35_rotated.json,http://54.235.29.9/FacialAge/BNav_EC2/DepthDuration/v2_depth_duration_MTurk/v2_DepthDuration_HTML.html#113,113,1366,625,1366,768,8-22-2022,9-12-2,10,depth_duration_stimuli/001055_2014-06-08_18-45-35_260595134347_rgbf000111-resize_4/001055_2014-06-08_18-45-35_260595134347_rgbf000111-resize_4-target.png,1000,2.4290000000000003,3,6968,1001,meters,jsons/v1_VE1000_randls_35_rotated.json,767539,898158,54,Woman
10,602927,DepthScenes,duration_manipulation_targetAtFixation,jsons/v1_VE1000_randls_35_rotated.json,http://54.235.29.9/FacialAge/BNav_EC2/DepthDuration/v2_depth_duration_MTurk/v2_DepthDuration_HTML.html#113,113,1366,625,1366,768,8-22-2022,9-12-2,11,depth_duration_stimuli/001617_2014-06-20_11-35-32_260595134347_rgbf000066-resize_1/001617_2014-06-20_11-35-32_260595134347_rgbf000066-resize_1-target.png,1000,3.7910000000000004,3,3634,990,meters,jsons/v1_VE1000_randls_35_rotated.json,767539,898158,54,Woman
11,602927,DepthScenes,duration_manipulation_targetAtFixation,jsons/v1_VE1000_randls_35_rotated.json,http://54.235.29.9/FacialAge/BNav_EC2/DepthDuration/v2_depth_duration_MTurk/v2_DepthDuration_HTML.html#113,113,1366,625,1366,768,8-22-2022,9-12-2,12,depth_duration_stimuli/001806_2014-06-26_20-50-20_260595134347_rgbf000091-resize_1/001806_2014-06-26_20-50-20_260595134347_rgbf000091-resize_1-target.png,1000,2.7305,2,3415,993,meters,jsons/v1_VE1000_randls_35_rotated.json,767539,898158,54,Woman
12,602927,DepthScenes,duration_manipulation_targetAtFixation,jsons/v1_VE1000_randls_35_rotated.json,http://54.235.29.9/FacialAge/BNav_EC2/DepthDuration/v2_depth_duration_MTurk/v2_DepthDuration_HTML.html#113,113,1366,625,1366,768,8-22-2022,9-12-2,13,depth_duration_stimuli/002323_2014-06-28_20-01-54_260595134347_rgbf000051-resize_4/002323_2014-06-28_20-01-54_260595134347_rgbf000051-resize_4-target.png,1000,3.7310000000000003,3,3712,1008,meters,jsons/v1_VE1000_randls_35_rotated.json,767539,898158,54,Woman
13,602927,DepthScenes,duration_manipulation_targetAtFixation,jsons/v1_VE1000_randls_35_rotated.json,http://54.235.29.9/FacialAge/BNav_EC2/DepthDuration/v2_depth_duration_MTurk/v2_DepthDuration_HTML.html#113,113,1366,625,1366,768,8-22-2022,9-12-2,14,depth_duration_stimuli/000917_2014-06-09_22-45-29_260595134347_rgbf000149-resize_3/000917_2014-06-09_22-45-29_260595134347_rgbf000149-resize_3-target.png,1000,4.1865,2,2993,1010,meters,jsons/v1_VE1000_randls_35_rotated.json,767539,898158,54,Woman
14,602927,DepthScenes,duration_manipulation_targetAtFixation,jsons/v1_VE1000_randls_35_rotated.json,http://54.235.29.9/FacialAge/BNav_EC2/DepthDuration/v2_depth_duration_MTurk/v2_DepthDuration_HTML.html#113,113,1366,625,1366,768,8-22-2022,9-12-2,15,depth_duration_stimuli/002953_2014-06-08_17-32-18_094959634447_rgbf000059-resize_5/002953_2014-06-08_17-32-18_094959634447_rgbf000059-resize_5-target.png,1000,1.551,3,2847,1020,meters,jsons/v1_VE1000_randls_35_rotated.json,767539,898158,54,Woman
15,602927,DepthScenes,duration_manipulation_targetAtFixation,jsons/v1_VE1000_randls_35_rotated.json,http://54.235.29.9/FacialAge/BNav_EC2/DepthDuration/v2_depth_duration_MTurk/v2_DepthDuration_HTML.html#113,113,1366,625,1366,768,8-22-2022,9-12-2,16,depth_duration_stimuli/000878_2014-06-08_22-52-45_260595134347_rgbf000045-resize_2/000878_2014-06-08_22-52-45_260595134347_rgbf000045-resize_2-target.png,1000,2.092,4,3413,1003,meters,jsons/v1_VE1000_randls_35_rotated.json,767539,898158,54,Woman
16,602927,DepthScenes,duration_manipulation_targetAtFixation,jsons/v1_VE1000_randls_35_rotated.json,http://54.235.29.9/FacialAge/BNav_EC2/DepthDuration/v2_depth_duration_MTurk/v2_DepthDuration_HTML.html#113,113,1366,625,1366,768,8-22-2022,9-12-2,17,depth_duration_stimuli/002758_2014-06-22_19-11-20_094959634447_rgbf000128-resize_1/002758_2014-06-22_19-11-20_094959634447_rgbf000128-resize_1-target.png,1000,2.555,2,3926,997,meters,jsons/v1_VE1000_randls_35_rotated.json,767539,898158,54,Woman
17,602927,DepthScenes,duration_manipulation_targetAtFixation,jsons/v1_VE1000_randls_35_rotated.json,http://54.235.29.9/FacialAge/BNav_EC2/DepthDuration/v2_depth_duration_MTurk/v2_DepthDuration_HTML.html#113,113,1366,625,1366,768,8-22-2022,9-12-2,18,depth_duration_stimuli/002630_2014-06-24_14-47-50_094959634447_rgbf000055-resize_1/002630_2014-06-24_14-47-50_094959634447_rgbf000055-resize_1-target.png,1000,3.0095,4,2727,994,meters,jsons/v1_VE1000_randls_35_rotated.json,767539,898158,54,Woman
18,602927,DepthScenes,duration_manipulation_targetAtFixation,jsons/v1_VE1000_randls_35_rotated.json,http://54.235.29.9/FacialAge/BNav_EC2/DepthDuration/v2_depth_duration_MTurk/v2_DepthDuration_HTML.html#113,113,1366,625,1366,768,8-22-2022,9-12-2,19,depth_duration_stimuli/001498_2014-06-19_17-45-14_260595134347_rgbf000129-resize_4/001498_2014-06-19_17-45-14_260595134347_rgbf000129-resize-original.jpg,1000,1.4075,2,4071,967,meters,jsons/v1_VE1000_randls_35_rotated.json,767539,898158,54,Woman
19,602927,DepthScenes,duration_manipulation_targetAtFixation,jsons/v1_VE1000_randls_35_rotated.json,http://54.235.29.9/FacialAge/BNav_EC2/DepthDuration/v2_depth_duration_MTurk/v2_DepthDuration_HTML.html#113,113,1366,625,1366,768,8-22-2022,9-12-2,20,depth_duration_stimuli/000749_2014-06-08_21-55-06_260595134347_rgbf000070-resize_2/000749_2014-06-08_21-55-06_260595134347_rgbf000070-resize_2-target.png,1000,2.331,3,3223,963,meters,jsons/v1_VE1000_randls_35_rotated.json,767539,898158,54,Woman
20,602927,DepthScenes,duration_manipulation_targetAtFixation,jsons/v1_VE1000_randls_35_rotated.json,http://54.235.29.9/FacialAge/BNav_EC2/DepthDuration/v2_depth_duration_MTurk/v2_DepthDuration_HTML.html#113,113,1366,625,1366,768,8-22-2022,9-12-2,21,depth_duration_stimuli/002788_2014-06-22_19-36-03_094959634447_rgbf000088-resize_2/002788_2014-06-22_19-36-03_094959634447_rgbf000088-resize_2-target.png,1000,1.6465,4,3320,1005,meters,jsons/v1_VE1000_randls_35_rotated.json,767539,898158,54,Woman
21,602927,DepthScenes,duration_manipulation_targetAtFixation,jsons/v1_VE1000_randls_35_rotated.json,http://54.235.29.9/FacialAge/BNav_EC2/DepthDuration/v2_depth_duration_MTurk/v2_DepthDuration_HTML.html#113,113,1366,625,1366,768,8-22-2022,9-12-2,22,depth_duration_stimuli/002425_2014-06-28_20-27-29_260595134347_rgbf000031-resize_8/002425_2014-06-28_20-27-29_260595134347_rgbf000031-resize_8-target.png,1000,3.8960000000000004,3,2723,1008,meters,jsons/v1_VE1000_randls_35_rotated.json,767539,898158,54,Woman
22,602927,DepthScenes,duration_manipulation_targetAtFixation,jsons/v1_VE1000_randls_35_rotated.json,http://54.235.29.9/FacialAge/BNav_EC2/DepthDuration/v2_depth_duration_MTurk/v2_DepthDuration_HTML.html#113,113,1366,625,1366,768,8-22-2022,9-12-2,23,depth_duration_stimuli/000642_2014-06-08_16-59-25_260595134347_rgbf000098-resize_2/000642_2014-06-08_16-59-25_260595134347_rgbf000098-resize_2-target.png,1000,2.8815,1,3252,976,meters,jsons/v1_VE1000_randls_35_rotated.json,767539,898158,54,Woman
23,602927,DepthScenes,duration_manipulation_targetAtFixation,jsons/v1_VE1000_randls_35_rotated.json,http://54.235.29.9/FacialAge/BNav_EC2/DepthDuration/v2_depth_duration_MTurk/v2_DepthDuration_HTML.html#113,113,1366,625,1366,768,8-22-2022,9-12-2,24,depth_duration_stimuli/000483_2014-06-09_20-41-45_260595134347_rgbf000116-resize_4/000483_2014-06-09_20-41-45_260595134347_rgbf000116-resize_4-target.png,1000,1.337,3,3127,998,meters,jsons/v1_VE1000_randls_35_rotated.json,767539,898158,54,Woman
24,602927,DepthScenes,duration_manipulation_targetAtFixation,jsons/v1_VE1000_randls_35_rotated.json,http://54.235.29.9/FacialAge/BNav_EC2/DepthDuration/v2_depth_duration_MTurk/v2_DepthDuration_HTML.html#113,113,1366,625,1366,768,8-22-2022,9-12-2,25,depth_duration_stimuli/000469_2014-06-09_19-42-10_260595134347_rgbf000081-resize_1/000469_2014-06-09_19-42-10_260595134347_rgbf000081-resize_1-target.png,1000,1.652,4,2754,992,meters,jsons/v1_VE1000_randls_35_rotated.json,767539,898158,54,Woman
25,602927,DepthScenes,duration_manipulation_targetAtFixation,jsons/v1_VE1000_randls_35_rotated.json,http://54.235.29.9/FacialAge/BNav_EC2/DepthDuration/v2_depth_duration_MTurk/v2_DepthDuration_HTML.html#113,113,1366,625,1366,768,8-22-2022,9-12-2,26,depth_duration_stimuli/003490_2014-05-21_15-50-11_094959634447_rgbf000101-resize_3/003490_2014-05-21_15-50-11_094959634447_rgbf000101-resize_3-target.png,1000,3.6445,3,3151,989,meters,jsons/v1_VE1000_randls_35_rotated.json,767539,898158,54,Woman
26,602927,DepthScenes,duration_manipulation_targetAtFixation,jsons/v1_VE1000_randls_35_rotated.json,http://54.235.29.9/FacialAge/BNav_EC2/DepthDuration/v2_depth_duration_MTurk/v2_DepthDuration_HTML.html#113,113,1366,625,1366,768,8-22-2022,9-12-2,27,depth_duration_stimuli/001175_2014-06-17_15-45-55_260595134347_rgbf000129-resize_4/001175_2014-06-17_15-45-55_260595134347_rgbf000129-resize_4-target.png,1000,4.255,2,2766,987,meters,jsons/v1_VE1000_randls_35_rotated.json,767539,898158,54,Woman
27,602927,DepthScenes,duration_manipulation_targetAtFixation,jsons/v1_VE1000_randls_35_rotated.json,http://54.235.29.9/FacialAge/BNav_EC2/DepthDuration/v2_depth_duration_MTurk/v2_DepthDuration_HTML.html#113,113,1366,625,1366,768,8-22-2022,9-12-2,28,depth_duration_stimuli/002805_2014-06-22_19-54-03_094959634447_rgbf000079-resize_1/002805_2014-06-22_19-54-03_094959634447_rgbf000079-resize_1-target.png,1000,3.1439999999999997,3,2984,1000,meters,jsons/v1_VE1000_randls_35_rotated.json,767539,898158,54,Woman
28,602927,DepthScenes,duration_manipulation_targetAtFixation,jsons/v1_VE1000_randls_35_rotated.json,http://54.235.29.9/FacialAge/BNav_EC2/DepthDuration/v2_depth_duration_MTurk/v2_DepthDuration_HTML.html#113,113,1366,625,1366,768,8-22-2022,9-12-2,29,depth_duration_stimuli/000906_2014-06-08_13-35-43_260595134347_rgbf000155-resize_1/000906_2014-06-08_13-35-43_260595134347_rgbf000155-resize_1-target.png,1000,2.8489999999999998,2,3079,1000,meters,jsons/v1_VE1000_randls_35_rotated.json,767539,898158,54,Woman
29,602927,DepthScenes,duration_manipulation_targetAtFixation,jsons/v1_VE1000_randls_35_rotated.json,http://54.235.29.9/FacialAge/BNav_EC2/DepthDuration/v2_depth_duration_MTurk/v2_DepthDuration_HTML.html#113,113,1366,625,1366,768,8-22-2022,9-12-2,30,depth_duration_stimuli/002072_2014-06-24_21-48-06_260595134347_rgbf000115-resize_0/002072_2014-06-24_21-48-06_260595134347_rgbf000115-resize-original.jpg,1000,4.702,3,3505,1011,meters,jsons/v1_VE1000_randls_35_rotated.json,767539,898158,54,Woman
30,602927,DepthScenes,duration_manipulation_targetAtFixation,jsons/v1_VE1000_randls_35_rotated.json,http://54.235.29.9/FacialAge/BNav_EC2/DepthDuration/v2_depth_duration_MTurk/v2_DepthDuration_HTML.html#113,113,1366,625,1366,768,8-22-2022,9-12-2,31,depth_duration_stimuli/002136_2014-06-25_21-18-03_260595134347_rgbf000109-resize_3/002136_2014-06-25_21-18-03_260595134347_rgbf000109-resize_3-target.png,1000,1.9569999999999999,2,3455,828,meters,jsons/v1_VE1000_randls_35_rotated.json,767539,898158,54,Woman
31,602927,DepthScenes,duration_manipulation_targetAtFixation,jsons/v1_VE1000_randls_35_rotated.json,http://54.235.29.9/FacialAge/BNav_EC2/DepthDuration/v2_depth_duration_MTurk/v2_DepthDuration_HTML.html#113,113,1366,625,1366,768,8-22-2022,9-12-2,32,depth_duration_stimuli/002964_2014-06-08_17-46-11_094959634447_rgbf000091-resize_4/002964_2014-06-08_17-46-11_094959634447_rgbf000091-resize_4-target.png,1000,1.6909999999999998,2,3035,991,meters,jsons/v1_VE1000_randls_35_rotated.json,767539,898158,54,Woman
32,602927,DepthScenes,duration_manipulation_targetAtFixation,jsons/v1_VE1000_randls_35_rotated.json,http://54.235.29.9/FacialAge/BNav_EC2/DepthDuration/v2_depth_duration_MTurk/v2_DepthDuration_HTML.html#113,113,1366,625,1366,768,8-22-2022,9-12-2,33,depth_duration_stimuli/000137_2014-05-20_17-04-49_260595134347_rgbf000120-resize_1/000137_2014-05-20_17-04-49_260595134347_rgbf000120-resize_1-target.png,1000,3.786,1,2779,926,meters,jsons/v1_VE1000_randls_35_rotated.json,767539,898158,54,Woman
33,602927,DepthScenes,duration_manipulation_targetAtFixation,jsons/v1_VE1000_randls_35_rotated.json,http://54.235.29.9/FacialAge/BNav_EC2/DepthDuration/v2_depth_duration_MTurk/v2_DepthDuration_HTML.html#113,113,1366,625,1366,768,8-22-2022,9-12-2,34,depth_duration_stimuli/000736_2014-06-08_18-24-15_260595134347_rgbf000206-resize_3/000736_2014-06-08_18-24-15_260595134347_rgbf000206-resize_3-target.png,1000,3.515,3,2769,1003,meters,jsons/v1_VE1000_randls_35_rotated.json,767539,898158,54,Woman
34,602927,DepthScenes,duration_manipulation_targetAtFixation,jsons/v1_VE1000_randls_35_rotated.json,http://54.235.29.9/FacialAge/BNav_EC2/DepthDuration/v2_depth_duration_MTurk/v2_DepthDuration_HTML.html#113,113,1366,625,1366,768,8-22-2022,9-12-2,35,depth_duration_stimuli/003081_2014-06-15_15-19-16_094959634447_rgbf000150-resize_1/003081_2014-06-15_15-19-16_094959634447_rgbf000150-resize_1-target.png,1000,3.9125,2,2890,999,meters,jsons/v1_VE1000_randls_35_rotated.json,767539,898158,54,Woman
35,602927,DepthScenes,duration_manipulation_targetAtFixation,jsons/v1_VE1000_randls_35_rotated.json,http://54.235.29.9/FacialAge/BNav_EC2/DepthDuration/v2_depth_duration_MTurk/v2_DepthDuration_HTML.html#113,113,1366,625,1366,768,8-22-2022,9-12-2,36,depth_duration_stimuli/001417_2014-06-19_16-25-36_260595134347_rgbf000115-resize_5/001417_2014-06-19_16-25-36_260595134347_rgbf000115-resize_5-target.png,1000,4.6255,3,2774,910,meters,jsons/v1_VE1000_randls_35_rotated.json,767539,898158,54,Woman
36,602927,DepthScenes,duration_manipulation_targetAtFixation,jsons/v1_VE1000_randls_35_rotated.json,http://54.235.29.9/FacialAge/BNav_EC2/DepthDuration/v2_depth_duration_MTurk/v2_DepthDuration_HTML.html#113,113,1366,625,1366,768,8-22-2022,9-12-2,37,depth_duration_stimuli/001235_2014-06-17_16-37-36_260595134347_rgbf000084-resize_4/001235_2014-06-17_16-37-36_260595134347_rgbf000084-resize_4-target.png,1000,3.6605,2,3331,1000,meters,jsons/v1_VE1000_randls_35_rotated.json,767539,898158,54,Woman
37,602927,DepthScenes,duration_manipulation_targetAtFixation,jsons/v1_VE1000_randls_35_rotated.json,http://54.235.29.9/FacialAge/BNav_EC2/DepthDuration/v2_depth_duration_MTurk/v2_DepthDuration_HTML.html#113,113,1366,625,1366,768,8-22-2022,9-12-2,38,depth_duration_stimuli/000788_2014-06-08_22-34-36_260595134347_rgbf000131-resize_1/000788_2014-06-08_22-34-36_260595134347_rgbf000131-resize_1-target.png,1000,3.359,3,3375,988,meters,jsons/v1_VE1000_randls_35_rotated.json,767539,898158,54,Woman
38,602927,DepthScenes,duration_manipulation_targetAtFixation,jsons/v1_VE1000_randls_35_rotated.json,http://54.235.29.9/FacialAge/BNav_EC2/DepthDuration/v2_depth_duration_MTurk/v2_DepthDuration_HTML.html#113,113,1366,625,1366,768,8-22-2022,9-12-2,39,depth_duration_stimuli/002344_2014-06-28_20-06-29_260595134347_rgbf000030-resize_1/002344_2014-06-28_20-06-29_260595134347_rgbf000030-resize_1-target.png,1000,1.5795,2,4690,1071,meters,jsons/v1_VE1000_randls_35_rotated.json,767539,898158,54,Woman
39,602927,DepthScenes,duration_manipulation_targetAtFixation,jsons/v1_VE1000_randls_35_rotated.json,http://54.235.29.9/FacialAge/BNav_EC2/DepthDuration/v2_depth_duration_MTurk/v2_DepthDuration_HTML.html#113,113,1366,625,1366,768,8-22-2022,9-12-2,40,depth_duration_stimuli/002725_2014-06-22_11-47-51_094959634447_rgbf000070-resize_1/002725_2014-06-22_11-47-51_094959634447_rgbf000070-resize_1-target.png,1000,2.195,3,2922,1006,meters,jsons/v1_VE1000_randls_35_rotated.json,767539,898158,54,Woman
40,602927,DepthScenes,duration_manipulation_targetAtFixation,jsons/v1_VE1000_randls_35_rotated.json,http://54.235.29.9/FacialAge/BNav_EC2/DepthDuration/v2_depth_duration_MTurk/v2_DepthDuration_HTML.html#113,113,1366,625,1366,768,8-22-2022,9-12-2,41,depth_duration_stimuli/000854_2014-06-09_19-43-13_260595134347_rgbf000066-resize_0/000854_2014-06-09_19-43-13_260595134347_rgbf000066-resize_0-target.png,1000,3.068,2,3385,998,meters,jsons/v1_VE1000_randls_35_rotated.json,767539,898158,54,Woman
41,602927,DepthScenes,duration_manipulation_targetAtFixation,jsons/v1_VE1000_randls_35_rotated.json,http://54.235.29.9/FacialAge/BNav_EC2/DepthDuration/v2_depth_duration_MTurk/v2_DepthDuration_HTML.html#113,113,1366,625,1366,768,8-22-2022,9-12-2,42,depth_duration_stimuli/000758_2014-06-08_22-05-08_260595134347_rgbf000085-resize_0/000758_2014-06-08_22-05-08_260595134347_rgbf000085-resize_0-target.png,1000,3.3810000000000002,3,6063,986,meters,jsons/v1_VE1000_randls_35_rotated.json,767539,898158,54,Woman
42,602927,DepthScenes,duration_manipulation_targetAtFixation,jsons/v1_VE1000_randls_35_rotated.json,http://54.235.29.9/FacialAge/BNav_EC2/DepthDuration/v2_depth_duration_MTurk/v2_DepthDuration_HTML.html#113,113,1366,625,1366,768,8-22-2022,9-12-2,43,depth_duration_stimuli/002995_2014-06-15_12-31-26_094959634447_rgbf000150-resize_1/002995_2014-06-15_12-31-26_094959634447_rgbf000150-resize_1-target.png,1000,3.8360000000000003,3,3158,814,meters,jsons/v1_VE1000_randls_35_rotated.json,767539,898158,54,Woman
43,602927,DepthScenes,duration_manipulation_targetAtFixation,jsons/v1_VE1000_randls_35_rotated.json,http://54.235.29.9/FacialAge/BNav_EC2/DepthDuration/v2_depth_duration_MTurk/v2_DepthDuration_HTML.html#113,113,1366,625,1366,768,8-22-2022,9-12-2,44,depth_duration_stimuli/002748_2014-06-22_19-07-22_094959634447_rgbf000078-resize_1/002748_2014-06-22_19-07-22_094959634447_rgbf000078-resize_1-target.png,1000,4.6705,2,3327,986,meters,jsons/v1_VE1000_randls_35_rotated.json,767539,898158,54,Woman
44,602927,DepthScenes,duration_manipulation_targetAtFixation,jsons/v1_VE1000_randls_35_rotated.json,http://54.235.29.9/FacialAge/BNav_EC2/DepthDuration/v2_depth_duration_MTurk/v2_DepthDuration_HTML.html#113,113,1366,625,1366,768,8-22-2022,9-12-2,45,depth_duration_stimuli/003423_2014-05-21_10-23-26_094959634447_rgbf002665-resize_2/003423_2014-05-21_10-23-26_094959634447_rgbf002665-resize_2-target.png,1000,3.2575,1,3356,976,meters,jsons/v1_VE1000_randls_35_rotated.json,767539,898158,54,Woman
45,602927,DepthScenes,duration_manipulation_targetAtFixation,jsons/v1_VE1000_randls_35_rotated.json,http://54.235.29.9/FacialAge/BNav_EC2/DepthDuration/v2_depth_duration_MTurk/v2_DepthDuration_HTML.html#113,113,1366,625,1366,768,8-22-2022,9-12-2,46,depth_duration_stimuli/002905_2014-06-03_18-04-43_094959634447_rgbf000151-resize_2/002905_2014-06-03_18-04-43_094959634447_rgbf000151-resize_2-target.png,1000,2.0295,3,2869,971,meters,jsons/v1_VE1000_randls_35_rotated.json,767539,898158,54,Woman
46,602927,DepthScenes,duration_manipulation_targetAtFixation,jsons/v1_VE1000_randls_35_rotated.json,http://54.235.29.9/FacialAge/BNav_EC2/DepthDuration/v2_depth_duration_MTurk/v2_DepthDuration_HTML.html#113,113,1366,625,1366,768,8-22-2022,9-12-2,47,depth_duration_stimuli/000191_2014-05-12_17-07-38_260595134347_rgbf000199-resize_0/000191_2014-05-12_17-07-38_260595134347_rgbf000199-resize_0-target.png,1000,3.7995,2,3537,988,meters,jsons/v1_VE1000_randls_35_rotated.json,767539,898158,54,Woman
47,602927,DepthScenes,duration_manipulation_targetAtFixation,jsons/v1_VE1000_randls_35_rotated.json,http://54.235.29.9/FacialAge/BNav_EC2/DepthDuration/v2_depth_duration_MTurk/v2_DepthDuration_HTML.html#113,113,1366,625,1366,768,8-22-2022,9-12-2,48,depth_duration_stimuli/000493_2014-06-09_21-01-18_260595134347_rgbf000196-resize_3/000493_2014-06-09_21-01-18_260595134347_rgbf000196-resize_3-target.png,1000,3.44,4,2851,1004,meters,jsons/v1_VE1000_randls_35_rotated.json,767539,898158,54,Woman
48,602927,DepthScenes,duration_manipulation_targetAtFixation,jsons/v1_VE1000_randls_35_rotated.json,http://54.235.29.9/FacialAge/BNav_EC2/DepthDuration/v2_depth_duration_MTurk/v2_DepthDuration_HTML.html#113,113,1366,625,1366,768,8-22-2022,9-12-2,49,depth_duration_stimuli/001170_2014-06-17_15-43-44_260595134347_rgbf000096-resize_6/001170_2014-06-17_15-43-44_260595134347_rgbf000096-resize-original.jpg,1000,1.1909999999999998,2,3647,1013,meters,jsons/v1_VE1000_randls_35_rotated.json,767539,898158,54,Woman
49,602927,DepthScenes,duration_manipulation_targetAtFixation,jsons/v1_VE1000_randls_35_rotated.json,http://54.235.29.9/FacialAge/BNav_EC2/DepthDuration/v2_depth_duration_MTurk/v2_DepthDuration_HTML.html#113,113,1366,625,1366,768,8-22-2022,9-12-2,50,depth_duration_stimuli/002414_2014-06-28_20-24-58_260595134347_rgbf000067-resize_4/002414_2014-06-28_20-24-58_260595134347_rgbf000067-resize_4-target.png,1000,4.363,4,2970,995,meters,jsons/v1_VE1000_randls_35_rotated.json,767539,898158,54,Woman
50,602927,DepthScenes,duration_manipulation_targetAtFixation,jsons/v1_VE1000_randls_35_rotated.json,http://54.235.29.9/FacialAge/BNav_EC2/DepthDuration/v2_depth_duration_MTurk/v2_DepthDuration_HTML.html#113,113,1366,625,1366,768,8-22-2022,9-12-2,51,depth_duration_stimuli/000773_2014-06-08_22-24-54_260595134347_rgbf000093-resize_1/000773_2014-06-08_22-24-54_260595134347_rgbf000093-resize_1-target.png,1000,4.973,2,3031,958,meters,jsons/v1_VE1000_randls_35_rotated.json,767539,898158,54,Woman
51,602927,DepthScenes,duration_manipulation_targetAtFixation,jsons/v1_VE1000_randls_35_rotated.json,http://54.235.29.9/FacialAge/BNav_EC2/DepthDuration/v2_depth_duration_MTurk/v2_DepthDuration_HTML.html#113,113,1366,625,1366,768,8-22-2022,9-12-2,52,depth_duration_stimuli/001450_2014-06-19_17-02-03_260595134347_rgbf000203-resize_4/001450_2014-06-19_17-02-03_260595134347_rgbf000203-resize_4-target.png,1000,4.0106666666667,4,4012,997,meters,jsons/v1_VE1000_randls_35_rotated.json,767539,898158,54,Woman
52,602927,DepthScenes,duration_manipulation_targetAtFixation,jsons/v1_VE1000_randls_35_rotated.json,http://54.235.29.9/FacialAge/BNav_EC2/DepthDuration/v2_depth_duration_MTurk/v2_DepthDuration_HTML.html#113,113,1366,625,1366,768,8-22-2022,9-12-2,53,depth_duration_stimuli/001449_2014-06-19_17-01-27_260595134347_rgbf000116-resize_2/001449_2014-06-19_17-01-27_260595134347_rgbf000116-resize_2-target.png,1000,3.452,2,2972,971,meters,jsons/v1_VE1000_randls_35_rotated.json,767539,898158,54,Woman
53,602927,DepthScenes,duration_manipulation_targetAtFixation,jsons/v1_VE1000_randls_35_rotated.json,http://54.235.29.9/FacialAge/BNav_EC2/DepthDuration/v2_depth_duration_MTurk/v2_DepthDuration_HTML.html#113,113,1366,625,1366,768,8-22-2022,9-12-2,54,depth_duration_stimuli/002660_2014-06-13_15-44-18_094959634447_rgbf001878-resize_2/002660_2014-06-13_15-44-18_094959634447_rgbf001878-resize_2-target.png,1000,3.576,4,3134,979,meters,jsons/v1_VE1000_randls_35_rotated.json,767539,898158,54,Woman
54,602927,DepthScenes,duration_manipulation_targetAtFixation,jsons/v1_VE1000_randls_35_rotated.json,http://54.235.29.9/FacialAge/BNav_EC2/DepthDuration/v2_depth_duration_MTurk/v2_DepthDuration_HTML.html#113,113,1366,625,1366,768,8-22-2022,9-12-2,55,depth_duration_stimuli/002153_2014-06-25_21-27-18_260595134347_rgbf000038-resize_5/002153_2014-06-25_21-27-18_260595134347_rgbf000038-resize_5-target.png,1000,2.505,2,2727,1003,meters,jsons/v1_VE1000_randls_35_rotated.json,767539,898158,54,Woman
55,602927,DepthScenes,duration_manipulation_targetAtFixation,jsons/v1_VE1000_randls_35_rotated.json,http://54.235.29.9/FacialAge/BNav_EC2/DepthDuration/v2_depth_duration_MTurk/v2_DepthDuration_HTML.html#113,113,1366,625,1366,768,8-22-2022,9-12-2,56,depth_duration_stimuli/003083_2014-06-15_15-21-03_094959634447_rgbf000063-resize_1/003083_2014-06-15_15-21-03_094959634447_rgbf000063-resize_1-target.png,1000,4.1405,2,3516,1063,meters,jsons/v1_VE1000_randls_35_rotated.json,767539,898158,54,Woman
56,602927,DepthScenes,duration_manipulation_targetAtFixation,jsons/v1_VE1000_randls_35_rotated.json,http://54.235.29.9/FacialAge/BNav_EC2/DepthDuration/v2_depth_duration_MTurk/v2_DepthDuration_HTML.html#113,113,1366,625,1366,768,8-22-2022,9-12-2,57,depth_duration_stimuli/000486_2014-06-09_20-47-20_260595134347_rgbf000143-resize_2/000486_2014-06-09_20-47-20_260595134347_rgbf000143-resize_2-target.png,1000,4.8325,3,3371,995,meters,jsons/v1_VE1000_randls_35_rotated.json,767539,898158,54,Woman
57,602927,DepthScenes,duration_manipulation_targetAtFixation,jsons/v1_VE1000_randls_35_rotated.json,http://54.235.29.9/FacialAge/BNav_EC2/DepthDuration/v2_depth_duration_MTurk/v2_DepthDuration_HTML.html#113,113,1366,625,1366,768,8-22-2022,9-12-2,58,depth_duration_stimuli/000556_2014-06-09_22-42-56_260595134347_rgbf000214-resize_1/000556_2014-06-09_22-42-56_260595134347_rgbf000214-resize_1-target.png,1000,4.8415,4,3874,989,meters,jsons/v1_VE1000_randls_35_rotated.json,767539,898158,54,Woman
58,602927,DepthScenes,duration_manipulation_targetAtFixation,jsons/v1_VE1000_randls_35_rotated.json,http://54.235.29.9/FacialAge/BNav_EC2/DepthDuration/v2_depth_duration_MTurk/v2_DepthDuration_HTML.html#113,113,1366,625,1366,768,8-22-2022,9-12-2,59,depth_duration_stimuli/001158_2014-06-17_15-32-16_260595134347_rgbf000138-resize_2/001158_2014-06-17_15-32-16_260595134347_rgbf000138-resize_2-target.png,1000,4.5315,3,4422,991,meters,jsons/v1_VE1000_randls_35_rotated.json,767539,898158,54,Woman
59,602927,DepthScenes,duration_manipulation_targetAtFixation,jsons/v1_VE1000_randls_35_rotated.json,http://54.235.29.9/FacialAge/BNav_EC2/DepthDuration/v2_depth_duration_MTurk/v2_DepthDuration_HTML.html#113,113,1366,625,1366,768,8-22-2022,9-12-2,60,depth_duration_stimuli/003587_2014-05-23_16-48-02_094959634447_rgbf002384-resize_2/003587_2014-05-23_16-48-02_094959634447_rgbf002384-resize_2-target.png,1000,1.357,1,4897,927,meters,jsons/v1_VE1000_randls_35_rotated.json,767539,898158,54,Woman
60,602927,DepthScenes,duration_manipulation_targetAtFixation,jsons/v1_VE1000_randls_35_rotated.json,http://54.235.29.9/FacialAge/BNav_EC2/DepthDuration/v2_depth_duration_MTurk/v2_DepthDuration_HTML.html#113,113,1366,625,1366,768,8-22-2022,9-12-2,61,depth_duration_stimuli/001167_2014-06-17_15-38-07_260595134347_rgbf000108-resize_0/001167_2014-06-17_15-38-07_260595134347_rgbf000108-resize_0-target.png,1000,1.8505,3,2706,988,meters,jsons/v1_VE1000_randls_35_rotated.json,767539,898158,54,Woman
61,602927,DepthScenes,duration_manipulation_targetAtFixation,jsons/v1_VE1000_randls_35_rotated.json,http://54.235.29.9/FacialAge/BNav_EC2/DepthDuration/v2_depth_duration_MTurk/v2_DepthDuration_HTML.html#113,113,1366,625,1366,768,8-22-2022,9-12-2,62,depth_duration_stimuli/000943_2014-06-09_19-31-07_260595134347_rgbf000128-resize_1/000943_2014-06-09_19-31-07_260595134347_rgbf000128-resize_1-target.png,1000,1.9765,2,6327,999,meters,jsons/v1_VE1000_randls_35_rotated.json,767539,898158,54,Woman
62,602927,DepthScenes,duration_manipulation_targetAtFixation,jsons/v1_VE1000_randls_35_rotated.json,http://54.235.29.9/FacialAge/BNav_EC2/DepthDuration/v2_depth_duration_MTurk/v2_DepthDuration_HTML.html#113,113,1366,625,1366,768,8-22-2022,9-12-2,63,depth_duration_stimuli/003070_2014-06-15_14-58-27_094959634447_rgbf000150-resize_3/003070_2014-06-15_14-58-27_094959634447_rgbf000150-resize_3-target.png,1000,2.9415,2,3816,992,meters,jsons/v1_VE1000_randls_35_rotated.json,767539,898158,54,Woman
63,602927,DepthScenes,duration_manipulation_targetAtFixation,jsons/v1_VE1000_randls_35_rotated.json,http://54.235.29.9/FacialAge/BNav_EC2/DepthDuration/v2_depth_duration_MTurk/v2_DepthDuration_HTML.html#113,113,1366,625,1366,768,8-22-2022,9-12-2,64,depth_duration_stimuli/002545_2014-06-24_13-38-53_094959634447_rgbf000080-resize_4/002545_2014-06-24_13-38-53_094959634447_rgbf000080-resize_4-target.png,1000,1.9205,4,3465,1002,meters,jsons/v1_VE1000_randls_35_rotated.json,767539,898158,54,Woman
64,602927,DepthScenes,duration_manipulation_targetAtFixation,jsons/v1_VE1000_randls_35_rotated.json,http://54.235.29.9/FacialAge/BNav_EC2/DepthDuration/v2_depth_duration_MTurk/v2_DepthDuration_HTML.html#113,113,1366,625,1366,768,8-22-2022,9-12-2,65,depth_duration_stimuli/001092_2014-06-15_17-34-58_260595134347_rgbf000171-resize_3/001092_2014-06-15_17-34-58_260595134347_rgbf000171-resize_3-target.png,1000,2.6935,2,3034,998,meters,jsons/v1_VE1000_randls_35_rotated.json,767539,898158,54,Woman
65,602927,DepthScenes,duration_manipulation_targetAtFixation,jsons/v1_VE1000_randls_35_rotated.json,http://54.235.29.9/FacialAge/BNav_EC2/DepthDuration/v2_depth_duration_MTurk/v2_DepthDuration_HTML.html#113,113,1366,625,1366,768,8-22-2022,9-12-2,66,depth_duration_stimuli/001540_2014-06-20_17-01-05_260595134347_rgbf000086-resize_2/001540_2014-06-20_17-01-05_260595134347_rgbf000086-resize-original.jpg,1000,1.459,2,4801,1001,meters,jsons/v1_VE1000_randls_35_rotated.json,767539,898158,54,Woman
66,602927,DepthScenes,duration_manipulation_targetAtFixation,jsons/v1_VE1000_randls_35_rotated.json,http://54.235.29.9/FacialAge/BNav_EC2/DepthDuration/v2_depth_duration_MTurk/v2_DepthDuration_HTML.html#113,113,1366,625,1366,768,8-22-2022,9-12-2,67,depth_duration_stimuli/003079_2014-06-15_15-18-20_094959634447_rgbf000152-resize_8/003079_2014-06-15_15-18-20_094959634447_rgbf000152-resize_8-target.png,1000,2.8775,4,3250,993,meters,jsons/v1_VE1000_randls_35_rotated.json,767539,898158,54,Woman
67,602927,DepthScenes,duration_manipulation_targetAtFixation,jsons/v1_VE1000_randls_35_rotated.json,http://54.235.29.9/FacialAge/BNav_EC2/DepthDuration/v2_depth_duration_MTurk/v2_DepthDuration_HTML.html#113,113,1366,625,1366,768,8-22-2022,9-12-2,68,depth_duration_stimuli/000506_2014-06-08_23-21-00_260595134347_rgbf000070-resize_7/000506_2014-06-08_23-21-00_260595134347_rgbf000070-resize_7-target.png,1000,4.0585,3,3919,986,meters,jsons/v1_VE1000_randls_35_rotated.json,767539,898158,54,Woman
68,602927,DepthScenes,duration_manipulation_targetAtFixation,jsons/v1_VE1000_randls_35_rotated.json,http://54.235.29.9/FacialAge/BNav_EC2/DepthDuration/v2_depth_duration_MTurk/v2_DepthDuration_HTML.html#113,113,1366,625,1366,768,8-22-2022,9-12-2,69,depth_duration_stimuli/002568_2014-06-24_13-59-21_094959634447_rgbf000062-resize_4/002568_2014-06-24_13-59-21_094959634447_rgbf000062-resize_4-target.png,1000,3.015,2,3273,1001,meters,jsons/v1_VE1000_randls_35_rotated.json,767539,898158,54,Woman
69,602927,DepthScenes,duration_manipulation_targetAtFixation,jsons/v1_VE1000_randls_35_rotated.json,http://54.235.29.9/FacialAge/BNav_EC2/DepthDuration/v2_depth_duration_MTurk/v2_DepthDuration_HTML.html#113,113,1366,625,1366,768,8-22-2022,9-12-2,70,depth_duration_stimuli/003492_2014-05-21_15-50-55_094959634447_rgbf000828-resize_1/003492_2014-05-21_15-50-55_094959634447_rgbf000828-resize_1-target.png,1000,4.06875,1,3214,992,meters,jsons/v1_VE1000_randls_35_rotated.json,767539,898158,54,Woman
70,602927,DepthScenes,duration_manipulation_targetAtFixation,jsons/v1_VE1000_randls_35_rotated.json,http://54.235.29.9/FacialAge/BNav_EC2/DepthDuration/v2_depth_duration_MTurk/v2_DepthDuration_HTML.html#113,113,1366,625,1366,768,8-22-2022,9-12-2,71,depth_duration_stimuli/000709_2014-06-08_13-51-55_260595134347_rgbf000068-resize_3/000709_2014-06-08_13-51-55_260595134347_rgbf000068-resize_3-target.png,1000,1.8030000000000002,3,3081,1013,meters,jsons/v1_VE1000_randls_35_rotated.json,767539,898158,54,Woman
71,602927,DepthScenes,duration_manipulation_targetAtFixation,jsons/v1_VE1000_randls_35_rotated.json,http://54.235.29.9/FacialAge/BNav_EC2/DepthDuration/v2_depth_duration_MTurk/v2_DepthDuration_HTML.html#113,113,1366,625,1366,768,8-22-2022,9-12-2,72,depth_duration_stimuli/002057_2014-06-24_21-00-13_260595134347_rgbf000120-resize_1/002057_2014-06-24_21-00-13_260595134347_rgbf000120-resize_1-target.png,1000,2.967,2,2903,999,meters,jsons/v1_VE1000_randls_35_rotated.json,767539,898158,54,Woman
72,602927,DepthScenes,duration_manipulation_targetAtFixation,jsons/v1_VE1000_randls_35_rotated.json,http://54.235.29.9/FacialAge/BNav_EC2/DepthDuration/v2_depth_duration_MTurk/v2_DepthDuration_HTML.html#113,113,1366,625,1366,768,8-22-2022,9-12-2,73,depth_duration_stimuli/002657_2014-06-13_15-29-54_094959634447_rgbf000150-resize_1/002657_2014-06-13_15-29-54_094959634447_rgbf000150-resize_1-target.png,1000,4.919,3,73125,1001,meters,jsons/v1_VE1000_randls_35_rotated.json,767539,898158,54,Woman
73,602927,DepthScenes,duration_manipulation_targetAtFixation,jsons/v1_VE1000_randls_35_rotated.json,http://54.235.29.9/FacialAge/BNav_EC2/DepthDuration/v2_depth_duration_MTurk/v2_DepthDuration_HTML.html#113,113,1366,625,1366,768,8-22-2022,9-12-2,74,depth_duration_stimuli/002375_2014-06-28_20-13-44_260595134347_rgbf000032-resize_1/002375_2014-06-28_20-13-44_260595134347_rgbf000032-resize_1-target.png,1000,4.0175,2,3139,991,meters,jsons/v1_VE1000_randls_35_rotated.json,767539,898158,54,Woman
74,602927,DepthScenes,duration_manipulation_targetAtFixation,jsons/v1_VE1000_randls_35_rotated.json,http://54.235.29.9/FacialAge/BNav_EC2/DepthDuration/v2_depth_duration_MTurk/v2_DepthDuration_HTML.html#113,113,1366,625,1366,768,8-22-2022,9-12-2,75,depth_duration_stimuli/003228_2014-05-14_13-42-35_094959634447_rgbf000101-resize_1/003228_2014-05-14_13-42-35_094959634447_rgbf000101-resize_1-target.png,1000,1.9680000000000002,4,3160,984,meters,jsons/v1_VE1000_randls_35_rotated.json,767539,898158,54,Woman
75,602927,DepthScenes,duration_manipulation_targetAtFixation,jsons/v1_VE1000_randls_35_rotated.json,http://54.235.29.9/FacialAge/BNav_EC2/DepthDuration/v2_depth_duration_MTurk/v2_DepthDuration_HTML.html#113,113,1366,625,1366,768,8-22-2022,9-12-2,76,depth_duration_stimuli/002600_2014-06-24_14-27-04_094959634447_rgbf000074-resize_2/002600_2014-06-24_14-27-04_094959634447_rgbf000074-resize_2-target.png,1000,2.7575,3,3050,996,meters,jsons/v1_VE1000_randls_35_rotated.json,767539,898158,54,Woman
76,602927,DepthScenes,duration_manipulation_targetAtFixation,jsons/v1_VE1000_randls_35_rotated.json,http://54.235.29.9/FacialAge/BNav_EC2/DepthDuration/v2_depth_duration_MTurk/v2_DepthDuration_HTML.html#113,113,1366,625,1366,768,8-22-2022,9-12-2,77,depth_duration_stimuli/000742_2014-06-08_18-48-09_260595134347_rgbf000164-resize_4/000742_2014-06-08_18-48-09_260595134347_rgbf000164-resize_4-target.png,1000,4.632,1,3604,994,meters,jsons/v1_VE1000_randls_35_rotated.json,767539,898158,54,Woman
77,602927,DepthScenes,duration_manipulation_targetAtFixation,jsons/v1_VE1000_randls_35_rotated.json,http://54.235.29.9/FacialAge/BNav_EC2/DepthDuration/v2_depth_duration_MTurk/v2_DepthDuration_HTML.html#113,113,1366,625,1366,768,8-22-2022,9-12-2,78,depth_duration_stimuli/001066_2014-06-08_22-03-20_260595134347_rgbf000066-resize_4/001066_2014-06-08_22-03-20_260595134347_rgbf000066-resize_4-target.png,1000,4.2330000000000005,3,3024,997,meters,jsons/v1_VE1000_randls_35_rotated.json,767539,898158,54,Woman
78,602927,DepthScenes,duration_manipulation_targetAtFixation,jsons/v1_VE1000_randls_35_rotated.json,http://54.235.29.9/FacialAge/BNav_EC2/DepthDuration/v2_depth_duration_MTurk/v2_DepthDuration_HTML.html#113,113,1366,625,1366,768,8-22-2022,9-12-2,79,depth_duration_stimuli/000927_2014-06-09_16-32-30_260595134347_rgbf000123-resize_3/000927_2014-06-09_16-32-30_260595134347_rgbf000123-resize_3-target.png,1000,2.6785,2,3024,1031,meters,jsons/v1_VE1000_randls_35_rotated.json,767539,898158,54,Woman
79,602927,DepthScenes,duration_manipulation_targetAtFixation,jsons/v1_VE1000_randls_35_rotated.json,http://54.235.29.9/FacialAge/BNav_EC2/DepthDuration/v2_depth_duration_MTurk/v2_DepthDuration_HTML.html#113,113,1366,625,1366,768,8-22-2022,9-12-2,80,depth_duration_stimuli/001110_2014-06-15_17-25-28_260595134347_rgbf000150-resize_1/001110_2014-06-15_17-25-28_260595134347_rgbf000150-resize_1-target.png,1000,1.7115,4,3779,1001,meters,jsons/v1_VE1000_randls_35_rotated.json,767539,898158,54,Woman
80,602927,DepthScenes,duration_manipulation_targetAtFixation,jsons/v1_VE1000_randls_35_rotated.json,http://54.235.29.9/FacialAge/BNav_EC2/DepthDuration/v2_depth_duration_MTurk/v2_DepthDuration_HTML.html#113,113,1366,625,1366,768,8-22-2022,9-12-2,81,depth_duration_stimuli/001447_2014-06-19_17-00-32_260595134347_rgbf000082-resize_5/001447_2014-06-19_17-00-32_260595134347_rgbf000082-resize_5-target.png,1000,4.13775,2,3488,1008,meters,jsons/v1_VE1000_randls_35_rotated.json,767539,898158,54,Woman
81,602927,DepthScenes,duration_manipulation_targetAtFixation,jsons/v1_VE1000_randls_35_rotated.json,http://54.235.29.9/FacialAge/BNav_EC2/DepthDuration/v2_depth_duration_MTurk/v2_DepthDuration_HTML.html#113,113,1366,625,1366,768,8-22-2022,9-12-2,82,depth_duration_stimuli/000447_2014-06-08_16-15-46_260595134347_rgbf000130-resize_1/000447_2014-06-08_16-15-46_260595134347_rgbf000130-resize_1-target.png,1000,4.479,3,3342,988,meters,jsons/v1_VE1000_randls_35_rotated.json,767539,898158,54,Woman
82,602927,DepthScenes,duration_manipulation_targetAtFixation,jsons/v1_VE1000_randls_35_rotated.json,http://54.235.29.9/FacialAge/BNav_EC2/DepthDuration/v2_depth_duration_MTurk/v2_DepthDuration_HTML.html#113,113,1366,625,1366,768,8-22-2022,9-12-2,83,depth_duration_stimuli/001214_2014-06-17_16-13-55_260595134347_rgbf000111-resize_0/001214_2014-06-17_16-13-55_260595134347_rgbf000111-resize_0-target.png,1000,2.6505,1,3272,1113,meters,jsons/v1_VE1000_randls_35_rotated.json,767539,898158,54,Woman
83,602927,DepthScenes,duration_manipulation_targetAtFixation,jsons/v1_VE1000_randls_35_rotated.json,http://54.235.29.9/FacialAge/BNav_EC2/DepthDuration/v2_depth_duration_MTurk/v2_DepthDuration_HTML.html#113,113,1366,625,1366,768,8-22-2022,9-12-2,84,depth_duration_stimuli/000810_2014-06-08_17-20-01_260595134347_rgbf000105-resize_0/000810_2014-06-08_17-20-01_260595134347_rgbf000105-resize_0-target.png,1000,1.4865,3,3026,996,meters,jsons/v1_VE1000_randls_35_rotated.json,767539,898158,54,Woman
84,602927,DepthScenes,duration_manipulation_targetAtFixation,jsons/v1_VE1000_randls_35_rotated.json,http://54.235.29.9/FacialAge/BNav_EC2/DepthDuration/v2_depth_duration_MTurk/v2_DepthDuration_HTML.html#113,113,1366,625,1366,768,8-22-2022,9-12-2,85,depth_duration_stimuli/000635_2014-06-08_16-38-42_260595134347_rgbf000106-resize_1/000635_2014-06-08_16-38-42_260595134347_rgbf000106-resize_1-target.png,1000,2.074,4,3621,1007,meters,jsons/v1_VE1000_randls_35_rotated.json,767539,898158,54,Woman
85,602927,DepthScenes,duration_manipulation_targetAtFixation,jsons/v1_VE1000_randls_35_rotated.json,http://54.235.29.9/FacialAge/BNav_EC2/DepthDuration/v2_depth_duration_MTurk/v2_DepthDuration_HTML.html#113,113,1366,625,1366,768,8-22-2022,9-12-2,86,depth_duration_stimuli/002279_2014-06-28_18-55-32_260595134347_rgbf000040-resize_5/002279_2014-06-28_18-55-32_260595134347_rgbf000040-resize_5-target.png,1000,1.5043333333333,2,3129,988,meters,jsons/v1_VE1000_randls_35_rotated.json,767539,898158,54,Woman
86,602927,DepthScenes,duration_manipulation_targetAtFixation,jsons/v1_VE1000_randls_35_rotated.json,http://54.235.29.9/FacialAge/BNav_EC2/DepthDuration/v2_depth_duration_MTurk/v2_DepthDuration_HTML.html#113,113,1366,625,1366,768,8-22-2022,9-12-2,87,depth_duration_stimuli/001052_2014-06-08_18-24-54_260595134347_rgbf000130-resize_1/001052_2014-06-08_18-24-54_260595134347_rgbf000130-resize_1-target.png,1000,4.1045,2,4473,993,meters,jsons/v1_VE1000_randls_35_rotated.json,767539,898158,54,Woman
87,602927,DepthScenes,duration_manipulation_targetAtFixation,jsons/v1_VE1000_randls_35_rotated.json,http://54.235.29.9/FacialAge/BNav_EC2/DepthDuration/v2_depth_duration_MTurk/v2_DepthDuration_HTML.html#113,113,1366,625,1366,768,8-22-2022,9-12-2,88,depth_duration_stimuli/002988_2014-06-15_12-24-20_094959634447_rgbf000150-resize_1/002988_2014-06-15_12-24-20_094959634447_rgbf000150-resize_1-target.png,1000,4.7669999999999995,3,3202,987,meters,jsons/v1_VE1000_randls_35_rotated.json,767539,898158,54,Woman
88,602927,DepthScenes,duration_manipulation_targetAtFixation,jsons/v1_VE1000_randls_35_rotated.json,http://54.235.29.9/FacialAge/BNav_EC2/DepthDuration/v2_depth_duration_MTurk/v2_DepthDuration_HTML.html#113,113,1366,625,1366,768,8-22-2022,9-12-2,89,depth_duration_stimuli/000691_2014-06-08_13-08-50_260595134347_rgbf000132-resize_3/000691_2014-06-08_13-08-50_260595134347_rgbf000132-resize_3-target.png,1000,4.1530000000000005,1,3765,1082,meters,jsons/v1_VE1000_randls_35_rotated.json,767539,898158,54,Woman
89,602927,DepthScenes,duration_manipulation_targetAtFixation,jsons/v1_VE1000_randls_35_rotated.json,http://54.235.29.9/FacialAge/BNav_EC2/DepthDuration/v2_depth_duration_MTurk/v2_DepthDuration_HTML.html#113,113,1366,625,1366,768,8-22-2022,9-12-2,90,depth_duration_stimuli/002213_2014-06-28_18-37-58_260595134347_rgbf000055-resize_1/002213_2014-06-28_18-37-58_260595134347_rgbf000055-resize_1-target.png,1000,3.62,3,3455,985,meters,jsons/v1_VE1000_randls_35_rotated.json,767539,898158,54,Woman
90,602927,DepthScenes,duration_manipulation_targetAtFixation,jsons/v1_VE1000_randls_35_rotated.json,http://54.235.29.9/FacialAge/BNav_EC2/DepthDuration/v2_depth_duration_MTurk/v2_DepthDuration_HTML.html#113,113,1366,625,1366,768,8-22-2022,9-12-2,91,depth_duration_stimuli/000780_2014-06-08_22-28-29_260595134347_rgbf000126-resize_1/000780_2014-06-08_22-28-29_260595134347_rgbf000126-resize_1-target.png,1000,3.3825,2,4777,989,meters,jsons/v1_VE1000_randls_35_rotated.json,767539,898158,54,Woman
91,602927,DepthScenes,duration_manipulation_targetAtFixation,jsons/v1_VE1000_randls_35_rotated.json,http://54.235.29.9/FacialAge/BNav_EC2/DepthDuration/v2_depth_duration_MTurk/v2_DepthDuration_HTML.html#113,113,1366,625,1366,768,8-22-2022,9-12-2,92,depth_duration_stimuli/002445_2014-06-28_20-32-16_260595134347_rgbf000029-resize_4/002445_2014-06-28_20-32-16_260595134347_rgbf000029-resize_4-target.png,1000,2.5315,4,3362,992,meters,jsons/v1_VE1000_randls_35_rotated.json,767539,898158,54,Woman
92,602927,DepthScenes,duration_manipulation_targetAtFixation,jsons/v1_VE1000_randls_35_rotated.json,http://54.235.29.9/FacialAge/BNav_EC2/DepthDuration/v2_depth_duration_MTurk/v2_DepthDuration_HTML.html#113,113,1366,625,1366,768,8-22-2022,9-12-2,93,depth_duration_stimuli/001650_2014-06-20_12-09-00_260595134347_rgbf000087-resize_3/001650_2014-06-20_12-09-00_260595134347_rgbf000087-resize_3-target.png,1000,1.9505,2,3706,952,meters,jsons/v1_VE1000_randls_35_rotated.json,767539,898158,54,Woman
93,602927,DepthScenes,duration_manipulation_targetAtFixation,jsons/v1_VE1000_randls_35_rotated.json,http://54.235.29.9/FacialAge/BNav_EC2/DepthDuration/v2_depth_duration_MTurk/v2_DepthDuration_HTML.html#113,113,1366,625,1366,768,8-22-2022,9-12-2,94,depth_duration_stimuli/000682_2014-06-08_23-14-58_260595134347_rgbf000041-resize_5/000682_2014-06-08_23-14-58_260595134347_rgbf000041-resize_5-target.png,1000,2.7239999999999998,3,3980,1009,meters,jsons/v1_VE1000_randls_35_rotated.json,767539,898158,54,Woman
94,602927,DepthScenes,duration_manipulation_targetAtFixation,jsons/v1_VE1000_randls_35_rotated.json,http://54.235.29.9/FacialAge/BNav_EC2/DepthDuration/v2_depth_duration_MTurk/v2_DepthDuration_HTML.html#113,113,1366,625,1366,768,8-22-2022,9-12-2,95,depth_duration_stimuli/001571_2014-06-20_17-21-32_260595134347_rgbf000089-resize_1/001571_2014-06-20_17-21-32_260595134347_rgbf000089-resize_1-target.png,1000,1.86,3,3387,1087,meters,jsons/v1_VE1000_randls_35_rotated.json,767539,898158,54,Woman
95,602927,DepthScenes,duration_manipulation_targetAtFixation,jsons/v1_VE1000_randls_35_rotated.json,http://54.235.29.9/FacialAge/BNav_EC2/DepthDuration/v2_depth_duration_MTurk/v2_DepthDuration_HTML.html#113,113,1366,625,1366,768,8-22-2022,9-12-2,96,depth_duration_stimuli/002272_2014-06-28_18-53-56_260595134347_rgbf000067-resize_2/002272_2014-06-28_18-53-56_260595134347_rgbf000067-resize_2-target.png,1000,1.138,2,2988,1030,meters,jsons/v1_VE1000_randls_35_rotated.json,767539,898158,54,Woman
96,602927,DepthScenes,duration_manipulation_targetAtFixation,jsons/v1_VE1000_randls_35_rotated.json,http://54.235.29.9/FacialAge/BNav_EC2/DepthDuration/v2_depth_duration_MTurk/v2_DepthDuration_HTML.html#113,113,1366,625,1366,768,8-22-2022,9-12-2,97,depth_duration_stimuli/001032_2014-06-08_13-23-17_260595134347_rgbf000021-resize_3/001032_2014-06-08_13-23-17_260595134347_rgbf000021-resize_3-target.png,1000,3.2725,5,3753,1002,meters,jsons/v1_VE1000_randls_35_rotated.json,767539,898158,54,Woman
97,602927,DepthScenes,duration_manipulation_targetAtFixation,jsons/v1_VE1000_randls_35_rotated.json,http://54.235.29.9/FacialAge/BNav_EC2/DepthDuration/v2_depth_duration_MTurk/v2_DepthDuration_HTML.html#113,113,1366,625,1366,768,8-22-2022,9-12-2,98,depth_duration_stimuli/001059_2014-06-08_21-53-27_260595134347_rgbf000061-resize_4/001059_2014-06-08_21-53-27_260595134347_rgbf000061-resize_4-target.png,1000,2.4185,3,3027,998,meters,jsons/v1_VE1000_randls_35_rotated.json,767539,898158,54,Woman
98,602927,DepthScenes,duration_manipulation_targetAtFixation,jsons/v1_VE1000_randls_35_rotated.json,http://54.235.29.9/FacialAge/BNav_EC2/DepthDuration/v2_depth_duration_MTurk/v2_DepthDuration_HTML.html#113,113,1366,625,1366,768,8-22-2022,9-12-2,99,depth_duration_stimuli/001222_2014-06-17_16-24-06_260595134347_rgbf000073-resize_0/001222_2014-06-17_16-24-06_260595134347_rgbf000073-resize-original.jpg,1000,1.4385,0,8020,1001,meters,jsons/v1_VE1000_randls_35_rotated.json,767539,898158,54,Woman
99,602927,DepthScenes,duration_manipulation_targetAtFixation,jsons/v1_VE1000_randls_35_rotated.json,http://54.235.29.9/FacialAge/BNav_EC2/DepthDuration/v2_depth_duration_MTurk/v2_DepthDuration_HTML.html#113,113,1366,625,1366,768,8-22-2022,9-12-2,100,depth_duration_stimuli/003010_2014-06-15_12-54-35_094959634447_rgbf000112-resize_0/003010_2014-06-15_12-54-35_094959634447_rgbf000112-resize_0-target.png,1000,3.1185,2,3508,1182,meters,jsons/v1_VE1000_randls_35_rotated.json,767539,898158,54,Woman
100,602927,DepthScenes,duration_manipulation_targetAtFixation,jsons/v1_VE1000_randls_35_rotated.json,http://54.235.29.9/FacialAge/BNav_EC2/DepthDuration/v2_depth_duration_MTurk/v2_DepthDuration_HTML.html#113,113,1366,625,1366,768,8-22-2022,9-12-2,101,depth_duration_stimuli/001810_2014-06-26_20-51-35_260595134347_rgbf000040-resize_3/001810_2014-06-26_20-51-35_260595134347_rgbf000040-resize_3-target.png,1000,2.2525,1,4600,988,meters,jsons/v1_VE1000_randls_35_rotated.json,767539,898158,54,Woman
101,602927,DepthScenes,duration_manipulation_targetAtFixation,jsons/v1_VE1000_randls_35_rotated.json,http://54.235.29.9/FacialAge/BNav_EC2/DepthDuration/v2_depth_duration_MTurk/v2_DepthDuration_HTML.html#113,113,1366,625,1366,768,8-22-2022,9-12-2,102,depth_duration_stimuli/003338_2014-05-20_11-01-23_094959634447_rgbf000051-resize_6/003338_2014-05-20_11-01-23_094959634447_rgbf000051-resize_6-target.png,1000,1.693,3,3304,993,meters,jsons/v1_VE1000_randls_35_rotated.json,767539,898158,54,Woman
102,602927,DepthScenes,duration_manipulation_targetAtFixation,jsons/v1_VE1000_randls_35_rotated.json,http://54.235.29.9/FacialAge/BNav_EC2/DepthDuration/v2_depth_duration_MTurk/v2_DepthDuration_HTML.html#113,113,1366,625,1366,768,8-22-2022,9-12-2,103,depth_duration_stimuli/002509_2014-06-24_13-19-22_094959634447_rgbf000077-resize_0/002509_2014-06-24_13-19-22_094959634447_rgbf000077-resize_0-target.png,1000,1.3065,2,3313,998,meters,jsons/v1_VE1000_randls_35_rotated.json,767539,898158,54,Woman
103,602927,DepthScenes,duration_manipulation_targetAtFixation,jsons/v1_VE1000_randls_35_rotated.json,http://54.235.29.9/FacialAge/BNav_EC2/DepthDuration/v2_depth_duration_MTurk/v2_DepthDuration_HTML.html#113,113,1366,625,1366,768,8-22-2022,9-12-2,104,depth_duration_stimuli/001136_2014-06-17_15-19-41_260595134347_rgbf000076-resize_3/001136_2014-06-17_15-19-41_260595134347_rgbf000076-resize_3-target.png,1000,1.8655,4,3880,989,meters,jsons/v1_VE1000_randls_35_rotated.json,767539,898158,54,Woman
104,602927,DepthScenes,duration_manipulation_targetAtFixation,jsons/v1_VE1000_randls_35_rotated.json,http://54.235.29.9/FacialAge/BNav_EC2/DepthDuration/v2_depth_duration_MTurk/v2_DepthDuration_HTML.html#113,113,1366,625,1366,768,8-22-2022,9-12-2,105,depth_duration_stimuli/001164_2014-06-17_15-35-46_260595134347_rgbf000085-resize_3/001164_2014-06-17_15-35-46_260595134347_rgbf000085-resize_3-target.png,1000,2.354,2,3554,978,meters,jsons/v1_VE1000_randls_35_rotated.json,767539,898158,54,Woman
105,602927,DepthScenes,duration_manipulation_targetAtFixation,jsons/v1_VE1000_randls_35_rotated.json,http://54.235.29.9/FacialAge/BNav_EC2/DepthDuration/v2_depth_duration_MTurk/v2_DepthDuration_HTML.html#113,113,1366,625,1366,768,8-22-2022,9-12-2,106,depth_duration_stimuli/000103_2014-05-14_22-01-17_260595134347_rgbf000152-resize_5/000103_2014-05-14_22-01-17_260595134347_rgbf000152-resize_5-target.png,1000,1.993,4,4004,990,meters,jsons/v1_VE1000_randls_35_rotated.json,767539,898158,54,Woman
106,602927,DepthScenes,duration_manipulation_targetAtFixation,jsons/v1_VE1000_randls_35_rotated.json,http://54.235.29.9/FacialAge/BNav_EC2/DepthDuration/v2_depth_duration_MTurk/v2_DepthDuration_HTML.html#113,113,1366,625,1366,768,8-22-2022,9-12-2,107,depth_duration_stimuli/001555_2014-06-20_17-12-10_260595134347_rgbf000065-resize_4/001555_2014-06-20_17-12-10_260595134347_rgbf000065-resize_4-target.png,1000,1.633,2,3760,1028,meters,jsons/v1_VE1000_randls_35_rotated.json,767539,898158,54,Woman
107,602927,DepthScenes,duration_manipulation_targetAtFixation,jsons/v1_VE1000_randls_35_rotated.json,http://54.235.29.9/FacialAge/BNav_EC2/DepthDuration/v2_depth_duration_MTurk/v2_DepthDuration_HTML.html#113,113,1366,625,1366,768,8-22-2022,9-12-2,108,depth_duration_stimuli/002209_2014-06-28_18-36-10_260595134347_rgbf000051-resize_1/002209_2014-06-28_18-36-10_260595134347_rgbf000051-resize_1-target.png,1000,2.057,4,3595,1000,meters,jsons/v1_VE1000_randls_35_rotated.json,767539,898158,54,Woman
108,602927,DepthScenes,duration_manipulation_targetAtFixation,jsons/v1_VE1000_randls_35_rotated.json,http://54.235.29.9/FacialAge/BNav_EC2/DepthDuration/v2_depth_duration_MTurk/v2_DepthDuration_HTML.html#113,113,1366,625,1366,768,8-22-2022,9-12-2,109,depth_duration_stimuli/002763_2014-06-22_19-13-10_094959634447_rgbf000075-resize_4/002763_2014-06-22_19-13-10_094959634447_rgbf000075-resize_4-target.png,1000,1.68375,3,3088,994,meters,jsons/v1_VE1000_randls_35_rotated.json,767539,898158,54,Woman
109,602927,DepthScenes,duration_manipulation_targetAtFixation,jsons/v1_VE1000_randls_35_rotated.json,http://54.235.29.9/FacialAge/BNav_EC2/DepthDuration/v2_depth_duration_MTurk/v2_DepthDuration_HTML.html#113,113,1366,625,1366,768,8-22-2022,9-12-2,110,depth_duration_stimuli/000109_2014-05-14_23-41-52_260595134347_rgbf000035-resize_9/000109_2014-05-14_23-41-52_260595134347_rgbf000035-resize_9-target.png,1000,1.3545,2,3151,985,meters,jsons/v1_VE1000_randls_35_rotated.json,767539,898158,54,Woman
110,602927,DepthScenes,duration_manipulation_targetAtFixation,jsons/v1_VE1000_randls_35_rotated.json,http://54.235.29.9/FacialAge/BNav_EC2/DepthDuration/v2_depth_duration_MTurk/v2_DepthDuration_HTML.html#113,113,1366,625,1366,768,8-22-2022,9-12-2,111,depth_duration_stimuli/000470_2014-06-09_19-42-40_260595134347_rgbf000094-resize_1/000470_2014-06-09_19-42-40_260595134347_rgbf000094-resize_1-target.png,1000,1.831,4,2995,999,meters,jsons/v1_VE1000_randls_35_rotated.json,767539,898158,54,Woman
111,602927,DepthScenes,duration_manipulation_targetAtFixation,jsons/v1_VE1000_randls_35_rotated.json,http://54.235.29.9/FacialAge/BNav_EC2/DepthDuration/v2_depth_duration_MTurk/v2_DepthDuration_HTML.html#113,113,1366,625,1366,768,8-22-2022,9-12-2,112,depth_duration_stimuli/003495_2014-05-21_16-01-51_094959634447_rgbf000100-resize_3/003495_2014-05-21_16-01-51_094959634447_rgbf000100-resize_3-target.png,1000,1.6255,1,2971,996,meters,jsons/v1_VE1000_randls_35_rotated.json,767539,898158,54,Woman
112,602927,DepthScenes,duration_manipulation_targetAtFixation,jsons/v1_VE1000_randls_35_rotated.json,http://54.235.29.9/FacialAge/BNav_EC2/DepthDuration/v2_depth_duration_MTurk/v2_DepthDuration_HTML.html#113,113,1366,625,1366,768,8-22-2022,9-12-2,113,depth_duration_stimuli/001244_2014-06-17_16-47-45_260595134347_rgbf000030-resize_4/001244_2014-06-17_16-47-45_260595134347_rgbf000030-resize_4-target.png,1000,2.0425,2,3084,980,meters,jsons/v1_VE1000_randls_35_rotated.json,767539,898158,54,Woman
113,602927,DepthScenes,duration_manipulation_targetAtFixation,jsons/v1_VE1000_randls_35_rotated.json,http://54.235.29.9/FacialAge/BNav_EC2/DepthDuration/v2_depth_duration_MTurk/v2_DepthDuration_HTML.html#113,113,1366,625,1366,768,8-22-2022,9-12-2,114,depth_duration_stimuli/001815_2014-06-26_20-52-55_260595134347_rgbf000020-resize_0/001815_2014-06-26_20-52-55_260595134347_rgbf000020-resize_0-target.png,1000,3.3865,3,3986,991,meters,jsons/v1_VE1000_randls_35_rotated.json,767539,898158,54,Woman
114,602927,DepthScenes,duration_manipulation_targetAtFixation,jsons/v1_VE1000_randls_35_rotated.json,http://54.235.29.9/FacialAge/BNav_EC2/DepthDuration/v2_depth_duration_MTurk/v2_DepthDuration_HTML.html#113,113,1366,625,1366,768,8-22-2022,9-12-2,115,depth_duration_stimuli/001808_2014-06-26_20-50-58_260595134347_rgbf000029-resize_1/001808_2014-06-26_20-50-58_260595134347_rgbf000029-resize_1-target.png,1000,4.249,2,2954,1012,meters,jsons/v1_VE1000_randls_35_rotated.json,767539,898158,54,Woman
115,602927,DepthScenes,duration_manipulation_targetAtFixation,jsons/v1_VE1000_randls_35_rotated.json,http://54.235.29.9/FacialAge/BNav_EC2/DepthDuration/v2_depth_duration_MTurk/v2_DepthDuration_HTML.html#113,113,1366,625,1366,768,8-22-2022,9-12-2,116,depth_duration_stimuli/002875_2014-06-01_15-19-00_094959634447_rgbf000151-resize_1/002875_2014-06-01_15-19-00_094959634447_rgbf000151-resize_1-target.png,1000,1.9675,2,4332,1031,meters,jsons/v1_VE1000_randls_35_rotated.json,767539,898158,54,Woman
116,602927,DepthScenes,duration_manipulation_targetAtFixation,jsons/v1_VE1000_randls_35_rotated.json,http://54.235.29.9/FacialAge/BNav_EC2/DepthDuration/v2_depth_duration_MTurk/v2_DepthDuration_HTML.html#113,113,1366,625,1366,768,8-22-2022,9-12-2,117,depth_duration_stimuli/001011_2014-06-08_23-18-54_260595134347_rgbf000044-resize_4/001011_2014-06-08_23-18-54_260595134347_rgbf000044-resize_4-target.png,1000,2.4730000000000003,4,2989,987,meters,jsons/v1_VE1000_randls_35_rotated.json,767539,898158,54,Woman
117,602927,DepthScenes,duration_manipulation_targetAtFixation,jsons/v1_VE1000_randls_35_rotated.json,http://54.235.29.9/FacialAge/BNav_EC2/DepthDuration/v2_depth_duration_MTurk/v2_DepthDuration_HTML.html#113,113,1366,625,1366,768,8-22-2022,9-12-2,118,depth_duration_stimuli/002949_2014-06-26_15-57-42_094959634447_rgbf000079-resize_1/002949_2014-06-26_15-57-42_094959634447_rgbf000079-resize_1-target.png,1000,1.8915,2,5911,994,meters,jsons/v1_VE1000_randls_35_rotated.json,767539,898158,54,Woman
118,602927,DepthScenes,duration_manipulation_targetAtFixation,jsons/v1_VE1000_randls_35_rotated.json,http://54.235.29.9/FacialAge/BNav_EC2/DepthDuration/v2_depth_duration_MTurk/v2_DepthDuration_HTML.html#113,113,1366,625,1366,768,8-22-2022,9-12-2,119,depth_duration_stimuli/000522_2014-06-08_13-35-06_260595134347_rgbf000244-resize_1/000522_2014-06-08_13-35-06_260595134347_rgbf000244-resize_1-target.png,1000,2.3715,4,3432,997,meters,jsons/v1_VE1000_randls_35_rotated.json,767539,898158,54,Woman
119,602927,DepthScenes,duration_manipulation_targetAtFixation,jsons/v1_VE1000_randls_35_rotated.json,http://54.235.29.9/FacialAge/BNav_EC2/DepthDuration/v2_depth_duration_MTurk/v2_DepthDuration_HTML.html#113,113,1366,625,1366,768,8-22-2022,9-12-2,120,depth_duration_stimuli/000787_2014-06-08_22-33-53_260595134347_rgbf000175-resize_1/000787_2014-06-08_22-33-53_260595134347_rgbf000175-resize-original.jpg,1000,4.784,2,4192,995,meters,jsons/v1_VE1000_randls_35_rotated.json,767539,898158,54,Woman
120,602927,DepthScenes,duration_manipulation_targetAtFixation,jsons/v1_VE1000_randls_35_rotated.json,http://54.235.29.9/FacialAge/BNav_EC2/DepthDuration/v2_depth_duration_MTurk/v2_DepthDuration_HTML.html#113,113,1366,625,1366,768,8-22-2022,9-12-2,121,depth_duration_stimuli/000502_2014-06-08_23-02-32_260595134347_rgbf000063-resize_4/000502_2014-06-08_23-02-32_260595134347_rgbf000063-resize_4-target.png,1000,2.431,1,8035,977,meters,jsons/v1_VE1000_randls_35_rotated.json,767539,898158,54,Woman
121,602927,DepthScenes,duration_manipulation_targetAtFixation,jsons/v1_VE1000_randls_35_rotated.json,http://54.235.29.9/FacialAge/BNav_EC2/DepthDuration/v2_depth_duration_MTurk/v2_DepthDuration_HTML.html#113,113,1366,625,1366,768,8-22-2022,9-12-2,122,depth_duration_stimuli/001199_2014-06-17_16-03-48_260595134347_rgbf000077-resize_0/001199_2014-06-17_16-03-48_260595134347_rgbf000077-resize_0-target.png,1000,3.4375,3,3498,1001,meters,jsons/v1_VE1000_randls_35_rotated.json,767539,898158,54,Woman
122,602927,DepthScenes,duration_manipulation_targetAtFixation,jsons/v1_VE1000_randls_35_rotated.json,http://54.235.29.9/FacialAge/BNav_EC2/DepthDuration/v2_depth_duration_MTurk/v2_DepthDuration_HTML.html#113,113,1366,625,1366,768,8-22-2022,9-12-2,123,depth_duration_stimuli/000457_2014-06-08_16-52-43_260595134347_rgbf000199-resize_1/000457_2014-06-08_16-52-43_260595134347_rgbf000199-resize_1-target.png,1000,3.6489999999999996,2,3404,998,meters,jsons/v1_VE1000_randls_35_rotated.json,767539,898158,54,Woman
123,602927,DepthScenes,duration_manipulation_targetAtFixation,jsons/v1_VE1000_randls_35_rotated.json,http://54.235.29.9/FacialAge/BNav_EC2/DepthDuration/v2_depth_duration_MTurk/v2_DepthDuration_HTML.html#113,113,1366,625,1366,768,8-22-2022,9-12-2,124,depth_duration_stimuli/000929_2014-06-09_16-33-19_260595134347_rgbf000139-resize_0/000929_2014-06-09_16-33-19_260595134347_rgbf000139-resize_0-target.png,1000,2.8680000000000003,3,3427,1001,meters,jsons/v1_VE1000_randls_35_rotated.json,767539,898158,54,Woman
124,602927,DepthScenes,duration_manipulation_targetAtFixation,jsons/v1_VE1000_randls_35_rotated.json,http://54.235.29.9/FacialAge/BNav_EC2/DepthDuration/v2_depth_duration_MTurk/v2_DepthDuration_HTML.html#113,113,1366,625,1366,768,8-22-2022,9-12-2,125,depth_duration_stimuli/001392_2014-06-19_16-07-59_260595134347_rgbf000046-resize_1/001392_2014-06-19_16-07-59_260595134347_rgbf000046-resize_1-target.png,1000,4.135,2,3771,984,meters,jsons/v1_VE1000_randls_35_rotated.json,767539,898158,54,Woman
125,602927,DepthScenes,duration_manipulation_targetAtFixation,jsons/v1_VE1000_randls_35_rotated.json,http://54.235.29.9/FacialAge/BNav_EC2/DepthDuration/v2_depth_duration_MTurk/v2_DepthDuration_HTML.html#113,113,1366,625,1366,768,8-22-2022,9-12-2,126,depth_duration_stimuli/001570_2014-06-20_17-21-09_260595134347_rgbf000135-resize_4/001570_2014-06-20_17-21-09_260595134347_rgbf000135-resize_4-target.png,1000,4.467,1,2835,988,meters,jsons/v1_VE1000_randls_35_rotated.json,767539,898158,54,Woman
126,602927,DepthScenes,duration_manipulation_targetAtFixation,jsons/v1_VE1000_randls_35_rotated.json,http://54.235.29.9/FacialAge/BNav_EC2/DepthDuration/v2_depth_duration_MTurk/v2_DepthDuration_HTML.html#113,113,1366,625,1366,768,8-22-2022,9-12-2,127,depth_duration_stimuli/001584_2014-06-20_11-07-43_260595134347_rgbf000002-resize_1/001584_2014-06-20_11-07-43_260595134347_rgbf000002-resize_1-target.png,1000,3.53,3,2941,981,meters,jsons/v1_VE1000_randls_35_rotated.json,767539,898158,54,Woman
127,602927,DepthScenes,duration_manipulation_targetAtFixation,jsons/v1_VE1000_randls_35_rotated.json,http://54.235.29.9/FacialAge/BNav_EC2/DepthDuration/v2_depth_duration_MTurk/v2_DepthDuration_HTML.html#113,113,1366,625,1366,768,8-22-2022,9-12-2,128,depth_duration_stimuli/003621_2014-05-23_18-06-08_094959634447_rgbf000101-resize_1/003621_2014-05-23_18-06-08_094959634447_rgbf000101-resize_1-target.png,1000,3.9835,2,3588,1005,meters,jsons/v1_VE1000_randls_35_rotated.json,767539,898158,54,Woman
128,602927,DepthScenes,duration_manipulation_targetAtFixation,jsons/v1_VE1000_randls_35_rotated.json,http://54.235.29.9/FacialAge/BNav_EC2/DepthDuration/v2_depth_duration_MTurk/v2_DepthDuration_HTML.html#113,113,1366,625,1366,768,8-22-2022,9-12-2,129,depth_duration_stimuli/002639_2014-06-24_14-51-37_094959634447_rgbf000074-resize_4/002639_2014-06-24_14-51-37_094959634447_rgbf000074-resize_4-target.png,1000,4.0375,4,3350,1005,meters,jsons/v1_VE1000_randls_35_rotated.json,767539,898158,54,Woman
129,602927,DepthScenes,duration_manipulation_targetAtFixation,jsons/v1_VE1000_randls_35_rotated.json,http://54.235.29.9/FacialAge/BNav_EC2/DepthDuration/v2_depth_duration_MTurk/v2_DepthDuration_HTML.html#113,113,1366,625,1366,768,8-22-2022,9-12-2,130,depth_duration_stimuli/003292_2014-05-14_21-53-49_094959634447_rgbf000100-resize_2/003292_2014-05-14_21-53-49_094959634447_rgbf000100-resize_2-target.png,1000,3.4815,2,2904,985,meters,jsons/v1_VE1000_randls_35_rotated.json,767539,898158,54,Woman
130,602927,DepthScenes,duration_manipulation_targetAtFixation,jsons/v1_VE1000_randls_35_rotated.json,http://54.235.29.9/FacialAge/BNav_EC2/DepthDuration/v2_depth_duration_MTurk/v2_DepthDuration_HTML.html#113,113,1366,625,1366,768,8-22-2022,9-12-2,131,depth_duration_stimuli/000665_2014-06-09_20-42-35_260595134347_rgbf000110-resize_1/000665_2014-06-09_20-42-35_260595134347_rgbf000110-resize_1-target.png,1000,3.057,4,3700,993,meters,jsons/v1_VE1000_randls_35_rotated.json,767539,898158,54,Woman
131,602927,DepthScenes,duration_manipulation_targetAtFixation,jsons/v1_VE1000_randls_35_rotated.json,http://54.235.29.9/FacialAge/BNav_EC2/DepthDuration/v2_depth_duration_MTurk/v2_DepthDuration_HTML.html#113,113,1366,625,1366,768,8-22-2022,9-12-2,132,depth_duration_stimuli/001150_2014-06-17_15-27-34_260595134347_rgbf000108-resize_2/001150_2014-06-17_15-27-34_260595134347_rgbf000108-resize_2-target.png,1000,4.0325,2,2633,631,meters,jsons/v1_VE1000_randls_35_rotated.json,767539,898158,54,Woman
132,602927,DepthScenes,duration_manipulation_targetAtFixation,jsons/v1_VE1000_randls_35_rotated.json,http://54.235.29.9/FacialAge/BNav_EC2/DepthDuration/v2_depth_duration_MTurk/v2_DepthDuration_HTML.html#113,113,1366,625,1366,768,8-22-2022,9-12-2,133,depth_duration_stimuli/000409_2014-06-04_19-23-33_260595134347_rgbf000067-resize_0/000409_2014-06-04_19-23-33_260595134347_rgbf000067-resize_0-target.png,1000,3.7335,4,3391,998,meters,jsons/v1_VE1000_randls_35_rotated.json,767539,898158,54,Woman
133,602927,DepthScenes,duration_manipulation_targetAtFixation,jsons/v1_VE1000_randls_35_rotated.json,http://54.235.29.9/FacialAge/BNav_EC2/DepthDuration/v2_depth_duration_MTurk/v2_DepthDuration_HTML.html#113,113,1366,625,1366,768,8-22-2022,9-12-2,134,depth_duration_stimuli/002663_2014-06-13_15-50-26_094959634447_rgbf000075-resize_1/002663_2014-06-13_15-50-26_094959634447_rgbf000075-resize_1-target.png,1000,4.7495,2,3217,993,meters,jsons/v1_VE1000_randls_35_rotated.json,767539,898158,54,Woman
134,602927,DepthScenes,duration_manipulation_targetAtFixation,jsons/v1_VE1000_randls_35_rotated.json,http://54.235.29.9/FacialAge/BNav_EC2/DepthDuration/v2_depth_duration_MTurk/v2_DepthDuration_HTML.html#113,113,1366,625,1366,768,8-22-2022,9-12-2,135,depth_duration_stimuli/000375_2014-06-08_11-17-29_260595134347_rgbf000133-resize_2/000375_2014-06-08_11-17-29_260595134347_rgbf000133-resize-original.jpg,1000,4.718,0,4338,1044,meters,jsons/v1_VE1000_randls_35_rotated.json,767539,898158,54,Woman
135,602927,DepthScenes,duration_manipulation_targetAtFixation,jsons/v1_VE1000_randls_35_rotated.json,http://54.235.29.9/FacialAge/BNav_EC2/DepthDuration/v2_depth_duration_MTurk/v2_DepthDuration_HTML.html#113,113,1366,625,1366,768,8-22-2022,9-12-2,136,depth_duration_stimuli/002467_2014-06-28_20-38-07_260595134347_rgbf000026-resize_2/002467_2014-06-28_20-38-07_260595134347_rgbf000026-resize_2-target.png,1000,4.742,3,5208,997,meters,jsons/v1_VE1000_randls_35_rotated.json,767539,898158,54,Woman
136,602927,DepthScenes,duration_manipulation_targetAtFixation,jsons/v1_VE1000_randls_35_rotated.json,http://54.235.29.9/FacialAge/BNav_EC2/DepthDuration/v2_depth_duration_MTurk/v2_DepthDuration_HTML.html#113,113,1366,625,1366,768,8-22-2022,9-12-2,137,depth_duration_stimuli/002570_2014-06-24_13-59-54_094959634447_rgbf000059-resize_0/002570_2014-06-24_13-59-54_094959634447_rgbf000059-resize_0-target.png,1000,4.037,2,3433,997,meters,jsons/v1_VE1000_randls_35_rotated.json,767539,898158,54,Woman
137,602927,DepthScenes,duration_manipulation_targetAtFixation,jsons/v1_VE1000_randls_35_rotated.json,http://54.235.29.9/FacialAge/BNav_EC2/DepthDuration/v2_depth_duration_MTurk/v2_DepthDuration_HTML.html#113,113,1366,625,1366,768,8-22-2022,9-12-2,138,depth_duration_stimuli/001828_2014-06-26_21-40-03_260595134347_rgbf000024-resize_0/001828_2014-06-26_21-40-03_260595134347_rgbf000024-resize_0-target.png,1000,4.8260000000000005,4,4240,984,meters,jsons/v1_VE1000_randls_35_rotated.json,767539,898158,54,Woman
138,602927,DepthScenes,duration_manipulation_targetAtFixation,jsons/v1_VE1000_randls_35_rotated.json,http://54.235.29.9/FacialAge/BNav_EC2/DepthDuration/v2_depth_duration_MTurk/v2_DepthDuration_HTML.html#113,113,1366,625,1366,768,8-22-2022,9-12-2,139,depth_duration_stimuli/000009_2014-05-26_14-32-05_260595134347_rgbf000034-resize_3/000009_2014-05-26_14-32-05_260595134347_rgbf000034-resize_3-target.png,1000,3.8715,2,3523,1003,meters,jsons/v1_VE1000_randls_35_rotated.json,767539,898158,54,Woman
139,602927,DepthScenes,duration_manipulation_targetAtFixation,jsons/v1_VE1000_randls_35_rotated.json,http://54.235.29.9/FacialAge/BNav_EC2/DepthDuration/v2_depth_duration_MTurk/v2_DepthDuration_HTML.html#113,113,1366,625,1366,768,8-22-2022,9-12-2,140,depth_duration_stimuli/003129_2014-05-12_10-48-10_094959634447_rgbf000100-resize_0/003129_2014-05-12_10-48-10_094959634447_rgbf000100-resize_0-target.png,1000,4.9305,4,6072,993,meters,jsons/v1_VE1000_randls_35_rotated.json,767539,898158,54,Woman
140,602927,DepthScenes,duration_manipulation_targetAtFixation,jsons/v1_VE1000_randls_35_rotated.json,http://54.235.29.9/FacialAge/BNav_EC2/DepthDuration/v2_depth_duration_MTurk/v2_DepthDuration_HTML.html#113,113,1366,625,1366,768,8-22-2022,9-12-2,141,depth_duration_stimuli/000414_2014-06-04_19-49-13_260595134347_rgbf000044-resize_0/000414_2014-06-04_19-49-13_260595134347_rgbf000044-resize_0-target.png,1000,4.329,2,2822,1000,meters,jsons/v1_VE1000_randls_35_rotated.json,767539,898158,54,Woman
141,602927,DepthScenes,duration_manipulation_targetAtFixation,jsons/v1_VE1000_randls_35_rotated.json,http://54.235.29.9/FacialAge/BNav_EC2/DepthDuration/v2_depth_duration_MTurk/v2_DepthDuration_HTML.html#113,113,1366,625,1366,768,8-22-2022,9-12-2,142,depth_duration_stimuli/000866_2014-06-09_20-45-42_260595134347_rgbf000139-resize_1/000866_2014-06-09_20-45-42_260595134347_rgbf000139-resize_1-target.png,1000,3.2155,3,4047,1069,meters,jsons/v1_VE1000_randls_35_rotated.json,767539,898158,54,Woman
142,602927,DepthScenes,duration_manipulation_targetAtFixation,jsons/v1_VE1000_randls_35_rotated.json,http://54.235.29.9/FacialAge/BNav_EC2/DepthDuration/v2_depth_duration_MTurk/v2_DepthDuration_HTML.html#113,113,1366,625,1366,768,8-22-2022,9-12-2,143,depth_duration_stimuli/002989_2014-06-15_12-25-03_094959634447_rgbf000150-resize_3/002989_2014-06-15_12-25-03_094959634447_rgbf000150-resize_3-target.png,1000,4.1975,2,3115,988,meters,jsons/v1_VE1000_randls_35_rotated.json,767539,898158,54,Woman
143,602927,DepthScenes,duration_manipulation_targetAtFixation,jsons/v1_VE1000_randls_35_rotated.json,http://54.235.29.9/FacialAge/BNav_EC2/DepthDuration/v2_depth_duration_MTurk/v2_DepthDuration_HTML.html#113,113,1366,625,1366,768,8-22-2022,9-12-2,144,depth_duration_stimuli/000677_2014-06-08_23-10-32_260595134347_rgbf000158-resize_6/000677_2014-06-08_23-10-32_260595134347_rgbf000158-resize_6-target.png,1000,3.556,3,6004,1008,meters,jsons/v1_VE1000_randls_35_rotated.json,767539,898158,54,Woman
144,602927,DepthScenes,duration_manipulation_targetAtFixation,jsons/v1_VE1000_randls_35_rotated.json,http://54.235.29.9/FacialAge/BNav_EC2/DepthDuration/v2_depth_duration_MTurk/v2_DepthDuration_HTML.html#113,113,1366,625,1366,768,8-22-2022,9-12-2,145,depth_duration_stimuli/001029_2014-06-08_13-17-57_260595134347_rgbf000065-resize_1/001029_2014-06-08_13-17-57_260595134347_rgbf000065-resize_1-target.png,1000,3.0835,2,2844,997,meters,jsons/v1_VE1000_randls_35_rotated.json,767539,898158,54,Woman
145,602927,DepthScenes,duration_manipulation_targetAtFixation,jsons/v1_VE1000_randls_35_rotated.json,http://54.235.29.9/FacialAge/BNav_EC2/DepthDuration/v2_depth_duration_MTurk/v2_DepthDuration_HTML.html#113,113,1366,625,1366,768,8-22-2022,9-12-2,146,depth_duration_stimuli/003048_2014-06-15_13-49-43_094959634447_rgbf000150-resize_1/003048_2014-06-15_13-49-43_094959634447_rgbf000150-resize_1-target.png,1000,4.0035,2,4709,937,meters,jsons/v1_VE1000_randls_35_rotated.json,767539,898158,54,Woman
146,602927,DepthScenes,duration_manipulation_targetAtFixation,jsons/v1_VE1000_randls_35_rotated.json,http://54.235.29.9/FacialAge/BNav_EC2/DepthDuration/v2_depth_duration_MTurk/v2_DepthDuration_HTML.html#113,113,1366,625,1366,768,8-22-2022,9-12-2,147,depth_duration_stimuli/002043_2014-06-24_20-29-38_260595134347_rgbf000039-resize_4/002043_2014-06-24_20-29-38_260595134347_rgbf000039-resize_4-target.png,1000,2.8435,4,3479,999,meters,jsons/v1_VE1000_randls_35_rotated.json,767539,898158,54,Woman
147,602927,DepthScenes,duration_manipulation_targetAtFixation,jsons/v1_VE1000_randls_35_rotated.json,http://54.235.29.9/FacialAge/BNav_EC2/DepthDuration/v2_depth_duration_MTurk/v2_DepthDuration_HTML.html#113,113,1366,625,1366,768,8-22-2022,9-12-2,148,depth_duration_stimuli/002340_2014-06-28_20-05-46_260595134347_rgbf000113-resize_0/002340_2014-06-28_20-05-46_260595134347_rgbf000113-resize_0-target.png,1000,2.4735,2,3610,1006,meters,jsons/v1_VE1000_randls_35_rotated.json,767539,898158,54,Woman
148,602927,DepthScenes,duration_manipulation_targetAtFixation,jsons/v1_VE1000_randls_35_rotated.json,http://54.235.29.9/FacialAge/BNav_EC2/DepthDuration/v2_depth_duration_MTurk/v2_DepthDuration_HTML.html#113,113,1366,625,1366,768,8-22-2022,9-12-2,149,depth_duration_stimuli/001016_2014-06-09_16-16-10_260595134347_rgbf000112-resize_5/001016_2014-06-09_16-16-10_260595134347_rgbf000112-resize_5-target.png,1000,1.6565,4,3272,1001,meters,jsons/v1_VE1000_randls_35_rotated.json,767539,898158,54,Woman
149,602927,DepthScenes,duration_manipulation_targetAtFixation,jsons/v1_VE1000_randls_35_rotated.json,http://54.235.29.9/FacialAge/BNav_EC2/DepthDuration/v2_depth_duration_MTurk/v2_DepthDuration_HTML.html#113,113,1366,625,1366,768,8-22-2022,9-12-2,150,depth_duration_stimuli/002103_2014-06-25_20-00-40_260595134347_rgbf000049-resize_0/002103_2014-06-25_20-00-40_260595134347_rgbf000049-resize_0-target.png,1000,4.105,2,3607,999,meters,jsons/v1_VE1000_randls_35_rotated.json,767539,898158,54,Woman
150,602927,DepthScenes,duration_manipulation_targetAtFixation,jsons/v1_VE1000_randls_35_rotated.json,http://54.235.29.9/FacialAge/BNav_EC2/DepthDuration/v2_depth_duration_MTurk/v2_DepthDuration_HTML.html#113,113,1366,625,1366,768,8-22-2022,9-12-2,151,depth_duration_stimuli/002039_2014-06-24_20-22-38_260595134347_rgbf000084-resize_1/002039_2014-06-24_20-22-38_260595134347_rgbf000084-resize_1-target.png,1000,4.408,3,3038,1082,meters,jsons/v1_VE1000_randls_35_rotated.json,767539,898158,54,Woman
151,602927,DepthScenes,duration_manipulation_targetAtFixation,jsons/v1_VE1000_randls_35_rotated.json,http://54.235.29.9/FacialAge/BNav_EC2/DepthDuration/v2_depth_duration_MTurk/v2_DepthDuration_HTML.html#113,113,1366,625,1366,768,8-22-2022,9-12-2,152,depth_duration_stimuli/000569_2014-06-09_22-51-47_260595134347_rgbf000141-resize_3/000569_2014-06-09_22-51-47_260595134347_rgbf000141-resize-original.jpg,1000,4.512,0,5349,991,meters,jsons/v1_VE1000_randls_35_rotated.json,767539,898158,54,Woman
152,602927,DepthScenes,duration_manipulation_targetAtFixation,jsons/v1_VE1000_randls_35_rotated.json,http://54.235.29.9/FacialAge/BNav_EC2/DepthDuration/v2_depth_duration_MTurk/v2_DepthDuration_HTML.html#113,113,1366,625,1366,768,8-22-2022,9-12-2,153,depth_duration_stimuli/001132_2014-06-17_14-48-54_260595134347_rgbf000100-resize_2/001132_2014-06-17_14-48-54_260595134347_rgbf000100-resize_2-target.png,1000,3.753,3,3872,961,meters,jsons/v1_VE1000_randls_35_rotated.json,767539,898158,54,Woman
153,602927,DepthScenes,duration_manipulation_targetAtFixation,jsons/v1_VE1000_randls_35_rotated.json,http://54.235.29.9/FacialAge/BNav_EC2/DepthDuration/v2_depth_duration_MTurk/v2_DepthDuration_HTML.html#113,113,1366,625,1366,768,8-22-2022,9-12-2,154,depth_duration_stimuli/001133_2014-06-17_14-49-16_260595134347_rgbf000100-resize_0/001133_2014-06-17_14-49-16_260595134347_rgbf000100-resize_0-target.png,1000,4.2115,2,2931,994,meters,jsons/v1_VE1000_randls_35_rotated.json,767539,898158,54,Woman
154,602927,DepthScenes,duration_manipulation_targetAtFixation,jsons/v1_VE1000_randls_35_rotated.json,http://54.235.29.9/FacialAge/BNav_EC2/DepthDuration/v2_depth_duration_MTurk/v2_DepthDuration_HTML.html#113,113,1366,625,1366,768,8-22-2022,9-12-2,155,depth_duration_stimuli/001100_2014-06-15_17-46-26_260595134347_rgbf000225-resize_2/001100_2014-06-15_17-46-26_260595134347_rgbf000225-resize_2-target.png,1000,2.24,4,3981,991,meters,jsons/v1_VE1000_randls_35_rotated.json,767539,898158,54,Woman
155,602927,DepthScenes,duration_manipulation_targetAtFixation,jsons/v1_VE1000_randls_35_rotated.json,http://54.235.29.9/FacialAge/BNav_EC2/DepthDuration/v2_depth_duration_MTurk/v2_DepthDuration_HTML.html#113,113,1366,625,1366,768,8-22-2022,9-12-2,156,depth_duration_stimuli/002784_2014-06-22_19-26-30_094959634447_rgbf000083-resize_3/002784_2014-06-22_19-26-30_094959634447_rgbf000083-resize_3-target.png,1000,1.8046666666667,3,3176,997,meters,jsons/v1_VE1000_randls_35_rotated.json,767539,898158,54,Woman
156,602927,DepthScenes,duration_manipulation_targetAtFixation,jsons/v1_VE1000_randls_35_rotated.json,http://54.235.29.9/FacialAge/BNav_EC2/DepthDuration/v2_depth_duration_MTurk/v2_DepthDuration_HTML.html#113,113,1366,625,1366,768,8-22-2022,9-12-2,157,depth_duration_stimuli/002199_2014-06-28_18-33-56_260595134347_rgbf000074-resize_0/002199_2014-06-28_18-33-56_260595134347_rgbf000074-resize_0-target.png,1000,1.996,2,3250,985,meters,jsons/v1_VE1000_randls_35_rotated.json,767539,898158,54,Woman
157,602927,DepthScenes,duration_manipulation_targetAtFixation,jsons/v1_VE1000_randls_35_rotated.json,http://54.235.29.9/FacialAge/BNav_EC2/DepthDuration/v2_depth_duration_MTurk/v2_DepthDuration_HTML.html#113,113,1366,625,1366,768,8-22-2022,9-12-2,158,depth_duration_stimuli/001056_2014-06-08_18-46-44_260595134347_rgbf000068-resize_0/001056_2014-06-08_18-46-44_260595134347_rgbf000068-resize_0-target.png,1000,2.6625,3,3181,938,meters,jsons/v1_VE1000_randls_35_rotated.json,767539,898158,54,Woman
158,602927,DepthScenes,duration_manipulation_targetAtFixation,jsons/v1_VE1000_randls_35_rotated.json,http://54.235.29.9/FacialAge/BNav_EC2/DepthDuration/v2_depth_duration_MTurk/v2_DepthDuration_HTML.html#113,113,1366,625,1366,768,8-22-2022,9-12-2,159,depth_duration_stimuli/002678_2014-06-13_16-15-32_094959634447_rgbf000151-resize_6/002678_2014-06-13_16-15-32_094959634447_rgbf000151-resize_6-target.png,1000,2.1830000000000003,4,3101,1000,meters,jsons/v1_VE1000_randls_35_rotated.json,767539,898158,54,Woman
159,602927,DepthScenes,duration_manipulation_targetAtFixation,jsons/v1_VE1000_randls_35_rotated.json,http://54.235.29.9/FacialAge/BNav_EC2/DepthDuration/v2_depth_duration_MTurk/v2_DepthDuration_HTML.html#113,113,1366,625,1366,768,8-22-2022,9-12-2,160,depth_duration_stimuli/000368_2014-06-09_15-53-01_260595134347_rgbf000155-resize_2/000368_2014-06-09_15-53-01_260595134347_rgbf000155-resize_2-target.png,1000,2.4859999999999998,2,2831,1122,meters,jsons/v1_VE1000_randls_35_rotated.json,767539,898158,54,Woman
160,602927,DepthScenes,duration_manipulation_targetAtFixation,jsons/v1_VE1000_randls_35_rotated.json,http://54.235.29.9/FacialAge/BNav_EC2/DepthDuration/v2_depth_duration_MTurk/v2_DepthDuration_HTML.html#113,113,1366,625,1366,768,8-22-2022,9-12-2,161,depth_duration_stimuli/001516_2014-06-20_16-25-09_260595134347_rgbf000076-resize_2/001516_2014-06-20_16-25-09_260595134347_rgbf000076-resize_2-target.png,1000,1.7445,5,2952,985,meters,jsons/v1_VE1000_randls_35_rotated.json,767539,898158,54,Woman
161,602927,DepthScenes,duration_manipulation_targetAtFixation,jsons/v1_VE1000_randls_35_rotated.json,http://54.235.29.9/FacialAge/BNav_EC2/DepthDuration/v2_depth_duration_MTurk/v2_DepthDuration_HTML.html#113,113,1366,625,1366,768,8-22-2022,9-12-2,162,depth_duration_stimuli/002118_2014-06-25_20-32-08_260595134347_rgbf000078-resize_1/002118_2014-06-25_20-32-08_260595134347_rgbf000078-resize_1-target.png,1000,2.6460000000000004,3,2899,1000,meters,jsons/v1_VE1000_randls_35_rotated.json,767539,898158,54,Woman
162,602927,DepthScenes,duration_manipulation_targetAtFixation,jsons/v1_VE1000_randls_35_rotated.json,http://54.235.29.9/FacialAge/BNav_EC2/DepthDuration/v2_depth_duration_MTurk/v2_DepthDuration_HTML.html#113,113,1366,625,1366,768,8-22-2022,9-12-2,163,depth_duration_stimuli/002637_2014-06-24_14-51-13_094959634447_rgbf000066-resize_4/002637_2014-06-24_14-51-13_094959634447_rgbf000066-resize_4-target.png,1000,1.9955,2,3162,994,meters,jsons/v1_VE1000_randls_35_rotated.json,767539,898158,54,Woman
163,602927,DepthScenes,duration_manipulation_targetAtFixation,jsons/v1_VE1000_randls_35_rotated.json,http://54.235.29.9/FacialAge/BNav_EC2/DepthDuration/v2_depth_duration_MTurk/v2_DepthDuration_HTML.html#113,113,1366,625,1366,768,8-22-2022,9-12-2,164,depth_duration_stimuli/003534_2014-05-22_15-06-10_094959634447_rgbf000102-resize_4/003534_2014-05-22_15-06-10_094959634447_rgbf000102-resize_4-target.png,1000,1.426,2,3461,994,meters,jsons/v1_VE1000_randls_35_rotated.json,767539,898158,54,Woman
