,subjID,experimentName,versionName,sequenceName,url,selected_row,windowWidth,windowHeight,screenWidth,screenHeight,startDate,startTime,trial,stimulus,duration,actual_depth,depth_estimate,trial_RT,log_sceneDuration,unitSelection,seq_filepath,experimentTime,totalTime,age,gender
0,603293,DepthScenes,duration_manipulation_targetAtFixation,jsons/v1_VE1000_randls_69_rotated.json,http://54.235.29.9/FacialAge/BNav_EC2/DepthDuration/v2_depth_duration_MTurk/v2_DepthDuration_HTML.html#55,55,1364,625,1364,768,8-29-2022,14-27-14,1,depth_duration_stimuli/000780_2014-06-08_22-28-29_260595134347_rgbf000126-resize_1/000780_2014-06-08_22-28-29_260595134347_rgbf000126-resize_1-target.png,1000,3.3825,0,19401,991,feet,jsons/v1_VE1000_randls_69_rotated.json,1218808,1466626,42,Man
1,603293,DepthScenes,duration_manipulation_targetAtFixation,jsons/v1_VE1000_randls_69_rotated.json,http://54.235.29.9/FacialAge/BNav_EC2/DepthDuration/v2_depth_duration_MTurk/v2_DepthDuration_HTML.html#55,55,1364,625,1364,768,8-29-2022,14-27-14,2,depth_duration_stimuli/002445_2014-06-28_20-32-16_260595134347_rgbf000029-resize_4/002445_2014-06-28_20-32-16_260595134347_rgbf000029-resize_4-target.png,1000,2.5315,4,14158,995,feet,jsons/v1_VE1000_randls_69_rotated.json,1218808,1466626,42,Man
2,603293,DepthScenes,duration_manipulation_targetAtFixation,jsons/v1_VE1000_randls_69_rotated.json,http://54.235.29.9/FacialAge/BNav_EC2/DepthDuration/v2_depth_duration_MTurk/v2_DepthDuration_HTML.html#55,55,1364,625,1364,768,8-29-2022,14-27-14,3,depth_duration_stimuli/000691_2014-06-08_13-08-50_260595134347_rgbf000132-resize_3/000691_2014-06-08_13-08-50_260595134347_rgbf000132-resize_3-target.png,1000,4.1530000000000005,7,14963,958,feet,jsons/v1_VE1000_randls_69_rotated.json,1218808,1466626,42,Man
3,603293,DepthScenes,duration_manipulation_targetAtFixation,jsons/v1_VE1000_randls_69_rotated.json,http://54.235.29.9/FacialAge/BNav_EC2/DepthDuration/v2_depth_duration_MTurk/v2_DepthDuration_HTML.html#55,55,1364,625,1364,768,8-29-2022,14-27-14,4,depth_duration_stimuli/002213_2014-06-28_18-37-58_260595134347_rgbf000055-resize_1/002213_2014-06-28_18-37-58_260595134347_rgbf000055-resize_1-target.png,1000,3.62,5,8936,1001,feet,jsons/v1_VE1000_randls_69_rotated.json,1218808,1466626,42,Man
4,603293,DepthScenes,duration_manipulation_targetAtFixation,jsons/v1_VE1000_randls_69_rotated.json,http://54.235.29.9/FacialAge/BNav_EC2/DepthDuration/v2_depth_duration_MTurk/v2_DepthDuration_HTML.html#55,55,1364,625,1364,768,8-29-2022,14-27-14,5,depth_duration_stimuli/001447_2014-06-19_17-00-32_260595134347_rgbf000082-resize_5/001447_2014-06-19_17-00-32_260595134347_rgbf000082-resize_5-target.png,1000,4.13775,5,23676,981,feet,jsons/v1_VE1000_randls_69_rotated.json,1218808,1466626,42,Man
5,603293,DepthScenes,duration_manipulation_targetAtFixation,jsons/v1_VE1000_randls_69_rotated.json,http://54.235.29.9/FacialAge/BNav_EC2/DepthDuration/v2_depth_duration_MTurk/v2_DepthDuration_HTML.html#55,55,1364,625,1364,768,8-29-2022,14-27-14,6,depth_duration_stimuli/000447_2014-06-08_16-15-46_260595134347_rgbf000130-resize_1/000447_2014-06-08_16-15-46_260595134347_rgbf000130-resize_1-target.png,1000,4.479,4,6970,1000,feet,jsons/v1_VE1000_randls_69_rotated.json,1218808,1466626,42,Man
6,603293,DepthScenes,duration_manipulation_targetAtFixation,jsons/v1_VE1000_randls_69_rotated.json,http://54.235.29.9/FacialAge/BNav_EC2/DepthDuration/v2_depth_duration_MTurk/v2_DepthDuration_HTML.html#55,55,1364,625,1364,768,8-29-2022,14-27-14,7,depth_duration_stimuli/000502_2014-06-08_23-02-32_260595134347_rgbf000063-resize_4/000502_2014-06-08_23-02-32_260595134347_rgbf000063-resize_4-target.png,1000,2.431,4,16595,999,feet,jsons/v1_VE1000_randls_69_rotated.json,1218808,1466626,42,Man
7,603293,DepthScenes,duration_manipulation_targetAtFixation,jsons/v1_VE1000_randls_69_rotated.json,http://54.235.29.9/FacialAge/BNav_EC2/DepthDuration/v2_depth_duration_MTurk/v2_DepthDuration_HTML.html#55,55,1364,625,1364,768,8-29-2022,14-27-14,8,depth_duration_stimuli/001199_2014-06-17_16-03-48_260595134347_rgbf000077-resize_0/001199_2014-06-17_16-03-48_260595134347_rgbf000077-resize_0-target.png,1000,3.4375,4,8802,1000,feet,jsons/v1_VE1000_randls_69_rotated.json,1218808,1466626,42,Man
8,603293,DepthScenes,duration_manipulation_targetAtFixation,jsons/v1_VE1000_randls_69_rotated.json,http://54.235.29.9/FacialAge/BNav_EC2/DepthDuration/v2_depth_duration_MTurk/v2_DepthDuration_HTML.html#55,55,1364,625,1364,768,8-29-2022,14-27-14,9,depth_duration_stimuli/003129_2014-05-12_10-48-10_094959634447_rgbf000100-resize_0/003129_2014-05-12_10-48-10_094959634447_rgbf000100-resize_0-target.png,1000,4.9305,4,14053,1000,feet,jsons/v1_VE1000_randls_69_rotated.json,1218808,1466626,42,Man
9,603293,DepthScenes,duration_manipulation_targetAtFixation,jsons/v1_VE1000_randls_69_rotated.json,http://54.235.29.9/FacialAge/BNav_EC2/DepthDuration/v2_depth_duration_MTurk/v2_DepthDuration_HTML.html#55,55,1364,625,1364,768,8-29-2022,14-27-14,10,depth_duration_stimuli/000414_2014-06-04_19-49-13_260595134347_rgbf000044-resize_0/000414_2014-06-04_19-49-13_260595134347_rgbf000044-resize_0-target.png,1000,4.329,4,5076,995,feet,jsons/v1_VE1000_randls_69_rotated.json,1218808,1466626,42,Man
10,603293,DepthScenes,duration_manipulation_targetAtFixation,jsons/v1_VE1000_randls_69_rotated.json,http://54.235.29.9/FacialAge/BNav_EC2/DepthDuration/v2_depth_duration_MTurk/v2_DepthDuration_HTML.html#55,55,1364,625,1364,768,8-29-2022,14-27-14,11,depth_duration_stimuli/003587_2014-05-23_16-48-02_094959634447_rgbf002384-resize_2/003587_2014-05-23_16-48-02_094959634447_rgbf002384-resize_2-target.png,1000,1.357,4,11668,993,feet,jsons/v1_VE1000_randls_69_rotated.json,1218808,1466626,42,Man
11,603293,DepthScenes,duration_manipulation_targetAtFixation,jsons/v1_VE1000_randls_69_rotated.json,http://54.235.29.9/FacialAge/BNav_EC2/DepthDuration/v2_depth_duration_MTurk/v2_DepthDuration_HTML.html#55,55,1364,625,1364,768,8-29-2022,14-27-14,12,depth_duration_stimuli/001167_2014-06-17_15-38-07_260595134347_rgbf000108-resize_0/001167_2014-06-17_15-38-07_260595134347_rgbf000108-resize_0-target.png,1000,1.8505,4,6300,1001,feet,jsons/v1_VE1000_randls_69_rotated.json,1218808,1466626,42,Man
12,603293,DepthScenes,duration_manipulation_targetAtFixation,jsons/v1_VE1000_randls_69_rotated.json,http://54.235.29.9/FacialAge/BNav_EC2/DepthDuration/v2_depth_duration_MTurk/v2_DepthDuration_HTML.html#55,55,1364,625,1364,768,8-29-2022,14-27-14,13,depth_duration_stimuli/002637_2014-06-24_14-51-13_094959634447_rgbf000066-resize_4/002637_2014-06-24_14-51-13_094959634447_rgbf000066-resize_4-target.png,1000,1.9955,4,8668,999,feet,jsons/v1_VE1000_randls_69_rotated.json,1218808,1466626,42,Man
13,603293,DepthScenes,duration_manipulation_targetAtFixation,jsons/v1_VE1000_randls_69_rotated.json,http://54.235.29.9/FacialAge/BNav_EC2/DepthDuration/v2_depth_duration_MTurk/v2_DepthDuration_HTML.html#55,55,1364,625,1364,768,8-29-2022,14-27-14,14,depth_duration_stimuli/003534_2014-05-22_15-06-10_094959634447_rgbf000102-resize_4/003534_2014-05-22_15-06-10_094959634447_rgbf000102-resize_4-target.png,1000,1.426,4,4112,878,feet,jsons/v1_VE1000_randls_69_rotated.json,1218808,1466626,42,Man
14,603293,DepthScenes,duration_manipulation_targetAtFixation,jsons/v1_VE1000_randls_69_rotated.json,http://54.235.29.9/FacialAge/BNav_EC2/DepthDuration/v2_depth_duration_MTurk/v2_DepthDuration_HTML.html#55,55,1364,625,1364,768,8-29-2022,14-27-14,15,depth_duration_stimuli/000409_2014-06-04_19-23-33_260595134347_rgbf000067-resize_0/000409_2014-06-04_19-23-33_260595134347_rgbf000067-resize_0-target.png,1000,3.7335,4,14167,989,feet,jsons/v1_VE1000_randls_69_rotated.json,1218808,1466626,42,Man
15,603293,DepthScenes,duration_manipulation_targetAtFixation,jsons/v1_VE1000_randls_69_rotated.json,http://54.235.29.9/FacialAge/BNav_EC2/DepthDuration/v2_depth_duration_MTurk/v2_DepthDuration_HTML.html#55,55,1364,625,1364,768,8-29-2022,14-27-14,16,depth_duration_stimuli/002663_2014-06-13_15-50-26_094959634447_rgbf000075-resize_1/002663_2014-06-13_15-50-26_094959634447_rgbf000075-resize_1-target.png,1000,4.7495,4,6633,954,feet,jsons/v1_VE1000_randls_69_rotated.json,1218808,1466626,42,Man
16,603293,DepthScenes,duration_manipulation_targetAtFixation,jsons/v1_VE1000_randls_69_rotated.json,http://54.235.29.9/FacialAge/BNav_EC2/DepthDuration/v2_depth_duration_MTurk/v2_DepthDuration_HTML.html#55,55,1364,625,1364,768,8-29-2022,14-27-14,17,depth_duration_stimuli/000749_2014-06-08_21-55-06_260595134347_rgbf000070-resize_2/000749_2014-06-08_21-55-06_260595134347_rgbf000070-resize_2-target.png,1000,2.331,4,9733,1000,feet,jsons/v1_VE1000_randls_69_rotated.json,1218808,1466626,42,Man
17,603293,DepthScenes,duration_manipulation_targetAtFixation,jsons/v1_VE1000_randls_69_rotated.json,http://54.235.29.9/FacialAge/BNav_EC2/DepthDuration/v2_depth_duration_MTurk/v2_DepthDuration_HTML.html#55,55,1364,625,1364,768,8-29-2022,14-27-14,18,depth_duration_stimuli/002788_2014-06-22_19-36-03_094959634447_rgbf000088-resize_2/002788_2014-06-22_19-36-03_094959634447_rgbf000088-resize_2-target.png,1000,1.6465,5,3912,1000,feet,jsons/v1_VE1000_randls_69_rotated.json,1218808,1466626,42,Man
18,603293,DepthScenes,duration_manipulation_targetAtFixation,jsons/v1_VE1000_randls_69_rotated.json,http://54.235.29.9/FacialAge/BNav_EC2/DepthDuration/v2_depth_duration_MTurk/v2_DepthDuration_HTML.html#55,55,1364,625,1364,768,8-29-2022,14-27-14,19,depth_duration_stimuli/001498_2014-06-19_17-45-14_260595134347_rgbf000129-resize_4/001498_2014-06-19_17-45-14_260595134347_rgbf000129-resize-original.jpg,1000,1.4075,5,12054,998,feet,jsons/v1_VE1000_randls_69_rotated.json,1218808,1466626,42,Man
19,603293,DepthScenes,duration_manipulation_targetAtFixation,jsons/v1_VE1000_randls_69_rotated.json,http://54.235.29.9/FacialAge/BNav_EC2/DepthDuration/v2_depth_duration_MTurk/v2_DepthDuration_HTML.html#55,55,1364,625,1364,768,8-29-2022,14-27-14,20,depth_duration_stimuli/003048_2014-06-15_13-49-43_094959634447_rgbf000150-resize_1/003048_2014-06-15_13-49-43_094959634447_rgbf000150-resize_1-target.png,1000,4.0035,5,11089,1017,feet,jsons/v1_VE1000_randls_69_rotated.json,1218808,1466626,42,Man
20,603293,DepthScenes,duration_manipulation_targetAtFixation,jsons/v1_VE1000_randls_69_rotated.json,http://54.235.29.9/FacialAge/BNav_EC2/DepthDuration/v2_depth_duration_MTurk/v2_DepthDuration_HTML.html#55,55,1364,625,1364,768,8-29-2022,14-27-14,21,depth_duration_stimuli/002043_2014-06-24_20-29-38_260595134347_rgbf000039-resize_4/002043_2014-06-24_20-29-38_260595134347_rgbf000039-resize_4-target.png,1000,2.8435,4,3927,1000,feet,jsons/v1_VE1000_randls_69_rotated.json,1218808,1466626,42,Man
21,603293,DepthScenes,duration_manipulation_targetAtFixation,jsons/v1_VE1000_randls_69_rotated.json,http://54.235.29.9/FacialAge/BNav_EC2/DepthDuration/v2_depth_duration_MTurk/v2_DepthDuration_HTML.html#55,55,1364,625,1364,768,8-29-2022,14-27-14,22,depth_duration_stimuli/000137_2014-05-20_17-04-49_260595134347_rgbf000120-resize_1/000137_2014-05-20_17-04-49_260595134347_rgbf000120-resize_1-target.png,1000,3.786,4,8897,1003,feet,jsons/v1_VE1000_randls_69_rotated.json,1218808,1466626,42,Man
22,603293,DepthScenes,duration_manipulation_targetAtFixation,jsons/v1_VE1000_randls_69_rotated.json,http://54.235.29.9/FacialAge/BNav_EC2/DepthDuration/v2_depth_duration_MTurk/v2_DepthDuration_HTML.html#55,55,1364,625,1364,768,8-29-2022,14-27-14,23,depth_duration_stimuli/000736_2014-06-08_18-24-15_260595134347_rgbf000206-resize_3/000736_2014-06-08_18-24-15_260595134347_rgbf000206-resize_3-target.png,1000,3.515,4,3972,999,feet,jsons/v1_VE1000_randls_69_rotated.json,1218808,1466626,42,Man
23,603293,DepthScenes,duration_manipulation_targetAtFixation,jsons/v1_VE1000_randls_69_rotated.json,http://54.235.29.9/FacialAge/BNav_EC2/DepthDuration/v2_depth_duration_MTurk/v2_DepthDuration_HTML.html#55,55,1364,625,1364,768,8-29-2022,14-27-14,24,depth_duration_stimuli/002639_2014-06-24_14-51-37_094959634447_rgbf000074-resize_4/002639_2014-06-24_14-51-37_094959634447_rgbf000074-resize_4-target.png,1000,4.0375,4,8508,1000,feet,jsons/v1_VE1000_randls_69_rotated.json,1218808,1466626,42,Man
24,603293,DepthScenes,duration_manipulation_targetAtFixation,jsons/v1_VE1000_randls_69_rotated.json,http://54.235.29.9/FacialAge/BNav_EC2/DepthDuration/v2_depth_duration_MTurk/v2_DepthDuration_HTML.html#55,55,1364,625,1364,768,8-29-2022,14-27-14,25,depth_duration_stimuli/003292_2014-05-14_21-53-49_094959634447_rgbf000100-resize_2/003292_2014-05-14_21-53-49_094959634447_rgbf000100-resize_2-target.png,1000,3.4815,4,9257,1000,feet,jsons/v1_VE1000_randls_69_rotated.json,1218808,1466626,42,Man
25,603293,DepthScenes,duration_manipulation_targetAtFixation,jsons/v1_VE1000_randls_69_rotated.json,http://54.235.29.9/FacialAge/BNav_EC2/DepthDuration/v2_depth_duration_MTurk/v2_DepthDuration_HTML.html#55,55,1364,625,1364,768,8-29-2022,14-27-14,26,depth_duration_stimuli/001132_2014-06-17_14-48-54_260595134347_rgbf000100-resize_2/001132_2014-06-17_14-48-54_260595134347_rgbf000100-resize_2-target.png,1000,3.753,4,12830,999,feet,jsons/v1_VE1000_randls_69_rotated.json,1218808,1466626,42,Man
26,603293,DepthScenes,duration_manipulation_targetAtFixation,jsons/v1_VE1000_randls_69_rotated.json,http://54.235.29.9/FacialAge/BNav_EC2/DepthDuration/v2_depth_duration_MTurk/v2_DepthDuration_HTML.html#55,55,1364,625,1364,768,8-29-2022,14-27-14,27,depth_duration_stimuli/001133_2014-06-17_14-49-16_260595134347_rgbf000100-resize_0/001133_2014-06-17_14-49-16_260595134347_rgbf000100-resize_0-target.png,1000,4.2115,4,7136,996,feet,jsons/v1_VE1000_randls_69_rotated.json,1218808,1466626,42,Man
27,603293,DepthScenes,duration_manipulation_targetAtFixation,jsons/v1_VE1000_randls_69_rotated.json,http://54.235.29.9/FacialAge/BNav_EC2/DepthDuration/v2_depth_duration_MTurk/v2_DepthDuration_HTML.html#55,55,1364,625,1364,768,8-29-2022,14-27-14,28,depth_duration_stimuli/003081_2014-06-15_15-19-16_094959634447_rgbf000150-resize_1/003081_2014-06-15_15-19-16_094959634447_rgbf000150-resize_1-target.png,1000,3.9125,4,15597,1001,feet,jsons/v1_VE1000_randls_69_rotated.json,1218808,1466626,42,Man
28,603293,DepthScenes,duration_manipulation_targetAtFixation,jsons/v1_VE1000_randls_69_rotated.json,http://54.235.29.9/FacialAge/BNav_EC2/DepthDuration/v2_depth_duration_MTurk/v2_DepthDuration_HTML.html#55,55,1364,625,1364,768,8-29-2022,14-27-14,29,depth_duration_stimuli/001417_2014-06-19_16-25-36_260595134347_rgbf000115-resize_5/001417_2014-06-19_16-25-36_260595134347_rgbf000115-resize_5-target.png,1000,4.6255,4,4120,999,feet,jsons/v1_VE1000_randls_69_rotated.json,1218808,1466626,42,Man
29,603293,DepthScenes,duration_manipulation_targetAtFixation,jsons/v1_VE1000_randls_69_rotated.json,http://54.235.29.9/FacialAge/BNav_EC2/DepthDuration/v2_depth_duration_MTurk/v2_DepthDuration_HTML.html#55,55,1364,625,1364,768,8-29-2022,14-27-14,30,depth_duration_stimuli/002072_2014-06-24_21-48-06_260595134347_rgbf000115-resize_0/002072_2014-06-24_21-48-06_260595134347_rgbf000115-resize-original.jpg,1000,4.702,4,7352,976,feet,jsons/v1_VE1000_randls_69_rotated.json,1218808,1466626,42,Man
30,603293,DepthScenes,duration_manipulation_targetAtFixation,jsons/v1_VE1000_randls_69_rotated.json,http://54.235.29.9/FacialAge/BNav_EC2/DepthDuration/v2_depth_duration_MTurk/v2_DepthDuration_HTML.html#55,55,1364,625,1364,768,8-29-2022,14-27-14,31,depth_duration_stimuli/003423_2014-05-21_10-23-26_094959634447_rgbf002665-resize_2/003423_2014-05-21_10-23-26_094959634447_rgbf002665-resize_2-target.png,1000,3.2575,4,5770,998,feet,jsons/v1_VE1000_randls_69_rotated.json,1218808,1466626,42,Man
31,603293,DepthScenes,duration_manipulation_targetAtFixation,jsons/v1_VE1000_randls_69_rotated.json,http://54.235.29.9/FacialAge/BNav_EC2/DepthDuration/v2_depth_duration_MTurk/v2_DepthDuration_HTML.html#55,55,1364,625,1364,768,8-29-2022,14-27-14,32,depth_duration_stimuli/002905_2014-06-03_18-04-43_094959634447_rgbf000151-resize_2/002905_2014-06-03_18-04-43_094959634447_rgbf000151-resize_2-target.png,1000,2.0295,4,7613,995,feet,jsons/v1_VE1000_randls_69_rotated.json,1218808,1466626,42,Man
32,603293,DepthScenes,duration_manipulation_targetAtFixation,jsons/v1_VE1000_randls_69_rotated.json,http://54.235.29.9/FacialAge/BNav_EC2/DepthDuration/v2_depth_duration_MTurk/v2_DepthDuration_HTML.html#55,55,1364,625,1364,768,8-29-2022,14-27-14,33,depth_duration_stimuli/002340_2014-06-28_20-05-46_260595134347_rgbf000113-resize_0/002340_2014-06-28_20-05-46_260595134347_rgbf000113-resize_0-target.png,1000,2.4735,5,27442,1000,feet,jsons/v1_VE1000_randls_69_rotated.json,1218808,1466626,42,Man
33,603293,DepthScenes,duration_manipulation_targetAtFixation,jsons/v1_VE1000_randls_69_rotated.json,http://54.235.29.9/FacialAge/BNav_EC2/DepthDuration/v2_depth_duration_MTurk/v2_DepthDuration_HTML.html#55,55,1364,625,1364,768,8-29-2022,14-27-14,34,depth_duration_stimuli/001016_2014-06-09_16-16-10_260595134347_rgbf000112-resize_5/001016_2014-06-09_16-16-10_260595134347_rgbf000112-resize_5-target.png,1000,1.6565,4,5776,1008,feet,jsons/v1_VE1000_randls_69_rotated.json,1218808,1466626,42,Man
34,603293,DepthScenes,duration_manipulation_targetAtFixation,jsons/v1_VE1000_randls_69_rotated.json,http://54.235.29.9/FacialAge/BNav_EC2/DepthDuration/v2_depth_duration_MTurk/v2_DepthDuration_HTML.html#55,55,1364,625,1364,768,8-29-2022,14-27-14,35,depth_duration_stimuli/002414_2014-06-28_20-24-58_260595134347_rgbf000067-resize_4/002414_2014-06-28_20-24-58_260595134347_rgbf000067-resize_4-target.png,1000,4.363,4,14740,999,feet,jsons/v1_VE1000_randls_69_rotated.json,1218808,1466626,42,Man
35,603293,DepthScenes,duration_manipulation_targetAtFixation,jsons/v1_VE1000_randls_69_rotated.json,http://54.235.29.9/FacialAge/BNav_EC2/DepthDuration/v2_depth_duration_MTurk/v2_DepthDuration_HTML.html#55,55,1364,625,1364,768,8-29-2022,14-27-14,36,depth_duration_stimuli/000773_2014-06-08_22-24-54_260595134347_rgbf000093-resize_1/000773_2014-06-08_22-24-54_260595134347_rgbf000093-resize_1-target.png,1000,4.973,4,9520,1008,feet,jsons/v1_VE1000_randls_69_rotated.json,1218808,1466626,42,Man
36,603293,DepthScenes,duration_manipulation_targetAtFixation,jsons/v1_VE1000_randls_69_rotated.json,http://54.235.29.9/FacialAge/BNav_EC2/DepthDuration/v2_depth_duration_MTurk/v2_DepthDuration_HTML.html#55,55,1364,625,1364,768,8-29-2022,14-27-14,37,depth_duration_stimuli/000483_2014-06-09_20-41-45_260595134347_rgbf000116-resize_4/000483_2014-06-09_20-41-45_260595134347_rgbf000116-resize_4-target.png,1000,1.337,4,7879,909,feet,jsons/v1_VE1000_randls_69_rotated.json,1218808,1466626,42,Man
37,603293,DepthScenes,duration_manipulation_targetAtFixation,jsons/v1_VE1000_randls_69_rotated.json,http://54.235.29.9/FacialAge/BNav_EC2/DepthDuration/v2_depth_duration_MTurk/v2_DepthDuration_HTML.html#55,55,1364,625,1364,768,8-29-2022,14-27-14,38,depth_duration_stimuli/000469_2014-06-09_19-42-10_260595134347_rgbf000081-resize_1/000469_2014-06-09_19-42-10_260595134347_rgbf000081-resize_1-target.png,1000,1.652,4,3486,999,feet,jsons/v1_VE1000_randls_69_rotated.json,1218808,1466626,42,Man
38,603293,DepthScenes,duration_manipulation_targetAtFixation,jsons/v1_VE1000_randls_69_rotated.json,http://54.235.29.9/FacialAge/BNav_EC2/DepthDuration/v2_depth_duration_MTurk/v2_DepthDuration_HTML.html#55,55,1364,625,1364,768,8-29-2022,14-27-14,39,depth_duration_stimuli/003079_2014-06-15_15-18-20_094959634447_rgbf000152-resize_8/003079_2014-06-15_15-18-20_094959634447_rgbf000152-resize_8-target.png,1000,2.8775,4,3595,999,feet,jsons/v1_VE1000_randls_69_rotated.json,1218808,1466626,42,Man
39,603293,DepthScenes,duration_manipulation_targetAtFixation,jsons/v1_VE1000_randls_69_rotated.json,http://54.235.29.9/FacialAge/BNav_EC2/DepthDuration/v2_depth_duration_MTurk/v2_DepthDuration_HTML.html#55,55,1364,625,1364,768,8-29-2022,14-27-14,40,depth_duration_stimuli/000506_2014-06-08_23-21-00_260595134347_rgbf000070-resize_7/000506_2014-06-08_23-21-00_260595134347_rgbf000070-resize_7-target.png,1000,4.0585,4,3636,1000,feet,jsons/v1_VE1000_randls_69_rotated.json,1218808,1466626,42,Man
40,603293,DepthScenes,duration_manipulation_targetAtFixation,jsons/v1_VE1000_randls_69_rotated.json,http://54.235.29.9/FacialAge/BNav_EC2/DepthDuration/v2_depth_duration_MTurk/v2_DepthDuration_HTML.html#55,55,1364,625,1364,768,8-29-2022,14-27-14,41,depth_duration_stimuli/000457_2014-06-08_16-52-43_260595134347_rgbf000199-resize_1/000457_2014-06-08_16-52-43_260595134347_rgbf000199-resize_1-target.png,1000,3.6489999999999996,4,5746,1000,feet,jsons/v1_VE1000_randls_69_rotated.json,1218808,1466626,42,Man
41,603293,DepthScenes,duration_manipulation_targetAtFixation,jsons/v1_VE1000_randls_69_rotated.json,http://54.235.29.9/FacialAge/BNav_EC2/DepthDuration/v2_depth_duration_MTurk/v2_DepthDuration_HTML.html#55,55,1364,625,1364,768,8-29-2022,14-27-14,42,depth_duration_stimuli/000929_2014-06-09_16-33-19_260595134347_rgbf000139-resize_0/000929_2014-06-09_16-33-19_260595134347_rgbf000139-resize_0-target.png,1000,2.8680000000000003,4,3092,1000,feet,jsons/v1_VE1000_randls_69_rotated.json,1218808,1466626,42,Man
42,603293,DepthScenes,duration_manipulation_targetAtFixation,jsons/v1_VE1000_randls_69_rotated.json,http://54.235.29.9/FacialAge/BNav_EC2/DepthDuration/v2_depth_duration_MTurk/v2_DepthDuration_HTML.html#55,55,1364,625,1364,768,8-29-2022,14-27-14,43,depth_duration_stimuli/002103_2014-06-25_20-00-40_260595134347_rgbf000049-resize_0/002103_2014-06-25_20-00-40_260595134347_rgbf000049-resize_0-target.png,1000,4.105,4,4195,996,feet,jsons/v1_VE1000_randls_69_rotated.json,1218808,1466626,42,Man
43,603293,DepthScenes,duration_manipulation_targetAtFixation,jsons/v1_VE1000_randls_69_rotated.json,http://54.235.29.9/FacialAge/BNav_EC2/DepthDuration/v2_depth_duration_MTurk/v2_DepthDuration_HTML.html#55,55,1364,625,1364,768,8-29-2022,14-27-14,44,depth_duration_stimuli/002039_2014-06-24_20-22-38_260595134347_rgbf000084-resize_1/002039_2014-06-24_20-22-38_260595134347_rgbf000084-resize_1-target.png,1000,4.408,4,3171,999,feet,jsons/v1_VE1000_randls_69_rotated.json,1218808,1466626,42,Man
44,603293,DepthScenes,duration_manipulation_targetAtFixation,jsons/v1_VE1000_randls_69_rotated.json,http://54.235.29.9/FacialAge/BNav_EC2/DepthDuration/v2_depth_duration_MTurk/v2_DepthDuration_HTML.html#55,55,1364,625,1364,768,8-29-2022,14-27-14,45,depth_duration_stimuli/003338_2014-05-20_11-01-23_094959634447_rgbf000051-resize_6/003338_2014-05-20_11-01-23_094959634447_rgbf000051-resize_6-target.png,1000,1.693,4,4859,998,feet,jsons/v1_VE1000_randls_69_rotated.json,1218808,1466626,42,Man
45,603293,DepthScenes,duration_manipulation_targetAtFixation,jsons/v1_VE1000_randls_69_rotated.json,http://54.235.29.9/FacialAge/BNav_EC2/DepthDuration/v2_depth_duration_MTurk/v2_DepthDuration_HTML.html#55,55,1364,625,1364,768,8-29-2022,14-27-14,46,depth_duration_stimuli/002509_2014-06-24_13-19-22_094959634447_rgbf000077-resize_0/002509_2014-06-24_13-19-22_094959634447_rgbf000077-resize_0-target.png,1000,1.3065,4,3446,1000,feet,jsons/v1_VE1000_randls_69_rotated.json,1218808,1466626,42,Man
46,603293,DepthScenes,duration_manipulation_targetAtFixation,jsons/v1_VE1000_randls_69_rotated.json,http://54.235.29.9/FacialAge/BNav_EC2/DepthDuration/v2_depth_duration_MTurk/v2_DepthDuration_HTML.html#55,55,1364,625,1364,768,8-29-2022,14-27-14,47,depth_duration_stimuli/002344_2014-06-28_20-06-29_260595134347_rgbf000030-resize_1/002344_2014-06-28_20-06-29_260595134347_rgbf000030-resize_1-target.png,1000,1.5795,4,7072,1003,feet,jsons/v1_VE1000_randls_69_rotated.json,1218808,1466626,42,Man
47,603293,DepthScenes,duration_manipulation_targetAtFixation,jsons/v1_VE1000_randls_69_rotated.json,http://54.235.29.9/FacialAge/BNav_EC2/DepthDuration/v2_depth_duration_MTurk/v2_DepthDuration_HTML.html#55,55,1364,625,1364,768,8-29-2022,14-27-14,48,depth_duration_stimuli/002725_2014-06-22_11-47-51_094959634447_rgbf000070-resize_1/002725_2014-06-22_11-47-51_094959634447_rgbf000070-resize_1-target.png,1000,2.195,4,3179,1001,feet,jsons/v1_VE1000_randls_69_rotated.json,1218808,1466626,42,Man
48,603293,DepthScenes,duration_manipulation_targetAtFixation,jsons/v1_VE1000_randls_69_rotated.json,http://54.235.29.9/FacialAge/BNav_EC2/DepthDuration/v2_depth_duration_MTurk/v2_DepthDuration_HTML.html#55,55,1364,625,1364,768,8-29-2022,14-27-14,49,depth_duration_stimuli/001170_2014-06-17_15-43-44_260595134347_rgbf000096-resize_6/001170_2014-06-17_15-43-44_260595134347_rgbf000096-resize-original.jpg,1000,1.1909999999999998,4,5217,998,feet,jsons/v1_VE1000_randls_69_rotated.json,1218808,1466626,42,Man
49,603293,DepthScenes,duration_manipulation_targetAtFixation,jsons/v1_VE1000_randls_69_rotated.json,http://54.235.29.9/FacialAge/BNav_EC2/DepthDuration/v2_depth_duration_MTurk/v2_DepthDuration_HTML.html#55,55,1364,625,1364,768,8-29-2022,14-27-14,50,depth_duration_stimuli/000665_2014-06-09_20-42-35_260595134347_rgbf000110-resize_1/000665_2014-06-09_20-42-35_260595134347_rgbf000110-resize_1-target.png,1000,3.057,4,5235,993,feet,jsons/v1_VE1000_randls_69_rotated.json,1218808,1466626,42,Man
50,603293,DepthScenes,duration_manipulation_targetAtFixation,jsons/v1_VE1000_randls_69_rotated.json,http://54.235.29.9/FacialAge/BNav_EC2/DepthDuration/v2_depth_duration_MTurk/v2_DepthDuration_HTML.html#55,55,1364,625,1364,768,8-29-2022,14-27-14,51,depth_duration_stimuli/001150_2014-06-17_15-27-34_260595134347_rgbf000108-resize_2/001150_2014-06-17_15-27-34_260595134347_rgbf000108-resize_2-target.png,1000,4.0325,4,2852,1000,feet,jsons/v1_VE1000_randls_69_rotated.json,1218808,1466626,42,Man
51,603293,DepthScenes,duration_manipulation_targetAtFixation,jsons/v1_VE1000_randls_69_rotated.json,http://54.235.29.9/FacialAge/BNav_EC2/DepthDuration/v2_depth_duration_MTurk/v2_DepthDuration_HTML.html#55,55,1364,625,1364,768,8-29-2022,14-27-14,52,depth_duration_stimuli/002678_2014-06-13_16-15-32_094959634447_rgbf000151-resize_6/002678_2014-06-13_16-15-32_094959634447_rgbf000151-resize_6-target.png,1000,2.1830000000000003,4,7802,1001,feet,jsons/v1_VE1000_randls_69_rotated.json,1218808,1466626,42,Man
52,603293,DepthScenes,duration_manipulation_targetAtFixation,jsons/v1_VE1000_randls_69_rotated.json,http://54.235.29.9/FacialAge/BNav_EC2/DepthDuration/v2_depth_duration_MTurk/v2_DepthDuration_HTML.html#55,55,1364,625,1364,768,8-29-2022,14-27-14,53,depth_duration_stimuli/000368_2014-06-09_15-53-01_260595134347_rgbf000155-resize_2/000368_2014-06-09_15-53-01_260595134347_rgbf000155-resize_2-target.png,1000,2.4859999999999998,4,3010,998,feet,jsons/v1_VE1000_randls_69_rotated.json,1218808,1466626,42,Man
53,603293,DepthScenes,duration_manipulation_targetAtFixation,jsons/v1_VE1000_randls_69_rotated.json,http://54.235.29.9/FacialAge/BNav_EC2/DepthDuration/v2_depth_duration_MTurk/v2_DepthDuration_HTML.html#55,55,1364,625,1364,768,8-29-2022,14-27-14,54,depth_duration_stimuli/001392_2014-06-19_16-07-59_260595134347_rgbf000046-resize_1/001392_2014-06-19_16-07-59_260595134347_rgbf000046-resize_1-target.png,1000,4.135,4,5218,1002,feet,jsons/v1_VE1000_randls_69_rotated.json,1218808,1466626,42,Man
54,603293,DepthScenes,duration_manipulation_targetAtFixation,jsons/v1_VE1000_randls_69_rotated.json,http://54.235.29.9/FacialAge/BNav_EC2/DepthDuration/v2_depth_duration_MTurk/v2_DepthDuration_HTML.html#55,55,1364,625,1364,768,8-29-2022,14-27-14,55,depth_duration_stimuli/001570_2014-06-20_17-21-09_260595134347_rgbf000135-resize_4/001570_2014-06-20_17-21-09_260595134347_rgbf000135-resize_4-target.png,1000,4.467,4,2883,996,feet,jsons/v1_VE1000_randls_69_rotated.json,1218808,1466626,42,Man
55,603293,DepthScenes,duration_manipulation_targetAtFixation,jsons/v1_VE1000_randls_69_rotated.json,http://54.235.29.9/FacialAge/BNav_EC2/DepthDuration/v2_depth_duration_MTurk/v2_DepthDuration_HTML.html#55,55,1364,625,1364,768,8-29-2022,14-27-14,56,depth_duration_stimuli/003228_2014-05-14_13-42-35_094959634447_rgbf000101-resize_1/003228_2014-05-14_13-42-35_094959634447_rgbf000101-resize_1-target.png,1000,1.9680000000000002,5,4428,1000,feet,jsons/v1_VE1000_randls_69_rotated.json,1218808,1466626,42,Man
56,603293,DepthScenes,duration_manipulation_targetAtFixation,jsons/v1_VE1000_randls_69_rotated.json,http://54.235.29.9/FacialAge/BNav_EC2/DepthDuration/v2_depth_duration_MTurk/v2_DepthDuration_HTML.html#55,55,1364,625,1364,768,8-29-2022,14-27-14,57,depth_duration_stimuli/002600_2014-06-24_14-27-04_094959634447_rgbf000074-resize_2/002600_2014-06-24_14-27-04_094959634447_rgbf000074-resize_2-target.png,1000,2.7575,5,3612,1001,feet,jsons/v1_VE1000_randls_69_rotated.json,1218808,1466626,42,Man
57,603293,DepthScenes,duration_manipulation_targetAtFixation,jsons/v1_VE1000_randls_69_rotated.json,http://54.235.29.9/FacialAge/BNav_EC2/DepthDuration/v2_depth_duration_MTurk/v2_DepthDuration_HTML.html#55,55,1364,625,1364,768,8-29-2022,14-27-14,58,depth_duration_stimuli/001214_2014-06-17_16-13-55_260595134347_rgbf000111-resize_0/001214_2014-06-17_16-13-55_260595134347_rgbf000111-resize_0-target.png,1000,2.6505,5,6393,963,feet,jsons/v1_VE1000_randls_69_rotated.json,1218808,1466626,42,Man
58,603293,DepthScenes,duration_manipulation_targetAtFixation,jsons/v1_VE1000_randls_69_rotated.json,http://54.235.29.9/FacialAge/BNav_EC2/DepthDuration/v2_depth_duration_MTurk/v2_DepthDuration_HTML.html#55,55,1364,625,1364,768,8-29-2022,14-27-14,59,depth_duration_stimuli/000810_2014-06-08_17-20-01_260595134347_rgbf000105-resize_0/000810_2014-06-08_17-20-01_260595134347_rgbf000105-resize_0-target.png,1000,1.4865,5,3062,1011,feet,jsons/v1_VE1000_randls_69_rotated.json,1218808,1466626,42,Man
59,603293,DepthScenes,duration_manipulation_targetAtFixation,jsons/v1_VE1000_randls_69_rotated.json,http://54.235.29.9/FacialAge/BNav_EC2/DepthDuration/v2_depth_duration_MTurk/v2_DepthDuration_HTML.html#55,55,1364,625,1364,768,8-29-2022,14-27-14,60,depth_duration_stimuli/000556_2014-06-09_22-42-56_260595134347_rgbf000214-resize_1/000556_2014-06-09_22-42-56_260595134347_rgbf000214-resize_1-target.png,1000,4.8415,5,5073,1010,feet,jsons/v1_VE1000_randls_69_rotated.json,1218808,1466626,42,Man
60,603293,DepthScenes,duration_manipulation_targetAtFixation,jsons/v1_VE1000_randls_69_rotated.json,http://54.235.29.9/FacialAge/BNav_EC2/DepthDuration/v2_depth_duration_MTurk/v2_DepthDuration_HTML.html#55,55,1364,625,1364,768,8-29-2022,14-27-14,61,depth_duration_stimuli/001158_2014-06-17_15-32-16_260595134347_rgbf000138-resize_2/001158_2014-06-17_15-32-16_260595134347_rgbf000138-resize_2-target.png,1000,4.5315,5,3373,1003,feet,jsons/v1_VE1000_randls_69_rotated.json,1218808,1466626,42,Man
61,603293,DepthScenes,duration_manipulation_targetAtFixation,jsons/v1_VE1000_randls_69_rotated.json,http://54.235.29.9/FacialAge/BNav_EC2/DepthDuration/v2_depth_duration_MTurk/v2_DepthDuration_HTML.html#55,55,1364,625,1364,768,8-29-2022,14-27-14,62,depth_duration_stimuli/003010_2014-06-15_12-54-35_094959634447_rgbf000112-resize_0/003010_2014-06-15_12-54-35_094959634447_rgbf000112-resize_0-target.png,1000,3.1185,5,7023,1016,feet,jsons/v1_VE1000_randls_69_rotated.json,1218808,1466626,42,Man
62,603293,DepthScenes,duration_manipulation_targetAtFixation,jsons/v1_VE1000_randls_69_rotated.json,http://54.235.29.9/FacialAge/BNav_EC2/DepthDuration/v2_depth_duration_MTurk/v2_DepthDuration_HTML.html#55,55,1364,625,1364,768,8-29-2022,14-27-14,63,depth_duration_stimuli/001810_2014-06-26_20-51-35_260595134347_rgbf000040-resize_3/001810_2014-06-26_20-51-35_260595134347_rgbf000040-resize_3-target.png,1000,2.2525,5,3442,1004,feet,jsons/v1_VE1000_randls_69_rotated.json,1218808,1466626,42,Man
63,603293,DepthScenes,duration_manipulation_targetAtFixation,jsons/v1_VE1000_randls_69_rotated.json,http://54.235.29.9/FacialAge/BNav_EC2/DepthDuration/v2_depth_duration_MTurk/v2_DepthDuration_HTML.html#55,55,1364,625,1364,768,8-29-2022,14-27-14,64,depth_duration_stimuli/002568_2014-06-24_13-59-21_094959634447_rgbf000062-resize_4/002568_2014-06-24_13-59-21_094959634447_rgbf000062-resize_4-target.png,1000,3.015,5,5935,998,feet,jsons/v1_VE1000_randls_69_rotated.json,1218808,1466626,42,Man
64,603293,DepthScenes,duration_manipulation_targetAtFixation,jsons/v1_VE1000_randls_69_rotated.json,http://54.235.29.9/FacialAge/BNav_EC2/DepthDuration/v2_depth_duration_MTurk/v2_DepthDuration_HTML.html#55,55,1364,625,1364,768,8-29-2022,14-27-14,65,depth_duration_stimuli/003492_2014-05-21_15-50-55_094959634447_rgbf000828-resize_1/003492_2014-05-21_15-50-55_094959634447_rgbf000828-resize_1-target.png,1000,4.06875,5,10283,999,feet,jsons/v1_VE1000_randls_69_rotated.json,1218808,1466626,42,Man
65,603293,DepthScenes,duration_manipulation_targetAtFixation,jsons/v1_VE1000_randls_69_rotated.json,http://54.235.29.9/FacialAge/BNav_EC2/DepthDuration/v2_depth_duration_MTurk/v2_DepthDuration_HTML.html#55,55,1364,625,1364,768,8-29-2022,14-27-14,66,depth_duration_stimuli/001540_2014-06-20_17-01-05_260595134347_rgbf000086-resize_2/001540_2014-06-20_17-01-05_260595134347_rgbf000086-resize-original.jpg,1000,1.459,0,33950,1008,feet,jsons/v1_VE1000_randls_69_rotated.json,1218808,1466626,42,Man
66,603293,DepthScenes,duration_manipulation_targetAtFixation,jsons/v1_VE1000_randls_69_rotated.json,http://54.235.29.9/FacialAge/BNav_EC2/DepthDuration/v2_depth_duration_MTurk/v2_DepthDuration_HTML.html#55,55,1364,625,1364,768,8-29-2022,14-27-14,67,depth_duration_stimuli/000854_2014-06-09_19-43-13_260595134347_rgbf000066-resize_0/000854_2014-06-09_19-43-13_260595134347_rgbf000066-resize_0-target.png,1000,3.068,5,14926,980,feet,jsons/v1_VE1000_randls_69_rotated.json,1218808,1466626,42,Man
67,603293,DepthScenes,duration_manipulation_targetAtFixation,jsons/v1_VE1000_randls_69_rotated.json,http://54.235.29.9/FacialAge/BNav_EC2/DepthDuration/v2_depth_duration_MTurk/v2_DepthDuration_HTML.html#55,55,1364,625,1364,768,8-29-2022,14-27-14,68,depth_duration_stimuli/000758_2014-06-08_22-05-08_260595134347_rgbf000085-resize_0/000758_2014-06-08_22-05-08_260595134347_rgbf000085-resize_0-target.png,1000,3.3810000000000002,5,6130,996,feet,jsons/v1_VE1000_randls_69_rotated.json,1218808,1466626,42,Man
68,603293,DepthScenes,duration_manipulation_targetAtFixation,jsons/v1_VE1000_randls_69_rotated.json,http://54.235.29.9/FacialAge/BNav_EC2/DepthDuration/v2_depth_duration_MTurk/v2_DepthDuration_HTML.html#55,55,1364,625,1364,768,8-29-2022,14-27-14,69,depth_duration_stimuli/000109_2014-05-14_23-41-52_260595134347_rgbf000035-resize_9/000109_2014-05-14_23-41-52_260595134347_rgbf000035-resize_9-target.png,1000,1.3545,5,12966,999,feet,jsons/v1_VE1000_randls_69_rotated.json,1218808,1466626,42,Man
69,603293,DepthScenes,duration_manipulation_targetAtFixation,jsons/v1_VE1000_randls_69_rotated.json,http://54.235.29.9/FacialAge/BNav_EC2/DepthDuration/v2_depth_duration_MTurk/v2_DepthDuration_HTML.html#55,55,1364,625,1364,768,8-29-2022,14-27-14,70,depth_duration_stimuli/000470_2014-06-09_19-42-40_260595134347_rgbf000094-resize_1/000470_2014-06-09_19-42-40_260595134347_rgbf000094-resize_1-target.png,1000,1.831,5,4054,1001,feet,jsons/v1_VE1000_randls_69_rotated.json,1218808,1466626,42,Man
70,603293,DepthScenes,duration_manipulation_targetAtFixation,jsons/v1_VE1000_randls_69_rotated.json,http://54.235.29.9/FacialAge/BNav_EC2/DepthDuration/v2_depth_duration_MTurk/v2_DepthDuration_HTML.html#55,55,1364,625,1364,768,8-29-2022,14-27-14,71,depth_duration_stimuli/002444_2014-06-28_20-32-08_260595134347_rgbf000027-resize_0/002444_2014-06-28_20-32-08_260595134347_rgbf000027-resize_0-target.png,1000,4.388999999999999,5,6670,995,feet,jsons/v1_VE1000_randls_69_rotated.json,1218808,1466626,42,Man
71,603293,DepthScenes,duration_manipulation_targetAtFixation,jsons/v1_VE1000_randls_69_rotated.json,http://54.235.29.9/FacialAge/BNav_EC2/DepthDuration/v2_depth_duration_MTurk/v2_DepthDuration_HTML.html#55,55,1364,625,1364,768,8-29-2022,14-27-14,72,depth_duration_stimuli/000436_2014-06-09_22-25-11_260595134347_rgbf000137-resize_1/000436_2014-06-09_22-25-11_260595134347_rgbf000137-resize_1-target.png,1000,4.0705,5,3672,998,feet,jsons/v1_VE1000_randls_69_rotated.json,1218808,1466626,42,Man
72,603293,DepthScenes,duration_manipulation_targetAtFixation,jsons/v1_VE1000_randls_69_rotated.json,http://54.235.29.9/FacialAge/BNav_EC2/DepthDuration/v2_depth_duration_MTurk/v2_DepthDuration_HTML.html#55,55,1364,625,1364,768,8-29-2022,14-27-14,73,depth_duration_stimuli/001136_2014-06-17_15-19-41_260595134347_rgbf000076-resize_3/001136_2014-06-17_15-19-41_260595134347_rgbf000076-resize_3-target.png,1000,1.8655,5,5590,996,feet,jsons/v1_VE1000_randls_69_rotated.json,1218808,1466626,42,Man
73,603293,DepthScenes,duration_manipulation_targetAtFixation,jsons/v1_VE1000_randls_69_rotated.json,http://54.235.29.9/FacialAge/BNav_EC2/DepthDuration/v2_depth_duration_MTurk/v2_DepthDuration_HTML.html#55,55,1364,625,1364,768,8-29-2022,14-27-14,74,depth_duration_stimuli/001164_2014-06-17_15-35-46_260595134347_rgbf000085-resize_3/001164_2014-06-17_15-35-46_260595134347_rgbf000085-resize_3-target.png,1000,2.354,5,3414,1000,feet,jsons/v1_VE1000_randls_69_rotated.json,1218808,1466626,42,Man
74,603293,DepthScenes,duration_manipulation_targetAtFixation,jsons/v1_VE1000_randls_69_rotated.json,http://54.235.29.9/FacialAge/BNav_EC2/DepthDuration/v2_depth_duration_MTurk/v2_DepthDuration_HTML.html#55,55,1364,625,1364,768,8-29-2022,14-27-14,75,depth_duration_stimuli/001650_2014-06-20_12-09-00_260595134347_rgbf000087-resize_3/001650_2014-06-20_12-09-00_260595134347_rgbf000087-resize_3-target.png,1000,1.9505,5,8642,1000,feet,jsons/v1_VE1000_randls_69_rotated.json,1218808,1466626,42,Man
75,603293,DepthScenes,duration_manipulation_targetAtFixation,jsons/v1_VE1000_randls_69_rotated.json,http://54.235.29.9/FacialAge/BNav_EC2/DepthDuration/v2_depth_duration_MTurk/v2_DepthDuration_HTML.html#55,55,1364,625,1364,768,8-29-2022,14-27-14,76,depth_duration_stimuli/000682_2014-06-08_23-14-58_260595134347_rgbf000041-resize_5/000682_2014-06-08_23-14-58_260595134347_rgbf000041-resize_5-target.png,1000,2.7239999999999998,4,3468,1041,feet,jsons/v1_VE1000_randls_69_rotated.json,1218808,1466626,42,Man
76,603293,DepthScenes,duration_manipulation_targetAtFixation,jsons/v1_VE1000_randls_69_rotated.json,http://54.235.29.9/FacialAge/BNav_EC2/DepthDuration/v2_depth_duration_MTurk/v2_DepthDuration_HTML.html#55,55,1364,625,1364,768,8-29-2022,14-27-14,77,depth_duration_stimuli/000549_2014-06-08_22-10-24_260595134347_rgbf000247-resize_3/000549_2014-06-08_22-10-24_260595134347_rgbf000247-resize_3-target.png,1000,1.841,4,5753,1000,feet,jsons/v1_VE1000_randls_69_rotated.json,1218808,1466626,42,Man
77,603293,DepthScenes,duration_manipulation_targetAtFixation,jsons/v1_VE1000_randls_69_rotated.json,http://54.235.29.9/FacialAge/BNav_EC2/DepthDuration/v2_depth_duration_MTurk/v2_DepthDuration_HTML.html#55,55,1364,625,1364,768,8-29-2022,14-27-14,78,depth_duration_stimuli/001055_2014-06-08_18-45-35_260595134347_rgbf000111-resize_4/001055_2014-06-08_18-45-35_260595134347_rgbf000111-resize_4-target.png,1000,2.4290000000000003,4,5043,975,feet,jsons/v1_VE1000_randls_69_rotated.json,1218808,1466626,42,Man
78,603293,DepthScenes,duration_manipulation_targetAtFixation,jsons/v1_VE1000_randls_69_rotated.json,http://54.235.29.9/FacialAge/BNav_EC2/DepthDuration/v2_depth_duration_MTurk/v2_DepthDuration_HTML.html#55,55,1364,625,1364,768,8-29-2022,14-27-14,79,depth_duration_stimuli/002209_2014-06-28_18-36-10_260595134347_rgbf000051-resize_1/002209_2014-06-28_18-36-10_260595134347_rgbf000051-resize_1-target.png,1000,2.057,4,12275,1000,feet,jsons/v1_VE1000_randls_69_rotated.json,1218808,1466626,42,Man
79,603293,DepthScenes,duration_manipulation_targetAtFixation,jsons/v1_VE1000_randls_69_rotated.json,http://54.235.29.9/FacialAge/BNav_EC2/DepthDuration/v2_depth_duration_MTurk/v2_DepthDuration_HTML.html#55,55,1364,625,1364,768,8-29-2022,14-27-14,80,depth_duration_stimuli/002763_2014-06-22_19-13-10_094959634447_rgbf000075-resize_4/002763_2014-06-22_19-13-10_094959634447_rgbf000075-resize_4-target.png,1000,1.68375,4,7124,1000,feet,jsons/v1_VE1000_randls_69_rotated.json,1218808,1466626,42,Man
80,603293,DepthScenes,duration_manipulation_targetAtFixation,jsons/v1_VE1000_randls_69_rotated.json,http://54.235.29.9/FacialAge/BNav_EC2/DepthDuration/v2_depth_duration_MTurk/v2_DepthDuration_HTML.html#55,55,1364,625,1364,768,8-29-2022,14-27-14,81,depth_duration_stimuli/001032_2014-06-08_13-23-17_260595134347_rgbf000021-resize_3/001032_2014-06-08_13-23-17_260595134347_rgbf000021-resize_3-target.png,1000,3.2725,4,10358,1001,feet,jsons/v1_VE1000_randls_69_rotated.json,1218808,1466626,42,Man
81,603293,DepthScenes,duration_manipulation_targetAtFixation,jsons/v1_VE1000_randls_69_rotated.json,http://54.235.29.9/FacialAge/BNav_EC2/DepthDuration/v2_depth_duration_MTurk/v2_DepthDuration_HTML.html#55,55,1364,625,1364,768,8-29-2022,14-27-14,82,depth_duration_stimuli/001059_2014-06-08_21-53-27_260595134347_rgbf000061-resize_4/001059_2014-06-08_21-53-27_260595134347_rgbf000061-resize_4-target.png,1000,2.4185,4,4315,999,feet,jsons/v1_VE1000_randls_69_rotated.json,1218808,1466626,42,Man
82,603293,DepthScenes,duration_manipulation_targetAtFixation,jsons/v1_VE1000_randls_69_rotated.json,http://54.235.29.9/FacialAge/BNav_EC2/DepthDuration/v2_depth_duration_MTurk/v2_DepthDuration_HTML.html#55,55,1364,625,1364,768,8-29-2022,14-27-14,83,depth_duration_stimuli/000734_2014-06-08_17-39-11_260595134347_rgbf000128-resize_2/000734_2014-06-08_17-39-11_260595134347_rgbf000128-resize_2-target.png,1000,4.098,4,7583,1004,feet,jsons/v1_VE1000_randls_69_rotated.json,1218808,1466626,42,Man
83,603293,DepthScenes,duration_manipulation_targetAtFixation,jsons/v1_VE1000_randls_69_rotated.json,http://54.235.29.9/FacialAge/BNav_EC2/DepthDuration/v2_depth_duration_MTurk/v2_DepthDuration_HTML.html#55,55,1364,625,1364,768,8-29-2022,14-27-14,84,depth_duration_stimuli/000739_2014-06-08_18-45-58_260595134347_rgbf000068-resize_1/000739_2014-06-08_18-45-58_260595134347_rgbf000068-resize_1-target.png,1000,3.534,4,4237,1000,feet,jsons/v1_VE1000_randls_69_rotated.json,1218808,1466626,42,Man
84,603293,DepthScenes,duration_manipulation_targetAtFixation,jsons/v1_VE1000_randls_69_rotated.json,http://54.235.29.9/FacialAge/BNav_EC2/DepthDuration/v2_depth_duration_MTurk/v2_DepthDuration_HTML.html#55,55,1364,625,1364,768,8-29-2022,14-27-14,85,depth_duration_stimuli/002199_2014-06-28_18-33-56_260595134347_rgbf000074-resize_0/002199_2014-06-28_18-33-56_260595134347_rgbf000074-resize_0-target.png,1000,1.996,4,5900,991,feet,jsons/v1_VE1000_randls_69_rotated.json,1218808,1466626,42,Man
85,603293,DepthScenes,duration_manipulation_targetAtFixation,jsons/v1_VE1000_randls_69_rotated.json,http://54.235.29.9/FacialAge/BNav_EC2/DepthDuration/v2_depth_duration_MTurk/v2_DepthDuration_HTML.html#55,55,1364,625,1364,768,8-29-2022,14-27-14,86,depth_duration_stimuli/001056_2014-06-08_18-46-44_260595134347_rgbf000068-resize_0/001056_2014-06-08_18-46-44_260595134347_rgbf000068-resize_0-target.png,1000,2.6625,4,2939,1001,feet,jsons/v1_VE1000_randls_69_rotated.json,1218808,1466626,42,Man
86,603293,DepthScenes,duration_manipulation_targetAtFixation,jsons/v1_VE1000_randls_69_rotated.json,http://54.235.29.9/FacialAge/BNav_EC2/DepthDuration/v2_depth_duration_MTurk/v2_DepthDuration_HTML.html#55,55,1364,625,1364,768,8-29-2022,14-27-14,87,depth_duration_stimuli/003490_2014-05-21_15-50-11_094959634447_rgbf000101-resize_3/003490_2014-05-21_15-50-11_094959634447_rgbf000101-resize_3-target.png,1000,3.6445,4,5063,999,feet,jsons/v1_VE1000_randls_69_rotated.json,1218808,1466626,42,Man
87,603293,DepthScenes,duration_manipulation_targetAtFixation,jsons/v1_VE1000_randls_69_rotated.json,http://54.235.29.9/FacialAge/BNav_EC2/DepthDuration/v2_depth_duration_MTurk/v2_DepthDuration_HTML.html#55,55,1364,625,1364,768,8-29-2022,14-27-14,88,depth_duration_stimuli/001175_2014-06-17_15-45-55_260595134347_rgbf000129-resize_4/001175_2014-06-17_15-45-55_260595134347_rgbf000129-resize_4-target.png,1000,4.255,4,3210,1000,feet,jsons/v1_VE1000_randls_69_rotated.json,1218808,1466626,42,Man
88,603293,DepthScenes,duration_manipulation_targetAtFixation,jsons/v1_VE1000_randls_69_rotated.json,http://54.235.29.9/FacialAge/BNav_EC2/DepthDuration/v2_depth_duration_MTurk/v2_DepthDuration_HTML.html#55,55,1364,625,1364,768,8-29-2022,14-27-14,89,depth_duration_stimuli/002657_2014-06-13_15-29-54_094959634447_rgbf000150-resize_1/002657_2014-06-13_15-29-54_094959634447_rgbf000150-resize_1-target.png,1000,4.919,4,7313,995,feet,jsons/v1_VE1000_randls_69_rotated.json,1218808,1466626,42,Man
89,603293,DepthScenes,duration_manipulation_targetAtFixation,jsons/v1_VE1000_randls_69_rotated.json,http://54.235.29.9/FacialAge/BNav_EC2/DepthDuration/v2_depth_duration_MTurk/v2_DepthDuration_HTML.html#55,55,1364,625,1364,768,8-29-2022,14-27-14,90,depth_duration_stimuli/002375_2014-06-28_20-13-44_260595134347_rgbf000032-resize_1/002375_2014-06-28_20-13-44_260595134347_rgbf000032-resize_1-target.png,1000,4.0175,4,2971,999,feet,jsons/v1_VE1000_randls_69_rotated.json,1218808,1466626,42,Man
90,603293,DepthScenes,duration_manipulation_targetAtFixation,jsons/v1_VE1000_randls_69_rotated.json,http://54.235.29.9/FacialAge/BNav_EC2/DepthDuration/v2_depth_duration_MTurk/v2_DepthDuration_HTML.html#55,55,1364,625,1364,768,8-29-2022,14-27-14,91,depth_duration_stimuli/002425_2014-06-28_20-27-29_260595134347_rgbf000031-resize_8/002425_2014-06-28_20-27-29_260595134347_rgbf000031-resize_8-target.png,1000,3.8960000000000004,4,8384,992,feet,jsons/v1_VE1000_randls_69_rotated.json,1218808,1466626,42,Man
91,603293,DepthScenes,duration_manipulation_targetAtFixation,jsons/v1_VE1000_randls_69_rotated.json,http://54.235.29.9/FacialAge/BNav_EC2/DepthDuration/v2_depth_duration_MTurk/v2_DepthDuration_HTML.html#55,55,1364,625,1364,768,8-29-2022,14-27-14,92,depth_duration_stimuli/000642_2014-06-08_16-59-25_260595134347_rgbf000098-resize_2/000642_2014-06-08_16-59-25_260595134347_rgbf000098-resize_2-target.png,1000,2.8815,4,2869,1001,feet,jsons/v1_VE1000_randls_69_rotated.json,1218808,1466626,42,Man
92,603293,DepthScenes,duration_manipulation_targetAtFixation,jsons/v1_VE1000_randls_69_rotated.json,http://54.235.29.9/FacialAge/BNav_EC2/DepthDuration/v2_depth_duration_MTurk/v2_DepthDuration_HTML.html#55,55,1364,625,1364,768,8-29-2022,14-27-14,93,depth_duration_stimuli/001450_2014-06-19_17-02-03_260595134347_rgbf000203-resize_4/001450_2014-06-19_17-02-03_260595134347_rgbf000203-resize_4-target.png,1000,4.0106666666667,4,4115,953,feet,jsons/v1_VE1000_randls_69_rotated.json,1218808,1466626,42,Man
93,603293,DepthScenes,duration_manipulation_targetAtFixation,jsons/v1_VE1000_randls_69_rotated.json,http://54.235.29.9/FacialAge/BNav_EC2/DepthDuration/v2_depth_duration_MTurk/v2_DepthDuration_HTML.html#55,55,1364,625,1364,768,8-29-2022,14-27-14,94,depth_duration_stimuli/001449_2014-06-19_17-01-27_260595134347_rgbf000116-resize_2/001449_2014-06-19_17-01-27_260595134347_rgbf000116-resize_2-target.png,1000,3.452,4,2735,993,feet,jsons/v1_VE1000_randls_69_rotated.json,1218808,1466626,42,Man
94,603293,DepthScenes,duration_manipulation_targetAtFixation,jsons/v1_VE1000_randls_69_rotated.json,http://54.235.29.9/FacialAge/BNav_EC2/DepthDuration/v2_depth_duration_MTurk/v2_DepthDuration_HTML.html#55,55,1364,625,1364,768,8-29-2022,14-27-14,95,depth_duration_stimuli/000709_2014-06-08_13-51-55_260595134347_rgbf000068-resize_3/000709_2014-06-08_13-51-55_260595134347_rgbf000068-resize_3-target.png,1000,1.8030000000000002,4,4423,994,feet,jsons/v1_VE1000_randls_69_rotated.json,1218808,1466626,42,Man
95,603293,DepthScenes,duration_manipulation_targetAtFixation,jsons/v1_VE1000_randls_69_rotated.json,http://54.235.29.9/FacialAge/BNav_EC2/DepthDuration/v2_depth_duration_MTurk/v2_DepthDuration_HTML.html#55,55,1364,625,1364,768,8-29-2022,14-27-14,96,depth_duration_stimuli/002057_2014-06-24_21-00-13_260595134347_rgbf000120-resize_1/002057_2014-06-24_21-00-13_260595134347_rgbf000120-resize_1-target.png,1000,2.967,4,3324,1000,feet,jsons/v1_VE1000_randls_69_rotated.json,1218808,1466626,42,Man
96,603293,DepthScenes,duration_manipulation_targetAtFixation,jsons/v1_VE1000_randls_69_rotated.json,http://54.235.29.9/FacialAge/BNav_EC2/DepthDuration/v2_depth_duration_MTurk/v2_DepthDuration_HTML.html#55,55,1364,625,1364,768,8-29-2022,14-27-14,97,depth_duration_stimuli/002949_2014-06-26_15-57-42_094959634447_rgbf000079-resize_1/002949_2014-06-26_15-57-42_094959634447_rgbf000079-resize_1-target.png,1000,1.8915,4,8118,999,feet,jsons/v1_VE1000_randls_69_rotated.json,1218808,1466626,42,Man
97,603293,DepthScenes,duration_manipulation_targetAtFixation,jsons/v1_VE1000_randls_69_rotated.json,http://54.235.29.9/FacialAge/BNav_EC2/DepthDuration/v2_depth_duration_MTurk/v2_DepthDuration_HTML.html#55,55,1364,625,1364,768,8-29-2022,14-27-14,98,depth_duration_stimuli/000522_2014-06-08_13-35-06_260595134347_rgbf000244-resize_1/000522_2014-06-08_13-35-06_260595134347_rgbf000244-resize_1-target.png,1000,2.3715,4,3255,1000,feet,jsons/v1_VE1000_randls_69_rotated.json,1218808,1466626,42,Man
98,603293,DepthScenes,duration_manipulation_targetAtFixation,jsons/v1_VE1000_randls_69_rotated.json,http://54.235.29.9/FacialAge/BNav_EC2/DepthDuration/v2_depth_duration_MTurk/v2_DepthDuration_HTML.html#55,55,1364,625,1364,768,8-29-2022,14-27-14,99,depth_duration_stimuli/001222_2014-06-17_16-24-06_260595134347_rgbf000073-resize_0/001222_2014-06-17_16-24-06_260595134347_rgbf000073-resize-original.jpg,1000,1.4385,0,10594,1000,feet,jsons/v1_VE1000_randls_69_rotated.json,1218808,1466626,42,Man
99,603293,DepthScenes,duration_manipulation_targetAtFixation,jsons/v1_VE1000_randls_69_rotated.json,http://54.235.29.9/FacialAge/BNav_EC2/DepthDuration/v2_depth_duration_MTurk/v2_DepthDuration_HTML.html#55,55,1364,625,1364,768,8-29-2022,14-27-14,100,depth_duration_stimuli/001235_2014-06-17_16-37-36_260595134347_rgbf000084-resize_4/001235_2014-06-17_16-37-36_260595134347_rgbf000084-resize_4-target.png,1000,3.6605,4,8010,997,feet,jsons/v1_VE1000_randls_69_rotated.json,1218808,1466626,42,Man
100,603293,DepthScenes,duration_manipulation_targetAtFixation,jsons/v1_VE1000_randls_69_rotated.json,http://54.235.29.9/FacialAge/BNav_EC2/DepthDuration/v2_depth_duration_MTurk/v2_DepthDuration_HTML.html#55,55,1364,625,1364,768,8-29-2022,14-27-14,101,depth_duration_stimuli/000788_2014-06-08_22-34-36_260595134347_rgbf000131-resize_1/000788_2014-06-08_22-34-36_260595134347_rgbf000131-resize_1-target.png,1000,3.359,4,3274,1008,feet,jsons/v1_VE1000_randls_69_rotated.json,1218808,1466626,42,Man
101,603293,DepthScenes,duration_manipulation_targetAtFixation,jsons/v1_VE1000_randls_69_rotated.json,http://54.235.29.9/FacialAge/BNav_EC2/DepthDuration/v2_depth_duration_MTurk/v2_DepthDuration_HTML.html#55,55,1364,625,1364,768,8-29-2022,14-27-14,102,depth_duration_stimuli/000191_2014-05-12_17-07-38_260595134347_rgbf000199-resize_0/000191_2014-05-12_17-07-38_260595134347_rgbf000199-resize_0-target.png,1000,3.7995,4,5546,1001,feet,jsons/v1_VE1000_randls_69_rotated.json,1218808,1466626,42,Man
102,603293,DepthScenes,duration_manipulation_targetAtFixation,jsons/v1_VE1000_randls_69_rotated.json,http://54.235.29.9/FacialAge/BNav_EC2/DepthDuration/v2_depth_duration_MTurk/v2_DepthDuration_HTML.html#55,55,1364,625,1364,768,8-29-2022,14-27-14,103,depth_duration_stimuli/000493_2014-06-09_21-01-18_260595134347_rgbf000196-resize_3/000493_2014-06-09_21-01-18_260595134347_rgbf000196-resize_3-target.png,1000,3.44,4,4255,1027,feet,jsons/v1_VE1000_randls_69_rotated.json,1218808,1466626,42,Man
103,603293,DepthScenes,duration_manipulation_targetAtFixation,jsons/v1_VE1000_randls_69_rotated.json,http://54.235.29.9/FacialAge/BNav_EC2/DepthDuration/v2_depth_duration_MTurk/v2_DepthDuration_HTML.html#55,55,1364,625,1364,768,8-29-2022,14-27-14,104,depth_duration_stimuli/000742_2014-06-08_18-48-09_260595134347_rgbf000164-resize_4/000742_2014-06-08_18-48-09_260595134347_rgbf000164-resize_4-target.png,1000,4.632,4,6912,1001,feet,jsons/v1_VE1000_randls_69_rotated.json,1218808,1466626,42,Man
104,603293,DepthScenes,duration_manipulation_targetAtFixation,jsons/v1_VE1000_randls_69_rotated.json,http://54.235.29.9/FacialAge/BNav_EC2/DepthDuration/v2_depth_duration_MTurk/v2_DepthDuration_HTML.html#55,55,1364,625,1364,768,8-29-2022,14-27-14,105,depth_duration_stimuli/001066_2014-06-08_22-03-20_260595134347_rgbf000066-resize_4/001066_2014-06-08_22-03-20_260595134347_rgbf000066-resize_4-target.png,1000,4.2330000000000005,4,3038,999,feet,jsons/v1_VE1000_randls_69_rotated.json,1218808,1466626,42,Man
105,603293,DepthScenes,duration_manipulation_targetAtFixation,jsons/v1_VE1000_randls_69_rotated.json,http://54.235.29.9/FacialAge/BNav_EC2/DepthDuration/v2_depth_duration_MTurk/v2_DepthDuration_HTML.html#55,55,1364,625,1364,768,8-29-2022,14-27-14,106,depth_duration_stimuli/000677_2014-06-08_23-10-32_260595134347_rgbf000158-resize_6/000677_2014-06-08_23-10-32_260595134347_rgbf000158-resize_6-target.png,1000,3.556,4,4997,999,feet,jsons/v1_VE1000_randls_69_rotated.json,1218808,1466626,42,Man
106,603293,DepthScenes,duration_manipulation_targetAtFixation,jsons/v1_VE1000_randls_69_rotated.json,http://54.235.29.9/FacialAge/BNav_EC2/DepthDuration/v2_depth_duration_MTurk/v2_DepthDuration_HTML.html#55,55,1364,625,1364,768,8-29-2022,14-27-14,107,depth_duration_stimuli/001029_2014-06-08_13-17-57_260595134347_rgbf000065-resize_1/001029_2014-06-08_13-17-57_260595134347_rgbf000065-resize_1-target.png,1000,3.0835,4,3140,1020,feet,jsons/v1_VE1000_randls_69_rotated.json,1218808,1466626,42,Man
107,603293,DepthScenes,duration_manipulation_targetAtFixation,jsons/v1_VE1000_randls_69_rotated.json,http://54.235.29.9/FacialAge/BNav_EC2/DepthDuration/v2_depth_duration_MTurk/v2_DepthDuration_HTML.html#55,55,1364,625,1364,768,8-29-2022,14-27-14,108,depth_duration_stimuli/001584_2014-06-20_11-07-43_260595134347_rgbf000002-resize_1/001584_2014-06-20_11-07-43_260595134347_rgbf000002-resize_1-target.png,1000,3.53,4,6938,1014,feet,jsons/v1_VE1000_randls_69_rotated.json,1218808,1466626,42,Man
108,603293,DepthScenes,duration_manipulation_targetAtFixation,jsons/v1_VE1000_randls_69_rotated.json,http://54.235.29.9/FacialAge/BNav_EC2/DepthDuration/v2_depth_duration_MTurk/v2_DepthDuration_HTML.html#55,55,1364,625,1364,768,8-29-2022,14-27-14,109,depth_duration_stimuli/003621_2014-05-23_18-06-08_094959634447_rgbf000101-resize_1/003621_2014-05-23_18-06-08_094959634447_rgbf000101-resize_1-target.png,1000,3.9835,4,2963,999,feet,jsons/v1_VE1000_randls_69_rotated.json,1218808,1466626,42,Man
109,603293,DepthScenes,duration_manipulation_targetAtFixation,jsons/v1_VE1000_randls_69_rotated.json,http://54.235.29.9/FacialAge/BNav_EC2/DepthDuration/v2_depth_duration_MTurk/v2_DepthDuration_HTML.html#55,55,1364,625,1364,768,8-29-2022,14-27-14,110,depth_duration_stimuli/000943_2014-06-09_19-31-07_260595134347_rgbf000128-resize_1/000943_2014-06-09_19-31-07_260595134347_rgbf000128-resize_1-target.png,1000,1.9765,4,8922,999,feet,jsons/v1_VE1000_randls_69_rotated.json,1218808,1466626,42,Man
110,603293,DepthScenes,duration_manipulation_targetAtFixation,jsons/v1_VE1000_randls_69_rotated.json,http://54.235.29.9/FacialAge/BNav_EC2/DepthDuration/v2_depth_duration_MTurk/v2_DepthDuration_HTML.html#55,55,1364,625,1364,768,8-29-2022,14-27-14,111,depth_duration_stimuli/003070_2014-06-15_14-58-27_094959634447_rgbf000150-resize_3/003070_2014-06-15_14-58-27_094959634447_rgbf000150-resize_3-target.png,1000,2.9415,4,2672,963,feet,jsons/v1_VE1000_randls_69_rotated.json,1218808,1466626,42,Man
111,603293,DepthScenes,duration_manipulation_targetAtFixation,jsons/v1_VE1000_randls_69_rotated.json,http://54.235.29.9/FacialAge/BNav_EC2/DepthDuration/v2_depth_duration_MTurk/v2_DepthDuration_HTML.html#55,55,1364,625,1364,768,8-29-2022,14-27-14,112,depth_duration_stimuli/002467_2014-06-28_20-38-07_260595134347_rgbf000026-resize_2/002467_2014-06-28_20-38-07_260595134347_rgbf000026-resize_2-target.png,1000,4.742,4,6349,1001,feet,jsons/v1_VE1000_randls_69_rotated.json,1218808,1466626,42,Man
112,603293,DepthScenes,duration_manipulation_targetAtFixation,jsons/v1_VE1000_randls_69_rotated.json,http://54.235.29.9/FacialAge/BNav_EC2/DepthDuration/v2_depth_duration_MTurk/v2_DepthDuration_HTML.html#55,55,1364,625,1364,768,8-29-2022,14-27-14,113,depth_duration_stimuli/002570_2014-06-24_13-59-54_094959634447_rgbf000059-resize_0/002570_2014-06-24_13-59-54_094959634447_rgbf000059-resize_0-target.png,1000,4.037,4,3954,1000,feet,jsons/v1_VE1000_randls_69_rotated.json,1218808,1466626,42,Man
113,603293,DepthScenes,duration_manipulation_targetAtFixation,jsons/v1_VE1000_randls_69_rotated.json,http://54.235.29.9/FacialAge/BNav_EC2/DepthDuration/v2_depth_duration_MTurk/v2_DepthDuration_HTML.html#55,55,1364,625,1364,768,8-29-2022,14-27-14,114,depth_duration_stimuli/001100_2014-06-15_17-46-26_260595134347_rgbf000225-resize_2/001100_2014-06-15_17-46-26_260595134347_rgbf000225-resize_2-target.png,1000,2.24,4,7031,999,feet,jsons/v1_VE1000_randls_69_rotated.json,1218808,1466626,42,Man
114,603293,DepthScenes,duration_manipulation_targetAtFixation,jsons/v1_VE1000_randls_69_rotated.json,http://54.235.29.9/FacialAge/BNav_EC2/DepthDuration/v2_depth_duration_MTurk/v2_DepthDuration_HTML.html#55,55,1364,625,1364,768,8-29-2022,14-27-14,115,depth_duration_stimuli/002784_2014-06-22_19-26-30_094959634447_rgbf000083-resize_3/002784_2014-06-22_19-26-30_094959634447_rgbf000083-resize_3-target.png,1000,1.8046666666667,4,2875,1000,feet,jsons/v1_VE1000_randls_69_rotated.json,1218808,1466626,42,Man
115,603293,DepthScenes,duration_manipulation_targetAtFixation,jsons/v1_VE1000_randls_69_rotated.json,http://54.235.29.9/FacialAge/BNav_EC2/DepthDuration/v2_depth_duration_MTurk/v2_DepthDuration_HTML.html#55,55,1364,625,1364,768,8-29-2022,14-27-14,116,depth_duration_stimuli/001094_2014-06-15_17-36-00_260595134347_rgbf000205-resize_0/001094_2014-06-15_17-36-00_260595134347_rgbf000205-resize_0-target.png,1000,4.2175,4,4746,1006,feet,jsons/v1_VE1000_randls_69_rotated.json,1218808,1466626,42,Man
116,603293,DepthScenes,duration_manipulation_targetAtFixation,jsons/v1_VE1000_randls_69_rotated.json,http://54.235.29.9/FacialAge/BNav_EC2/DepthDuration/v2_depth_duration_MTurk/v2_DepthDuration_HTML.html#55,55,1364,625,1364,768,8-29-2022,14-27-14,117,depth_duration_stimuli/000692_2014-06-08_13-09-42_260595134347_rgbf000199-resize_2/000692_2014-06-08_13-09-42_260595134347_rgbf000199-resize_2-target.png,1000,3.661,4,15672,998,feet,jsons/v1_VE1000_randls_69_rotated.json,1218808,1466626,42,Man
117,603293,DepthScenes,duration_manipulation_targetAtFixation,jsons/v1_VE1000_randls_69_rotated.json,http://54.235.29.9/FacialAge/BNav_EC2/DepthDuration/v2_depth_duration_MTurk/v2_DepthDuration_HTML.html#55,55,1364,625,1364,768,8-29-2022,14-27-14,118,depth_duration_stimuli/002758_2014-06-22_19-11-20_094959634447_rgbf000128-resize_1/002758_2014-06-22_19-11-20_094959634447_rgbf000128-resize_1-target.png,1000,2.555,4,6163,995,feet,jsons/v1_VE1000_randls_69_rotated.json,1218808,1466626,42,Man
118,603293,DepthScenes,duration_manipulation_targetAtFixation,jsons/v1_VE1000_randls_69_rotated.json,http://54.235.29.9/FacialAge/BNav_EC2/DepthDuration/v2_depth_duration_MTurk/v2_DepthDuration_HTML.html#55,55,1364,625,1364,768,8-29-2022,14-27-14,119,depth_duration_stimuli/002630_2014-06-24_14-47-50_094959634447_rgbf000055-resize_1/002630_2014-06-24_14-47-50_094959634447_rgbf000055-resize_1-target.png,1000,3.0095,4,2796,1001,feet,jsons/v1_VE1000_randls_69_rotated.json,1218808,1466626,42,Man
119,603293,DepthScenes,duration_manipulation_targetAtFixation,jsons/v1_VE1000_randls_69_rotated.json,http://54.235.29.9/FacialAge/BNav_EC2/DepthDuration/v2_depth_duration_MTurk/v2_DepthDuration_HTML.html#55,55,1364,625,1364,768,8-29-2022,14-27-14,120,depth_duration_stimuli/000787_2014-06-08_22-33-53_260595134347_rgbf000175-resize_1/000787_2014-06-08_22-33-53_260595134347_rgbf000175-resize-original.jpg,1000,4.784,0,6056,1000,feet,jsons/v1_VE1000_randls_69_rotated.json,1218808,1466626,42,Man
120,603293,DepthScenes,duration_manipulation_targetAtFixation,jsons/v1_VE1000_randls_69_rotated.json,http://54.235.29.9/FacialAge/BNav_EC2/DepthDuration/v2_depth_duration_MTurk/v2_DepthDuration_HTML.html#55,55,1364,625,1364,768,8-29-2022,14-27-14,121,depth_duration_stimuli/003083_2014-06-15_15-21-03_094959634447_rgbf000063-resize_1/003083_2014-06-15_15-21-03_094959634447_rgbf000063-resize_1-target.png,1000,4.1405,4,8631,999,feet,jsons/v1_VE1000_randls_69_rotated.json,1218808,1466626,42,Man
121,603293,DepthScenes,duration_manipulation_targetAtFixation,jsons/v1_VE1000_randls_69_rotated.json,http://54.235.29.9/FacialAge/BNav_EC2/DepthDuration/v2_depth_duration_MTurk/v2_DepthDuration_HTML.html#55,55,1364,625,1364,768,8-29-2022,14-27-14,122,depth_duration_stimuli/000486_2014-06-09_20-47-20_260595134347_rgbf000143-resize_2/000486_2014-06-09_20-47-20_260595134347_rgbf000143-resize_2-target.png,1000,4.8325,4,4730,1001,feet,jsons/v1_VE1000_randls_69_rotated.json,1218808,1466626,42,Man
122,603293,DepthScenes,duration_manipulation_targetAtFixation,jsons/v1_VE1000_randls_69_rotated.json,http://54.235.29.9/FacialAge/BNav_EC2/DepthDuration/v2_depth_duration_MTurk/v2_DepthDuration_HTML.html#55,55,1364,625,1364,768,8-29-2022,14-27-14,123,depth_duration_stimuli/002805_2014-06-22_19-54-03_094959634447_rgbf000079-resize_1/002805_2014-06-22_19-54-03_094959634447_rgbf000079-resize_1-target.png,1000,3.1439999999999997,4,12225,969,feet,jsons/v1_VE1000_randls_69_rotated.json,1218808,1466626,42,Man
123,603293,DepthScenes,duration_manipulation_targetAtFixation,jsons/v1_VE1000_randls_69_rotated.json,http://54.235.29.9/FacialAge/BNav_EC2/DepthDuration/v2_depth_duration_MTurk/v2_DepthDuration_HTML.html#55,55,1364,625,1364,768,8-29-2022,14-27-14,124,depth_duration_stimuli/000906_2014-06-08_13-35-43_260595134347_rgbf000155-resize_1/000906_2014-06-08_13-35-43_260595134347_rgbf000155-resize_1-target.png,1000,2.8489999999999998,4,3568,1000,feet,jsons/v1_VE1000_randls_69_rotated.json,1218808,1466626,42,Man
124,603293,DepthScenes,duration_manipulation_targetAtFixation,jsons/v1_VE1000_randls_69_rotated.json,http://54.235.29.9/FacialAge/BNav_EC2/DepthDuration/v2_depth_duration_MTurk/v2_DepthDuration_HTML.html#55,55,1364,625,1364,768,8-29-2022,14-27-14,125,depth_duration_stimuli/001571_2014-06-20_17-21-32_260595134347_rgbf000089-resize_1/001571_2014-06-20_17-21-32_260595134347_rgbf000089-resize_1-target.png,1000,1.86,4,6023,1041,feet,jsons/v1_VE1000_randls_69_rotated.json,1218808,1466626,42,Man
125,603293,DepthScenes,duration_manipulation_targetAtFixation,jsons/v1_VE1000_randls_69_rotated.json,http://54.235.29.9/FacialAge/BNav_EC2/DepthDuration/v2_depth_duration_MTurk/v2_DepthDuration_HTML.html#55,55,1364,625,1364,768,8-29-2022,14-27-14,126,depth_duration_stimuli/002272_2014-06-28_18-53-56_260595134347_rgbf000067-resize_2/002272_2014-06-28_18-53-56_260595134347_rgbf000067-resize_2-target.png,1000,1.138,0,5150,997,feet,jsons/v1_VE1000_randls_69_rotated.json,1218808,1466626,42,Man
126,603293,DepthScenes,duration_manipulation_targetAtFixation,jsons/v1_VE1000_randls_69_rotated.json,http://54.235.29.9/FacialAge/BNav_EC2/DepthDuration/v2_depth_duration_MTurk/v2_DepthDuration_HTML.html#55,55,1364,625,1364,768,8-29-2022,14-27-14,127,depth_duration_stimuli/000866_2014-06-09_20-45-42_260595134347_rgbf000139-resize_1/000866_2014-06-09_20-45-42_260595134347_rgbf000139-resize_1-target.png,1000,3.2155,4,3939,1000,feet,jsons/v1_VE1000_randls_69_rotated.json,1218808,1466626,42,Man
127,603293,DepthScenes,duration_manipulation_targetAtFixation,jsons/v1_VE1000_randls_69_rotated.json,http://54.235.29.9/FacialAge/BNav_EC2/DepthDuration/v2_depth_duration_MTurk/v2_DepthDuration_HTML.html#55,55,1364,625,1364,768,8-29-2022,14-27-14,128,depth_duration_stimuli/002989_2014-06-15_12-25-03_094959634447_rgbf000150-resize_3/002989_2014-06-15_12-25-03_094959634447_rgbf000150-resize_3-target.png,1000,4.1975,4,2840,1000,feet,jsons/v1_VE1000_randls_69_rotated.json,1218808,1466626,42,Man
128,603293,DepthScenes,duration_manipulation_targetAtFixation,jsons/v1_VE1000_randls_69_rotated.json,http://54.235.29.9/FacialAge/BNav_EC2/DepthDuration/v2_depth_duration_MTurk/v2_DepthDuration_HTML.html#55,55,1364,625,1364,768,8-29-2022,14-27-14,129,depth_duration_stimuli/001052_2014-06-08_18-24-54_260595134347_rgbf000130-resize_1/001052_2014-06-08_18-24-54_260595134347_rgbf000130-resize_1-target.png,1000,4.1045,4,3727,1000,feet,jsons/v1_VE1000_randls_69_rotated.json,1218808,1466626,42,Man
129,603293,DepthScenes,duration_manipulation_targetAtFixation,jsons/v1_VE1000_randls_69_rotated.json,http://54.235.29.9/FacialAge/BNav_EC2/DepthDuration/v2_depth_duration_MTurk/v2_DepthDuration_HTML.html#55,55,1364,625,1364,768,8-29-2022,14-27-14,130,depth_duration_stimuli/002988_2014-06-15_12-24-20_094959634447_rgbf000150-resize_1/002988_2014-06-15_12-24-20_094959634447_rgbf000150-resize_1-target.png,1000,4.7669999999999995,4,2809,995,feet,jsons/v1_VE1000_randls_69_rotated.json,1218808,1466626,42,Man
130,603293,DepthScenes,duration_manipulation_targetAtFixation,jsons/v1_VE1000_randls_69_rotated.json,http://54.235.29.9/FacialAge/BNav_EC2/DepthDuration/v2_depth_duration_MTurk/v2_DepthDuration_HTML.html#55,55,1364,625,1364,768,8-29-2022,14-27-14,131,depth_duration_stimuli/003495_2014-05-21_16-01-51_094959634447_rgbf000100-resize_3/003495_2014-05-21_16-01-51_094959634447_rgbf000100-resize_3-target.png,1000,1.6255,4,3883,1015,feet,jsons/v1_VE1000_randls_69_rotated.json,1218808,1466626,42,Man
131,603293,DepthScenes,duration_manipulation_targetAtFixation,jsons/v1_VE1000_randls_69_rotated.json,http://54.235.29.9/FacialAge/BNav_EC2/DepthDuration/v2_depth_duration_MTurk/v2_DepthDuration_HTML.html#55,55,1364,625,1364,768,8-29-2022,14-27-14,132,depth_duration_stimuli/001244_2014-06-17_16-47-45_260595134347_rgbf000030-resize_4/001244_2014-06-17_16-47-45_260595134347_rgbf000030-resize_4-target.png,1000,2.0425,4,3812,998,feet,jsons/v1_VE1000_randls_69_rotated.json,1218808,1466626,42,Man
132,603293,DepthScenes,duration_manipulation_targetAtFixation,jsons/v1_VE1000_randls_69_rotated.json,http://54.235.29.9/FacialAge/BNav_EC2/DepthDuration/v2_depth_duration_MTurk/v2_DepthDuration_HTML.html#55,55,1364,625,1364,768,8-29-2022,14-27-14,133,depth_duration_stimuli/002136_2014-06-25_21-18-03_260595134347_rgbf000109-resize_3/002136_2014-06-25_21-18-03_260595134347_rgbf000109-resize_3-target.png,1000,1.9569999999999999,4,6058,999,feet,jsons/v1_VE1000_randls_69_rotated.json,1218808,1466626,42,Man
133,603293,DepthScenes,duration_manipulation_targetAtFixation,jsons/v1_VE1000_randls_69_rotated.json,http://54.235.29.9/FacialAge/BNav_EC2/DepthDuration/v2_depth_duration_MTurk/v2_DepthDuration_HTML.html#55,55,1364,625,1364,768,8-29-2022,14-27-14,134,depth_duration_stimuli/002964_2014-06-08_17-46-11_094959634447_rgbf000091-resize_4/002964_2014-06-08_17-46-11_094959634447_rgbf000091-resize_4-target.png,1000,1.6909999999999998,4,2945,1001,feet,jsons/v1_VE1000_randls_69_rotated.json,1218808,1466626,42,Man
134,603293,DepthScenes,duration_manipulation_targetAtFixation,jsons/v1_VE1000_randls_69_rotated.json,http://54.235.29.9/FacialAge/BNav_EC2/DepthDuration/v2_depth_duration_MTurk/v2_DepthDuration_HTML.html#55,55,1364,625,1364,768,8-29-2022,14-27-14,135,depth_duration_stimuli/000375_2014-06-08_11-17-29_260595134347_rgbf000133-resize_2/000375_2014-06-08_11-17-29_260595134347_rgbf000133-resize-original.jpg,1000,4.718,0,5224,1001,feet,jsons/v1_VE1000_randls_69_rotated.json,1218808,1466626,42,Man
135,603293,DepthScenes,duration_manipulation_targetAtFixation,jsons/v1_VE1000_randls_69_rotated.json,http://54.235.29.9/FacialAge/BNav_EC2/DepthDuration/v2_depth_duration_MTurk/v2_DepthDuration_HTML.html#55,55,1364,625,1364,768,8-29-2022,14-27-14,136,depth_duration_stimuli/002660_2014-06-13_15-44-18_094959634447_rgbf001878-resize_2/002660_2014-06-13_15-44-18_094959634447_rgbf001878-resize_2-target.png,1000,3.576,4,6150,999,feet,jsons/v1_VE1000_randls_69_rotated.json,1218808,1466626,42,Man
136,603293,DepthScenes,duration_manipulation_targetAtFixation,jsons/v1_VE1000_randls_69_rotated.json,http://54.235.29.9/FacialAge/BNav_EC2/DepthDuration/v2_depth_duration_MTurk/v2_DepthDuration_HTML.html#55,55,1364,625,1364,768,8-29-2022,14-27-14,137,depth_duration_stimuli/002153_2014-06-25_21-27-18_260595134347_rgbf000038-resize_5/002153_2014-06-25_21-27-18_260595134347_rgbf000038-resize_5-target.png,1000,2.505,5,5497,1002,feet,jsons/v1_VE1000_randls_69_rotated.json,1218808,1466626,42,Man
137,603293,DepthScenes,duration_manipulation_targetAtFixation,jsons/v1_VE1000_randls_69_rotated.json,http://54.235.29.9/FacialAge/BNav_EC2/DepthDuration/v2_depth_duration_MTurk/v2_DepthDuration_HTML.html#55,55,1364,625,1364,768,8-29-2022,14-27-14,138,depth_duration_stimuli/000927_2014-06-09_16-32-30_260595134347_rgbf000123-resize_3/000927_2014-06-09_16-32-30_260595134347_rgbf000123-resize_3-target.png,1000,2.6785,5,4444,1000,feet,jsons/v1_VE1000_randls_69_rotated.json,1218808,1466626,42,Man
138,603293,DepthScenes,duration_manipulation_targetAtFixation,jsons/v1_VE1000_randls_69_rotated.json,http://54.235.29.9/FacialAge/BNav_EC2/DepthDuration/v2_depth_duration_MTurk/v2_DepthDuration_HTML.html#55,55,1364,625,1364,768,8-29-2022,14-27-14,139,depth_duration_stimuli/001110_2014-06-15_17-25-28_260595134347_rgbf000150-resize_1/001110_2014-06-15_17-25-28_260595134347_rgbf000150-resize_1-target.png,1000,1.7115,5,2930,1001,feet,jsons/v1_VE1000_randls_69_rotated.json,1218808,1466626,42,Man
139,603293,DepthScenes,duration_manipulation_targetAtFixation,jsons/v1_VE1000_randls_69_rotated.json,http://54.235.29.9/FacialAge/BNav_EC2/DepthDuration/v2_depth_duration_MTurk/v2_DepthDuration_HTML.html#55,55,1364,625,1364,768,8-29-2022,14-27-14,140,depth_duration_stimuli/001516_2014-06-20_16-25-09_260595134347_rgbf000076-resize_2/001516_2014-06-20_16-25-09_260595134347_rgbf000076-resize_2-target.png,1000,1.7445,5,4292,1016,feet,jsons/v1_VE1000_randls_69_rotated.json,1218808,1466626,42,Man
140,603293,DepthScenes,duration_manipulation_targetAtFixation,jsons/v1_VE1000_randls_69_rotated.json,http://54.235.29.9/FacialAge/BNav_EC2/DepthDuration/v2_depth_duration_MTurk/v2_DepthDuration_HTML.html#55,55,1364,625,1364,768,8-29-2022,14-27-14,141,depth_duration_stimuli/002118_2014-06-25_20-32-08_260595134347_rgbf000078-resize_1/002118_2014-06-25_20-32-08_260595134347_rgbf000078-resize_1-target.png,1000,2.6460000000000004,5,3641,1001,feet,jsons/v1_VE1000_randls_69_rotated.json,1218808,1466626,42,Man
141,603293,DepthScenes,duration_manipulation_targetAtFixation,jsons/v1_VE1000_randls_69_rotated.json,http://54.235.29.9/FacialAge/BNav_EC2/DepthDuration/v2_depth_duration_MTurk/v2_DepthDuration_HTML.html#55,55,1364,625,1364,768,8-29-2022,14-27-14,142,depth_duration_stimuli/002995_2014-06-15_12-31-26_094959634447_rgbf000150-resize_1/002995_2014-06-15_12-31-26_094959634447_rgbf000150-resize_1-target.png,1000,3.8360000000000003,5,8292,1000,feet,jsons/v1_VE1000_randls_69_rotated.json,1218808,1466626,42,Man
142,603293,DepthScenes,duration_manipulation_targetAtFixation,jsons/v1_VE1000_randls_69_rotated.json,http://54.235.29.9/FacialAge/BNav_EC2/DepthDuration/v2_depth_duration_MTurk/v2_DepthDuration_HTML.html#55,55,1364,625,1364,768,8-29-2022,14-27-14,143,depth_duration_stimuli/002748_2014-06-22_19-07-22_094959634447_rgbf000078-resize_1/002748_2014-06-22_19-07-22_094959634447_rgbf000078-resize_1-target.png,1000,4.6705,5,2958,991,feet,jsons/v1_VE1000_randls_69_rotated.json,1218808,1466626,42,Man
143,603293,DepthScenes,duration_manipulation_targetAtFixation,jsons/v1_VE1000_randls_69_rotated.json,http://54.235.29.9/FacialAge/BNav_EC2/DepthDuration/v2_depth_duration_MTurk/v2_DepthDuration_HTML.html#55,55,1364,625,1364,768,8-29-2022,14-27-14,144,depth_duration_stimuli/000103_2014-05-14_22-01-17_260595134347_rgbf000152-resize_5/000103_2014-05-14_22-01-17_260595134347_rgbf000152-resize_5-target.png,1000,1.993,5,5999,1000,feet,jsons/v1_VE1000_randls_69_rotated.json,1218808,1466626,42,Man
144,603293,DepthScenes,duration_manipulation_targetAtFixation,jsons/v1_VE1000_randls_69_rotated.json,http://54.235.29.9/FacialAge/BNav_EC2/DepthDuration/v2_depth_duration_MTurk/v2_DepthDuration_HTML.html#55,55,1364,625,1364,768,8-29-2022,14-27-14,145,depth_duration_stimuli/001555_2014-06-20_17-12-10_260595134347_rgbf000065-resize_4/001555_2014-06-20_17-12-10_260595134347_rgbf000065-resize_4-target.png,1000,1.633,5,2932,1001,feet,jsons/v1_VE1000_randls_69_rotated.json,1218808,1466626,42,Man
145,603293,DepthScenes,duration_manipulation_targetAtFixation,jsons/v1_VE1000_randls_69_rotated.json,http://54.235.29.9/FacialAge/BNav_EC2/DepthDuration/v2_depth_duration_MTurk/v2_DepthDuration_HTML.html#55,55,1364,625,1364,768,8-29-2022,14-27-14,146,depth_duration_stimuli/000635_2014-06-08_16-38-42_260595134347_rgbf000106-resize_1/000635_2014-06-08_16-38-42_260595134347_rgbf000106-resize_1-target.png,1000,2.074,5,10897,1011,feet,jsons/v1_VE1000_randls_69_rotated.json,1218808,1466626,42,Man
146,603293,DepthScenes,duration_manipulation_targetAtFixation,jsons/v1_VE1000_randls_69_rotated.json,http://54.235.29.9/FacialAge/BNav_EC2/DepthDuration/v2_depth_duration_MTurk/v2_DepthDuration_HTML.html#55,55,1364,625,1364,768,8-29-2022,14-27-14,147,depth_duration_stimuli/002279_2014-06-28_18-55-32_260595134347_rgbf000040-resize_5/002279_2014-06-28_18-55-32_260595134347_rgbf000040-resize_5-target.png,1000,1.5043333333333,5,2907,997,feet,jsons/v1_VE1000_randls_69_rotated.json,1218808,1466626,42,Man
147,603293,DepthScenes,duration_manipulation_targetAtFixation,jsons/v1_VE1000_randls_69_rotated.json,http://54.235.29.9/FacialAge/BNav_EC2/DepthDuration/v2_depth_duration_MTurk/v2_DepthDuration_HTML.html#55,55,1364,625,1364,768,8-29-2022,14-27-14,148,depth_duration_stimuli/001617_2014-06-20_11-35-32_260595134347_rgbf000066-resize_1/001617_2014-06-20_11-35-32_260595134347_rgbf000066-resize_1-target.png,1000,3.7910000000000004,5,3607,999,feet,jsons/v1_VE1000_randls_69_rotated.json,1218808,1466626,42,Man
148,603293,DepthScenes,duration_manipulation_targetAtFixation,jsons/v1_VE1000_randls_69_rotated.json,http://54.235.29.9/FacialAge/BNav_EC2/DepthDuration/v2_depth_duration_MTurk/v2_DepthDuration_HTML.html#55,55,1364,625,1364,768,8-29-2022,14-27-14,149,depth_duration_stimuli/001806_2014-06-26_20-50-20_260595134347_rgbf000091-resize_1/001806_2014-06-26_20-50-20_260595134347_rgbf000091-resize_1-target.png,1000,2.7305,5,2932,1000,feet,jsons/v1_VE1000_randls_69_rotated.json,1218808,1466626,42,Man
149,603293,DepthScenes,duration_manipulation_targetAtFixation,jsons/v1_VE1000_randls_69_rotated.json,http://54.235.29.9/FacialAge/BNav_EC2/DepthDuration/v2_depth_duration_MTurk/v2_DepthDuration_HTML.html#55,55,1364,625,1364,768,8-29-2022,14-27-14,150,depth_duration_stimuli/002323_2014-06-28_20-01-54_260595134347_rgbf000051-resize_4/002323_2014-06-28_20-01-54_260595134347_rgbf000051-resize_4-target.png,1000,3.7310000000000003,5,4220,998,feet,jsons/v1_VE1000_randls_69_rotated.json,1218808,1466626,42,Man
150,603293,DepthScenes,duration_manipulation_targetAtFixation,jsons/v1_VE1000_randls_69_rotated.json,http://54.235.29.9/FacialAge/BNav_EC2/DepthDuration/v2_depth_duration_MTurk/v2_DepthDuration_HTML.html#55,55,1364,625,1364,768,8-29-2022,14-27-14,151,depth_duration_stimuli/000917_2014-06-09_22-45-29_260595134347_rgbf000149-resize_3/000917_2014-06-09_22-45-29_260595134347_rgbf000149-resize_3-target.png,1000,4.1865,5,6620,998,feet,jsons/v1_VE1000_randls_69_rotated.json,1218808,1466626,42,Man
151,603293,DepthScenes,duration_manipulation_targetAtFixation,jsons/v1_VE1000_randls_69_rotated.json,http://54.235.29.9/FacialAge/BNav_EC2/DepthDuration/v2_depth_duration_MTurk/v2_DepthDuration_HTML.html#55,55,1364,625,1364,768,8-29-2022,14-27-14,152,depth_duration_stimuli/000569_2014-06-09_22-51-47_260595134347_rgbf000141-resize_3/000569_2014-06-09_22-51-47_260595134347_rgbf000141-resize-original.jpg,1000,4.512,0,14726,997,feet,jsons/v1_VE1000_randls_69_rotated.json,1218808,1466626,42,Man
152,603293,DepthScenes,duration_manipulation_targetAtFixation,jsons/v1_VE1000_randls_69_rotated.json,http://54.235.29.9/FacialAge/BNav_EC2/DepthDuration/v2_depth_duration_MTurk/v2_DepthDuration_HTML.html#55,55,1364,625,1364,768,8-29-2022,14-27-14,153,depth_duration_stimuli/001828_2014-06-26_21-40-03_260595134347_rgbf000024-resize_0/001828_2014-06-26_21-40-03_260595134347_rgbf000024-resize_0-target.png,1000,4.8260000000000005,4,8876,1001,feet,jsons/v1_VE1000_randls_69_rotated.json,1218808,1466626,42,Man
153,603293,DepthScenes,duration_manipulation_targetAtFixation,jsons/v1_VE1000_randls_69_rotated.json,http://54.235.29.9/FacialAge/BNav_EC2/DepthDuration/v2_depth_duration_MTurk/v2_DepthDuration_HTML.html#55,55,1364,625,1364,768,8-29-2022,14-27-14,154,depth_duration_stimuli/000009_2014-05-26_14-32-05_260595134347_rgbf000034-resize_3/000009_2014-05-26_14-32-05_260595134347_rgbf000034-resize_3-target.png,1000,3.8715,6,8554,999,feet,jsons/v1_VE1000_randls_69_rotated.json,1218808,1466626,42,Man
154,603293,DepthScenes,duration_manipulation_targetAtFixation,jsons/v1_VE1000_randls_69_rotated.json,http://54.235.29.9/FacialAge/BNav_EC2/DepthDuration/v2_depth_duration_MTurk/v2_DepthDuration_HTML.html#55,55,1364,625,1364,768,8-29-2022,14-27-14,155,depth_duration_stimuli/001815_2014-06-26_20-52-55_260595134347_rgbf000020-resize_0/001815_2014-06-26_20-52-55_260595134347_rgbf000020-resize_0-target.png,1000,3.3865,6,17914,997,feet,jsons/v1_VE1000_randls_69_rotated.json,1218808,1466626,42,Man
155,603293,DepthScenes,duration_manipulation_targetAtFixation,jsons/v1_VE1000_randls_69_rotated.json,http://54.235.29.9/FacialAge/BNav_EC2/DepthDuration/v2_depth_duration_MTurk/v2_DepthDuration_HTML.html#55,55,1364,625,1364,768,8-29-2022,14-27-14,156,depth_duration_stimuli/001808_2014-06-26_20-50-58_260595134347_rgbf000029-resize_1/001808_2014-06-26_20-50-58_260595134347_rgbf000029-resize_1-target.png,1000,4.249,6,4688,998,feet,jsons/v1_VE1000_randls_69_rotated.json,1218808,1466626,42,Man
156,603293,DepthScenes,duration_manipulation_targetAtFixation,jsons/v1_VE1000_randls_69_rotated.json,http://54.235.29.9/FacialAge/BNav_EC2/DepthDuration/v2_depth_duration_MTurk/v2_DepthDuration_HTML.html#55,55,1364,625,1364,768,8-29-2022,14-27-14,157,depth_duration_stimuli/002545_2014-06-24_13-38-53_094959634447_rgbf000080-resize_4/002545_2014-06-24_13-38-53_094959634447_rgbf000080-resize_4-target.png,1000,1.9205,6,8777,1001,feet,jsons/v1_VE1000_randls_69_rotated.json,1218808,1466626,42,Man
157,603293,DepthScenes,duration_manipulation_targetAtFixation,jsons/v1_VE1000_randls_69_rotated.json,http://54.235.29.9/FacialAge/BNav_EC2/DepthDuration/v2_depth_duration_MTurk/v2_DepthDuration_HTML.html#55,55,1364,625,1364,768,8-29-2022,14-27-14,158,depth_duration_stimuli/001092_2014-06-15_17-34-58_260595134347_rgbf000171-resize_3/001092_2014-06-15_17-34-58_260595134347_rgbf000171-resize_3-target.png,1000,2.6935,6,4535,987,feet,jsons/v1_VE1000_randls_69_rotated.json,1218808,1466626,42,Man
158,603293,DepthScenes,duration_manipulation_targetAtFixation,jsons/v1_VE1000_randls_69_rotated.json,http://54.235.29.9/FacialAge/BNav_EC2/DepthDuration/v2_depth_duration_MTurk/v2_DepthDuration_HTML.html#55,55,1364,625,1364,768,8-29-2022,14-27-14,159,depth_duration_stimuli/002875_2014-06-01_15-19-00_094959634447_rgbf000151-resize_1/002875_2014-06-01_15-19-00_094959634447_rgbf000151-resize_1-target.png,1000,1.9675,6,15700,998,feet,jsons/v1_VE1000_randls_69_rotated.json,1218808,1466626,42,Man
159,603293,DepthScenes,duration_manipulation_targetAtFixation,jsons/v1_VE1000_randls_69_rotated.json,http://54.235.29.9/FacialAge/BNav_EC2/DepthDuration/v2_depth_duration_MTurk/v2_DepthDuration_HTML.html#55,55,1364,625,1364,768,8-29-2022,14-27-14,160,depth_duration_stimuli/001011_2014-06-08_23-18-54_260595134347_rgbf000044-resize_4/001011_2014-06-08_23-18-54_260595134347_rgbf000044-resize_4-target.png,1000,2.4730000000000003,6,6611,997,feet,jsons/v1_VE1000_randls_69_rotated.json,1218808,1466626,42,Man
160,603293,DepthScenes,duration_manipulation_targetAtFixation,jsons/v1_VE1000_randls_69_rotated.json,http://54.235.29.9/FacialAge/BNav_EC2/DepthDuration/v2_depth_duration_MTurk/v2_DepthDuration_HTML.html#55,55,1364,625,1364,768,8-29-2022,14-27-14,161,depth_duration_stimuli/002750_2014-06-22_19-08-03_094959634447_rgbf000094-resize_4/002750_2014-06-22_19-08-03_094959634447_rgbf000094-resize_4-target.png,1000,2.354,6,8001,980,feet,jsons/v1_VE1000_randls_69_rotated.json,1218808,1466626,42,Man
161,603293,DepthScenes,duration_manipulation_targetAtFixation,jsons/v1_VE1000_randls_69_rotated.json,http://54.235.29.9/FacialAge/BNav_EC2/DepthDuration/v2_depth_duration_MTurk/v2_DepthDuration_HTML.html#55,55,1364,625,1364,768,8-29-2022,14-27-14,162,depth_duration_stimuli/002549_2014-06-24_13-41-39_094959634447_rgbf000022-resize_3/002549_2014-06-24_13-41-39_094959634447_rgbf000022-resize_3-target.png,1000,1.476,5,3664,997,feet,jsons/v1_VE1000_randls_69_rotated.json,1218808,1466626,42,Man
162,603293,DepthScenes,duration_manipulation_targetAtFixation,jsons/v1_VE1000_randls_69_rotated.json,http://54.235.29.9/FacialAge/BNav_EC2/DepthDuration/v2_depth_duration_MTurk/v2_DepthDuration_HTML.html#55,55,1364,625,1364,768,8-29-2022,14-27-14,163,depth_duration_stimuli/002953_2014-06-08_17-32-18_094959634447_rgbf000059-resize_5/002953_2014-06-08_17-32-18_094959634447_rgbf000059-resize_5-target.png,1000,1.551,5,11897,994,feet,jsons/v1_VE1000_randls_69_rotated.json,1218808,1466626,42,Man
163,603293,DepthScenes,duration_manipulation_targetAtFixation,jsons/v1_VE1000_randls_69_rotated.json,http://54.235.29.9/FacialAge/BNav_EC2/DepthDuration/v2_depth_duration_MTurk/v2_DepthDuration_HTML.html#55,55,1364,625,1364,768,8-29-2022,14-27-14,164,depth_duration_stimuli/000878_2014-06-08_22-52-45_260595134347_rgbf000045-resize_2/000878_2014-06-08_22-52-45_260595134347_rgbf000045-resize_2-target.png,1000,2.092,4,4690,999,feet,jsons/v1_VE1000_randls_69_rotated.json,1218808,1466626,42,Man
