,subjID,experimentName,versionName,sequenceName,url,selected_row,windowWidth,windowHeight,screenWidth,screenHeight,startDate,startTime,trial,stimulus,duration,actual_depth,depth_estimate,trial_RT,log_sceneDuration,unitSelection,seq_filepath,experimentTime,totalTime,age,gender
0,603376,DepthScenes,duration_manipulation_targetAtFixation,jsons/v1_VE250_randls_69.json,http://54.235.29.9/FacialAge/BNav_EC2/DepthDuration/v2_depth_duration_MTurk/v2_DepthDuration_HTML.html#144,144,1364,657,1364,768,9-4-2022,10-40-43,1,depth_duration_stimuli/000878_2014-06-08_22-52-45_260595134347_rgbf000045-resize_2/000878_2014-06-08_22-52-45_260595134347_rgbf000045-resize_2-target.png,250,2.092,4,7675,249,meters,jsons/v1_VE250_randls_69.json,1553859,2219509,26,Man
1,603376,DepthScenes,duration_manipulation_targetAtFixation,jsons/v1_VE250_randls_69.json,http://54.235.29.9/FacialAge/BNav_EC2/DepthDuration/v2_depth_duration_MTurk/v2_DepthDuration_HTML.html#144,144,1364,657,1364,768,9-4-2022,10-40-43,2,depth_duration_stimuli/002953_2014-06-08_17-32-18_094959634447_rgbf000059-resize_5/002953_2014-06-08_17-32-18_094959634447_rgbf000059-resize_5-target.png,250,1.551,4,6130,252,meters,jsons/v1_VE250_randls_69.json,1553859,2219509,26,Man
2,603376,DepthScenes,duration_manipulation_targetAtFixation,jsons/v1_VE250_randls_69.json,http://54.235.29.9/FacialAge/BNav_EC2/DepthDuration/v2_depth_duration_MTurk/v2_DepthDuration_HTML.html#144,144,1364,657,1364,768,9-4-2022,10-40-43,3,depth_duration_stimuli/002549_2014-06-24_13-41-39_094959634447_rgbf000022-resize_3/002549_2014-06-24_13-41-39_094959634447_rgbf000022-resize_3-target.png,250,1.476,4,5188,262,meters,jsons/v1_VE250_randls_69.json,1553859,2219509,26,Man
3,603376,DepthScenes,duration_manipulation_targetAtFixation,jsons/v1_VE250_randls_69.json,http://54.235.29.9/FacialAge/BNav_EC2/DepthDuration/v2_depth_duration_MTurk/v2_DepthDuration_HTML.html#144,144,1364,657,1364,768,9-4-2022,10-40-43,4,depth_duration_stimuli/002750_2014-06-22_19-08-03_094959634447_rgbf000094-resize_4/002750_2014-06-22_19-08-03_094959634447_rgbf000094-resize_4-target.png,250,2.354,2,5817,238,meters,jsons/v1_VE250_randls_69.json,1553859,2219509,26,Man
4,603376,DepthScenes,duration_manipulation_targetAtFixation,jsons/v1_VE250_randls_69.json,http://54.235.29.9/FacialAge/BNav_EC2/DepthDuration/v2_depth_duration_MTurk/v2_DepthDuration_HTML.html#144,144,1364,657,1364,768,9-4-2022,10-40-43,5,depth_duration_stimuli/001011_2014-06-08_23-18-54_260595134347_rgbf000044-resize_4/001011_2014-06-08_23-18-54_260595134347_rgbf000044-resize_4-target.png,250,2.4730000000000003,3,8365,243,meters,jsons/v1_VE250_randls_69.json,1553859,2219509,26,Man
5,603376,DepthScenes,duration_manipulation_targetAtFixation,jsons/v1_VE250_randls_69.json,http://54.235.29.9/FacialAge/BNav_EC2/DepthDuration/v2_depth_duration_MTurk/v2_DepthDuration_HTML.html#144,144,1364,657,1364,768,9-4-2022,10-40-43,6,depth_duration_stimuli/002875_2014-06-01_15-19-00_094959634447_rgbf000151-resize_1/002875_2014-06-01_15-19-00_094959634447_rgbf000151-resize_1-target.png,250,1.9675,2,8289,250,meters,jsons/v1_VE250_randls_69.json,1553859,2219509,26,Man
6,603376,DepthScenes,duration_manipulation_targetAtFixation,jsons/v1_VE250_randls_69.json,http://54.235.29.9/FacialAge/BNav_EC2/DepthDuration/v2_depth_duration_MTurk/v2_DepthDuration_HTML.html#144,144,1364,657,1364,768,9-4-2022,10-40-43,7,depth_duration_stimuli/001092_2014-06-15_17-34-58_260595134347_rgbf000171-resize_3/001092_2014-06-15_17-34-58_260595134347_rgbf000171-resize_3-target.png,250,2.6935,2,6525,246,meters,jsons/v1_VE250_randls_69.json,1553859,2219509,26,Man
7,603376,DepthScenes,duration_manipulation_targetAtFixation,jsons/v1_VE250_randls_69.json,http://54.235.29.9/FacialAge/BNav_EC2/DepthDuration/v2_depth_duration_MTurk/v2_DepthDuration_HTML.html#144,144,1364,657,1364,768,9-4-2022,10-40-43,8,depth_duration_stimuli/002545_2014-06-24_13-38-53_094959634447_rgbf000080-resize_4/002545_2014-06-24_13-38-53_094959634447_rgbf000080-resize_4-target.png,250,1.9205,4,7702,196,meters,jsons/v1_VE250_randls_69.json,1553859,2219509,26,Man
8,603376,DepthScenes,duration_manipulation_targetAtFixation,jsons/v1_VE250_randls_69.json,http://54.235.29.9/FacialAge/BNav_EC2/DepthDuration/v2_depth_duration_MTurk/v2_DepthDuration_HTML.html#144,144,1364,657,1364,768,9-4-2022,10-40-43,9,depth_duration_stimuli/001808_2014-06-26_20-50-58_260595134347_rgbf000029-resize_1/001808_2014-06-26_20-50-58_260595134347_rgbf000029-resize_1-target.png,250,4.249,5,10549,245,meters,jsons/v1_VE250_randls_69.json,1553859,2219509,26,Man
9,603376,DepthScenes,duration_manipulation_targetAtFixation,jsons/v1_VE250_randls_69.json,http://54.235.29.9/FacialAge/BNav_EC2/DepthDuration/v2_depth_duration_MTurk/v2_DepthDuration_HTML.html#144,144,1364,657,1364,768,9-4-2022,10-40-43,10,depth_duration_stimuli/001815_2014-06-26_20-52-55_260595134347_rgbf000020-resize_0/001815_2014-06-26_20-52-55_260595134347_rgbf000020-resize_0-target.png,250,3.3865,6,6072,265,meters,jsons/v1_VE250_randls_69.json,1553859,2219509,26,Man
10,603376,DepthScenes,duration_manipulation_targetAtFixation,jsons/v1_VE250_randls_69.json,http://54.235.29.9/FacialAge/BNav_EC2/DepthDuration/v2_depth_duration_MTurk/v2_DepthDuration_HTML.html#144,144,1364,657,1364,768,9-4-2022,10-40-43,11,depth_duration_stimuli/000009_2014-05-26_14-32-05_260595134347_rgbf000034-resize_3/000009_2014-05-26_14-32-05_260595134347_rgbf000034-resize_3-target.png,250,3.8715,6,8478,244,meters,jsons/v1_VE250_randls_69.json,1553859,2219509,26,Man
11,603376,DepthScenes,duration_manipulation_targetAtFixation,jsons/v1_VE250_randls_69.json,http://54.235.29.9/FacialAge/BNav_EC2/DepthDuration/v2_depth_duration_MTurk/v2_DepthDuration_HTML.html#144,144,1364,657,1364,768,9-4-2022,10-40-43,12,depth_duration_stimuli/001828_2014-06-26_21-40-03_260595134347_rgbf000024-resize_0/001828_2014-06-26_21-40-03_260595134347_rgbf000024-resize_0-target.png,250,4.8260000000000005,7,7674,242,meters,jsons/v1_VE250_randls_69.json,1553859,2219509,26,Man
12,603376,DepthScenes,duration_manipulation_targetAtFixation,jsons/v1_VE250_randls_69.json,http://54.235.29.9/FacialAge/BNav_EC2/DepthDuration/v2_depth_duration_MTurk/v2_DepthDuration_HTML.html#144,144,1364,657,1364,768,9-4-2022,10-40-43,13,depth_duration_stimuli/000569_2014-06-09_22-51-47_260595134347_rgbf000141-resize_3/000569_2014-06-09_22-51-47_260595134347_rgbf000141-resize-original.jpg,250,4.512,6,9820,253,meters,jsons/v1_VE250_randls_69.json,1553859,2219509,26,Man
13,603376,DepthScenes,duration_manipulation_targetAtFixation,jsons/v1_VE250_randls_69.json,http://54.235.29.9/FacialAge/BNav_EC2/DepthDuration/v2_depth_duration_MTurk/v2_DepthDuration_HTML.html#144,144,1364,657,1364,768,9-4-2022,10-40-43,14,depth_duration_stimuli/000917_2014-06-09_22-45-29_260595134347_rgbf000149-resize_3/000917_2014-06-09_22-45-29_260595134347_rgbf000149-resize_3-target.png,250,4.1865,7,8592,254,meters,jsons/v1_VE250_randls_69.json,1553859,2219509,26,Man
14,603376,DepthScenes,duration_manipulation_targetAtFixation,jsons/v1_VE250_randls_69.json,http://54.235.29.9/FacialAge/BNav_EC2/DepthDuration/v2_depth_duration_MTurk/v2_DepthDuration_HTML.html#144,144,1364,657,1364,768,9-4-2022,10-40-43,15,depth_duration_stimuli/002323_2014-06-28_20-01-54_260595134347_rgbf000051-resize_4/002323_2014-06-28_20-01-54_260595134347_rgbf000051-resize_4-target.png,250,3.7310000000000003,4,7450,250,meters,jsons/v1_VE250_randls_69.json,1553859,2219509,26,Man
15,603376,DepthScenes,duration_manipulation_targetAtFixation,jsons/v1_VE250_randls_69.json,http://54.235.29.9/FacialAge/BNav_EC2/DepthDuration/v2_depth_duration_MTurk/v2_DepthDuration_HTML.html#144,144,1364,657,1364,768,9-4-2022,10-40-43,16,depth_duration_stimuli/001806_2014-06-26_20-50-20_260595134347_rgbf000091-resize_1/001806_2014-06-26_20-50-20_260595134347_rgbf000091-resize_1-target.png,250,2.7305,5,7042,238,meters,jsons/v1_VE250_randls_69.json,1553859,2219509,26,Man
16,603376,DepthScenes,duration_manipulation_targetAtFixation,jsons/v1_VE250_randls_69.json,http://54.235.29.9/FacialAge/BNav_EC2/DepthDuration/v2_depth_duration_MTurk/v2_DepthDuration_HTML.html#144,144,1364,657,1364,768,9-4-2022,10-40-43,17,depth_duration_stimuli/001617_2014-06-20_11-35-32_260595134347_rgbf000066-resize_1/001617_2014-06-20_11-35-32_260595134347_rgbf000066-resize_1-target.png,250,3.7910000000000004,4,6631,244,meters,jsons/v1_VE250_randls_69.json,1553859,2219509,26,Man
17,603376,DepthScenes,duration_manipulation_targetAtFixation,jsons/v1_VE250_randls_69.json,http://54.235.29.9/FacialAge/BNav_EC2/DepthDuration/v2_depth_duration_MTurk/v2_DepthDuration_HTML.html#144,144,1364,657,1364,768,9-4-2022,10-40-43,18,depth_duration_stimuli/002279_2014-06-28_18-55-32_260595134347_rgbf000040-resize_5/002279_2014-06-28_18-55-32_260595134347_rgbf000040-resize_5-target.png,250,1.5043333333333,3,10322,246,meters,jsons/v1_VE250_randls_69.json,1553859,2219509,26,Man
18,603376,DepthScenes,duration_manipulation_targetAtFixation,jsons/v1_VE250_randls_69.json,http://54.235.29.9/FacialAge/BNav_EC2/DepthDuration/v2_depth_duration_MTurk/v2_DepthDuration_HTML.html#144,144,1364,657,1364,768,9-4-2022,10-40-43,19,depth_duration_stimuli/000635_2014-06-08_16-38-42_260595134347_rgbf000106-resize_1/000635_2014-06-08_16-38-42_260595134347_rgbf000106-resize_1-target.png,250,2.074,4,6547,240,meters,jsons/v1_VE250_randls_69.json,1553859,2219509,26,Man
19,603376,DepthScenes,duration_manipulation_targetAtFixation,jsons/v1_VE250_randls_69.json,http://54.235.29.9/FacialAge/BNav_EC2/DepthDuration/v2_depth_duration_MTurk/v2_DepthDuration_HTML.html#144,144,1364,657,1364,768,9-4-2022,10-40-43,20,depth_duration_stimuli/001555_2014-06-20_17-12-10_260595134347_rgbf000065-resize_4/001555_2014-06-20_17-12-10_260595134347_rgbf000065-resize_4-target.png,250,1.633,6,7494,247,meters,jsons/v1_VE250_randls_69.json,1553859,2219509,26,Man
20,603376,DepthScenes,duration_manipulation_targetAtFixation,jsons/v1_VE250_randls_69.json,http://54.235.29.9/FacialAge/BNav_EC2/DepthDuration/v2_depth_duration_MTurk/v2_DepthDuration_HTML.html#144,144,1364,657,1364,768,9-4-2022,10-40-43,21,depth_duration_stimuli/000103_2014-05-14_22-01-17_260595134347_rgbf000152-resize_5/000103_2014-05-14_22-01-17_260595134347_rgbf000152-resize_5-target.png,250,1.993,7,8127,248,meters,jsons/v1_VE250_randls_69.json,1553859,2219509,26,Man
21,603376,DepthScenes,duration_manipulation_targetAtFixation,jsons/v1_VE250_randls_69.json,http://54.235.29.9/FacialAge/BNav_EC2/DepthDuration/v2_depth_duration_MTurk/v2_DepthDuration_HTML.html#144,144,1364,657,1364,768,9-4-2022,10-40-43,22,depth_duration_stimuli/002748_2014-06-22_19-07-22_094959634447_rgbf000078-resize_1/002748_2014-06-22_19-07-22_094959634447_rgbf000078-resize_1-target.png,250,4.6705,8,7804,248,meters,jsons/v1_VE250_randls_69.json,1553859,2219509,26,Man
22,603376,DepthScenes,duration_manipulation_targetAtFixation,jsons/v1_VE250_randls_69.json,http://54.235.29.9/FacialAge/BNav_EC2/DepthDuration/v2_depth_duration_MTurk/v2_DepthDuration_HTML.html#144,144,1364,657,1364,768,9-4-2022,10-40-43,23,depth_duration_stimuli/002995_2014-06-15_12-31-26_094959634447_rgbf000150-resize_1/002995_2014-06-15_12-31-26_094959634447_rgbf000150-resize_1-target.png,250,3.8360000000000003,6,7444,242,meters,jsons/v1_VE250_randls_69.json,1553859,2219509,26,Man
23,603376,DepthScenes,duration_manipulation_targetAtFixation,jsons/v1_VE250_randls_69.json,http://54.235.29.9/FacialAge/BNav_EC2/DepthDuration/v2_depth_duration_MTurk/v2_DepthDuration_HTML.html#144,144,1364,657,1364,768,9-4-2022,10-40-43,24,depth_duration_stimuli/002118_2014-06-25_20-32-08_260595134347_rgbf000078-resize_1/002118_2014-06-25_20-32-08_260595134347_rgbf000078-resize_1-target.png,250,2.6460000000000004,9,7005,248,meters,jsons/v1_VE250_randls_69.json,1553859,2219509,26,Man
24,603376,DepthScenes,duration_manipulation_targetAtFixation,jsons/v1_VE250_randls_69.json,http://54.235.29.9/FacialAge/BNav_EC2/DepthDuration/v2_depth_duration_MTurk/v2_DepthDuration_HTML.html#144,144,1364,657,1364,768,9-4-2022,10-40-43,25,depth_duration_stimuli/001516_2014-06-20_16-25-09_260595134347_rgbf000076-resize_2/001516_2014-06-20_16-25-09_260595134347_rgbf000076-resize_2-target.png,250,1.7445,5,7011,248,meters,jsons/v1_VE250_randls_69.json,1553859,2219509,26,Man
25,603376,DepthScenes,duration_manipulation_targetAtFixation,jsons/v1_VE250_randls_69.json,http://54.235.29.9/FacialAge/BNav_EC2/DepthDuration/v2_depth_duration_MTurk/v2_DepthDuration_HTML.html#144,144,1364,657,1364,768,9-4-2022,10-40-43,26,depth_duration_stimuli/001110_2014-06-15_17-25-28_260595134347_rgbf000150-resize_1/001110_2014-06-15_17-25-28_260595134347_rgbf000150-resize_1-target.png,250,1.7115,5,6942,298,meters,jsons/v1_VE250_randls_69.json,1553859,2219509,26,Man
26,603376,DepthScenes,duration_manipulation_targetAtFixation,jsons/v1_VE250_randls_69.json,http://54.235.29.9/FacialAge/BNav_EC2/DepthDuration/v2_depth_duration_MTurk/v2_DepthDuration_HTML.html#144,144,1364,657,1364,768,9-4-2022,10-40-43,27,depth_duration_stimuli/000927_2014-06-09_16-32-30_260595134347_rgbf000123-resize_3/000927_2014-06-09_16-32-30_260595134347_rgbf000123-resize_3-target.png,250,2.6785,2,10718,294,meters,jsons/v1_VE250_randls_69.json,1553859,2219509,26,Man
27,603376,DepthScenes,duration_manipulation_targetAtFixation,jsons/v1_VE250_randls_69.json,http://54.235.29.9/FacialAge/BNav_EC2/DepthDuration/v2_depth_duration_MTurk/v2_DepthDuration_HTML.html#144,144,1364,657,1364,768,9-4-2022,10-40-43,28,depth_duration_stimuli/002153_2014-06-25_21-27-18_260595134347_rgbf000038-resize_5/002153_2014-06-25_21-27-18_260595134347_rgbf000038-resize_5-target.png,250,2.505,4,6776,248,meters,jsons/v1_VE250_randls_69.json,1553859,2219509,26,Man
28,603376,DepthScenes,duration_manipulation_targetAtFixation,jsons/v1_VE250_randls_69.json,http://54.235.29.9/FacialAge/BNav_EC2/DepthDuration/v2_depth_duration_MTurk/v2_DepthDuration_HTML.html#144,144,1364,657,1364,768,9-4-2022,10-40-43,29,depth_duration_stimuli/002660_2014-06-13_15-44-18_094959634447_rgbf001878-resize_2/002660_2014-06-13_15-44-18_094959634447_rgbf001878-resize_2-target.png,250,3.576,3,7061,252,meters,jsons/v1_VE250_randls_69.json,1553859,2219509,26,Man
29,603376,DepthScenes,duration_manipulation_targetAtFixation,jsons/v1_VE250_randls_69.json,http://54.235.29.9/FacialAge/BNav_EC2/DepthDuration/v2_depth_duration_MTurk/v2_DepthDuration_HTML.html#144,144,1364,657,1364,768,9-4-2022,10-40-43,30,depth_duration_stimuli/000375_2014-06-08_11-17-29_260595134347_rgbf000133-resize_2/000375_2014-06-08_11-17-29_260595134347_rgbf000133-resize-original.jpg,250,4.718,2,6749,225,meters,jsons/v1_VE250_randls_69.json,1553859,2219509,26,Man
30,603376,DepthScenes,duration_manipulation_targetAtFixation,jsons/v1_VE250_randls_69.json,http://54.235.29.9/FacialAge/BNav_EC2/DepthDuration/v2_depth_duration_MTurk/v2_DepthDuration_HTML.html#144,144,1364,657,1364,768,9-4-2022,10-40-43,31,depth_duration_stimuli/002964_2014-06-08_17-46-11_094959634447_rgbf000091-resize_4/002964_2014-06-08_17-46-11_094959634447_rgbf000091-resize_4-target.png,250,1.6909999999999998,4,5514,257,meters,jsons/v1_VE250_randls_69.json,1553859,2219509,26,Man
31,603376,DepthScenes,duration_manipulation_targetAtFixation,jsons/v1_VE250_randls_69.json,http://54.235.29.9/FacialAge/BNav_EC2/DepthDuration/v2_depth_duration_MTurk/v2_DepthDuration_HTML.html#144,144,1364,657,1364,768,9-4-2022,10-40-43,32,depth_duration_stimuli/002136_2014-06-25_21-18-03_260595134347_rgbf000109-resize_3/002136_2014-06-25_21-18-03_260595134347_rgbf000109-resize_3-target.png,250,1.9569999999999999,3,6066,250,meters,jsons/v1_VE250_randls_69.json,1553859,2219509,26,Man
32,603376,DepthScenes,duration_manipulation_targetAtFixation,jsons/v1_VE250_randls_69.json,http://54.235.29.9/FacialAge/BNav_EC2/DepthDuration/v2_depth_duration_MTurk/v2_DepthDuration_HTML.html#144,144,1364,657,1364,768,9-4-2022,10-40-43,33,depth_duration_stimuli/001244_2014-06-17_16-47-45_260595134347_rgbf000030-resize_4/001244_2014-06-17_16-47-45_260595134347_rgbf000030-resize_4-target.png,250,2.0425,5,11907,244,meters,jsons/v1_VE250_randls_69.json,1553859,2219509,26,Man
33,603376,DepthScenes,duration_manipulation_targetAtFixation,jsons/v1_VE250_randls_69.json,http://54.235.29.9/FacialAge/BNav_EC2/DepthDuration/v2_depth_duration_MTurk/v2_DepthDuration_HTML.html#144,144,1364,657,1364,768,9-4-2022,10-40-43,34,depth_duration_stimuli/003495_2014-05-21_16-01-51_094959634447_rgbf000100-resize_3/003495_2014-05-21_16-01-51_094959634447_rgbf000100-resize_3-target.png,250,1.6255,2,6207,250,meters,jsons/v1_VE250_randls_69.json,1553859,2219509,26,Man
34,603376,DepthScenes,duration_manipulation_targetAtFixation,jsons/v1_VE250_randls_69.json,http://54.235.29.9/FacialAge/BNav_EC2/DepthDuration/v2_depth_duration_MTurk/v2_DepthDuration_HTML.html#144,144,1364,657,1364,768,9-4-2022,10-40-43,35,depth_duration_stimuli/002988_2014-06-15_12-24-20_094959634447_rgbf000150-resize_1/002988_2014-06-15_12-24-20_094959634447_rgbf000150-resize_1-target.png,250,4.7669999999999995,4,13290,235,meters,jsons/v1_VE250_randls_69.json,1553859,2219509,26,Man
35,603376,DepthScenes,duration_manipulation_targetAtFixation,jsons/v1_VE250_randls_69.json,http://54.235.29.9/FacialAge/BNav_EC2/DepthDuration/v2_depth_duration_MTurk/v2_DepthDuration_HTML.html#144,144,1364,657,1364,768,9-4-2022,10-40-43,36,depth_duration_stimuli/001052_2014-06-08_18-24-54_260595134347_rgbf000130-resize_1/001052_2014-06-08_18-24-54_260595134347_rgbf000130-resize_1-target.png,250,4.1045,2,8046,214,meters,jsons/v1_VE250_randls_69.json,1553859,2219509,26,Man
36,603376,DepthScenes,duration_manipulation_targetAtFixation,jsons/v1_VE250_randls_69.json,http://54.235.29.9/FacialAge/BNav_EC2/DepthDuration/v2_depth_duration_MTurk/v2_DepthDuration_HTML.html#144,144,1364,657,1364,768,9-4-2022,10-40-43,37,depth_duration_stimuli/002989_2014-06-15_12-25-03_094959634447_rgbf000150-resize_3/002989_2014-06-15_12-25-03_094959634447_rgbf000150-resize_3-target.png,250,4.1975,5,9000,242,meters,jsons/v1_VE250_randls_69.json,1553859,2219509,26,Man
37,603376,DepthScenes,duration_manipulation_targetAtFixation,jsons/v1_VE250_randls_69.json,http://54.235.29.9/FacialAge/BNav_EC2/DepthDuration/v2_depth_duration_MTurk/v2_DepthDuration_HTML.html#144,144,1364,657,1364,768,9-4-2022,10-40-43,38,depth_duration_stimuli/000866_2014-06-09_20-45-42_260595134347_rgbf000139-resize_1/000866_2014-06-09_20-45-42_260595134347_rgbf000139-resize_1-target.png,250,3.2155,3,8837,236,meters,jsons/v1_VE250_randls_69.json,1553859,2219509,26,Man
38,603376,DepthScenes,duration_manipulation_targetAtFixation,jsons/v1_VE250_randls_69.json,http://54.235.29.9/FacialAge/BNav_EC2/DepthDuration/v2_depth_duration_MTurk/v2_DepthDuration_HTML.html#144,144,1364,657,1364,768,9-4-2022,10-40-43,39,depth_duration_stimuli/002272_2014-06-28_18-53-56_260595134347_rgbf000067-resize_2/002272_2014-06-28_18-53-56_260595134347_rgbf000067-resize_2-target.png,250,1.138,4,6269,251,meters,jsons/v1_VE250_randls_69.json,1553859,2219509,26,Man
39,603376,DepthScenes,duration_manipulation_targetAtFixation,jsons/v1_VE250_randls_69.json,http://54.235.29.9/FacialAge/BNav_EC2/DepthDuration/v2_depth_duration_MTurk/v2_DepthDuration_HTML.html#144,144,1364,657,1364,768,9-4-2022,10-40-43,40,depth_duration_stimuli/001571_2014-06-20_17-21-32_260595134347_rgbf000089-resize_1/001571_2014-06-20_17-21-32_260595134347_rgbf000089-resize_1-target.png,250,1.86,4,30069,249,meters,jsons/v1_VE250_randls_69.json,1553859,2219509,26,Man
40,603376,DepthScenes,duration_manipulation_targetAtFixation,jsons/v1_VE250_randls_69.json,http://54.235.29.9/FacialAge/BNav_EC2/DepthDuration/v2_depth_duration_MTurk/v2_DepthDuration_HTML.html#144,144,1364,657,1364,768,9-4-2022,10-40-43,41,depth_duration_stimuli/000906_2014-06-08_13-35-43_260595134347_rgbf000155-resize_1/000906_2014-06-08_13-35-43_260595134347_rgbf000155-resize_1-target.png,250,2.8489999999999998,1,7892,243,meters,jsons/v1_VE250_randls_69.json,1553859,2219509,26,Man
41,603376,DepthScenes,duration_manipulation_targetAtFixation,jsons/v1_VE250_randls_69.json,http://54.235.29.9/FacialAge/BNav_EC2/DepthDuration/v2_depth_duration_MTurk/v2_DepthDuration_HTML.html#144,144,1364,657,1364,768,9-4-2022,10-40-43,42,depth_duration_stimuli/002805_2014-06-22_19-54-03_094959634447_rgbf000079-resize_1/002805_2014-06-22_19-54-03_094959634447_rgbf000079-resize_1-target.png,250,3.1439999999999997,2,5374,263,meters,jsons/v1_VE250_randls_69.json,1553859,2219509,26,Man
42,603376,DepthScenes,duration_manipulation_targetAtFixation,jsons/v1_VE250_randls_69.json,http://54.235.29.9/FacialAge/BNav_EC2/DepthDuration/v2_depth_duration_MTurk/v2_DepthDuration_HTML.html#144,144,1364,657,1364,768,9-4-2022,10-40-43,43,depth_duration_stimuli/000486_2014-06-09_20-47-20_260595134347_rgbf000143-resize_2/000486_2014-06-09_20-47-20_260595134347_rgbf000143-resize_2-target.png,250,4.8325,3,8010,249,meters,jsons/v1_VE250_randls_69.json,1553859,2219509,26,Man
43,603376,DepthScenes,duration_manipulation_targetAtFixation,jsons/v1_VE250_randls_69.json,http://54.235.29.9/FacialAge/BNav_EC2/DepthDuration/v2_depth_duration_MTurk/v2_DepthDuration_HTML.html#144,144,1364,657,1364,768,9-4-2022,10-40-43,44,depth_duration_stimuli/003083_2014-06-15_15-21-03_094959634447_rgbf000063-resize_1/003083_2014-06-15_15-21-03_094959634447_rgbf000063-resize_1-target.png,250,4.1405,2,34196,249,meters,jsons/v1_VE250_randls_69.json,1553859,2219509,26,Man
44,603376,DepthScenes,duration_manipulation_targetAtFixation,jsons/v1_VE250_randls_69.json,http://54.235.29.9/FacialAge/BNav_EC2/DepthDuration/v2_depth_duration_MTurk/v2_DepthDuration_HTML.html#144,144,1364,657,1364,768,9-4-2022,10-40-43,45,depth_duration_stimuli/000787_2014-06-08_22-33-53_260595134347_rgbf000175-resize_1/000787_2014-06-08_22-33-53_260595134347_rgbf000175-resize-original.jpg,250,4.784,1,6547,238,meters,jsons/v1_VE250_randls_69.json,1553859,2219509,26,Man
45,603376,DepthScenes,duration_manipulation_targetAtFixation,jsons/v1_VE250_randls_69.json,http://54.235.29.9/FacialAge/BNav_EC2/DepthDuration/v2_depth_duration_MTurk/v2_DepthDuration_HTML.html#144,144,1364,657,1364,768,9-4-2022,10-40-43,46,depth_duration_stimuli/002630_2014-06-24_14-47-50_094959634447_rgbf000055-resize_1/002630_2014-06-24_14-47-50_094959634447_rgbf000055-resize_1-target.png,250,3.0095,2,7405,249,meters,jsons/v1_VE250_randls_69.json,1553859,2219509,26,Man
46,603376,DepthScenes,duration_manipulation_targetAtFixation,jsons/v1_VE250_randls_69.json,http://54.235.29.9/FacialAge/BNav_EC2/DepthDuration/v2_depth_duration_MTurk/v2_DepthDuration_HTML.html#144,144,1364,657,1364,768,9-4-2022,10-40-43,47,depth_duration_stimuli/002758_2014-06-22_19-11-20_094959634447_rgbf000128-resize_1/002758_2014-06-22_19-11-20_094959634447_rgbf000128-resize_1-target.png,250,2.555,3,7698,252,meters,jsons/v1_VE250_randls_69.json,1553859,2219509,26,Man
47,603376,DepthScenes,duration_manipulation_targetAtFixation,jsons/v1_VE250_randls_69.json,http://54.235.29.9/FacialAge/BNav_EC2/DepthDuration/v2_depth_duration_MTurk/v2_DepthDuration_HTML.html#144,144,1364,657,1364,768,9-4-2022,10-40-43,48,depth_duration_stimuli/000692_2014-06-08_13-09-42_260595134347_rgbf000199-resize_2/000692_2014-06-08_13-09-42_260595134347_rgbf000199-resize_2-target.png,250,3.661,2,6265,254,meters,jsons/v1_VE250_randls_69.json,1553859,2219509,26,Man
48,603376,DepthScenes,duration_manipulation_targetAtFixation,jsons/v1_VE250_randls_69.json,http://54.235.29.9/FacialAge/BNav_EC2/DepthDuration/v2_depth_duration_MTurk/v2_DepthDuration_HTML.html#144,144,1364,657,1364,768,9-4-2022,10-40-43,49,depth_duration_stimuli/001094_2014-06-15_17-36-00_260595134347_rgbf000205-resize_0/001094_2014-06-15_17-36-00_260595134347_rgbf000205-resize_0-target.png,250,4.2175,2,9578,247,meters,jsons/v1_VE250_randls_69.json,1553859,2219509,26,Man
49,603376,DepthScenes,duration_manipulation_targetAtFixation,jsons/v1_VE250_randls_69.json,http://54.235.29.9/FacialAge/BNav_EC2/DepthDuration/v2_depth_duration_MTurk/v2_DepthDuration_HTML.html#144,144,1364,657,1364,768,9-4-2022,10-40-43,50,depth_duration_stimuli/002784_2014-06-22_19-26-30_094959634447_rgbf000083-resize_3/002784_2014-06-22_19-26-30_094959634447_rgbf000083-resize_3-target.png,250,1.8046666666667,3,8326,290,meters,jsons/v1_VE250_randls_69.json,1553859,2219509,26,Man
50,603376,DepthScenes,duration_manipulation_targetAtFixation,jsons/v1_VE250_randls_69.json,http://54.235.29.9/FacialAge/BNav_EC2/DepthDuration/v2_depth_duration_MTurk/v2_DepthDuration_HTML.html#144,144,1364,657,1364,768,9-4-2022,10-40-43,51,depth_duration_stimuli/001100_2014-06-15_17-46-26_260595134347_rgbf000225-resize_2/001100_2014-06-15_17-46-26_260595134347_rgbf000225-resize_2-target.png,250,2.24,4,6916,249,meters,jsons/v1_VE250_randls_69.json,1553859,2219509,26,Man
51,603376,DepthScenes,duration_manipulation_targetAtFixation,jsons/v1_VE250_randls_69.json,http://54.235.29.9/FacialAge/BNav_EC2/DepthDuration/v2_depth_duration_MTurk/v2_DepthDuration_HTML.html#144,144,1364,657,1364,768,9-4-2022,10-40-43,52,depth_duration_stimuli/002570_2014-06-24_13-59-54_094959634447_rgbf000059-resize_0/002570_2014-06-24_13-59-54_094959634447_rgbf000059-resize_0-target.png,250,4.037,2,5735,249,meters,jsons/v1_VE250_randls_69.json,1553859,2219509,26,Man
52,603376,DepthScenes,duration_manipulation_targetAtFixation,jsons/v1_VE250_randls_69.json,http://54.235.29.9/FacialAge/BNav_EC2/DepthDuration/v2_depth_duration_MTurk/v2_DepthDuration_HTML.html#144,144,1364,657,1364,768,9-4-2022,10-40-43,53,depth_duration_stimuli/002467_2014-06-28_20-38-07_260595134347_rgbf000026-resize_2/002467_2014-06-28_20-38-07_260595134347_rgbf000026-resize_2-target.png,250,4.742,1,7119,254,meters,jsons/v1_VE250_randls_69.json,1553859,2219509,26,Man
53,603376,DepthScenes,duration_manipulation_targetAtFixation,jsons/v1_VE250_randls_69.json,http://54.235.29.9/FacialAge/BNav_EC2/DepthDuration/v2_depth_duration_MTurk/v2_DepthDuration_HTML.html#144,144,1364,657,1364,768,9-4-2022,10-40-43,54,depth_duration_stimuli/003070_2014-06-15_14-58-27_094959634447_rgbf000150-resize_3/003070_2014-06-15_14-58-27_094959634447_rgbf000150-resize_3-target.png,250,2.9415,2,6224,243,meters,jsons/v1_VE250_randls_69.json,1553859,2219509,26,Man
54,603376,DepthScenes,duration_manipulation_targetAtFixation,jsons/v1_VE250_randls_69.json,http://54.235.29.9/FacialAge/BNav_EC2/DepthDuration/v2_depth_duration_MTurk/v2_DepthDuration_HTML.html#144,144,1364,657,1364,768,9-4-2022,10-40-43,55,depth_duration_stimuli/000943_2014-06-09_19-31-07_260595134347_rgbf000128-resize_1/000943_2014-06-09_19-31-07_260595134347_rgbf000128-resize_1-target.png,250,1.9765,2,6583,274,meters,jsons/v1_VE250_randls_69.json,1553859,2219509,26,Man
55,603376,DepthScenes,duration_manipulation_targetAtFixation,jsons/v1_VE250_randls_69.json,http://54.235.29.9/FacialAge/BNav_EC2/DepthDuration/v2_depth_duration_MTurk/v2_DepthDuration_HTML.html#144,144,1364,657,1364,768,9-4-2022,10-40-43,56,depth_duration_stimuli/003621_2014-05-23_18-06-08_094959634447_rgbf000101-resize_1/003621_2014-05-23_18-06-08_094959634447_rgbf000101-resize_1-target.png,250,3.9835,2,8345,252,meters,jsons/v1_VE250_randls_69.json,1553859,2219509,26,Man
56,603376,DepthScenes,duration_manipulation_targetAtFixation,jsons/v1_VE250_randls_69.json,http://54.235.29.9/FacialAge/BNav_EC2/DepthDuration/v2_depth_duration_MTurk/v2_DepthDuration_HTML.html#144,144,1364,657,1364,768,9-4-2022,10-40-43,57,depth_duration_stimuli/001584_2014-06-20_11-07-43_260595134347_rgbf000002-resize_1/001584_2014-06-20_11-07-43_260595134347_rgbf000002-resize_1-target.png,250,3.53,2,7029,242,meters,jsons/v1_VE250_randls_69.json,1553859,2219509,26,Man
57,603376,DepthScenes,duration_manipulation_targetAtFixation,jsons/v1_VE250_randls_69.json,http://54.235.29.9/FacialAge/BNav_EC2/DepthDuration/v2_depth_duration_MTurk/v2_DepthDuration_HTML.html#144,144,1364,657,1364,768,9-4-2022,10-40-43,58,depth_duration_stimuli/001029_2014-06-08_13-17-57_260595134347_rgbf000065-resize_1/001029_2014-06-08_13-17-57_260595134347_rgbf000065-resize_1-target.png,250,3.0835,3,6603,246,meters,jsons/v1_VE250_randls_69.json,1553859,2219509,26,Man
58,603376,DepthScenes,duration_manipulation_targetAtFixation,jsons/v1_VE250_randls_69.json,http://54.235.29.9/FacialAge/BNav_EC2/DepthDuration/v2_depth_duration_MTurk/v2_DepthDuration_HTML.html#144,144,1364,657,1364,768,9-4-2022,10-40-43,59,depth_duration_stimuli/000677_2014-06-08_23-10-32_260595134347_rgbf000158-resize_6/000677_2014-06-08_23-10-32_260595134347_rgbf000158-resize_6-target.png,250,3.556,2,10761,256,meters,jsons/v1_VE250_randls_69.json,1553859,2219509,26,Man
59,603376,DepthScenes,duration_manipulation_targetAtFixation,jsons/v1_VE250_randls_69.json,http://54.235.29.9/FacialAge/BNav_EC2/DepthDuration/v2_depth_duration_MTurk/v2_DepthDuration_HTML.html#144,144,1364,657,1364,768,9-4-2022,10-40-43,60,depth_duration_stimuli/001066_2014-06-08_22-03-20_260595134347_rgbf000066-resize_4/001066_2014-06-08_22-03-20_260595134347_rgbf000066-resize_4-target.png,250,4.2330000000000005,5,11497,247,meters,jsons/v1_VE250_randls_69.json,1553859,2219509,26,Man
60,603376,DepthScenes,duration_manipulation_targetAtFixation,jsons/v1_VE250_randls_69.json,http://54.235.29.9/FacialAge/BNav_EC2/DepthDuration/v2_depth_duration_MTurk/v2_DepthDuration_HTML.html#144,144,1364,657,1364,768,9-4-2022,10-40-43,61,depth_duration_stimuli/000742_2014-06-08_18-48-09_260595134347_rgbf000164-resize_4/000742_2014-06-08_18-48-09_260595134347_rgbf000164-resize_4-target.png,250,4.632,2,9990,270,meters,jsons/v1_VE250_randls_69.json,1553859,2219509,26,Man
61,603376,DepthScenes,duration_manipulation_targetAtFixation,jsons/v1_VE250_randls_69.json,http://54.235.29.9/FacialAge/BNav_EC2/DepthDuration/v2_depth_duration_MTurk/v2_DepthDuration_HTML.html#144,144,1364,657,1364,768,9-4-2022,10-40-43,62,depth_duration_stimuli/000493_2014-06-09_21-01-18_260595134347_rgbf000196-resize_3/000493_2014-06-09_21-01-18_260595134347_rgbf000196-resize_3-target.png,250,3.44,1,7156,260,meters,jsons/v1_VE250_randls_69.json,1553859,2219509,26,Man
62,603376,DepthScenes,duration_manipulation_targetAtFixation,jsons/v1_VE250_randls_69.json,http://54.235.29.9/FacialAge/BNav_EC2/DepthDuration/v2_depth_duration_MTurk/v2_DepthDuration_HTML.html#144,144,1364,657,1364,768,9-4-2022,10-40-43,63,depth_duration_stimuli/000191_2014-05-12_17-07-38_260595134347_rgbf000199-resize_0/000191_2014-05-12_17-07-38_260595134347_rgbf000199-resize_0-target.png,250,3.7995,2,4013,256,meters,jsons/v1_VE250_randls_69.json,1553859,2219509,26,Man
63,603376,DepthScenes,duration_manipulation_targetAtFixation,jsons/v1_VE250_randls_69.json,http://54.235.29.9/FacialAge/BNav_EC2/DepthDuration/v2_depth_duration_MTurk/v2_DepthDuration_HTML.html#144,144,1364,657,1364,768,9-4-2022,10-40-43,64,depth_duration_stimuli/000788_2014-06-08_22-34-36_260595134347_rgbf000131-resize_1/000788_2014-06-08_22-34-36_260595134347_rgbf000131-resize_1-target.png,250,3.359,2,4903,259,meters,jsons/v1_VE250_randls_69.json,1553859,2219509,26,Man
64,603376,DepthScenes,duration_manipulation_targetAtFixation,jsons/v1_VE250_randls_69.json,http://54.235.29.9/FacialAge/BNav_EC2/DepthDuration/v2_depth_duration_MTurk/v2_DepthDuration_HTML.html#144,144,1364,657,1364,768,9-4-2022,10-40-43,65,depth_duration_stimuli/001235_2014-06-17_16-37-36_260595134347_rgbf000084-resize_4/001235_2014-06-17_16-37-36_260595134347_rgbf000084-resize_4-target.png,250,3.6605,3,3759,274,meters,jsons/v1_VE250_randls_69.json,1553859,2219509,26,Man
65,603376,DepthScenes,duration_manipulation_targetAtFixation,jsons/v1_VE250_randls_69.json,http://54.235.29.9/FacialAge/BNav_EC2/DepthDuration/v2_depth_duration_MTurk/v2_DepthDuration_HTML.html#144,144,1364,657,1364,768,9-4-2022,10-40-43,66,depth_duration_stimuli/001222_2014-06-17_16-24-06_260595134347_rgbf000073-resize_0/001222_2014-06-17_16-24-06_260595134347_rgbf000073-resize-original.jpg,250,1.4385,2,6372,258,meters,jsons/v1_VE250_randls_69.json,1553859,2219509,26,Man
66,603376,DepthScenes,duration_manipulation_targetAtFixation,jsons/v1_VE250_randls_69.json,http://54.235.29.9/FacialAge/BNav_EC2/DepthDuration/v2_depth_duration_MTurk/v2_DepthDuration_HTML.html#144,144,1364,657,1364,768,9-4-2022,10-40-43,67,depth_duration_stimuli/000522_2014-06-08_13-35-06_260595134347_rgbf000244-resize_1/000522_2014-06-08_13-35-06_260595134347_rgbf000244-resize_1-target.png,250,2.3715,2,14666,240,meters,jsons/v1_VE250_randls_69.json,1553859,2219509,26,Man
67,603376,DepthScenes,duration_manipulation_targetAtFixation,jsons/v1_VE250_randls_69.json,http://54.235.29.9/FacialAge/BNav_EC2/DepthDuration/v2_depth_duration_MTurk/v2_DepthDuration_HTML.html#144,144,1364,657,1364,768,9-4-2022,10-40-43,68,depth_duration_stimuli/002949_2014-06-26_15-57-42_094959634447_rgbf000079-resize_1/002949_2014-06-26_15-57-42_094959634447_rgbf000079-resize_1-target.png,250,1.8915,3,5970,242,meters,jsons/v1_VE250_randls_69.json,1553859,2219509,26,Man
68,603376,DepthScenes,duration_manipulation_targetAtFixation,jsons/v1_VE250_randls_69.json,http://54.235.29.9/FacialAge/BNav_EC2/DepthDuration/v2_depth_duration_MTurk/v2_DepthDuration_HTML.html#144,144,1364,657,1364,768,9-4-2022,10-40-43,69,depth_duration_stimuli/002057_2014-06-24_21-00-13_260595134347_rgbf000120-resize_1/002057_2014-06-24_21-00-13_260595134347_rgbf000120-resize_1-target.png,250,2.967,3,7546,245,meters,jsons/v1_VE250_randls_69.json,1553859,2219509,26,Man
69,603376,DepthScenes,duration_manipulation_targetAtFixation,jsons/v1_VE250_randls_69.json,http://54.235.29.9/FacialAge/BNav_EC2/DepthDuration/v2_depth_duration_MTurk/v2_DepthDuration_HTML.html#144,144,1364,657,1364,768,9-4-2022,10-40-43,70,depth_duration_stimuli/000709_2014-06-08_13-51-55_260595134347_rgbf000068-resize_3/000709_2014-06-08_13-51-55_260595134347_rgbf000068-resize_3-target.png,250,1.8030000000000002,3,5904,254,meters,jsons/v1_VE250_randls_69.json,1553859,2219509,26,Man
70,603376,DepthScenes,duration_manipulation_targetAtFixation,jsons/v1_VE250_randls_69.json,http://54.235.29.9/FacialAge/BNav_EC2/DepthDuration/v2_depth_duration_MTurk/v2_DepthDuration_HTML.html#144,144,1364,657,1364,768,9-4-2022,10-40-43,71,depth_duration_stimuli/001449_2014-06-19_17-01-27_260595134347_rgbf000116-resize_2/001449_2014-06-19_17-01-27_260595134347_rgbf000116-resize_2-target.png,250,3.452,2,9026,260,meters,jsons/v1_VE250_randls_69.json,1553859,2219509,26,Man
71,603376,DepthScenes,duration_manipulation_targetAtFixation,jsons/v1_VE250_randls_69.json,http://54.235.29.9/FacialAge/BNav_EC2/DepthDuration/v2_depth_duration_MTurk/v2_DepthDuration_HTML.html#144,144,1364,657,1364,768,9-4-2022,10-40-43,72,depth_duration_stimuli/001450_2014-06-19_17-02-03_260595134347_rgbf000203-resize_4/001450_2014-06-19_17-02-03_260595134347_rgbf000203-resize_4-target.png,250,4.0106666666667,3,10010,251,meters,jsons/v1_VE250_randls_69.json,1553859,2219509,26,Man
72,603376,DepthScenes,duration_manipulation_targetAtFixation,jsons/v1_VE250_randls_69.json,http://54.235.29.9/FacialAge/BNav_EC2/DepthDuration/v2_depth_duration_MTurk/v2_DepthDuration_HTML.html#144,144,1364,657,1364,768,9-4-2022,10-40-43,73,depth_duration_stimuli/000642_2014-06-08_16-59-25_260595134347_rgbf000098-resize_2/000642_2014-06-08_16-59-25_260595134347_rgbf000098-resize_2-target.png,250,2.8815,4,6602,224,meters,jsons/v1_VE250_randls_69.json,1553859,2219509,26,Man
73,603376,DepthScenes,duration_manipulation_targetAtFixation,jsons/v1_VE250_randls_69.json,http://54.235.29.9/FacialAge/BNav_EC2/DepthDuration/v2_depth_duration_MTurk/v2_DepthDuration_HTML.html#144,144,1364,657,1364,768,9-4-2022,10-40-43,74,depth_duration_stimuli/002425_2014-06-28_20-27-29_260595134347_rgbf000031-resize_8/002425_2014-06-28_20-27-29_260595134347_rgbf000031-resize_8-target.png,250,3.8960000000000004,2,16641,246,meters,jsons/v1_VE250_randls_69.json,1553859,2219509,26,Man
74,603376,DepthScenes,duration_manipulation_targetAtFixation,jsons/v1_VE250_randls_69.json,http://54.235.29.9/FacialAge/BNav_EC2/DepthDuration/v2_depth_duration_MTurk/v2_DepthDuration_HTML.html#144,144,1364,657,1364,768,9-4-2022,10-40-43,75,depth_duration_stimuli/002375_2014-06-28_20-13-44_260595134347_rgbf000032-resize_1/002375_2014-06-28_20-13-44_260595134347_rgbf000032-resize_1-target.png,250,4.0175,2,13408,243,meters,jsons/v1_VE250_randls_69.json,1553859,2219509,26,Man
75,603376,DepthScenes,duration_manipulation_targetAtFixation,jsons/v1_VE250_randls_69.json,http://54.235.29.9/FacialAge/BNav_EC2/DepthDuration/v2_depth_duration_MTurk/v2_DepthDuration_HTML.html#144,144,1364,657,1364,768,9-4-2022,10-40-43,76,depth_duration_stimuli/002657_2014-06-13_15-29-54_094959634447_rgbf000150-resize_1/002657_2014-06-13_15-29-54_094959634447_rgbf000150-resize_1-target.png,250,4.919,4,8786,248,meters,jsons/v1_VE250_randls_69.json,1553859,2219509,26,Man
76,603376,DepthScenes,duration_manipulation_targetAtFixation,jsons/v1_VE250_randls_69.json,http://54.235.29.9/FacialAge/BNav_EC2/DepthDuration/v2_depth_duration_MTurk/v2_DepthDuration_HTML.html#144,144,1364,657,1364,768,9-4-2022,10-40-43,77,depth_duration_stimuli/001175_2014-06-17_15-45-55_260595134347_rgbf000129-resize_4/001175_2014-06-17_15-45-55_260595134347_rgbf000129-resize_4-target.png,250,4.255,2,7953,237,meters,jsons/v1_VE250_randls_69.json,1553859,2219509,26,Man
77,603376,DepthScenes,duration_manipulation_targetAtFixation,jsons/v1_VE250_randls_69.json,http://54.235.29.9/FacialAge/BNav_EC2/DepthDuration/v2_depth_duration_MTurk/v2_DepthDuration_HTML.html#144,144,1364,657,1364,768,9-4-2022,10-40-43,78,depth_duration_stimuli/003490_2014-05-21_15-50-11_094959634447_rgbf000101-resize_3/003490_2014-05-21_15-50-11_094959634447_rgbf000101-resize_3-target.png,250,3.6445,2,5860,245,meters,jsons/v1_VE250_randls_69.json,1553859,2219509,26,Man
78,603376,DepthScenes,duration_manipulation_targetAtFixation,jsons/v1_VE250_randls_69.json,http://54.235.29.9/FacialAge/BNav_EC2/DepthDuration/v2_depth_duration_MTurk/v2_DepthDuration_HTML.html#144,144,1364,657,1364,768,9-4-2022,10-40-43,79,depth_duration_stimuli/001056_2014-06-08_18-46-44_260595134347_rgbf000068-resize_0/001056_2014-06-08_18-46-44_260595134347_rgbf000068-resize_0-target.png,250,2.6625,2,10691,259,meters,jsons/v1_VE250_randls_69.json,1553859,2219509,26,Man
79,603376,DepthScenes,duration_manipulation_targetAtFixation,jsons/v1_VE250_randls_69.json,http://54.235.29.9/FacialAge/BNav_EC2/DepthDuration/v2_depth_duration_MTurk/v2_DepthDuration_HTML.html#144,144,1364,657,1364,768,9-4-2022,10-40-43,80,depth_duration_stimuli/002199_2014-06-28_18-33-56_260595134347_rgbf000074-resize_0/002199_2014-06-28_18-33-56_260595134347_rgbf000074-resize_0-target.png,250,1.996,3,6994,246,meters,jsons/v1_VE250_randls_69.json,1553859,2219509,26,Man
80,603376,DepthScenes,duration_manipulation_targetAtFixation,jsons/v1_VE250_randls_69.json,http://54.235.29.9/FacialAge/BNav_EC2/DepthDuration/v2_depth_duration_MTurk/v2_DepthDuration_HTML.html#144,144,1364,657,1364,768,9-4-2022,10-40-43,81,depth_duration_stimuli/000739_2014-06-08_18-45-58_260595134347_rgbf000068-resize_1/000739_2014-06-08_18-45-58_260595134347_rgbf000068-resize_1-target.png,250,3.534,3,13891,245,meters,jsons/v1_VE250_randls_69.json,1553859,2219509,26,Man
81,603376,DepthScenes,duration_manipulation_targetAtFixation,jsons/v1_VE250_randls_69.json,http://54.235.29.9/FacialAge/BNav_EC2/DepthDuration/v2_depth_duration_MTurk/v2_DepthDuration_HTML.html#144,144,1364,657,1364,768,9-4-2022,10-40-43,82,depth_duration_stimuli/000734_2014-06-08_17-39-11_260595134347_rgbf000128-resize_2/000734_2014-06-08_17-39-11_260595134347_rgbf000128-resize_2-target.png,250,4.098,2,15641,246,meters,jsons/v1_VE250_randls_69.json,1553859,2219509,26,Man
82,603376,DepthScenes,duration_manipulation_targetAtFixation,jsons/v1_VE250_randls_69.json,http://54.235.29.9/FacialAge/BNav_EC2/DepthDuration/v2_depth_duration_MTurk/v2_DepthDuration_HTML.html#144,144,1364,657,1364,768,9-4-2022,10-40-43,83,depth_duration_stimuli/001059_2014-06-08_21-53-27_260595134347_rgbf000061-resize_4/001059_2014-06-08_21-53-27_260595134347_rgbf000061-resize_4-target.png,250,2.4185,3,20035,261,meters,jsons/v1_VE250_randls_69.json,1553859,2219509,26,Man
83,603376,DepthScenes,duration_manipulation_targetAtFixation,jsons/v1_VE250_randls_69.json,http://54.235.29.9/FacialAge/BNav_EC2/DepthDuration/v2_depth_duration_MTurk/v2_DepthDuration_HTML.html#144,144,1364,657,1364,768,9-4-2022,10-40-43,84,depth_duration_stimuli/001032_2014-06-08_13-23-17_260595134347_rgbf000021-resize_3/001032_2014-06-08_13-23-17_260595134347_rgbf000021-resize_3-target.png,250,3.2725,2,6334,236,meters,jsons/v1_VE250_randls_69.json,1553859,2219509,26,Man
84,603376,DepthScenes,duration_manipulation_targetAtFixation,jsons/v1_VE250_randls_69.json,http://54.235.29.9/FacialAge/BNav_EC2/DepthDuration/v2_depth_duration_MTurk/v2_DepthDuration_HTML.html#144,144,1364,657,1364,768,9-4-2022,10-40-43,85,depth_duration_stimuli/002763_2014-06-22_19-13-10_094959634447_rgbf000075-resize_4/002763_2014-06-22_19-13-10_094959634447_rgbf000075-resize_4-target.png,250,1.68375,5,4834,245,meters,jsons/v1_VE250_randls_69.json,1553859,2219509,26,Man
85,603376,DepthScenes,duration_manipulation_targetAtFixation,jsons/v1_VE250_randls_69.json,http://54.235.29.9/FacialAge/BNav_EC2/DepthDuration/v2_depth_duration_MTurk/v2_DepthDuration_HTML.html#144,144,1364,657,1364,768,9-4-2022,10-40-43,86,depth_duration_stimuli/002209_2014-06-28_18-36-10_260595134347_rgbf000051-resize_1/002209_2014-06-28_18-36-10_260595134347_rgbf000051-resize_1-target.png,250,2.057,4,5336,247,meters,jsons/v1_VE250_randls_69.json,1553859,2219509,26,Man
86,603376,DepthScenes,duration_manipulation_targetAtFixation,jsons/v1_VE250_randls_69.json,http://54.235.29.9/FacialAge/BNav_EC2/DepthDuration/v2_depth_duration_MTurk/v2_DepthDuration_HTML.html#144,144,1364,657,1364,768,9-4-2022,10-40-43,87,depth_duration_stimuli/001055_2014-06-08_18-45-35_260595134347_rgbf000111-resize_4/001055_2014-06-08_18-45-35_260595134347_rgbf000111-resize_4-target.png,250,2.4290000000000003,2,4816,251,meters,jsons/v1_VE250_randls_69.json,1553859,2219509,26,Man
87,603376,DepthScenes,duration_manipulation_targetAtFixation,jsons/v1_VE250_randls_69.json,http://54.235.29.9/FacialAge/BNav_EC2/DepthDuration/v2_depth_duration_MTurk/v2_DepthDuration_HTML.html#144,144,1364,657,1364,768,9-4-2022,10-40-43,88,depth_duration_stimuli/000549_2014-06-08_22-10-24_260595134347_rgbf000247-resize_3/000549_2014-06-08_22-10-24_260595134347_rgbf000247-resize_3-target.png,250,1.841,1,4156,237,meters,jsons/v1_VE250_randls_69.json,1553859,2219509,26,Man
88,603376,DepthScenes,duration_manipulation_targetAtFixation,jsons/v1_VE250_randls_69.json,http://54.235.29.9/FacialAge/BNav_EC2/DepthDuration/v2_depth_duration_MTurk/v2_DepthDuration_HTML.html#144,144,1364,657,1364,768,9-4-2022,10-40-43,89,depth_duration_stimuli/000682_2014-06-08_23-14-58_260595134347_rgbf000041-resize_5/000682_2014-06-08_23-14-58_260595134347_rgbf000041-resize_5-target.png,250,2.7239999999999998,1,9596,231,meters,jsons/v1_VE250_randls_69.json,1553859,2219509,26,Man
89,603376,DepthScenes,duration_manipulation_targetAtFixation,jsons/v1_VE250_randls_69.json,http://54.235.29.9/FacialAge/BNav_EC2/DepthDuration/v2_depth_duration_MTurk/v2_DepthDuration_HTML.html#144,144,1364,657,1364,768,9-4-2022,10-40-43,90,depth_duration_stimuli/001650_2014-06-20_12-09-00_260595134347_rgbf000087-resize_3/001650_2014-06-20_12-09-00_260595134347_rgbf000087-resize_3-target.png,250,1.9505,5,6878,243,meters,jsons/v1_VE250_randls_69.json,1553859,2219509,26,Man
90,603376,DepthScenes,duration_manipulation_targetAtFixation,jsons/v1_VE250_randls_69.json,http://54.235.29.9/FacialAge/BNav_EC2/DepthDuration/v2_depth_duration_MTurk/v2_DepthDuration_HTML.html#144,144,1364,657,1364,768,9-4-2022,10-40-43,91,depth_duration_stimuli/001164_2014-06-17_15-35-46_260595134347_rgbf000085-resize_3/001164_2014-06-17_15-35-46_260595134347_rgbf000085-resize_3-target.png,250,2.354,1,11972,254,meters,jsons/v1_VE250_randls_69.json,1553859,2219509,26,Man
91,603376,DepthScenes,duration_manipulation_targetAtFixation,jsons/v1_VE250_randls_69.json,http://54.235.29.9/FacialAge/BNav_EC2/DepthDuration/v2_depth_duration_MTurk/v2_DepthDuration_HTML.html#144,144,1364,657,1364,768,9-4-2022,10-40-43,92,depth_duration_stimuli/001136_2014-06-17_15-19-41_260595134347_rgbf000076-resize_3/001136_2014-06-17_15-19-41_260595134347_rgbf000076-resize_3-target.png,250,1.8655,2,7806,220,meters,jsons/v1_VE250_randls_69.json,1553859,2219509,26,Man
92,603376,DepthScenes,duration_manipulation_targetAtFixation,jsons/v1_VE250_randls_69.json,http://54.235.29.9/FacialAge/BNav_EC2/DepthDuration/v2_depth_duration_MTurk/v2_DepthDuration_HTML.html#144,144,1364,657,1364,768,9-4-2022,10-40-43,93,depth_duration_stimuli/000436_2014-06-09_22-25-11_260595134347_rgbf000137-resize_1/000436_2014-06-09_22-25-11_260595134347_rgbf000137-resize_1-target.png,250,4.0705,5,5670,247,meters,jsons/v1_VE250_randls_69.json,1553859,2219509,26,Man
93,603376,DepthScenes,duration_manipulation_targetAtFixation,jsons/v1_VE250_randls_69.json,http://54.235.29.9/FacialAge/BNav_EC2/DepthDuration/v2_depth_duration_MTurk/v2_DepthDuration_HTML.html#144,144,1364,657,1364,768,9-4-2022,10-40-43,94,depth_duration_stimuli/002444_2014-06-28_20-32-08_260595134347_rgbf000027-resize_0/002444_2014-06-28_20-32-08_260595134347_rgbf000027-resize_0-target.png,250,4.388999999999999,4,5383,245,meters,jsons/v1_VE250_randls_69.json,1553859,2219509,26,Man
94,603376,DepthScenes,duration_manipulation_targetAtFixation,jsons/v1_VE250_randls_69.json,http://54.235.29.9/FacialAge/BNav_EC2/DepthDuration/v2_depth_duration_MTurk/v2_DepthDuration_HTML.html#144,144,1364,657,1364,768,9-4-2022,10-40-43,95,depth_duration_stimuli/000470_2014-06-09_19-42-40_260595134347_rgbf000094-resize_1/000470_2014-06-09_19-42-40_260595134347_rgbf000094-resize_1-target.png,250,1.831,1,6005,241,meters,jsons/v1_VE250_randls_69.json,1553859,2219509,26,Man
95,603376,DepthScenes,duration_manipulation_targetAtFixation,jsons/v1_VE250_randls_69.json,http://54.235.29.9/FacialAge/BNav_EC2/DepthDuration/v2_depth_duration_MTurk/v2_DepthDuration_HTML.html#144,144,1364,657,1364,768,9-4-2022,10-40-43,96,depth_duration_stimuli/000109_2014-05-14_23-41-52_260595134347_rgbf000035-resize_9/000109_2014-05-14_23-41-52_260595134347_rgbf000035-resize_9-target.png,250,1.3545,2,5798,250,meters,jsons/v1_VE250_randls_69.json,1553859,2219509,26,Man
96,603376,DepthScenes,duration_manipulation_targetAtFixation,jsons/v1_VE250_randls_69.json,http://54.235.29.9/FacialAge/BNav_EC2/DepthDuration/v2_depth_duration_MTurk/v2_DepthDuration_HTML.html#144,144,1364,657,1364,768,9-4-2022,10-40-43,97,depth_duration_stimuli/000758_2014-06-08_22-05-08_260595134347_rgbf000085-resize_0/000758_2014-06-08_22-05-08_260595134347_rgbf000085-resize_0-target.png,250,3.3810000000000002,2,22853,247,meters,jsons/v1_VE250_randls_69.json,1553859,2219509,26,Man
97,603376,DepthScenes,duration_manipulation_targetAtFixation,jsons/v1_VE250_randls_69.json,http://54.235.29.9/FacialAge/BNav_EC2/DepthDuration/v2_depth_duration_MTurk/v2_DepthDuration_HTML.html#144,144,1364,657,1364,768,9-4-2022,10-40-43,98,depth_duration_stimuli/000854_2014-06-09_19-43-13_260595134347_rgbf000066-resize_0/000854_2014-06-09_19-43-13_260595134347_rgbf000066-resize_0-target.png,250,3.068,1,5585,253,meters,jsons/v1_VE250_randls_69.json,1553859,2219509,26,Man
98,603376,DepthScenes,duration_manipulation_targetAtFixation,jsons/v1_VE250_randls_69.json,http://54.235.29.9/FacialAge/BNav_EC2/DepthDuration/v2_depth_duration_MTurk/v2_DepthDuration_HTML.html#144,144,1364,657,1364,768,9-4-2022,10-40-43,99,depth_duration_stimuli/001540_2014-06-20_17-01-05_260595134347_rgbf000086-resize_2/001540_2014-06-20_17-01-05_260595134347_rgbf000086-resize-original.jpg,250,1.459,2,6944,255,meters,jsons/v1_VE250_randls_69.json,1553859,2219509,26,Man
99,603376,DepthScenes,duration_manipulation_targetAtFixation,jsons/v1_VE250_randls_69.json,http://54.235.29.9/FacialAge/BNav_EC2/DepthDuration/v2_depth_duration_MTurk/v2_DepthDuration_HTML.html#144,144,1364,657,1364,768,9-4-2022,10-40-43,100,depth_duration_stimuli/003492_2014-05-21_15-50-55_094959634447_rgbf000828-resize_1/003492_2014-05-21_15-50-55_094959634447_rgbf000828-resize_1-target.png,250,4.06875,2,7043,250,meters,jsons/v1_VE250_randls_69.json,1553859,2219509,26,Man
100,603376,DepthScenes,duration_manipulation_targetAtFixation,jsons/v1_VE250_randls_69.json,http://54.235.29.9/FacialAge/BNav_EC2/DepthDuration/v2_depth_duration_MTurk/v2_DepthDuration_HTML.html#144,144,1364,657,1364,768,9-4-2022,10-40-43,101,depth_duration_stimuli/002568_2014-06-24_13-59-21_094959634447_rgbf000062-resize_4/002568_2014-06-24_13-59-21_094959634447_rgbf000062-resize_4-target.png,250,3.015,3,8320,242,meters,jsons/v1_VE250_randls_69.json,1553859,2219509,26,Man
101,603376,DepthScenes,duration_manipulation_targetAtFixation,jsons/v1_VE250_randls_69.json,http://54.235.29.9/FacialAge/BNav_EC2/DepthDuration/v2_depth_duration_MTurk/v2_DepthDuration_HTML.html#144,144,1364,657,1364,768,9-4-2022,10-40-43,102,depth_duration_stimuli/001810_2014-06-26_20-51-35_260595134347_rgbf000040-resize_3/001810_2014-06-26_20-51-35_260595134347_rgbf000040-resize_3-target.png,250,2.2525,4,18263,260,meters,jsons/v1_VE250_randls_69.json,1553859,2219509,26,Man
102,603376,DepthScenes,duration_manipulation_targetAtFixation,jsons/v1_VE250_randls_69.json,http://54.235.29.9/FacialAge/BNav_EC2/DepthDuration/v2_depth_duration_MTurk/v2_DepthDuration_HTML.html#144,144,1364,657,1364,768,9-4-2022,10-40-43,103,depth_duration_stimuli/003010_2014-06-15_12-54-35_094959634447_rgbf000112-resize_0/003010_2014-06-15_12-54-35_094959634447_rgbf000112-resize_0-target.png,250,3.1185,3,12998,288,meters,jsons/v1_VE250_randls_69.json,1553859,2219509,26,Man
103,603376,DepthScenes,duration_manipulation_targetAtFixation,jsons/v1_VE250_randls_69.json,http://54.235.29.9/FacialAge/BNav_EC2/DepthDuration/v2_depth_duration_MTurk/v2_DepthDuration_HTML.html#144,144,1364,657,1364,768,9-4-2022,10-40-43,104,depth_duration_stimuli/001158_2014-06-17_15-32-16_260595134347_rgbf000138-resize_2/001158_2014-06-17_15-32-16_260595134347_rgbf000138-resize_2-target.png,250,4.5315,2,8968,255,meters,jsons/v1_VE250_randls_69.json,1553859,2219509,26,Man
104,603376,DepthScenes,duration_manipulation_targetAtFixation,jsons/v1_VE250_randls_69.json,http://54.235.29.9/FacialAge/BNav_EC2/DepthDuration/v2_depth_duration_MTurk/v2_DepthDuration_HTML.html#144,144,1364,657,1364,768,9-4-2022,10-40-43,105,depth_duration_stimuli/000556_2014-06-09_22-42-56_260595134347_rgbf000214-resize_1/000556_2014-06-09_22-42-56_260595134347_rgbf000214-resize_1-target.png,250,4.8415,2,5903,256,meters,jsons/v1_VE250_randls_69.json,1553859,2219509,26,Man
105,603376,DepthScenes,duration_manipulation_targetAtFixation,jsons/v1_VE250_randls_69.json,http://54.235.29.9/FacialAge/BNav_EC2/DepthDuration/v2_depth_duration_MTurk/v2_DepthDuration_HTML.html#144,144,1364,657,1364,768,9-4-2022,10-40-43,106,depth_duration_stimuli/000810_2014-06-08_17-20-01_260595134347_rgbf000105-resize_0/000810_2014-06-08_17-20-01_260595134347_rgbf000105-resize_0-target.png,250,1.4865,2,7970,250,meters,jsons/v1_VE250_randls_69.json,1553859,2219509,26,Man
106,603376,DepthScenes,duration_manipulation_targetAtFixation,jsons/v1_VE250_randls_69.json,http://54.235.29.9/FacialAge/BNav_EC2/DepthDuration/v2_depth_duration_MTurk/v2_DepthDuration_HTML.html#144,144,1364,657,1364,768,9-4-2022,10-40-43,107,depth_duration_stimuli/001214_2014-06-17_16-13-55_260595134347_rgbf000111-resize_0/001214_2014-06-17_16-13-55_260595134347_rgbf000111-resize_0-target.png,250,2.6505,4,6779,249,meters,jsons/v1_VE250_randls_69.json,1553859,2219509,26,Man
107,603376,DepthScenes,duration_manipulation_targetAtFixation,jsons/v1_VE250_randls_69.json,http://54.235.29.9/FacialAge/BNav_EC2/DepthDuration/v2_depth_duration_MTurk/v2_DepthDuration_HTML.html#144,144,1364,657,1364,768,9-4-2022,10-40-43,108,depth_duration_stimuli/002600_2014-06-24_14-27-04_094959634447_rgbf000074-resize_2/002600_2014-06-24_14-27-04_094959634447_rgbf000074-resize_2-target.png,250,2.7575,5,7389,249,meters,jsons/v1_VE250_randls_69.json,1553859,2219509,26,Man
108,603376,DepthScenes,duration_manipulation_targetAtFixation,jsons/v1_VE250_randls_69.json,http://54.235.29.9/FacialAge/BNav_EC2/DepthDuration/v2_depth_duration_MTurk/v2_DepthDuration_HTML.html#144,144,1364,657,1364,768,9-4-2022,10-40-43,109,depth_duration_stimuli/003228_2014-05-14_13-42-35_094959634447_rgbf000101-resize_1/003228_2014-05-14_13-42-35_094959634447_rgbf000101-resize_1-target.png,250,1.9680000000000002,4,5880,256,meters,jsons/v1_VE250_randls_69.json,1553859,2219509,26,Man
109,603376,DepthScenes,duration_manipulation_targetAtFixation,jsons/v1_VE250_randls_69.json,http://54.235.29.9/FacialAge/BNav_EC2/DepthDuration/v2_depth_duration_MTurk/v2_DepthDuration_HTML.html#144,144,1364,657,1364,768,9-4-2022,10-40-43,110,depth_duration_stimuli/001570_2014-06-20_17-21-09_260595134347_rgbf000135-resize_4/001570_2014-06-20_17-21-09_260595134347_rgbf000135-resize_4-target.png,250,4.467,2,11025,249,meters,jsons/v1_VE250_randls_69.json,1553859,2219509,26,Man
110,603376,DepthScenes,duration_manipulation_targetAtFixation,jsons/v1_VE250_randls_69.json,http://54.235.29.9/FacialAge/BNav_EC2/DepthDuration/v2_depth_duration_MTurk/v2_DepthDuration_HTML.html#144,144,1364,657,1364,768,9-4-2022,10-40-43,111,depth_duration_stimuli/001392_2014-06-19_16-07-59_260595134347_rgbf000046-resize_1/001392_2014-06-19_16-07-59_260595134347_rgbf000046-resize_1-target.png,250,4.135,4,6553,274,meters,jsons/v1_VE250_randls_69.json,1553859,2219509,26,Man
111,603376,DepthScenes,duration_manipulation_targetAtFixation,jsons/v1_VE250_randls_69.json,http://54.235.29.9/FacialAge/BNav_EC2/DepthDuration/v2_depth_duration_MTurk/v2_DepthDuration_HTML.html#144,144,1364,657,1364,768,9-4-2022,10-40-43,112,depth_duration_stimuli/000368_2014-06-09_15-53-01_260595134347_rgbf000155-resize_2/000368_2014-06-09_15-53-01_260595134347_rgbf000155-resize_2-target.png,250,2.4859999999999998,3,10010,261,meters,jsons/v1_VE250_randls_69.json,1553859,2219509,26,Man
112,603376,DepthScenes,duration_manipulation_targetAtFixation,jsons/v1_VE250_randls_69.json,http://54.235.29.9/FacialAge/BNav_EC2/DepthDuration/v2_depth_duration_MTurk/v2_DepthDuration_HTML.html#144,144,1364,657,1364,768,9-4-2022,10-40-43,113,depth_duration_stimuli/002678_2014-06-13_16-15-32_094959634447_rgbf000151-resize_6/002678_2014-06-13_16-15-32_094959634447_rgbf000151-resize_6-target.png,250,2.1830000000000003,2,12380,254,meters,jsons/v1_VE250_randls_69.json,1553859,2219509,26,Man
113,603376,DepthScenes,duration_manipulation_targetAtFixation,jsons/v1_VE250_randls_69.json,http://54.235.29.9/FacialAge/BNav_EC2/DepthDuration/v2_depth_duration_MTurk/v2_DepthDuration_HTML.html#144,144,1364,657,1364,768,9-4-2022,10-40-43,114,depth_duration_stimuli/001150_2014-06-17_15-27-34_260595134347_rgbf000108-resize_2/001150_2014-06-17_15-27-34_260595134347_rgbf000108-resize_2-target.png,250,4.0325,2,5757,249,meters,jsons/v1_VE250_randls_69.json,1553859,2219509,26,Man
114,603376,DepthScenes,duration_manipulation_targetAtFixation,jsons/v1_VE250_randls_69.json,http://54.235.29.9/FacialAge/BNav_EC2/DepthDuration/v2_depth_duration_MTurk/v2_DepthDuration_HTML.html#144,144,1364,657,1364,768,9-4-2022,10-40-43,115,depth_duration_stimuli/000665_2014-06-09_20-42-35_260595134347_rgbf000110-resize_1/000665_2014-06-09_20-42-35_260595134347_rgbf000110-resize_1-target.png,250,3.057,1,5704,262,meters,jsons/v1_VE250_randls_69.json,1553859,2219509,26,Man
115,603376,DepthScenes,duration_manipulation_targetAtFixation,jsons/v1_VE250_randls_69.json,http://54.235.29.9/FacialAge/BNav_EC2/DepthDuration/v2_depth_duration_MTurk/v2_DepthDuration_HTML.html#144,144,1364,657,1364,768,9-4-2022,10-40-43,116,depth_duration_stimuli/001170_2014-06-17_15-43-44_260595134347_rgbf000096-resize_6/001170_2014-06-17_15-43-44_260595134347_rgbf000096-resize-original.jpg,250,1.1909999999999998,2,10597,252,meters,jsons/v1_VE250_randls_69.json,1553859,2219509,26,Man
116,603376,DepthScenes,duration_manipulation_targetAtFixation,jsons/v1_VE250_randls_69.json,http://54.235.29.9/FacialAge/BNav_EC2/DepthDuration/v2_depth_duration_MTurk/v2_DepthDuration_HTML.html#144,144,1364,657,1364,768,9-4-2022,10-40-43,117,depth_duration_stimuli/002725_2014-06-22_11-47-51_094959634447_rgbf000070-resize_1/002725_2014-06-22_11-47-51_094959634447_rgbf000070-resize_1-target.png,250,2.195,2,5693,251,meters,jsons/v1_VE250_randls_69.json,1553859,2219509,26,Man
117,603376,DepthScenes,duration_manipulation_targetAtFixation,jsons/v1_VE250_randls_69.json,http://54.235.29.9/FacialAge/BNav_EC2/DepthDuration/v2_depth_duration_MTurk/v2_DepthDuration_HTML.html#144,144,1364,657,1364,768,9-4-2022,10-40-43,118,depth_duration_stimuli/002344_2014-06-28_20-06-29_260595134347_rgbf000030-resize_1/002344_2014-06-28_20-06-29_260595134347_rgbf000030-resize_1-target.png,250,1.5795,2,18632,254,meters,jsons/v1_VE250_randls_69.json,1553859,2219509,26,Man
118,603376,DepthScenes,duration_manipulation_targetAtFixation,jsons/v1_VE250_randls_69.json,http://54.235.29.9/FacialAge/BNav_EC2/DepthDuration/v2_depth_duration_MTurk/v2_DepthDuration_HTML.html#144,144,1364,657,1364,768,9-4-2022,10-40-43,119,depth_duration_stimuli/002509_2014-06-24_13-19-22_094959634447_rgbf000077-resize_0/002509_2014-06-24_13-19-22_094959634447_rgbf000077-resize_0-target.png,250,1.3065,2,23439,314,meters,jsons/v1_VE250_randls_69.json,1553859,2219509,26,Man
119,603376,DepthScenes,duration_manipulation_targetAtFixation,jsons/v1_VE250_randls_69.json,http://54.235.29.9/FacialAge/BNav_EC2/DepthDuration/v2_depth_duration_MTurk/v2_DepthDuration_HTML.html#144,144,1364,657,1364,768,9-4-2022,10-40-43,120,depth_duration_stimuli/003338_2014-05-20_11-01-23_094959634447_rgbf000051-resize_6/003338_2014-05-20_11-01-23_094959634447_rgbf000051-resize_6-target.png,250,1.693,2,5554,223,meters,jsons/v1_VE250_randls_69.json,1553859,2219509,26,Man
120,603376,DepthScenes,duration_manipulation_targetAtFixation,jsons/v1_VE250_randls_69.json,http://54.235.29.9/FacialAge/BNav_EC2/DepthDuration/v2_depth_duration_MTurk/v2_DepthDuration_HTML.html#144,144,1364,657,1364,768,9-4-2022,10-40-43,121,depth_duration_stimuli/002039_2014-06-24_20-22-38_260595134347_rgbf000084-resize_1/002039_2014-06-24_20-22-38_260595134347_rgbf000084-resize_1-target.png,250,4.408,2,6797,250,meters,jsons/v1_VE250_randls_69.json,1553859,2219509,26,Man
121,603376,DepthScenes,duration_manipulation_targetAtFixation,jsons/v1_VE250_randls_69.json,http://54.235.29.9/FacialAge/BNav_EC2/DepthDuration/v2_depth_duration_MTurk/v2_DepthDuration_HTML.html#144,144,1364,657,1364,768,9-4-2022,10-40-43,122,depth_duration_stimuli/002103_2014-06-25_20-00-40_260595134347_rgbf000049-resize_0/002103_2014-06-25_20-00-40_260595134347_rgbf000049-resize_0-target.png,250,4.105,2,4801,249,meters,jsons/v1_VE250_randls_69.json,1553859,2219509,26,Man
122,603376,DepthScenes,duration_manipulation_targetAtFixation,jsons/v1_VE250_randls_69.json,http://54.235.29.9/FacialAge/BNav_EC2/DepthDuration/v2_depth_duration_MTurk/v2_DepthDuration_HTML.html#144,144,1364,657,1364,768,9-4-2022,10-40-43,123,depth_duration_stimuli/000929_2014-06-09_16-33-19_260595134347_rgbf000139-resize_0/000929_2014-06-09_16-33-19_260595134347_rgbf000139-resize_0-target.png,250,2.8680000000000003,1,10071,246,meters,jsons/v1_VE250_randls_69.json,1553859,2219509,26,Man
123,603376,DepthScenes,duration_manipulation_targetAtFixation,jsons/v1_VE250_randls_69.json,http://54.235.29.9/FacialAge/BNav_EC2/DepthDuration/v2_depth_duration_MTurk/v2_DepthDuration_HTML.html#144,144,1364,657,1364,768,9-4-2022,10-40-43,124,depth_duration_stimuli/000457_2014-06-08_16-52-43_260595134347_rgbf000199-resize_1/000457_2014-06-08_16-52-43_260595134347_rgbf000199-resize_1-target.png,250,3.6489999999999996,2,5805,247,meters,jsons/v1_VE250_randls_69.json,1553859,2219509,26,Man
124,603376,DepthScenes,duration_manipulation_targetAtFixation,jsons/v1_VE250_randls_69.json,http://54.235.29.9/FacialAge/BNav_EC2/DepthDuration/v2_depth_duration_MTurk/v2_DepthDuration_HTML.html#144,144,1364,657,1364,768,9-4-2022,10-40-43,125,depth_duration_stimuli/000506_2014-06-08_23-21-00_260595134347_rgbf000070-resize_7/000506_2014-06-08_23-21-00_260595134347_rgbf000070-resize_7-target.png,250,4.0585,2,5789,244,meters,jsons/v1_VE250_randls_69.json,1553859,2219509,26,Man
125,603376,DepthScenes,duration_manipulation_targetAtFixation,jsons/v1_VE250_randls_69.json,http://54.235.29.9/FacialAge/BNav_EC2/DepthDuration/v2_depth_duration_MTurk/v2_DepthDuration_HTML.html#144,144,1364,657,1364,768,9-4-2022,10-40-43,126,depth_duration_stimuli/003079_2014-06-15_15-18-20_094959634447_rgbf000152-resize_8/003079_2014-06-15_15-18-20_094959634447_rgbf000152-resize_8-target.png,250,2.8775,1,5127,258,meters,jsons/v1_VE250_randls_69.json,1553859,2219509,26,Man
126,603376,DepthScenes,duration_manipulation_targetAtFixation,jsons/v1_VE250_randls_69.json,http://54.235.29.9/FacialAge/BNav_EC2/DepthDuration/v2_depth_duration_MTurk/v2_DepthDuration_HTML.html#144,144,1364,657,1364,768,9-4-2022,10-40-43,127,depth_duration_stimuli/000469_2014-06-09_19-42-10_260595134347_rgbf000081-resize_1/000469_2014-06-09_19-42-10_260595134347_rgbf000081-resize_1-target.png,250,1.652,2,6601,239,meters,jsons/v1_VE250_randls_69.json,1553859,2219509,26,Man
127,603376,DepthScenes,duration_manipulation_targetAtFixation,jsons/v1_VE250_randls_69.json,http://54.235.29.9/FacialAge/BNav_EC2/DepthDuration/v2_depth_duration_MTurk/v2_DepthDuration_HTML.html#144,144,1364,657,1364,768,9-4-2022,10-40-43,128,depth_duration_stimuli/000483_2014-06-09_20-41-45_260595134347_rgbf000116-resize_4/000483_2014-06-09_20-41-45_260595134347_rgbf000116-resize_4-target.png,250,1.337,3,6695,246,meters,jsons/v1_VE250_randls_69.json,1553859,2219509,26,Man
128,603376,DepthScenes,duration_manipulation_targetAtFixation,jsons/v1_VE250_randls_69.json,http://54.235.29.9/FacialAge/BNav_EC2/DepthDuration/v2_depth_duration_MTurk/v2_DepthDuration_HTML.html#144,144,1364,657,1364,768,9-4-2022,10-40-43,129,depth_duration_stimuli/000773_2014-06-08_22-24-54_260595134347_rgbf000093-resize_1/000773_2014-06-08_22-24-54_260595134347_rgbf000093-resize_1-target.png,250,4.973,2,13002,247,meters,jsons/v1_VE250_randls_69.json,1553859,2219509,26,Man
129,603376,DepthScenes,duration_manipulation_targetAtFixation,jsons/v1_VE250_randls_69.json,http://54.235.29.9/FacialAge/BNav_EC2/DepthDuration/v2_depth_duration_MTurk/v2_DepthDuration_HTML.html#144,144,1364,657,1364,768,9-4-2022,10-40-43,130,depth_duration_stimuli/002414_2014-06-28_20-24-58_260595134347_rgbf000067-resize_4/002414_2014-06-28_20-24-58_260595134347_rgbf000067-resize_4-target.png,250,4.363,2,12615,248,meters,jsons/v1_VE250_randls_69.json,1553859,2219509,26,Man
130,603376,DepthScenes,duration_manipulation_targetAtFixation,jsons/v1_VE250_randls_69.json,http://54.235.29.9/FacialAge/BNav_EC2/DepthDuration/v2_depth_duration_MTurk/v2_DepthDuration_HTML.html#144,144,1364,657,1364,768,9-4-2022,10-40-43,131,depth_duration_stimuli/001016_2014-06-09_16-16-10_260595134347_rgbf000112-resize_5/001016_2014-06-09_16-16-10_260595134347_rgbf000112-resize_5-target.png,250,1.6565,2,49152,249,meters,jsons/v1_VE250_randls_69.json,1553859,2219509,26,Man
131,603376,DepthScenes,duration_manipulation_targetAtFixation,jsons/v1_VE250_randls_69.json,http://54.235.29.9/FacialAge/BNav_EC2/DepthDuration/v2_depth_duration_MTurk/v2_DepthDuration_HTML.html#144,144,1364,657,1364,768,9-4-2022,10-40-43,132,depth_duration_stimuli/002340_2014-06-28_20-05-46_260595134347_rgbf000113-resize_0/002340_2014-06-28_20-05-46_260595134347_rgbf000113-resize_0-target.png,250,2.4735,2,11116,259,meters,jsons/v1_VE250_randls_69.json,1553859,2219509,26,Man
132,603376,DepthScenes,duration_manipulation_targetAtFixation,jsons/v1_VE250_randls_69.json,http://54.235.29.9/FacialAge/BNav_EC2/DepthDuration/v2_depth_duration_MTurk/v2_DepthDuration_HTML.html#144,144,1364,657,1364,768,9-4-2022,10-40-43,133,depth_duration_stimuli/002905_2014-06-03_18-04-43_094959634447_rgbf000151-resize_2/002905_2014-06-03_18-04-43_094959634447_rgbf000151-resize_2-target.png,250,2.0295,2,5620,251,meters,jsons/v1_VE250_randls_69.json,1553859,2219509,26,Man
133,603376,DepthScenes,duration_manipulation_targetAtFixation,jsons/v1_VE250_randls_69.json,http://54.235.29.9/FacialAge/BNav_EC2/DepthDuration/v2_depth_duration_MTurk/v2_DepthDuration_HTML.html#144,144,1364,657,1364,768,9-4-2022,10-40-43,134,depth_duration_stimuli/003423_2014-05-21_10-23-26_094959634447_rgbf002665-resize_2/003423_2014-05-21_10-23-26_094959634447_rgbf002665-resize_2-target.png,250,3.2575,1,5964,245,meters,jsons/v1_VE250_randls_69.json,1553859,2219509,26,Man
134,603376,DepthScenes,duration_manipulation_targetAtFixation,jsons/v1_VE250_randls_69.json,http://54.235.29.9/FacialAge/BNav_EC2/DepthDuration/v2_depth_duration_MTurk/v2_DepthDuration_HTML.html#144,144,1364,657,1364,768,9-4-2022,10-40-43,135,depth_duration_stimuli/002072_2014-06-24_21-48-06_260595134347_rgbf000115-resize_0/002072_2014-06-24_21-48-06_260595134347_rgbf000115-resize-original.jpg,250,4.702,1,7317,251,meters,jsons/v1_VE250_randls_69.json,1553859,2219509,26,Man
135,603376,DepthScenes,duration_manipulation_targetAtFixation,jsons/v1_VE250_randls_69.json,http://54.235.29.9/FacialAge/BNav_EC2/DepthDuration/v2_depth_duration_MTurk/v2_DepthDuration_HTML.html#144,144,1364,657,1364,768,9-4-2022,10-40-43,136,depth_duration_stimuli/001417_2014-06-19_16-25-36_260595134347_rgbf000115-resize_5/001417_2014-06-19_16-25-36_260595134347_rgbf000115-resize_5-target.png,250,4.6255,6,5749,245,meters,jsons/v1_VE250_randls_69.json,1553859,2219509,26,Man
136,603376,DepthScenes,duration_manipulation_targetAtFixation,jsons/v1_VE250_randls_69.json,http://54.235.29.9/FacialAge/BNav_EC2/DepthDuration/v2_depth_duration_MTurk/v2_DepthDuration_HTML.html#144,144,1364,657,1364,768,9-4-2022,10-40-43,137,depth_duration_stimuli/003081_2014-06-15_15-19-16_094959634447_rgbf000150-resize_1/003081_2014-06-15_15-19-16_094959634447_rgbf000150-resize_1-target.png,250,3.9125,2,5786,244,meters,jsons/v1_VE250_randls_69.json,1553859,2219509,26,Man
137,603376,DepthScenes,duration_manipulation_targetAtFixation,jsons/v1_VE250_randls_69.json,http://54.235.29.9/FacialAge/BNav_EC2/DepthDuration/v2_depth_duration_MTurk/v2_DepthDuration_HTML.html#144,144,1364,657,1364,768,9-4-2022,10-40-43,138,depth_duration_stimuli/001133_2014-06-17_14-49-16_260595134347_rgbf000100-resize_0/001133_2014-06-17_14-49-16_260595134347_rgbf000100-resize_0-target.png,250,4.2115,2,8785,240,meters,jsons/v1_VE250_randls_69.json,1553859,2219509,26,Man
138,603376,DepthScenes,duration_manipulation_targetAtFixation,jsons/v1_VE250_randls_69.json,http://54.235.29.9/FacialAge/BNav_EC2/DepthDuration/v2_depth_duration_MTurk/v2_DepthDuration_HTML.html#144,144,1364,657,1364,768,9-4-2022,10-40-43,139,depth_duration_stimuli/001132_2014-06-17_14-48-54_260595134347_rgbf000100-resize_2/001132_2014-06-17_14-48-54_260595134347_rgbf000100-resize_2-target.png,250,3.753,1,6637,236,meters,jsons/v1_VE250_randls_69.json,1553859,2219509,26,Man
139,603376,DepthScenes,duration_manipulation_targetAtFixation,jsons/v1_VE250_randls_69.json,http://54.235.29.9/FacialAge/BNav_EC2/DepthDuration/v2_depth_duration_MTurk/v2_DepthDuration_HTML.html#144,144,1364,657,1364,768,9-4-2022,10-40-43,140,depth_duration_stimuli/003292_2014-05-14_21-53-49_094959634447_rgbf000100-resize_2/003292_2014-05-14_21-53-49_094959634447_rgbf000100-resize_2-target.png,250,3.4815,2,9067,256,meters,jsons/v1_VE250_randls_69.json,1553859,2219509,26,Man
140,603376,DepthScenes,duration_manipulation_targetAtFixation,jsons/v1_VE250_randls_69.json,http://54.235.29.9/FacialAge/BNav_EC2/DepthDuration/v2_depth_duration_MTurk/v2_DepthDuration_HTML.html#144,144,1364,657,1364,768,9-4-2022,10-40-43,141,depth_duration_stimuli/002639_2014-06-24_14-51-37_094959634447_rgbf000074-resize_4/002639_2014-06-24_14-51-37_094959634447_rgbf000074-resize_4-target.png,250,4.0375,2,5307,230,meters,jsons/v1_VE250_randls_69.json,1553859,2219509,26,Man
141,603376,DepthScenes,duration_manipulation_targetAtFixation,jsons/v1_VE250_randls_69.json,http://54.235.29.9/FacialAge/BNav_EC2/DepthDuration/v2_depth_duration_MTurk/v2_DepthDuration_HTML.html#144,144,1364,657,1364,768,9-4-2022,10-40-43,142,depth_duration_stimuli/000736_2014-06-08_18-24-15_260595134347_rgbf000206-resize_3/000736_2014-06-08_18-24-15_260595134347_rgbf000206-resize_3-target.png,250,3.515,3,6963,266,meters,jsons/v1_VE250_randls_69.json,1553859,2219509,26,Man
142,603376,DepthScenes,duration_manipulation_targetAtFixation,jsons/v1_VE250_randls_69.json,http://54.235.29.9/FacialAge/BNav_EC2/DepthDuration/v2_depth_duration_MTurk/v2_DepthDuration_HTML.html#144,144,1364,657,1364,768,9-4-2022,10-40-43,143,depth_duration_stimuli/000137_2014-05-20_17-04-49_260595134347_rgbf000120-resize_1/000137_2014-05-20_17-04-49_260595134347_rgbf000120-resize_1-target.png,250,3.786,2,5369,262,meters,jsons/v1_VE250_randls_69.json,1553859,2219509,26,Man
143,603376,DepthScenes,duration_manipulation_targetAtFixation,jsons/v1_VE250_randls_69.json,http://54.235.29.9/FacialAge/BNav_EC2/DepthDuration/v2_depth_duration_MTurk/v2_DepthDuration_HTML.html#144,144,1364,657,1364,768,9-4-2022,10-40-43,144,depth_duration_stimuli/002043_2014-06-24_20-29-38_260595134347_rgbf000039-resize_4/002043_2014-06-24_20-29-38_260595134347_rgbf000039-resize_4-target.png,250,2.8435,2,29034,242,meters,jsons/v1_VE250_randls_69.json,1553859,2219509,26,Man
144,603376,DepthScenes,duration_manipulation_targetAtFixation,jsons/v1_VE250_randls_69.json,http://54.235.29.9/FacialAge/BNav_EC2/DepthDuration/v2_depth_duration_MTurk/v2_DepthDuration_HTML.html#144,144,1364,657,1364,768,9-4-2022,10-40-43,145,depth_duration_stimuli/003048_2014-06-15_13-49-43_094959634447_rgbf000150-resize_1/003048_2014-06-15_13-49-43_094959634447_rgbf000150-resize_1-target.png,250,4.0035,4,7429,257,meters,jsons/v1_VE250_randls_69.json,1553859,2219509,26,Man
145,603376,DepthScenes,duration_manipulation_targetAtFixation,jsons/v1_VE250_randls_69.json,http://54.235.29.9/FacialAge/BNav_EC2/DepthDuration/v2_depth_duration_MTurk/v2_DepthDuration_HTML.html#144,144,1364,657,1364,768,9-4-2022,10-40-43,146,depth_duration_stimuli/001498_2014-06-19_17-45-14_260595134347_rgbf000129-resize_4/001498_2014-06-19_17-45-14_260595134347_rgbf000129-resize-original.jpg,250,1.4075,3,20177,237,meters,jsons/v1_VE250_randls_69.json,1553859,2219509,26,Man
146,603376,DepthScenes,duration_manipulation_targetAtFixation,jsons/v1_VE250_randls_69.json,http://54.235.29.9/FacialAge/BNav_EC2/DepthDuration/v2_depth_duration_MTurk/v2_DepthDuration_HTML.html#144,144,1364,657,1364,768,9-4-2022,10-40-43,147,depth_duration_stimuli/002788_2014-06-22_19-36-03_094959634447_rgbf000088-resize_2/002788_2014-06-22_19-36-03_094959634447_rgbf000088-resize_2-target.png,250,1.6465,2,6799,282,meters,jsons/v1_VE250_randls_69.json,1553859,2219509,26,Man
147,603376,DepthScenes,duration_manipulation_targetAtFixation,jsons/v1_VE250_randls_69.json,http://54.235.29.9/FacialAge/BNav_EC2/DepthDuration/v2_depth_duration_MTurk/v2_DepthDuration_HTML.html#144,144,1364,657,1364,768,9-4-2022,10-40-43,148,depth_duration_stimuli/000749_2014-06-08_21-55-06_260595134347_rgbf000070-resize_2/000749_2014-06-08_21-55-06_260595134347_rgbf000070-resize_2-target.png,250,2.331,4,9212,240,meters,jsons/v1_VE250_randls_69.json,1553859,2219509,26,Man
148,603376,DepthScenes,duration_manipulation_targetAtFixation,jsons/v1_VE250_randls_69.json,http://54.235.29.9/FacialAge/BNav_EC2/DepthDuration/v2_depth_duration_MTurk/v2_DepthDuration_HTML.html#144,144,1364,657,1364,768,9-4-2022,10-40-43,149,depth_duration_stimuli/002663_2014-06-13_15-50-26_094959634447_rgbf000075-resize_1/002663_2014-06-13_15-50-26_094959634447_rgbf000075-resize_1-target.png,250,4.7495,2,9901,261,meters,jsons/v1_VE250_randls_69.json,1553859,2219509,26,Man
149,603376,DepthScenes,duration_manipulation_targetAtFixation,jsons/v1_VE250_randls_69.json,http://54.235.29.9/FacialAge/BNav_EC2/DepthDuration/v2_depth_duration_MTurk/v2_DepthDuration_HTML.html#144,144,1364,657,1364,768,9-4-2022,10-40-43,150,depth_duration_stimuli/000409_2014-06-04_19-23-33_260595134347_rgbf000067-resize_0/000409_2014-06-04_19-23-33_260595134347_rgbf000067-resize_0-target.png,250,3.7335,2,10638,252,meters,jsons/v1_VE250_randls_69.json,1553859,2219509,26,Man
150,603376,DepthScenes,duration_manipulation_targetAtFixation,jsons/v1_VE250_randls_69.json,http://54.235.29.9/FacialAge/BNav_EC2/DepthDuration/v2_depth_duration_MTurk/v2_DepthDuration_HTML.html#144,144,1364,657,1364,768,9-4-2022,10-40-43,151,depth_duration_stimuli/003534_2014-05-22_15-06-10_094959634447_rgbf000102-resize_4/003534_2014-05-22_15-06-10_094959634447_rgbf000102-resize_4-target.png,250,1.426,2,7393,247,meters,jsons/v1_VE250_randls_69.json,1553859,2219509,26,Man
151,603376,DepthScenes,duration_manipulation_targetAtFixation,jsons/v1_VE250_randls_69.json,http://54.235.29.9/FacialAge/BNav_EC2/DepthDuration/v2_depth_duration_MTurk/v2_DepthDuration_HTML.html#144,144,1364,657,1364,768,9-4-2022,10-40-43,152,depth_duration_stimuli/002637_2014-06-24_14-51-13_094959634447_rgbf000066-resize_4/002637_2014-06-24_14-51-13_094959634447_rgbf000066-resize_4-target.png,250,1.9955,2,6226,227,meters,jsons/v1_VE250_randls_69.json,1553859,2219509,26,Man
152,603376,DepthScenes,duration_manipulation_targetAtFixation,jsons/v1_VE250_randls_69.json,http://54.235.29.9/FacialAge/BNav_EC2/DepthDuration/v2_depth_duration_MTurk/v2_DepthDuration_HTML.html#144,144,1364,657,1364,768,9-4-2022,10-40-43,153,depth_duration_stimuli/001167_2014-06-17_15-38-07_260595134347_rgbf000108-resize_0/001167_2014-06-17_15-38-07_260595134347_rgbf000108-resize_0-target.png,250,1.8505,1,8450,249,meters,jsons/v1_VE250_randls_69.json,1553859,2219509,26,Man
153,603376,DepthScenes,duration_manipulation_targetAtFixation,jsons/v1_VE250_randls_69.json,http://54.235.29.9/FacialAge/BNav_EC2/DepthDuration/v2_depth_duration_MTurk/v2_DepthDuration_HTML.html#144,144,1364,657,1364,768,9-4-2022,10-40-43,154,depth_duration_stimuli/003587_2014-05-23_16-48-02_094959634447_rgbf002384-resize_2/003587_2014-05-23_16-48-02_094959634447_rgbf002384-resize_2-target.png,250,1.357,1,5486,237,meters,jsons/v1_VE250_randls_69.json,1553859,2219509,26,Man
154,603376,DepthScenes,duration_manipulation_targetAtFixation,jsons/v1_VE250_randls_69.json,http://54.235.29.9/FacialAge/BNav_EC2/DepthDuration/v2_depth_duration_MTurk/v2_DepthDuration_HTML.html#144,144,1364,657,1364,768,9-4-2022,10-40-43,155,depth_duration_stimuli/000414_2014-06-04_19-49-13_260595134347_rgbf000044-resize_0/000414_2014-06-04_19-49-13_260595134347_rgbf000044-resize_0-target.png,250,4.329,1,6128,249,meters,jsons/v1_VE250_randls_69.json,1553859,2219509,26,Man
155,603376,DepthScenes,duration_manipulation_targetAtFixation,jsons/v1_VE250_randls_69.json,http://54.235.29.9/FacialAge/BNav_EC2/DepthDuration/v2_depth_duration_MTurk/v2_DepthDuration_HTML.html#144,144,1364,657,1364,768,9-4-2022,10-40-43,156,depth_duration_stimuli/003129_2014-05-12_10-48-10_094959634447_rgbf000100-resize_0/003129_2014-05-12_10-48-10_094959634447_rgbf000100-resize_0-target.png,250,4.9305,2,6282,250,meters,jsons/v1_VE250_randls_69.json,1553859,2219509,26,Man
156,603376,DepthScenes,duration_manipulation_targetAtFixation,jsons/v1_VE250_randls_69.json,http://54.235.29.9/FacialAge/BNav_EC2/DepthDuration/v2_depth_duration_MTurk/v2_DepthDuration_HTML.html#144,144,1364,657,1364,768,9-4-2022,10-40-43,157,depth_duration_stimuli/001199_2014-06-17_16-03-48_260595134347_rgbf000077-resize_0/001199_2014-06-17_16-03-48_260595134347_rgbf000077-resize_0-target.png,250,3.4375,1,5596,244,meters,jsons/v1_VE250_randls_69.json,1553859,2219509,26,Man
157,603376,DepthScenes,duration_manipulation_targetAtFixation,jsons/v1_VE250_randls_69.json,http://54.235.29.9/FacialAge/BNav_EC2/DepthDuration/v2_depth_duration_MTurk/v2_DepthDuration_HTML.html#144,144,1364,657,1364,768,9-4-2022,10-40-43,158,depth_duration_stimuli/000502_2014-06-08_23-02-32_260595134347_rgbf000063-resize_4/000502_2014-06-08_23-02-32_260595134347_rgbf000063-resize_4-target.png,250,2.431,3,4833,246,meters,jsons/v1_VE250_randls_69.json,1553859,2219509,26,Man
158,603376,DepthScenes,duration_manipulation_targetAtFixation,jsons/v1_VE250_randls_69.json,http://54.235.29.9/FacialAge/BNav_EC2/DepthDuration/v2_depth_duration_MTurk/v2_DepthDuration_HTML.html#144,144,1364,657,1364,768,9-4-2022,10-40-43,159,depth_duration_stimuli/000447_2014-06-08_16-15-46_260595134347_rgbf000130-resize_1/000447_2014-06-08_16-15-46_260595134347_rgbf000130-resize_1-target.png,250,4.479,2,5800,244,meters,jsons/v1_VE250_randls_69.json,1553859,2219509,26,Man
159,603376,DepthScenes,duration_manipulation_targetAtFixation,jsons/v1_VE250_randls_69.json,http://54.235.29.9/FacialAge/BNav_EC2/DepthDuration/v2_depth_duration_MTurk/v2_DepthDuration_HTML.html#144,144,1364,657,1364,768,9-4-2022,10-40-43,160,depth_duration_stimuli/001447_2014-06-19_17-00-32_260595134347_rgbf000082-resize_5/001447_2014-06-19_17-00-32_260595134347_rgbf000082-resize_5-target.png,250,4.13775,2,7987,259,meters,jsons/v1_VE250_randls_69.json,1553859,2219509,26,Man
160,603376,DepthScenes,duration_manipulation_targetAtFixation,jsons/v1_VE250_randls_69.json,http://54.235.29.9/FacialAge/BNav_EC2/DepthDuration/v2_depth_duration_MTurk/v2_DepthDuration_HTML.html#144,144,1364,657,1364,768,9-4-2022,10-40-43,161,depth_duration_stimuli/002213_2014-06-28_18-37-58_260595134347_rgbf000055-resize_1/002213_2014-06-28_18-37-58_260595134347_rgbf000055-resize_1-target.png,250,3.62,2,23865,238,meters,jsons/v1_VE250_randls_69.json,1553859,2219509,26,Man
161,603376,DepthScenes,duration_manipulation_targetAtFixation,jsons/v1_VE250_randls_69.json,http://54.235.29.9/FacialAge/BNav_EC2/DepthDuration/v2_depth_duration_MTurk/v2_DepthDuration_HTML.html#144,144,1364,657,1364,768,9-4-2022,10-40-43,162,depth_duration_stimuli/000691_2014-06-08_13-08-50_260595134347_rgbf000132-resize_3/000691_2014-06-08_13-08-50_260595134347_rgbf000132-resize_3-target.png,250,4.1530000000000005,3,7738,206,meters,jsons/v1_VE250_randls_69.json,1553859,2219509,26,Man
162,603376,DepthScenes,duration_manipulation_targetAtFixation,jsons/v1_VE250_randls_69.json,http://54.235.29.9/FacialAge/BNav_EC2/DepthDuration/v2_depth_duration_MTurk/v2_DepthDuration_HTML.html#144,144,1364,657,1364,768,9-4-2022,10-40-43,163,depth_duration_stimuli/002445_2014-06-28_20-32-16_260595134347_rgbf000029-resize_4/002445_2014-06-28_20-32-16_260595134347_rgbf000029-resize_4-target.png,250,2.5315,2,9075,225,meters,jsons/v1_VE250_randls_69.json,1553859,2219509,26,Man
163,603376,DepthScenes,duration_manipulation_targetAtFixation,jsons/v1_VE250_randls_69.json,http://54.235.29.9/FacialAge/BNav_EC2/DepthDuration/v2_depth_duration_MTurk/v2_DepthDuration_HTML.html#144,144,1364,657,1364,768,9-4-2022,10-40-43,164,depth_duration_stimuli/000780_2014-06-08_22-28-29_260595134347_rgbf000126-resize_1/000780_2014-06-08_22-28-29_260595134347_rgbf000126-resize_1-target.png,250,3.3825,2,10211,262,meters,jsons/v1_VE250_randls_69.json,1553859,2219509,26,Man
