,subjID,experimentName,versionName,sequenceName,url,selected_row,windowWidth,windowHeight,screenWidth,screenHeight,startDate,startTime,trial,stimulus,duration,actual_depth,depth_estimate,trial_RT,log_sceneDuration,unitSelection,seq_filepath,experimentTime,totalTime,age,gender
0,603422,DepthScenes,duration_manipulation_targetAtFixation,jsons/v1_VE1000_randls_22.json,http://54.235.29.9/FacialAge/BNav_EC2/DepthDuration/v2_depth_duration_MTurk/v2_DepthDuration_HTML.html#419,419,1366,625,1366,768,8-29-2022,10-41-9,1,depth_duration_stimuli/001806_2014-06-26_20-50-20_260595134347_rgbf000091-resize_1/001806_2014-06-26_20-50-20_260595134347_rgbf000091-resize_1-target.png,1000,2.7305,2,3539,997,feet,jsons/v1_VE1000_randls_22.json,817749,1300238,35,Woman
1,603422,DepthScenes,duration_manipulation_targetAtFixation,jsons/v1_VE1000_randls_22.json,http://54.235.29.9/FacialAge/BNav_EC2/DepthDuration/v2_depth_duration_MTurk/v2_DepthDuration_HTML.html#419,419,1366,625,1366,768,8-29-2022,10-41-9,2,depth_duration_stimuli/001617_2014-06-20_11-35-32_260595134347_rgbf000066-resize_1/001617_2014-06-20_11-35-32_260595134347_rgbf000066-resize_1-target.png,1000,3.7910000000000004,5,3773,1000,feet,jsons/v1_VE1000_randls_22.json,817749,1300238,35,Woman
2,603422,DepthScenes,duration_manipulation_targetAtFixation,jsons/v1_VE1000_randls_22.json,http://54.235.29.9/FacialAge/BNav_EC2/DepthDuration/v2_depth_duration_MTurk/v2_DepthDuration_HTML.html#419,419,1366,625,1366,768,8-29-2022,10-41-9,3,depth_duration_stimuli/003492_2014-05-21_15-50-55_094959634447_rgbf000828-resize_1/003492_2014-05-21_15-50-55_094959634447_rgbf000828-resize_1-target.png,1000,4.06875,1,3558,999,feet,jsons/v1_VE1000_randls_22.json,817749,1300238,35,Woman
3,603422,DepthScenes,duration_manipulation_targetAtFixation,jsons/v1_VE1000_randls_22.json,http://54.235.29.9/FacialAge/BNav_EC2/DepthDuration/v2_depth_duration_MTurk/v2_DepthDuration_HTML.html#419,419,1366,625,1366,768,8-29-2022,10-41-9,4,depth_duration_stimuli/002568_2014-06-24_13-59-21_094959634447_rgbf000062-resize_4/002568_2014-06-24_13-59-21_094959634447_rgbf000062-resize_4-target.png,1000,3.015,3,3719,995,feet,jsons/v1_VE1000_randls_22.json,817749,1300238,35,Woman
4,603422,DepthScenes,duration_manipulation_targetAtFixation,jsons/v1_VE1000_randls_22.json,http://54.235.29.9/FacialAge/BNav_EC2/DepthDuration/v2_depth_duration_MTurk/v2_DepthDuration_HTML.html#419,419,1366,625,1366,768,8-29-2022,10-41-9,5,depth_duration_stimuli/002279_2014-06-28_18-55-32_260595134347_rgbf000040-resize_5/002279_2014-06-28_18-55-32_260595134347_rgbf000040-resize_5-target.png,1000,1.5043333333333,1,4037,989,feet,jsons/v1_VE1000_randls_22.json,817749,1300238,35,Woman
5,603422,DepthScenes,duration_manipulation_targetAtFixation,jsons/v1_VE1000_randls_22.json,http://54.235.29.9/FacialAge/BNav_EC2/DepthDuration/v2_depth_duration_MTurk/v2_DepthDuration_HTML.html#419,419,1366,625,1366,768,8-29-2022,10-41-9,6,depth_duration_stimuli/000635_2014-06-08_16-38-42_260595134347_rgbf000106-resize_1/000635_2014-06-08_16-38-42_260595134347_rgbf000106-resize_1-target.png,1000,2.074,2,12400,1001,feet,jsons/v1_VE1000_randls_22.json,817749,1300238,35,Woman
6,603422,DepthScenes,duration_manipulation_targetAtFixation,jsons/v1_VE1000_randls_22.json,http://54.235.29.9/FacialAge/BNav_EC2/DepthDuration/v2_depth_duration_MTurk/v2_DepthDuration_HTML.html#419,419,1366,625,1366,768,8-29-2022,10-41-9,7,depth_duration_stimuli/002549_2014-06-24_13-41-39_094959634447_rgbf000022-resize_3/002549_2014-06-24_13-41-39_094959634447_rgbf000022-resize_3-target.png,1000,1.476,5,3977,1007,feet,jsons/v1_VE1000_randls_22.json,817749,1300238,35,Woman
7,603422,DepthScenes,duration_manipulation_targetAtFixation,jsons/v1_VE1000_randls_22.json,http://54.235.29.9/FacialAge/BNav_EC2/DepthDuration/v2_depth_duration_MTurk/v2_DepthDuration_HTML.html#419,419,1366,625,1366,768,8-29-2022,10-41-9,8,depth_duration_stimuli/002750_2014-06-22_19-08-03_094959634447_rgbf000094-resize_4/002750_2014-06-22_19-08-03_094959634447_rgbf000094-resize_4-target.png,1000,2.354,2,2983,997,feet,jsons/v1_VE1000_randls_22.json,817749,1300238,35,Woman
8,603422,DepthScenes,duration_manipulation_targetAtFixation,jsons/v1_VE1000_randls_22.json,http://54.235.29.9/FacialAge/BNav_EC2/DepthDuration/v2_depth_duration_MTurk/v2_DepthDuration_HTML.html#419,419,1366,625,1366,768,8-29-2022,10-41-9,9,depth_duration_stimuli/001011_2014-06-08_23-18-54_260595134347_rgbf000044-resize_4/001011_2014-06-08_23-18-54_260595134347_rgbf000044-resize_4-target.png,1000,2.4730000000000003,2,3847,1012,feet,jsons/v1_VE1000_randls_22.json,817749,1300238,35,Woman
9,603422,DepthScenes,duration_manipulation_targetAtFixation,jsons/v1_VE1000_randls_22.json,http://54.235.29.9/FacialAge/BNav_EC2/DepthDuration/v2_depth_duration_MTurk/v2_DepthDuration_HTML.html#419,419,1366,625,1366,768,8-29-2022,10-41-9,10,depth_duration_stimuli/002875_2014-06-01_15-19-00_094959634447_rgbf000151-resize_1/002875_2014-06-01_15-19-00_094959634447_rgbf000151-resize_1-target.png,1000,1.9675,6,3211,998,feet,jsons/v1_VE1000_randls_22.json,817749,1300238,35,Woman
10,603422,DepthScenes,duration_manipulation_targetAtFixation,jsons/v1_VE1000_randls_22.json,http://54.235.29.9/FacialAge/BNav_EC2/DepthDuration/v2_depth_duration_MTurk/v2_DepthDuration_HTML.html#419,419,1366,625,1366,768,8-29-2022,10-41-9,11,depth_duration_stimuli/000414_2014-06-04_19-49-13_260595134347_rgbf000044-resize_0/000414_2014-06-04_19-49-13_260595134347_rgbf000044-resize_0-target.png,1000,4.329,2,3037,1002,feet,jsons/v1_VE1000_randls_22.json,817749,1300238,35,Woman
11,603422,DepthScenes,duration_manipulation_targetAtFixation,jsons/v1_VE1000_randls_22.json,http://54.235.29.9/FacialAge/BNav_EC2/DepthDuration/v2_depth_duration_MTurk/v2_DepthDuration_HTML.html#419,419,1366,625,1366,768,8-29-2022,10-41-9,12,depth_duration_stimuli/003129_2014-05-12_10-48-10_094959634447_rgbf000100-resize_0/003129_2014-05-12_10-48-10_094959634447_rgbf000100-resize_0-target.png,1000,4.9305,1,2920,1002,feet,jsons/v1_VE1000_randls_22.json,817749,1300238,35,Woman
12,603422,DepthScenes,duration_manipulation_targetAtFixation,jsons/v1_VE1000_randls_22.json,http://54.235.29.9/FacialAge/BNav_EC2/DepthDuration/v2_depth_duration_MTurk/v2_DepthDuration_HTML.html#419,419,1366,625,1366,768,8-29-2022,10-41-9,13,depth_duration_stimuli/000569_2014-06-09_22-51-47_260595134347_rgbf000141-resize_3/000569_2014-06-09_22-51-47_260595134347_rgbf000141-resize-original.jpg,1000,4.512,0,4235,997,feet,jsons/v1_VE1000_randls_22.json,817749,1300238,35,Woman
13,603422,DepthScenes,duration_manipulation_targetAtFixation,jsons/v1_VE1000_randls_22.json,http://54.235.29.9/FacialAge/BNav_EC2/DepthDuration/v2_depth_duration_MTurk/v2_DepthDuration_HTML.html#419,419,1366,625,1366,768,8-29-2022,10-41-9,14,depth_duration_stimuli/002570_2014-06-24_13-59-54_094959634447_rgbf000059-resize_0/002570_2014-06-24_13-59-54_094959634447_rgbf000059-resize_0-target.png,1000,4.037,2,3316,998,feet,jsons/v1_VE1000_randls_22.json,817749,1300238,35,Woman
14,603422,DepthScenes,duration_manipulation_targetAtFixation,jsons/v1_VE1000_randls_22.json,http://54.235.29.9/FacialAge/BNav_EC2/DepthDuration/v2_depth_duration_MTurk/v2_DepthDuration_HTML.html#419,419,1366,625,1366,768,8-29-2022,10-41-9,15,depth_duration_stimuli/002467_2014-06-28_20-38-07_260595134347_rgbf000026-resize_2/002467_2014-06-28_20-38-07_260595134347_rgbf000026-resize_2-target.png,1000,4.742,1,3276,1008,feet,jsons/v1_VE1000_randls_22.json,817749,1300238,35,Woman
15,603422,DepthScenes,duration_manipulation_targetAtFixation,jsons/v1_VE1000_randls_22.json,http://54.235.29.9/FacialAge/BNav_EC2/DepthDuration/v2_depth_duration_MTurk/v2_DepthDuration_HTML.html#419,419,1366,625,1366,768,8-29-2022,10-41-9,16,depth_duration_stimuli/002213_2014-06-28_18-37-58_260595134347_rgbf000055-resize_1/002213_2014-06-28_18-37-58_260595134347_rgbf000055-resize_1-target.png,1000,3.62,3,3419,1000,feet,jsons/v1_VE1000_randls_22.json,817749,1300238,35,Woman
16,603422,DepthScenes,duration_manipulation_targetAtFixation,jsons/v1_VE1000_randls_22.json,http://54.235.29.9/FacialAge/BNav_EC2/DepthDuration/v2_depth_duration_MTurk/v2_DepthDuration_HTML.html#419,419,1366,625,1366,768,8-29-2022,10-41-9,17,depth_duration_stimuli/000691_2014-06-08_13-08-50_260595134347_rgbf000132-resize_3/000691_2014-06-08_13-08-50_260595134347_rgbf000132-resize_3-target.png,1000,4.1530000000000005,4,3006,1009,feet,jsons/v1_VE1000_randls_22.json,817749,1300238,35,Woman
17,603422,DepthScenes,duration_manipulation_targetAtFixation,jsons/v1_VE1000_randls_22.json,http://54.235.29.9/FacialAge/BNav_EC2/DepthDuration/v2_depth_duration_MTurk/v2_DepthDuration_HTML.html#419,419,1366,625,1366,768,8-29-2022,10-41-9,18,depth_duration_stimuli/003292_2014-05-14_21-53-49_094959634447_rgbf000100-resize_2/003292_2014-05-14_21-53-49_094959634447_rgbf000100-resize_2-target.png,1000,3.4815,2,3090,999,feet,jsons/v1_VE1000_randls_22.json,817749,1300238,35,Woman
18,603422,DepthScenes,duration_manipulation_targetAtFixation,jsons/v1_VE1000_randls_22.json,http://54.235.29.9/FacialAge/BNav_EC2/DepthDuration/v2_depth_duration_MTurk/v2_DepthDuration_HTML.html#419,419,1366,625,1366,768,8-29-2022,10-41-9,19,depth_duration_stimuli/002639_2014-06-24_14-51-37_094959634447_rgbf000074-resize_4/002639_2014-06-24_14-51-37_094959634447_rgbf000074-resize_4-target.png,1000,4.0375,1,4252,1013,feet,jsons/v1_VE1000_randls_22.json,817749,1300238,35,Woman
19,603422,DepthScenes,duration_manipulation_targetAtFixation,jsons/v1_VE1000_randls_22.json,http://54.235.29.9/FacialAge/BNav_EC2/DepthDuration/v2_depth_duration_MTurk/v2_DepthDuration_HTML.html#419,419,1366,625,1366,768,8-29-2022,10-41-9,20,depth_duration_stimuli/000009_2014-05-26_14-32-05_260595134347_rgbf000034-resize_3/000009_2014-05-26_14-32-05_260595134347_rgbf000034-resize_3-target.png,1000,3.8715,5,3355,997,feet,jsons/v1_VE1000_randls_22.json,817749,1300238,35,Woman
20,603422,DepthScenes,duration_manipulation_targetAtFixation,jsons/v1_VE1000_randls_22.json,http://54.235.29.9/FacialAge/BNav_EC2/DepthDuration/v2_depth_duration_MTurk/v2_DepthDuration_HTML.html#419,419,1366,625,1366,768,8-29-2022,10-41-9,21,depth_duration_stimuli/001828_2014-06-26_21-40-03_260595134347_rgbf000024-resize_0/001828_2014-06-26_21-40-03_260595134347_rgbf000024-resize_0-target.png,1000,4.8260000000000005,5,5106,1002,feet,jsons/v1_VE1000_randls_22.json,817749,1300238,35,Woman
21,603422,DepthScenes,duration_manipulation_targetAtFixation,jsons/v1_VE1000_randls_22.json,http://54.235.29.9/FacialAge/BNav_EC2/DepthDuration/v2_depth_duration_MTurk/v2_DepthDuration_HTML.html#419,419,1366,625,1366,768,8-29-2022,10-41-9,22,depth_duration_stimuli/000929_2014-06-09_16-33-19_260595134347_rgbf000139-resize_0/000929_2014-06-09_16-33-19_260595134347_rgbf000139-resize_0-target.png,1000,2.8680000000000003,2,3320,996,feet,jsons/v1_VE1000_randls_22.json,817749,1300238,35,Woman
22,603422,DepthScenes,duration_manipulation_targetAtFixation,jsons/v1_VE1000_randls_22.json,http://54.235.29.9/FacialAge/BNav_EC2/DepthDuration/v2_depth_duration_MTurk/v2_DepthDuration_HTML.html#419,419,1366,625,1366,768,8-29-2022,10-41-9,23,depth_duration_stimuli/000457_2014-06-08_16-52-43_260595134347_rgbf000199-resize_1/000457_2014-06-08_16-52-43_260595134347_rgbf000199-resize_1-target.png,1000,3.6489999999999996,1,3663,999,feet,jsons/v1_VE1000_randls_22.json,817749,1300238,35,Woman
23,603422,DepthScenes,duration_manipulation_targetAtFixation,jsons/v1_VE1000_randls_22.json,http://54.235.29.9/FacialAge/BNav_EC2/DepthDuration/v2_depth_duration_MTurk/v2_DepthDuration_HTML.html#419,419,1366,625,1366,768,8-29-2022,10-41-9,24,depth_duration_stimuli/000447_2014-06-08_16-15-46_260595134347_rgbf000130-resize_1/000447_2014-06-08_16-15-46_260595134347_rgbf000130-resize_1-target.png,1000,4.479,1,3653,988,feet,jsons/v1_VE1000_randls_22.json,817749,1300238,35,Woman
24,603422,DepthScenes,duration_manipulation_targetAtFixation,jsons/v1_VE1000_randls_22.json,http://54.235.29.9/FacialAge/BNav_EC2/DepthDuration/v2_depth_duration_MTurk/v2_DepthDuration_HTML.html#419,419,1366,625,1366,768,8-29-2022,10-41-9,25,depth_duration_stimuli/001447_2014-06-19_17-00-32_260595134347_rgbf000082-resize_5/001447_2014-06-19_17-00-32_260595134347_rgbf000082-resize_5-target.png,1000,4.13775,2,3230,986,feet,jsons/v1_VE1000_randls_22.json,817749,1300238,35,Woman
25,603422,DepthScenes,duration_manipulation_targetAtFixation,jsons/v1_VE1000_randls_22.json,http://54.235.29.9/FacialAge/BNav_EC2/DepthDuration/v2_depth_duration_MTurk/v2_DepthDuration_HTML.html#419,419,1366,625,1366,768,8-29-2022,10-41-9,26,depth_duration_stimuli/000522_2014-06-08_13-35-06_260595134347_rgbf000244-resize_1/000522_2014-06-08_13-35-06_260595134347_rgbf000244-resize_1-target.png,1000,2.3715,3,4243,1009,feet,jsons/v1_VE1000_randls_22.json,817749,1300238,35,Woman
26,603422,DepthScenes,duration_manipulation_targetAtFixation,jsons/v1_VE1000_randls_22.json,http://54.235.29.9/FacialAge/BNav_EC2/DepthDuration/v2_depth_duration_MTurk/v2_DepthDuration_HTML.html#419,419,1366,625,1366,768,8-29-2022,10-41-9,27,depth_duration_stimuli/002949_2014-06-26_15-57-42_094959634447_rgbf000079-resize_1/002949_2014-06-26_15-57-42_094959634447_rgbf000079-resize_1-target.png,1000,1.8915,5,3891,1000,feet,jsons/v1_VE1000_randls_22.json,817749,1300238,35,Woman
27,603422,DepthScenes,duration_manipulation_targetAtFixation,jsons/v1_VE1000_randls_22.json,http://54.235.29.9/FacialAge/BNav_EC2/DepthDuration/v2_depth_duration_MTurk/v2_DepthDuration_HTML.html#419,419,1366,625,1366,768,8-29-2022,10-41-9,28,depth_duration_stimuli/000486_2014-06-09_20-47-20_260595134347_rgbf000143-resize_2/000486_2014-06-09_20-47-20_260595134347_rgbf000143-resize_2-target.png,1000,4.8325,2,3960,999,feet,jsons/v1_VE1000_randls_22.json,817749,1300238,35,Woman
28,603422,DepthScenes,duration_manipulation_targetAtFixation,jsons/v1_VE1000_randls_22.json,http://54.235.29.9/FacialAge/BNav_EC2/DepthDuration/v2_depth_duration_MTurk/v2_DepthDuration_HTML.html#419,419,1366,625,1366,768,8-29-2022,10-41-9,29,depth_duration_stimuli/003083_2014-06-15_15-21-03_094959634447_rgbf000063-resize_1/003083_2014-06-15_15-21-03_094959634447_rgbf000063-resize_1-target.png,1000,4.1405,1,3509,998,feet,jsons/v1_VE1000_randls_22.json,817749,1300238,35,Woman
29,603422,DepthScenes,duration_manipulation_targetAtFixation,jsons/v1_VE1000_randls_22.json,http://54.235.29.9/FacialAge/BNav_EC2/DepthDuration/v2_depth_duration_MTurk/v2_DepthDuration_HTML.html#419,419,1366,625,1366,768,8-29-2022,10-41-9,30,depth_duration_stimuli/000375_2014-06-08_11-17-29_260595134347_rgbf000133-resize_2/000375_2014-06-08_11-17-29_260595134347_rgbf000133-resize-original.jpg,1000,4.718,0,4271,1001,feet,jsons/v1_VE1000_randls_22.json,817749,1300238,35,Woman
30,603422,DepthScenes,duration_manipulation_targetAtFixation,jsons/v1_VE1000_randls_22.json,http://54.235.29.9/FacialAge/BNav_EC2/DepthDuration/v2_depth_duration_MTurk/v2_DepthDuration_HTML.html#419,419,1366,625,1366,768,8-29-2022,10-41-9,31,depth_duration_stimuli/000906_2014-06-08_13-35-43_260595134347_rgbf000155-resize_1/000906_2014-06-08_13-35-43_260595134347_rgbf000155-resize_1-target.png,1000,2.8489999999999998,6,5494,999,feet,jsons/v1_VE1000_randls_22.json,817749,1300238,35,Woman
31,603422,DepthScenes,duration_manipulation_targetAtFixation,jsons/v1_VE1000_randls_22.json,http://54.235.29.9/FacialAge/BNav_EC2/DepthDuration/v2_depth_duration_MTurk/v2_DepthDuration_HTML.html#419,419,1366,625,1366,768,8-29-2022,10-41-9,32,depth_duration_stimuli/002805_2014-06-22_19-54-03_094959634447_rgbf000079-resize_1/002805_2014-06-22_19-54-03_094959634447_rgbf000079-resize_1-target.png,1000,3.1439999999999997,3,3742,1000,feet,jsons/v1_VE1000_randls_22.json,817749,1300238,35,Woman
32,603422,DepthScenes,duration_manipulation_targetAtFixation,jsons/v1_VE1000_randls_22.json,http://54.235.29.9/FacialAge/BNav_EC2/DepthDuration/v2_depth_duration_MTurk/v2_DepthDuration_HTML.html#419,419,1366,625,1366,768,8-29-2022,10-41-9,33,depth_duration_stimuli/002725_2014-06-22_11-47-51_094959634447_rgbf000070-resize_1/002725_2014-06-22_11-47-51_094959634447_rgbf000070-resize_1-target.png,1000,2.195,5,3490,998,feet,jsons/v1_VE1000_randls_22.json,817749,1300238,35,Woman
33,603422,DepthScenes,duration_manipulation_targetAtFixation,jsons/v1_VE1000_randls_22.json,http://54.235.29.9/FacialAge/BNav_EC2/DepthDuration/v2_depth_duration_MTurk/v2_DepthDuration_HTML.html#419,419,1366,625,1366,768,8-29-2022,10-41-9,34,depth_duration_stimuli/002344_2014-06-28_20-06-29_260595134347_rgbf000030-resize_1/002344_2014-06-28_20-06-29_260595134347_rgbf000030-resize_1-target.png,1000,1.5795,2,4112,998,feet,jsons/v1_VE1000_randls_22.json,817749,1300238,35,Woman
34,603422,DepthScenes,duration_manipulation_targetAtFixation,jsons/v1_VE1000_randls_22.json,http://54.235.29.9/FacialAge/BNav_EC2/DepthDuration/v2_depth_duration_MTurk/v2_DepthDuration_HTML.html#419,419,1366,625,1366,768,8-29-2022,10-41-9,35,depth_duration_stimuli/003534_2014-05-22_15-06-10_094959634447_rgbf000102-resize_4/003534_2014-05-22_15-06-10_094959634447_rgbf000102-resize_4-target.png,1000,1.426,3,3161,998,feet,jsons/v1_VE1000_randls_22.json,817749,1300238,35,Woman
35,603422,DepthScenes,duration_manipulation_targetAtFixation,jsons/v1_VE1000_randls_22.json,http://54.235.29.9/FacialAge/BNav_EC2/DepthDuration/v2_depth_duration_MTurk/v2_DepthDuration_HTML.html#419,419,1366,625,1366,768,8-29-2022,10-41-9,36,depth_duration_stimuli/002637_2014-06-24_14-51-13_094959634447_rgbf000066-resize_4/002637_2014-06-24_14-51-13_094959634447_rgbf000066-resize_4-target.png,1000,1.9955,2,3750,1000,feet,jsons/v1_VE1000_randls_22.json,817749,1300238,35,Woman
36,603422,DepthScenes,duration_manipulation_targetAtFixation,jsons/v1_VE1000_randls_22.json,http://54.235.29.9/FacialAge/BNav_EC2/DepthDuration/v2_depth_duration_MTurk/v2_DepthDuration_HTML.html#419,419,1366,625,1366,768,8-29-2022,10-41-9,37,depth_duration_stimuli/002057_2014-06-24_21-00-13_260595134347_rgbf000120-resize_1/002057_2014-06-24_21-00-13_260595134347_rgbf000120-resize_1-target.png,1000,2.967,1,3602,995,feet,jsons/v1_VE1000_randls_22.json,817749,1300238,35,Woman
37,603422,DepthScenes,duration_manipulation_targetAtFixation,jsons/v1_VE1000_randls_22.json,http://54.235.29.9/FacialAge/BNav_EC2/DepthDuration/v2_depth_duration_MTurk/v2_DepthDuration_HTML.html#419,419,1366,625,1366,768,8-29-2022,10-41-9,38,depth_duration_stimuli/000709_2014-06-08_13-51-55_260595134347_rgbf000068-resize_3/000709_2014-06-08_13-51-55_260595134347_rgbf000068-resize_3-target.png,1000,1.8030000000000002,3,3029,1000,feet,jsons/v1_VE1000_randls_22.json,817749,1300238,35,Woman
38,603422,DepthScenes,duration_manipulation_targetAtFixation,jsons/v1_VE1000_randls_22.json,http://54.235.29.9/FacialAge/BNav_EC2/DepthDuration/v2_depth_duration_MTurk/v2_DepthDuration_HTML.html#419,419,1366,625,1366,768,8-29-2022,10-41-9,39,depth_duration_stimuli/002509_2014-06-24_13-19-22_094959634447_rgbf000077-resize_0/002509_2014-06-24_13-19-22_094959634447_rgbf000077-resize_0-target.png,1000,1.3065,5,3433,989,feet,jsons/v1_VE1000_randls_22.json,817749,1300238,35,Woman
39,603422,DepthScenes,duration_manipulation_targetAtFixation,jsons/v1_VE1000_randls_22.json,http://54.235.29.9/FacialAge/BNav_EC2/DepthDuration/v2_depth_duration_MTurk/v2_DepthDuration_HTML.html#419,419,1366,625,1366,768,8-29-2022,10-41-9,40,depth_duration_stimuli/003338_2014-05-20_11-01-23_094959634447_rgbf000051-resize_6/003338_2014-05-20_11-01-23_094959634447_rgbf000051-resize_6-target.png,1000,1.693,2,2957,1001,feet,jsons/v1_VE1000_randls_22.json,817749,1300238,35,Woman
40,603422,DepthScenes,duration_manipulation_targetAtFixation,jsons/v1_VE1000_randls_22.json,http://54.235.29.9/FacialAge/BNav_EC2/DepthDuration/v2_depth_duration_MTurk/v2_DepthDuration_HTML.html#419,419,1366,625,1366,768,8-29-2022,10-41-9,41,depth_duration_stimuli/000470_2014-06-09_19-42-40_260595134347_rgbf000094-resize_1/000470_2014-06-09_19-42-40_260595134347_rgbf000094-resize_1-target.png,1000,1.831,2,3254,985,feet,jsons/v1_VE1000_randls_22.json,817749,1300238,35,Woman
41,603422,DepthScenes,duration_manipulation_targetAtFixation,jsons/v1_VE1000_randls_22.json,http://54.235.29.9/FacialAge/BNav_EC2/DepthDuration/v2_depth_duration_MTurk/v2_DepthDuration_HTML.html#419,419,1366,625,1366,768,8-29-2022,10-41-9,42,depth_duration_stimuli/000109_2014-05-14_23-41-52_260595134347_rgbf000035-resize_9/000109_2014-05-14_23-41-52_260595134347_rgbf000035-resize_9-target.png,1000,1.3545,5,3031,981,feet,jsons/v1_VE1000_randls_22.json,817749,1300238,35,Woman
42,603422,DepthScenes,duration_manipulation_targetAtFixation,jsons/v1_VE1000_randls_22.json,http://54.235.29.9/FacialAge/BNav_EC2/DepthDuration/v2_depth_duration_MTurk/v2_DepthDuration_HTML.html#419,419,1366,625,1366,768,8-29-2022,10-41-9,43,depth_duration_stimuli/000788_2014-06-08_22-34-36_260595134347_rgbf000131-resize_1/000788_2014-06-08_22-34-36_260595134347_rgbf000131-resize_1-target.png,1000,3.359,2,3080,1004,feet,jsons/v1_VE1000_randls_22.json,817749,1300238,35,Woman
43,603422,DepthScenes,duration_manipulation_targetAtFixation,jsons/v1_VE1000_randls_22.json,http://54.235.29.9/FacialAge/BNav_EC2/DepthDuration/v2_depth_duration_MTurk/v2_DepthDuration_HTML.html#419,419,1366,625,1366,768,8-29-2022,10-41-9,44,depth_duration_stimuli/001235_2014-06-17_16-37-36_260595134347_rgbf000084-resize_4/001235_2014-06-17_16-37-36_260595134347_rgbf000084-resize_4-target.png,1000,3.6605,1,3023,997,feet,jsons/v1_VE1000_randls_22.json,817749,1300238,35,Woman
44,603422,DepthScenes,duration_manipulation_targetAtFixation,jsons/v1_VE1000_randls_22.json,http://54.235.29.9/FacialAge/BNav_EC2/DepthDuration/v2_depth_duration_MTurk/v2_DepthDuration_HTML.html#419,419,1366,625,1366,768,8-29-2022,10-41-9,45,depth_duration_stimuli/000787_2014-06-08_22-33-53_260595134347_rgbf000175-resize_1/000787_2014-06-08_22-33-53_260595134347_rgbf000175-resize-original.jpg,1000,4.784,0,6331,1001,feet,jsons/v1_VE1000_randls_22.json,817749,1300238,35,Woman
45,603422,DepthScenes,duration_manipulation_targetAtFixation,jsons/v1_VE1000_randls_22.json,http://54.235.29.9/FacialAge/BNav_EC2/DepthDuration/v2_depth_duration_MTurk/v2_DepthDuration_HTML.html#419,419,1366,625,1366,768,8-29-2022,10-41-9,46,depth_duration_stimuli/000469_2014-06-09_19-42-10_260595134347_rgbf000081-resize_1/000469_2014-06-09_19-42-10_260595134347_rgbf000081-resize_1-target.png,1000,1.652,3,2989,1003,feet,jsons/v1_VE1000_randls_22.json,817749,1300238,35,Woman
46,603422,DepthScenes,duration_manipulation_targetAtFixation,jsons/v1_VE1000_randls_22.json,http://54.235.29.9/FacialAge/BNav_EC2/DepthDuration/v2_depth_duration_MTurk/v2_DepthDuration_HTML.html#419,419,1366,625,1366,768,8-29-2022,10-41-9,47,depth_duration_stimuli/000483_2014-06-09_20-41-45_260595134347_rgbf000116-resize_4/000483_2014-06-09_20-41-45_260595134347_rgbf000116-resize_4-target.png,1000,1.337,2,3001,1011,feet,jsons/v1_VE1000_randls_22.json,817749,1300238,35,Woman
47,603422,DepthScenes,duration_manipulation_targetAtFixation,jsons/v1_VE1000_randls_22.json,http://54.235.29.9/FacialAge/BNav_EC2/DepthDuration/v2_depth_duration_MTurk/v2_DepthDuration_HTML.html#419,419,1366,625,1366,768,8-29-2022,10-41-9,48,depth_duration_stimuli/003621_2014-05-23_18-06-08_094959634447_rgbf000101-resize_1/003621_2014-05-23_18-06-08_094959634447_rgbf000101-resize_1-target.png,1000,3.9835,2,2967,1006,feet,jsons/v1_VE1000_randls_22.json,817749,1300238,35,Woman
48,603422,DepthScenes,duration_manipulation_targetAtFixation,jsons/v1_VE1000_randls_22.json,http://54.235.29.9/FacialAge/BNav_EC2/DepthDuration/v2_depth_duration_MTurk/v2_DepthDuration_HTML.html#419,419,1366,625,1366,768,8-29-2022,10-41-9,49,depth_duration_stimuli/001584_2014-06-20_11-07-43_260595134347_rgbf000002-resize_1/001584_2014-06-20_11-07-43_260595134347_rgbf000002-resize_1-target.png,1000,3.53,1,2900,991,feet,jsons/v1_VE1000_randls_22.json,817749,1300238,35,Woman
49,603422,DepthScenes,duration_manipulation_targetAtFixation,jsons/v1_VE1000_randls_22.json,http://54.235.29.9/FacialAge/BNav_EC2/DepthDuration/v2_depth_duration_MTurk/v2_DepthDuration_HTML.html#419,419,1366,625,1366,768,8-29-2022,10-41-9,50,depth_duration_stimuli/002788_2014-06-22_19-36-03_094959634447_rgbf000088-resize_2/002788_2014-06-22_19-36-03_094959634447_rgbf000088-resize_2-target.png,1000,1.6465,5,3508,989,feet,jsons/v1_VE1000_randls_22.json,817749,1300238,35,Woman
50,603422,DepthScenes,duration_manipulation_targetAtFixation,jsons/v1_VE1000_randls_22.json,http://54.235.29.9/FacialAge/BNav_EC2/DepthDuration/v2_depth_duration_MTurk/v2_DepthDuration_HTML.html#419,419,1366,625,1366,768,8-29-2022,10-41-9,51,depth_duration_stimuli/000749_2014-06-08_21-55-06_260595134347_rgbf000070-resize_2/000749_2014-06-08_21-55-06_260595134347_rgbf000070-resize_2-target.png,1000,2.331,2,3315,1006,feet,jsons/v1_VE1000_randls_22.json,817749,1300238,35,Woman
51,603422,DepthScenes,duration_manipulation_targetAtFixation,jsons/v1_VE1000_randls_22.json,http://54.235.29.9/FacialAge/BNav_EC2/DepthDuration/v2_depth_duration_MTurk/v2_DepthDuration_HTML.html#419,419,1366,625,1366,768,8-29-2022,10-41-9,52,depth_duration_stimuli/000810_2014-06-08_17-20-01_260595134347_rgbf000105-resize_0/000810_2014-06-08_17-20-01_260595134347_rgbf000105-resize_0-target.png,1000,1.4865,4,4836,991,feet,jsons/v1_VE1000_randls_22.json,817749,1300238,35,Woman
52,603422,DepthScenes,duration_manipulation_targetAtFixation,jsons/v1_VE1000_randls_22.json,http://54.235.29.9/FacialAge/BNav_EC2/DepthDuration/v2_depth_duration_MTurk/v2_DepthDuration_HTML.html#419,419,1366,625,1366,768,8-29-2022,10-41-9,53,depth_duration_stimuli/001214_2014-06-17_16-13-55_260595134347_rgbf000111-resize_0/001214_2014-06-17_16-13-55_260595134347_rgbf000111-resize_0-target.png,1000,2.6505,2,3154,1004,feet,jsons/v1_VE1000_randls_22.json,817749,1300238,35,Woman
53,603422,DepthScenes,duration_manipulation_targetAtFixation,jsons/v1_VE1000_randls_22.json,http://54.235.29.9/FacialAge/BNav_EC2/DepthDuration/v2_depth_duration_MTurk/v2_DepthDuration_HTML.html#419,419,1366,625,1366,768,8-29-2022,10-41-9,54,depth_duration_stimuli/000917_2014-06-09_22-45-29_260595134347_rgbf000149-resize_3/000917_2014-06-09_22-45-29_260595134347_rgbf000149-resize_3-target.png,1000,4.1865,1,3380,999,feet,jsons/v1_VE1000_randls_22.json,817749,1300238,35,Woman
54,603422,DepthScenes,duration_manipulation_targetAtFixation,jsons/v1_VE1000_randls_22.json,http://54.235.29.9/FacialAge/BNav_EC2/DepthDuration/v2_depth_duration_MTurk/v2_DepthDuration_HTML.html#419,419,1366,625,1366,768,8-29-2022,10-41-9,55,depth_duration_stimuli/002323_2014-06-28_20-01-54_260595134347_rgbf000051-resize_4/002323_2014-06-28_20-01-54_260595134347_rgbf000051-resize_4-target.png,1000,3.7310000000000003,3,2916,998,feet,jsons/v1_VE1000_randls_22.json,817749,1300238,35,Woman
55,603422,DepthScenes,duration_manipulation_targetAtFixation,jsons/v1_VE1000_randls_22.json,http://54.235.29.9/FacialAge/BNav_EC2/DepthDuration/v2_depth_duration_MTurk/v2_DepthDuration_HTML.html#419,419,1366,625,1366,768,8-29-2022,10-41-9,56,depth_duration_stimuli/002153_2014-06-25_21-27-18_260595134347_rgbf000038-resize_5/002153_2014-06-25_21-27-18_260595134347_rgbf000038-resize_5-target.png,1000,2.505,2,12807,1000,feet,jsons/v1_VE1000_randls_22.json,817749,1300238,35,Woman
56,603422,DepthScenes,duration_manipulation_targetAtFixation,jsons/v1_VE1000_randls_22.json,http://54.235.29.9/FacialAge/BNav_EC2/DepthDuration/v2_depth_duration_MTurk/v2_DepthDuration_HTML.html#419,419,1366,625,1366,768,8-29-2022,10-41-9,57,depth_duration_stimuli/002660_2014-06-13_15-44-18_094959634447_rgbf001878-resize_2/002660_2014-06-13_15-44-18_094959634447_rgbf001878-resize_2-target.png,1000,3.576,6,3855,996,feet,jsons/v1_VE1000_randls_22.json,817749,1300238,35,Woman
57,603422,DepthScenes,duration_manipulation_targetAtFixation,jsons/v1_VE1000_randls_22.json,http://54.235.29.9/FacialAge/BNav_EC2/DepthDuration/v2_depth_duration_MTurk/v2_DepthDuration_HTML.html#419,419,1366,625,1366,768,8-29-2022,10-41-9,58,depth_duration_stimuli/001244_2014-06-17_16-47-45_260595134347_rgbf000030-resize_4/001244_2014-06-17_16-47-45_260595134347_rgbf000030-resize_4-target.png,1000,2.0425,2,2984,1013,feet,jsons/v1_VE1000_randls_22.json,817749,1300238,35,Woman
58,603422,DepthScenes,duration_manipulation_targetAtFixation,jsons/v1_VE1000_randls_22.json,http://54.235.29.9/FacialAge/BNav_EC2/DepthDuration/v2_depth_duration_MTurk/v2_DepthDuration_HTML.html#419,419,1366,625,1366,768,8-29-2022,10-41-9,59,depth_duration_stimuli/003495_2014-05-21_16-01-51_094959634447_rgbf000100-resize_3/003495_2014-05-21_16-01-51_094959634447_rgbf000100-resize_3-target.png,1000,1.6255,5,3036,1004,feet,jsons/v1_VE1000_randls_22.json,817749,1300238,35,Woman
59,603422,DepthScenes,duration_manipulation_targetAtFixation,jsons/v1_VE1000_randls_22.json,http://54.235.29.9/FacialAge/BNav_EC2/DepthDuration/v2_depth_duration_MTurk/v2_DepthDuration_HTML.html#419,419,1366,625,1366,768,8-29-2022,10-41-9,60,depth_duration_stimuli/002905_2014-06-03_18-04-43_094959634447_rgbf000151-resize_2/002905_2014-06-03_18-04-43_094959634447_rgbf000151-resize_2-target.png,1000,2.0295,3,2916,997,feet,jsons/v1_VE1000_randls_22.json,817749,1300238,35,Woman
60,603422,DepthScenes,duration_manipulation_targetAtFixation,jsons/v1_VE1000_randls_22.json,http://54.235.29.9/FacialAge/BNav_EC2/DepthDuration/v2_depth_duration_MTurk/v2_DepthDuration_HTML.html#419,419,1366,625,1366,768,8-29-2022,10-41-9,61,depth_duration_stimuli/003423_2014-05-21_10-23-26_094959634447_rgbf002665-resize_2/003423_2014-05-21_10-23-26_094959634447_rgbf002665-resize_2-target.png,1000,3.2575,3,3066,995,feet,jsons/v1_VE1000_randls_22.json,817749,1300238,35,Woman
61,603422,DepthScenes,duration_manipulation_targetAtFixation,jsons/v1_VE1000_randls_22.json,http://54.235.29.9/FacialAge/BNav_EC2/DepthDuration/v2_depth_duration_MTurk/v2_DepthDuration_HTML.html#419,419,1366,625,1366,768,8-29-2022,10-41-9,62,depth_duration_stimuli/002630_2014-06-24_14-47-50_094959634447_rgbf000055-resize_1/002630_2014-06-24_14-47-50_094959634447_rgbf000055-resize_1-target.png,1000,3.0095,3,2970,988,feet,jsons/v1_VE1000_randls_22.json,817749,1300238,35,Woman
62,603422,DepthScenes,duration_manipulation_targetAtFixation,jsons/v1_VE1000_randls_22.json,http://54.235.29.9/FacialAge/BNav_EC2/DepthDuration/v2_depth_duration_MTurk/v2_DepthDuration_HTML.html#419,419,1366,625,1366,768,8-29-2022,10-41-9,63,depth_duration_stimuli/002758_2014-06-22_19-11-20_094959634447_rgbf000128-resize_1/002758_2014-06-22_19-11-20_094959634447_rgbf000128-resize_1-target.png,1000,2.555,2,2956,993,feet,jsons/v1_VE1000_randls_22.json,817749,1300238,35,Woman
63,603422,DepthScenes,duration_manipulation_targetAtFixation,jsons/v1_VE1000_randls_22.json,http://54.235.29.9/FacialAge/BNav_EC2/DepthDuration/v2_depth_duration_MTurk/v2_DepthDuration_HTML.html#419,419,1366,625,1366,768,8-29-2022,10-41-9,64,depth_duration_stimuli/000642_2014-06-08_16-59-25_260595134347_rgbf000098-resize_2/000642_2014-06-08_16-59-25_260595134347_rgbf000098-resize_2-target.png,1000,2.8815,2,3325,1007,feet,jsons/v1_VE1000_randls_22.json,817749,1300238,35,Woman
64,603422,DepthScenes,duration_manipulation_targetAtFixation,jsons/v1_VE1000_randls_22.json,http://54.235.29.9/FacialAge/BNav_EC2/DepthDuration/v2_depth_duration_MTurk/v2_DepthDuration_HTML.html#419,419,1366,625,1366,768,8-29-2022,10-41-9,65,depth_duration_stimuli/002425_2014-06-28_20-27-29_260595134347_rgbf000031-resize_8/002425_2014-06-28_20-27-29_260595134347_rgbf000031-resize_8-target.png,1000,3.8960000000000004,5,3961,1003,feet,jsons/v1_VE1000_randls_22.json,817749,1300238,35,Woman
65,603422,DepthScenes,duration_manipulation_targetAtFixation,jsons/v1_VE1000_randls_22.json,http://54.235.29.9/FacialAge/BNav_EC2/DepthDuration/v2_depth_duration_MTurk/v2_DepthDuration_HTML.html#419,419,1366,625,1366,768,8-29-2022,10-41-9,66,depth_duration_stimuli/001222_2014-06-17_16-24-06_260595134347_rgbf000073-resize_0/001222_2014-06-17_16-24-06_260595134347_rgbf000073-resize-original.jpg,1000,1.4385,0,6038,1009,feet,jsons/v1_VE1000_randls_22.json,817749,1300238,35,Woman
66,603422,DepthScenes,duration_manipulation_targetAtFixation,jsons/v1_VE1000_randls_22.json,http://54.235.29.9/FacialAge/BNav_EC2/DepthDuration/v2_depth_duration_MTurk/v2_DepthDuration_HTML.html#419,419,1366,625,1366,768,8-29-2022,10-41-9,67,depth_duration_stimuli/001808_2014-06-26_20-50-58_260595134347_rgbf000029-resize_1/001808_2014-06-26_20-50-58_260595134347_rgbf000029-resize_1-target.png,1000,4.249,1,4717,1009,feet,jsons/v1_VE1000_randls_22.json,817749,1300238,35,Woman
67,603422,DepthScenes,duration_manipulation_targetAtFixation,jsons/v1_VE1000_randls_22.json,http://54.235.29.9/FacialAge/BNav_EC2/DepthDuration/v2_depth_duration_MTurk/v2_DepthDuration_HTML.html#419,419,1366,625,1366,768,8-29-2022,10-41-9,68,depth_duration_stimuli/001815_2014-06-26_20-52-55_260595134347_rgbf000020-resize_0/001815_2014-06-26_20-52-55_260595134347_rgbf000020-resize_0-target.png,1000,3.3865,6,3498,1000,feet,jsons/v1_VE1000_randls_22.json,817749,1300238,35,Woman
68,603422,DepthScenes,duration_manipulation_targetAtFixation,jsons/v1_VE1000_randls_22.json,http://54.235.29.9/FacialAge/BNav_EC2/DepthDuration/v2_depth_duration_MTurk/v2_DepthDuration_HTML.html#419,419,1366,625,1366,768,8-29-2022,10-41-9,69,depth_duration_stimuli/002445_2014-06-28_20-32-16_260595134347_rgbf000029-resize_4/002445_2014-06-28_20-32-16_260595134347_rgbf000029-resize_4-target.png,1000,2.5315,2,3563,996,feet,jsons/v1_VE1000_randls_22.json,817749,1300238,35,Woman
69,603422,DepthScenes,duration_manipulation_targetAtFixation,jsons/v1_VE1000_randls_22.json,http://54.235.29.9/FacialAge/BNav_EC2/DepthDuration/v2_depth_duration_MTurk/v2_DepthDuration_HTML.html#419,419,1366,625,1366,768,8-29-2022,10-41-9,70,depth_duration_stimuli/000780_2014-06-08_22-28-29_260595134347_rgbf000126-resize_1/000780_2014-06-08_22-28-29_260595134347_rgbf000126-resize_1-target.png,1000,3.3825,4,5087,994,feet,jsons/v1_VE1000_randls_22.json,817749,1300238,35,Woman
70,603422,DepthScenes,duration_manipulation_targetAtFixation,jsons/v1_VE1000_randls_22.json,http://54.235.29.9/FacialAge/BNav_EC2/DepthDuration/v2_depth_duration_MTurk/v2_DepthDuration_HTML.html#419,419,1366,625,1366,768,8-29-2022,10-41-9,71,depth_duration_stimuli/001199_2014-06-17_16-03-48_260595134347_rgbf000077-resize_0/001199_2014-06-17_16-03-48_260595134347_rgbf000077-resize_0-target.png,1000,3.4375,2,4138,994,feet,jsons/v1_VE1000_randls_22.json,817749,1300238,35,Woman
71,603422,DepthScenes,duration_manipulation_targetAtFixation,jsons/v1_VE1000_randls_22.json,http://54.235.29.9/FacialAge/BNav_EC2/DepthDuration/v2_depth_duration_MTurk/v2_DepthDuration_HTML.html#419,419,1366,625,1366,768,8-29-2022,10-41-9,72,depth_duration_stimuli/000502_2014-06-08_23-02-32_260595134347_rgbf000063-resize_4/000502_2014-06-08_23-02-32_260595134347_rgbf000063-resize_4-target.png,1000,2.431,1,5219,998,feet,jsons/v1_VE1000_randls_22.json,817749,1300238,35,Woman
72,603422,DepthScenes,duration_manipulation_targetAtFixation,jsons/v1_VE1000_randls_22.json,http://54.235.29.9/FacialAge/BNav_EC2/DepthDuration/v2_depth_duration_MTurk/v2_DepthDuration_HTML.html#419,419,1366,625,1366,768,8-29-2022,10-41-9,73,depth_duration_stimuli/000506_2014-06-08_23-21-00_260595134347_rgbf000070-resize_7/000506_2014-06-08_23-21-00_260595134347_rgbf000070-resize_7-target.png,1000,4.0585,7,3860,973,feet,jsons/v1_VE1000_randls_22.json,817749,1300238,35,Woman
73,603422,DepthScenes,duration_manipulation_targetAtFixation,jsons/v1_VE1000_randls_22.json,http://54.235.29.9/FacialAge/BNav_EC2/DepthDuration/v2_depth_duration_MTurk/v2_DepthDuration_HTML.html#419,419,1366,625,1366,768,8-29-2022,10-41-9,74,depth_duration_stimuli/003079_2014-06-15_15-18-20_094959634447_rgbf000152-resize_8/003079_2014-06-15_15-18-20_094959634447_rgbf000152-resize_8-target.png,1000,2.8775,2,3935,998,feet,jsons/v1_VE1000_randls_22.json,817749,1300238,35,Woman
74,603422,DepthScenes,duration_manipulation_targetAtFixation,jsons/v1_VE1000_randls_22.json,http://54.235.29.9/FacialAge/BNav_EC2/DepthDuration/v2_depth_duration_MTurk/v2_DepthDuration_HTML.html#419,419,1366,625,1366,768,8-29-2022,10-41-9,75,depth_duration_stimuli/000436_2014-06-09_22-25-11_260595134347_rgbf000137-resize_1/000436_2014-06-09_22-25-11_260595134347_rgbf000137-resize_1-target.png,1000,4.0705,5,14807,991,feet,jsons/v1_VE1000_randls_22.json,817749,1300238,35,Woman
75,603422,DepthScenes,duration_manipulation_targetAtFixation,jsons/v1_VE1000_randls_22.json,http://54.235.29.9/FacialAge/BNav_EC2/DepthDuration/v2_depth_duration_MTurk/v2_DepthDuration_HTML.html#419,419,1366,625,1366,768,8-29-2022,10-41-9,76,depth_duration_stimuli/002444_2014-06-28_20-32-08_260595134347_rgbf000027-resize_0/002444_2014-06-28_20-32-08_260595134347_rgbf000027-resize_0-target.png,1000,4.388999999999999,3,3452,1007,feet,jsons/v1_VE1000_randls_22.json,817749,1300238,35,Woman
76,603422,DepthScenes,duration_manipulation_targetAtFixation,jsons/v1_VE1000_randls_22.json,http://54.235.29.9/FacialAge/BNav_EC2/DepthDuration/v2_depth_duration_MTurk/v2_DepthDuration_HTML.html#419,419,1366,625,1366,768,8-29-2022,10-41-9,77,depth_duration_stimuli/002375_2014-06-28_20-13-44_260595134347_rgbf000032-resize_1/002375_2014-06-28_20-13-44_260595134347_rgbf000032-resize_1-target.png,1000,4.0175,2,13294,1015,feet,jsons/v1_VE1000_randls_22.json,817749,1300238,35,Woman
77,603422,DepthScenes,duration_manipulation_targetAtFixation,jsons/v1_VE1000_randls_22.json,http://54.235.29.9/FacialAge/BNav_EC2/DepthDuration/v2_depth_duration_MTurk/v2_DepthDuration_HTML.html#419,419,1366,625,1366,768,8-29-2022,10-41-9,78,depth_duration_stimuli/002657_2014-06-13_15-29-54_094959634447_rgbf000150-resize_1/002657_2014-06-13_15-29-54_094959634447_rgbf000150-resize_1-target.png,1000,4.919,1,3745,1001,feet,jsons/v1_VE1000_randls_22.json,817749,1300238,35,Woman
78,603422,DepthScenes,duration_manipulation_targetAtFixation,jsons/v1_VE1000_randls_22.json,http://54.235.29.9/FacialAge/BNav_EC2/DepthDuration/v2_depth_duration_MTurk/v2_DepthDuration_HTML.html#419,419,1366,625,1366,768,8-29-2022,10-41-9,79,depth_duration_stimuli/001164_2014-06-17_15-35-46_260595134347_rgbf000085-resize_3/001164_2014-06-17_15-35-46_260595134347_rgbf000085-resize_3-target.png,1000,2.354,5,3540,998,feet,jsons/v1_VE1000_randls_22.json,817749,1300238,35,Woman
79,603422,DepthScenes,duration_manipulation_targetAtFixation,jsons/v1_VE1000_randls_22.json,http://54.235.29.9/FacialAge/BNav_EC2/DepthDuration/v2_depth_duration_MTurk/v2_DepthDuration_HTML.html#419,419,1366,625,1366,768,8-29-2022,10-41-9,80,depth_duration_stimuli/001136_2014-06-17_15-19-41_260595134347_rgbf000076-resize_3/001136_2014-06-17_15-19-41_260595134347_rgbf000076-resize_3-target.png,1000,1.8655,2,3090,1007,feet,jsons/v1_VE1000_randls_22.json,817749,1300238,35,Woman
80,603422,DepthScenes,duration_manipulation_targetAtFixation,jsons/v1_VE1000_randls_22.json,http://54.235.29.9/FacialAge/BNav_EC2/DepthDuration/v2_depth_duration_MTurk/v2_DepthDuration_HTML.html#419,419,1366,625,1366,768,8-29-2022,10-41-9,81,depth_duration_stimuli/000692_2014-06-08_13-09-42_260595134347_rgbf000199-resize_2/000692_2014-06-08_13-09-42_260595134347_rgbf000199-resize_2-target.png,1000,3.661,2,3398,996,feet,jsons/v1_VE1000_randls_22.json,817749,1300238,35,Woman
81,603422,DepthScenes,duration_manipulation_targetAtFixation,jsons/v1_VE1000_randls_22.json,http://54.235.29.9/FacialAge/BNav_EC2/DepthDuration/v2_depth_duration_MTurk/v2_DepthDuration_HTML.html#419,419,1366,625,1366,768,8-29-2022,10-41-9,82,depth_duration_stimuli/001094_2014-06-15_17-36-00_260595134347_rgbf000205-resize_0/001094_2014-06-15_17-36-00_260595134347_rgbf000205-resize_0-target.png,1000,4.2175,1,3478,1006,feet,jsons/v1_VE1000_randls_22.json,817749,1300238,35,Woman
82,603422,DepthScenes,duration_manipulation_targetAtFixation,jsons/v1_VE1000_randls_22.json,http://54.235.29.9/FacialAge/BNav_EC2/DepthDuration/v2_depth_duration_MTurk/v2_DepthDuration_HTML.html#419,419,1366,625,1366,768,8-29-2022,10-41-9,83,depth_duration_stimuli/000878_2014-06-08_22-52-45_260595134347_rgbf000045-resize_2/000878_2014-06-08_22-52-45_260595134347_rgbf000045-resize_2-target.png,1000,2.092,1,4981,996,feet,jsons/v1_VE1000_randls_22.json,817749,1300238,35,Woman
83,603422,DepthScenes,duration_manipulation_targetAtFixation,jsons/v1_VE1000_randls_22.json,http://54.235.29.9/FacialAge/BNav_EC2/DepthDuration/v2_depth_duration_MTurk/v2_DepthDuration_HTML.html#419,419,1366,625,1366,768,8-29-2022,10-41-9,84,depth_duration_stimuli/002953_2014-06-08_17-32-18_094959634447_rgbf000059-resize_5/002953_2014-06-08_17-32-18_094959634447_rgbf000059-resize_5-target.png,1000,1.551,1,2872,1010,feet,jsons/v1_VE1000_randls_22.json,817749,1300238,35,Woman
84,603422,DepthScenes,duration_manipulation_targetAtFixation,jsons/v1_VE1000_randls_22.json,http://54.235.29.9/FacialAge/BNav_EC2/DepthDuration/v2_depth_duration_MTurk/v2_DepthDuration_HTML.html#419,419,1366,625,1366,768,8-29-2022,10-41-9,85,depth_duration_stimuli/002663_2014-06-13_15-50-26_094959634447_rgbf000075-resize_1/002663_2014-06-13_15-50-26_094959634447_rgbf000075-resize_1-target.png,1000,4.7495,1,3130,998,feet,jsons/v1_VE1000_randls_22.json,817749,1300238,35,Woman
85,603422,DepthScenes,duration_manipulation_targetAtFixation,jsons/v1_VE1000_randls_22.json,http://54.235.29.9/FacialAge/BNav_EC2/DepthDuration/v2_depth_duration_MTurk/v2_DepthDuration_HTML.html#419,419,1366,625,1366,768,8-29-2022,10-41-9,86,depth_duration_stimuli/000409_2014-06-04_19-23-33_260595134347_rgbf000067-resize_0/000409_2014-06-04_19-23-33_260595134347_rgbf000067-resize_0-target.png,1000,3.7335,5,3724,998,feet,jsons/v1_VE1000_randls_22.json,817749,1300238,35,Woman
86,603422,DepthScenes,duration_manipulation_targetAtFixation,jsons/v1_VE1000_randls_22.json,http://54.235.29.9/FacialAge/BNav_EC2/DepthDuration/v2_depth_duration_MTurk/v2_DepthDuration_HTML.html#419,419,1366,625,1366,768,8-29-2022,10-41-9,87,depth_duration_stimuli/002989_2014-06-15_12-25-03_094959634447_rgbf000150-resize_3/002989_2014-06-15_12-25-03_094959634447_rgbf000150-resize_3-target.png,1000,4.1975,2,2932,1005,feet,jsons/v1_VE1000_randls_22.json,817749,1300238,35,Woman
87,603422,DepthScenes,duration_manipulation_targetAtFixation,jsons/v1_VE1000_randls_22.json,http://54.235.29.9/FacialAge/BNav_EC2/DepthDuration/v2_depth_duration_MTurk/v2_DepthDuration_HTML.html#419,419,1366,625,1366,768,8-29-2022,10-41-9,88,depth_duration_stimuli/000866_2014-06-09_20-45-42_260595134347_rgbf000139-resize_1/000866_2014-06-09_20-45-42_260595134347_rgbf000139-resize_1-target.png,1000,3.2155,1,2944,997,feet,jsons/v1_VE1000_randls_22.json,817749,1300238,35,Woman
88,603422,DepthScenes,duration_manipulation_targetAtFixation,jsons/v1_VE1000_randls_22.json,http://54.235.29.9/FacialAge/BNav_EC2/DepthDuration/v2_depth_duration_MTurk/v2_DepthDuration_HTML.html#419,419,1366,625,1366,768,8-29-2022,10-41-9,89,depth_duration_stimuli/001167_2014-06-17_15-38-07_260595134347_rgbf000108-resize_0/001167_2014-06-17_15-38-07_260595134347_rgbf000108-resize_0-target.png,1000,1.8505,6,4738,996,feet,jsons/v1_VE1000_randls_22.json,817749,1300238,35,Woman
89,603422,DepthScenes,duration_manipulation_targetAtFixation,jsons/v1_VE1000_randls_22.json,http://54.235.29.9/FacialAge/BNav_EC2/DepthDuration/v2_depth_duration_MTurk/v2_DepthDuration_HTML.html#419,419,1366,625,1366,768,8-29-2022,10-41-9,90,depth_duration_stimuli/003587_2014-05-23_16-48-02_094959634447_rgbf002384-resize_2/003587_2014-05-23_16-48-02_094959634447_rgbf002384-resize_2-target.png,1000,1.357,2,3377,1005,feet,jsons/v1_VE1000_randls_22.json,817749,1300238,35,Woman
90,603422,DepthScenes,duration_manipulation_targetAtFixation,jsons/v1_VE1000_randls_22.json,http://54.235.29.9/FacialAge/BNav_EC2/DepthDuration/v2_depth_duration_MTurk/v2_DepthDuration_HTML.html#419,419,1366,625,1366,768,8-29-2022,10-41-9,91,depth_duration_stimuli/001029_2014-06-08_13-17-57_260595134347_rgbf000065-resize_1/001029_2014-06-08_13-17-57_260595134347_rgbf000065-resize_1-target.png,1000,3.0835,3,3019,991,feet,jsons/v1_VE1000_randls_22.json,817749,1300238,35,Woman
91,603422,DepthScenes,duration_manipulation_targetAtFixation,jsons/v1_VE1000_randls_22.json,http://54.235.29.9/FacialAge/BNav_EC2/DepthDuration/v2_depth_duration_MTurk/v2_DepthDuration_HTML.html#419,419,1366,625,1366,768,8-29-2022,10-41-9,92,depth_duration_stimuli/000677_2014-06-08_23-10-32_260595134347_rgbf000158-resize_6/000677_2014-06-08_23-10-32_260595134347_rgbf000158-resize_6-target.png,1000,3.556,2,2812,983,feet,jsons/v1_VE1000_randls_22.json,817749,1300238,35,Woman
92,603422,DepthScenes,duration_manipulation_targetAtFixation,jsons/v1_VE1000_randls_22.json,http://54.235.29.9/FacialAge/BNav_EC2/DepthDuration/v2_depth_duration_MTurk/v2_DepthDuration_HTML.html#419,419,1366,625,1366,768,8-29-2022,10-41-9,93,depth_duration_stimuli/002964_2014-06-08_17-46-11_094959634447_rgbf000091-resize_4/002964_2014-06-08_17-46-11_094959634447_rgbf000091-resize_4-target.png,1000,1.6909999999999998,1,3250,1005,feet,jsons/v1_VE1000_randls_22.json,817749,1300238,35,Woman
93,603422,DepthScenes,duration_manipulation_targetAtFixation,jsons/v1_VE1000_randls_22.json,http://54.235.29.9/FacialAge/BNav_EC2/DepthDuration/v2_depth_duration_MTurk/v2_DepthDuration_HTML.html#419,419,1366,625,1366,768,8-29-2022,10-41-9,94,depth_duration_stimuli/002136_2014-06-25_21-18-03_260595134347_rgbf000109-resize_3/002136_2014-06-25_21-18-03_260595134347_rgbf000109-resize_3-target.png,1000,1.9569999999999999,6,3171,1005,feet,jsons/v1_VE1000_randls_22.json,817749,1300238,35,Woman
94,603422,DepthScenes,duration_manipulation_targetAtFixation,jsons/v1_VE1000_randls_22.json,http://54.235.29.9/FacialAge/BNav_EC2/DepthDuration/v2_depth_duration_MTurk/v2_DepthDuration_HTML.html#419,419,1366,625,1366,768,8-29-2022,10-41-9,95,depth_duration_stimuli/001570_2014-06-20_17-21-09_260595134347_rgbf000135-resize_4/001570_2014-06-20_17-21-09_260595134347_rgbf000135-resize_4-target.png,1000,4.467,2,2967,996,feet,jsons/v1_VE1000_randls_22.json,817749,1300238,35,Woman
95,603422,DepthScenes,duration_manipulation_targetAtFixation,jsons/v1_VE1000_randls_22.json,http://54.235.29.9/FacialAge/BNav_EC2/DepthDuration/v2_depth_duration_MTurk/v2_DepthDuration_HTML.html#419,419,1366,625,1366,768,8-29-2022,10-41-9,96,depth_duration_stimuli/001392_2014-06-19_16-07-59_260595134347_rgbf000046-resize_1/001392_2014-06-19_16-07-59_260595134347_rgbf000046-resize_1-target.png,1000,4.135,3,3359,989,feet,jsons/v1_VE1000_randls_22.json,817749,1300238,35,Woman
96,603422,DepthScenes,duration_manipulation_targetAtFixation,jsons/v1_VE1000_randls_22.json,http://54.235.29.9/FacialAge/BNav_EC2/DepthDuration/v2_depth_duration_MTurk/v2_DepthDuration_HTML.html#419,419,1366,625,1366,768,8-29-2022,10-41-9,97,depth_duration_stimuli/002039_2014-06-24_20-22-38_260595134347_rgbf000084-resize_1/002039_2014-06-24_20-22-38_260595134347_rgbf000084-resize_1-target.png,1000,4.408,1,3613,1000,feet,jsons/v1_VE1000_randls_22.json,817749,1300238,35,Woman
97,603422,DepthScenes,duration_manipulation_targetAtFixation,jsons/v1_VE1000_randls_22.json,http://54.235.29.9/FacialAge/BNav_EC2/DepthDuration/v2_depth_duration_MTurk/v2_DepthDuration_HTML.html#419,419,1366,625,1366,768,8-29-2022,10-41-9,98,depth_duration_stimuli/002103_2014-06-25_20-00-40_260595134347_rgbf000049-resize_0/002103_2014-06-25_20-00-40_260595134347_rgbf000049-resize_0-target.png,1000,4.105,4,3306,995,feet,jsons/v1_VE1000_randls_22.json,817749,1300238,35,Woman
98,603422,DepthScenes,duration_manipulation_targetAtFixation,jsons/v1_VE1000_randls_22.json,http://54.235.29.9/FacialAge/BNav_EC2/DepthDuration/v2_depth_duration_MTurk/v2_DepthDuration_HTML.html#419,419,1366,625,1366,768,8-29-2022,10-41-9,99,depth_duration_stimuli/001540_2014-06-20_17-01-05_260595134347_rgbf000086-resize_2/001540_2014-06-20_17-01-05_260595134347_rgbf000086-resize-original.jpg,1000,1.459,0,4794,916,feet,jsons/v1_VE1000_randls_22.json,817749,1300238,35,Woman
99,603422,DepthScenes,duration_manipulation_targetAtFixation,jsons/v1_VE1000_randls_22.json,http://54.235.29.9/FacialAge/BNav_EC2/DepthDuration/v2_depth_duration_MTurk/v2_DepthDuration_HTML.html#419,419,1366,625,1366,768,8-29-2022,10-41-9,100,depth_duration_stimuli/001059_2014-06-08_21-53-27_260595134347_rgbf000061-resize_4/001059_2014-06-08_21-53-27_260595134347_rgbf000061-resize_4-target.png,1000,2.4185,2,4751,998,feet,jsons/v1_VE1000_randls_22.json,817749,1300238,35,Woman
100,603422,DepthScenes,duration_manipulation_targetAtFixation,jsons/v1_VE1000_randls_22.json,http://54.235.29.9/FacialAge/BNav_EC2/DepthDuration/v2_depth_duration_MTurk/v2_DepthDuration_HTML.html#419,419,1366,625,1366,768,8-29-2022,10-41-9,101,depth_duration_stimuli/001032_2014-06-08_13-23-17_260595134347_rgbf000021-resize_3/001032_2014-06-08_13-23-17_260595134347_rgbf000021-resize_3-target.png,1000,3.2725,4,6981,999,feet,jsons/v1_VE1000_randls_22.json,817749,1300238,35,Woman
101,603422,DepthScenes,duration_manipulation_targetAtFixation,jsons/v1_VE1000_randls_22.json,http://54.235.29.9/FacialAge/BNav_EC2/DepthDuration/v2_depth_duration_MTurk/v2_DepthDuration_HTML.html#419,419,1366,625,1366,768,8-29-2022,10-41-9,102,depth_duration_stimuli/001449_2014-06-19_17-01-27_260595134347_rgbf000116-resize_2/001449_2014-06-19_17-01-27_260595134347_rgbf000116-resize_2-target.png,1000,3.452,6,4901,1001,feet,jsons/v1_VE1000_randls_22.json,817749,1300238,35,Woman
102,603422,DepthScenes,duration_manipulation_targetAtFixation,jsons/v1_VE1000_randls_22.json,http://54.235.29.9/FacialAge/BNav_EC2/DepthDuration/v2_depth_duration_MTurk/v2_DepthDuration_HTML.html#419,419,1366,625,1366,768,8-29-2022,10-41-9,103,depth_duration_stimuli/001450_2014-06-19_17-02-03_260595134347_rgbf000203-resize_4/001450_2014-06-19_17-02-03_260595134347_rgbf000203-resize_4-target.png,1000,4.0106666666667,2,3209,1013,feet,jsons/v1_VE1000_randls_22.json,817749,1300238,35,Woman
103,603422,DepthScenes,duration_manipulation_targetAtFixation,jsons/v1_VE1000_randls_22.json,http://54.235.29.9/FacialAge/BNav_EC2/DepthDuration/v2_depth_duration_MTurk/v2_DepthDuration_HTML.html#419,419,1366,625,1366,768,8-29-2022,10-41-9,104,depth_duration_stimuli/000493_2014-06-09_21-01-18_260595134347_rgbf000196-resize_3/000493_2014-06-09_21-01-18_260595134347_rgbf000196-resize_3-target.png,1000,3.44,1,3195,1002,feet,jsons/v1_VE1000_randls_22.json,817749,1300238,35,Woman
104,603422,DepthScenes,duration_manipulation_targetAtFixation,jsons/v1_VE1000_randls_22.json,http://54.235.29.9/FacialAge/BNav_EC2/DepthDuration/v2_depth_duration_MTurk/v2_DepthDuration_HTML.html#419,419,1366,625,1366,768,8-29-2022,10-41-9,105,depth_duration_stimuli/000191_2014-05-12_17-07-38_260595134347_rgbf000199-resize_0/000191_2014-05-12_17-07-38_260595134347_rgbf000199-resize_0-target.png,1000,3.7995,5,3370,996,feet,jsons/v1_VE1000_randls_22.json,817749,1300238,35,Woman
105,603422,DepthScenes,duration_manipulation_targetAtFixation,jsons/v1_VE1000_randls_22.json,http://54.235.29.9/FacialAge/BNav_EC2/DepthDuration/v2_depth_duration_MTurk/v2_DepthDuration_HTML.html#419,419,1366,625,1366,768,8-29-2022,10-41-9,106,depth_duration_stimuli/001175_2014-06-17_15-45-55_260595134347_rgbf000129-resize_4/001175_2014-06-17_15-45-55_260595134347_rgbf000129-resize_4-target.png,1000,4.255,1,3308,998,feet,jsons/v1_VE1000_randls_22.json,817749,1300238,35,Woman
106,603422,DepthScenes,duration_manipulation_targetAtFixation,jsons/v1_VE1000_randls_22.json,http://54.235.29.9/FacialAge/BNav_EC2/DepthDuration/v2_depth_duration_MTurk/v2_DepthDuration_HTML.html#419,419,1366,625,1366,768,8-29-2022,10-41-9,107,depth_duration_stimuli/003490_2014-05-21_15-50-11_094959634447_rgbf000101-resize_3/003490_2014-05-21_15-50-11_094959634447_rgbf000101-resize_3-target.png,1000,3.6445,2,3245,997,feet,jsons/v1_VE1000_randls_22.json,817749,1300238,35,Woman
107,603422,DepthScenes,duration_manipulation_targetAtFixation,jsons/v1_VE1000_randls_22.json,http://54.235.29.9/FacialAge/BNav_EC2/DepthDuration/v2_depth_duration_MTurk/v2_DepthDuration_HTML.html#419,419,1366,625,1366,768,8-29-2022,10-41-9,108,depth_duration_stimuli/003070_2014-06-15_14-58-27_094959634447_rgbf000150-resize_3/003070_2014-06-15_14-58-27_094959634447_rgbf000150-resize_3-target.png,1000,2.9415,1,3466,1003,feet,jsons/v1_VE1000_randls_22.json,817749,1300238,35,Woman
108,603422,DepthScenes,duration_manipulation_targetAtFixation,jsons/v1_VE1000_randls_22.json,http://54.235.29.9/FacialAge/BNav_EC2/DepthDuration/v2_depth_duration_MTurk/v2_DepthDuration_HTML.html#419,419,1366,625,1366,768,8-29-2022,10-41-9,109,depth_duration_stimuli/000943_2014-06-09_19-31-07_260595134347_rgbf000128-resize_1/000943_2014-06-09_19-31-07_260595134347_rgbf000128-resize_1-target.png,1000,1.9765,7,4264,984,feet,jsons/v1_VE1000_randls_22.json,817749,1300238,35,Woman
109,603422,DepthScenes,duration_manipulation_targetAtFixation,jsons/v1_VE1000_randls_22.json,http://54.235.29.9/FacialAge/BNav_EC2/DepthDuration/v2_depth_duration_MTurk/v2_DepthDuration_HTML.html#419,419,1366,625,1366,768,8-29-2022,10-41-9,110,depth_duration_stimuli/002043_2014-06-24_20-29-38_260595134347_rgbf000039-resize_4/002043_2014-06-24_20-29-38_260595134347_rgbf000039-resize_4-target.png,1000,2.8435,2,3396,997,feet,jsons/v1_VE1000_randls_22.json,817749,1300238,35,Woman
110,603422,DepthScenes,duration_manipulation_targetAtFixation,jsons/v1_VE1000_randls_22.json,http://54.235.29.9/FacialAge/BNav_EC2/DepthDuration/v2_depth_duration_MTurk/v2_DepthDuration_HTML.html#419,419,1366,625,1366,768,8-29-2022,10-41-9,111,depth_duration_stimuli/003048_2014-06-15_13-49-43_094959634447_rgbf000150-resize_1/003048_2014-06-15_13-49-43_094959634447_rgbf000150-resize_1-target.png,1000,4.0035,1,3265,1008,feet,jsons/v1_VE1000_randls_22.json,817749,1300238,35,Woman
111,603422,DepthScenes,duration_manipulation_targetAtFixation,jsons/v1_VE1000_randls_22.json,http://54.235.29.9/FacialAge/BNav_EC2/DepthDuration/v2_depth_duration_MTurk/v2_DepthDuration_HTML.html#419,419,1366,625,1366,768,8-29-2022,10-41-9,112,depth_duration_stimuli/002748_2014-06-22_19-07-22_094959634447_rgbf000078-resize_1/002748_2014-06-22_19-07-22_094959634447_rgbf000078-resize_1-target.png,1000,4.6705,3,3016,988,feet,jsons/v1_VE1000_randls_22.json,817749,1300238,35,Woman
112,603422,DepthScenes,duration_manipulation_targetAtFixation,jsons/v1_VE1000_randls_22.json,http://54.235.29.9/FacialAge/BNav_EC2/DepthDuration/v2_depth_duration_MTurk/v2_DepthDuration_HTML.html#419,419,1366,625,1366,768,8-29-2022,10-41-9,113,depth_duration_stimuli/002995_2014-06-15_12-31-26_094959634447_rgbf000150-resize_1/002995_2014-06-15_12-31-26_094959634447_rgbf000150-resize_1-target.png,1000,3.8360000000000003,2,3343,1012,feet,jsons/v1_VE1000_randls_22.json,817749,1300238,35,Woman
113,603422,DepthScenes,duration_manipulation_targetAtFixation,jsons/v1_VE1000_randls_22.json,http://54.235.29.9/FacialAge/BNav_EC2/DepthDuration/v2_depth_duration_MTurk/v2_DepthDuration_HTML.html#419,419,1366,625,1366,768,8-29-2022,10-41-9,114,depth_duration_stimuli/002118_2014-06-25_20-32-08_260595134347_rgbf000078-resize_1/002118_2014-06-25_20-32-08_260595134347_rgbf000078-resize_1-target.png,1000,2.6460000000000004,2,3895,1004,feet,jsons/v1_VE1000_randls_22.json,817749,1300238,35,Woman
114,603422,DepthScenes,duration_manipulation_targetAtFixation,jsons/v1_VE1000_randls_22.json,http://54.235.29.9/FacialAge/BNav_EC2/DepthDuration/v2_depth_duration_MTurk/v2_DepthDuration_HTML.html#419,419,1366,625,1366,768,8-29-2022,10-41-9,115,depth_duration_stimuli/001516_2014-06-20_16-25-09_260595134347_rgbf000076-resize_2/001516_2014-06-20_16-25-09_260595134347_rgbf000076-resize_2-target.png,1000,1.7445,6,3884,995,feet,jsons/v1_VE1000_randls_22.json,817749,1300238,35,Woman
115,603422,DepthScenes,duration_manipulation_targetAtFixation,jsons/v1_VE1000_randls_22.json,http://54.235.29.9/FacialAge/BNav_EC2/DepthDuration/v2_depth_duration_MTurk/v2_DepthDuration_HTML.html#419,419,1366,625,1366,768,8-29-2022,10-41-9,116,depth_duration_stimuli/001170_2014-06-17_15-43-44_260595134347_rgbf000096-resize_6/001170_2014-06-17_15-43-44_260595134347_rgbf000096-resize-original.jpg,1000,1.1909999999999998,0,5662,1057,feet,jsons/v1_VE1000_randls_22.json,817749,1300238,35,Woman
116,603422,DepthScenes,duration_manipulation_targetAtFixation,jsons/v1_VE1000_randls_22.json,http://54.235.29.9/FacialAge/BNav_EC2/DepthDuration/v2_depth_duration_MTurk/v2_DepthDuration_HTML.html#419,419,1366,625,1366,768,8-29-2022,10-41-9,117,depth_duration_stimuli/000758_2014-06-08_22-05-08_260595134347_rgbf000085-resize_0/000758_2014-06-08_22-05-08_260595134347_rgbf000085-resize_0-target.png,1000,3.3810000000000002,3,3333,999,feet,jsons/v1_VE1000_randls_22.json,817749,1300238,35,Woman
117,603422,DepthScenes,duration_manipulation_targetAtFixation,jsons/v1_VE1000_randls_22.json,http://54.235.29.9/FacialAge/BNav_EC2/DepthDuration/v2_depth_duration_MTurk/v2_DepthDuration_HTML.html#419,419,1366,625,1366,768,8-29-2022,10-41-9,118,depth_duration_stimuli/000854_2014-06-09_19-43-13_260595134347_rgbf000066-resize_0/000854_2014-06-09_19-43-13_260595134347_rgbf000066-resize_0-target.png,1000,3.068,1,5163,954,feet,jsons/v1_VE1000_randls_22.json,817749,1300238,35,Woman
118,603422,DepthScenes,duration_manipulation_targetAtFixation,jsons/v1_VE1000_randls_22.json,http://54.235.29.9/FacialAge/BNav_EC2/DepthDuration/v2_depth_duration_MTurk/v2_DepthDuration_HTML.html#419,419,1366,625,1366,768,8-29-2022,10-41-9,119,depth_duration_stimuli/001150_2014-06-17_15-27-34_260595134347_rgbf000108-resize_2/001150_2014-06-17_15-27-34_260595134347_rgbf000108-resize_2-target.png,1000,4.0325,6,4068,998,feet,jsons/v1_VE1000_randls_22.json,817749,1300238,35,Woman
119,603422,DepthScenes,duration_manipulation_targetAtFixation,jsons/v1_VE1000_randls_22.json,http://54.235.29.9/FacialAge/BNav_EC2/DepthDuration/v2_depth_duration_MTurk/v2_DepthDuration_HTML.html#419,419,1366,625,1366,768,8-29-2022,10-41-9,120,depth_duration_stimuli/000665_2014-06-09_20-42-35_260595134347_rgbf000110-resize_1/000665_2014-06-09_20-42-35_260595134347_rgbf000110-resize_1-target.png,1000,3.057,2,3359,999,feet,jsons/v1_VE1000_randls_22.json,817749,1300238,35,Woman
120,603422,DepthScenes,duration_manipulation_targetAtFixation,jsons/v1_VE1000_randls_22.json,http://54.235.29.9/FacialAge/BNav_EC2/DepthDuration/v2_depth_duration_MTurk/v2_DepthDuration_HTML.html#419,419,1366,625,1366,768,8-29-2022,10-41-9,121,depth_duration_stimuli/001417_2014-06-19_16-25-36_260595134347_rgbf000115-resize_5/001417_2014-06-19_16-25-36_260595134347_rgbf000115-resize_5-target.png,1000,4.6255,1,3795,997,feet,jsons/v1_VE1000_randls_22.json,817749,1300238,35,Woman
121,603422,DepthScenes,duration_manipulation_targetAtFixation,jsons/v1_VE1000_randls_22.json,http://54.235.29.9/FacialAge/BNav_EC2/DepthDuration/v2_depth_duration_MTurk/v2_DepthDuration_HTML.html#419,419,1366,625,1366,768,8-29-2022,10-41-9,122,depth_duration_stimuli/003081_2014-06-15_15-19-16_094959634447_rgbf000150-resize_1/003081_2014-06-15_15-19-16_094959634447_rgbf000150-resize_1-target.png,1000,3.9125,3,3617,1000,feet,jsons/v1_VE1000_randls_22.json,817749,1300238,35,Woman
122,603422,DepthScenes,duration_manipulation_targetAtFixation,jsons/v1_VE1000_randls_22.json,http://54.235.29.9/FacialAge/BNav_EC2/DepthDuration/v2_depth_duration_MTurk/v2_DepthDuration_HTML.html#419,419,1366,625,1366,768,8-29-2022,10-41-9,123,depth_duration_stimuli/001555_2014-06-20_17-12-10_260595134347_rgbf000065-resize_4/001555_2014-06-20_17-12-10_260595134347_rgbf000065-resize_4-target.png,1000,1.633,5,3597,999,feet,jsons/v1_VE1000_randls_22.json,817749,1300238,35,Woman
123,603422,DepthScenes,duration_manipulation_targetAtFixation,jsons/v1_VE1000_randls_22.json,http://54.235.29.9/FacialAge/BNav_EC2/DepthDuration/v2_depth_duration_MTurk/v2_DepthDuration_HTML.html#419,419,1366,625,1366,768,8-29-2022,10-41-9,124,depth_duration_stimuli/000103_2014-05-14_22-01-17_260595134347_rgbf000152-resize_5/000103_2014-05-14_22-01-17_260595134347_rgbf000152-resize_5-target.png,1000,1.993,1,3352,997,feet,jsons/v1_VE1000_randls_22.json,817749,1300238,35,Woman
124,603422,DepthScenes,duration_manipulation_targetAtFixation,jsons/v1_VE1000_randls_22.json,http://54.235.29.9/FacialAge/BNav_EC2/DepthDuration/v2_depth_duration_MTurk/v2_DepthDuration_HTML.html#419,419,1366,625,1366,768,8-29-2022,10-41-9,125,depth_duration_stimuli/000736_2014-06-08_18-24-15_260595134347_rgbf000206-resize_3/000736_2014-06-08_18-24-15_260595134347_rgbf000206-resize_3-target.png,1000,3.515,6,5573,998,feet,jsons/v1_VE1000_randls_22.json,817749,1300238,35,Woman
125,603422,DepthScenes,duration_manipulation_targetAtFixation,jsons/v1_VE1000_randls_22.json,http://54.235.29.9/FacialAge/BNav_EC2/DepthDuration/v2_depth_duration_MTurk/v2_DepthDuration_HTML.html#419,419,1366,625,1366,768,8-29-2022,10-41-9,126,depth_duration_stimuli/000137_2014-05-20_17-04-49_260595134347_rgbf000120-resize_1/000137_2014-05-20_17-04-49_260595134347_rgbf000120-resize_1-target.png,1000,3.786,1,4218,1000,feet,jsons/v1_VE1000_randls_22.json,817749,1300238,35,Woman
126,603422,DepthScenes,duration_manipulation_targetAtFixation,jsons/v1_VE1000_randls_22.json,http://54.235.29.9/FacialAge/BNav_EC2/DepthDuration/v2_depth_duration_MTurk/v2_DepthDuration_HTML.html#419,419,1366,625,1366,768,8-29-2022,10-41-9,127,depth_duration_stimuli/002600_2014-06-24_14-27-04_094959634447_rgbf000074-resize_2/002600_2014-06-24_14-27-04_094959634447_rgbf000074-resize_2-target.png,1000,2.7575,4,3630,996,feet,jsons/v1_VE1000_randls_22.json,817749,1300238,35,Woman
127,603422,DepthScenes,duration_manipulation_targetAtFixation,jsons/v1_VE1000_randls_22.json,http://54.235.29.9/FacialAge/BNav_EC2/DepthDuration/v2_depth_duration_MTurk/v2_DepthDuration_HTML.html#419,419,1366,625,1366,768,8-29-2022,10-41-9,128,depth_duration_stimuli/003228_2014-05-14_13-42-35_094959634447_rgbf000101-resize_1/003228_2014-05-14_13-42-35_094959634447_rgbf000101-resize_1-target.png,1000,1.9680000000000002,2,3305,998,feet,jsons/v1_VE1000_randls_22.json,817749,1300238,35,Woman
128,603422,DepthScenes,duration_manipulation_targetAtFixation,jsons/v1_VE1000_randls_22.json,http://54.235.29.9/FacialAge/BNav_EC2/DepthDuration/v2_depth_duration_MTurk/v2_DepthDuration_HTML.html#419,419,1366,625,1366,768,8-29-2022,10-41-9,129,depth_duration_stimuli/001056_2014-06-08_18-46-44_260595134347_rgbf000068-resize_0/001056_2014-06-08_18-46-44_260595134347_rgbf000068-resize_0-target.png,1000,2.6625,5,4756,1006,feet,jsons/v1_VE1000_randls_22.json,817749,1300238,35,Woman
129,603422,DepthScenes,duration_manipulation_targetAtFixation,jsons/v1_VE1000_randls_22.json,http://54.235.29.9/FacialAge/BNav_EC2/DepthDuration/v2_depth_duration_MTurk/v2_DepthDuration_HTML.html#419,419,1366,625,1366,768,8-29-2022,10-41-9,130,depth_duration_stimuli/002199_2014-06-28_18-33-56_260595134347_rgbf000074-resize_0/002199_2014-06-28_18-33-56_260595134347_rgbf000074-resize_0-target.png,1000,1.996,3,7918,1006,feet,jsons/v1_VE1000_randls_22.json,817749,1300238,35,Woman
130,603422,DepthScenes,duration_manipulation_targetAtFixation,jsons/v1_VE1000_randls_22.json,http://54.235.29.9/FacialAge/BNav_EC2/DepthDuration/v2_depth_duration_MTurk/v2_DepthDuration_HTML.html#419,419,1366,625,1366,768,8-29-2022,10-41-9,131,depth_duration_stimuli/002763_2014-06-22_19-13-10_094959634447_rgbf000075-resize_4/002763_2014-06-22_19-13-10_094959634447_rgbf000075-resize_4-target.png,1000,1.68375,2,86817,956,feet,jsons/v1_VE1000_randls_22.json,817749,1300238,35,Woman
131,603422,DepthScenes,duration_manipulation_targetAtFixation,jsons/v1_VE1000_randls_22.json,http://54.235.29.9/FacialAge/BNav_EC2/DepthDuration/v2_depth_duration_MTurk/v2_DepthDuration_HTML.html#419,419,1366,625,1366,768,8-29-2022,10-41-9,132,depth_duration_stimuli/002209_2014-06-28_18-36-10_260595134347_rgbf000051-resize_1/002209_2014-06-28_18-36-10_260595134347_rgbf000051-resize_1-target.png,1000,2.057,1,3023,986,feet,jsons/v1_VE1000_randls_22.json,817749,1300238,35,Woman
132,603422,DepthScenes,duration_manipulation_targetAtFixation,jsons/v1_VE1000_randls_22.json,http://54.235.29.9/FacialAge/BNav_EC2/DepthDuration/v2_depth_duration_MTurk/v2_DepthDuration_HTML.html#419,419,1366,625,1366,768,8-29-2022,10-41-9,133,depth_duration_stimuli/001016_2014-06-09_16-16-10_260595134347_rgbf000112-resize_5/001016_2014-06-09_16-16-10_260595134347_rgbf000112-resize_5-target.png,1000,1.6565,6,3605,980,feet,jsons/v1_VE1000_randls_22.json,817749,1300238,35,Woman
133,603422,DepthScenes,duration_manipulation_targetAtFixation,jsons/v1_VE1000_randls_22.json,http://54.235.29.9/FacialAge/BNav_EC2/DepthDuration/v2_depth_duration_MTurk/v2_DepthDuration_HTML.html#419,419,1366,625,1366,768,8-29-2022,10-41-9,134,depth_duration_stimuli/002340_2014-06-28_20-05-46_260595134347_rgbf000113-resize_0/002340_2014-06-28_20-05-46_260595134347_rgbf000113-resize_0-target.png,1000,2.4735,2,3716,994,feet,jsons/v1_VE1000_randls_22.json,817749,1300238,35,Woman
134,603422,DepthScenes,duration_manipulation_targetAtFixation,jsons/v1_VE1000_randls_22.json,http://54.235.29.9/FacialAge/BNav_EC2/DepthDuration/v2_depth_duration_MTurk/v2_DepthDuration_HTML.html#419,419,1366,625,1366,768,8-29-2022,10-41-9,135,depth_duration_stimuli/002072_2014-06-24_21-48-06_260595134347_rgbf000115-resize_0/002072_2014-06-24_21-48-06_260595134347_rgbf000115-resize-original.jpg,1000,4.702,0,5555,1004,feet,jsons/v1_VE1000_randls_22.json,817749,1300238,35,Woman
135,603422,DepthScenes,duration_manipulation_targetAtFixation,jsons/v1_VE1000_randls_22.json,http://54.235.29.9/FacialAge/BNav_EC2/DepthDuration/v2_depth_duration_MTurk/v2_DepthDuration_HTML.html#419,419,1366,625,1366,768,8-29-2022,10-41-9,136,depth_duration_stimuli/001810_2014-06-26_20-51-35_260595134347_rgbf000040-resize_3/001810_2014-06-26_20-51-35_260595134347_rgbf000040-resize_3-target.png,1000,2.2525,3,4311,1013,feet,jsons/v1_VE1000_randls_22.json,817749,1300238,35,Woman
136,603422,DepthScenes,duration_manipulation_targetAtFixation,jsons/v1_VE1000_randls_22.json,http://54.235.29.9/FacialAge/BNav_EC2/DepthDuration/v2_depth_duration_MTurk/v2_DepthDuration_HTML.html#419,419,1366,625,1366,768,8-29-2022,10-41-9,137,depth_duration_stimuli/003010_2014-06-15_12-54-35_094959634447_rgbf000112-resize_0/003010_2014-06-15_12-54-35_094959634447_rgbf000112-resize_0-target.png,1000,3.1185,1,3529,1005,feet,jsons/v1_VE1000_randls_22.json,817749,1300238,35,Woman
137,603422,DepthScenes,duration_manipulation_targetAtFixation,jsons/v1_VE1000_randls_22.json,http://54.235.29.9/FacialAge/BNav_EC2/DepthDuration/v2_depth_duration_MTurk/v2_DepthDuration_HTML.html#419,419,1366,625,1366,768,8-29-2022,10-41-9,138,depth_duration_stimuli/000739_2014-06-08_18-45-58_260595134347_rgbf000068-resize_1/000739_2014-06-08_18-45-58_260595134347_rgbf000068-resize_1-target.png,1000,3.534,5,6270,1009,feet,jsons/v1_VE1000_randls_22.json,817749,1300238,35,Woman
138,603422,DepthScenes,duration_manipulation_targetAtFixation,jsons/v1_VE1000_randls_22.json,http://54.235.29.9/FacialAge/BNav_EC2/DepthDuration/v2_depth_duration_MTurk/v2_DepthDuration_HTML.html#419,419,1366,625,1366,768,8-29-2022,10-41-9,139,depth_duration_stimuli/000734_2014-06-08_17-39-11_260595134347_rgbf000128-resize_2/000734_2014-06-08_17-39-11_260595134347_rgbf000128-resize_2-target.png,1000,4.098,1,3329,1002,feet,jsons/v1_VE1000_randls_22.json,817749,1300238,35,Woman
139,603422,DepthScenes,duration_manipulation_targetAtFixation,jsons/v1_VE1000_randls_22.json,http://54.235.29.9/FacialAge/BNav_EC2/DepthDuration/v2_depth_duration_MTurk/v2_DepthDuration_HTML.html#419,419,1366,625,1366,768,8-29-2022,10-41-9,140,depth_duration_stimuli/001055_2014-06-08_18-45-35_260595134347_rgbf000111-resize_4/001055_2014-06-08_18-45-35_260595134347_rgbf000111-resize_4-target.png,1000,2.4290000000000003,3,3063,998,feet,jsons/v1_VE1000_randls_22.json,817749,1300238,35,Woman
140,603422,DepthScenes,duration_manipulation_targetAtFixation,jsons/v1_VE1000_randls_22.json,http://54.235.29.9/FacialAge/BNav_EC2/DepthDuration/v2_depth_duration_MTurk/v2_DepthDuration_HTML.html#419,419,1366,625,1366,768,8-29-2022,10-41-9,141,depth_duration_stimuli/000549_2014-06-08_22-10-24_260595134347_rgbf000247-resize_3/000549_2014-06-08_22-10-24_260595134347_rgbf000247-resize_3-target.png,1000,1.841,1,3320,999,feet,jsons/v1_VE1000_randls_22.json,817749,1300238,35,Woman
141,603422,DepthScenes,duration_manipulation_targetAtFixation,jsons/v1_VE1000_randls_22.json,http://54.235.29.9/FacialAge/BNav_EC2/DepthDuration/v2_depth_duration_MTurk/v2_DepthDuration_HTML.html#419,419,1366,625,1366,768,8-29-2022,10-41-9,142,depth_duration_stimuli/001066_2014-06-08_22-03-20_260595134347_rgbf000066-resize_4/001066_2014-06-08_22-03-20_260595134347_rgbf000066-resize_4-target.png,1000,4.2330000000000005,7,4290,995,feet,jsons/v1_VE1000_randls_22.json,817749,1300238,35,Woman
142,603422,DepthScenes,duration_manipulation_targetAtFixation,jsons/v1_VE1000_randls_22.json,http://54.235.29.9/FacialAge/BNav_EC2/DepthDuration/v2_depth_duration_MTurk/v2_DepthDuration_HTML.html#419,419,1366,625,1366,768,8-29-2022,10-41-9,143,depth_duration_stimuli/000742_2014-06-08_18-48-09_260595134347_rgbf000164-resize_4/000742_2014-06-08_18-48-09_260595134347_rgbf000164-resize_4-target.png,1000,4.632,2,3914,996,feet,jsons/v1_VE1000_randls_22.json,817749,1300238,35,Woman
143,603422,DepthScenes,duration_manipulation_targetAtFixation,jsons/v1_VE1000_randls_22.json,http://54.235.29.9/FacialAge/BNav_EC2/DepthDuration/v2_depth_duration_MTurk/v2_DepthDuration_HTML.html#419,419,1366,625,1366,768,8-29-2022,10-41-9,144,depth_duration_stimuli/000682_2014-06-08_23-14-58_260595134347_rgbf000041-resize_5/000682_2014-06-08_23-14-58_260595134347_rgbf000041-resize_5-target.png,1000,2.7239999999999998,1,3273,988,feet,jsons/v1_VE1000_randls_22.json,817749,1300238,35,Woman
144,603422,DepthScenes,duration_manipulation_targetAtFixation,jsons/v1_VE1000_randls_22.json,http://54.235.29.9/FacialAge/BNav_EC2/DepthDuration/v2_depth_duration_MTurk/v2_DepthDuration_HTML.html#419,419,1366,625,1366,768,8-29-2022,10-41-9,145,depth_duration_stimuli/001650_2014-06-20_12-09-00_260595134347_rgbf000087-resize_3/001650_2014-06-20_12-09-00_260595134347_rgbf000087-resize_3-target.png,1000,1.9505,6,3259,984,feet,jsons/v1_VE1000_randls_22.json,817749,1300238,35,Woman
145,603422,DepthScenes,duration_manipulation_targetAtFixation,jsons/v1_VE1000_randls_22.json,http://54.235.29.9/FacialAge/BNav_EC2/DepthDuration/v2_depth_duration_MTurk/v2_DepthDuration_HTML.html#419,419,1366,625,1366,768,8-29-2022,10-41-9,146,depth_duration_stimuli/001498_2014-06-19_17-45-14_260595134347_rgbf000129-resize_4/001498_2014-06-19_17-45-14_260595134347_rgbf000129-resize-original.jpg,1000,1.4075,0,8089,1009,feet,jsons/v1_VE1000_randls_22.json,817749,1300238,35,Woman
146,603422,DepthScenes,duration_manipulation_targetAtFixation,jsons/v1_VE1000_randls_22.json,http://54.235.29.9/FacialAge/BNav_EC2/DepthDuration/v2_depth_duration_MTurk/v2_DepthDuration_HTML.html#419,419,1366,625,1366,768,8-29-2022,10-41-9,147,depth_duration_stimuli/002988_2014-06-15_12-24-20_094959634447_rgbf000150-resize_1/002988_2014-06-15_12-24-20_094959634447_rgbf000150-resize_1-target.png,1000,4.7669999999999995,2,3367,997,feet,jsons/v1_VE1000_randls_22.json,817749,1300238,35,Woman
147,603422,DepthScenes,duration_manipulation_targetAtFixation,jsons/v1_VE1000_randls_22.json,http://54.235.29.9/FacialAge/BNav_EC2/DepthDuration/v2_depth_duration_MTurk/v2_DepthDuration_HTML.html#419,419,1366,625,1366,768,8-29-2022,10-41-9,148,depth_duration_stimuli/001052_2014-06-08_18-24-54_260595134347_rgbf000130-resize_1/001052_2014-06-08_18-24-54_260595134347_rgbf000130-resize_1-target.png,1000,4.1045,2,3268,1013,feet,jsons/v1_VE1000_randls_22.json,817749,1300238,35,Woman
148,603422,DepthScenes,duration_manipulation_targetAtFixation,jsons/v1_VE1000_randls_22.json,http://54.235.29.9/FacialAge/BNav_EC2/DepthDuration/v2_depth_duration_MTurk/v2_DepthDuration_HTML.html#419,419,1366,625,1366,768,8-29-2022,10-41-9,149,depth_duration_stimuli/001110_2014-06-15_17-25-28_260595134347_rgbf000150-resize_1/001110_2014-06-15_17-25-28_260595134347_rgbf000150-resize_1-target.png,1000,1.7115,1,4375,997,feet,jsons/v1_VE1000_randls_22.json,817749,1300238,35,Woman
149,603422,DepthScenes,duration_manipulation_targetAtFixation,jsons/v1_VE1000_randls_22.json,http://54.235.29.9/FacialAge/BNav_EC2/DepthDuration/v2_depth_duration_MTurk/v2_DepthDuration_HTML.html#419,419,1366,625,1366,768,8-29-2022,10-41-9,150,depth_duration_stimuli/000927_2014-06-09_16-32-30_260595134347_rgbf000123-resize_3/000927_2014-06-09_16-32-30_260595134347_rgbf000123-resize_3-target.png,1000,2.6785,3,3363,999,feet,jsons/v1_VE1000_randls_22.json,817749,1300238,35,Woman
150,603422,DepthScenes,duration_manipulation_targetAtFixation,jsons/v1_VE1000_randls_22.json,http://54.235.29.9/FacialAge/BNav_EC2/DepthDuration/v2_depth_duration_MTurk/v2_DepthDuration_HTML.html#419,419,1366,625,1366,768,8-29-2022,10-41-9,151,depth_duration_stimuli/002784_2014-06-22_19-26-30_094959634447_rgbf000083-resize_3/002784_2014-06-22_19-26-30_094959634447_rgbf000083-resize_3-target.png,1000,1.8046666666667,1,5611,986,feet,jsons/v1_VE1000_randls_22.json,817749,1300238,35,Woman
151,603422,DepthScenes,duration_manipulation_targetAtFixation,jsons/v1_VE1000_randls_22.json,http://54.235.29.9/FacialAge/BNav_EC2/DepthDuration/v2_depth_duration_MTurk/v2_DepthDuration_HTML.html#419,419,1366,625,1366,768,8-29-2022,10-41-9,152,depth_duration_stimuli/001100_2014-06-15_17-46-26_260595134347_rgbf000225-resize_2/001100_2014-06-15_17-46-26_260595134347_rgbf000225-resize_2-target.png,1000,2.24,2,3099,999,feet,jsons/v1_VE1000_randls_22.json,817749,1300238,35,Woman
152,603422,DepthScenes,duration_manipulation_targetAtFixation,jsons/v1_VE1000_randls_22.json,http://54.235.29.9/FacialAge/BNav_EC2/DepthDuration/v2_depth_duration_MTurk/v2_DepthDuration_HTML.html#419,419,1366,625,1366,768,8-29-2022,10-41-9,153,depth_duration_stimuli/001133_2014-06-17_14-49-16_260595134347_rgbf000100-resize_0/001133_2014-06-17_14-49-16_260595134347_rgbf000100-resize_0-target.png,1000,4.2115,2,3107,997,feet,jsons/v1_VE1000_randls_22.json,817749,1300238,35,Woman
153,603422,DepthScenes,duration_manipulation_targetAtFixation,jsons/v1_VE1000_randls_22.json,http://54.235.29.9/FacialAge/BNav_EC2/DepthDuration/v2_depth_duration_MTurk/v2_DepthDuration_HTML.html#419,419,1366,625,1366,768,8-29-2022,10-41-9,154,depth_duration_stimuli/001132_2014-06-17_14-48-54_260595134347_rgbf000100-resize_2/001132_2014-06-17_14-48-54_260595134347_rgbf000100-resize_2-target.png,1000,3.753,1,2932,1013,feet,jsons/v1_VE1000_randls_22.json,817749,1300238,35,Woman
154,603422,DepthScenes,duration_manipulation_targetAtFixation,jsons/v1_VE1000_randls_22.json,http://54.235.29.9/FacialAge/BNav_EC2/DepthDuration/v2_depth_duration_MTurk/v2_DepthDuration_HTML.html#419,419,1366,625,1366,768,8-29-2022,10-41-9,155,depth_duration_stimuli/001158_2014-06-17_15-32-16_260595134347_rgbf000138-resize_2/001158_2014-06-17_15-32-16_260595134347_rgbf000138-resize_2-target.png,1000,4.5315,6,3638,970,feet,jsons/v1_VE1000_randls_22.json,817749,1300238,35,Woman
155,603422,DepthScenes,duration_manipulation_targetAtFixation,jsons/v1_VE1000_randls_22.json,http://54.235.29.9/FacialAge/BNav_EC2/DepthDuration/v2_depth_duration_MTurk/v2_DepthDuration_HTML.html#419,419,1366,625,1366,768,8-29-2022,10-41-9,156,depth_duration_stimuli/000556_2014-06-09_22-42-56_260595134347_rgbf000214-resize_1/000556_2014-06-09_22-42-56_260595134347_rgbf000214-resize_1-target.png,1000,4.8415,2,2952,984,feet,jsons/v1_VE1000_randls_22.json,817749,1300238,35,Woman
156,603422,DepthScenes,duration_manipulation_targetAtFixation,jsons/v1_VE1000_randls_22.json,http://54.235.29.9/FacialAge/BNav_EC2/DepthDuration/v2_depth_duration_MTurk/v2_DepthDuration_HTML.html#419,419,1366,625,1366,768,8-29-2022,10-41-9,157,depth_duration_stimuli/000773_2014-06-08_22-24-54_260595134347_rgbf000093-resize_1/000773_2014-06-08_22-24-54_260595134347_rgbf000093-resize_1-target.png,1000,4.973,1,3294,991,feet,jsons/v1_VE1000_randls_22.json,817749,1300238,35,Woman
157,603422,DepthScenes,duration_manipulation_targetAtFixation,jsons/v1_VE1000_randls_22.json,http://54.235.29.9/FacialAge/BNav_EC2/DepthDuration/v2_depth_duration_MTurk/v2_DepthDuration_HTML.html#419,419,1366,625,1366,768,8-29-2022,10-41-9,158,depth_duration_stimuli/002414_2014-06-28_20-24-58_260595134347_rgbf000067-resize_4/002414_2014-06-28_20-24-58_260595134347_rgbf000067-resize_4-target.png,1000,4.363,5,2791,986,feet,jsons/v1_VE1000_randls_22.json,817749,1300238,35,Woman
158,603422,DepthScenes,duration_manipulation_targetAtFixation,jsons/v1_VE1000_randls_22.json,http://54.235.29.9/FacialAge/BNav_EC2/DepthDuration/v2_depth_duration_MTurk/v2_DepthDuration_HTML.html#419,419,1366,625,1366,768,8-29-2022,10-41-9,159,depth_duration_stimuli/002272_2014-06-28_18-53-56_260595134347_rgbf000067-resize_2/002272_2014-06-28_18-53-56_260595134347_rgbf000067-resize_2-target.png,1000,1.138,2,3244,1000,feet,jsons/v1_VE1000_randls_22.json,817749,1300238,35,Woman
159,603422,DepthScenes,duration_manipulation_targetAtFixation,jsons/v1_VE1000_randls_22.json,http://54.235.29.9/FacialAge/BNav_EC2/DepthDuration/v2_depth_duration_MTurk/v2_DepthDuration_HTML.html#419,419,1366,625,1366,768,8-29-2022,10-41-9,160,depth_duration_stimuli/001571_2014-06-20_17-21-32_260595134347_rgbf000089-resize_1/001571_2014-06-20_17-21-32_260595134347_rgbf000089-resize_1-target.png,1000,1.86,1,3480,996,feet,jsons/v1_VE1000_randls_22.json,817749,1300238,35,Woman
160,603422,DepthScenes,duration_manipulation_targetAtFixation,jsons/v1_VE1000_randls_22.json,http://54.235.29.9/FacialAge/BNav_EC2/DepthDuration/v2_depth_duration_MTurk/v2_DepthDuration_HTML.html#419,419,1366,625,1366,768,8-29-2022,10-41-9,161,depth_duration_stimuli/000368_2014-06-09_15-53-01_260595134347_rgbf000155-resize_2/000368_2014-06-09_15-53-01_260595134347_rgbf000155-resize_2-target.png,1000,2.4859999999999998,6,4077,989,feet,jsons/v1_VE1000_randls_22.json,817749,1300238,35,Woman
161,603422,DepthScenes,duration_manipulation_targetAtFixation,jsons/v1_VE1000_randls_22.json,http://54.235.29.9/FacialAge/BNav_EC2/DepthDuration/v2_depth_duration_MTurk/v2_DepthDuration_HTML.html#419,419,1366,625,1366,768,8-29-2022,10-41-9,162,depth_duration_stimuli/002678_2014-06-13_16-15-32_094959634447_rgbf000151-resize_6/002678_2014-06-13_16-15-32_094959634447_rgbf000151-resize_6-target.png,1000,2.1830000000000003,1,3476,995,feet,jsons/v1_VE1000_randls_22.json,817749,1300238,35,Woman
162,603422,DepthScenes,duration_manipulation_targetAtFixation,jsons/v1_VE1000_randls_22.json,http://54.235.29.9/FacialAge/BNav_EC2/DepthDuration/v2_depth_duration_MTurk/v2_DepthDuration_HTML.html#419,419,1366,625,1366,768,8-29-2022,10-41-9,163,depth_duration_stimuli/001092_2014-06-15_17-34-58_260595134347_rgbf000171-resize_3/001092_2014-06-15_17-34-58_260595134347_rgbf000171-resize_3-target.png,1000,2.6935,2,2815,986,feet,jsons/v1_VE1000_randls_22.json,817749,1300238,35,Woman
163,603422,DepthScenes,duration_manipulation_targetAtFixation,jsons/v1_VE1000_randls_22.json,http://54.235.29.9/FacialAge/BNav_EC2/DepthDuration/v2_depth_duration_MTurk/v2_DepthDuration_HTML.html#419,419,1366,625,1366,768,8-29-2022,10-41-9,164,depth_duration_stimuli/002545_2014-06-24_13-38-53_094959634447_rgbf000080-resize_4/002545_2014-06-24_13-38-53_094959634447_rgbf000080-resize_4-target.png,1000,1.9205,4,3402,1005,feet,jsons/v1_VE1000_randls_22.json,817749,1300238,35,Woman
