,subjID,experimentName,versionName,sequenceName,url,selected_row,windowWidth,windowHeight,screenWidth,screenHeight,startDate,startTime,trial,stimulus,duration,actual_depth,depth_estimate,trial_RT,log_sceneDuration,unitSelection,seq_filepath,experimentTime,totalTime,age,gender
0,603735,DepthScenes,duration_manipulation_targetAtFixation,jsons/VE125_randls_11_rotated.json,http://54.235.29.9/FacialAge/BNav_EC2/DepthDuration/v2_depth_duration_MTurk/v2_DepthDuration_HTML.html#368,368,1366,657,1366,768,9-4-2022,10-41-24,1,depth_duration_stimuli/003010_2014-06-15_12-54-35_094959634447_rgbf000112-resize_0/003010_2014-06-15_12-54-35_094959634447_rgbf000112-resize_0-target.png,125,3.1185,2,3793,133,meters,jsons/VE125_randls_11_rotated.json,1549802,1668967,47,Man
1,603735,DepthScenes,duration_manipulation_targetAtFixation,jsons/VE125_randls_11_rotated.json,http://54.235.29.9/FacialAge/BNav_EC2/DepthDuration/v2_depth_duration_MTurk/v2_DepthDuration_HTML.html#368,368,1366,657,1366,768,9-4-2022,10-41-24,2,depth_duration_stimuli/001810_2014-06-26_20-51-35_260595134347_rgbf000040-resize_3/001810_2014-06-26_20-51-35_260595134347_rgbf000040-resize_3-target.png,125,2.2525,5,8417,123,meters,jsons/VE125_randls_11_rotated.json,1549802,1668967,47,Man
2,603735,DepthScenes,duration_manipulation_targetAtFixation,jsons/VE125_randls_11_rotated.json,http://54.235.29.9/FacialAge/BNav_EC2/DepthDuration/v2_depth_duration_MTurk/v2_DepthDuration_HTML.html#368,368,1366,657,1366,768,9-4-2022,10-41-24,3,depth_duration_stimuli/000103_2014-05-14_22-01-17_260595134347_rgbf000152-resize_5/000103_2014-05-14_22-01-17_260595134347_rgbf000152-resize_5-target.png,125,1.993,4,4520,125,meters,jsons/VE125_randls_11_rotated.json,1549802,1668967,47,Man
3,603735,DepthScenes,duration_manipulation_targetAtFixation,jsons/VE125_randls_11_rotated.json,http://54.235.29.9/FacialAge/BNav_EC2/DepthDuration/v2_depth_duration_MTurk/v2_DepthDuration_HTML.html#368,368,1366,657,1366,768,9-4-2022,10-41-24,4,depth_duration_stimuli/001555_2014-06-20_17-12-10_260595134347_rgbf000065-resize_4/001555_2014-06-20_17-12-10_260595134347_rgbf000065-resize_4-target.png,125,1.633,2,4237,121,meters,jsons/VE125_randls_11_rotated.json,1549802,1668967,47,Man
4,603735,DepthScenes,duration_manipulation_targetAtFixation,jsons/VE125_randls_11_rotated.json,http://54.235.29.9/FacialAge/BNav_EC2/DepthDuration/v2_depth_duration_MTurk/v2_DepthDuration_HTML.html#368,368,1366,657,1366,768,9-4-2022,10-41-24,5,depth_duration_stimuli/003048_2014-06-15_13-49-43_094959634447_rgbf000150-resize_1/003048_2014-06-15_13-49-43_094959634447_rgbf000150-resize_1-target.png,125,4.0035,3,3923,125,meters,jsons/VE125_randls_11_rotated.json,1549802,1668967,47,Man
5,603735,DepthScenes,duration_manipulation_targetAtFixation,jsons/VE125_randls_11_rotated.json,http://54.235.29.9/FacialAge/BNav_EC2/DepthDuration/v2_depth_duration_MTurk/v2_DepthDuration_HTML.html#368,368,1366,657,1366,768,9-4-2022,10-41-24,6,depth_duration_stimuli/002043_2014-06-24_20-29-38_260595134347_rgbf000039-resize_4/002043_2014-06-24_20-29-38_260595134347_rgbf000039-resize_4-target.png,125,2.8435,4,4164,128,meters,jsons/VE125_randls_11_rotated.json,1549802,1668967,47,Man
6,603735,DepthScenes,duration_manipulation_targetAtFixation,jsons/VE125_randls_11_rotated.json,http://54.235.29.9/FacialAge/BNav_EC2/DepthDuration/v2_depth_duration_MTurk/v2_DepthDuration_HTML.html#368,368,1366,657,1366,768,9-4-2022,10-41-24,7,depth_duration_stimuli/002545_2014-06-24_13-38-53_094959634447_rgbf000080-resize_4/002545_2014-06-24_13-38-53_094959634447_rgbf000080-resize_4-target.png,125,1.9205,2,4059,139,meters,jsons/VE125_randls_11_rotated.json,1549802,1668967,47,Man
7,603735,DepthScenes,duration_manipulation_targetAtFixation,jsons/VE125_randls_11_rotated.json,http://54.235.29.9/FacialAge/BNav_EC2/DepthDuration/v2_depth_duration_MTurk/v2_DepthDuration_HTML.html#368,368,1366,657,1366,768,9-4-2022,10-41-24,8,depth_duration_stimuli/001092_2014-06-15_17-34-58_260595134347_rgbf000171-resize_3/001092_2014-06-15_17-34-58_260595134347_rgbf000171-resize_3-target.png,125,2.6935,5,3644,124,meters,jsons/VE125_randls_11_rotated.json,1549802,1668967,47,Man
8,603735,DepthScenes,duration_manipulation_targetAtFixation,jsons/VE125_randls_11_rotated.json,http://54.235.29.9/FacialAge/BNav_EC2/DepthDuration/v2_depth_duration_MTurk/v2_DepthDuration_HTML.html#368,368,1366,657,1366,768,9-4-2022,10-41-24,9,depth_duration_stimuli/002323_2014-06-28_20-01-54_260595134347_rgbf000051-resize_4/002323_2014-06-28_20-01-54_260595134347_rgbf000051-resize_4-target.png,125,3.7310000000000003,4,3929,121,meters,jsons/VE125_randls_11_rotated.json,1549802,1668967,47,Man
9,603735,DepthScenes,duration_manipulation_targetAtFixation,jsons/VE125_randls_11_rotated.json,http://54.235.29.9/FacialAge/BNav_EC2/DepthDuration/v2_depth_duration_MTurk/v2_DepthDuration_HTML.html#368,368,1366,657,1366,768,9-4-2022,10-41-24,10,depth_duration_stimuli/000917_2014-06-09_22-45-29_260595134347_rgbf000149-resize_3/000917_2014-06-09_22-45-29_260595134347_rgbf000149-resize_3-target.png,125,4.1865,3,4533,136,meters,jsons/VE125_randls_11_rotated.json,1549802,1668967,47,Man
10,603735,DepthScenes,duration_manipulation_targetAtFixation,jsons/VE125_randls_11_rotated.json,http://54.235.29.9/FacialAge/BNav_EC2/DepthDuration/v2_depth_duration_MTurk/v2_DepthDuration_HTML.html#368,368,1366,657,1366,768,9-4-2022,10-41-24,11,depth_duration_stimuli/001828_2014-06-26_21-40-03_260595134347_rgbf000024-resize_0/001828_2014-06-26_21-40-03_260595134347_rgbf000024-resize_0-target.png,125,4.8260000000000005,3,6541,123,meters,jsons/VE125_randls_11_rotated.json,1549802,1668967,47,Man
11,603735,DepthScenes,duration_manipulation_targetAtFixation,jsons/VE125_randls_11_rotated.json,http://54.235.29.9/FacialAge/BNav_EC2/DepthDuration/v2_depth_duration_MTurk/v2_DepthDuration_HTML.html#368,368,1366,657,1366,768,9-4-2022,10-41-24,12,depth_duration_stimuli/000009_2014-05-26_14-32-05_260595134347_rgbf000034-resize_3/000009_2014-05-26_14-32-05_260595134347_rgbf000034-resize_3-target.png,125,3.8715,4,4668,122,meters,jsons/VE125_randls_11_rotated.json,1549802,1668967,47,Man
12,603735,DepthScenes,duration_manipulation_targetAtFixation,jsons/VE125_randls_11_rotated.json,http://54.235.29.9/FacialAge/BNav_EC2/DepthDuration/v2_depth_duration_MTurk/v2_DepthDuration_HTML.html#368,368,1366,657,1366,768,9-4-2022,10-41-24,13,depth_duration_stimuli/000709_2014-06-08_13-51-55_260595134347_rgbf000068-resize_3/000709_2014-06-08_13-51-55_260595134347_rgbf000068-resize_3-target.png,125,1.8030000000000002,8,5075,129,meters,jsons/VE125_randls_11_rotated.json,1549802,1668967,47,Man
13,603735,DepthScenes,duration_manipulation_targetAtFixation,jsons/VE125_randls_11_rotated.json,http://54.235.29.9/FacialAge/BNav_EC2/DepthDuration/v2_depth_duration_MTurk/v2_DepthDuration_HTML.html#368,368,1366,657,1366,768,9-4-2022,10-41-24,14,depth_duration_stimuli/002057_2014-06-24_21-00-13_260595134347_rgbf000120-resize_1/002057_2014-06-24_21-00-13_260595134347_rgbf000120-resize_1-target.png,125,2.967,3,4320,113,meters,jsons/VE125_randls_11_rotated.json,1549802,1668967,47,Man
14,603735,DepthScenes,duration_manipulation_targetAtFixation,jsons/VE125_randls_11_rotated.json,http://54.235.29.9/FacialAge/BNav_EC2/DepthDuration/v2_depth_duration_MTurk/v2_DepthDuration_HTML.html#368,368,1366,657,1366,768,9-4-2022,10-41-24,15,depth_duration_stimuli/001516_2014-06-20_16-25-09_260595134347_rgbf000076-resize_2/001516_2014-06-20_16-25-09_260595134347_rgbf000076-resize_2-target.png,125,1.7445,4,5436,125,meters,jsons/VE125_randls_11_rotated.json,1549802,1668967,47,Man
15,603735,DepthScenes,duration_manipulation_targetAtFixation,jsons/VE125_randls_11_rotated.json,http://54.235.29.9/FacialAge/BNav_EC2/DepthDuration/v2_depth_duration_MTurk/v2_DepthDuration_HTML.html#368,368,1366,657,1366,768,9-4-2022,10-41-24,16,depth_duration_stimuli/002118_2014-06-25_20-32-08_260595134347_rgbf000078-resize_1/002118_2014-06-25_20-32-08_260595134347_rgbf000078-resize_1-target.png,125,2.6460000000000004,2,4095,128,meters,jsons/VE125_randls_11_rotated.json,1549802,1668967,47,Man
16,603735,DepthScenes,duration_manipulation_targetAtFixation,jsons/VE125_randls_11_rotated.json,http://54.235.29.9/FacialAge/BNav_EC2/DepthDuration/v2_depth_duration_MTurk/v2_DepthDuration_HTML.html#368,368,1366,657,1366,768,9-4-2022,10-41-24,17,depth_duration_stimuli/003587_2014-05-23_16-48-02_094959634447_rgbf002384-resize_2/003587_2014-05-23_16-48-02_094959634447_rgbf002384-resize_2-target.png,125,1.357,3,5621,133,meters,jsons/VE125_randls_11_rotated.json,1549802,1668967,47,Man
17,603735,DepthScenes,duration_manipulation_targetAtFixation,jsons/VE125_randls_11_rotated.json,http://54.235.29.9/FacialAge/BNav_EC2/DepthDuration/v2_depth_duration_MTurk/v2_DepthDuration_HTML.html#368,368,1366,657,1366,768,9-4-2022,10-41-24,18,depth_duration_stimuli/001167_2014-06-17_15-38-07_260595134347_rgbf000108-resize_0/001167_2014-06-17_15-38-07_260595134347_rgbf000108-resize_0-target.png,125,1.8505,4,4354,125,meters,jsons/VE125_randls_11_rotated.json,1549802,1668967,47,Man
18,603735,DepthScenes,duration_manipulation_targetAtFixation,jsons/VE125_randls_11_rotated.json,http://54.235.29.9/FacialAge/BNav_EC2/DepthDuration/v2_depth_duration_MTurk/v2_DepthDuration_HTML.html#368,368,1366,657,1366,768,9-4-2022,10-41-24,19,depth_duration_stimuli/001498_2014-06-19_17-45-14_260595134347_rgbf000129-resize_4/001498_2014-06-19_17-45-14_260595134347_rgbf000129-resize-original.jpg,125,1.4075,9,3998,127,meters,jsons/VE125_randls_11_rotated.json,1549802,1668967,47,Man
19,603735,DepthScenes,duration_manipulation_targetAtFixation,jsons/VE125_randls_11_rotated.json,http://54.235.29.9/FacialAge/BNav_EC2/DepthDuration/v2_depth_duration_MTurk/v2_DepthDuration_HTML.html#368,368,1366,657,1366,768,9-4-2022,10-41-24,20,depth_duration_stimuli/002678_2014-06-13_16-15-32_094959634447_rgbf000151-resize_6/002678_2014-06-13_16-15-32_094959634447_rgbf000151-resize_6-target.png,125,2.1830000000000003,5,3679,126,meters,jsons/VE125_randls_11_rotated.json,1549802,1668967,47,Man
20,603735,DepthScenes,duration_manipulation_targetAtFixation,jsons/VE125_randls_11_rotated.json,http://54.235.29.9/FacialAge/BNav_EC2/DepthDuration/v2_depth_duration_MTurk/v2_DepthDuration_HTML.html#368,368,1366,657,1366,768,9-4-2022,10-41-24,21,depth_duration_stimuli/000368_2014-06-09_15-53-01_260595134347_rgbf000155-resize_2/000368_2014-06-09_15-53-01_260595134347_rgbf000155-resize_2-target.png,125,2.4859999999999998,3,3685,122,meters,jsons/VE125_randls_11_rotated.json,1549802,1668967,47,Man
21,603735,DepthScenes,duration_manipulation_targetAtFixation,jsons/VE125_randls_11_rotated.json,http://54.235.29.9/FacialAge/BNav_EC2/DepthDuration/v2_depth_duration_MTurk/v2_DepthDuration_HTML.html#368,368,1366,657,1366,768,9-4-2022,10-41-24,22,depth_duration_stimuli/001235_2014-06-17_16-37-36_260595134347_rgbf000084-resize_4/001235_2014-06-17_16-37-36_260595134347_rgbf000084-resize_4-target.png,125,3.6605,4,5348,112,meters,jsons/VE125_randls_11_rotated.json,1549802,1668967,47,Man
22,603735,DepthScenes,duration_manipulation_targetAtFixation,jsons/VE125_randls_11_rotated.json,http://54.235.29.9/FacialAge/BNav_EC2/DepthDuration/v2_depth_duration_MTurk/v2_DepthDuration_HTML.html#368,368,1366,657,1366,768,9-4-2022,10-41-24,23,depth_duration_stimuli/000788_2014-06-08_22-34-36_260595134347_rgbf000131-resize_1/000788_2014-06-08_22-34-36_260595134347_rgbf000131-resize_1-target.png,125,3.359,8,5260,137,meters,jsons/VE125_randls_11_rotated.json,1549802,1668967,47,Man
23,603735,DepthScenes,duration_manipulation_targetAtFixation,jsons/VE125_randls_11_rotated.json,http://54.235.29.9/FacialAge/BNav_EC2/DepthDuration/v2_depth_duration_MTurk/v2_DepthDuration_HTML.html#368,368,1366,657,1366,768,9-4-2022,10-41-24,24,depth_duration_stimuli/003083_2014-06-15_15-21-03_094959634447_rgbf000063-resize_1/003083_2014-06-15_15-21-03_094959634447_rgbf000063-resize_1-target.png,125,4.1405,6,3467,117,meters,jsons/VE125_randls_11_rotated.json,1549802,1668967,47,Man
24,603735,DepthScenes,duration_manipulation_targetAtFixation,jsons/VE125_randls_11_rotated.json,http://54.235.29.9/FacialAge/BNav_EC2/DepthDuration/v2_depth_duration_MTurk/v2_DepthDuration_HTML.html#368,368,1366,657,1366,768,9-4-2022,10-41-24,25,depth_duration_stimuli/000486_2014-06-09_20-47-20_260595134347_rgbf000143-resize_2/000486_2014-06-09_20-47-20_260595134347_rgbf000143-resize_2-target.png,125,4.8325,8,3530,129,meters,jsons/VE125_randls_11_rotated.json,1549802,1668967,47,Man
25,603735,DepthScenes,duration_manipulation_targetAtFixation,jsons/VE125_randls_11_rotated.json,http://54.235.29.9/FacialAge/BNav_EC2/DepthDuration/v2_depth_duration_MTurk/v2_DepthDuration_HTML.html#368,368,1366,657,1366,768,9-4-2022,10-41-24,26,depth_duration_stimuli/002637_2014-06-24_14-51-13_094959634447_rgbf000066-resize_4/002637_2014-06-24_14-51-13_094959634447_rgbf000066-resize_4-target.png,125,1.9955,3,11970,138,meters,jsons/VE125_randls_11_rotated.json,1549802,1668967,47,Man
26,603735,DepthScenes,duration_manipulation_targetAtFixation,jsons/VE125_randls_11_rotated.json,http://54.235.29.9/FacialAge/BNav_EC2/DepthDuration/v2_depth_duration_MTurk/v2_DepthDuration_HTML.html#368,368,1366,657,1366,768,9-4-2022,10-41-24,27,depth_duration_stimuli/003534_2014-05-22_15-06-10_094959634447_rgbf000102-resize_4/003534_2014-05-22_15-06-10_094959634447_rgbf000102-resize_4-target.png,125,1.426,6,5124,123,meters,jsons/VE125_randls_11_rotated.json,1549802,1668967,47,Man
27,603735,DepthScenes,duration_manipulation_targetAtFixation,jsons/VE125_randls_11_rotated.json,http://54.235.29.9/FacialAge/BNav_EC2/DepthDuration/v2_depth_duration_MTurk/v2_DepthDuration_HTML.html#368,368,1366,657,1366,768,9-4-2022,10-41-24,28,depth_duration_stimuli/001584_2014-06-20_11-07-43_260595134347_rgbf000002-resize_1/001584_2014-06-20_11-07-43_260595134347_rgbf000002-resize_1-target.png,125,3.53,4,6196,124,meters,jsons/VE125_randls_11_rotated.json,1549802,1668967,47,Man
28,603735,DepthScenes,duration_manipulation_targetAtFixation,jsons/VE125_randls_11_rotated.json,http://54.235.29.9/FacialAge/BNav_EC2/DepthDuration/v2_depth_duration_MTurk/v2_DepthDuration_HTML.html#368,368,1366,657,1366,768,9-4-2022,10-41-24,29,depth_duration_stimuli/003621_2014-05-23_18-06-08_094959634447_rgbf000101-resize_1/003621_2014-05-23_18-06-08_094959634447_rgbf000101-resize_1-target.png,125,3.9835,7,4109,113,meters,jsons/VE125_randls_11_rotated.json,1549802,1668967,47,Man
29,603735,DepthScenes,duration_manipulation_targetAtFixation,jsons/VE125_randls_11_rotated.json,http://54.235.29.9/FacialAge/BNav_EC2/DepthDuration/v2_depth_duration_MTurk/v2_DepthDuration_HTML.html#368,368,1366,657,1366,768,9-4-2022,10-41-24,30,depth_duration_stimuli/002072_2014-06-24_21-48-06_260595134347_rgbf000115-resize_0/002072_2014-06-24_21-48-06_260595134347_rgbf000115-resize-original.jpg,125,4.702,7,14916,124,meters,jsons/VE125_randls_11_rotated.json,1549802,1668967,47,Man
30,603735,DepthScenes,duration_manipulation_targetAtFixation,jsons/VE125_randls_11_rotated.json,http://54.235.29.9/FacialAge/BNav_EC2/DepthDuration/v2_depth_duration_MTurk/v2_DepthDuration_HTML.html#368,368,1366,657,1366,768,9-4-2022,10-41-24,31,depth_duration_stimuli/002103_2014-06-25_20-00-40_260595134347_rgbf000049-resize_0/002103_2014-06-25_20-00-40_260595134347_rgbf000049-resize_0-target.png,125,4.105,3,4130,110,meters,jsons/VE125_randls_11_rotated.json,1549802,1668967,47,Man
31,603735,DepthScenes,duration_manipulation_targetAtFixation,jsons/VE125_randls_11_rotated.json,http://54.235.29.9/FacialAge/BNav_EC2/DepthDuration/v2_depth_duration_MTurk/v2_DepthDuration_HTML.html#368,368,1366,657,1366,768,9-4-2022,10-41-24,32,depth_duration_stimuli/002039_2014-06-24_20-22-38_260595134347_rgbf000084-resize_1/002039_2014-06-24_20-22-38_260595134347_rgbf000084-resize_1-target.png,125,4.408,5,5052,113,meters,jsons/VE125_randls_11_rotated.json,1549802,1668967,47,Man
32,603735,DepthScenes,duration_manipulation_targetAtFixation,jsons/VE125_randls_11_rotated.json,http://54.235.29.9/FacialAge/BNav_EC2/DepthDuration/v2_depth_duration_MTurk/v2_DepthDuration_HTML.html#368,368,1366,657,1366,768,9-4-2022,10-41-24,33,depth_duration_stimuli/000943_2014-06-09_19-31-07_260595134347_rgbf000128-resize_1/000943_2014-06-09_19-31-07_260595134347_rgbf000128-resize_1-target.png,125,1.9765,7,4878,124,meters,jsons/VE125_randls_11_rotated.json,1549802,1668967,47,Man
33,603735,DepthScenes,duration_manipulation_targetAtFixation,jsons/VE125_randls_11_rotated.json,http://54.235.29.9/FacialAge/BNav_EC2/DepthDuration/v2_depth_duration_MTurk/v2_DepthDuration_HTML.html#368,368,1366,657,1366,768,9-4-2022,10-41-24,34,depth_duration_stimuli/003070_2014-06-15_14-58-27_094959634447_rgbf000150-resize_3/003070_2014-06-15_14-58-27_094959634447_rgbf000150-resize_3-target.png,125,2.9415,3,7199,127,meters,jsons/VE125_randls_11_rotated.json,1549802,1668967,47,Man
34,603735,DepthScenes,duration_manipulation_targetAtFixation,jsons/VE125_randls_11_rotated.json,http://54.235.29.9/FacialAge/BNav_EC2/DepthDuration/v2_depth_duration_MTurk/v2_DepthDuration_HTML.html#368,368,1366,657,1366,768,9-4-2022,10-41-24,35,depth_duration_stimuli/002425_2014-06-28_20-27-29_260595134347_rgbf000031-resize_8/002425_2014-06-28_20-27-29_260595134347_rgbf000031-resize_8-target.png,125,3.8960000000000004,5,15808,124,meters,jsons/VE125_randls_11_rotated.json,1549802,1668967,47,Man
35,603735,DepthScenes,duration_manipulation_targetAtFixation,jsons/VE125_randls_11_rotated.json,http://54.235.29.9/FacialAge/BNav_EC2/DepthDuration/v2_depth_duration_MTurk/v2_DepthDuration_HTML.html#368,368,1366,657,1366,768,9-4-2022,10-41-24,36,depth_duration_stimuli/000642_2014-06-08_16-59-25_260595134347_rgbf000098-resize_2/000642_2014-06-08_16-59-25_260595134347_rgbf000098-resize_2-target.png,125,2.8815,6,3713,130,meters,jsons/VE125_randls_11_rotated.json,1549802,1668967,47,Man
36,603735,DepthScenes,duration_manipulation_targetAtFixation,jsons/VE125_randls_11_rotated.json,http://54.235.29.9/FacialAge/BNav_EC2/DepthDuration/v2_depth_duration_MTurk/v2_DepthDuration_HTML.html#368,368,1366,657,1366,768,9-4-2022,10-41-24,37,depth_duration_stimuli/002414_2014-06-28_20-24-58_260595134347_rgbf000067-resize_4/002414_2014-06-28_20-24-58_260595134347_rgbf000067-resize_4-target.png,125,4.363,8,9493,124,meters,jsons/VE125_randls_11_rotated.json,1549802,1668967,47,Man
37,603735,DepthScenes,duration_manipulation_targetAtFixation,jsons/VE125_randls_11_rotated.json,http://54.235.29.9/FacialAge/BNav_EC2/DepthDuration/v2_depth_duration_MTurk/v2_DepthDuration_HTML.html#368,368,1366,657,1366,768,9-4-2022,10-41-24,38,depth_duration_stimuli/000773_2014-06-08_22-24-54_260595134347_rgbf000093-resize_1/000773_2014-06-08_22-24-54_260595134347_rgbf000093-resize_1-target.png,125,4.973,6,4143,133,meters,jsons/VE125_randls_11_rotated.json,1549802,1668967,47,Man
38,603735,DepthScenes,duration_manipulation_targetAtFixation,jsons/VE125_randls_11_rotated.json,http://54.235.29.9/FacialAge/BNav_EC2/DepthDuration/v2_depth_duration_MTurk/v2_DepthDuration_HTML.html#368,368,1366,657,1366,768,9-4-2022,10-41-24,39,depth_duration_stimuli/002209_2014-06-28_18-36-10_260595134347_rgbf000051-resize_1/002209_2014-06-28_18-36-10_260595134347_rgbf000051-resize_1-target.png,125,2.057,4,3682,118,meters,jsons/VE125_randls_11_rotated.json,1549802,1668967,47,Man
39,603735,DepthScenes,duration_manipulation_targetAtFixation,jsons/VE125_randls_11_rotated.json,http://54.235.29.9/FacialAge/BNav_EC2/DepthDuration/v2_depth_duration_MTurk/v2_DepthDuration_HTML.html#368,368,1366,657,1366,768,9-4-2022,10-41-24,40,depth_duration_stimuli/002763_2014-06-22_19-13-10_094959634447_rgbf000075-resize_4/002763_2014-06-22_19-13-10_094959634447_rgbf000075-resize_4-target.png,125,1.68375,2,3700,110,meters,jsons/VE125_randls_11_rotated.json,1549802,1668967,47,Man
40,603735,DepthScenes,duration_manipulation_targetAtFixation,jsons/VE125_randls_11_rotated.json,http://54.235.29.9/FacialAge/BNav_EC2/DepthDuration/v2_depth_duration_MTurk/v2_DepthDuration_HTML.html#368,368,1366,657,1366,768,9-4-2022,10-41-24,41,depth_duration_stimuli/000556_2014-06-09_22-42-56_260595134347_rgbf000214-resize_1/000556_2014-06-09_22-42-56_260595134347_rgbf000214-resize_1-target.png,125,4.8415,7,3539,114,meters,jsons/VE125_randls_11_rotated.json,1549802,1668967,47,Man
41,603735,DepthScenes,duration_manipulation_targetAtFixation,jsons/VE125_randls_11_rotated.json,http://54.235.29.9/FacialAge/BNav_EC2/DepthDuration/v2_depth_duration_MTurk/v2_DepthDuration_HTML.html#368,368,1366,657,1366,768,9-4-2022,10-41-24,42,depth_duration_stimuli/001158_2014-06-17_15-32-16_260595134347_rgbf000138-resize_2/001158_2014-06-17_15-32-16_260595134347_rgbf000138-resize_2-target.png,125,4.5315,6,3499,127,meters,jsons/VE125_randls_11_rotated.json,1549802,1668967,47,Man
42,603735,DepthScenes,duration_manipulation_targetAtFixation,jsons/VE125_randls_11_rotated.json,http://54.235.29.9/FacialAge/BNav_EC2/DepthDuration/v2_depth_duration_MTurk/v2_DepthDuration_HTML.html#368,368,1366,657,1366,768,9-4-2022,10-41-24,43,depth_duration_stimuli/000409_2014-06-04_19-23-33_260595134347_rgbf000067-resize_0/000409_2014-06-04_19-23-33_260595134347_rgbf000067-resize_0-target.png,125,3.7335,4,5209,119,meters,jsons/VE125_randls_11_rotated.json,1549802,1668967,47,Man
43,603735,DepthScenes,duration_manipulation_targetAtFixation,jsons/VE125_randls_11_rotated.json,http://54.235.29.9/FacialAge/BNav_EC2/DepthDuration/v2_depth_duration_MTurk/v2_DepthDuration_HTML.html#368,368,1366,657,1366,768,9-4-2022,10-41-24,44,depth_duration_stimuli/002663_2014-06-13_15-50-26_094959634447_rgbf000075-resize_1/002663_2014-06-13_15-50-26_094959634447_rgbf000075-resize_1-target.png,125,4.7495,5,3402,126,meters,jsons/VE125_randls_11_rotated.json,1549802,1668967,47,Man
44,603735,DepthScenes,duration_manipulation_targetAtFixation,jsons/VE125_randls_11_rotated.json,http://54.235.29.9/FacialAge/BNav_EC2/DepthDuration/v2_depth_duration_MTurk/v2_DepthDuration_HTML.html#368,368,1366,657,1366,768,9-4-2022,10-41-24,45,depth_duration_stimuli/000109_2014-05-14_23-41-52_260595134347_rgbf000035-resize_9/000109_2014-05-14_23-41-52_260595134347_rgbf000035-resize_9-target.png,125,1.3545,7,4092,126,meters,jsons/VE125_randls_11_rotated.json,1549802,1668967,47,Man
45,603735,DepthScenes,duration_manipulation_targetAtFixation,jsons/VE125_randls_11_rotated.json,http://54.235.29.9/FacialAge/BNav_EC2/DepthDuration/v2_depth_duration_MTurk/v2_DepthDuration_HTML.html#368,368,1366,657,1366,768,9-4-2022,10-41-24,46,depth_duration_stimuli/000470_2014-06-09_19-42-40_260595134347_rgbf000094-resize_1/000470_2014-06-09_19-42-40_260595134347_rgbf000094-resize_1-target.png,125,1.831,3,4394,125,meters,jsons/VE125_randls_11_rotated.json,1549802,1668967,47,Man
46,603735,DepthScenes,duration_manipulation_targetAtFixation,jsons/VE125_randls_11_rotated.json,http://54.235.29.9/FacialAge/BNav_EC2/DepthDuration/v2_depth_duration_MTurk/v2_DepthDuration_HTML.html#368,368,1366,657,1366,768,9-4-2022,10-41-24,47,depth_duration_stimuli/001100_2014-06-15_17-46-26_260595134347_rgbf000225-resize_2/001100_2014-06-15_17-46-26_260595134347_rgbf000225-resize_2-target.png,125,2.24,5,5280,116,meters,jsons/VE125_randls_11_rotated.json,1549802,1668967,47,Man
47,603735,DepthScenes,duration_manipulation_targetAtFixation,jsons/VE125_randls_11_rotated.json,http://54.235.29.9/FacialAge/BNav_EC2/DepthDuration/v2_depth_duration_MTurk/v2_DepthDuration_HTML.html#368,368,1366,657,1366,768,9-4-2022,10-41-24,48,depth_duration_stimuli/002784_2014-06-22_19-26-30_094959634447_rgbf000083-resize_3/002784_2014-06-22_19-26-30_094959634447_rgbf000083-resize_3-target.png,125,1.8046666666667,7,198313,152,meters,jsons/VE125_randls_11_rotated.json,1549802,1668967,47,Man
48,603735,DepthScenes,duration_manipulation_targetAtFixation,jsons/VE125_randls_11_rotated.json,http://54.235.29.9/FacialAge/BNav_EC2/DepthDuration/v2_depth_duration_MTurk/v2_DepthDuration_HTML.html#368,368,1366,657,1366,768,9-4-2022,10-41-24,49,depth_duration_stimuli/001170_2014-06-17_15-43-44_260595134347_rgbf000096-resize_6/001170_2014-06-17_15-43-44_260595134347_rgbf000096-resize-original.jpg,125,1.1909999999999998,6,4160,125,meters,jsons/VE125_randls_11_rotated.json,1549802,1668967,47,Man
49,603735,DepthScenes,duration_manipulation_targetAtFixation,jsons/VE125_randls_11_rotated.json,http://54.235.29.9/FacialAge/BNav_EC2/DepthDuration/v2_depth_duration_MTurk/v2_DepthDuration_HTML.html#368,368,1366,657,1366,768,9-4-2022,10-41-24,50,depth_duration_stimuli/002875_2014-06-01_15-19-00_094959634447_rgbf000151-resize_1/002875_2014-06-01_15-19-00_094959634447_rgbf000151-resize_1-target.png,125,1.9675,2,3633,114,meters,jsons/VE125_randls_11_rotated.json,1549802,1668967,47,Man
50,603735,DepthScenes,duration_manipulation_targetAtFixation,jsons/VE125_randls_11_rotated.json,http://54.235.29.9/FacialAge/BNav_EC2/DepthDuration/v2_depth_duration_MTurk/v2_DepthDuration_HTML.html#368,368,1366,657,1366,768,9-4-2022,10-41-24,51,depth_duration_stimuli/001011_2014-06-08_23-18-54_260595134347_rgbf000044-resize_4/001011_2014-06-08_23-18-54_260595134347_rgbf000044-resize_4-target.png,125,2.4730000000000003,7,3838,127,meters,jsons/VE125_randls_11_rotated.json,1549802,1668967,47,Man
51,603735,DepthScenes,duration_manipulation_targetAtFixation,jsons/VE125_randls_11_rotated.json,http://54.235.29.9/FacialAge/BNav_EC2/DepthDuration/v2_depth_duration_MTurk/v2_DepthDuration_HTML.html#368,368,1366,657,1366,768,9-4-2022,10-41-24,52,depth_duration_stimuli/001132_2014-06-17_14-48-54_260595134347_rgbf000100-resize_2/001132_2014-06-17_14-48-54_260595134347_rgbf000100-resize_2-target.png,125,3.753,3,3721,121,meters,jsons/VE125_randls_11_rotated.json,1549802,1668967,47,Man
52,603735,DepthScenes,duration_manipulation_targetAtFixation,jsons/VE125_randls_11_rotated.json,http://54.235.29.9/FacialAge/BNav_EC2/DepthDuration/v2_depth_duration_MTurk/v2_DepthDuration_HTML.html#368,368,1366,657,1366,768,9-4-2022,10-41-24,53,depth_duration_stimuli/001133_2014-06-17_14-49-16_260595134347_rgbf000100-resize_0/001133_2014-06-17_14-49-16_260595134347_rgbf000100-resize_0-target.png,125,4.2115,5,3742,128,meters,jsons/VE125_randls_11_rotated.json,1549802,1668967,47,Man
53,603735,DepthScenes,duration_manipulation_targetAtFixation,jsons/VE125_randls_11_rotated.json,http://54.235.29.9/FacialAge/BNav_EC2/DepthDuration/v2_depth_duration_MTurk/v2_DepthDuration_HTML.html#368,368,1366,657,1366,768,9-4-2022,10-41-24,54,depth_duration_stimuli/000665_2014-06-09_20-42-35_260595134347_rgbf000110-resize_1/000665_2014-06-09_20-42-35_260595134347_rgbf000110-resize_1-target.png,125,3.057,9,3769,120,meters,jsons/VE125_randls_11_rotated.json,1549802,1668967,47,Man
54,603735,DepthScenes,duration_manipulation_targetAtFixation,jsons/VE125_randls_11_rotated.json,http://54.235.29.9/FacialAge/BNav_EC2/DepthDuration/v2_depth_duration_MTurk/v2_DepthDuration_HTML.html#368,368,1366,657,1366,768,9-4-2022,10-41-24,55,depth_duration_stimuli/001150_2014-06-17_15-27-34_260595134347_rgbf000108-resize_2/001150_2014-06-17_15-27-34_260595134347_rgbf000108-resize_2-target.png,125,4.0325,5,5391,124,meters,jsons/VE125_randls_11_rotated.json,1549802,1668967,47,Man
55,603735,DepthScenes,duration_manipulation_targetAtFixation,jsons/VE125_randls_11_rotated.json,http://54.235.29.9/FacialAge/BNav_EC2/DepthDuration/v2_depth_duration_MTurk/v2_DepthDuration_HTML.html#368,368,1366,657,1366,768,9-4-2022,10-41-24,56,depth_duration_stimuli/001392_2014-06-19_16-07-59_260595134347_rgbf000046-resize_1/001392_2014-06-19_16-07-59_260595134347_rgbf000046-resize_1-target.png,125,4.135,7,4931,123,meters,jsons/VE125_randls_11_rotated.json,1549802,1668967,47,Man
56,603735,DepthScenes,duration_manipulation_targetAtFixation,jsons/VE125_randls_11_rotated.json,http://54.235.29.9/FacialAge/BNav_EC2/DepthDuration/v2_depth_duration_MTurk/v2_DepthDuration_HTML.html#368,368,1366,657,1366,768,9-4-2022,10-41-24,57,depth_duration_stimuli/001570_2014-06-20_17-21-09_260595134347_rgbf000135-resize_4/001570_2014-06-20_17-21-09_260595134347_rgbf000135-resize_4-target.png,125,4.467,3,3476,115,meters,jsons/VE125_randls_11_rotated.json,1549802,1668967,47,Man
57,603735,DepthScenes,duration_manipulation_targetAtFixation,jsons/VE125_randls_11_rotated.json,http://54.235.29.9/FacialAge/BNav_EC2/DepthDuration/v2_depth_duration_MTurk/v2_DepthDuration_HTML.html#368,368,1366,657,1366,768,9-4-2022,10-41-24,58,depth_duration_stimuli/000691_2014-06-08_13-08-50_260595134347_rgbf000132-resize_3/000691_2014-06-08_13-08-50_260595134347_rgbf000132-resize_3-target.png,125,4.1530000000000005,15,3459,116,meters,jsons/VE125_randls_11_rotated.json,1549802,1668967,47,Man
58,603735,DepthScenes,duration_manipulation_targetAtFixation,jsons/VE125_randls_11_rotated.json,http://54.235.29.9/FacialAge/BNav_EC2/DepthDuration/v2_depth_duration_MTurk/v2_DepthDuration_HTML.html#368,368,1366,657,1366,768,9-4-2022,10-41-24,59,depth_duration_stimuli/002213_2014-06-28_18-37-58_260595134347_rgbf000055-resize_1/002213_2014-06-28_18-37-58_260595134347_rgbf000055-resize_1-target.png,125,3.62,6,4693,111,meters,jsons/VE125_randls_11_rotated.json,1549802,1668967,47,Man
59,603735,DepthScenes,duration_manipulation_targetAtFixation,jsons/VE125_randls_11_rotated.json,http://54.235.29.9/FacialAge/BNav_EC2/DepthDuration/v2_depth_duration_MTurk/v2_DepthDuration_HTML.html#368,368,1366,657,1366,768,9-4-2022,10-41-24,60,depth_duration_stimuli/002657_2014-06-13_15-29-54_094959634447_rgbf000150-resize_1/002657_2014-06-13_15-29-54_094959634447_rgbf000150-resize_1-target.png,125,4.919,1,3123,115,meters,jsons/VE125_randls_11_rotated.json,1549802,1668967,47,Man
60,603735,DepthScenes,duration_manipulation_targetAtFixation,jsons/VE125_randls_11_rotated.json,http://54.235.29.9/FacialAge/BNav_EC2/DepthDuration/v2_depth_duration_MTurk/v2_DepthDuration_HTML.html#368,368,1366,657,1366,768,9-4-2022,10-41-24,61,depth_duration_stimuli/002375_2014-06-28_20-13-44_260595134347_rgbf000032-resize_1/002375_2014-06-28_20-13-44_260595134347_rgbf000032-resize_1-target.png,125,4.0175,1,3187,124,meters,jsons/VE125_randls_11_rotated.json,1549802,1668967,47,Man
61,603735,DepthScenes,duration_manipulation_targetAtFixation,jsons/VE125_randls_11_rotated.json,http://54.235.29.9/FacialAge/BNav_EC2/DepthDuration/v2_depth_duration_MTurk/v2_DepthDuration_HTML.html#368,368,1366,657,1366,768,9-4-2022,10-41-24,62,depth_duration_stimuli/002949_2014-06-26_15-57-42_094959634447_rgbf000079-resize_1/002949_2014-06-26_15-57-42_094959634447_rgbf000079-resize_1-target.png,125,1.8915,5,3461,140,meters,jsons/VE125_randls_11_rotated.json,1549802,1668967,47,Man
62,603735,DepthScenes,duration_manipulation_targetAtFixation,jsons/VE125_randls_11_rotated.json,http://54.235.29.9/FacialAge/BNav_EC2/DepthDuration/v2_depth_duration_MTurk/v2_DepthDuration_HTML.html#368,368,1366,657,1366,768,9-4-2022,10-41-24,63,depth_duration_stimuli/000522_2014-06-08_13-35-06_260595134347_rgbf000244-resize_1/000522_2014-06-08_13-35-06_260595134347_rgbf000244-resize_1-target.png,125,2.3715,8,3674,114,meters,jsons/VE125_randls_11_rotated.json,1549802,1668967,47,Man
63,603735,DepthScenes,duration_manipulation_targetAtFixation,jsons/VE125_randls_11_rotated.json,http://54.235.29.9/FacialAge/BNav_EC2/DepthDuration/v2_depth_duration_MTurk/v2_DepthDuration_HTML.html#368,368,1366,657,1366,768,9-4-2022,10-41-24,64,depth_duration_stimuli/003081_2014-06-15_15-19-16_094959634447_rgbf000150-resize_1/003081_2014-06-15_15-19-16_094959634447_rgbf000150-resize_1-target.png,125,3.9125,3,3906,125,meters,jsons/VE125_randls_11_rotated.json,1549802,1668967,47,Man
64,603735,DepthScenes,duration_manipulation_targetAtFixation,jsons/VE125_randls_11_rotated.json,http://54.235.29.9/FacialAge/BNav_EC2/DepthDuration/v2_depth_duration_MTurk/v2_DepthDuration_HTML.html#368,368,1366,657,1366,768,9-4-2022,10-41-24,65,depth_duration_stimuli/001417_2014-06-19_16-25-36_260595134347_rgbf000115-resize_5/001417_2014-06-19_16-25-36_260595134347_rgbf000115-resize_5-target.png,125,4.6255,7,3404,123,meters,jsons/VE125_randls_11_rotated.json,1549802,1668967,47,Man
65,603735,DepthScenes,duration_manipulation_targetAtFixation,jsons/VE125_randls_11_rotated.json,http://54.235.29.9/FacialAge/BNav_EC2/DepthDuration/v2_depth_duration_MTurk/v2_DepthDuration_HTML.html#368,368,1366,657,1366,768,9-4-2022,10-41-24,66,depth_duration_stimuli/001540_2014-06-20_17-01-05_260595134347_rgbf000086-resize_2/001540_2014-06-20_17-01-05_260595134347_rgbf000086-resize-original.jpg,125,1.459,3,3875,125,meters,jsons/VE125_randls_11_rotated.json,1549802,1668967,47,Man
66,603735,DepthScenes,duration_manipulation_targetAtFixation,jsons/VE125_randls_11_rotated.json,http://54.235.29.9/FacialAge/BNav_EC2/DepthDuration/v2_depth_duration_MTurk/v2_DepthDuration_HTML.html#368,368,1366,657,1366,768,9-4-2022,10-41-24,67,depth_duration_stimuli/002750_2014-06-22_19-08-03_094959634447_rgbf000094-resize_4/002750_2014-06-22_19-08-03_094959634447_rgbf000094-resize_4-target.png,125,2.354,5,3698,114,meters,jsons/VE125_randls_11_rotated.json,1549802,1668967,47,Man
67,603735,DepthScenes,duration_manipulation_targetAtFixation,jsons/VE125_randls_11_rotated.json,http://54.235.29.9/FacialAge/BNav_EC2/DepthDuration/v2_depth_duration_MTurk/v2_DepthDuration_HTML.html#368,368,1366,657,1366,768,9-4-2022,10-41-24,68,depth_duration_stimuli/002549_2014-06-24_13-41-39_094959634447_rgbf000022-resize_3/002549_2014-06-24_13-41-39_094959634447_rgbf000022-resize_3-target.png,125,1.476,7,3702,122,meters,jsons/VE125_randls_11_rotated.json,1549802,1668967,47,Man
68,603735,DepthScenes,duration_manipulation_targetAtFixation,jsons/VE125_randls_11_rotated.json,http://54.235.29.9/FacialAge/BNav_EC2/DepthDuration/v2_depth_duration_MTurk/v2_DepthDuration_HTML.html#368,368,1366,657,1366,768,9-4-2022,10-41-24,69,depth_duration_stimuli/000677_2014-06-08_23-10-32_260595134347_rgbf000158-resize_6/000677_2014-06-08_23-10-32_260595134347_rgbf000158-resize_6-target.png,125,3.556,2,4147,126,meters,jsons/VE125_randls_11_rotated.json,1549802,1668967,47,Man
69,603735,DepthScenes,duration_manipulation_targetAtFixation,jsons/VE125_randls_11_rotated.json,http://54.235.29.9/FacialAge/BNav_EC2/DepthDuration/v2_depth_duration_MTurk/v2_DepthDuration_HTML.html#368,368,1366,657,1366,768,9-4-2022,10-41-24,70,depth_duration_stimuli/001029_2014-06-08_13-17-57_260595134347_rgbf000065-resize_1/001029_2014-06-08_13-17-57_260595134347_rgbf000065-resize_1-target.png,125,3.0835,5,3735,128,meters,jsons/VE125_randls_11_rotated.json,1549802,1668967,47,Man
70,603735,DepthScenes,duration_manipulation_targetAtFixation,jsons/VE125_randls_11_rotated.json,http://54.235.29.9/FacialAge/BNav_EC2/DepthDuration/v2_depth_duration_MTurk/v2_DepthDuration_HTML.html#368,368,1366,657,1366,768,9-4-2022,10-41-24,71,depth_duration_stimuli/000866_2014-06-09_20-45-42_260595134347_rgbf000139-resize_1/000866_2014-06-09_20-45-42_260595134347_rgbf000139-resize_1-target.png,125,3.2155,4,3568,110,meters,jsons/VE125_randls_11_rotated.json,1549802,1668967,47,Man
71,603735,DepthScenes,duration_manipulation_targetAtFixation,jsons/VE125_randls_11_rotated.json,http://54.235.29.9/FacialAge/BNav_EC2/DepthDuration/v2_depth_duration_MTurk/v2_DepthDuration_HTML.html#368,368,1366,657,1366,768,9-4-2022,10-41-24,72,depth_duration_stimuli/002989_2014-06-15_12-25-03_094959634447_rgbf000150-resize_3/002989_2014-06-15_12-25-03_094959634447_rgbf000150-resize_3-target.png,125,4.1975,3,3097,136,meters,jsons/VE125_randls_11_rotated.json,1549802,1668967,47,Man
72,603735,DepthScenes,duration_manipulation_targetAtFixation,jsons/VE125_randls_11_rotated.json,http://54.235.29.9/FacialAge/BNav_EC2/DepthDuration/v2_depth_duration_MTurk/v2_DepthDuration_HTML.html#368,368,1366,657,1366,768,9-4-2022,10-41-24,73,depth_duration_stimuli/003079_2014-06-15_15-18-20_094959634447_rgbf000152-resize_8/003079_2014-06-15_15-18-20_094959634447_rgbf000152-resize_8-target.png,125,2.8775,7,3990,123,meters,jsons/VE125_randls_11_rotated.json,1549802,1668967,47,Man
73,603735,DepthScenes,duration_manipulation_targetAtFixation,jsons/VE125_randls_11_rotated.json,http://54.235.29.9/FacialAge/BNav_EC2/DepthDuration/v2_depth_duration_MTurk/v2_DepthDuration_HTML.html#368,368,1366,657,1366,768,9-4-2022,10-41-24,74,depth_duration_stimuli/000506_2014-06-08_23-21-00_260595134347_rgbf000070-resize_7/000506_2014-06-08_23-21-00_260595134347_rgbf000070-resize_7-target.png,125,4.0585,6,3948,127,meters,jsons/VE125_randls_11_rotated.json,1549802,1668967,47,Man
74,603735,DepthScenes,duration_manipulation_targetAtFixation,jsons/VE125_randls_11_rotated.json,http://54.235.29.9/FacialAge/BNav_EC2/DepthDuration/v2_depth_duration_MTurk/v2_DepthDuration_HTML.html#368,368,1366,657,1366,768,9-4-2022,10-41-24,75,depth_duration_stimuli/003495_2014-05-21_16-01-51_094959634447_rgbf000100-resize_3/003495_2014-05-21_16-01-51_094959634447_rgbf000100-resize_3-target.png,125,1.6255,8,3606,126,meters,jsons/VE125_randls_11_rotated.json,1549802,1668967,47,Man
75,603735,DepthScenes,duration_manipulation_targetAtFixation,jsons/VE125_randls_11_rotated.json,http://54.235.29.9/FacialAge/BNav_EC2/DepthDuration/v2_depth_duration_MTurk/v2_DepthDuration_HTML.html#368,368,1366,657,1366,768,9-4-2022,10-41-24,76,depth_duration_stimuli/001244_2014-06-17_16-47-45_260595134347_rgbf000030-resize_4/001244_2014-06-17_16-47-45_260595134347_rgbf000030-resize_4-target.png,125,2.0425,4,4726,140,meters,jsons/VE125_randls_11_rotated.json,1549802,1668967,47,Man
76,603735,DepthScenes,duration_manipulation_targetAtFixation,jsons/VE125_randls_11_rotated.json,http://54.235.29.9/FacialAge/BNav_EC2/DepthDuration/v2_depth_duration_MTurk/v2_DepthDuration_HTML.html#368,368,1366,657,1366,768,9-4-2022,10-41-24,77,depth_duration_stimuli/003228_2014-05-14_13-42-35_094959634447_rgbf000101-resize_1/003228_2014-05-14_13-42-35_094959634447_rgbf000101-resize_1-target.png,125,1.9680000000000002,6,3758,112,meters,jsons/VE125_randls_11_rotated.json,1549802,1668967,47,Man
77,603735,DepthScenes,duration_manipulation_targetAtFixation,jsons/VE125_randls_11_rotated.json,http://54.235.29.9/FacialAge/BNav_EC2/DepthDuration/v2_depth_duration_MTurk/v2_DepthDuration_HTML.html#368,368,1366,657,1366,768,9-4-2022,10-41-24,78,depth_duration_stimuli/002600_2014-06-24_14-27-04_094959634447_rgbf000074-resize_2/002600_2014-06-24_14-27-04_094959634447_rgbf000074-resize_2-target.png,125,2.7575,6,38643,120,meters,jsons/VE125_randls_11_rotated.json,1549802,1668967,47,Man
78,603735,DepthScenes,duration_manipulation_targetAtFixation,jsons/VE125_randls_11_rotated.json,http://54.235.29.9/FacialAge/BNav_EC2/DepthDuration/v2_depth_duration_MTurk/v2_DepthDuration_HTML.html#368,368,1366,657,1366,768,9-4-2022,10-41-24,79,depth_duration_stimuli/000854_2014-06-09_19-43-13_260595134347_rgbf000066-resize_0/000854_2014-06-09_19-43-13_260595134347_rgbf000066-resize_0-target.png,125,3.068,5,8067,136,meters,jsons/VE125_randls_11_rotated.json,1549802,1668967,47,Man
79,603735,DepthScenes,duration_manipulation_targetAtFixation,jsons/VE125_randls_11_rotated.json,http://54.235.29.9/FacialAge/BNav_EC2/DepthDuration/v2_depth_duration_MTurk/v2_DepthDuration_HTML.html#368,368,1366,657,1366,768,9-4-2022,10-41-24,80,depth_duration_stimuli/000758_2014-06-08_22-05-08_260595134347_rgbf000085-resize_0/000758_2014-06-08_22-05-08_260595134347_rgbf000085-resize_0-target.png,125,3.3810000000000002,3,3429,118,meters,jsons/VE125_randls_11_rotated.json,1549802,1668967,47,Man
80,603735,DepthScenes,duration_manipulation_targetAtFixation,jsons/VE125_randls_11_rotated.json,http://54.235.29.9/FacialAge/BNav_EC2/DepthDuration/v2_depth_duration_MTurk/v2_DepthDuration_HTML.html#368,368,1366,657,1366,768,9-4-2022,10-41-24,81,depth_duration_stimuli/001617_2014-06-20_11-35-32_260595134347_rgbf000066-resize_1/001617_2014-06-20_11-35-32_260595134347_rgbf000066-resize_1-target.png,125,3.7910000000000004,6,6378,125,meters,jsons/VE125_randls_11_rotated.json,1549802,1668967,47,Man
81,603735,DepthScenes,duration_manipulation_targetAtFixation,jsons/VE125_randls_11_rotated.json,http://54.235.29.9/FacialAge/BNav_EC2/DepthDuration/v2_depth_duration_MTurk/v2_DepthDuration_HTML.html#368,368,1366,657,1366,768,9-4-2022,10-41-24,82,depth_duration_stimuli/001806_2014-06-26_20-50-20_260595134347_rgbf000091-resize_1/001806_2014-06-26_20-50-20_260595134347_rgbf000091-resize_1-target.png,125,2.7305,4,4077,143,meters,jsons/VE125_randls_11_rotated.json,1549802,1668967,47,Man
82,603735,DepthScenes,duration_manipulation_targetAtFixation,jsons/VE125_randls_11_rotated.json,http://54.235.29.9/FacialAge/BNav_EC2/DepthDuration/v2_depth_duration_MTurk/v2_DepthDuration_HTML.html#368,368,1366,657,1366,768,9-4-2022,10-41-24,83,depth_duration_stimuli/001815_2014-06-26_20-52-55_260595134347_rgbf000020-resize_0/001815_2014-06-26_20-52-55_260595134347_rgbf000020-resize_0-target.png,125,3.3865,2,3442,138,meters,jsons/VE125_randls_11_rotated.json,1549802,1668967,47,Man
83,603735,DepthScenes,duration_manipulation_targetAtFixation,jsons/VE125_randls_11_rotated.json,http://54.235.29.9/FacialAge/BNav_EC2/DepthDuration/v2_depth_duration_MTurk/v2_DepthDuration_HTML.html#368,368,1366,657,1366,768,9-4-2022,10-41-24,84,depth_duration_stimuli/001808_2014-06-26_20-50-58_260595134347_rgbf000029-resize_1/001808_2014-06-26_20-50-58_260595134347_rgbf000029-resize_1-target.png,125,4.249,7,4412,118,meters,jsons/VE125_randls_11_rotated.json,1549802,1668967,47,Man
84,603735,DepthScenes,duration_manipulation_targetAtFixation,jsons/VE125_randls_11_rotated.json,http://54.235.29.9/FacialAge/BNav_EC2/DepthDuration/v2_depth_duration_MTurk/v2_DepthDuration_HTML.html#368,368,1366,657,1366,768,9-4-2022,10-41-24,85,depth_duration_stimuli/001052_2014-06-08_18-24-54_260595134347_rgbf000130-resize_1/001052_2014-06-08_18-24-54_260595134347_rgbf000130-resize_1-target.png,125,4.1045,10,3558,132,meters,jsons/VE125_randls_11_rotated.json,1549802,1668967,47,Man
85,603735,DepthScenes,duration_manipulation_targetAtFixation,jsons/VE125_randls_11_rotated.json,http://54.235.29.9/FacialAge/BNav_EC2/DepthDuration/v2_depth_duration_MTurk/v2_DepthDuration_HTML.html#368,368,1366,657,1366,768,9-4-2022,10-41-24,86,depth_duration_stimuli/002988_2014-06-15_12-24-20_094959634447_rgbf000150-resize_1/002988_2014-06-15_12-24-20_094959634447_rgbf000150-resize_1-target.png,125,4.7669999999999995,15,3866,121,meters,jsons/VE125_randls_11_rotated.json,1549802,1668967,47,Man
86,603735,DepthScenes,duration_manipulation_targetAtFixation,jsons/VE125_randls_11_rotated.json,http://54.235.29.9/FacialAge/BNav_EC2/DepthDuration/v2_depth_duration_MTurk/v2_DepthDuration_HTML.html#368,368,1366,657,1366,768,9-4-2022,10-41-24,87,depth_duration_stimuli/002995_2014-06-15_12-31-26_094959634447_rgbf000150-resize_1/002995_2014-06-15_12-31-26_094959634447_rgbf000150-resize_1-target.png,125,3.8360000000000003,3,4226,124,meters,jsons/VE125_randls_11_rotated.json,1549802,1668967,47,Man
87,603735,DepthScenes,duration_manipulation_targetAtFixation,jsons/VE125_randls_11_rotated.json,http://54.235.29.9/FacialAge/BNav_EC2/DepthDuration/v2_depth_duration_MTurk/v2_DepthDuration_HTML.html#368,368,1366,657,1366,768,9-4-2022,10-41-24,88,depth_duration_stimuli/002748_2014-06-22_19-07-22_094959634447_rgbf000078-resize_1/002748_2014-06-22_19-07-22_094959634447_rgbf000078-resize_1-target.png,125,4.6705,4,3946,134,meters,jsons/VE125_randls_11_rotated.json,1549802,1668967,47,Man
88,603735,DepthScenes,duration_manipulation_targetAtFixation,jsons/VE125_randls_11_rotated.json,http://54.235.29.9/FacialAge/BNav_EC2/DepthDuration/v2_depth_duration_MTurk/v2_DepthDuration_HTML.html#368,368,1366,657,1366,768,9-4-2022,10-41-24,89,depth_duration_stimuli/002568_2014-06-24_13-59-21_094959634447_rgbf000062-resize_4/002568_2014-06-24_13-59-21_094959634447_rgbf000062-resize_4-target.png,125,3.015,5,6210,133,meters,jsons/VE125_randls_11_rotated.json,1549802,1668967,47,Man
89,603735,DepthScenes,duration_manipulation_targetAtFixation,jsons/VE125_randls_11_rotated.json,http://54.235.29.9/FacialAge/BNav_EC2/DepthDuration/v2_depth_duration_MTurk/v2_DepthDuration_HTML.html#368,368,1366,657,1366,768,9-4-2022,10-41-24,90,depth_duration_stimuli/003492_2014-05-21_15-50-55_094959634447_rgbf000828-resize_1/003492_2014-05-21_15-50-55_094959634447_rgbf000828-resize_1-target.png,125,4.06875,8,3960,123,meters,jsons/VE125_randls_11_rotated.json,1549802,1668967,47,Man
90,603735,DepthScenes,duration_manipulation_targetAtFixation,jsons/VE125_randls_11_rotated.json,http://54.235.29.9/FacialAge/BNav_EC2/DepthDuration/v2_depth_duration_MTurk/v2_DepthDuration_HTML.html#368,368,1366,657,1366,768,9-4-2022,10-41-24,91,depth_duration_stimuli/001136_2014-06-17_15-19-41_260595134347_rgbf000076-resize_3/001136_2014-06-17_15-19-41_260595134347_rgbf000076-resize_3-target.png,125,1.8655,9,3407,101,meters,jsons/VE125_randls_11_rotated.json,1549802,1668967,47,Man
91,603735,DepthScenes,duration_manipulation_targetAtFixation,jsons/VE125_randls_11_rotated.json,http://54.235.29.9/FacialAge/BNav_EC2/DepthDuration/v2_depth_duration_MTurk/v2_DepthDuration_HTML.html#368,368,1366,657,1366,768,9-4-2022,10-41-24,92,depth_duration_stimuli/001164_2014-06-17_15-35-46_260595134347_rgbf000085-resize_3/001164_2014-06-17_15-35-46_260595134347_rgbf000085-resize_3-target.png,125,2.354,7,3475,122,meters,jsons/VE125_randls_11_rotated.json,1549802,1668967,47,Man
92,603735,DepthScenes,duration_manipulation_targetAtFixation,jsons/VE125_randls_11_rotated.json,http://54.235.29.9/FacialAge/BNav_EC2/DepthDuration/v2_depth_duration_MTurk/v2_DepthDuration_HTML.html#368,368,1366,657,1366,768,9-4-2022,10-41-24,93,depth_duration_stimuli/002199_2014-06-28_18-33-56_260595134347_rgbf000074-resize_0/002199_2014-06-28_18-33-56_260595134347_rgbf000074-resize_0-target.png,125,1.996,3,3889,124,meters,jsons/VE125_randls_11_rotated.json,1549802,1668967,47,Man
93,603735,DepthScenes,duration_manipulation_targetAtFixation,jsons/VE125_randls_11_rotated.json,http://54.235.29.9/FacialAge/BNav_EC2/DepthDuration/v2_depth_duration_MTurk/v2_DepthDuration_HTML.html#368,368,1366,657,1366,768,9-4-2022,10-41-24,94,depth_duration_stimuli/001056_2014-06-08_18-46-44_260595134347_rgbf000068-resize_0/001056_2014-06-08_18-46-44_260595134347_rgbf000068-resize_0-target.png,125,2.6625,5,3875,133,meters,jsons/VE125_randls_11_rotated.json,1549802,1668967,47,Man
94,603735,DepthScenes,duration_manipulation_targetAtFixation,jsons/VE125_randls_11_rotated.json,http://54.235.29.9/FacialAge/BNav_EC2/DepthDuration/v2_depth_duration_MTurk/v2_DepthDuration_HTML.html#368,368,1366,657,1366,768,9-4-2022,10-41-24,95,depth_duration_stimuli/002444_2014-06-28_20-32-08_260595134347_rgbf000027-resize_0/002444_2014-06-28_20-32-08_260595134347_rgbf000027-resize_0-target.png,125,4.388999999999999,9,3281,124,meters,jsons/VE125_randls_11_rotated.json,1549802,1668967,47,Man
95,603735,DepthScenes,duration_manipulation_targetAtFixation,jsons/VE125_randls_11_rotated.json,http://54.235.29.9/FacialAge/BNav_EC2/DepthDuration/v2_depth_duration_MTurk/v2_DepthDuration_HTML.html#368,368,1366,657,1366,768,9-4-2022,10-41-24,96,depth_duration_stimuli/000436_2014-06-09_22-25-11_260595134347_rgbf000137-resize_1/000436_2014-06-09_22-25-11_260595134347_rgbf000137-resize_1-target.png,125,4.0705,15,3911,109,meters,jsons/VE125_randls_11_rotated.json,1549802,1668967,47,Man
96,603735,DepthScenes,duration_manipulation_targetAtFixation,jsons/VE125_randls_11_rotated.json,http://54.235.29.9/FacialAge/BNav_EC2/DepthDuration/v2_depth_duration_MTurk/v2_DepthDuration_HTML.html#368,368,1366,657,1366,768,9-4-2022,10-41-24,97,depth_duration_stimuli/000742_2014-06-08_18-48-09_260595134347_rgbf000164-resize_4/000742_2014-06-08_18-48-09_260595134347_rgbf000164-resize_4-target.png,125,4.632,17,4089,122,meters,jsons/VE125_randls_11_rotated.json,1549802,1668967,47,Man
97,603735,DepthScenes,duration_manipulation_targetAtFixation,jsons/VE125_randls_11_rotated.json,http://54.235.29.9/FacialAge/BNav_EC2/DepthDuration/v2_depth_duration_MTurk/v2_DepthDuration_HTML.html#368,368,1366,657,1366,768,9-4-2022,10-41-24,98,depth_duration_stimuli/001066_2014-06-08_22-03-20_260595134347_rgbf000066-resize_4/001066_2014-06-08_22-03-20_260595134347_rgbf000066-resize_4-target.png,125,4.2330000000000005,9,3407,125,meters,jsons/VE125_randls_11_rotated.json,1549802,1668967,47,Man
98,603735,DepthScenes,duration_manipulation_targetAtFixation,jsons/VE125_randls_11_rotated.json,http://54.235.29.9/FacialAge/BNav_EC2/DepthDuration/v2_depth_duration_MTurk/v2_DepthDuration_HTML.html#368,368,1366,657,1366,768,9-4-2022,10-41-24,99,depth_duration_stimuli/001222_2014-06-17_16-24-06_260595134347_rgbf000073-resize_0/001222_2014-06-17_16-24-06_260595134347_rgbf000073-resize-original.jpg,125,1.4385,7,3836,126,meters,jsons/VE125_randls_11_rotated.json,1549802,1668967,47,Man
99,603735,DepthScenes,duration_manipulation_targetAtFixation,jsons/VE125_randls_11_rotated.json,http://54.235.29.9/FacialAge/BNav_EC2/DepthDuration/v2_depth_duration_MTurk/v2_DepthDuration_HTML.html#368,368,1366,657,1366,768,9-4-2022,10-41-24,100,depth_duration_stimuli/002467_2014-06-28_20-38-07_260595134347_rgbf000026-resize_2/002467_2014-06-28_20-38-07_260595134347_rgbf000026-resize_2-target.png,125,4.742,6,3994,111,meters,jsons/VE125_randls_11_rotated.json,1549802,1668967,47,Man
100,603735,DepthScenes,duration_manipulation_targetAtFixation,jsons/VE125_randls_11_rotated.json,http://54.235.29.9/FacialAge/BNav_EC2/DepthDuration/v2_depth_duration_MTurk/v2_DepthDuration_HTML.html#368,368,1366,657,1366,768,9-4-2022,10-41-24,101,depth_duration_stimuli/002570_2014-06-24_13-59-54_094959634447_rgbf000059-resize_0/002570_2014-06-24_13-59-54_094959634447_rgbf000059-resize_0-target.png,125,4.037,8,3813,111,meters,jsons/VE125_randls_11_rotated.json,1549802,1668967,47,Man
101,603735,DepthScenes,duration_manipulation_targetAtFixation,jsons/VE125_randls_11_rotated.json,http://54.235.29.9/FacialAge/BNav_EC2/DepthDuration/v2_depth_duration_MTurk/v2_DepthDuration_HTML.html#368,368,1366,657,1366,768,9-4-2022,10-41-24,102,depth_duration_stimuli/000483_2014-06-09_20-41-45_260595134347_rgbf000116-resize_4/000483_2014-06-09_20-41-45_260595134347_rgbf000116-resize_4-target.png,125,1.337,7,3699,122,meters,jsons/VE125_randls_11_rotated.json,1549802,1668967,47,Man
102,603735,DepthScenes,duration_manipulation_targetAtFixation,jsons/VE125_randls_11_rotated.json,http://54.235.29.9/FacialAge/BNav_EC2/DepthDuration/v2_depth_duration_MTurk/v2_DepthDuration_HTML.html#368,368,1366,657,1366,768,9-4-2022,10-41-24,103,depth_duration_stimuli/000469_2014-06-09_19-42-10_260595134347_rgbf000081-resize_1/000469_2014-06-09_19-42-10_260595134347_rgbf000081-resize_1-target.png,125,1.652,6,3515,122,meters,jsons/VE125_randls_11_rotated.json,1549802,1668967,47,Man
103,603735,DepthScenes,duration_manipulation_targetAtFixation,jsons/VE125_randls_11_rotated.json,http://54.235.29.9/FacialAge/BNav_EC2/DepthDuration/v2_depth_duration_MTurk/v2_DepthDuration_HTML.html#368,368,1366,657,1366,768,9-4-2022,10-41-24,104,depth_duration_stimuli/002340_2014-06-28_20-05-46_260595134347_rgbf000113-resize_0/002340_2014-06-28_20-05-46_260595134347_rgbf000113-resize_0-target.png,125,2.4735,8,4330,101,meters,jsons/VE125_randls_11_rotated.json,1549802,1668967,47,Man
104,603735,DepthScenes,duration_manipulation_targetAtFixation,jsons/VE125_randls_11_rotated.json,http://54.235.29.9/FacialAge/BNav_EC2/DepthDuration/v2_depth_duration_MTurk/v2_DepthDuration_HTML.html#368,368,1366,657,1366,768,9-4-2022,10-41-24,105,depth_duration_stimuli/001016_2014-06-09_16-16-10_260595134347_rgbf000112-resize_5/001016_2014-06-09_16-16-10_260595134347_rgbf000112-resize_5-target.png,125,1.6565,9,3851,137,meters,jsons/VE125_randls_11_rotated.json,1549802,1668967,47,Man
105,603735,DepthScenes,duration_manipulation_targetAtFixation,jsons/VE125_randls_11_rotated.json,http://54.235.29.9/FacialAge/BNav_EC2/DepthDuration/v2_depth_duration_MTurk/v2_DepthDuration_HTML.html#368,368,1366,657,1366,768,9-4-2022,10-41-24,106,depth_duration_stimuli/000502_2014-06-08_23-02-32_260595134347_rgbf000063-resize_4/000502_2014-06-08_23-02-32_260595134347_rgbf000063-resize_4-target.png,125,2.431,2,5805,127,meters,jsons/VE125_randls_11_rotated.json,1549802,1668967,47,Man
106,603735,DepthScenes,duration_manipulation_targetAtFixation,jsons/VE125_randls_11_rotated.json,http://54.235.29.9/FacialAge/BNav_EC2/DepthDuration/v2_depth_duration_MTurk/v2_DepthDuration_HTML.html#368,368,1366,657,1366,768,9-4-2022,10-41-24,107,depth_duration_stimuli/001199_2014-06-17_16-03-48_260595134347_rgbf000077-resize_0/001199_2014-06-17_16-03-48_260595134347_rgbf000077-resize_0-target.png,125,3.4375,9,3267,128,meters,jsons/VE125_randls_11_rotated.json,1549802,1668967,47,Man
107,603735,DepthScenes,duration_manipulation_targetAtFixation,jsons/VE125_randls_11_rotated.json,http://54.235.29.9/FacialAge/BNav_EC2/DepthDuration/v2_depth_duration_MTurk/v2_DepthDuration_HTML.html#368,368,1366,657,1366,768,9-4-2022,10-41-24,108,depth_duration_stimuli/001450_2014-06-19_17-02-03_260595134347_rgbf000203-resize_4/001450_2014-06-19_17-02-03_260595134347_rgbf000203-resize_4-target.png,125,4.0106666666667,5,13342,124,meters,jsons/VE125_randls_11_rotated.json,1549802,1668967,47,Man
108,603735,DepthScenes,duration_manipulation_targetAtFixation,jsons/VE125_randls_11_rotated.json,http://54.235.29.9/FacialAge/BNav_EC2/DepthDuration/v2_depth_duration_MTurk/v2_DepthDuration_HTML.html#368,368,1366,657,1366,768,9-4-2022,10-41-24,109,depth_duration_stimuli/001449_2014-06-19_17-01-27_260595134347_rgbf000116-resize_2/001449_2014-06-19_17-01-27_260595134347_rgbf000116-resize_2-target.png,125,3.452,9,3379,134,meters,jsons/VE125_randls_11_rotated.json,1549802,1668967,47,Man
109,603735,DepthScenes,duration_manipulation_targetAtFixation,jsons/VE125_randls_11_rotated.json,http://54.235.29.9/FacialAge/BNav_EC2/DepthDuration/v2_depth_duration_MTurk/v2_DepthDuration_HTML.html#368,368,1366,657,1366,768,9-4-2022,10-41-24,110,depth_duration_stimuli/000191_2014-05-12_17-07-38_260595134347_rgbf000199-resize_0/000191_2014-05-12_17-07-38_260595134347_rgbf000199-resize_0-target.png,125,3.7995,6,5089,128,meters,jsons/VE125_randls_11_rotated.json,1549802,1668967,47,Man
110,603735,DepthScenes,duration_manipulation_targetAtFixation,jsons/VE125_randls_11_rotated.json,http://54.235.29.9/FacialAge/BNav_EC2/DepthDuration/v2_depth_duration_MTurk/v2_DepthDuration_HTML.html#368,368,1366,657,1366,768,9-4-2022,10-41-24,111,depth_duration_stimuli/000493_2014-06-09_21-01-18_260595134347_rgbf000196-resize_3/000493_2014-06-09_21-01-18_260595134347_rgbf000196-resize_3-target.png,125,3.44,8,4176,119,meters,jsons/VE125_randls_11_rotated.json,1549802,1668967,47,Man
111,603735,DepthScenes,duration_manipulation_targetAtFixation,jsons/VE125_randls_11_rotated.json,http://54.235.29.9/FacialAge/BNav_EC2/DepthDuration/v2_depth_duration_MTurk/v2_DepthDuration_HTML.html#368,368,1366,657,1366,768,9-4-2022,10-41-24,112,depth_duration_stimuli/001094_2014-06-15_17-36-00_260595134347_rgbf000205-resize_0/001094_2014-06-15_17-36-00_260595134347_rgbf000205-resize_0-target.png,125,4.2175,9,3659,126,meters,jsons/VE125_randls_11_rotated.json,1549802,1668967,47,Man
112,603735,DepthScenes,duration_manipulation_targetAtFixation,jsons/VE125_randls_11_rotated.json,http://54.235.29.9/FacialAge/BNav_EC2/DepthDuration/v2_depth_duration_MTurk/v2_DepthDuration_HTML.html#368,368,1366,657,1366,768,9-4-2022,10-41-24,113,depth_duration_stimuli/000692_2014-06-08_13-09-42_260595134347_rgbf000199-resize_2/000692_2014-06-08_13-09-42_260595134347_rgbf000199-resize_2-target.png,125,3.661,4,4248,117,meters,jsons/VE125_randls_11_rotated.json,1549802,1668967,47,Man
113,603735,DepthScenes,duration_manipulation_targetAtFixation,jsons/VE125_randls_11_rotated.json,http://54.235.29.9/FacialAge/BNav_EC2/DepthDuration/v2_depth_duration_MTurk/v2_DepthDuration_HTML.html#368,368,1366,657,1366,768,9-4-2022,10-41-24,114,depth_duration_stimuli/000457_2014-06-08_16-52-43_260595134347_rgbf000199-resize_1/000457_2014-06-08_16-52-43_260595134347_rgbf000199-resize_1-target.png,125,3.6489999999999996,8,3733,131,meters,jsons/VE125_randls_11_rotated.json,1549802,1668967,47,Man
114,603735,DepthScenes,duration_manipulation_targetAtFixation,jsons/VE125_randls_11_rotated.json,http://54.235.29.9/FacialAge/BNav_EC2/DepthDuration/v2_depth_duration_MTurk/v2_DepthDuration_HTML.html#368,368,1366,657,1366,768,9-4-2022,10-41-24,115,depth_duration_stimuli/000929_2014-06-09_16-33-19_260595134347_rgbf000139-resize_0/000929_2014-06-09_16-33-19_260595134347_rgbf000139-resize_0-target.png,125,2.8680000000000003,6,4248,123,meters,jsons/VE125_randls_11_rotated.json,1549802,1668967,47,Man
115,603735,DepthScenes,duration_manipulation_targetAtFixation,jsons/VE125_randls_11_rotated.json,http://54.235.29.9/FacialAge/BNav_EC2/DepthDuration/v2_depth_duration_MTurk/v2_DepthDuration_HTML.html#368,368,1366,657,1366,768,9-4-2022,10-41-24,116,depth_duration_stimuli/001032_2014-06-08_13-23-17_260595134347_rgbf000021-resize_3/001032_2014-06-08_13-23-17_260595134347_rgbf000021-resize_3-target.png,125,3.2725,6,37961,123,meters,jsons/VE125_randls_11_rotated.json,1549802,1668967,47,Man
116,603735,DepthScenes,duration_manipulation_targetAtFixation,jsons/VE125_randls_11_rotated.json,http://54.235.29.9/FacialAge/BNav_EC2/DepthDuration/v2_depth_duration_MTurk/v2_DepthDuration_HTML.html#368,368,1366,657,1366,768,9-4-2022,10-41-24,117,depth_duration_stimuli/001059_2014-06-08_21-53-27_260595134347_rgbf000061-resize_4/001059_2014-06-08_21-53-27_260595134347_rgbf000061-resize_4-target.png,125,2.4185,8,5895,124,meters,jsons/VE125_randls_11_rotated.json,1549802,1668967,47,Man
117,603735,DepthScenes,duration_manipulation_targetAtFixation,jsons/VE125_randls_11_rotated.json,http://54.235.29.9/FacialAge/BNav_EC2/DepthDuration/v2_depth_duration_MTurk/v2_DepthDuration_HTML.html#368,368,1366,657,1366,768,9-4-2022,10-41-24,118,depth_duration_stimuli/001650_2014-06-20_12-09-00_260595134347_rgbf000087-resize_3/001650_2014-06-20_12-09-00_260595134347_rgbf000087-resize_3-target.png,125,1.9505,6,3931,126,meters,jsons/VE125_randls_11_rotated.json,1549802,1668967,47,Man
118,603735,DepthScenes,duration_manipulation_targetAtFixation,jsons/VE125_randls_11_rotated.json,http://54.235.29.9/FacialAge/BNav_EC2/DepthDuration/v2_depth_duration_MTurk/v2_DepthDuration_HTML.html#368,368,1366,657,1366,768,9-4-2022,10-41-24,119,depth_duration_stimuli/000682_2014-06-08_23-14-58_260595134347_rgbf000041-resize_5/000682_2014-06-08_23-14-58_260595134347_rgbf000041-resize_5-target.png,125,2.7239999999999998,15,4327,120,meters,jsons/VE125_randls_11_rotated.json,1549802,1668967,47,Man
119,603735,DepthScenes,duration_manipulation_targetAtFixation,jsons/VE125_randls_11_rotated.json,http://54.235.29.9/FacialAge/BNav_EC2/DepthDuration/v2_depth_duration_MTurk/v2_DepthDuration_HTML.html#368,368,1366,657,1366,768,9-4-2022,10-41-24,120,depth_duration_stimuli/000787_2014-06-08_22-33-53_260595134347_rgbf000175-resize_1/000787_2014-06-08_22-33-53_260595134347_rgbf000175-resize-original.jpg,125,4.784,8,5933,124,meters,jsons/VE125_randls_11_rotated.json,1549802,1668967,47,Man
120,603735,DepthScenes,duration_manipulation_targetAtFixation,jsons/VE125_randls_11_rotated.json,http://54.235.29.9/FacialAge/BNav_EC2/DepthDuration/v2_depth_duration_MTurk/v2_DepthDuration_HTML.html#368,368,1366,657,1366,768,9-4-2022,10-41-24,121,depth_duration_stimuli/002136_2014-06-25_21-18-03_260595134347_rgbf000109-resize_3/002136_2014-06-25_21-18-03_260595134347_rgbf000109-resize_3-target.png,125,1.9569999999999999,6,3625,125,meters,jsons/VE125_randls_11_rotated.json,1549802,1668967,47,Man
121,603735,DepthScenes,duration_manipulation_targetAtFixation,jsons/VE125_randls_11_rotated.json,http://54.235.29.9/FacialAge/BNav_EC2/DepthDuration/v2_depth_duration_MTurk/v2_DepthDuration_HTML.html#368,368,1366,657,1366,768,9-4-2022,10-41-24,122,depth_duration_stimuli/002964_2014-06-08_17-46-11_094959634447_rgbf000091-resize_4/002964_2014-06-08_17-46-11_094959634447_rgbf000091-resize_4-target.png,125,1.6909999999999998,28,4507,137,meters,jsons/VE125_randls_11_rotated.json,1549802,1668967,47,Man
122,603735,DepthScenes,duration_manipulation_targetAtFixation,jsons/VE125_randls_11_rotated.json,http://54.235.29.9/FacialAge/BNav_EC2/DepthDuration/v2_depth_duration_MTurk/v2_DepthDuration_HTML.html#368,368,1366,657,1366,768,9-4-2022,10-41-24,123,depth_duration_stimuli/003490_2014-05-21_15-50-11_094959634447_rgbf000101-resize_3/003490_2014-05-21_15-50-11_094959634447_rgbf000101-resize_3-target.png,125,3.6445,12,4544,126,meters,jsons/VE125_randls_11_rotated.json,1549802,1668967,47,Man
123,603735,DepthScenes,duration_manipulation_targetAtFixation,jsons/VE125_randls_11_rotated.json,http://54.235.29.9/FacialAge/BNav_EC2/DepthDuration/v2_depth_duration_MTurk/v2_DepthDuration_HTML.html#368,368,1366,657,1366,768,9-4-2022,10-41-24,124,depth_duration_stimuli/001175_2014-06-17_15-45-55_260595134347_rgbf000129-resize_4/001175_2014-06-17_15-45-55_260595134347_rgbf000129-resize_4-target.png,125,4.255,3,3889,125,meters,jsons/VE125_randls_11_rotated.json,1549802,1668967,47,Man
124,603735,DepthScenes,duration_manipulation_targetAtFixation,jsons/VE125_randls_11_rotated.json,http://54.235.29.9/FacialAge/BNav_EC2/DepthDuration/v2_depth_duration_MTurk/v2_DepthDuration_HTML.html#368,368,1366,657,1366,768,9-4-2022,10-41-24,125,depth_duration_stimuli/000635_2014-06-08_16-38-42_260595134347_rgbf000106-resize_1/000635_2014-06-08_16-38-42_260595134347_rgbf000106-resize_1-target.png,125,2.074,4,3651,125,meters,jsons/VE125_randls_11_rotated.json,1549802,1668967,47,Man
125,603735,DepthScenes,duration_manipulation_targetAtFixation,jsons/VE125_randls_11_rotated.json,http://54.235.29.9/FacialAge/BNav_EC2/DepthDuration/v2_depth_duration_MTurk/v2_DepthDuration_HTML.html#368,368,1366,657,1366,768,9-4-2022,10-41-24,126,depth_duration_stimuli/002279_2014-06-28_18-55-32_260595134347_rgbf000040-resize_5/002279_2014-06-28_18-55-32_260595134347_rgbf000040-resize_5-target.png,125,1.5043333333333,14,5578,119,meters,jsons/VE125_randls_11_rotated.json,1549802,1668967,47,Man
126,603735,DepthScenes,duration_manipulation_targetAtFixation,jsons/VE125_randls_11_rotated.json,http://54.235.29.9/FacialAge/BNav_EC2/DepthDuration/v2_depth_duration_MTurk/v2_DepthDuration_HTML.html#368,368,1366,657,1366,768,9-4-2022,10-41-24,127,depth_duration_stimuli/000780_2014-06-08_22-28-29_260595134347_rgbf000126-resize_1/000780_2014-06-08_22-28-29_260595134347_rgbf000126-resize_1-target.png,125,3.3825,6,4013,111,meters,jsons/VE125_randls_11_rotated.json,1549802,1668967,47,Man
127,603735,DepthScenes,duration_manipulation_targetAtFixation,jsons/VE125_randls_11_rotated.json,http://54.235.29.9/FacialAge/BNav_EC2/DepthDuration/v2_depth_duration_MTurk/v2_DepthDuration_HTML.html#368,368,1366,657,1366,768,9-4-2022,10-41-24,128,depth_duration_stimuli/002445_2014-06-28_20-32-16_260595134347_rgbf000029-resize_4/002445_2014-06-28_20-32-16_260595134347_rgbf000029-resize_4-target.png,125,2.5315,9,3906,124,meters,jsons/VE125_randls_11_rotated.json,1549802,1668967,47,Man
128,603735,DepthScenes,duration_manipulation_targetAtFixation,jsons/VE125_randls_11_rotated.json,http://54.235.29.9/FacialAge/BNav_EC2/DepthDuration/v2_depth_duration_MTurk/v2_DepthDuration_HTML.html#368,368,1366,657,1366,768,9-4-2022,10-41-24,129,depth_duration_stimuli/002805_2014-06-22_19-54-03_094959634447_rgbf000079-resize_1/002805_2014-06-22_19-54-03_094959634447_rgbf000079-resize_1-target.png,125,3.1439999999999997,8,3832,129,meters,jsons/VE125_randls_11_rotated.json,1549802,1668967,47,Man
129,603735,DepthScenes,duration_manipulation_targetAtFixation,jsons/VE125_randls_11_rotated.json,http://54.235.29.9/FacialAge/BNav_EC2/DepthDuration/v2_depth_duration_MTurk/v2_DepthDuration_HTML.html#368,368,1366,657,1366,768,9-4-2022,10-41-24,130,depth_duration_stimuli/000906_2014-06-08_13-35-43_260595134347_rgbf000155-resize_1/000906_2014-06-08_13-35-43_260595134347_rgbf000155-resize_1-target.png,125,2.8489999999999998,7,3362,139,meters,jsons/VE125_randls_11_rotated.json,1549802,1668967,47,Man
130,603735,DepthScenes,duration_manipulation_targetAtFixation,jsons/VE125_randls_11_rotated.json,http://54.235.29.9/FacialAge/BNav_EC2/DepthDuration/v2_depth_duration_MTurk/v2_DepthDuration_HTML.html#368,368,1366,657,1366,768,9-4-2022,10-41-24,131,depth_duration_stimuli/001447_2014-06-19_17-00-32_260595134347_rgbf000082-resize_5/001447_2014-06-19_17-00-32_260595134347_rgbf000082-resize_5-target.png,125,4.13775,12,6132,116,meters,jsons/VE125_randls_11_rotated.json,1549802,1668967,47,Man
131,603735,DepthScenes,duration_manipulation_targetAtFixation,jsons/VE125_randls_11_rotated.json,http://54.235.29.9/FacialAge/BNav_EC2/DepthDuration/v2_depth_duration_MTurk/v2_DepthDuration_HTML.html#368,368,1366,657,1366,768,9-4-2022,10-41-24,132,depth_duration_stimuli/000447_2014-06-08_16-15-46_260595134347_rgbf000130-resize_1/000447_2014-06-08_16-15-46_260595134347_rgbf000130-resize_1-target.png,125,4.479,15,5619,124,meters,jsons/VE125_randls_11_rotated.json,1549802,1668967,47,Man
132,603735,DepthScenes,duration_manipulation_targetAtFixation,jsons/VE125_randls_11_rotated.json,http://54.235.29.9/FacialAge/BNav_EC2/DepthDuration/v2_depth_duration_MTurk/v2_DepthDuration_HTML.html#368,368,1366,657,1366,768,9-4-2022,10-41-24,133,depth_duration_stimuli/002758_2014-06-22_19-11-20_094959634447_rgbf000128-resize_1/002758_2014-06-22_19-11-20_094959634447_rgbf000128-resize_1-target.png,125,2.555,25,5327,129,meters,jsons/VE125_randls_11_rotated.json,1549802,1668967,47,Man
133,603735,DepthScenes,duration_manipulation_targetAtFixation,jsons/VE125_randls_11_rotated.json,http://54.235.29.9/FacialAge/BNav_EC2/DepthDuration/v2_depth_duration_MTurk/v2_DepthDuration_HTML.html#368,368,1366,657,1366,768,9-4-2022,10-41-24,134,depth_duration_stimuli/002630_2014-06-24_14-47-50_094959634447_rgbf000055-resize_1/002630_2014-06-24_14-47-50_094959634447_rgbf000055-resize_1-target.png,125,3.0095,10,4834,114,meters,jsons/VE125_randls_11_rotated.json,1549802,1668967,47,Man
134,603735,DepthScenes,duration_manipulation_targetAtFixation,jsons/VE125_randls_11_rotated.json,http://54.235.29.9/FacialAge/BNav_EC2/DepthDuration/v2_depth_duration_MTurk/v2_DepthDuration_HTML.html#368,368,1366,657,1366,768,9-4-2022,10-41-24,135,depth_duration_stimuli/000375_2014-06-08_11-17-29_260595134347_rgbf000133-resize_2/000375_2014-06-08_11-17-29_260595134347_rgbf000133-resize-original.jpg,125,4.718,5,3891,118,meters,jsons/VE125_randls_11_rotated.json,1549802,1668967,47,Man
135,603735,DepthScenes,duration_manipulation_targetAtFixation,jsons/VE125_randls_11_rotated.json,http://54.235.29.9/FacialAge/BNav_EC2/DepthDuration/v2_depth_duration_MTurk/v2_DepthDuration_HTML.html#368,368,1366,657,1366,768,9-4-2022,10-41-24,136,depth_duration_stimuli/000734_2014-06-08_17-39-11_260595134347_rgbf000128-resize_2/000734_2014-06-08_17-39-11_260595134347_rgbf000128-resize_2-target.png,125,4.098,9,3569,115,meters,jsons/VE125_randls_11_rotated.json,1549802,1668967,47,Man
136,603735,DepthScenes,duration_manipulation_targetAtFixation,jsons/VE125_randls_11_rotated.json,http://54.235.29.9/FacialAge/BNav_EC2/DepthDuration/v2_depth_duration_MTurk/v2_DepthDuration_HTML.html#368,368,1366,657,1366,768,9-4-2022,10-41-24,137,depth_duration_stimuli/000739_2014-06-08_18-45-58_260595134347_rgbf000068-resize_1/000739_2014-06-08_18-45-58_260595134347_rgbf000068-resize_1-target.png,125,3.534,7,3922,132,meters,jsons/VE125_randls_11_rotated.json,1549802,1668967,47,Man
137,603735,DepthScenes,duration_manipulation_targetAtFixation,jsons/VE125_randls_11_rotated.json,http://54.235.29.9/FacialAge/BNav_EC2/DepthDuration/v2_depth_duration_MTurk/v2_DepthDuration_HTML.html#368,368,1366,657,1366,768,9-4-2022,10-41-24,138,depth_duration_stimuli/002639_2014-06-24_14-51-37_094959634447_rgbf000074-resize_4/002639_2014-06-24_14-51-37_094959634447_rgbf000074-resize_4-target.png,125,4.0375,5,48060,127,meters,jsons/VE125_randls_11_rotated.json,1549802,1668967,47,Man
138,603735,DepthScenes,duration_manipulation_targetAtFixation,jsons/VE125_randls_11_rotated.json,http://54.235.29.9/FacialAge/BNav_EC2/DepthDuration/v2_depth_duration_MTurk/v2_DepthDuration_HTML.html#368,368,1366,657,1366,768,9-4-2022,10-41-24,139,depth_duration_stimuli/003292_2014-05-14_21-53-49_094959634447_rgbf000100-resize_2/003292_2014-05-14_21-53-49_094959634447_rgbf000100-resize_2-target.png,125,3.4815,12,5238,126,meters,jsons/VE125_randls_11_rotated.json,1549802,1668967,47,Man
139,603735,DepthScenes,duration_manipulation_targetAtFixation,jsons/VE125_randls_11_rotated.json,http://54.235.29.9/FacialAge/BNav_EC2/DepthDuration/v2_depth_duration_MTurk/v2_DepthDuration_HTML.html#368,368,1366,657,1366,768,9-4-2022,10-41-24,140,depth_duration_stimuli/002344_2014-06-28_20-06-29_260595134347_rgbf000030-resize_1/002344_2014-06-28_20-06-29_260595134347_rgbf000030-resize_1-target.png,125,1.5795,6,8745,126,meters,jsons/VE125_randls_11_rotated.json,1549802,1668967,47,Man
140,603735,DepthScenes,duration_manipulation_targetAtFixation,jsons/VE125_randls_11_rotated.json,http://54.235.29.9/FacialAge/BNav_EC2/DepthDuration/v2_depth_duration_MTurk/v2_DepthDuration_HTML.html#368,368,1366,657,1366,768,9-4-2022,10-41-24,141,depth_duration_stimuli/002725_2014-06-22_11-47-51_094959634447_rgbf000070-resize_1/002725_2014-06-22_11-47-51_094959634447_rgbf000070-resize_1-target.png,125,2.195,8,3550,112,meters,jsons/VE125_randls_11_rotated.json,1549802,1668967,47,Man
141,603735,DepthScenes,duration_manipulation_targetAtFixation,jsons/VE125_randls_11_rotated.json,http://54.235.29.9/FacialAge/BNav_EC2/DepthDuration/v2_depth_duration_MTurk/v2_DepthDuration_HTML.html#368,368,1366,657,1366,768,9-4-2022,10-41-24,142,depth_duration_stimuli/000549_2014-06-08_22-10-24_260595134347_rgbf000247-resize_3/000549_2014-06-08_22-10-24_260595134347_rgbf000247-resize_3-target.png,125,1.841,9,3817,123,meters,jsons/VE125_randls_11_rotated.json,1549802,1668967,47,Man
142,603735,DepthScenes,duration_manipulation_targetAtFixation,jsons/VE125_randls_11_rotated.json,http://54.235.29.9/FacialAge/BNav_EC2/DepthDuration/v2_depth_duration_MTurk/v2_DepthDuration_HTML.html#368,368,1366,657,1366,768,9-4-2022,10-41-24,143,depth_duration_stimuli/001055_2014-06-08_18-45-35_260595134347_rgbf000111-resize_4/001055_2014-06-08_18-45-35_260595134347_rgbf000111-resize_4-target.png,125,2.4290000000000003,15,3902,115,meters,jsons/VE125_randls_11_rotated.json,1549802,1668967,47,Man
143,603735,DepthScenes,duration_manipulation_targetAtFixation,jsons/VE125_randls_11_rotated.json,http://54.235.29.9/FacialAge/BNav_EC2/DepthDuration/v2_depth_duration_MTurk/v2_DepthDuration_HTML.html#368,368,1366,657,1366,768,9-4-2022,10-41-24,144,depth_duration_stimuli/001571_2014-06-20_17-21-32_260595134347_rgbf000089-resize_1/001571_2014-06-20_17-21-32_260595134347_rgbf000089-resize_1-target.png,125,1.86,8,4563,125,meters,jsons/VE125_randls_11_rotated.json,1549802,1668967,47,Man
144,603735,DepthScenes,duration_manipulation_targetAtFixation,jsons/VE125_randls_11_rotated.json,http://54.235.29.9/FacialAge/BNav_EC2/DepthDuration/v2_depth_duration_MTurk/v2_DepthDuration_HTML.html#368,368,1366,657,1366,768,9-4-2022,10-41-24,145,depth_duration_stimuli/002272_2014-06-28_18-53-56_260595134347_rgbf000067-resize_2/002272_2014-06-28_18-53-56_260595134347_rgbf000067-resize_2-target.png,125,1.138,6,4506,127,meters,jsons/VE125_randls_11_rotated.json,1549802,1668967,47,Man
145,603735,DepthScenes,duration_manipulation_targetAtFixation,jsons/VE125_randls_11_rotated.json,http://54.235.29.9/FacialAge/BNav_EC2/DepthDuration/v2_depth_duration_MTurk/v2_DepthDuration_HTML.html#368,368,1366,657,1366,768,9-4-2022,10-41-24,146,depth_duration_stimuli/002953_2014-06-08_17-32-18_094959634447_rgbf000059-resize_5/002953_2014-06-08_17-32-18_094959634447_rgbf000059-resize_5-target.png,125,1.551,13,5488,136,meters,jsons/VE125_randls_11_rotated.json,1549802,1668967,47,Man
146,603735,DepthScenes,duration_manipulation_targetAtFixation,jsons/VE125_randls_11_rotated.json,http://54.235.29.9/FacialAge/BNav_EC2/DepthDuration/v2_depth_duration_MTurk/v2_DepthDuration_HTML.html#368,368,1366,657,1366,768,9-4-2022,10-41-24,147,depth_duration_stimuli/000878_2014-06-08_22-52-45_260595134347_rgbf000045-resize_2/000878_2014-06-08_22-52-45_260595134347_rgbf000045-resize_2-target.png,125,2.092,18,4187,127,meters,jsons/VE125_randls_11_rotated.json,1549802,1668967,47,Man
147,603735,DepthScenes,duration_manipulation_targetAtFixation,jsons/VE125_randls_11_rotated.json,http://54.235.29.9/FacialAge/BNav_EC2/DepthDuration/v2_depth_duration_MTurk/v2_DepthDuration_HTML.html#368,368,1366,657,1366,768,9-4-2022,10-41-24,148,depth_duration_stimuli/003423_2014-05-21_10-23-26_094959634447_rgbf002665-resize_2/003423_2014-05-21_10-23-26_094959634447_rgbf002665-resize_2-target.png,125,3.2575,14,10186,130,meters,jsons/VE125_randls_11_rotated.json,1549802,1668967,47,Man
148,603735,DepthScenes,duration_manipulation_targetAtFixation,jsons/VE125_randls_11_rotated.json,http://54.235.29.9/FacialAge/BNav_EC2/DepthDuration/v2_depth_duration_MTurk/v2_DepthDuration_HTML.html#368,368,1366,657,1366,768,9-4-2022,10-41-24,149,depth_duration_stimuli/002905_2014-06-03_18-04-43_094959634447_rgbf000151-resize_2/002905_2014-06-03_18-04-43_094959634447_rgbf000151-resize_2-target.png,125,2.0295,5,153855,125,meters,jsons/VE125_randls_11_rotated.json,1549802,1668967,47,Man
149,603735,DepthScenes,duration_manipulation_targetAtFixation,jsons/VE125_randls_11_rotated.json,http://54.235.29.9/FacialAge/BNav_EC2/DepthDuration/v2_depth_duration_MTurk/v2_DepthDuration_HTML.html#368,368,1366,657,1366,768,9-4-2022,10-41-24,150,depth_duration_stimuli/003338_2014-05-20_11-01-23_094959634447_rgbf000051-resize_6/003338_2014-05-20_11-01-23_094959634447_rgbf000051-resize_6-target.png,125,1.693,5,22540,124,meters,jsons/VE125_randls_11_rotated.json,1549802,1668967,47,Man
150,603735,DepthScenes,duration_manipulation_targetAtFixation,jsons/VE125_randls_11_rotated.json,http://54.235.29.9/FacialAge/BNav_EC2/DepthDuration/v2_depth_duration_MTurk/v2_DepthDuration_HTML.html#368,368,1366,657,1366,768,9-4-2022,10-41-24,151,depth_duration_stimuli/002509_2014-06-24_13-19-22_094959634447_rgbf000077-resize_0/002509_2014-06-24_13-19-22_094959634447_rgbf000077-resize_0-target.png,125,1.3065,6,4802,122,meters,jsons/VE125_randls_11_rotated.json,1549802,1668967,47,Man
151,603735,DepthScenes,duration_manipulation_targetAtFixation,jsons/VE125_randls_11_rotated.json,http://54.235.29.9/FacialAge/BNav_EC2/DepthDuration/v2_depth_duration_MTurk/v2_DepthDuration_HTML.html#368,368,1366,657,1366,768,9-4-2022,10-41-24,152,depth_duration_stimuli/000569_2014-06-09_22-51-47_260595134347_rgbf000141-resize_3/000569_2014-06-09_22-51-47_260595134347_rgbf000141-resize-original.jpg,125,4.512,5,39304,115,meters,jsons/VE125_randls_11_rotated.json,1549802,1668967,47,Man
152,603735,DepthScenes,duration_manipulation_targetAtFixation,jsons/VE125_randls_11_rotated.json,http://54.235.29.9/FacialAge/BNav_EC2/DepthDuration/v2_depth_duration_MTurk/v2_DepthDuration_HTML.html#368,368,1366,657,1366,768,9-4-2022,10-41-24,153,depth_duration_stimuli/000927_2014-06-09_16-32-30_260595134347_rgbf000123-resize_3/000927_2014-06-09_16-32-30_260595134347_rgbf000123-resize_3-target.png,125,2.6785,6,3512,114,meters,jsons/VE125_randls_11_rotated.json,1549802,1668967,47,Man
153,603735,DepthScenes,duration_manipulation_targetAtFixation,jsons/VE125_randls_11_rotated.json,http://54.235.29.9/FacialAge/BNav_EC2/DepthDuration/v2_depth_duration_MTurk/v2_DepthDuration_HTML.html#368,368,1366,657,1366,768,9-4-2022,10-41-24,154,depth_duration_stimuli/001110_2014-06-15_17-25-28_260595134347_rgbf000150-resize_1/001110_2014-06-15_17-25-28_260595134347_rgbf000150-resize_1-target.png,125,1.7115,6,10981,124,meters,jsons/VE125_randls_11_rotated.json,1549802,1668967,47,Man
154,603735,DepthScenes,duration_manipulation_targetAtFixation,jsons/VE125_randls_11_rotated.json,http://54.235.29.9/FacialAge/BNav_EC2/DepthDuration/v2_depth_duration_MTurk/v2_DepthDuration_HTML.html#368,368,1366,657,1366,768,9-4-2022,10-41-24,155,depth_duration_stimuli/000137_2014-05-20_17-04-49_260595134347_rgbf000120-resize_1/000137_2014-05-20_17-04-49_260595134347_rgbf000120-resize_1-target.png,125,3.786,5,13093,111,meters,jsons/VE125_randls_11_rotated.json,1549802,1668967,47,Man
155,603735,DepthScenes,duration_manipulation_targetAtFixation,jsons/VE125_randls_11_rotated.json,http://54.235.29.9/FacialAge/BNav_EC2/DepthDuration/v2_depth_duration_MTurk/v2_DepthDuration_HTML.html#368,368,1366,657,1366,768,9-4-2022,10-41-24,156,depth_duration_stimuli/000736_2014-06-08_18-24-15_260595134347_rgbf000206-resize_3/000736_2014-06-08_18-24-15_260595134347_rgbf000206-resize_3-target.png,125,3.515,5,10595,124,meters,jsons/VE125_randls_11_rotated.json,1549802,1668967,47,Man
156,603735,DepthScenes,duration_manipulation_targetAtFixation,jsons/VE125_randls_11_rotated.json,http://54.235.29.9/FacialAge/BNav_EC2/DepthDuration/v2_depth_duration_MTurk/v2_DepthDuration_HTML.html#368,368,1366,657,1366,768,9-4-2022,10-41-24,157,depth_duration_stimuli/001214_2014-06-17_16-13-55_260595134347_rgbf000111-resize_0/001214_2014-06-17_16-13-55_260595134347_rgbf000111-resize_0-target.png,125,2.6505,6,167596,124,meters,jsons/VE125_randls_11_rotated.json,1549802,1668967,47,Man
157,603735,DepthScenes,duration_manipulation_targetAtFixation,jsons/VE125_randls_11_rotated.json,http://54.235.29.9/FacialAge/BNav_EC2/DepthDuration/v2_depth_duration_MTurk/v2_DepthDuration_HTML.html#368,368,1366,657,1366,768,9-4-2022,10-41-24,158,depth_duration_stimuli/000810_2014-06-08_17-20-01_260595134347_rgbf000105-resize_0/000810_2014-06-08_17-20-01_260595134347_rgbf000105-resize_0-target.png,125,1.4865,4,3636,117,meters,jsons/VE125_randls_11_rotated.json,1549802,1668967,47,Man
158,603735,DepthScenes,duration_manipulation_targetAtFixation,jsons/VE125_randls_11_rotated.json,http://54.235.29.9/FacialAge/BNav_EC2/DepthDuration/v2_depth_duration_MTurk/v2_DepthDuration_HTML.html#368,368,1366,657,1366,768,9-4-2022,10-41-24,159,depth_duration_stimuli/000749_2014-06-08_21-55-06_260595134347_rgbf000070-resize_2/000749_2014-06-08_21-55-06_260595134347_rgbf000070-resize_2-target.png,125,2.331,2,3362,127,meters,jsons/VE125_randls_11_rotated.json,1549802,1668967,47,Man
159,603735,DepthScenes,duration_manipulation_targetAtFixation,jsons/VE125_randls_11_rotated.json,http://54.235.29.9/FacialAge/BNav_EC2/DepthDuration/v2_depth_duration_MTurk/v2_DepthDuration_HTML.html#368,368,1366,657,1366,768,9-4-2022,10-41-24,160,depth_duration_stimuli/002788_2014-06-22_19-36-03_094959634447_rgbf000088-resize_2/002788_2014-06-22_19-36-03_094959634447_rgbf000088-resize_2-target.png,125,1.6465,3,3269,111,meters,jsons/VE125_randls_11_rotated.json,1549802,1668967,47,Man
160,603735,DepthScenes,duration_manipulation_targetAtFixation,jsons/VE125_randls_11_rotated.json,http://54.235.29.9/FacialAge/BNav_EC2/DepthDuration/v2_depth_duration_MTurk/v2_DepthDuration_HTML.html#368,368,1366,657,1366,768,9-4-2022,10-41-24,161,depth_duration_stimuli/002660_2014-06-13_15-44-18_094959634447_rgbf001878-resize_2/002660_2014-06-13_15-44-18_094959634447_rgbf001878-resize_2-target.png,125,3.576,2,3521,137,meters,jsons/VE125_randls_11_rotated.json,1549802,1668967,47,Man
161,603735,DepthScenes,duration_manipulation_targetAtFixation,jsons/VE125_randls_11_rotated.json,http://54.235.29.9/FacialAge/BNav_EC2/DepthDuration/v2_depth_duration_MTurk/v2_DepthDuration_HTML.html#368,368,1366,657,1366,768,9-4-2022,10-41-24,162,depth_duration_stimuli/002153_2014-06-25_21-27-18_260595134347_rgbf000038-resize_5/002153_2014-06-25_21-27-18_260595134347_rgbf000038-resize_5-target.png,125,2.505,8,3487,129,meters,jsons/VE125_randls_11_rotated.json,1549802,1668967,47,Man
162,603735,DepthScenes,duration_manipulation_targetAtFixation,jsons/VE125_randls_11_rotated.json,http://54.235.29.9/FacialAge/BNav_EC2/DepthDuration/v2_depth_duration_MTurk/v2_DepthDuration_HTML.html#368,368,1366,657,1366,768,9-4-2022,10-41-24,163,depth_duration_stimuli/003129_2014-05-12_10-48-10_094959634447_rgbf000100-resize_0/003129_2014-05-12_10-48-10_094959634447_rgbf000100-resize_0-target.png,125,4.9305,6,3899,125,meters,jsons/VE125_randls_11_rotated.json,1549802,1668967,47,Man
163,603735,DepthScenes,duration_manipulation_targetAtFixation,jsons/VE125_randls_11_rotated.json,http://54.235.29.9/FacialAge/BNav_EC2/DepthDuration/v2_depth_duration_MTurk/v2_DepthDuration_HTML.html#368,368,1366,657,1366,768,9-4-2022,10-41-24,164,depth_duration_stimuli/000414_2014-06-04_19-49-13_260595134347_rgbf000044-resize_0/000414_2014-06-04_19-49-13_260595134347_rgbf000044-resize_0-target.png,125,4.329,5,25466,126,meters,jsons/VE125_randls_11_rotated.json,1549802,1668967,47,Man
