,subjID,experimentName,versionName,sequenceName,url,selected_row,windowWidth,windowHeight,screenWidth,screenHeight,startDate,startTime,trial,stimulus,duration,actual_depth,depth_estimate,trial_RT,log_sceneDuration,unitSelection,seq_filepath,experimentTime,totalTime,age,gender
0,605251,DepthScenes,duration_manipulation_targetAtFixation,jsons/v1_VE250_randls_69_rotated.json,http://54.235.29.9/FacialAge/BNav_EC2/DepthDuration/v2_depth_duration_MTurk/v2_DepthDuration_HTML.html#87,87,1440,789,1440,900,8-20-2022,10-58-58,1,depth_duration_stimuli/000780_2014-06-08_22-28-29_260595134347_rgbf000126-resize_1/000780_2014-06-08_22-28-29_260595134347_rgbf000126-resize_1-target.png,250,3.3825,5,122997,249,meters,jsons/v1_VE250_randls_69_rotated.json,582502,742022,48,Man
1,605251,DepthScenes,duration_manipulation_targetAtFixation,jsons/v1_VE250_randls_69_rotated.json,http://54.235.29.9/FacialAge/BNav_EC2/DepthDuration/v2_depth_duration_MTurk/v2_DepthDuration_HTML.html#87,87,1440,789,1440,900,8-20-2022,10-58-58,2,depth_duration_stimuli/002445_2014-06-28_20-32-16_260595134347_rgbf000029-resize_4/002445_2014-06-28_20-32-16_260595134347_rgbf000029-resize_4-target.png,250,2.5315,4,2495,250,meters,jsons/v1_VE250_randls_69_rotated.json,582502,742022,48,Man
2,605251,DepthScenes,duration_manipulation_targetAtFixation,jsons/v1_VE250_randls_69_rotated.json,http://54.235.29.9/FacialAge/BNav_EC2/DepthDuration/v2_depth_duration_MTurk/v2_DepthDuration_HTML.html#87,87,1440,789,1440,900,8-20-2022,10-58-58,3,depth_duration_stimuli/000691_2014-06-08_13-08-50_260595134347_rgbf000132-resize_3/000691_2014-06-08_13-08-50_260595134347_rgbf000132-resize_3-target.png,250,4.1530000000000005,6,2028,249,meters,jsons/v1_VE250_randls_69_rotated.json,582502,742022,48,Man
3,605251,DepthScenes,duration_manipulation_targetAtFixation,jsons/v1_VE250_randls_69_rotated.json,http://54.235.29.9/FacialAge/BNav_EC2/DepthDuration/v2_depth_duration_MTurk/v2_DepthDuration_HTML.html#87,87,1440,789,1440,900,8-20-2022,10-58-58,4,depth_duration_stimuli/002213_2014-06-28_18-37-58_260595134347_rgbf000055-resize_1/002213_2014-06-28_18-37-58_260595134347_rgbf000055-resize_1-target.png,250,3.62,0,2720,250,meters,jsons/v1_VE250_randls_69_rotated.json,582502,742022,48,Man
4,605251,DepthScenes,duration_manipulation_targetAtFixation,jsons/v1_VE250_randls_69_rotated.json,http://54.235.29.9/FacialAge/BNav_EC2/DepthDuration/v2_depth_duration_MTurk/v2_DepthDuration_HTML.html#87,87,1440,789,1440,900,8-20-2022,10-58-58,5,depth_duration_stimuli/001447_2014-06-19_17-00-32_260595134347_rgbf000082-resize_5/001447_2014-06-19_17-00-32_260595134347_rgbf000082-resize_5-target.png,250,4.13775,5,2442,249,meters,jsons/v1_VE250_randls_69_rotated.json,582502,742022,48,Man
5,605251,DepthScenes,duration_manipulation_targetAtFixation,jsons/v1_VE250_randls_69_rotated.json,http://54.235.29.9/FacialAge/BNav_EC2/DepthDuration/v2_depth_duration_MTurk/v2_DepthDuration_HTML.html#87,87,1440,789,1440,900,8-20-2022,10-58-58,6,depth_duration_stimuli/000447_2014-06-08_16-15-46_260595134347_rgbf000130-resize_1/000447_2014-06-08_16-15-46_260595134347_rgbf000130-resize_1-target.png,250,4.479,4,2116,250,meters,jsons/v1_VE250_randls_69_rotated.json,582502,742022,48,Man
6,605251,DepthScenes,duration_manipulation_targetAtFixation,jsons/v1_VE250_randls_69_rotated.json,http://54.235.29.9/FacialAge/BNav_EC2/DepthDuration/v2_depth_duration_MTurk/v2_DepthDuration_HTML.html#87,87,1440,789,1440,900,8-20-2022,10-58-58,7,depth_duration_stimuli/000502_2014-06-08_23-02-32_260595134347_rgbf000063-resize_4/000502_2014-06-08_23-02-32_260595134347_rgbf000063-resize_4-target.png,250,2.431,8,1945,250,meters,jsons/v1_VE250_randls_69_rotated.json,582502,742022,48,Man
7,605251,DepthScenes,duration_manipulation_targetAtFixation,jsons/v1_VE250_randls_69_rotated.json,http://54.235.29.9/FacialAge/BNav_EC2/DepthDuration/v2_depth_duration_MTurk/v2_DepthDuration_HTML.html#87,87,1440,789,1440,900,8-20-2022,10-58-58,8,depth_duration_stimuli/001199_2014-06-17_16-03-48_260595134347_rgbf000077-resize_0/001199_2014-06-17_16-03-48_260595134347_rgbf000077-resize_0-target.png,250,3.4375,6,1706,249,meters,jsons/v1_VE250_randls_69_rotated.json,582502,742022,48,Man
8,605251,DepthScenes,duration_manipulation_targetAtFixation,jsons/v1_VE250_randls_69_rotated.json,http://54.235.29.9/FacialAge/BNav_EC2/DepthDuration/v2_depth_duration_MTurk/v2_DepthDuration_HTML.html#87,87,1440,789,1440,900,8-20-2022,10-58-58,9,depth_duration_stimuli/003129_2014-05-12_10-48-10_094959634447_rgbf000100-resize_0/003129_2014-05-12_10-48-10_094959634447_rgbf000100-resize_0-target.png,250,4.9305,4,1777,248,meters,jsons/v1_VE250_randls_69_rotated.json,582502,742022,48,Man
9,605251,DepthScenes,duration_manipulation_targetAtFixation,jsons/v1_VE250_randls_69_rotated.json,http://54.235.29.9/FacialAge/BNav_EC2/DepthDuration/v2_depth_duration_MTurk/v2_DepthDuration_HTML.html#87,87,1440,789,1440,900,8-20-2022,10-58-58,10,depth_duration_stimuli/000414_2014-06-04_19-49-13_260595134347_rgbf000044-resize_0/000414_2014-06-04_19-49-13_260595134347_rgbf000044-resize_0-target.png,250,4.329,5,2427,251,meters,jsons/v1_VE250_randls_69_rotated.json,582502,742022,48,Man
10,605251,DepthScenes,duration_manipulation_targetAtFixation,jsons/v1_VE250_randls_69_rotated.json,http://54.235.29.9/FacialAge/BNav_EC2/DepthDuration/v2_depth_duration_MTurk/v2_DepthDuration_HTML.html#87,87,1440,789,1440,900,8-20-2022,10-58-58,11,depth_duration_stimuli/003587_2014-05-23_16-48-02_094959634447_rgbf002384-resize_2/003587_2014-05-23_16-48-02_094959634447_rgbf002384-resize_2-target.png,250,1.357,5,5937,250,meters,jsons/v1_VE250_randls_69_rotated.json,582502,742022,48,Man
11,605251,DepthScenes,duration_manipulation_targetAtFixation,jsons/v1_VE250_randls_69_rotated.json,http://54.235.29.9/FacialAge/BNav_EC2/DepthDuration/v2_depth_duration_MTurk/v2_DepthDuration_HTML.html#87,87,1440,789,1440,900,8-20-2022,10-58-58,12,depth_duration_stimuli/001167_2014-06-17_15-38-07_260595134347_rgbf000108-resize_0/001167_2014-06-17_15-38-07_260595134347_rgbf000108-resize_0-target.png,250,1.8505,4,1962,250,meters,jsons/v1_VE250_randls_69_rotated.json,582502,742022,48,Man
12,605251,DepthScenes,duration_manipulation_targetAtFixation,jsons/v1_VE250_randls_69_rotated.json,http://54.235.29.9/FacialAge/BNav_EC2/DepthDuration/v2_depth_duration_MTurk/v2_DepthDuration_HTML.html#87,87,1440,789,1440,900,8-20-2022,10-58-58,13,depth_duration_stimuli/002637_2014-06-24_14-51-13_094959634447_rgbf000066-resize_4/002637_2014-06-24_14-51-13_094959634447_rgbf000066-resize_4-target.png,250,1.9955,6,2674,250,meters,jsons/v1_VE250_randls_69_rotated.json,582502,742022,48,Man
13,605251,DepthScenes,duration_manipulation_targetAtFixation,jsons/v1_VE250_randls_69_rotated.json,http://54.235.29.9/FacialAge/BNav_EC2/DepthDuration/v2_depth_duration_MTurk/v2_DepthDuration_HTML.html#87,87,1440,789,1440,900,8-20-2022,10-58-58,14,depth_duration_stimuli/003534_2014-05-22_15-06-10_094959634447_rgbf000102-resize_4/003534_2014-05-22_15-06-10_094959634447_rgbf000102-resize_4-target.png,250,1.426,5,2290,250,meters,jsons/v1_VE250_randls_69_rotated.json,582502,742022,48,Man
14,605251,DepthScenes,duration_manipulation_targetAtFixation,jsons/v1_VE250_randls_69_rotated.json,http://54.235.29.9/FacialAge/BNav_EC2/DepthDuration/v2_depth_duration_MTurk/v2_DepthDuration_HTML.html#87,87,1440,789,1440,900,8-20-2022,10-58-58,15,depth_duration_stimuli/000409_2014-06-04_19-23-33_260595134347_rgbf000067-resize_0/000409_2014-06-04_19-23-33_260595134347_rgbf000067-resize_0-target.png,250,3.7335,8,2122,250,meters,jsons/v1_VE250_randls_69_rotated.json,582502,742022,48,Man
15,605251,DepthScenes,duration_manipulation_targetAtFixation,jsons/v1_VE250_randls_69_rotated.json,http://54.235.29.9/FacialAge/BNav_EC2/DepthDuration/v2_depth_duration_MTurk/v2_DepthDuration_HTML.html#87,87,1440,789,1440,900,8-20-2022,10-58-58,16,depth_duration_stimuli/002663_2014-06-13_15-50-26_094959634447_rgbf000075-resize_1/002663_2014-06-13_15-50-26_094959634447_rgbf000075-resize_1-target.png,250,4.7495,4,2265,249,meters,jsons/v1_VE250_randls_69_rotated.json,582502,742022,48,Man
16,605251,DepthScenes,duration_manipulation_targetAtFixation,jsons/v1_VE250_randls_69_rotated.json,http://54.235.29.9/FacialAge/BNav_EC2/DepthDuration/v2_depth_duration_MTurk/v2_DepthDuration_HTML.html#87,87,1440,789,1440,900,8-20-2022,10-58-58,17,depth_duration_stimuli/000749_2014-06-08_21-55-06_260595134347_rgbf000070-resize_2/000749_2014-06-08_21-55-06_260595134347_rgbf000070-resize_2-target.png,250,2.331,5,9694,249,meters,jsons/v1_VE250_randls_69_rotated.json,582502,742022,48,Man
17,605251,DepthScenes,duration_manipulation_targetAtFixation,jsons/v1_VE250_randls_69_rotated.json,http://54.235.29.9/FacialAge/BNav_EC2/DepthDuration/v2_depth_duration_MTurk/v2_DepthDuration_HTML.html#87,87,1440,789,1440,900,8-20-2022,10-58-58,18,depth_duration_stimuli/002788_2014-06-22_19-36-03_094959634447_rgbf000088-resize_2/002788_2014-06-22_19-36-03_094959634447_rgbf000088-resize_2-target.png,250,1.6465,6,2712,250,meters,jsons/v1_VE250_randls_69_rotated.json,582502,742022,48,Man
18,605251,DepthScenes,duration_manipulation_targetAtFixation,jsons/v1_VE250_randls_69_rotated.json,http://54.235.29.9/FacialAge/BNav_EC2/DepthDuration/v2_depth_duration_MTurk/v2_DepthDuration_HTML.html#87,87,1440,789,1440,900,8-20-2022,10-58-58,19,depth_duration_stimuli/001498_2014-06-19_17-45-14_260595134347_rgbf000129-resize_4/001498_2014-06-19_17-45-14_260595134347_rgbf000129-resize-original.jpg,250,1.4075,8,3035,250,meters,jsons/v1_VE250_randls_69_rotated.json,582502,742022,48,Man
19,605251,DepthScenes,duration_manipulation_targetAtFixation,jsons/v1_VE250_randls_69_rotated.json,http://54.235.29.9/FacialAge/BNav_EC2/DepthDuration/v2_depth_duration_MTurk/v2_DepthDuration_HTML.html#87,87,1440,789,1440,900,8-20-2022,10-58-58,20,depth_duration_stimuli/003048_2014-06-15_13-49-43_094959634447_rgbf000150-resize_1/003048_2014-06-15_13-49-43_094959634447_rgbf000150-resize_1-target.png,250,4.0035,4,1785,249,meters,jsons/v1_VE250_randls_69_rotated.json,582502,742022,48,Man
20,605251,DepthScenes,duration_manipulation_targetAtFixation,jsons/v1_VE250_randls_69_rotated.json,http://54.235.29.9/FacialAge/BNav_EC2/DepthDuration/v2_depth_duration_MTurk/v2_DepthDuration_HTML.html#87,87,1440,789,1440,900,8-20-2022,10-58-58,21,depth_duration_stimuli/002043_2014-06-24_20-29-38_260595134347_rgbf000039-resize_4/002043_2014-06-24_20-29-38_260595134347_rgbf000039-resize_4-target.png,250,2.8435,7,1931,249,meters,jsons/v1_VE250_randls_69_rotated.json,582502,742022,48,Man
21,605251,DepthScenes,duration_manipulation_targetAtFixation,jsons/v1_VE250_randls_69_rotated.json,http://54.235.29.9/FacialAge/BNav_EC2/DepthDuration/v2_depth_duration_MTurk/v2_DepthDuration_HTML.html#87,87,1440,789,1440,900,8-20-2022,10-58-58,22,depth_duration_stimuli/000137_2014-05-20_17-04-49_260595134347_rgbf000120-resize_1/000137_2014-05-20_17-04-49_260595134347_rgbf000120-resize_1-target.png,250,3.786,6,1923,249,meters,jsons/v1_VE250_randls_69_rotated.json,582502,742022,48,Man
22,605251,DepthScenes,duration_manipulation_targetAtFixation,jsons/v1_VE250_randls_69_rotated.json,http://54.235.29.9/FacialAge/BNav_EC2/DepthDuration/v2_depth_duration_MTurk/v2_DepthDuration_HTML.html#87,87,1440,789,1440,900,8-20-2022,10-58-58,23,depth_duration_stimuli/000736_2014-06-08_18-24-15_260595134347_rgbf000206-resize_3/000736_2014-06-08_18-24-15_260595134347_rgbf000206-resize_3-target.png,250,3.515,5,2953,250,meters,jsons/v1_VE250_randls_69_rotated.json,582502,742022,48,Man
23,605251,DepthScenes,duration_manipulation_targetAtFixation,jsons/v1_VE250_randls_69_rotated.json,http://54.235.29.9/FacialAge/BNav_EC2/DepthDuration/v2_depth_duration_MTurk/v2_DepthDuration_HTML.html#87,87,1440,789,1440,900,8-20-2022,10-58-58,24,depth_duration_stimuli/002639_2014-06-24_14-51-37_094959634447_rgbf000074-resize_4/002639_2014-06-24_14-51-37_094959634447_rgbf000074-resize_4-target.png,250,4.0375,2,2289,249,meters,jsons/v1_VE250_randls_69_rotated.json,582502,742022,48,Man
24,605251,DepthScenes,duration_manipulation_targetAtFixation,jsons/v1_VE250_randls_69_rotated.json,http://54.235.29.9/FacialAge/BNav_EC2/DepthDuration/v2_depth_duration_MTurk/v2_DepthDuration_HTML.html#87,87,1440,789,1440,900,8-20-2022,10-58-58,25,depth_duration_stimuli/003292_2014-05-14_21-53-49_094959634447_rgbf000100-resize_2/003292_2014-05-14_21-53-49_094959634447_rgbf000100-resize_2-target.png,250,3.4815,9,1962,250,meters,jsons/v1_VE250_randls_69_rotated.json,582502,742022,48,Man
25,605251,DepthScenes,duration_manipulation_targetAtFixation,jsons/v1_VE250_randls_69_rotated.json,http://54.235.29.9/FacialAge/BNav_EC2/DepthDuration/v2_depth_duration_MTurk/v2_DepthDuration_HTML.html#87,87,1440,789,1440,900,8-20-2022,10-58-58,26,depth_duration_stimuli/001132_2014-06-17_14-48-54_260595134347_rgbf000100-resize_2/001132_2014-06-17_14-48-54_260595134347_rgbf000100-resize_2-target.png,250,3.753,5,4083,249,meters,jsons/v1_VE250_randls_69_rotated.json,582502,742022,48,Man
26,605251,DepthScenes,duration_manipulation_targetAtFixation,jsons/v1_VE250_randls_69_rotated.json,http://54.235.29.9/FacialAge/BNav_EC2/DepthDuration/v2_depth_duration_MTurk/v2_DepthDuration_HTML.html#87,87,1440,789,1440,900,8-20-2022,10-58-58,27,depth_duration_stimuli/001133_2014-06-17_14-49-16_260595134347_rgbf000100-resize_0/001133_2014-06-17_14-49-16_260595134347_rgbf000100-resize_0-target.png,250,4.2115,4,1896,249,meters,jsons/v1_VE250_randls_69_rotated.json,582502,742022,48,Man
27,605251,DepthScenes,duration_manipulation_targetAtFixation,jsons/v1_VE250_randls_69_rotated.json,http://54.235.29.9/FacialAge/BNav_EC2/DepthDuration/v2_depth_duration_MTurk/v2_DepthDuration_HTML.html#87,87,1440,789,1440,900,8-20-2022,10-58-58,28,depth_duration_stimuli/003081_2014-06-15_15-19-16_094959634447_rgbf000150-resize_1/003081_2014-06-15_15-19-16_094959634447_rgbf000150-resize_1-target.png,250,3.9125,6,2250,250,meters,jsons/v1_VE250_randls_69_rotated.json,582502,742022,48,Man
28,605251,DepthScenes,duration_manipulation_targetAtFixation,jsons/v1_VE250_randls_69_rotated.json,http://54.235.29.9/FacialAge/BNav_EC2/DepthDuration/v2_depth_duration_MTurk/v2_DepthDuration_HTML.html#87,87,1440,789,1440,900,8-20-2022,10-58-58,29,depth_duration_stimuli/001417_2014-06-19_16-25-36_260595134347_rgbf000115-resize_5/001417_2014-06-19_16-25-36_260595134347_rgbf000115-resize_5-target.png,250,4.6255,5,1885,250,meters,jsons/v1_VE250_randls_69_rotated.json,582502,742022,48,Man
29,605251,DepthScenes,duration_manipulation_targetAtFixation,jsons/v1_VE250_randls_69_rotated.json,http://54.235.29.9/FacialAge/BNav_EC2/DepthDuration/v2_depth_duration_MTurk/v2_DepthDuration_HTML.html#87,87,1440,789,1440,900,8-20-2022,10-58-58,30,depth_duration_stimuli/002072_2014-06-24_21-48-06_260595134347_rgbf000115-resize_0/002072_2014-06-24_21-48-06_260595134347_rgbf000115-resize-original.jpg,250,4.702,0,2511,249,meters,jsons/v1_VE250_randls_69_rotated.json,582502,742022,48,Man
30,605251,DepthScenes,duration_manipulation_targetAtFixation,jsons/v1_VE250_randls_69_rotated.json,http://54.235.29.9/FacialAge/BNav_EC2/DepthDuration/v2_depth_duration_MTurk/v2_DepthDuration_HTML.html#87,87,1440,789,1440,900,8-20-2022,10-58-58,31,depth_duration_stimuli/003423_2014-05-21_10-23-26_094959634447_rgbf002665-resize_2/003423_2014-05-21_10-23-26_094959634447_rgbf002665-resize_2-target.png,250,3.2575,5,2419,250,meters,jsons/v1_VE250_randls_69_rotated.json,582502,742022,48,Man
31,605251,DepthScenes,duration_manipulation_targetAtFixation,jsons/v1_VE250_randls_69_rotated.json,http://54.235.29.9/FacialAge/BNav_EC2/DepthDuration/v2_depth_duration_MTurk/v2_DepthDuration_HTML.html#87,87,1440,789,1440,900,8-20-2022,10-58-58,32,depth_duration_stimuli/002905_2014-06-03_18-04-43_094959634447_rgbf000151-resize_2/002905_2014-06-03_18-04-43_094959634447_rgbf000151-resize_2-target.png,250,2.0295,4,1777,249,meters,jsons/v1_VE250_randls_69_rotated.json,582502,742022,48,Man
32,605251,DepthScenes,duration_manipulation_targetAtFixation,jsons/v1_VE250_randls_69_rotated.json,http://54.235.29.9/FacialAge/BNav_EC2/DepthDuration/v2_depth_duration_MTurk/v2_DepthDuration_HTML.html#87,87,1440,789,1440,900,8-20-2022,10-58-58,33,depth_duration_stimuli/002340_2014-06-28_20-05-46_260595134347_rgbf000113-resize_0/002340_2014-06-28_20-05-46_260595134347_rgbf000113-resize_0-target.png,250,2.4735,7,2114,250,meters,jsons/v1_VE250_randls_69_rotated.json,582502,742022,48,Man
33,605251,DepthScenes,duration_manipulation_targetAtFixation,jsons/v1_VE250_randls_69_rotated.json,http://54.235.29.9/FacialAge/BNav_EC2/DepthDuration/v2_depth_duration_MTurk/v2_DepthDuration_HTML.html#87,87,1440,789,1440,900,8-20-2022,10-58-58,34,depth_duration_stimuli/001016_2014-06-09_16-16-10_260595134347_rgbf000112-resize_5/001016_2014-06-09_16-16-10_260595134347_rgbf000112-resize_5-target.png,250,1.6565,9,1955,251,meters,jsons/v1_VE250_randls_69_rotated.json,582502,742022,48,Man
34,605251,DepthScenes,duration_manipulation_targetAtFixation,jsons/v1_VE250_randls_69_rotated.json,http://54.235.29.9/FacialAge/BNav_EC2/DepthDuration/v2_depth_duration_MTurk/v2_DepthDuration_HTML.html#87,87,1440,789,1440,900,8-20-2022,10-58-58,35,depth_duration_stimuli/002414_2014-06-28_20-24-58_260595134347_rgbf000067-resize_4/002414_2014-06-28_20-24-58_260595134347_rgbf000067-resize_4-target.png,250,4.363,5,1897,249,meters,jsons/v1_VE250_randls_69_rotated.json,582502,742022,48,Man
35,605251,DepthScenes,duration_manipulation_targetAtFixation,jsons/v1_VE250_randls_69_rotated.json,http://54.235.29.9/FacialAge/BNav_EC2/DepthDuration/v2_depth_duration_MTurk/v2_DepthDuration_HTML.html#87,87,1440,789,1440,900,8-20-2022,10-58-58,36,depth_duration_stimuli/000773_2014-06-08_22-24-54_260595134347_rgbf000093-resize_1/000773_2014-06-08_22-24-54_260595134347_rgbf000093-resize_1-target.png,250,4.973,5,12275,249,meters,jsons/v1_VE250_randls_69_rotated.json,582502,742022,48,Man
36,605251,DepthScenes,duration_manipulation_targetAtFixation,jsons/v1_VE250_randls_69_rotated.json,http://54.235.29.9/FacialAge/BNav_EC2/DepthDuration/v2_depth_duration_MTurk/v2_DepthDuration_HTML.html#87,87,1440,789,1440,900,8-20-2022,10-58-58,37,depth_duration_stimuli/000483_2014-06-09_20-41-45_260595134347_rgbf000116-resize_4/000483_2014-06-09_20-41-45_260595134347_rgbf000116-resize_4-target.png,250,1.337,4,1811,250,meters,jsons/v1_VE250_randls_69_rotated.json,582502,742022,48,Man
37,605251,DepthScenes,duration_manipulation_targetAtFixation,jsons/v1_VE250_randls_69_rotated.json,http://54.235.29.9/FacialAge/BNav_EC2/DepthDuration/v2_depth_duration_MTurk/v2_DepthDuration_HTML.html#87,87,1440,789,1440,900,8-20-2022,10-58-58,38,depth_duration_stimuli/000469_2014-06-09_19-42-10_260595134347_rgbf000081-resize_1/000469_2014-06-09_19-42-10_260595134347_rgbf000081-resize_1-target.png,250,1.652,6,1889,249,meters,jsons/v1_VE250_randls_69_rotated.json,582502,742022,48,Man
38,605251,DepthScenes,duration_manipulation_targetAtFixation,jsons/v1_VE250_randls_69_rotated.json,http://54.235.29.9/FacialAge/BNav_EC2/DepthDuration/v2_depth_duration_MTurk/v2_DepthDuration_HTML.html#87,87,1440,789,1440,900,8-20-2022,10-58-58,39,depth_duration_stimuli/003079_2014-06-15_15-18-20_094959634447_rgbf000152-resize_8/003079_2014-06-15_15-18-20_094959634447_rgbf000152-resize_8-target.png,250,2.8775,5,1881,250,meters,jsons/v1_VE250_randls_69_rotated.json,582502,742022,48,Man
39,605251,DepthScenes,duration_manipulation_targetAtFixation,jsons/v1_VE250_randls_69_rotated.json,http://54.235.29.9/FacialAge/BNav_EC2/DepthDuration/v2_depth_duration_MTurk/v2_DepthDuration_HTML.html#87,87,1440,789,1440,900,8-20-2022,10-58-58,40,depth_duration_stimuli/000506_2014-06-08_23-21-00_260595134347_rgbf000070-resize_7/000506_2014-06-08_23-21-00_260595134347_rgbf000070-resize_7-target.png,250,4.0585,1,1851,249,meters,jsons/v1_VE250_randls_69_rotated.json,582502,742022,48,Man
40,605251,DepthScenes,duration_manipulation_targetAtFixation,jsons/v1_VE250_randls_69_rotated.json,http://54.235.29.9/FacialAge/BNav_EC2/DepthDuration/v2_depth_duration_MTurk/v2_DepthDuration_HTML.html#87,87,1440,789,1440,900,8-20-2022,10-58-58,41,depth_duration_stimuli/000457_2014-06-08_16-52-43_260595134347_rgbf000199-resize_1/000457_2014-06-08_16-52-43_260595134347_rgbf000199-resize_1-target.png,250,3.6489999999999996,2,1723,248,meters,jsons/v1_VE250_randls_69_rotated.json,582502,742022,48,Man
41,605251,DepthScenes,duration_manipulation_targetAtFixation,jsons/v1_VE250_randls_69_rotated.json,http://54.235.29.9/FacialAge/BNav_EC2/DepthDuration/v2_depth_duration_MTurk/v2_DepthDuration_HTML.html#87,87,1440,789,1440,900,8-20-2022,10-58-58,42,depth_duration_stimuli/000929_2014-06-09_16-33-19_260595134347_rgbf000139-resize_0/000929_2014-06-09_16-33-19_260595134347_rgbf000139-resize_0-target.png,250,2.8680000000000003,7,1937,250,meters,jsons/v1_VE250_randls_69_rotated.json,582502,742022,48,Man
42,605251,DepthScenes,duration_manipulation_targetAtFixation,jsons/v1_VE250_randls_69_rotated.json,http://54.235.29.9/FacialAge/BNav_EC2/DepthDuration/v2_depth_duration_MTurk/v2_DepthDuration_HTML.html#87,87,1440,789,1440,900,8-20-2022,10-58-58,43,depth_duration_stimuli/002103_2014-06-25_20-00-40_260595134347_rgbf000049-resize_0/002103_2014-06-25_20-00-40_260595134347_rgbf000049-resize_0-target.png,250,4.105,8,1713,250,meters,jsons/v1_VE250_randls_69_rotated.json,582502,742022,48,Man
43,605251,DepthScenes,duration_manipulation_targetAtFixation,jsons/v1_VE250_randls_69_rotated.json,http://54.235.29.9/FacialAge/BNav_EC2/DepthDuration/v2_depth_duration_MTurk/v2_DepthDuration_HTML.html#87,87,1440,789,1440,900,8-20-2022,10-58-58,44,depth_duration_stimuli/002039_2014-06-24_20-22-38_260595134347_rgbf000084-resize_1/002039_2014-06-24_20-22-38_260595134347_rgbf000084-resize_1-target.png,250,4.408,8,2019,249,meters,jsons/v1_VE250_randls_69_rotated.json,582502,742022,48,Man
44,605251,DepthScenes,duration_manipulation_targetAtFixation,jsons/v1_VE250_randls_69_rotated.json,http://54.235.29.9/FacialAge/BNav_EC2/DepthDuration/v2_depth_duration_MTurk/v2_DepthDuration_HTML.html#87,87,1440,789,1440,900,8-20-2022,10-58-58,45,depth_duration_stimuli/003338_2014-05-20_11-01-23_094959634447_rgbf000051-resize_6/003338_2014-05-20_11-01-23_094959634447_rgbf000051-resize_6-target.png,250,1.693,9,2163,249,meters,jsons/v1_VE250_randls_69_rotated.json,582502,742022,48,Man
45,605251,DepthScenes,duration_manipulation_targetAtFixation,jsons/v1_VE250_randls_69_rotated.json,http://54.235.29.9/FacialAge/BNav_EC2/DepthDuration/v2_depth_duration_MTurk/v2_DepthDuration_HTML.html#87,87,1440,789,1440,900,8-20-2022,10-58-58,46,depth_duration_stimuli/002509_2014-06-24_13-19-22_094959634447_rgbf000077-resize_0/002509_2014-06-24_13-19-22_094959634447_rgbf000077-resize_0-target.png,250,1.3065,5,2018,249,meters,jsons/v1_VE250_randls_69_rotated.json,582502,742022,48,Man
46,605251,DepthScenes,duration_manipulation_targetAtFixation,jsons/v1_VE250_randls_69_rotated.json,http://54.235.29.9/FacialAge/BNav_EC2/DepthDuration/v2_depth_duration_MTurk/v2_DepthDuration_HTML.html#87,87,1440,789,1440,900,8-20-2022,10-58-58,47,depth_duration_stimuli/002344_2014-06-28_20-06-29_260595134347_rgbf000030-resize_1/002344_2014-06-28_20-06-29_260595134347_rgbf000030-resize_1-target.png,250,1.5795,4,1993,250,meters,jsons/v1_VE250_randls_69_rotated.json,582502,742022,48,Man
47,605251,DepthScenes,duration_manipulation_targetAtFixation,jsons/v1_VE250_randls_69_rotated.json,http://54.235.29.9/FacialAge/BNav_EC2/DepthDuration/v2_depth_duration_MTurk/v2_DepthDuration_HTML.html#87,87,1440,789,1440,900,8-20-2022,10-58-58,48,depth_duration_stimuli/002725_2014-06-22_11-47-51_094959634447_rgbf000070-resize_1/002725_2014-06-22_11-47-51_094959634447_rgbf000070-resize_1-target.png,250,2.195,6,1932,250,meters,jsons/v1_VE250_randls_69_rotated.json,582502,742022,48,Man
48,605251,DepthScenes,duration_manipulation_targetAtFixation,jsons/v1_VE250_randls_69_rotated.json,http://54.235.29.9/FacialAge/BNav_EC2/DepthDuration/v2_depth_duration_MTurk/v2_DepthDuration_HTML.html#87,87,1440,789,1440,900,8-20-2022,10-58-58,49,depth_duration_stimuli/001170_2014-06-17_15-43-44_260595134347_rgbf000096-resize_6/001170_2014-06-17_15-43-44_260595134347_rgbf000096-resize-original.jpg,250,1.1909999999999998,0,2210,251,meters,jsons/v1_VE250_randls_69_rotated.json,582502,742022,48,Man
49,605251,DepthScenes,duration_manipulation_targetAtFixation,jsons/v1_VE250_randls_69_rotated.json,http://54.235.29.9/FacialAge/BNav_EC2/DepthDuration/v2_depth_duration_MTurk/v2_DepthDuration_HTML.html#87,87,1440,789,1440,900,8-20-2022,10-58-58,50,depth_duration_stimuli/000665_2014-06-09_20-42-35_260595134347_rgbf000110-resize_1/000665_2014-06-09_20-42-35_260595134347_rgbf000110-resize_1-target.png,250,3.057,5,1721,250,meters,jsons/v1_VE250_randls_69_rotated.json,582502,742022,48,Man
50,605251,DepthScenes,duration_manipulation_targetAtFixation,jsons/v1_VE250_randls_69_rotated.json,http://54.235.29.9/FacialAge/BNav_EC2/DepthDuration/v2_depth_duration_MTurk/v2_DepthDuration_HTML.html#87,87,1440,789,1440,900,8-20-2022,10-58-58,51,depth_duration_stimuli/001150_2014-06-17_15-27-34_260595134347_rgbf000108-resize_2/001150_2014-06-17_15-27-34_260595134347_rgbf000108-resize_2-target.png,250,4.0325,4,1714,251,meters,jsons/v1_VE250_randls_69_rotated.json,582502,742022,48,Man
51,605251,DepthScenes,duration_manipulation_targetAtFixation,jsons/v1_VE250_randls_69_rotated.json,http://54.235.29.9/FacialAge/BNav_EC2/DepthDuration/v2_depth_duration_MTurk/v2_DepthDuration_HTML.html#87,87,1440,789,1440,900,8-20-2022,10-58-58,52,depth_duration_stimuli/002678_2014-06-13_16-15-32_094959634447_rgbf000151-resize_6/002678_2014-06-13_16-15-32_094959634447_rgbf000151-resize_6-target.png,250,2.1830000000000003,6,1242,249,meters,jsons/v1_VE250_randls_69_rotated.json,582502,742022,48,Man
52,605251,DepthScenes,duration_manipulation_targetAtFixation,jsons/v1_VE250_randls_69_rotated.json,http://54.235.29.9/FacialAge/BNav_EC2/DepthDuration/v2_depth_duration_MTurk/v2_DepthDuration_HTML.html#87,87,1440,789,1440,900,8-20-2022,10-58-58,53,depth_duration_stimuli/000368_2014-06-09_15-53-01_260595134347_rgbf000155-resize_2/000368_2014-06-09_15-53-01_260595134347_rgbf000155-resize_2-target.png,250,2.4859999999999998,5,2106,249,meters,jsons/v1_VE250_randls_69_rotated.json,582502,742022,48,Man
53,605251,DepthScenes,duration_manipulation_targetAtFixation,jsons/v1_VE250_randls_69_rotated.json,http://54.235.29.9/FacialAge/BNav_EC2/DepthDuration/v2_depth_duration_MTurk/v2_DepthDuration_HTML.html#87,87,1440,789,1440,900,8-20-2022,10-58-58,54,depth_duration_stimuli/001392_2014-06-19_16-07-59_260595134347_rgbf000046-resize_1/001392_2014-06-19_16-07-59_260595134347_rgbf000046-resize_1-target.png,250,4.135,7,1953,249,meters,jsons/v1_VE250_randls_69_rotated.json,582502,742022,48,Man
54,605251,DepthScenes,duration_manipulation_targetAtFixation,jsons/v1_VE250_randls_69_rotated.json,http://54.235.29.9/FacialAge/BNav_EC2/DepthDuration/v2_depth_duration_MTurk/v2_DepthDuration_HTML.html#87,87,1440,789,1440,900,8-20-2022,10-58-58,55,depth_duration_stimuli/001570_2014-06-20_17-21-09_260595134347_rgbf000135-resize_4/001570_2014-06-20_17-21-09_260595134347_rgbf000135-resize_4-target.png,250,4.467,5,1804,250,meters,jsons/v1_VE250_randls_69_rotated.json,582502,742022,48,Man
55,605251,DepthScenes,duration_manipulation_targetAtFixation,jsons/v1_VE250_randls_69_rotated.json,http://54.235.29.9/FacialAge/BNav_EC2/DepthDuration/v2_depth_duration_MTurk/v2_DepthDuration_HTML.html#87,87,1440,789,1440,900,8-20-2022,10-58-58,56,depth_duration_stimuli/003228_2014-05-14_13-42-35_094959634447_rgbf000101-resize_1/003228_2014-05-14_13-42-35_094959634447_rgbf000101-resize_1-target.png,250,1.9680000000000002,5,2403,249,meters,jsons/v1_VE250_randls_69_rotated.json,582502,742022,48,Man
56,605251,DepthScenes,duration_manipulation_targetAtFixation,jsons/v1_VE250_randls_69_rotated.json,http://54.235.29.9/FacialAge/BNav_EC2/DepthDuration/v2_depth_duration_MTurk/v2_DepthDuration_HTML.html#87,87,1440,789,1440,900,8-20-2022,10-58-58,57,depth_duration_stimuli/002600_2014-06-24_14-27-04_094959634447_rgbf000074-resize_2/002600_2014-06-24_14-27-04_094959634447_rgbf000074-resize_2-target.png,250,2.7575,4,3122,249,meters,jsons/v1_VE250_randls_69_rotated.json,582502,742022,48,Man
57,605251,DepthScenes,duration_manipulation_targetAtFixation,jsons/v1_VE250_randls_69_rotated.json,http://54.235.29.9/FacialAge/BNav_EC2/DepthDuration/v2_depth_duration_MTurk/v2_DepthDuration_HTML.html#87,87,1440,789,1440,900,8-20-2022,10-58-58,58,depth_duration_stimuli/001214_2014-06-17_16-13-55_260595134347_rgbf000111-resize_0/001214_2014-06-17_16-13-55_260595134347_rgbf000111-resize_0-target.png,250,2.6505,6,5202,249,meters,jsons/v1_VE250_randls_69_rotated.json,582502,742022,48,Man
58,605251,DepthScenes,duration_manipulation_targetAtFixation,jsons/v1_VE250_randls_69_rotated.json,http://54.235.29.9/FacialAge/BNav_EC2/DepthDuration/v2_depth_duration_MTurk/v2_DepthDuration_HTML.html#87,87,1440,789,1440,900,8-20-2022,10-58-58,59,depth_duration_stimuli/000810_2014-06-08_17-20-01_260595134347_rgbf000105-resize_0/000810_2014-06-08_17-20-01_260595134347_rgbf000105-resize_0-target.png,250,1.4865,8,2699,249,meters,jsons/v1_VE250_randls_69_rotated.json,582502,742022,48,Man
59,605251,DepthScenes,duration_manipulation_targetAtFixation,jsons/v1_VE250_randls_69_rotated.json,http://54.235.29.9/FacialAge/BNav_EC2/DepthDuration/v2_depth_duration_MTurk/v2_DepthDuration_HTML.html#87,87,1440,789,1440,900,8-20-2022,10-58-58,60,depth_duration_stimuli/000556_2014-06-09_22-42-56_260595134347_rgbf000214-resize_1/000556_2014-06-09_22-42-56_260595134347_rgbf000214-resize_1-target.png,250,4.8415,4,1938,248,meters,jsons/v1_VE250_randls_69_rotated.json,582502,742022,48,Man
60,605251,DepthScenes,duration_manipulation_targetAtFixation,jsons/v1_VE250_randls_69_rotated.json,http://54.235.29.9/FacialAge/BNav_EC2/DepthDuration/v2_depth_duration_MTurk/v2_DepthDuration_HTML.html#87,87,1440,789,1440,900,8-20-2022,10-58-58,61,depth_duration_stimuli/001158_2014-06-17_15-32-16_260595134347_rgbf000138-resize_2/001158_2014-06-17_15-32-16_260595134347_rgbf000138-resize_2-target.png,250,4.5315,6,1850,248,meters,jsons/v1_VE250_randls_69_rotated.json,582502,742022,48,Man
61,605251,DepthScenes,duration_manipulation_targetAtFixation,jsons/v1_VE250_randls_69_rotated.json,http://54.235.29.9/FacialAge/BNav_EC2/DepthDuration/v2_depth_duration_MTurk/v2_DepthDuration_HTML.html#87,87,1440,789,1440,900,8-20-2022,10-58-58,62,depth_duration_stimuli/003010_2014-06-15_12-54-35_094959634447_rgbf000112-resize_0/003010_2014-06-15_12-54-35_094959634447_rgbf000112-resize_0-target.png,250,3.1185,5,1810,250,meters,jsons/v1_VE250_randls_69_rotated.json,582502,742022,48,Man
62,605251,DepthScenes,duration_manipulation_targetAtFixation,jsons/v1_VE250_randls_69_rotated.json,http://54.235.29.9/FacialAge/BNav_EC2/DepthDuration/v2_depth_duration_MTurk/v2_DepthDuration_HTML.html#87,87,1440,789,1440,900,8-20-2022,10-58-58,63,depth_duration_stimuli/001810_2014-06-26_20-51-35_260595134347_rgbf000040-resize_3/001810_2014-06-26_20-51-35_260595134347_rgbf000040-resize_3-target.png,250,2.2525,4,1835,251,meters,jsons/v1_VE250_randls_69_rotated.json,582502,742022,48,Man
63,605251,DepthScenes,duration_manipulation_targetAtFixation,jsons/v1_VE250_randls_69_rotated.json,http://54.235.29.9/FacialAge/BNav_EC2/DepthDuration/v2_depth_duration_MTurk/v2_DepthDuration_HTML.html#87,87,1440,789,1440,900,8-20-2022,10-58-58,64,depth_duration_stimuli/002568_2014-06-24_13-59-21_094959634447_rgbf000062-resize_4/002568_2014-06-24_13-59-21_094959634447_rgbf000062-resize_4-target.png,250,3.015,6,1963,250,meters,jsons/v1_VE250_randls_69_rotated.json,582502,742022,48,Man
64,605251,DepthScenes,duration_manipulation_targetAtFixation,jsons/v1_VE250_randls_69_rotated.json,http://54.235.29.9/FacialAge/BNav_EC2/DepthDuration/v2_depth_duration_MTurk/v2_DepthDuration_HTML.html#87,87,1440,789,1440,900,8-20-2022,10-58-58,65,depth_duration_stimuli/003492_2014-05-21_15-50-55_094959634447_rgbf000828-resize_1/003492_2014-05-21_15-50-55_094959634447_rgbf000828-resize_1-target.png,250,4.06875,7,2635,249,meters,jsons/v1_VE250_randls_69_rotated.json,582502,742022,48,Man
65,605251,DepthScenes,duration_manipulation_targetAtFixation,jsons/v1_VE250_randls_69_rotated.json,http://54.235.29.9/FacialAge/BNav_EC2/DepthDuration/v2_depth_duration_MTurk/v2_DepthDuration_HTML.html#87,87,1440,789,1440,900,8-20-2022,10-58-58,66,depth_duration_stimuli/001540_2014-06-20_17-01-05_260595134347_rgbf000086-resize_2/001540_2014-06-20_17-01-05_260595134347_rgbf000086-resize-original.jpg,250,1.459,0,2225,249,meters,jsons/v1_VE250_randls_69_rotated.json,582502,742022,48,Man
66,605251,DepthScenes,duration_manipulation_targetAtFixation,jsons/v1_VE250_randls_69_rotated.json,http://54.235.29.9/FacialAge/BNav_EC2/DepthDuration/v2_depth_duration_MTurk/v2_DepthDuration_HTML.html#87,87,1440,789,1440,900,8-20-2022,10-58-58,67,depth_duration_stimuli/000854_2014-06-09_19-43-13_260595134347_rgbf000066-resize_0/000854_2014-06-09_19-43-13_260595134347_rgbf000066-resize_0-target.png,250,3.068,8,1939,249,meters,jsons/v1_VE250_randls_69_rotated.json,582502,742022,48,Man
67,605251,DepthScenes,duration_manipulation_targetAtFixation,jsons/v1_VE250_randls_69_rotated.json,http://54.235.29.9/FacialAge/BNav_EC2/DepthDuration/v2_depth_duration_MTurk/v2_DepthDuration_HTML.html#87,87,1440,789,1440,900,8-20-2022,10-58-58,68,depth_duration_stimuli/000758_2014-06-08_22-05-08_260595134347_rgbf000085-resize_0/000758_2014-06-08_22-05-08_260595134347_rgbf000085-resize_0-target.png,250,3.3810000000000002,7,1778,251,meters,jsons/v1_VE250_randls_69_rotated.json,582502,742022,48,Man
68,605251,DepthScenes,duration_manipulation_targetAtFixation,jsons/v1_VE250_randls_69_rotated.json,http://54.235.29.9/FacialAge/BNav_EC2/DepthDuration/v2_depth_duration_MTurk/v2_DepthDuration_HTML.html#87,87,1440,789,1440,900,8-20-2022,10-58-58,69,depth_duration_stimuli/000109_2014-05-14_23-41-52_260595134347_rgbf000035-resize_9/000109_2014-05-14_23-41-52_260595134347_rgbf000035-resize_9-target.png,250,1.3545,6,2330,250,meters,jsons/v1_VE250_randls_69_rotated.json,582502,742022,48,Man
69,605251,DepthScenes,duration_manipulation_targetAtFixation,jsons/v1_VE250_randls_69_rotated.json,http://54.235.29.9/FacialAge/BNav_EC2/DepthDuration/v2_depth_duration_MTurk/v2_DepthDuration_HTML.html#87,87,1440,789,1440,900,8-20-2022,10-58-58,70,depth_duration_stimuli/000470_2014-06-09_19-42-40_260595134347_rgbf000094-resize_1/000470_2014-06-09_19-42-40_260595134347_rgbf000094-resize_1-target.png,250,1.831,5,1810,249,meters,jsons/v1_VE250_randls_69_rotated.json,582502,742022,48,Man
70,605251,DepthScenes,duration_manipulation_targetAtFixation,jsons/v1_VE250_randls_69_rotated.json,http://54.235.29.9/FacialAge/BNav_EC2/DepthDuration/v2_depth_duration_MTurk/v2_DepthDuration_HTML.html#87,87,1440,789,1440,900,8-20-2022,10-58-58,71,depth_duration_stimuli/002444_2014-06-28_20-32-08_260595134347_rgbf000027-resize_0/002444_2014-06-28_20-32-08_260595134347_rgbf000027-resize_0-target.png,250,4.388999999999999,4,1786,248,meters,jsons/v1_VE250_randls_69_rotated.json,582502,742022,48,Man
71,605251,DepthScenes,duration_manipulation_targetAtFixation,jsons/v1_VE250_randls_69_rotated.json,http://54.235.29.9/FacialAge/BNav_EC2/DepthDuration/v2_depth_duration_MTurk/v2_DepthDuration_HTML.html#87,87,1440,789,1440,900,8-20-2022,10-58-58,72,depth_duration_stimuli/000436_2014-06-09_22-25-11_260595134347_rgbf000137-resize_1/000436_2014-06-09_22-25-11_260595134347_rgbf000137-resize_1-target.png,250,4.0705,5,1721,249,meters,jsons/v1_VE250_randls_69_rotated.json,582502,742022,48,Man
72,605251,DepthScenes,duration_manipulation_targetAtFixation,jsons/v1_VE250_randls_69_rotated.json,http://54.235.29.9/FacialAge/BNav_EC2/DepthDuration/v2_depth_duration_MTurk/v2_DepthDuration_HTML.html#87,87,1440,789,1440,900,8-20-2022,10-58-58,73,depth_duration_stimuli/001136_2014-06-17_15-19-41_260595134347_rgbf000076-resize_3/001136_2014-06-17_15-19-41_260595134347_rgbf000076-resize_3-target.png,250,1.8655,8,1778,250,meters,jsons/v1_VE250_randls_69_rotated.json,582502,742022,48,Man
73,605251,DepthScenes,duration_manipulation_targetAtFixation,jsons/v1_VE250_randls_69_rotated.json,http://54.235.29.9/FacialAge/BNav_EC2/DepthDuration/v2_depth_duration_MTurk/v2_DepthDuration_HTML.html#87,87,1440,789,1440,900,8-20-2022,10-58-58,74,depth_duration_stimuli/001164_2014-06-17_15-35-46_260595134347_rgbf000085-resize_3/001164_2014-06-17_15-35-46_260595134347_rgbf000085-resize_3-target.png,250,2.354,7,1916,250,meters,jsons/v1_VE250_randls_69_rotated.json,582502,742022,48,Man
74,605251,DepthScenes,duration_manipulation_targetAtFixation,jsons/v1_VE250_randls_69_rotated.json,http://54.235.29.9/FacialAge/BNav_EC2/DepthDuration/v2_depth_duration_MTurk/v2_DepthDuration_HTML.html#87,87,1440,789,1440,900,8-20-2022,10-58-58,75,depth_duration_stimuli/001650_2014-06-20_12-09-00_260595134347_rgbf000087-resize_3/001650_2014-06-20_12-09-00_260595134347_rgbf000087-resize_3-target.png,250,1.9505,6,2009,251,meters,jsons/v1_VE250_randls_69_rotated.json,582502,742022,48,Man
75,605251,DepthScenes,duration_manipulation_targetAtFixation,jsons/v1_VE250_randls_69_rotated.json,http://54.235.29.9/FacialAge/BNav_EC2/DepthDuration/v2_depth_duration_MTurk/v2_DepthDuration_HTML.html#87,87,1440,789,1440,900,8-20-2022,10-58-58,76,depth_duration_stimuli/000682_2014-06-08_23-14-58_260595134347_rgbf000041-resize_5/000682_2014-06-08_23-14-58_260595134347_rgbf000041-resize_5-target.png,250,2.7239999999999998,4,4227,250,meters,jsons/v1_VE250_randls_69_rotated.json,582502,742022,48,Man
76,605251,DepthScenes,duration_manipulation_targetAtFixation,jsons/v1_VE250_randls_69_rotated.json,http://54.235.29.9/FacialAge/BNav_EC2/DepthDuration/v2_depth_duration_MTurk/v2_DepthDuration_HTML.html#87,87,1440,789,1440,900,8-20-2022,10-58-58,77,depth_duration_stimuli/000549_2014-06-08_22-10-24_260595134347_rgbf000247-resize_3/000549_2014-06-08_22-10-24_260595134347_rgbf000247-resize_3-target.png,250,1.841,5,1857,250,meters,jsons/v1_VE250_randls_69_rotated.json,582502,742022,48,Man
77,605251,DepthScenes,duration_manipulation_targetAtFixation,jsons/v1_VE250_randls_69_rotated.json,http://54.235.29.9/FacialAge/BNav_EC2/DepthDuration/v2_depth_duration_MTurk/v2_DepthDuration_HTML.html#87,87,1440,789,1440,900,8-20-2022,10-58-58,78,depth_duration_stimuli/001055_2014-06-08_18-45-35_260595134347_rgbf000111-resize_4/001055_2014-06-08_18-45-35_260595134347_rgbf000111-resize_4-target.png,250,2.4290000000000003,4,1859,249,meters,jsons/v1_VE250_randls_69_rotated.json,582502,742022,48,Man
78,605251,DepthScenes,duration_manipulation_targetAtFixation,jsons/v1_VE250_randls_69_rotated.json,http://54.235.29.9/FacialAge/BNav_EC2/DepthDuration/v2_depth_duration_MTurk/v2_DepthDuration_HTML.html#87,87,1440,789,1440,900,8-20-2022,10-58-58,79,depth_duration_stimuli/002209_2014-06-28_18-36-10_260595134347_rgbf000051-resize_1/002209_2014-06-28_18-36-10_260595134347_rgbf000051-resize_1-target.png,250,2.057,6,1737,249,meters,jsons/v1_VE250_randls_69_rotated.json,582502,742022,48,Man
79,605251,DepthScenes,duration_manipulation_targetAtFixation,jsons/v1_VE250_randls_69_rotated.json,http://54.235.29.9/FacialAge/BNav_EC2/DepthDuration/v2_depth_duration_MTurk/v2_DepthDuration_HTML.html#87,87,1440,789,1440,900,8-20-2022,10-58-58,80,depth_duration_stimuli/002763_2014-06-22_19-13-10_094959634447_rgbf000075-resize_4/002763_2014-06-22_19-13-10_094959634447_rgbf000075-resize_4-target.png,250,1.68375,8,1840,250,meters,jsons/v1_VE250_randls_69_rotated.json,582502,742022,48,Man
80,605251,DepthScenes,duration_manipulation_targetAtFixation,jsons/v1_VE250_randls_69_rotated.json,http://54.235.29.9/FacialAge/BNav_EC2/DepthDuration/v2_depth_duration_MTurk/v2_DepthDuration_HTML.html#87,87,1440,789,1440,900,8-20-2022,10-58-58,81,depth_duration_stimuli/001032_2014-06-08_13-23-17_260595134347_rgbf000021-resize_3/001032_2014-06-08_13-23-17_260595134347_rgbf000021-resize_3-target.png,250,3.2725,5,1842,249,meters,jsons/v1_VE250_randls_69_rotated.json,582502,742022,48,Man
81,605251,DepthScenes,duration_manipulation_targetAtFixation,jsons/v1_VE250_randls_69_rotated.json,http://54.235.29.9/FacialAge/BNav_EC2/DepthDuration/v2_depth_duration_MTurk/v2_DepthDuration_HTML.html#87,87,1440,789,1440,900,8-20-2022,10-58-58,82,depth_duration_stimuli/001059_2014-06-08_21-53-27_260595134347_rgbf000061-resize_4/001059_2014-06-08_21-53-27_260595134347_rgbf000061-resize_4-target.png,250,2.4185,4,1875,249,meters,jsons/v1_VE250_randls_69_rotated.json,582502,742022,48,Man
82,605251,DepthScenes,duration_manipulation_targetAtFixation,jsons/v1_VE250_randls_69_rotated.json,http://54.235.29.9/FacialAge/BNav_EC2/DepthDuration/v2_depth_duration_MTurk/v2_DepthDuration_HTML.html#87,87,1440,789,1440,900,8-20-2022,10-58-58,83,depth_duration_stimuli/000734_2014-06-08_17-39-11_260595134347_rgbf000128-resize_2/000734_2014-06-08_17-39-11_260595134347_rgbf000128-resize_2-target.png,250,4.098,6,1806,251,meters,jsons/v1_VE250_randls_69_rotated.json,582502,742022,48,Man
83,605251,DepthScenes,duration_manipulation_targetAtFixation,jsons/v1_VE250_randls_69_rotated.json,http://54.235.29.9/FacialAge/BNav_EC2/DepthDuration/v2_depth_duration_MTurk/v2_DepthDuration_HTML.html#87,87,1440,789,1440,900,8-20-2022,10-58-58,84,depth_duration_stimuli/000739_2014-06-08_18-45-58_260595134347_rgbf000068-resize_1/000739_2014-06-08_18-45-58_260595134347_rgbf000068-resize_1-target.png,250,3.534,5,1907,249,meters,jsons/v1_VE250_randls_69_rotated.json,582502,742022,48,Man
84,605251,DepthScenes,duration_manipulation_targetAtFixation,jsons/v1_VE250_randls_69_rotated.json,http://54.235.29.9/FacialAge/BNav_EC2/DepthDuration/v2_depth_duration_MTurk/v2_DepthDuration_HTML.html#87,87,1440,789,1440,900,8-20-2022,10-58-58,85,depth_duration_stimuli/002199_2014-06-28_18-33-56_260595134347_rgbf000074-resize_0/002199_2014-06-28_18-33-56_260595134347_rgbf000074-resize_0-target.png,250,1.996,4,1881,250,meters,jsons/v1_VE250_randls_69_rotated.json,582502,742022,48,Man
85,605251,DepthScenes,duration_manipulation_targetAtFixation,jsons/v1_VE250_randls_69_rotated.json,http://54.235.29.9/FacialAge/BNav_EC2/DepthDuration/v2_depth_duration_MTurk/v2_DepthDuration_HTML.html#87,87,1440,789,1440,900,8-20-2022,10-58-58,86,depth_duration_stimuli/001056_2014-06-08_18-46-44_260595134347_rgbf000068-resize_0/001056_2014-06-08_18-46-44_260595134347_rgbf000068-resize_0-target.png,250,2.6625,7,1939,250,meters,jsons/v1_VE250_randls_69_rotated.json,582502,742022,48,Man
86,605251,DepthScenes,duration_manipulation_targetAtFixation,jsons/v1_VE250_randls_69_rotated.json,http://54.235.29.9/FacialAge/BNav_EC2/DepthDuration/v2_depth_duration_MTurk/v2_DepthDuration_HTML.html#87,87,1440,789,1440,900,8-20-2022,10-58-58,87,depth_duration_stimuli/003490_2014-05-21_15-50-11_094959634447_rgbf000101-resize_3/003490_2014-05-21_15-50-11_094959634447_rgbf000101-resize_3-target.png,250,3.6445,8,1865,250,meters,jsons/v1_VE250_randls_69_rotated.json,582502,742022,48,Man
87,605251,DepthScenes,duration_manipulation_targetAtFixation,jsons/v1_VE250_randls_69_rotated.json,http://54.235.29.9/FacialAge/BNav_EC2/DepthDuration/v2_depth_duration_MTurk/v2_DepthDuration_HTML.html#87,87,1440,789,1440,900,8-20-2022,10-58-58,88,depth_duration_stimuli/001175_2014-06-17_15-45-55_260595134347_rgbf000129-resize_4/001175_2014-06-17_15-45-55_260595134347_rgbf000129-resize_4-target.png,250,4.255,5,1850,250,meters,jsons/v1_VE250_randls_69_rotated.json,582502,742022,48,Man
88,605251,DepthScenes,duration_manipulation_targetAtFixation,jsons/v1_VE250_randls_69_rotated.json,http://54.235.29.9/FacialAge/BNav_EC2/DepthDuration/v2_depth_duration_MTurk/v2_DepthDuration_HTML.html#87,87,1440,789,1440,900,8-20-2022,10-58-58,89,depth_duration_stimuli/002657_2014-06-13_15-29-54_094959634447_rgbf000150-resize_1/002657_2014-06-13_15-29-54_094959634447_rgbf000150-resize_1-target.png,250,4.919,4,2010,249,meters,jsons/v1_VE250_randls_69_rotated.json,582502,742022,48,Man
89,605251,DepthScenes,duration_manipulation_targetAtFixation,jsons/v1_VE250_randls_69_rotated.json,http://54.235.29.9/FacialAge/BNav_EC2/DepthDuration/v2_depth_duration_MTurk/v2_DepthDuration_HTML.html#87,87,1440,789,1440,900,8-20-2022,10-58-58,90,depth_duration_stimuli/002375_2014-06-28_20-13-44_260595134347_rgbf000032-resize_1/002375_2014-06-28_20-13-44_260595134347_rgbf000032-resize_1-target.png,250,4.0175,6,2164,249,meters,jsons/v1_VE250_randls_69_rotated.json,582502,742022,48,Man
90,605251,DepthScenes,duration_manipulation_targetAtFixation,jsons/v1_VE250_randls_69_rotated.json,http://54.235.29.9/FacialAge/BNav_EC2/DepthDuration/v2_depth_duration_MTurk/v2_DepthDuration_HTML.html#87,87,1440,789,1440,900,8-20-2022,10-58-58,91,depth_duration_stimuli/002425_2014-06-28_20-27-29_260595134347_rgbf000031-resize_8/002425_2014-06-28_20-27-29_260595134347_rgbf000031-resize_8-target.png,250,3.8960000000000004,5,1961,248,meters,jsons/v1_VE250_randls_69_rotated.json,582502,742022,48,Man
91,605251,DepthScenes,duration_manipulation_targetAtFixation,jsons/v1_VE250_randls_69_rotated.json,http://54.235.29.9/FacialAge/BNav_EC2/DepthDuration/v2_depth_duration_MTurk/v2_DepthDuration_HTML.html#87,87,1440,789,1440,900,8-20-2022,10-58-58,92,depth_duration_stimuli/000642_2014-06-08_16-59-25_260595134347_rgbf000098-resize_2/000642_2014-06-08_16-59-25_260595134347_rgbf000098-resize_2-target.png,250,2.8815,4,1993,250,meters,jsons/v1_VE250_randls_69_rotated.json,582502,742022,48,Man
92,605251,DepthScenes,duration_manipulation_targetAtFixation,jsons/v1_VE250_randls_69_rotated.json,http://54.235.29.9/FacialAge/BNav_EC2/DepthDuration/v2_depth_duration_MTurk/v2_DepthDuration_HTML.html#87,87,1440,789,1440,900,8-20-2022,10-58-58,93,depth_duration_stimuli/001450_2014-06-19_17-02-03_260595134347_rgbf000203-resize_4/001450_2014-06-19_17-02-03_260595134347_rgbf000203-resize_4-target.png,250,4.0106666666667,5,2003,250,meters,jsons/v1_VE250_randls_69_rotated.json,582502,742022,48,Man
93,605251,DepthScenes,duration_manipulation_targetAtFixation,jsons/v1_VE250_randls_69_rotated.json,http://54.235.29.9/FacialAge/BNav_EC2/DepthDuration/v2_depth_duration_MTurk/v2_DepthDuration_HTML.html#87,87,1440,789,1440,900,8-20-2022,10-58-58,94,depth_duration_stimuli/001449_2014-06-19_17-01-27_260595134347_rgbf000116-resize_2/001449_2014-06-19_17-01-27_260595134347_rgbf000116-resize_2-target.png,250,3.452,6,2224,250,meters,jsons/v1_VE250_randls_69_rotated.json,582502,742022,48,Man
94,605251,DepthScenes,duration_manipulation_targetAtFixation,jsons/v1_VE250_randls_69_rotated.json,http://54.235.29.9/FacialAge/BNav_EC2/DepthDuration/v2_depth_duration_MTurk/v2_DepthDuration_HTML.html#87,87,1440,789,1440,900,8-20-2022,10-58-58,95,depth_duration_stimuli/000709_2014-06-08_13-51-55_260595134347_rgbf000068-resize_3/000709_2014-06-08_13-51-55_260595134347_rgbf000068-resize_3-target.png,250,1.8030000000000002,2,1835,249,meters,jsons/v1_VE250_randls_69_rotated.json,582502,742022,48,Man
95,605251,DepthScenes,duration_manipulation_targetAtFixation,jsons/v1_VE250_randls_69_rotated.json,http://54.235.29.9/FacialAge/BNav_EC2/DepthDuration/v2_depth_duration_MTurk/v2_DepthDuration_HTML.html#87,87,1440,789,1440,900,8-20-2022,10-58-58,96,depth_duration_stimuli/002057_2014-06-24_21-00-13_260595134347_rgbf000120-resize_1/002057_2014-06-24_21-00-13_260595134347_rgbf000120-resize_1-target.png,250,2.967,5,1923,250,meters,jsons/v1_VE250_randls_69_rotated.json,582502,742022,48,Man
96,605251,DepthScenes,duration_manipulation_targetAtFixation,jsons/v1_VE250_randls_69_rotated.json,http://54.235.29.9/FacialAge/BNav_EC2/DepthDuration/v2_depth_duration_MTurk/v2_DepthDuration_HTML.html#87,87,1440,789,1440,900,8-20-2022,10-58-58,97,depth_duration_stimuli/002949_2014-06-26_15-57-42_094959634447_rgbf000079-resize_1/002949_2014-06-26_15-57-42_094959634447_rgbf000079-resize_1-target.png,250,1.8915,4,1786,248,meters,jsons/v1_VE250_randls_69_rotated.json,582502,742022,48,Man
97,605251,DepthScenes,duration_manipulation_targetAtFixation,jsons/v1_VE250_randls_69_rotated.json,http://54.235.29.9/FacialAge/BNav_EC2/DepthDuration/v2_depth_duration_MTurk/v2_DepthDuration_HTML.html#87,87,1440,789,1440,900,8-20-2022,10-58-58,98,depth_duration_stimuli/000522_2014-06-08_13-35-06_260595134347_rgbf000244-resize_1/000522_2014-06-08_13-35-06_260595134347_rgbf000244-resize_1-target.png,250,2.3715,3,1930,250,meters,jsons/v1_VE250_randls_69_rotated.json,582502,742022,48,Man
98,605251,DepthScenes,duration_manipulation_targetAtFixation,jsons/v1_VE250_randls_69_rotated.json,http://54.235.29.9/FacialAge/BNav_EC2/DepthDuration/v2_depth_duration_MTurk/v2_DepthDuration_HTML.html#87,87,1440,789,1440,900,8-20-2022,10-58-58,99,depth_duration_stimuli/001222_2014-06-17_16-24-06_260595134347_rgbf000073-resize_0/001222_2014-06-17_16-24-06_260595134347_rgbf000073-resize-original.jpg,250,1.4385,0,2018,251,meters,jsons/v1_VE250_randls_69_rotated.json,582502,742022,48,Man
99,605251,DepthScenes,duration_manipulation_targetAtFixation,jsons/v1_VE250_randls_69_rotated.json,http://54.235.29.9/FacialAge/BNav_EC2/DepthDuration/v2_depth_duration_MTurk/v2_DepthDuration_HTML.html#87,87,1440,789,1440,900,8-20-2022,10-58-58,100,depth_duration_stimuli/001235_2014-06-17_16-37-36_260595134347_rgbf000084-resize_4/001235_2014-06-17_16-37-36_260595134347_rgbf000084-resize_4-target.png,250,3.6605,5,2178,248,meters,jsons/v1_VE250_randls_69_rotated.json,582502,742022,48,Man
100,605251,DepthScenes,duration_manipulation_targetAtFixation,jsons/v1_VE250_randls_69_rotated.json,http://54.235.29.9/FacialAge/BNav_EC2/DepthDuration/v2_depth_duration_MTurk/v2_DepthDuration_HTML.html#87,87,1440,789,1440,900,8-20-2022,10-58-58,101,depth_duration_stimuli/000788_2014-06-08_22-34-36_260595134347_rgbf000131-resize_1/000788_2014-06-08_22-34-36_260595134347_rgbf000131-resize_1-target.png,250,3.359,4,1954,249,meters,jsons/v1_VE250_randls_69_rotated.json,582502,742022,48,Man
101,605251,DepthScenes,duration_manipulation_targetAtFixation,jsons/v1_VE250_randls_69_rotated.json,http://54.235.29.9/FacialAge/BNav_EC2/DepthDuration/v2_depth_duration_MTurk/v2_DepthDuration_HTML.html#87,87,1440,789,1440,900,8-20-2022,10-58-58,102,depth_duration_stimuli/000191_2014-05-12_17-07-38_260595134347_rgbf000199-resize_0/000191_2014-05-12_17-07-38_260595134347_rgbf000199-resize_0-target.png,250,3.7995,6,2203,249,meters,jsons/v1_VE250_randls_69_rotated.json,582502,742022,48,Man
102,605251,DepthScenes,duration_manipulation_targetAtFixation,jsons/v1_VE250_randls_69_rotated.json,http://54.235.29.9/FacialAge/BNav_EC2/DepthDuration/v2_depth_duration_MTurk/v2_DepthDuration_HTML.html#87,87,1440,789,1440,900,8-20-2022,10-58-58,103,depth_duration_stimuli/000493_2014-06-09_21-01-18_260595134347_rgbf000196-resize_3/000493_2014-06-09_21-01-18_260595134347_rgbf000196-resize_3-target.png,250,3.44,7,2369,249,meters,jsons/v1_VE250_randls_69_rotated.json,582502,742022,48,Man
103,605251,DepthScenes,duration_manipulation_targetAtFixation,jsons/v1_VE250_randls_69_rotated.json,http://54.235.29.9/FacialAge/BNav_EC2/DepthDuration/v2_depth_duration_MTurk/v2_DepthDuration_HTML.html#87,87,1440,789,1440,900,8-20-2022,10-58-58,104,depth_duration_stimuli/000742_2014-06-08_18-48-09_260595134347_rgbf000164-resize_4/000742_2014-06-08_18-48-09_260595134347_rgbf000164-resize_4-target.png,250,4.632,5,1889,251,meters,jsons/v1_VE250_randls_69_rotated.json,582502,742022,48,Man
104,605251,DepthScenes,duration_manipulation_targetAtFixation,jsons/v1_VE250_randls_69_rotated.json,http://54.235.29.9/FacialAge/BNav_EC2/DepthDuration/v2_depth_duration_MTurk/v2_DepthDuration_HTML.html#87,87,1440,789,1440,900,8-20-2022,10-58-58,105,depth_duration_stimuli/001066_2014-06-08_22-03-20_260595134347_rgbf000066-resize_4/001066_2014-06-08_22-03-20_260595134347_rgbf000066-resize_4-target.png,250,4.2330000000000005,7,1844,248,meters,jsons/v1_VE250_randls_69_rotated.json,582502,742022,48,Man
105,605251,DepthScenes,duration_manipulation_targetAtFixation,jsons/v1_VE250_randls_69_rotated.json,http://54.235.29.9/FacialAge/BNav_EC2/DepthDuration/v2_depth_duration_MTurk/v2_DepthDuration_HTML.html#87,87,1440,789,1440,900,8-20-2022,10-58-58,106,depth_duration_stimuli/000677_2014-06-08_23-10-32_260595134347_rgbf000158-resize_6/000677_2014-06-08_23-10-32_260595134347_rgbf000158-resize_6-target.png,250,3.556,8,1417,251,meters,jsons/v1_VE250_randls_69_rotated.json,582502,742022,48,Man
106,605251,DepthScenes,duration_manipulation_targetAtFixation,jsons/v1_VE250_randls_69_rotated.json,http://54.235.29.9/FacialAge/BNav_EC2/DepthDuration/v2_depth_duration_MTurk/v2_DepthDuration_HTML.html#87,87,1440,789,1440,900,8-20-2022,10-58-58,107,depth_duration_stimuli/001029_2014-06-08_13-17-57_260595134347_rgbf000065-resize_1/001029_2014-06-08_13-17-57_260595134347_rgbf000065-resize_1-target.png,250,3.0835,4,2107,249,meters,jsons/v1_VE250_randls_69_rotated.json,582502,742022,48,Man
107,605251,DepthScenes,duration_manipulation_targetAtFixation,jsons/v1_VE250_randls_69_rotated.json,http://54.235.29.9/FacialAge/BNav_EC2/DepthDuration/v2_depth_duration_MTurk/v2_DepthDuration_HTML.html#87,87,1440,789,1440,900,8-20-2022,10-58-58,108,depth_duration_stimuli/001584_2014-06-20_11-07-43_260595134347_rgbf000002-resize_1/001584_2014-06-20_11-07-43_260595134347_rgbf000002-resize_1-target.png,250,3.53,5,1803,249,meters,jsons/v1_VE250_randls_69_rotated.json,582502,742022,48,Man
108,605251,DepthScenes,duration_manipulation_targetAtFixation,jsons/v1_VE250_randls_69_rotated.json,http://54.235.29.9/FacialAge/BNav_EC2/DepthDuration/v2_depth_duration_MTurk/v2_DepthDuration_HTML.html#87,87,1440,789,1440,900,8-20-2022,10-58-58,109,depth_duration_stimuli/003621_2014-05-23_18-06-08_094959634447_rgbf000101-resize_1/003621_2014-05-23_18-06-08_094959634447_rgbf000101-resize_1-target.png,250,3.9835,6,1877,249,meters,jsons/v1_VE250_randls_69_rotated.json,582502,742022,48,Man
109,605251,DepthScenes,duration_manipulation_targetAtFixation,jsons/v1_VE250_randls_69_rotated.json,http://54.235.29.9/FacialAge/BNav_EC2/DepthDuration/v2_depth_duration_MTurk/v2_DepthDuration_HTML.html#87,87,1440,789,1440,900,8-20-2022,10-58-58,110,depth_duration_stimuli/000943_2014-06-09_19-31-07_260595134347_rgbf000128-resize_1/000943_2014-06-09_19-31-07_260595134347_rgbf000128-resize_1-target.png,250,1.9765,2,2063,250,meters,jsons/v1_VE250_randls_69_rotated.json,582502,742022,48,Man
110,605251,DepthScenes,duration_manipulation_targetAtFixation,jsons/v1_VE250_randls_69_rotated.json,http://54.235.29.9/FacialAge/BNav_EC2/DepthDuration/v2_depth_duration_MTurk/v2_DepthDuration_HTML.html#87,87,1440,789,1440,900,8-20-2022,10-58-58,111,depth_duration_stimuli/003070_2014-06-15_14-58-27_094959634447_rgbf000150-resize_3/003070_2014-06-15_14-58-27_094959634447_rgbf000150-resize_3-target.png,250,2.9415,5,1931,249,meters,jsons/v1_VE250_randls_69_rotated.json,582502,742022,48,Man
111,605251,DepthScenes,duration_manipulation_targetAtFixation,jsons/v1_VE250_randls_69_rotated.json,http://54.235.29.9/FacialAge/BNav_EC2/DepthDuration/v2_depth_duration_MTurk/v2_DepthDuration_HTML.html#87,87,1440,789,1440,900,8-20-2022,10-58-58,112,depth_duration_stimuli/002467_2014-06-28_20-38-07_260595134347_rgbf000026-resize_2/002467_2014-06-28_20-38-07_260595134347_rgbf000026-resize_2-target.png,250,4.742,4,1890,249,meters,jsons/v1_VE250_randls_69_rotated.json,582502,742022,48,Man
112,605251,DepthScenes,duration_manipulation_targetAtFixation,jsons/v1_VE250_randls_69_rotated.json,http://54.235.29.9/FacialAge/BNav_EC2/DepthDuration/v2_depth_duration_MTurk/v2_DepthDuration_HTML.html#87,87,1440,789,1440,900,8-20-2022,10-58-58,113,depth_duration_stimuli/002570_2014-06-24_13-59-54_094959634447_rgbf000059-resize_0/002570_2014-06-24_13-59-54_094959634447_rgbf000059-resize_0-target.png,250,4.037,5,2019,249,meters,jsons/v1_VE250_randls_69_rotated.json,582502,742022,48,Man
113,605251,DepthScenes,duration_manipulation_targetAtFixation,jsons/v1_VE250_randls_69_rotated.json,http://54.235.29.9/FacialAge/BNav_EC2/DepthDuration/v2_depth_duration_MTurk/v2_DepthDuration_HTML.html#87,87,1440,789,1440,900,8-20-2022,10-58-58,114,depth_duration_stimuli/001100_2014-06-15_17-46-26_260595134347_rgbf000225-resize_2/001100_2014-06-15_17-46-26_260595134347_rgbf000225-resize_2-target.png,250,2.24,8,1955,250,meters,jsons/v1_VE250_randls_69_rotated.json,582502,742022,48,Man
114,605251,DepthScenes,duration_manipulation_targetAtFixation,jsons/v1_VE250_randls_69_rotated.json,http://54.235.29.9/FacialAge/BNav_EC2/DepthDuration/v2_depth_duration_MTurk/v2_DepthDuration_HTML.html#87,87,1440,789,1440,900,8-20-2022,10-58-58,115,depth_duration_stimuli/002784_2014-06-22_19-26-30_094959634447_rgbf000083-resize_3/002784_2014-06-22_19-26-30_094959634447_rgbf000083-resize_3-target.png,250,1.8046666666667,7,2002,250,meters,jsons/v1_VE250_randls_69_rotated.json,582502,742022,48,Man
115,605251,DepthScenes,duration_manipulation_targetAtFixation,jsons/v1_VE250_randls_69_rotated.json,http://54.235.29.9/FacialAge/BNav_EC2/DepthDuration/v2_depth_duration_MTurk/v2_DepthDuration_HTML.html#87,87,1440,789,1440,900,8-20-2022,10-58-58,116,depth_duration_stimuli/001094_2014-06-15_17-36-00_260595134347_rgbf000205-resize_0/001094_2014-06-15_17-36-00_260595134347_rgbf000205-resize_0-target.png,250,4.2175,9,2581,249,meters,jsons/v1_VE250_randls_69_rotated.json,582502,742022,48,Man
116,605251,DepthScenes,duration_manipulation_targetAtFixation,jsons/v1_VE250_randls_69_rotated.json,http://54.235.29.9/FacialAge/BNav_EC2/DepthDuration/v2_depth_duration_MTurk/v2_DepthDuration_HTML.html#87,87,1440,789,1440,900,8-20-2022,10-58-58,117,depth_duration_stimuli/000692_2014-06-08_13-09-42_260595134347_rgbf000199-resize_2/000692_2014-06-08_13-09-42_260595134347_rgbf000199-resize_2-target.png,250,3.661,9,3326,249,meters,jsons/v1_VE250_randls_69_rotated.json,582502,742022,48,Man
117,605251,DepthScenes,duration_manipulation_targetAtFixation,jsons/v1_VE250_randls_69_rotated.json,http://54.235.29.9/FacialAge/BNav_EC2/DepthDuration/v2_depth_duration_MTurk/v2_DepthDuration_HTML.html#87,87,1440,789,1440,900,8-20-2022,10-58-58,118,depth_duration_stimuli/002758_2014-06-22_19-11-20_094959634447_rgbf000128-resize_1/002758_2014-06-22_19-11-20_094959634447_rgbf000128-resize_1-target.png,250,2.555,53,8740,250,meters,jsons/v1_VE250_randls_69_rotated.json,582502,742022,48,Man
118,605251,DepthScenes,duration_manipulation_targetAtFixation,jsons/v1_VE250_randls_69_rotated.json,http://54.235.29.9/FacialAge/BNav_EC2/DepthDuration/v2_depth_duration_MTurk/v2_DepthDuration_HTML.html#87,87,1440,789,1440,900,8-20-2022,10-58-58,119,depth_duration_stimuli/002630_2014-06-24_14-47-50_094959634447_rgbf000055-resize_1/002630_2014-06-24_14-47-50_094959634447_rgbf000055-resize_1-target.png,250,3.0095,4,2576,247,meters,jsons/v1_VE250_randls_69_rotated.json,582502,742022,48,Man
119,605251,DepthScenes,duration_manipulation_targetAtFixation,jsons/v1_VE250_randls_69_rotated.json,http://54.235.29.9/FacialAge/BNav_EC2/DepthDuration/v2_depth_duration_MTurk/v2_DepthDuration_HTML.html#87,87,1440,789,1440,900,8-20-2022,10-58-58,120,depth_duration_stimuli/000787_2014-06-08_22-33-53_260595134347_rgbf000175-resize_1/000787_2014-06-08_22-33-53_260595134347_rgbf000175-resize-original.jpg,250,4.784,5,2234,249,meters,jsons/v1_VE250_randls_69_rotated.json,582502,742022,48,Man
120,605251,DepthScenes,duration_manipulation_targetAtFixation,jsons/v1_VE250_randls_69_rotated.json,http://54.235.29.9/FacialAge/BNav_EC2/DepthDuration/v2_depth_duration_MTurk/v2_DepthDuration_HTML.html#87,87,1440,789,1440,900,8-20-2022,10-58-58,121,depth_duration_stimuli/003083_2014-06-15_15-21-03_094959634447_rgbf000063-resize_1/003083_2014-06-15_15-21-03_094959634447_rgbf000063-resize_1-target.png,250,4.1405,7,1908,249,meters,jsons/v1_VE250_randls_69_rotated.json,582502,742022,48,Man
121,605251,DepthScenes,duration_manipulation_targetAtFixation,jsons/v1_VE250_randls_69_rotated.json,http://54.235.29.9/FacialAge/BNav_EC2/DepthDuration/v2_depth_duration_MTurk/v2_DepthDuration_HTML.html#87,87,1440,789,1440,900,8-20-2022,10-58-58,122,depth_duration_stimuli/000486_2014-06-09_20-47-20_260595134347_rgbf000143-resize_2/000486_2014-06-09_20-47-20_260595134347_rgbf000143-resize_2-target.png,250,4.8325,9,1993,250,meters,jsons/v1_VE250_randls_69_rotated.json,582502,742022,48,Man
122,605251,DepthScenes,duration_manipulation_targetAtFixation,jsons/v1_VE250_randls_69_rotated.json,http://54.235.29.9/FacialAge/BNav_EC2/DepthDuration/v2_depth_duration_MTurk/v2_DepthDuration_HTML.html#87,87,1440,789,1440,900,8-20-2022,10-58-58,123,depth_duration_stimuli/002805_2014-06-22_19-54-03_094959634447_rgbf000079-resize_1/002805_2014-06-22_19-54-03_094959634447_rgbf000079-resize_1-target.png,250,3.1439999999999997,0,2249,250,meters,jsons/v1_VE250_randls_69_rotated.json,582502,742022,48,Man
123,605251,DepthScenes,duration_manipulation_targetAtFixation,jsons/v1_VE250_randls_69_rotated.json,http://54.235.29.9/FacialAge/BNav_EC2/DepthDuration/v2_depth_duration_MTurk/v2_DepthDuration_HTML.html#87,87,1440,789,1440,900,8-20-2022,10-58-58,124,depth_duration_stimuli/000906_2014-06-08_13-35-43_260595134347_rgbf000155-resize_1/000906_2014-06-08_13-35-43_260595134347_rgbf000155-resize_1-target.png,250,2.8489999999999998,5,2075,251,meters,jsons/v1_VE250_randls_69_rotated.json,582502,742022,48,Man
124,605251,DepthScenes,duration_manipulation_targetAtFixation,jsons/v1_VE250_randls_69_rotated.json,http://54.235.29.9/FacialAge/BNav_EC2/DepthDuration/v2_depth_duration_MTurk/v2_DepthDuration_HTML.html#87,87,1440,789,1440,900,8-20-2022,10-58-58,125,depth_duration_stimuli/001571_2014-06-20_17-21-32_260595134347_rgbf000089-resize_1/001571_2014-06-20_17-21-32_260595134347_rgbf000089-resize_1-target.png,250,1.86,4,1882,249,meters,jsons/v1_VE250_randls_69_rotated.json,582502,742022,48,Man
125,605251,DepthScenes,duration_manipulation_targetAtFixation,jsons/v1_VE250_randls_69_rotated.json,http://54.235.29.9/FacialAge/BNav_EC2/DepthDuration/v2_depth_duration_MTurk/v2_DepthDuration_HTML.html#87,87,1440,789,1440,900,8-20-2022,10-58-58,126,depth_duration_stimuli/002272_2014-06-28_18-53-56_260595134347_rgbf000067-resize_2/002272_2014-06-28_18-53-56_260595134347_rgbf000067-resize_2-target.png,250,1.138,6,1858,248,meters,jsons/v1_VE250_randls_69_rotated.json,582502,742022,48,Man
126,605251,DepthScenes,duration_manipulation_targetAtFixation,jsons/v1_VE250_randls_69_rotated.json,http://54.235.29.9/FacialAge/BNav_EC2/DepthDuration/v2_depth_duration_MTurk/v2_DepthDuration_HTML.html#87,87,1440,789,1440,900,8-20-2022,10-58-58,127,depth_duration_stimuli/000866_2014-06-09_20-45-42_260595134347_rgbf000139-resize_1/000866_2014-06-09_20-45-42_260595134347_rgbf000139-resize_1-target.png,250,3.2155,2,1770,249,meters,jsons/v1_VE250_randls_69_rotated.json,582502,742022,48,Man
127,605251,DepthScenes,duration_manipulation_targetAtFixation,jsons/v1_VE250_randls_69_rotated.json,http://54.235.29.9/FacialAge/BNav_EC2/DepthDuration/v2_depth_duration_MTurk/v2_DepthDuration_HTML.html#87,87,1440,789,1440,900,8-20-2022,10-58-58,128,depth_duration_stimuli/002989_2014-06-15_12-25-03_094959634447_rgbf000150-resize_3/002989_2014-06-15_12-25-03_094959634447_rgbf000150-resize_3-target.png,250,4.1975,5,1818,250,meters,jsons/v1_VE250_randls_69_rotated.json,582502,742022,48,Man
128,605251,DepthScenes,duration_manipulation_targetAtFixation,jsons/v1_VE250_randls_69_rotated.json,http://54.235.29.9/FacialAge/BNav_EC2/DepthDuration/v2_depth_duration_MTurk/v2_DepthDuration_HTML.html#87,87,1440,789,1440,900,8-20-2022,10-58-58,129,depth_duration_stimuli/001052_2014-06-08_18-24-54_260595134347_rgbf000130-resize_1/001052_2014-06-08_18-24-54_260595134347_rgbf000130-resize_1-target.png,250,4.1045,3,2060,250,meters,jsons/v1_VE250_randls_69_rotated.json,582502,742022,48,Man
129,605251,DepthScenes,duration_manipulation_targetAtFixation,jsons/v1_VE250_randls_69_rotated.json,http://54.235.29.9/FacialAge/BNav_EC2/DepthDuration/v2_depth_duration_MTurk/v2_DepthDuration_HTML.html#87,87,1440,789,1440,900,8-20-2022,10-58-58,130,depth_duration_stimuli/002988_2014-06-15_12-24-20_094959634447_rgbf000150-resize_1/002988_2014-06-15_12-24-20_094959634447_rgbf000150-resize_1-target.png,250,4.7669999999999995,6,1841,250,meters,jsons/v1_VE250_randls_69_rotated.json,582502,742022,48,Man
130,605251,DepthScenes,duration_manipulation_targetAtFixation,jsons/v1_VE250_randls_69_rotated.json,http://54.235.29.9/FacialAge/BNav_EC2/DepthDuration/v2_depth_duration_MTurk/v2_DepthDuration_HTML.html#87,87,1440,789,1440,900,8-20-2022,10-58-58,131,depth_duration_stimuli/003495_2014-05-21_16-01-51_094959634447_rgbf000100-resize_3/003495_2014-05-21_16-01-51_094959634447_rgbf000100-resize_3-target.png,250,1.6255,6,3396,250,meters,jsons/v1_VE250_randls_69_rotated.json,582502,742022,48,Man
131,605251,DepthScenes,duration_manipulation_targetAtFixation,jsons/v1_VE250_randls_69_rotated.json,http://54.235.29.9/FacialAge/BNav_EC2/DepthDuration/v2_depth_duration_MTurk/v2_DepthDuration_HTML.html#87,87,1440,789,1440,900,8-20-2022,10-58-58,132,depth_duration_stimuli/001244_2014-06-17_16-47-45_260595134347_rgbf000030-resize_4/001244_2014-06-17_16-47-45_260595134347_rgbf000030-resize_4-target.png,250,2.0425,8,1969,249,meters,jsons/v1_VE250_randls_69_rotated.json,582502,742022,48,Man
132,605251,DepthScenes,duration_manipulation_targetAtFixation,jsons/v1_VE250_randls_69_rotated.json,http://54.235.29.9/FacialAge/BNav_EC2/DepthDuration/v2_depth_duration_MTurk/v2_DepthDuration_HTML.html#87,87,1440,789,1440,900,8-20-2022,10-58-58,133,depth_duration_stimuli/002136_2014-06-25_21-18-03_260595134347_rgbf000109-resize_3/002136_2014-06-25_21-18-03_260595134347_rgbf000109-resize_3-target.png,250,1.9569999999999999,4,1899,250,meters,jsons/v1_VE250_randls_69_rotated.json,582502,742022,48,Man
133,605251,DepthScenes,duration_manipulation_targetAtFixation,jsons/v1_VE250_randls_69_rotated.json,http://54.235.29.9/FacialAge/BNav_EC2/DepthDuration/v2_depth_duration_MTurk/v2_DepthDuration_HTML.html#87,87,1440,789,1440,900,8-20-2022,10-58-58,134,depth_duration_stimuli/002964_2014-06-08_17-46-11_094959634447_rgbf000091-resize_4/002964_2014-06-08_17-46-11_094959634447_rgbf000091-resize_4-target.png,250,1.6909999999999998,2,2245,250,meters,jsons/v1_VE250_randls_69_rotated.json,582502,742022,48,Man
134,605251,DepthScenes,duration_manipulation_targetAtFixation,jsons/v1_VE250_randls_69_rotated.json,http://54.235.29.9/FacialAge/BNav_EC2/DepthDuration/v2_depth_duration_MTurk/v2_DepthDuration_HTML.html#87,87,1440,789,1440,900,8-20-2022,10-58-58,135,depth_duration_stimuli/000375_2014-06-08_11-17-29_260595134347_rgbf000133-resize_2/000375_2014-06-08_11-17-29_260595134347_rgbf000133-resize-original.jpg,250,4.718,0,2656,250,meters,jsons/v1_VE250_randls_69_rotated.json,582502,742022,48,Man
135,605251,DepthScenes,duration_manipulation_targetAtFixation,jsons/v1_VE250_randls_69_rotated.json,http://54.235.29.9/FacialAge/BNav_EC2/DepthDuration/v2_depth_duration_MTurk/v2_DepthDuration_HTML.html#87,87,1440,789,1440,900,8-20-2022,10-58-58,136,depth_duration_stimuli/002660_2014-06-13_15-44-18_094959634447_rgbf001878-resize_2/002660_2014-06-13_15-44-18_094959634447_rgbf001878-resize_2-target.png,250,3.576,45,2156,250,meters,jsons/v1_VE250_randls_69_rotated.json,582502,742022,48,Man
136,605251,DepthScenes,duration_manipulation_targetAtFixation,jsons/v1_VE250_randls_69_rotated.json,http://54.235.29.9/FacialAge/BNav_EC2/DepthDuration/v2_depth_duration_MTurk/v2_DepthDuration_HTML.html#87,87,1440,789,1440,900,8-20-2022,10-58-58,137,depth_duration_stimuli/002153_2014-06-25_21-27-18_260595134347_rgbf000038-resize_5/002153_2014-06-25_21-27-18_260595134347_rgbf000038-resize_5-target.png,250,2.505,6,2607,250,meters,jsons/v1_VE250_randls_69_rotated.json,582502,742022,48,Man
137,605251,DepthScenes,duration_manipulation_targetAtFixation,jsons/v1_VE250_randls_69_rotated.json,http://54.235.29.9/FacialAge/BNav_EC2/DepthDuration/v2_depth_duration_MTurk/v2_DepthDuration_HTML.html#87,87,1440,789,1440,900,8-20-2022,10-58-58,138,depth_duration_stimuli/000927_2014-06-09_16-32-30_260595134347_rgbf000123-resize_3/000927_2014-06-09_16-32-30_260595134347_rgbf000123-resize_3-target.png,250,2.6785,5,1787,250,meters,jsons/v1_VE250_randls_69_rotated.json,582502,742022,48,Man
138,605251,DepthScenes,duration_manipulation_targetAtFixation,jsons/v1_VE250_randls_69_rotated.json,http://54.235.29.9/FacialAge/BNav_EC2/DepthDuration/v2_depth_duration_MTurk/v2_DepthDuration_HTML.html#87,87,1440,789,1440,900,8-20-2022,10-58-58,139,depth_duration_stimuli/001110_2014-06-15_17-25-28_260595134347_rgbf000150-resize_1/001110_2014-06-15_17-25-28_260595134347_rgbf000150-resize_1-target.png,250,1.7115,4,1578,250,meters,jsons/v1_VE250_randls_69_rotated.json,582502,742022,48,Man
139,605251,DepthScenes,duration_manipulation_targetAtFixation,jsons/v1_VE250_randls_69_rotated.json,http://54.235.29.9/FacialAge/BNav_EC2/DepthDuration/v2_depth_duration_MTurk/v2_DepthDuration_HTML.html#87,87,1440,789,1440,900,8-20-2022,10-58-58,140,depth_duration_stimuli/001516_2014-06-20_16-25-09_260595134347_rgbf000076-resize_2/001516_2014-06-20_16-25-09_260595134347_rgbf000076-resize_2-target.png,250,1.7445,5,2170,251,meters,jsons/v1_VE250_randls_69_rotated.json,582502,742022,48,Man
140,605251,DepthScenes,duration_manipulation_targetAtFixation,jsons/v1_VE250_randls_69_rotated.json,http://54.235.29.9/FacialAge/BNav_EC2/DepthDuration/v2_depth_duration_MTurk/v2_DepthDuration_HTML.html#87,87,1440,789,1440,900,8-20-2022,10-58-58,141,depth_duration_stimuli/002118_2014-06-25_20-32-08_260595134347_rgbf000078-resize_1/002118_2014-06-25_20-32-08_260595134347_rgbf000078-resize_1-target.png,250,2.6460000000000004,5,2122,249,meters,jsons/v1_VE250_randls_69_rotated.json,582502,742022,48,Man
141,605251,DepthScenes,duration_manipulation_targetAtFixation,jsons/v1_VE250_randls_69_rotated.json,http://54.235.29.9/FacialAge/BNav_EC2/DepthDuration/v2_depth_duration_MTurk/v2_DepthDuration_HTML.html#87,87,1440,789,1440,900,8-20-2022,10-58-58,142,depth_duration_stimuli/002995_2014-06-15_12-31-26_094959634447_rgbf000150-resize_1/002995_2014-06-15_12-31-26_094959634447_rgbf000150-resize_1-target.png,250,3.8360000000000003,6,1986,249,meters,jsons/v1_VE250_randls_69_rotated.json,582502,742022,48,Man
142,605251,DepthScenes,duration_manipulation_targetAtFixation,jsons/v1_VE250_randls_69_rotated.json,http://54.235.29.9/FacialAge/BNav_EC2/DepthDuration/v2_depth_duration_MTurk/v2_DepthDuration_HTML.html#87,87,1440,789,1440,900,8-20-2022,10-58-58,143,depth_duration_stimuli/002748_2014-06-22_19-07-22_094959634447_rgbf000078-resize_1/002748_2014-06-22_19-07-22_094959634447_rgbf000078-resize_1-target.png,250,4.6705,8,1699,249,meters,jsons/v1_VE250_randls_69_rotated.json,582502,742022,48,Man
143,605251,DepthScenes,duration_manipulation_targetAtFixation,jsons/v1_VE250_randls_69_rotated.json,http://54.235.29.9/FacialAge/BNav_EC2/DepthDuration/v2_depth_duration_MTurk/v2_DepthDuration_HTML.html#87,87,1440,789,1440,900,8-20-2022,10-58-58,144,depth_duration_stimuli/000103_2014-05-14_22-01-17_260595134347_rgbf000152-resize_5/000103_2014-05-14_22-01-17_260595134347_rgbf000152-resize_5-target.png,250,1.993,5,1760,247,meters,jsons/v1_VE250_randls_69_rotated.json,582502,742022,48,Man
144,605251,DepthScenes,duration_manipulation_targetAtFixation,jsons/v1_VE250_randls_69_rotated.json,http://54.235.29.9/FacialAge/BNav_EC2/DepthDuration/v2_depth_duration_MTurk/v2_DepthDuration_HTML.html#87,87,1440,789,1440,900,8-20-2022,10-58-58,145,depth_duration_stimuli/001555_2014-06-20_17-12-10_260595134347_rgbf000065-resize_4/001555_2014-06-20_17-12-10_260595134347_rgbf000065-resize_4-target.png,250,1.633,4,2091,250,meters,jsons/v1_VE250_randls_69_rotated.json,582502,742022,48,Man
145,605251,DepthScenes,duration_manipulation_targetAtFixation,jsons/v1_VE250_randls_69_rotated.json,http://54.235.29.9/FacialAge/BNav_EC2/DepthDuration/v2_depth_duration_MTurk/v2_DepthDuration_HTML.html#87,87,1440,789,1440,900,8-20-2022,10-58-58,146,depth_duration_stimuli/000635_2014-06-08_16-38-42_260595134347_rgbf000106-resize_1/000635_2014-06-08_16-38-42_260595134347_rgbf000106-resize_1-target.png,250,2.074,5,3025,250,meters,jsons/v1_VE250_randls_69_rotated.json,582502,742022,48,Man
146,605251,DepthScenes,duration_manipulation_targetAtFixation,jsons/v1_VE250_randls_69_rotated.json,http://54.235.29.9/FacialAge/BNav_EC2/DepthDuration/v2_depth_duration_MTurk/v2_DepthDuration_HTML.html#87,87,1440,789,1440,900,8-20-2022,10-58-58,147,depth_duration_stimuli/002279_2014-06-28_18-55-32_260595134347_rgbf000040-resize_5/002279_2014-06-28_18-55-32_260595134347_rgbf000040-resize_5-target.png,250,1.5043333333333,4,1755,250,meters,jsons/v1_VE250_randls_69_rotated.json,582502,742022,48,Man
147,605251,DepthScenes,duration_manipulation_targetAtFixation,jsons/v1_VE250_randls_69_rotated.json,http://54.235.29.9/FacialAge/BNav_EC2/DepthDuration/v2_depth_duration_MTurk/v2_DepthDuration_HTML.html#87,87,1440,789,1440,900,8-20-2022,10-58-58,148,depth_duration_stimuli/001617_2014-06-20_11-35-32_260595134347_rgbf000066-resize_1/001617_2014-06-20_11-35-32_260595134347_rgbf000066-resize_1-target.png,250,3.7910000000000004,6,1667,249,meters,jsons/v1_VE250_randls_69_rotated.json,582502,742022,48,Man
148,605251,DepthScenes,duration_manipulation_targetAtFixation,jsons/v1_VE250_randls_69_rotated.json,http://54.235.29.9/FacialAge/BNav_EC2/DepthDuration/v2_depth_duration_MTurk/v2_DepthDuration_HTML.html#87,87,1440,789,1440,900,8-20-2022,10-58-58,149,depth_duration_stimuli/001806_2014-06-26_20-50-20_260595134347_rgbf000091-resize_1/001806_2014-06-26_20-50-20_260595134347_rgbf000091-resize_1-target.png,250,2.7305,5,1705,249,meters,jsons/v1_VE250_randls_69_rotated.json,582502,742022,48,Man
149,605251,DepthScenes,duration_manipulation_targetAtFixation,jsons/v1_VE250_randls_69_rotated.json,http://54.235.29.9/FacialAge/BNav_EC2/DepthDuration/v2_depth_duration_MTurk/v2_DepthDuration_HTML.html#87,87,1440,789,1440,900,8-20-2022,10-58-58,150,depth_duration_stimuli/002323_2014-06-28_20-01-54_260595134347_rgbf000051-resize_4/002323_2014-06-28_20-01-54_260595134347_rgbf000051-resize_4-target.png,250,3.7310000000000003,8,1786,248,meters,jsons/v1_VE250_randls_69_rotated.json,582502,742022,48,Man
150,605251,DepthScenes,duration_manipulation_targetAtFixation,jsons/v1_VE250_randls_69_rotated.json,http://54.235.29.9/FacialAge/BNav_EC2/DepthDuration/v2_depth_duration_MTurk/v2_DepthDuration_HTML.html#87,87,1440,789,1440,900,8-20-2022,10-58-58,151,depth_duration_stimuli/000917_2014-06-09_22-45-29_260595134347_rgbf000149-resize_3/000917_2014-06-09_22-45-29_260595134347_rgbf000149-resize_3-target.png,250,4.1865,5,1876,249,meters,jsons/v1_VE250_randls_69_rotated.json,582502,742022,48,Man
151,605251,DepthScenes,duration_manipulation_targetAtFixation,jsons/v1_VE250_randls_69_rotated.json,http://54.235.29.9/FacialAge/BNav_EC2/DepthDuration/v2_depth_duration_MTurk/v2_DepthDuration_HTML.html#87,87,1440,789,1440,900,8-20-2022,10-58-58,152,depth_duration_stimuli/000569_2014-06-09_22-51-47_260595134347_rgbf000141-resize_3/000569_2014-06-09_22-51-47_260595134347_rgbf000141-resize-original.jpg,250,4.512,6,1849,249,meters,jsons/v1_VE250_randls_69_rotated.json,582502,742022,48,Man
152,605251,DepthScenes,duration_manipulation_targetAtFixation,jsons/v1_VE250_randls_69_rotated.json,http://54.235.29.9/FacialAge/BNav_EC2/DepthDuration/v2_depth_duration_MTurk/v2_DepthDuration_HTML.html#87,87,1440,789,1440,900,8-20-2022,10-58-58,153,depth_duration_stimuli/001828_2014-06-26_21-40-03_260595134347_rgbf000024-resize_0/001828_2014-06-26_21-40-03_260595134347_rgbf000024-resize_0-target.png,250,4.8260000000000005,4,1818,251,meters,jsons/v1_VE250_randls_69_rotated.json,582502,742022,48,Man
153,605251,DepthScenes,duration_manipulation_targetAtFixation,jsons/v1_VE250_randls_69_rotated.json,http://54.235.29.9/FacialAge/BNav_EC2/DepthDuration/v2_depth_duration_MTurk/v2_DepthDuration_HTML.html#87,87,1440,789,1440,900,8-20-2022,10-58-58,154,depth_duration_stimuli/000009_2014-05-26_14-32-05_260595134347_rgbf000034-resize_3/000009_2014-05-26_14-32-05_260595134347_rgbf000034-resize_3-target.png,250,3.8715,5,1731,249,meters,jsons/v1_VE250_randls_69_rotated.json,582502,742022,48,Man
154,605251,DepthScenes,duration_manipulation_targetAtFixation,jsons/v1_VE250_randls_69_rotated.json,http://54.235.29.9/FacialAge/BNav_EC2/DepthDuration/v2_depth_duration_MTurk/v2_DepthDuration_HTML.html#87,87,1440,789,1440,900,8-20-2022,10-58-58,155,depth_duration_stimuli/001815_2014-06-26_20-52-55_260595134347_rgbf000020-resize_0/001815_2014-06-26_20-52-55_260595134347_rgbf000020-resize_0-target.png,250,3.3865,3,1929,249,meters,jsons/v1_VE250_randls_69_rotated.json,582502,742022,48,Man
155,605251,DepthScenes,duration_manipulation_targetAtFixation,jsons/v1_VE250_randls_69_rotated.json,http://54.235.29.9/FacialAge/BNav_EC2/DepthDuration/v2_depth_duration_MTurk/v2_DepthDuration_HTML.html#87,87,1440,789,1440,900,8-20-2022,10-58-58,156,depth_duration_stimuli/001808_2014-06-26_20-50-58_260595134347_rgbf000029-resize_1/001808_2014-06-26_20-50-58_260595134347_rgbf000029-resize_1-target.png,250,4.249,5,2059,249,meters,jsons/v1_VE250_randls_69_rotated.json,582502,742022,48,Man
156,605251,DepthScenes,duration_manipulation_targetAtFixation,jsons/v1_VE250_randls_69_rotated.json,http://54.235.29.9/FacialAge/BNav_EC2/DepthDuration/v2_depth_duration_MTurk/v2_DepthDuration_HTML.html#87,87,1440,789,1440,900,8-20-2022,10-58-58,157,depth_duration_stimuli/002545_2014-06-24_13-38-53_094959634447_rgbf000080-resize_4/002545_2014-06-24_13-38-53_094959634447_rgbf000080-resize_4-target.png,250,1.9205,4,1858,250,meters,jsons/v1_VE250_randls_69_rotated.json,582502,742022,48,Man
157,605251,DepthScenes,duration_manipulation_targetAtFixation,jsons/v1_VE250_randls_69_rotated.json,http://54.235.29.9/FacialAge/BNav_EC2/DepthDuration/v2_depth_duration_MTurk/v2_DepthDuration_HTML.html#87,87,1440,789,1440,900,8-20-2022,10-58-58,158,depth_duration_stimuli/001092_2014-06-15_17-34-58_260595134347_rgbf000171-resize_3/001092_2014-06-15_17-34-58_260595134347_rgbf000171-resize_3-target.png,250,2.6935,6,1842,249,meters,jsons/v1_VE250_randls_69_rotated.json,582502,742022,48,Man
158,605251,DepthScenes,duration_manipulation_targetAtFixation,jsons/v1_VE250_randls_69_rotated.json,http://54.235.29.9/FacialAge/BNav_EC2/DepthDuration/v2_depth_duration_MTurk/v2_DepthDuration_HTML.html#87,87,1440,789,1440,900,8-20-2022,10-58-58,159,depth_duration_stimuli/002875_2014-06-01_15-19-00_094959634447_rgbf000151-resize_1/002875_2014-06-01_15-19-00_094959634447_rgbf000151-resize_1-target.png,250,1.9675,5,1843,249,meters,jsons/v1_VE250_randls_69_rotated.json,582502,742022,48,Man
159,605251,DepthScenes,duration_manipulation_targetAtFixation,jsons/v1_VE250_randls_69_rotated.json,http://54.235.29.9/FacialAge/BNav_EC2/DepthDuration/v2_depth_duration_MTurk/v2_DepthDuration_HTML.html#87,87,1440,789,1440,900,8-20-2022,10-58-58,160,depth_duration_stimuli/001011_2014-06-08_23-18-54_260595134347_rgbf000044-resize_4/001011_2014-06-08_23-18-54_260595134347_rgbf000044-resize_4-target.png,250,2.4730000000000003,8,1857,249,meters,jsons/v1_VE250_randls_69_rotated.json,582502,742022,48,Man
160,605251,DepthScenes,duration_manipulation_targetAtFixation,jsons/v1_VE250_randls_69_rotated.json,http://54.235.29.9/FacialAge/BNav_EC2/DepthDuration/v2_depth_duration_MTurk/v2_DepthDuration_HTML.html#87,87,1440,789,1440,900,8-20-2022,10-58-58,161,depth_duration_stimuli/002750_2014-06-22_19-08-03_094959634447_rgbf000094-resize_4/002750_2014-06-22_19-08-03_094959634447_rgbf000094-resize_4-target.png,250,2.354,4,1605,249,meters,jsons/v1_VE250_randls_69_rotated.json,582502,742022,48,Man
161,605251,DepthScenes,duration_manipulation_targetAtFixation,jsons/v1_VE250_randls_69_rotated.json,http://54.235.29.9/FacialAge/BNav_EC2/DepthDuration/v2_depth_duration_MTurk/v2_DepthDuration_HTML.html#87,87,1440,789,1440,900,8-20-2022,10-58-58,162,depth_duration_stimuli/002549_2014-06-24_13-41-39_094959634447_rgbf000022-resize_3/002549_2014-06-24_13-41-39_094959634447_rgbf000022-resize_3-target.png,250,1.476,6,2175,250,meters,jsons/v1_VE250_randls_69_rotated.json,582502,742022,48,Man
162,605251,DepthScenes,duration_manipulation_targetAtFixation,jsons/v1_VE250_randls_69_rotated.json,http://54.235.29.9/FacialAge/BNav_EC2/DepthDuration/v2_depth_duration_MTurk/v2_DepthDuration_HTML.html#87,87,1440,789,1440,900,8-20-2022,10-58-58,163,depth_duration_stimuli/002953_2014-06-08_17-32-18_094959634447_rgbf000059-resize_5/002953_2014-06-08_17-32-18_094959634447_rgbf000059-resize_5-target.png,250,1.551,5,11452,248,meters,jsons/v1_VE250_randls_69_rotated.json,582502,742022,48,Man
163,605251,DepthScenes,duration_manipulation_targetAtFixation,jsons/v1_VE250_randls_69_rotated.json,http://54.235.29.9/FacialAge/BNav_EC2/DepthDuration/v2_depth_duration_MTurk/v2_DepthDuration_HTML.html#87,87,1440,789,1440,900,8-20-2022,10-58-58,164,depth_duration_stimuli/000878_2014-06-08_22-52-45_260595134347_rgbf000045-resize_2/000878_2014-06-08_22-52-45_260595134347_rgbf000045-resize_2-target.png,250,2.092,9,1825,250,meters,jsons/v1_VE250_randls_69_rotated.json,582502,742022,48,Man
