,subjID,experimentName,versionName,sequenceName,url,selected_row,windowWidth,windowHeight,screenWidth,screenHeight,startDate,startTime,trial,stimulus,duration,actual_depth,depth_estimate,trial_RT,log_sceneDuration,unitSelection,seq_filepath,experimentTime,totalTime,age,gender
0,605617,DepthScenes,duration_manipulation_targetAtFixation,jsons/v1_VE250_randls_45.json,http://54.235.29.9/FacialAge/BNav_EC2/DepthDuration/v2_depth_duration_MTurk/v2_DepthDuration_HTML.html#60,60,1280,657,1280,800,8-20-2022,11-19-46,1,depth_duration_stimuli/001158_2014-06-17_15-32-16_260595134347_rgbf000138-resize_2/001158_2014-06-17_15-32-16_260595134347_rgbf000138-resize_2-target.png,250,4.5315,10,3131,250,meters,jsons/v1_VE250_randls_45.json,691902,905270,30,Woman
1,605617,DepthScenes,duration_manipulation_targetAtFixation,jsons/v1_VE250_randls_45.json,http://54.235.29.9/FacialAge/BNav_EC2/DepthDuration/v2_depth_duration_MTurk/v2_DepthDuration_HTML.html#60,60,1280,657,1280,800,8-20-2022,11-19-46,2,depth_duration_stimuli/000556_2014-06-09_22-42-56_260595134347_rgbf000214-resize_1/000556_2014-06-09_22-42-56_260595134347_rgbf000214-resize_1-target.png,250,4.8415,20,2693,243,meters,jsons/v1_VE250_randls_45.json,691902,905270,30,Woman
2,605617,DepthScenes,duration_manipulation_targetAtFixation,jsons/v1_VE250_randls_45.json,http://54.235.29.9/FacialAge/BNav_EC2/DepthDuration/v2_depth_duration_MTurk/v2_DepthDuration_HTML.html#60,60,1280,657,1280,800,8-20-2022,11-19-46,3,depth_duration_stimuli/001110_2014-06-15_17-25-28_260595134347_rgbf000150-resize_1/001110_2014-06-15_17-25-28_260595134347_rgbf000150-resize_1-target.png,250,1.7115,30,2818,240,meters,jsons/v1_VE250_randls_45.json,691902,905270,30,Woman
3,605617,DepthScenes,duration_manipulation_targetAtFixation,jsons/v1_VE250_randls_45.json,http://54.235.29.9/FacialAge/BNav_EC2/DepthDuration/v2_depth_duration_MTurk/v2_DepthDuration_HTML.html#60,60,1280,657,1280,800,8-20-2022,11-19-46,4,depth_duration_stimuli/000927_2014-06-09_16-32-30_260595134347_rgbf000123-resize_3/000927_2014-06-09_16-32-30_260595134347_rgbf000123-resize_3-target.png,250,2.6785,20,2587,250,meters,jsons/v1_VE250_randls_45.json,691902,905270,30,Woman
4,605617,DepthScenes,duration_manipulation_targetAtFixation,jsons/v1_VE250_randls_45.json,http://54.235.29.9/FacialAge/BNav_EC2/DepthDuration/v2_depth_duration_MTurk/v2_DepthDuration_HTML.html#60,60,1280,657,1280,800,8-20-2022,11-19-46,5,depth_duration_stimuli/000906_2014-06-08_13-35-43_260595134347_rgbf000155-resize_1/000906_2014-06-08_13-35-43_260595134347_rgbf000155-resize_1-target.png,250,2.8489999999999998,20,2724,249,meters,jsons/v1_VE250_randls_45.json,691902,905270,30,Woman
5,605617,DepthScenes,duration_manipulation_targetAtFixation,jsons/v1_VE250_randls_45.json,http://54.235.29.9/FacialAge/BNav_EC2/DepthDuration/v2_depth_duration_MTurk/v2_DepthDuration_HTML.html#60,60,1280,657,1280,800,8-20-2022,11-19-46,6,depth_duration_stimuli/002805_2014-06-22_19-54-03_094959634447_rgbf000079-resize_1/002805_2014-06-22_19-54-03_094959634447_rgbf000079-resize_1-target.png,250,3.1439999999999997,10,2321,248,meters,jsons/v1_VE250_randls_45.json,691902,905270,30,Woman
6,605617,DepthScenes,duration_manipulation_targetAtFixation,jsons/v1_VE250_randls_45.json,http://54.235.29.9/FacialAge/BNav_EC2/DepthDuration/v2_depth_duration_MTurk/v2_DepthDuration_HTML.html#60,60,1280,657,1280,800,8-20-2022,11-19-46,7,depth_duration_stimuli/001808_2014-06-26_20-50-58_260595134347_rgbf000029-resize_1/001808_2014-06-26_20-50-58_260595134347_rgbf000029-resize_1-target.png,250,4.249,10,3365,247,meters,jsons/v1_VE250_randls_45.json,691902,905270,30,Woman
7,605617,DepthScenes,duration_manipulation_targetAtFixation,jsons/v1_VE250_randls_45.json,http://54.235.29.9/FacialAge/BNav_EC2/DepthDuration/v2_depth_duration_MTurk/v2_DepthDuration_HTML.html#60,60,1280,657,1280,800,8-20-2022,11-19-46,8,depth_duration_stimuli/001815_2014-06-26_20-52-55_260595134347_rgbf000020-resize_0/001815_2014-06-26_20-52-55_260595134347_rgbf000020-resize_0-target.png,250,3.3865,30,2440,252,meters,jsons/v1_VE250_randls_45.json,691902,905270,30,Woman
8,605617,DepthScenes,duration_manipulation_targetAtFixation,jsons/v1_VE250_randls_45.json,http://54.235.29.9/FacialAge/BNav_EC2/DepthDuration/v2_depth_duration_MTurk/v2_DepthDuration_HTML.html#60,60,1280,657,1280,800,8-20-2022,11-19-46,9,depth_duration_stimuli/001449_2014-06-19_17-01-27_260595134347_rgbf000116-resize_2/001449_2014-06-19_17-01-27_260595134347_rgbf000116-resize_2-target.png,250,3.452,10,2394,250,meters,jsons/v1_VE250_randls_45.json,691902,905270,30,Woman
9,605617,DepthScenes,duration_manipulation_targetAtFixation,jsons/v1_VE250_randls_45.json,http://54.235.29.9/FacialAge/BNav_EC2/DepthDuration/v2_depth_duration_MTurk/v2_DepthDuration_HTML.html#60,60,1280,657,1280,800,8-20-2022,11-19-46,10,depth_duration_stimuli/001450_2014-06-19_17-02-03_260595134347_rgbf000203-resize_4/001450_2014-06-19_17-02-03_260595134347_rgbf000203-resize_4-target.png,250,4.0106666666667,40,2380,267,meters,jsons/v1_VE250_randls_45.json,691902,905270,30,Woman
10,605617,DepthScenes,duration_manipulation_targetAtFixation,jsons/v1_VE250_randls_45.json,http://54.235.29.9/FacialAge/BNav_EC2/DepthDuration/v2_depth_duration_MTurk/v2_DepthDuration_HTML.html#60,60,1280,657,1280,800,8-20-2022,11-19-46,11,depth_duration_stimuli/000642_2014-06-08_16-59-25_260595134347_rgbf000098-resize_2/000642_2014-06-08_16-59-25_260595134347_rgbf000098-resize_2-target.png,250,2.8815,50,2592,242,meters,jsons/v1_VE250_randls_45.json,691902,905270,30,Woman
11,605617,DepthScenes,duration_manipulation_targetAtFixation,jsons/v1_VE250_randls_45.json,http://54.235.29.9/FacialAge/BNav_EC2/DepthDuration/v2_depth_duration_MTurk/v2_DepthDuration_HTML.html#60,60,1280,657,1280,800,8-20-2022,11-19-46,12,depth_duration_stimuli/002425_2014-06-28_20-27-29_260595134347_rgbf000031-resize_8/002425_2014-06-28_20-27-29_260595134347_rgbf000031-resize_8-target.png,250,3.8960000000000004,30,2327,206,meters,jsons/v1_VE250_randls_45.json,691902,905270,30,Woman
12,605617,DepthScenes,duration_manipulation_targetAtFixation,jsons/v1_VE250_randls_45.json,http://54.235.29.9/FacialAge/BNav_EC2/DepthDuration/v2_depth_duration_MTurk/v2_DepthDuration_HTML.html#60,60,1280,657,1280,800,8-20-2022,11-19-46,13,depth_duration_stimuli/000569_2014-06-09_22-51-47_260595134347_rgbf000141-resize_3/000569_2014-06-09_22-51-47_260595134347_rgbf000141-resize-original.jpg,250,4.512,10,2540,251,meters,jsons/v1_VE250_randls_45.json,691902,905270,30,Woman
13,605617,DepthScenes,duration_manipulation_targetAtFixation,jsons/v1_VE250_randls_45.json,http://54.235.29.9/FacialAge/BNav_EC2/DepthDuration/v2_depth_duration_MTurk/v2_DepthDuration_HTML.html#60,60,1280,657,1280,800,8-20-2022,11-19-46,14,depth_duration_stimuli/003292_2014-05-14_21-53-49_094959634447_rgbf000100-resize_2/003292_2014-05-14_21-53-49_094959634447_rgbf000100-resize_2-target.png,250,3.4815,20,2615,249,meters,jsons/v1_VE250_randls_45.json,691902,905270,30,Woman
14,605617,DepthScenes,duration_manipulation_targetAtFixation,jsons/v1_VE250_randls_45.json,http://54.235.29.9/FacialAge/BNav_EC2/DepthDuration/v2_depth_duration_MTurk/v2_DepthDuration_HTML.html#60,60,1280,657,1280,800,8-20-2022,11-19-46,15,depth_duration_stimuli/002639_2014-06-24_14-51-37_094959634447_rgbf000074-resize_4/002639_2014-06-24_14-51-37_094959634447_rgbf000074-resize_4-target.png,250,4.0375,30,4984,228,meters,jsons/v1_VE250_randls_45.json,691902,905270,30,Woman
15,605617,DepthScenes,duration_manipulation_targetAtFixation,jsons/v1_VE250_randls_45.json,http://54.235.29.9/FacialAge/BNav_EC2/DepthDuration/v2_depth_duration_MTurk/v2_DepthDuration_HTML.html#60,60,1280,657,1280,800,8-20-2022,11-19-46,16,depth_duration_stimuli/002570_2014-06-24_13-59-54_094959634447_rgbf000059-resize_0/002570_2014-06-24_13-59-54_094959634447_rgbf000059-resize_0-target.png,250,4.037,10,3010,250,meters,jsons/v1_VE250_randls_45.json,691902,905270,30,Woman
16,605617,DepthScenes,duration_manipulation_targetAtFixation,jsons/v1_VE250_randls_45.json,http://54.235.29.9/FacialAge/BNav_EC2/DepthDuration/v2_depth_duration_MTurk/v2_DepthDuration_HTML.html#60,60,1280,657,1280,800,8-20-2022,11-19-46,17,depth_duration_stimuli/002467_2014-06-28_20-38-07_260595134347_rgbf000026-resize_2/002467_2014-06-28_20-38-07_260595134347_rgbf000026-resize_2-target.png,250,4.742,20,2394,258,meters,jsons/v1_VE250_randls_45.json,691902,905270,30,Woman
17,605617,DepthScenes,duration_manipulation_targetAtFixation,jsons/v1_VE250_randls_45.json,http://54.235.29.9/FacialAge/BNav_EC2/DepthDuration/v2_depth_duration_MTurk/v2_DepthDuration_HTML.html#60,60,1280,657,1280,800,8-20-2022,11-19-46,18,depth_duration_stimuli/002057_2014-06-24_21-00-13_260595134347_rgbf000120-resize_1/002057_2014-06-24_21-00-13_260595134347_rgbf000120-resize_1-target.png,250,2.967,30,3451,250,meters,jsons/v1_VE250_randls_45.json,691902,905270,30,Woman
18,605617,DepthScenes,duration_manipulation_targetAtFixation,jsons/v1_VE250_randls_45.json,http://54.235.29.9/FacialAge/BNav_EC2/DepthDuration/v2_depth_duration_MTurk/v2_DepthDuration_HTML.html#60,60,1280,657,1280,800,8-20-2022,11-19-46,19,depth_duration_stimuli/000709_2014-06-08_13-51-55_260595134347_rgbf000068-resize_3/000709_2014-06-08_13-51-55_260595134347_rgbf000068-resize_3-target.png,250,1.8030000000000002,10,2683,246,meters,jsons/v1_VE250_randls_45.json,691902,905270,30,Woman
19,605617,DepthScenes,duration_manipulation_targetAtFixation,jsons/v1_VE250_randls_45.json,http://54.235.29.9/FacialAge/BNav_EC2/DepthDuration/v2_depth_duration_MTurk/v2_DepthDuration_HTML.html#60,60,1280,657,1280,800,8-20-2022,11-19-46,20,depth_duration_stimuli/000773_2014-06-08_22-24-54_260595134347_rgbf000093-resize_1/000773_2014-06-08_22-24-54_260595134347_rgbf000093-resize_1-target.png,250,4.973,30,3969,250,meters,jsons/v1_VE250_randls_45.json,691902,905270,30,Woman
20,605617,DepthScenes,duration_manipulation_targetAtFixation,jsons/v1_VE250_randls_45.json,http://54.235.29.9/FacialAge/BNav_EC2/DepthDuration/v2_depth_duration_MTurk/v2_DepthDuration_HTML.html#60,60,1280,657,1280,800,8-20-2022,11-19-46,21,depth_duration_stimuli/002414_2014-06-28_20-24-58_260595134347_rgbf000067-resize_4/002414_2014-06-28_20-24-58_260595134347_rgbf000067-resize_4-target.png,250,4.363,40,2908,250,meters,jsons/v1_VE250_randls_45.json,691902,905270,30,Woman
21,605617,DepthScenes,duration_manipulation_targetAtFixation,jsons/v1_VE250_randls_45.json,http://54.235.29.9/FacialAge/BNav_EC2/DepthDuration/v2_depth_duration_MTurk/v2_DepthDuration_HTML.html#60,60,1280,657,1280,800,8-20-2022,11-19-46,22,depth_duration_stimuli/000414_2014-06-04_19-49-13_260595134347_rgbf000044-resize_0/000414_2014-06-04_19-49-13_260595134347_rgbf000044-resize_0-target.png,250,4.329,10,2593,249,meters,jsons/v1_VE250_randls_45.json,691902,905270,30,Woman
22,605617,DepthScenes,duration_manipulation_targetAtFixation,jsons/v1_VE250_randls_45.json,http://54.235.29.9/FacialAge/BNav_EC2/DepthDuration/v2_depth_duration_MTurk/v2_DepthDuration_HTML.html#60,60,1280,657,1280,800,8-20-2022,11-19-46,23,depth_duration_stimuli/003129_2014-05-12_10-48-10_094959634447_rgbf000100-resize_0/003129_2014-05-12_10-48-10_094959634447_rgbf000100-resize_0-target.png,250,4.9305,20,2604,249,meters,jsons/v1_VE250_randls_45.json,691902,905270,30,Woman
23,605617,DepthScenes,duration_manipulation_targetAtFixation,jsons/v1_VE250_randls_45.json,http://54.235.29.9/FacialAge/BNav_EC2/DepthDuration/v2_depth_duration_MTurk/v2_DepthDuration_HTML.html#60,60,1280,657,1280,800,8-20-2022,11-19-46,24,depth_duration_stimuli/002988_2014-06-15_12-24-20_094959634447_rgbf000150-resize_1/002988_2014-06-15_12-24-20_094959634447_rgbf000150-resize_1-target.png,250,4.7669999999999995,30,2781,255,meters,jsons/v1_VE250_randls_45.json,691902,905270,30,Woman
24,605617,DepthScenes,duration_manipulation_targetAtFixation,jsons/v1_VE250_randls_45.json,http://54.235.29.9/FacialAge/BNav_EC2/DepthDuration/v2_depth_duration_MTurk/v2_DepthDuration_HTML.html#60,60,1280,657,1280,800,8-20-2022,11-19-46,25,depth_duration_stimuli/001052_2014-06-08_18-24-54_260595134347_rgbf000130-resize_1/001052_2014-06-08_18-24-54_260595134347_rgbf000130-resize_1-target.png,250,4.1045,30,5807,249,meters,jsons/v1_VE250_randls_45.json,691902,905270,30,Woman
25,605617,DepthScenes,duration_manipulation_targetAtFixation,jsons/v1_VE250_randls_45.json,http://54.235.29.9/FacialAge/BNav_EC2/DepthDuration/v2_depth_duration_MTurk/v2_DepthDuration_HTML.html#60,60,1280,657,1280,800,8-20-2022,11-19-46,26,depth_duration_stimuli/003492_2014-05-21_15-50-55_094959634447_rgbf000828-resize_1/003492_2014-05-21_15-50-55_094959634447_rgbf000828-resize_1-target.png,250,4.06875,30,3831,253,meters,jsons/v1_VE250_randls_45.json,691902,905270,30,Woman
26,605617,DepthScenes,duration_manipulation_targetAtFixation,jsons/v1_VE250_randls_45.json,http://54.235.29.9/FacialAge/BNav_EC2/DepthDuration/v2_depth_duration_MTurk/v2_DepthDuration_HTML.html#60,60,1280,657,1280,800,8-20-2022,11-19-46,27,depth_duration_stimuli/002568_2014-06-24_13-59-21_094959634447_rgbf000062-resize_4/002568_2014-06-24_13-59-21_094959634447_rgbf000062-resize_4-target.png,250,3.015,40,2796,251,meters,jsons/v1_VE250_randls_45.json,691902,905270,30,Woman
27,605617,DepthScenes,duration_manipulation_targetAtFixation,jsons/v1_VE250_randls_45.json,http://54.235.29.9/FacialAge/BNav_EC2/DepthDuration/v2_depth_duration_MTurk/v2_DepthDuration_HTML.html#60,60,1280,657,1280,800,8-20-2022,11-19-46,28,depth_duration_stimuli/002118_2014-06-25_20-32-08_260595134347_rgbf000078-resize_1/002118_2014-06-25_20-32-08_260595134347_rgbf000078-resize_1-target.png,250,2.6460000000000004,50,4349,245,meters,jsons/v1_VE250_randls_45.json,691902,905270,30,Woman
28,605617,DepthScenes,duration_manipulation_targetAtFixation,jsons/v1_VE250_randls_45.json,http://54.235.29.9/FacialAge/BNav_EC2/DepthDuration/v2_depth_duration_MTurk/v2_DepthDuration_HTML.html#60,60,1280,657,1280,800,8-20-2022,11-19-46,29,depth_duration_stimuli/001516_2014-06-20_16-25-09_260595134347_rgbf000076-resize_2/001516_2014-06-20_16-25-09_260595134347_rgbf000076-resize_2-target.png,250,1.7445,30,3777,251,meters,jsons/v1_VE250_randls_45.json,691902,905270,30,Woman
29,605617,DepthScenes,duration_manipulation_targetAtFixation,jsons/v1_VE250_randls_45.json,http://54.235.29.9/FacialAge/BNav_EC2/DepthDuration/v2_depth_duration_MTurk/v2_DepthDuration_HTML.html#60,60,1280,657,1280,800,8-20-2022,11-19-46,30,depth_duration_stimuli/000375_2014-06-08_11-17-29_260595134347_rgbf000133-resize_2/000375_2014-06-08_11-17-29_260595134347_rgbf000133-resize-original.jpg,250,4.718,20,3421,252,meters,jsons/v1_VE250_randls_45.json,691902,905270,30,Woman
30,605617,DepthScenes,duration_manipulation_targetAtFixation,jsons/v1_VE250_randls_45.json,http://54.235.29.9/FacialAge/BNav_EC2/DepthDuration/v2_depth_duration_MTurk/v2_DepthDuration_HTML.html#60,60,1280,657,1280,800,8-20-2022,11-19-46,31,depth_duration_stimuli/003534_2014-05-22_15-06-10_094959634447_rgbf000102-resize_4/003534_2014-05-22_15-06-10_094959634447_rgbf000102-resize_4-target.png,250,1.426,10,4956,249,meters,jsons/v1_VE250_randls_45.json,691902,905270,30,Woman
31,605617,DepthScenes,duration_manipulation_targetAtFixation,jsons/v1_VE250_randls_45.json,http://54.235.29.9/FacialAge/BNav_EC2/DepthDuration/v2_depth_duration_MTurk/v2_DepthDuration_HTML.html#60,60,1280,657,1280,800,8-20-2022,11-19-46,32,depth_duration_stimuli/002637_2014-06-24_14-51-13_094959634447_rgbf000066-resize_4/002637_2014-06-24_14-51-13_094959634447_rgbf000066-resize_4-target.png,250,1.9955,20,2869,251,meters,jsons/v1_VE250_randls_45.json,691902,905270,30,Woman
32,605617,DepthScenes,duration_manipulation_targetAtFixation,jsons/v1_VE250_randls_45.json,http://54.235.29.9/FacialAge/BNav_EC2/DepthDuration/v2_depth_duration_MTurk/v2_DepthDuration_HTML.html#60,60,1280,657,1280,800,8-20-2022,11-19-46,33,depth_duration_stimuli/002600_2014-06-24_14-27-04_094959634447_rgbf000074-resize_2/002600_2014-06-24_14-27-04_094959634447_rgbf000074-resize_2-target.png,250,2.7575,30,2464,249,meters,jsons/v1_VE250_randls_45.json,691902,905270,30,Woman
33,605617,DepthScenes,duration_manipulation_targetAtFixation,jsons/v1_VE250_randls_45.json,http://54.235.29.9/FacialAge/BNav_EC2/DepthDuration/v2_depth_duration_MTurk/v2_DepthDuration_HTML.html#60,60,1280,657,1280,800,8-20-2022,11-19-46,34,depth_duration_stimuli/003228_2014-05-14_13-42-35_094959634447_rgbf000101-resize_1/003228_2014-05-14_13-42-35_094959634447_rgbf000101-resize_1-target.png,250,1.9680000000000002,10,2582,249,meters,jsons/v1_VE250_randls_45.json,691902,905270,30,Woman
34,605617,DepthScenes,duration_manipulation_targetAtFixation,jsons/v1_VE250_randls_45.json,http://54.235.29.9/FacialAge/BNav_EC2/DepthDuration/v2_depth_duration_MTurk/v2_DepthDuration_HTML.html#60,60,1280,657,1280,800,8-20-2022,11-19-46,35,depth_duration_stimuli/000736_2014-06-08_18-24-15_260595134347_rgbf000206-resize_3/000736_2014-06-08_18-24-15_260595134347_rgbf000206-resize_3-target.png,250,3.515,30,2674,254,meters,jsons/v1_VE250_randls_45.json,691902,905270,30,Woman
35,605617,DepthScenes,duration_manipulation_targetAtFixation,jsons/v1_VE250_randls_45.json,http://54.235.29.9/FacialAge/BNav_EC2/DepthDuration/v2_depth_duration_MTurk/v2_DepthDuration_HTML.html#60,60,1280,657,1280,800,8-20-2022,11-19-46,36,depth_duration_stimuli/000137_2014-05-20_17-04-49_260595134347_rgbf000120-resize_1/000137_2014-05-20_17-04-49_260595134347_rgbf000120-resize_1-target.png,250,3.786,20,5525,255,meters,jsons/v1_VE250_randls_45.json,691902,905270,30,Woman
36,605617,DepthScenes,duration_manipulation_targetAtFixation,jsons/v1_VE250_randls_45.json,http://54.235.29.9/FacialAge/BNav_EC2/DepthDuration/v2_depth_duration_MTurk/v2_DepthDuration_HTML.html#60,60,1280,657,1280,800,8-20-2022,11-19-46,37,depth_duration_stimuli/001555_2014-06-20_17-12-10_260595134347_rgbf000065-resize_4/001555_2014-06-20_17-12-10_260595134347_rgbf000065-resize_4-target.png,250,1.633,30,3289,250,meters,jsons/v1_VE250_randls_45.json,691902,905270,30,Woman
37,605617,DepthScenes,duration_manipulation_targetAtFixation,jsons/v1_VE250_randls_45.json,http://54.235.29.9/FacialAge/BNav_EC2/DepthDuration/v2_depth_duration_MTurk/v2_DepthDuration_HTML.html#60,60,1280,657,1280,800,8-20-2022,11-19-46,38,depth_duration_stimuli/000103_2014-05-14_22-01-17_260595134347_rgbf000152-resize_5/000103_2014-05-14_22-01-17_260595134347_rgbf000152-resize_5-target.png,250,1.993,10,3105,255,meters,jsons/v1_VE250_randls_45.json,691902,905270,30,Woman
38,605617,DepthScenes,duration_manipulation_targetAtFixation,jsons/v1_VE250_randls_45.json,http://54.235.29.9/FacialAge/BNav_EC2/DepthDuration/v2_depth_duration_MTurk/v2_DepthDuration_HTML.html#60,60,1280,657,1280,800,8-20-2022,11-19-46,39,depth_duration_stimuli/000522_2014-06-08_13-35-06_260595134347_rgbf000244-resize_1/000522_2014-06-08_13-35-06_260595134347_rgbf000244-resize_1-target.png,250,2.3715,30,3228,249,meters,jsons/v1_VE250_randls_45.json,691902,905270,30,Woman
39,605617,DepthScenes,duration_manipulation_targetAtFixation,jsons/v1_VE250_randls_45.json,http://54.235.29.9/FacialAge/BNav_EC2/DepthDuration/v2_depth_duration_MTurk/v2_DepthDuration_HTML.html#60,60,1280,657,1280,800,8-20-2022,11-19-46,40,depth_duration_stimuli/002949_2014-06-26_15-57-42_094959634447_rgbf000079-resize_1/002949_2014-06-26_15-57-42_094959634447_rgbf000079-resize_1-target.png,250,1.8915,30,3466,249,meters,jsons/v1_VE250_randls_45.json,691902,905270,30,Woman
40,605617,DepthScenes,duration_manipulation_targetAtFixation,jsons/v1_VE250_randls_45.json,http://54.235.29.9/FacialAge/BNav_EC2/DepthDuration/v2_depth_duration_MTurk/v2_DepthDuration_HTML.html#60,60,1280,657,1280,800,8-20-2022,11-19-46,41,depth_duration_stimuli/001059_2014-06-08_21-53-27_260595134347_rgbf000061-resize_4/001059_2014-06-08_21-53-27_260595134347_rgbf000061-resize_4-target.png,250,2.4185,20,2628,246,meters,jsons/v1_VE250_randls_45.json,691902,905270,30,Woman
41,605617,DepthScenes,duration_manipulation_targetAtFixation,jsons/v1_VE250_randls_45.json,http://54.235.29.9/FacialAge/BNav_EC2/DepthDuration/v2_depth_duration_MTurk/v2_DepthDuration_HTML.html#60,60,1280,657,1280,800,8-20-2022,11-19-46,42,depth_duration_stimuli/001032_2014-06-08_13-23-17_260595134347_rgbf000021-resize_3/001032_2014-06-08_13-23-17_260595134347_rgbf000021-resize_3-target.png,250,3.2725,10,4839,250,meters,jsons/v1_VE250_randls_45.json,691902,905270,30,Woman
42,605617,DepthScenes,duration_manipulation_targetAtFixation,jsons/v1_VE250_randls_45.json,http://54.235.29.9/FacialAge/BNav_EC2/DepthDuration/v2_depth_duration_MTurk/v2_DepthDuration_HTML.html#60,60,1280,657,1280,800,8-20-2022,11-19-46,43,depth_duration_stimuli/001806_2014-06-26_20-50-20_260595134347_rgbf000091-resize_1/001806_2014-06-26_20-50-20_260595134347_rgbf000091-resize_1-target.png,250,2.7305,30,3940,250,meters,jsons/v1_VE250_randls_45.json,691902,905270,30,Woman
43,605617,DepthScenes,duration_manipulation_targetAtFixation,jsons/v1_VE250_randls_45.json,http://54.235.29.9/FacialAge/BNav_EC2/DepthDuration/v2_depth_duration_MTurk/v2_DepthDuration_HTML.html#60,60,1280,657,1280,800,8-20-2022,11-19-46,44,depth_duration_stimuli/001617_2014-06-20_11-35-32_260595134347_rgbf000066-resize_1/001617_2014-06-20_11-35-32_260595134347_rgbf000066-resize_1-target.png,250,3.7910000000000004,10,2751,249,meters,jsons/v1_VE250_randls_45.json,691902,905270,30,Woman
44,605617,DepthScenes,duration_manipulation_targetAtFixation,jsons/v1_VE250_randls_45.json,http://54.235.29.9/FacialAge/BNav_EC2/DepthDuration/v2_depth_duration_MTurk/v2_DepthDuration_HTML.html#60,60,1280,657,1280,800,8-20-2022,11-19-46,45,depth_duration_stimuli/000787_2014-06-08_22-33-53_260595134347_rgbf000175-resize_1/000787_2014-06-08_22-33-53_260595134347_rgbf000175-resize-original.jpg,250,4.784,20,2633,251,meters,jsons/v1_VE250_randls_45.json,691902,905270,30,Woman
45,605617,DepthScenes,duration_manipulation_targetAtFixation,jsons/v1_VE250_randls_45.json,http://54.235.29.9/FacialAge/BNav_EC2/DepthDuration/v2_depth_duration_MTurk/v2_DepthDuration_HTML.html#60,60,1280,657,1280,800,8-20-2022,11-19-46,46,depth_duration_stimuli/002725_2014-06-22_11-47-51_094959634447_rgbf000070-resize_1/002725_2014-06-22_11-47-51_094959634447_rgbf000070-resize_1-target.png,250,2.195,30,2994,250,meters,jsons/v1_VE250_randls_45.json,691902,905270,30,Woman
46,605617,DepthScenes,duration_manipulation_targetAtFixation,jsons/v1_VE250_randls_45.json,http://54.235.29.9/FacialAge/BNav_EC2/DepthDuration/v2_depth_duration_MTurk/v2_DepthDuration_HTML.html#60,60,1280,657,1280,800,8-20-2022,11-19-46,47,depth_duration_stimuli/002344_2014-06-28_20-06-29_260595134347_rgbf000030-resize_1/002344_2014-06-28_20-06-29_260595134347_rgbf000030-resize_1-target.png,250,1.5795,10,33348,250,meters,jsons/v1_VE250_randls_45.json,691902,905270,30,Woman
47,605617,DepthScenes,duration_manipulation_targetAtFixation,jsons/v1_VE250_randls_45.json,http://54.235.29.9/FacialAge/BNav_EC2/DepthDuration/v2_depth_duration_MTurk/v2_DepthDuration_HTML.html#60,60,1280,657,1280,800,8-20-2022,11-19-46,48,depth_duration_stimuli/000486_2014-06-09_20-47-20_260595134347_rgbf000143-resize_2/000486_2014-06-09_20-47-20_260595134347_rgbf000143-resize_2-target.png,250,4.8325,10,61346,249,meters,jsons/v1_VE250_randls_45.json,691902,905270,30,Woman
48,605617,DepthScenes,duration_manipulation_targetAtFixation,jsons/v1_VE250_randls_45.json,http://54.235.29.9/FacialAge/BNav_EC2/DepthDuration/v2_depth_duration_MTurk/v2_DepthDuration_HTML.html#60,60,1280,657,1280,800,8-20-2022,11-19-46,49,depth_duration_stimuli/003083_2014-06-15_15-21-03_094959634447_rgbf000063-resize_1/003083_2014-06-15_15-21-03_094959634447_rgbf000063-resize_1-target.png,250,4.1405,20,2371,250,meters,jsons/v1_VE250_randls_45.json,691902,905270,30,Woman
49,605617,DepthScenes,duration_manipulation_targetAtFixation,jsons/v1_VE250_randls_45.json,http://54.235.29.9/FacialAge/BNav_EC2/DepthDuration/v2_depth_duration_MTurk/v2_DepthDuration_HTML.html#60,60,1280,657,1280,800,8-20-2022,11-19-46,50,depth_duration_stimuli/001244_2014-06-17_16-47-45_260595134347_rgbf000030-resize_4/001244_2014-06-17_16-47-45_260595134347_rgbf000030-resize_4-target.png,250,2.0425,30,2773,243,meters,jsons/v1_VE250_randls_45.json,691902,905270,30,Woman
50,605617,DepthScenes,duration_manipulation_targetAtFixation,jsons/v1_VE250_randls_45.json,http://54.235.29.9/FacialAge/BNav_EC2/DepthDuration/v2_depth_duration_MTurk/v2_DepthDuration_HTML.html#60,60,1280,657,1280,800,8-20-2022,11-19-46,51,depth_duration_stimuli/003495_2014-05-21_16-01-51_094959634447_rgbf000100-resize_3/003495_2014-05-21_16-01-51_094959634447_rgbf000100-resize_3-target.png,250,1.6255,10,2320,245,meters,jsons/v1_VE250_randls_45.json,691902,905270,30,Woman
51,605617,DepthScenes,duration_manipulation_targetAtFixation,jsons/v1_VE250_randls_45.json,http://54.235.29.9/FacialAge/BNav_EC2/DepthDuration/v2_depth_duration_MTurk/v2_DepthDuration_HTML.html#60,60,1280,657,1280,800,8-20-2022,11-19-46,52,depth_duration_stimuli/002788_2014-06-22_19-36-03_094959634447_rgbf000088-resize_2/002788_2014-06-22_19-36-03_094959634447_rgbf000088-resize_2-target.png,250,1.6465,10,21072,251,meters,jsons/v1_VE250_randls_45.json,691902,905270,30,Woman
52,605617,DepthScenes,duration_manipulation_targetAtFixation,jsons/v1_VE250_randls_45.json,http://54.235.29.9/FacialAge/BNav_EC2/DepthDuration/v2_depth_duration_MTurk/v2_DepthDuration_HTML.html#60,60,1280,657,1280,800,8-20-2022,11-19-46,53,depth_duration_stimuli/000749_2014-06-08_21-55-06_260595134347_rgbf000070-resize_2/000749_2014-06-08_21-55-06_260595134347_rgbf000070-resize_2-target.png,250,2.331,10,7223,248,meters,jsons/v1_VE250_randls_45.json,691902,905270,30,Woman
53,605617,DepthScenes,duration_manipulation_targetAtFixation,jsons/v1_VE250_randls_45.json,http://54.235.29.9/FacialAge/BNav_EC2/DepthDuration/v2_depth_duration_MTurk/v2_DepthDuration_HTML.html#60,60,1280,657,1280,800,8-20-2022,11-19-46,54,depth_duration_stimuli/002763_2014-06-22_19-13-10_094959634447_rgbf000075-resize_4/002763_2014-06-22_19-13-10_094959634447_rgbf000075-resize_4-target.png,250,1.68375,20,2505,256,meters,jsons/v1_VE250_randls_45.json,691902,905270,30,Woman
54,605617,DepthScenes,duration_manipulation_targetAtFixation,jsons/v1_VE250_randls_45.json,http://54.235.29.9/FacialAge/BNav_EC2/DepthDuration/v2_depth_duration_MTurk/v2_DepthDuration_HTML.html#60,60,1280,657,1280,800,8-20-2022,11-19-46,55,depth_duration_stimuli/002209_2014-06-28_18-36-10_260595134347_rgbf000051-resize_1/002209_2014-06-28_18-36-10_260595134347_rgbf000051-resize_1-target.png,250,2.057,10,2242,250,meters,jsons/v1_VE250_randls_45.json,691902,905270,30,Woman
55,605617,DepthScenes,duration_manipulation_targetAtFixation,jsons/v1_VE250_randls_45.json,http://54.235.29.9/FacialAge/BNav_EC2/DepthDuration/v2_depth_duration_MTurk/v2_DepthDuration_HTML.html#60,60,1280,657,1280,800,8-20-2022,11-19-46,56,depth_duration_stimuli/000436_2014-06-09_22-25-11_260595134347_rgbf000137-resize_1/000436_2014-06-09_22-25-11_260595134347_rgbf000137-resize_1-target.png,250,4.0705,10,2448,249,meters,jsons/v1_VE250_randls_45.json,691902,905270,30,Woman
56,605617,DepthScenes,duration_manipulation_targetAtFixation,jsons/v1_VE250_randls_45.json,http://54.235.29.9/FacialAge/BNav_EC2/DepthDuration/v2_depth_duration_MTurk/v2_DepthDuration_HTML.html#60,60,1280,657,1280,800,8-20-2022,11-19-46,57,depth_duration_stimuli/002444_2014-06-28_20-32-08_260595134347_rgbf000027-resize_0/002444_2014-06-28_20-32-08_260595134347_rgbf000027-resize_0-target.png,250,4.388999999999999,20,3008,253,meters,jsons/v1_VE250_randls_45.json,691902,905270,30,Woman
57,605617,DepthScenes,duration_manipulation_targetAtFixation,jsons/v1_VE250_randls_45.json,http://54.235.29.9/FacialAge/BNav_EC2/DepthDuration/v2_depth_duration_MTurk/v2_DepthDuration_HTML.html#60,60,1280,657,1280,800,8-20-2022,11-19-46,58,depth_duration_stimuli/000810_2014-06-08_17-20-01_260595134347_rgbf000105-resize_0/000810_2014-06-08_17-20-01_260595134347_rgbf000105-resize_0-target.png,250,1.4865,10,2568,246,meters,jsons/v1_VE250_randls_45.json,691902,905270,30,Woman
58,605617,DepthScenes,duration_manipulation_targetAtFixation,jsons/v1_VE250_randls_45.json,http://54.235.29.9/FacialAge/BNav_EC2/DepthDuration/v2_depth_duration_MTurk/v2_DepthDuration_HTML.html#60,60,1280,657,1280,800,8-20-2022,11-19-46,59,depth_duration_stimuli/001214_2014-06-17_16-13-55_260595134347_rgbf000111-resize_0/001214_2014-06-17_16-13-55_260595134347_rgbf000111-resize_0-target.png,250,2.6505,10,2252,249,meters,jsons/v1_VE250_randls_45.json,691902,905270,30,Woman
59,605617,DepthScenes,duration_manipulation_targetAtFixation,jsons/v1_VE250_randls_45.json,http://54.235.29.9/FacialAge/BNav_EC2/DepthDuration/v2_depth_duration_MTurk/v2_DepthDuration_HTML.html#60,60,1280,657,1280,800,8-20-2022,11-19-46,60,depth_duration_stimuli/000682_2014-06-08_23-14-58_260595134347_rgbf000041-resize_5/000682_2014-06-08_23-14-58_260595134347_rgbf000041-resize_5-target.png,250,2.7239999999999998,10,2460,248,meters,jsons/v1_VE250_randls_45.json,691902,905270,30,Woman
60,605617,DepthScenes,duration_manipulation_targetAtFixation,jsons/v1_VE250_randls_45.json,http://54.235.29.9/FacialAge/BNav_EC2/DepthDuration/v2_depth_duration_MTurk/v2_DepthDuration_HTML.html#60,60,1280,657,1280,800,8-20-2022,11-19-46,61,depth_duration_stimuli/001650_2014-06-20_12-09-00_260595134347_rgbf000087-resize_3/001650_2014-06-20_12-09-00_260595134347_rgbf000087-resize_3-target.png,250,1.9505,10,2359,248,meters,jsons/v1_VE250_randls_45.json,691902,905270,30,Woman
61,605617,DepthScenes,duration_manipulation_targetAtFixation,jsons/v1_VE250_randls_45.json,http://54.235.29.9/FacialAge/BNav_EC2/DepthDuration/v2_depth_duration_MTurk/v2_DepthDuration_HTML.html#60,60,1280,657,1280,800,8-20-2022,11-19-46,62,depth_duration_stimuli/001133_2014-06-17_14-49-16_260595134347_rgbf000100-resize_0/001133_2014-06-17_14-49-16_260595134347_rgbf000100-resize_0-target.png,250,4.2115,30,2776,249,meters,jsons/v1_VE250_randls_45.json,691902,905270,30,Woman
62,605617,DepthScenes,duration_manipulation_targetAtFixation,jsons/v1_VE250_randls_45.json,http://54.235.29.9/FacialAge/BNav_EC2/DepthDuration/v2_depth_duration_MTurk/v2_DepthDuration_HTML.html#60,60,1280,657,1280,800,8-20-2022,11-19-46,63,depth_duration_stimuli/001132_2014-06-17_14-48-54_260595134347_rgbf000100-resize_2/001132_2014-06-17_14-48-54_260595134347_rgbf000100-resize_2-target.png,250,3.753,10,2626,246,meters,jsons/v1_VE250_randls_45.json,691902,905270,30,Woman
63,605617,DepthScenes,duration_manipulation_targetAtFixation,jsons/v1_VE250_randls_45.json,http://54.235.29.9/FacialAge/BNav_EC2/DepthDuration/v2_depth_duration_MTurk/v2_DepthDuration_HTML.html#60,60,1280,657,1280,800,8-20-2022,11-19-46,64,depth_duration_stimuli/002043_2014-06-24_20-29-38_260595134347_rgbf000039-resize_4/002043_2014-06-24_20-29-38_260595134347_rgbf000039-resize_4-target.png,250,2.8435,20,2662,251,meters,jsons/v1_VE250_randls_45.json,691902,905270,30,Woman
64,605617,DepthScenes,duration_manipulation_targetAtFixation,jsons/v1_VE250_randls_45.json,http://54.235.29.9/FacialAge/BNav_EC2/DepthDuration/v2_depth_duration_MTurk/v2_DepthDuration_HTML.html#60,60,1280,657,1280,800,8-20-2022,11-19-46,65,depth_duration_stimuli/003048_2014-06-15_13-49-43_094959634447_rgbf000150-resize_1/003048_2014-06-15_13-49-43_094959634447_rgbf000150-resize_1-target.png,250,4.0035,10,2817,246,meters,jsons/v1_VE250_randls_45.json,691902,905270,30,Woman
65,605617,DepthScenes,duration_manipulation_targetAtFixation,jsons/v1_VE250_randls_45.json,http://54.235.29.9/FacialAge/BNav_EC2/DepthDuration/v2_depth_duration_MTurk/v2_DepthDuration_HTML.html#60,60,1280,657,1280,800,8-20-2022,11-19-46,66,depth_duration_stimuli/001222_2014-06-17_16-24-06_260595134347_rgbf000073-resize_0/001222_2014-06-17_16-24-06_260595134347_rgbf000073-resize-original.jpg,250,1.4385,20,2739,252,meters,jsons/v1_VE250_randls_45.json,691902,905270,30,Woman
66,605617,DepthScenes,duration_manipulation_targetAtFixation,jsons/v1_VE250_randls_45.json,http://54.235.29.9/FacialAge/BNav_EC2/DepthDuration/v2_depth_duration_MTurk/v2_DepthDuration_HTML.html#60,60,1280,657,1280,800,8-20-2022,11-19-46,67,depth_duration_stimuli/002213_2014-06-28_18-37-58_260595134347_rgbf000055-resize_1/002213_2014-06-28_18-37-58_260595134347_rgbf000055-resize_1-target.png,250,3.62,10,3840,250,meters,jsons/v1_VE250_randls_45.json,691902,905270,30,Woman
67,605617,DepthScenes,duration_manipulation_targetAtFixation,jsons/v1_VE250_randls_45.json,http://54.235.29.9/FacialAge/BNav_EC2/DepthDuration/v2_depth_duration_MTurk/v2_DepthDuration_HTML.html#60,60,1280,657,1280,800,8-20-2022,11-19-46,68,depth_duration_stimuli/000691_2014-06-08_13-08-50_260595134347_rgbf000132-resize_3/000691_2014-06-08_13-08-50_260595134347_rgbf000132-resize_3-target.png,250,4.1530000000000005,10,2266,251,meters,jsons/v1_VE250_randls_45.json,691902,905270,30,Woman
68,605617,DepthScenes,duration_manipulation_targetAtFixation,jsons/v1_VE250_randls_45.json,http://54.235.29.9/FacialAge/BNav_EC2/DepthDuration/v2_depth_duration_MTurk/v2_DepthDuration_HTML.html#60,60,1280,657,1280,800,8-20-2022,11-19-46,69,depth_duration_stimuli/000929_2014-06-09_16-33-19_260595134347_rgbf000139-resize_0/000929_2014-06-09_16-33-19_260595134347_rgbf000139-resize_0-target.png,250,2.8680000000000003,30,4857,258,meters,jsons/v1_VE250_randls_45.json,691902,905270,30,Woman
69,605617,DepthScenes,duration_manipulation_targetAtFixation,jsons/v1_VE250_randls_45.json,http://54.235.29.9/FacialAge/BNav_EC2/DepthDuration/v2_depth_duration_MTurk/v2_DepthDuration_HTML.html#60,60,1280,657,1280,800,8-20-2022,11-19-46,70,depth_duration_stimuli/000457_2014-06-08_16-52-43_260595134347_rgbf000199-resize_1/000457_2014-06-08_16-52-43_260595134347_rgbf000199-resize_1-target.png,250,3.6489999999999996,20,2325,230,meters,jsons/v1_VE250_randls_45.json,691902,905270,30,Woman
70,605617,DepthScenes,duration_manipulation_targetAtFixation,jsons/v1_VE250_randls_45.json,http://54.235.29.9/FacialAge/BNav_EC2/DepthDuration/v2_depth_duration_MTurk/v2_DepthDuration_HTML.html#60,60,1280,657,1280,800,8-20-2022,11-19-46,71,depth_duration_stimuli/000788_2014-06-08_22-34-36_260595134347_rgbf000131-resize_1/000788_2014-06-08_22-34-36_260595134347_rgbf000131-resize_1-target.png,250,3.359,10,2623,245,meters,jsons/v1_VE250_randls_45.json,691902,905270,30,Woman
71,605617,DepthScenes,duration_manipulation_targetAtFixation,jsons/v1_VE250_randls_45.json,http://54.235.29.9/FacialAge/BNav_EC2/DepthDuration/v2_depth_duration_MTurk/v2_DepthDuration_HTML.html#60,60,1280,657,1280,800,8-20-2022,11-19-46,72,depth_duration_stimuli/001235_2014-06-17_16-37-36_260595134347_rgbf000084-resize_4/001235_2014-06-17_16-37-36_260595134347_rgbf000084-resize_4-target.png,250,3.6605,30,2426,243,meters,jsons/v1_VE250_randls_45.json,691902,905270,30,Woman
72,605617,DepthScenes,duration_manipulation_targetAtFixation,jsons/v1_VE250_randls_45.json,http://54.235.29.9/FacialAge/BNav_EC2/DepthDuration/v2_depth_duration_MTurk/v2_DepthDuration_HTML.html#60,60,1280,657,1280,800,8-20-2022,11-19-46,73,depth_duration_stimuli/001011_2014-06-08_23-18-54_260595134347_rgbf000044-resize_4/001011_2014-06-08_23-18-54_260595134347_rgbf000044-resize_4-target.png,250,2.4730000000000003,20,2320,248,meters,jsons/v1_VE250_randls_45.json,691902,905270,30,Woman
73,605617,DepthScenes,duration_manipulation_targetAtFixation,jsons/v1_VE250_randls_45.json,http://54.235.29.9/FacialAge/BNav_EC2/DepthDuration/v2_depth_duration_MTurk/v2_DepthDuration_HTML.html#60,60,1280,657,1280,800,8-20-2022,11-19-46,74,depth_duration_stimuli/002875_2014-06-01_15-19-00_094959634447_rgbf000151-resize_1/002875_2014-06-01_15-19-00_094959634447_rgbf000151-resize_1-target.png,250,1.9675,10,3528,252,meters,jsons/v1_VE250_randls_45.json,691902,905270,30,Woman
74,605617,DepthScenes,duration_manipulation_targetAtFixation,jsons/v1_VE250_randls_45.json,http://54.235.29.9/FacialAge/BNav_EC2/DepthDuration/v2_depth_duration_MTurk/v2_DepthDuration_HTML.html#60,60,1280,657,1280,800,8-20-2022,11-19-46,75,depth_duration_stimuli/002039_2014-06-24_20-22-38_260595134347_rgbf000084-resize_1/002039_2014-06-24_20-22-38_260595134347_rgbf000084-resize_1-target.png,250,4.408,30,3076,250,meters,jsons/v1_VE250_randls_45.json,691902,905270,30,Woman
75,605617,DepthScenes,duration_manipulation_targetAtFixation,jsons/v1_VE250_randls_45.json,http://54.235.29.9/FacialAge/BNav_EC2/DepthDuration/v2_depth_duration_MTurk/v2_DepthDuration_HTML.html#60,60,1280,657,1280,800,8-20-2022,11-19-46,76,depth_duration_stimuli/002103_2014-06-25_20-00-40_260595134347_rgbf000049-resize_0/002103_2014-06-25_20-00-40_260595134347_rgbf000049-resize_0-target.png,250,4.105,20,2396,247,meters,jsons/v1_VE250_randls_45.json,691902,905270,30,Woman
76,605617,DepthScenes,duration_manipulation_targetAtFixation,jsons/v1_VE250_randls_45.json,http://54.235.29.9/FacialAge/BNav_EC2/DepthDuration/v2_depth_duration_MTurk/v2_DepthDuration_HTML.html#60,60,1280,657,1280,800,8-20-2022,11-19-46,77,depth_duration_stimuli/002549_2014-06-24_13-41-39_094959634447_rgbf000022-resize_3/002549_2014-06-24_13-41-39_094959634447_rgbf000022-resize_3-target.png,250,1.476,30,3416,252,meters,jsons/v1_VE250_randls_45.json,691902,905270,30,Woman
77,605617,DepthScenes,duration_manipulation_targetAtFixation,jsons/v1_VE250_randls_45.json,http://54.235.29.9/FacialAge/BNav_EC2/DepthDuration/v2_depth_duration_MTurk/v2_DepthDuration_HTML.html#60,60,1280,657,1280,800,8-20-2022,11-19-46,78,depth_duration_stimuli/002750_2014-06-22_19-08-03_094959634447_rgbf000094-resize_4/002750_2014-06-22_19-08-03_094959634447_rgbf000094-resize_4-target.png,250,2.354,10,3435,250,meters,jsons/v1_VE250_randls_45.json,691902,905270,30,Woman
78,605617,DepthScenes,duration_manipulation_targetAtFixation,jsons/v1_VE250_randls_45.json,http://54.235.29.9/FacialAge/BNav_EC2/DepthDuration/v2_depth_duration_MTurk/v2_DepthDuration_HTML.html#60,60,1280,657,1280,800,8-20-2022,11-19-46,79,depth_duration_stimuli/000758_2014-06-08_22-05-08_260595134347_rgbf000085-resize_0/000758_2014-06-08_22-05-08_260595134347_rgbf000085-resize_0-target.png,250,3.3810000000000002,20,2226,225,meters,jsons/v1_VE250_randls_45.json,691902,905270,30,Woman
79,605617,DepthScenes,duration_manipulation_targetAtFixation,jsons/v1_VE250_randls_45.json,http://54.235.29.9/FacialAge/BNav_EC2/DepthDuration/v2_depth_duration_MTurk/v2_DepthDuration_HTML.html#60,60,1280,657,1280,800,8-20-2022,11-19-46,80,depth_duration_stimuli/000854_2014-06-09_19-43-13_260595134347_rgbf000066-resize_0/000854_2014-06-09_19-43-13_260595134347_rgbf000066-resize_0-target.png,250,3.068,30,2479,262,meters,jsons/v1_VE250_randls_45.json,691902,905270,30,Woman
80,605617,DepthScenes,duration_manipulation_targetAtFixation,jsons/v1_VE250_randls_45.json,http://54.235.29.9/FacialAge/BNav_EC2/DepthDuration/v2_depth_duration_MTurk/v2_DepthDuration_HTML.html#60,60,1280,657,1280,800,8-20-2022,11-19-46,81,depth_duration_stimuli/000470_2014-06-09_19-42-40_260595134347_rgbf000094-resize_1/000470_2014-06-09_19-42-40_260595134347_rgbf000094-resize_1-target.png,250,1.831,40,3277,241,meters,jsons/v1_VE250_randls_45.json,691902,905270,30,Woman
81,605617,DepthScenes,duration_manipulation_targetAtFixation,jsons/v1_VE250_randls_45.json,http://54.235.29.9/FacialAge/BNav_EC2/DepthDuration/v2_depth_duration_MTurk/v2_DepthDuration_HTML.html#60,60,1280,657,1280,800,8-20-2022,11-19-46,82,depth_duration_stimuli/000109_2014-05-14_23-41-52_260595134347_rgbf000035-resize_9/000109_2014-05-14_23-41-52_260595134347_rgbf000035-resize_9-target.png,250,1.3545,50,2362,252,meters,jsons/v1_VE250_randls_45.json,691902,905270,30,Woman
82,605617,DepthScenes,duration_manipulation_targetAtFixation,jsons/v1_VE250_randls_45.json,http://54.235.29.9/FacialAge/BNav_EC2/DepthDuration/v2_depth_duration_MTurk/v2_DepthDuration_HTML.html#60,60,1280,657,1280,800,8-20-2022,11-19-46,83,depth_duration_stimuli/002663_2014-06-13_15-50-26_094959634447_rgbf000075-resize_1/002663_2014-06-13_15-50-26_094959634447_rgbf000075-resize_1-target.png,250,4.7495,60,3436,249,meters,jsons/v1_VE250_randls_45.json,691902,905270,30,Woman
83,605617,DepthScenes,duration_manipulation_targetAtFixation,jsons/v1_VE250_randls_45.json,http://54.235.29.9/FacialAge/BNav_EC2/DepthDuration/v2_depth_duration_MTurk/v2_DepthDuration_HTML.html#60,60,1280,657,1280,800,8-20-2022,11-19-46,84,depth_duration_stimuli/000409_2014-06-04_19-23-33_260595134347_rgbf000067-resize_0/000409_2014-06-04_19-23-33_260595134347_rgbf000067-resize_0-target.png,250,3.7335,10,2737,249,meters,jsons/v1_VE250_randls_45.json,691902,905270,30,Woman
84,605617,DepthScenes,duration_manipulation_targetAtFixation,jsons/v1_VE250_randls_45.json,http://54.235.29.9/FacialAge/BNav_EC2/DepthDuration/v2_depth_duration_MTurk/v2_DepthDuration_HTML.html#60,60,1280,657,1280,800,8-20-2022,11-19-46,85,depth_duration_stimuli/001417_2014-06-19_16-25-36_260595134347_rgbf000115-resize_5/001417_2014-06-19_16-25-36_260595134347_rgbf000115-resize_5-target.png,250,4.6255,20,2361,248,meters,jsons/v1_VE250_randls_45.json,691902,905270,30,Woman
85,605617,DepthScenes,duration_manipulation_targetAtFixation,jsons/v1_VE250_randls_45.json,http://54.235.29.9/FacialAge/BNav_EC2/DepthDuration/v2_depth_duration_MTurk/v2_DepthDuration_HTML.html#60,60,1280,657,1280,800,8-20-2022,11-19-46,86,depth_duration_stimuli/003081_2014-06-15_15-19-16_094959634447_rgbf000150-resize_1/003081_2014-06-15_15-19-16_094959634447_rgbf000150-resize_1-target.png,250,3.9125,30,2447,230,meters,jsons/v1_VE250_randls_45.json,691902,905270,30,Woman
86,605617,DepthScenes,duration_manipulation_targetAtFixation,jsons/v1_VE250_randls_45.json,http://54.235.29.9/FacialAge/BNav_EC2/DepthDuration/v2_depth_duration_MTurk/v2_DepthDuration_HTML.html#60,60,1280,657,1280,800,8-20-2022,11-19-46,87,depth_duration_stimuli/002375_2014-06-28_20-13-44_260595134347_rgbf000032-resize_1/002375_2014-06-28_20-13-44_260595134347_rgbf000032-resize_1-target.png,250,4.0175,10,2415,266,meters,jsons/v1_VE250_randls_45.json,691902,905270,30,Woman
87,605617,DepthScenes,duration_manipulation_targetAtFixation,jsons/v1_VE250_randls_45.json,http://54.235.29.9/FacialAge/BNav_EC2/DepthDuration/v2_depth_duration_MTurk/v2_DepthDuration_HTML.html#60,60,1280,657,1280,800,8-20-2022,11-19-46,88,depth_duration_stimuli/002657_2014-06-13_15-29-54_094959634447_rgbf000150-resize_1/002657_2014-06-13_15-29-54_094959634447_rgbf000150-resize_1-target.png,250,4.919,40,2241,249,meters,jsons/v1_VE250_randls_45.json,691902,905270,30,Woman
88,605617,DepthScenes,duration_manipulation_targetAtFixation,jsons/v1_VE250_randls_45.json,http://54.235.29.9/FacialAge/BNav_EC2/DepthDuration/v2_depth_duration_MTurk/v2_DepthDuration_HTML.html#60,60,1280,657,1280,800,8-20-2022,11-19-46,89,depth_duration_stimuli/001810_2014-06-26_20-51-35_260595134347_rgbf000040-resize_3/001810_2014-06-26_20-51-35_260595134347_rgbf000040-resize_3-target.png,250,2.2525,30,2657,253,meters,jsons/v1_VE250_randls_45.json,691902,905270,30,Woman
89,605617,DepthScenes,duration_manipulation_targetAtFixation,jsons/v1_VE250_randls_45.json,http://54.235.29.9/FacialAge/BNav_EC2/DepthDuration/v2_depth_duration_MTurk/v2_DepthDuration_HTML.html#60,60,1280,657,1280,800,8-20-2022,11-19-46,90,depth_duration_stimuli/003010_2014-06-15_12-54-35_094959634447_rgbf000112-resize_0/003010_2014-06-15_12-54-35_094959634447_rgbf000112-resize_0-target.png,250,3.1185,10,2550,248,meters,jsons/v1_VE250_randls_45.json,691902,905270,30,Woman
90,605617,DepthScenes,duration_manipulation_targetAtFixation,jsons/v1_VE250_randls_45.json,http://54.235.29.9/FacialAge/BNav_EC2/DepthDuration/v2_depth_duration_MTurk/v2_DepthDuration_HTML.html#60,60,1280,657,1280,800,8-20-2022,11-19-46,91,depth_duration_stimuli/002784_2014-06-22_19-26-30_094959634447_rgbf000083-resize_3/002784_2014-06-22_19-26-30_094959634447_rgbf000083-resize_3-target.png,250,1.8046666666667,20,2552,245,meters,jsons/v1_VE250_randls_45.json,691902,905270,30,Woman
91,605617,DepthScenes,duration_manipulation_targetAtFixation,jsons/v1_VE250_randls_45.json,http://54.235.29.9/FacialAge/BNav_EC2/DepthDuration/v2_depth_duration_MTurk/v2_DepthDuration_HTML.html#60,60,1280,657,1280,800,8-20-2022,11-19-46,92,depth_duration_stimuli/001100_2014-06-15_17-46-26_260595134347_rgbf000225-resize_2/001100_2014-06-15_17-46-26_260595134347_rgbf000225-resize_2-target.png,250,2.24,30,2434,253,meters,jsons/v1_VE250_randls_45.json,691902,905270,30,Woman
92,605617,DepthScenes,duration_manipulation_targetAtFixation,jsons/v1_VE250_randls_45.json,http://54.235.29.9/FacialAge/BNav_EC2/DepthDuration/v2_depth_duration_MTurk/v2_DepthDuration_HTML.html#60,60,1280,657,1280,800,8-20-2022,11-19-46,93,depth_duration_stimuli/002509_2014-06-24_13-19-22_094959634447_rgbf000077-resize_0/002509_2014-06-24_13-19-22_094959634447_rgbf000077-resize_0-target.png,250,1.3065,41,2987,248,meters,jsons/v1_VE250_randls_45.json,691902,905270,30,Woman
93,605617,DepthScenes,duration_manipulation_targetAtFixation,jsons/v1_VE250_randls_45.json,http://54.235.29.9/FacialAge/BNav_EC2/DepthDuration/v2_depth_duration_MTurk/v2_DepthDuration_HTML.html#60,60,1280,657,1280,800,8-20-2022,11-19-46,94,depth_duration_stimuli/003338_2014-05-20_11-01-23_094959634447_rgbf000051-resize_6/003338_2014-05-20_11-01-23_094959634447_rgbf000051-resize_6-target.png,250,1.693,20,3361,249,meters,jsons/v1_VE250_randls_45.json,691902,905270,30,Woman
94,605617,DepthScenes,duration_manipulation_targetAtFixation,jsons/v1_VE250_randls_45.json,http://54.235.29.9/FacialAge/BNav_EC2/DepthDuration/v2_depth_duration_MTurk/v2_DepthDuration_HTML.html#60,60,1280,657,1280,800,8-20-2022,11-19-46,95,depth_duration_stimuli/000739_2014-06-08_18-45-58_260595134347_rgbf000068-resize_1/000739_2014-06-08_18-45-58_260595134347_rgbf000068-resize_1-target.png,250,3.534,30,3003,250,meters,jsons/v1_VE250_randls_45.json,691902,905270,30,Woman
95,605617,DepthScenes,duration_manipulation_targetAtFixation,jsons/v1_VE250_randls_45.json,http://54.235.29.9/FacialAge/BNav_EC2/DepthDuration/v2_depth_duration_MTurk/v2_DepthDuration_HTML.html#60,60,1280,657,1280,800,8-20-2022,11-19-46,96,depth_duration_stimuli/000734_2014-06-08_17-39-11_260595134347_rgbf000128-resize_2/000734_2014-06-08_17-39-11_260595134347_rgbf000128-resize_2-target.png,250,4.098,10,3735,245,meters,jsons/v1_VE250_randls_45.json,691902,905270,30,Woman
96,605617,DepthScenes,duration_manipulation_targetAtFixation,jsons/v1_VE250_randls_45.json,http://54.235.29.9/FacialAge/BNav_EC2/DepthDuration/v2_depth_duration_MTurk/v2_DepthDuration_HTML.html#60,60,1280,657,1280,800,8-20-2022,11-19-46,97,depth_duration_stimuli/001570_2014-06-20_17-21-09_260595134347_rgbf000135-resize_4/001570_2014-06-20_17-21-09_260595134347_rgbf000135-resize_4-target.png,250,4.467,30,3325,250,meters,jsons/v1_VE250_randls_45.json,691902,905270,30,Woman
97,605617,DepthScenes,duration_manipulation_targetAtFixation,jsons/v1_VE250_randls_45.json,http://54.235.29.9/FacialAge/BNav_EC2/DepthDuration/v2_depth_duration_MTurk/v2_DepthDuration_HTML.html#60,60,1280,657,1280,800,8-20-2022,11-19-46,98,depth_duration_stimuli/001392_2014-06-19_16-07-59_260595134347_rgbf000046-resize_1/001392_2014-06-19_16-07-59_260595134347_rgbf000046-resize_1-target.png,250,4.135,20,4585,250,meters,jsons/v1_VE250_randls_45.json,691902,905270,30,Woman
98,605617,DepthScenes,duration_manipulation_targetAtFixation,jsons/v1_VE250_randls_45.json,http://54.235.29.9/FacialAge/BNav_EC2/DepthDuration/v2_depth_duration_MTurk/v2_DepthDuration_HTML.html#60,60,1280,657,1280,800,8-20-2022,11-19-46,99,depth_duration_stimuli/001540_2014-06-20_17-01-05_260595134347_rgbf000086-resize_2/001540_2014-06-20_17-01-05_260595134347_rgbf000086-resize-original.jpg,250,1.459,20,3799,245,meters,jsons/v1_VE250_randls_45.json,691902,905270,30,Woman
99,605617,DepthScenes,duration_manipulation_targetAtFixation,jsons/v1_VE250_randls_45.json,http://54.235.29.9/FacialAge/BNav_EC2/DepthDuration/v2_depth_duration_MTurk/v2_DepthDuration_HTML.html#60,60,1280,657,1280,800,8-20-2022,11-19-46,100,depth_duration_stimuli/000493_2014-06-09_21-01-18_260595134347_rgbf000196-resize_3/000493_2014-06-09_21-01-18_260595134347_rgbf000196-resize_3-target.png,250,3.44,74,2836,249,meters,jsons/v1_VE250_randls_45.json,691902,905270,30,Woman
100,605617,DepthScenes,duration_manipulation_targetAtFixation,jsons/v1_VE250_randls_45.json,http://54.235.29.9/FacialAge/BNav_EC2/DepthDuration/v2_depth_duration_MTurk/v2_DepthDuration_HTML.html#60,60,1280,657,1280,800,8-20-2022,11-19-46,101,depth_duration_stimuli/000191_2014-05-12_17-07-38_260595134347_rgbf000199-resize_0/000191_2014-05-12_17-07-38_260595134347_rgbf000199-resize_0-target.png,250,3.7995,50,2451,247,meters,jsons/v1_VE250_randls_45.json,691902,905270,30,Woman
101,605617,DepthScenes,duration_manipulation_targetAtFixation,jsons/v1_VE250_randls_45.json,http://54.235.29.9/FacialAge/BNav_EC2/DepthDuration/v2_depth_duration_MTurk/v2_DepthDuration_HTML.html#60,60,1280,657,1280,800,8-20-2022,11-19-46,102,depth_duration_stimuli/001175_2014-06-17_15-45-55_260595134347_rgbf000129-resize_4/001175_2014-06-17_15-45-55_260595134347_rgbf000129-resize_4-target.png,250,4.255,60,2884,248,meters,jsons/v1_VE250_randls_45.json,691902,905270,30,Woman
102,605617,DepthScenes,duration_manipulation_targetAtFixation,jsons/v1_VE250_randls_45.json,http://54.235.29.9/FacialAge/BNav_EC2/DepthDuration/v2_depth_duration_MTurk/v2_DepthDuration_HTML.html#60,60,1280,657,1280,800,8-20-2022,11-19-46,103,depth_duration_stimuli/003490_2014-05-21_15-50-11_094959634447_rgbf000101-resize_3/003490_2014-05-21_15-50-11_094959634447_rgbf000101-resize_3-target.png,250,3.6445,10,2290,244,meters,jsons/v1_VE250_randls_45.json,691902,905270,30,Woman
103,605617,DepthScenes,duration_manipulation_targetAtFixation,jsons/v1_VE250_randls_45.json,http://54.235.29.9/FacialAge/BNav_EC2/DepthDuration/v2_depth_duration_MTurk/v2_DepthDuration_HTML.html#60,60,1280,657,1280,800,8-20-2022,11-19-46,104,depth_duration_stimuli/001199_2014-06-17_16-03-48_260595134347_rgbf000077-resize_0/001199_2014-06-17_16-03-48_260595134347_rgbf000077-resize_0-target.png,250,3.4375,20,2829,250,meters,jsons/v1_VE250_randls_45.json,691902,905270,30,Woman
104,605617,DepthScenes,duration_manipulation_targetAtFixation,jsons/v1_VE250_randls_45.json,http://54.235.29.9/FacialAge/BNav_EC2/DepthDuration/v2_depth_duration_MTurk/v2_DepthDuration_HTML.html#60,60,1280,657,1280,800,8-20-2022,11-19-46,105,depth_duration_stimuli/000502_2014-06-08_23-02-32_260595134347_rgbf000063-resize_4/000502_2014-06-08_23-02-32_260595134347_rgbf000063-resize_4-target.png,250,2.431,40,2630,251,meters,jsons/v1_VE250_randls_45.json,691902,905270,30,Woman
105,605617,DepthScenes,duration_manipulation_targetAtFixation,jsons/v1_VE250_randls_45.json,http://54.235.29.9/FacialAge/BNav_EC2/DepthDuration/v2_depth_duration_MTurk/v2_DepthDuration_HTML.html#60,60,1280,657,1280,800,8-20-2022,11-19-46,106,depth_duration_stimuli/001016_2014-06-09_16-16-10_260595134347_rgbf000112-resize_5/001016_2014-06-09_16-16-10_260595134347_rgbf000112-resize_5-target.png,250,1.6565,50,2802,249,meters,jsons/v1_VE250_randls_45.json,691902,905270,30,Woman
106,605617,DepthScenes,duration_manipulation_targetAtFixation,jsons/v1_VE250_randls_45.json,http://54.235.29.9/FacialAge/BNav_EC2/DepthDuration/v2_depth_duration_MTurk/v2_DepthDuration_HTML.html#60,60,1280,657,1280,800,8-20-2022,11-19-46,107,depth_duration_stimuli/002340_2014-06-28_20-05-46_260595134347_rgbf000113-resize_0/002340_2014-06-28_20-05-46_260595134347_rgbf000113-resize_0-target.png,250,2.4735,60,2392,248,meters,jsons/v1_VE250_randls_45.json,691902,905270,30,Woman
107,605617,DepthScenes,duration_manipulation_targetAtFixation,jsons/v1_VE250_randls_45.json,http://54.235.29.9/FacialAge/BNav_EC2/DepthDuration/v2_depth_duration_MTurk/v2_DepthDuration_HTML.html#60,60,1280,657,1280,800,8-20-2022,11-19-46,108,depth_duration_stimuli/002630_2014-06-24_14-47-50_094959634447_rgbf000055-resize_1/002630_2014-06-24_14-47-50_094959634447_rgbf000055-resize_1-target.png,250,3.0095,10,2604,251,meters,jsons/v1_VE250_randls_45.json,691902,905270,30,Woman
108,605617,DepthScenes,duration_manipulation_targetAtFixation,jsons/v1_VE250_randls_45.json,http://54.235.29.9/FacialAge/BNav_EC2/DepthDuration/v2_depth_duration_MTurk/v2_DepthDuration_HTML.html#60,60,1280,657,1280,800,8-20-2022,11-19-46,109,depth_duration_stimuli/002758_2014-06-22_19-11-20_094959634447_rgbf000128-resize_1/002758_2014-06-22_19-11-20_094959634447_rgbf000128-resize_1-target.png,250,2.555,20,2269,239,meters,jsons/v1_VE250_randls_45.json,691902,905270,30,Woman
109,605617,DepthScenes,duration_manipulation_targetAtFixation,jsons/v1_VE250_randls_45.json,http://54.235.29.9/FacialAge/BNav_EC2/DepthDuration/v2_depth_duration_MTurk/v2_DepthDuration_HTML.html#60,60,1280,657,1280,800,8-20-2022,11-19-46,110,depth_duration_stimuli/000917_2014-06-09_22-45-29_260595134347_rgbf000149-resize_3/000917_2014-06-09_22-45-29_260595134347_rgbf000149-resize_3-target.png,250,4.1865,30,2687,246,meters,jsons/v1_VE250_randls_45.json,691902,905270,30,Woman
110,605617,DepthScenes,duration_manipulation_targetAtFixation,jsons/v1_VE250_randls_45.json,http://54.235.29.9/FacialAge/BNav_EC2/DepthDuration/v2_depth_duration_MTurk/v2_DepthDuration_HTML.html#60,60,1280,657,1280,800,8-20-2022,11-19-46,111,depth_duration_stimuli/002323_2014-06-28_20-01-54_260595134347_rgbf000051-resize_4/002323_2014-06-28_20-01-54_260595134347_rgbf000051-resize_4-target.png,250,3.7310000000000003,10,2763,248,meters,jsons/v1_VE250_randls_45.json,691902,905270,30,Woman
111,605617,DepthScenes,duration_manipulation_targetAtFixation,jsons/v1_VE250_randls_45.json,http://54.235.29.9/FacialAge/BNav_EC2/DepthDuration/v2_depth_duration_MTurk/v2_DepthDuration_HTML.html#60,60,1280,657,1280,800,8-20-2022,11-19-46,112,depth_duration_stimuli/001055_2014-06-08_18-45-35_260595134347_rgbf000111-resize_4/001055_2014-06-08_18-45-35_260595134347_rgbf000111-resize_4-target.png,250,2.4290000000000003,30,2827,249,meters,jsons/v1_VE250_randls_45.json,691902,905270,30,Woman
112,605617,DepthScenes,duration_manipulation_targetAtFixation,jsons/v1_VE250_randls_45.json,http://54.235.29.9/FacialAge/BNav_EC2/DepthDuration/v2_depth_duration_MTurk/v2_DepthDuration_HTML.html#60,60,1280,657,1280,800,8-20-2022,11-19-46,113,depth_duration_stimuli/000549_2014-06-08_22-10-24_260595134347_rgbf000247-resize_3/000549_2014-06-08_22-10-24_260595134347_rgbf000247-resize_3-target.png,250,1.841,10,28109,245,meters,jsons/v1_VE250_randls_45.json,691902,905270,30,Woman
113,605617,DepthScenes,duration_manipulation_targetAtFixation,jsons/v1_VE250_randls_45.json,http://54.235.29.9/FacialAge/BNav_EC2/DepthDuration/v2_depth_duration_MTurk/v2_DepthDuration_HTML.html#60,60,1280,657,1280,800,8-20-2022,11-19-46,114,depth_duration_stimuli/000469_2014-06-09_19-42-10_260595134347_rgbf000081-resize_1/000469_2014-06-09_19-42-10_260595134347_rgbf000081-resize_1-target.png,250,1.652,20,2604,252,meters,jsons/v1_VE250_randls_45.json,691902,905270,30,Woman
114,605617,DepthScenes,duration_manipulation_targetAtFixation,jsons/v1_VE250_randls_45.json,http://54.235.29.9/FacialAge/BNav_EC2/DepthDuration/v2_depth_duration_MTurk/v2_DepthDuration_HTML.html#60,60,1280,657,1280,800,8-20-2022,11-19-46,115,depth_duration_stimuli/000483_2014-06-09_20-41-45_260595134347_rgbf000116-resize_4/000483_2014-06-09_20-41-45_260595134347_rgbf000116-resize_4-target.png,250,1.337,30,3115,261,meters,jsons/v1_VE250_randls_45.json,691902,905270,30,Woman
115,605617,DepthScenes,duration_manipulation_targetAtFixation,jsons/v1_VE250_randls_45.json,http://54.235.29.9/FacialAge/BNav_EC2/DepthDuration/v2_depth_duration_MTurk/v2_DepthDuration_HTML.html#60,60,1280,657,1280,800,8-20-2022,11-19-46,116,depth_duration_stimuli/001170_2014-06-17_15-43-44_260595134347_rgbf000096-resize_6/001170_2014-06-17_15-43-44_260595134347_rgbf000096-resize-original.jpg,250,1.1909999999999998,40,2926,262,meters,jsons/v1_VE250_randls_45.json,691902,905270,30,Woman
116,605617,DepthScenes,duration_manipulation_targetAtFixation,jsons/v1_VE250_randls_45.json,http://54.235.29.9/FacialAge/BNav_EC2/DepthDuration/v2_depth_duration_MTurk/v2_DepthDuration_HTML.html#60,60,1280,657,1280,800,8-20-2022,11-19-46,117,depth_duration_stimuli/002964_2014-06-08_17-46-11_094959634447_rgbf000091-resize_4/002964_2014-06-08_17-46-11_094959634447_rgbf000091-resize_4-target.png,250,1.6909999999999998,20,2441,247,meters,jsons/v1_VE250_randls_45.json,691902,905270,30,Woman
117,605617,DepthScenes,duration_manipulation_targetAtFixation,jsons/v1_VE250_randls_45.json,http://54.235.29.9/FacialAge/BNav_EC2/DepthDuration/v2_depth_duration_MTurk/v2_DepthDuration_HTML.html#60,60,1280,657,1280,800,8-20-2022,11-19-46,118,depth_duration_stimuli/002136_2014-06-25_21-18-03_260595134347_rgbf000109-resize_3/002136_2014-06-25_21-18-03_260595134347_rgbf000109-resize_3-target.png,250,1.9569999999999999,30,2225,243,meters,jsons/v1_VE250_randls_45.json,691902,905270,30,Woman
118,605617,DepthScenes,duration_manipulation_targetAtFixation,jsons/v1_VE250_randls_45.json,http://54.235.29.9/FacialAge/BNav_EC2/DepthDuration/v2_depth_duration_MTurk/v2_DepthDuration_HTML.html#60,60,1280,657,1280,800,8-20-2022,11-19-46,119,depth_duration_stimuli/001056_2014-06-08_18-46-44_260595134347_rgbf000068-resize_0/001056_2014-06-08_18-46-44_260595134347_rgbf000068-resize_0-target.png,250,2.6625,10,2497,251,meters,jsons/v1_VE250_randls_45.json,691902,905270,30,Woman
119,605617,DepthScenes,duration_manipulation_targetAtFixation,jsons/v1_VE250_randls_45.json,http://54.235.29.9/FacialAge/BNav_EC2/DepthDuration/v2_depth_duration_MTurk/v2_DepthDuration_HTML.html#60,60,1280,657,1280,800,8-20-2022,11-19-46,120,depth_duration_stimuli/002199_2014-06-28_18-33-56_260595134347_rgbf000074-resize_0/002199_2014-06-28_18-33-56_260595134347_rgbf000074-resize_0-target.png,250,1.996,30,2291,252,meters,jsons/v1_VE250_randls_45.json,691902,905270,30,Woman
120,605617,DepthScenes,duration_manipulation_targetAtFixation,jsons/v1_VE250_randls_45.json,http://54.235.29.9/FacialAge/BNav_EC2/DepthDuration/v2_depth_duration_MTurk/v2_DepthDuration_HTML.html#60,60,1280,657,1280,800,8-20-2022,11-19-46,121,depth_duration_stimuli/001167_2014-06-17_15-38-07_260595134347_rgbf000108-resize_0/001167_2014-06-17_15-38-07_260595134347_rgbf000108-resize_0-target.png,250,1.8505,20,3041,250,meters,jsons/v1_VE250_randls_45.json,691902,905270,30,Woman
121,605617,DepthScenes,duration_manipulation_targetAtFixation,jsons/v1_VE250_randls_45.json,http://54.235.29.9/FacialAge/BNav_EC2/DepthDuration/v2_depth_duration_MTurk/v2_DepthDuration_HTML.html#60,60,1280,657,1280,800,8-20-2022,11-19-46,122,depth_duration_stimuli/003587_2014-05-23_16-48-02_094959634447_rgbf002384-resize_2/003587_2014-05-23_16-48-02_094959634447_rgbf002384-resize_2-target.png,250,1.357,40,2365,251,meters,jsons/v1_VE250_randls_45.json,691902,905270,30,Woman
122,605617,DepthScenes,duration_manipulation_targetAtFixation,jsons/v1_VE250_randls_45.json,http://54.235.29.9/FacialAge/BNav_EC2/DepthDuration/v2_depth_duration_MTurk/v2_DepthDuration_HTML.html#60,60,1280,657,1280,800,8-20-2022,11-19-46,123,depth_duration_stimuli/002279_2014-06-28_18-55-32_260595134347_rgbf000040-resize_5/002279_2014-06-28_18-55-32_260595134347_rgbf000040-resize_5-target.png,250,1.5043333333333,30,2657,248,meters,jsons/v1_VE250_randls_45.json,691902,905270,30,Woman
123,605617,DepthScenes,duration_manipulation_targetAtFixation,jsons/v1_VE250_randls_45.json,http://54.235.29.9/FacialAge/BNav_EC2/DepthDuration/v2_depth_duration_MTurk/v2_DepthDuration_HTML.html#60,60,1280,657,1280,800,8-20-2022,11-19-46,124,depth_duration_stimuli/000635_2014-06-08_16-38-42_260595134347_rgbf000106-resize_1/000635_2014-06-08_16-38-42_260595134347_rgbf000106-resize_1-target.png,250,2.074,50,2202,250,meters,jsons/v1_VE250_randls_45.json,691902,905270,30,Woman
124,605617,DepthScenes,duration_manipulation_targetAtFixation,jsons/v1_VE250_randls_45.json,http://54.235.29.9/FacialAge/BNav_EC2/DepthDuration/v2_depth_duration_MTurk/v2_DepthDuration_HTML.html#60,60,1280,657,1280,800,8-20-2022,11-19-46,125,depth_duration_stimuli/002153_2014-06-25_21-27-18_260595134347_rgbf000038-resize_5/002153_2014-06-25_21-27-18_260595134347_rgbf000038-resize_5-target.png,250,2.505,10,2996,252,meters,jsons/v1_VE250_randls_45.json,691902,905270,30,Woman
125,605617,DepthScenes,duration_manipulation_targetAtFixation,jsons/v1_VE250_randls_45.json,http://54.235.29.9/FacialAge/BNav_EC2/DepthDuration/v2_depth_duration_MTurk/v2_DepthDuration_HTML.html#60,60,1280,657,1280,800,8-20-2022,11-19-46,126,depth_duration_stimuli/002660_2014-06-13_15-44-18_094959634447_rgbf001878-resize_2/002660_2014-06-13_15-44-18_094959634447_rgbf001878-resize_2-target.png,250,3.576,30,2313,251,meters,jsons/v1_VE250_randls_45.json,691902,905270,30,Woman
126,605617,DepthScenes,duration_manipulation_targetAtFixation,jsons/v1_VE250_randls_45.json,http://54.235.29.9/FacialAge/BNav_EC2/DepthDuration/v2_depth_duration_MTurk/v2_DepthDuration_HTML.html#60,60,1280,657,1280,800,8-20-2022,11-19-46,127,depth_duration_stimuli/000447_2014-06-08_16-15-46_260595134347_rgbf000130-resize_1/000447_2014-06-08_16-15-46_260595134347_rgbf000130-resize_1-target.png,250,4.479,10,3830,248,meters,jsons/v1_VE250_randls_45.json,691902,905270,30,Woman
127,605617,DepthScenes,duration_manipulation_targetAtFixation,jsons/v1_VE250_randls_45.json,http://54.235.29.9/FacialAge/BNav_EC2/DepthDuration/v2_depth_duration_MTurk/v2_DepthDuration_HTML.html#60,60,1280,657,1280,800,8-20-2022,11-19-46,128,depth_duration_stimuli/001447_2014-06-19_17-00-32_260595134347_rgbf000082-resize_5/001447_2014-06-19_17-00-32_260595134347_rgbf000082-resize_5-target.png,250,4.13775,30,2227,249,meters,jsons/v1_VE250_randls_45.json,691902,905270,30,Woman
128,605617,DepthScenes,duration_manipulation_targetAtFixation,jsons/v1_VE250_randls_45.json,http://54.235.29.9/FacialAge/BNav_EC2/DepthDuration/v2_depth_duration_MTurk/v2_DepthDuration_HTML.html#60,60,1280,657,1280,800,8-20-2022,11-19-46,129,depth_duration_stimuli/001092_2014-06-15_17-34-58_260595134347_rgbf000171-resize_3/001092_2014-06-15_17-34-58_260595134347_rgbf000171-resize_3-target.png,250,2.6935,40,2723,253,meters,jsons/v1_VE250_randls_45.json,691902,905270,30,Woman
129,605617,DepthScenes,duration_manipulation_targetAtFixation,jsons/v1_VE250_randls_45.json,http://54.235.29.9/FacialAge/BNav_EC2/DepthDuration/v2_depth_duration_MTurk/v2_DepthDuration_HTML.html#60,60,1280,657,1280,800,8-20-2022,11-19-46,130,depth_duration_stimuli/002545_2014-06-24_13-38-53_094959634447_rgbf000080-resize_4/002545_2014-06-24_13-38-53_094959634447_rgbf000080-resize_4-target.png,250,1.9205,30,2269,248,meters,jsons/v1_VE250_randls_45.json,691902,905270,30,Woman
130,605617,DepthScenes,duration_manipulation_targetAtFixation,jsons/v1_VE250_randls_45.json,http://54.235.29.9/FacialAge/BNav_EC2/DepthDuration/v2_depth_duration_MTurk/v2_DepthDuration_HTML.html#60,60,1280,657,1280,800,8-20-2022,11-19-46,131,depth_duration_stimuli/000692_2014-06-08_13-09-42_260595134347_rgbf000199-resize_2/000692_2014-06-08_13-09-42_260595134347_rgbf000199-resize_2-target.png,250,3.661,50,2573,255,meters,jsons/v1_VE250_randls_45.json,691902,905270,30,Woman
131,605617,DepthScenes,duration_manipulation_targetAtFixation,jsons/v1_VE250_randls_45.json,http://54.235.29.9/FacialAge/BNav_EC2/DepthDuration/v2_depth_duration_MTurk/v2_DepthDuration_HTML.html#60,60,1280,657,1280,800,8-20-2022,11-19-46,132,depth_duration_stimuli/001094_2014-06-15_17-36-00_260595134347_rgbf000205-resize_0/001094_2014-06-15_17-36-00_260595134347_rgbf000205-resize_0-target.png,250,4.2175,10,2264,249,meters,jsons/v1_VE250_randls_45.json,691902,905270,30,Woman
132,605617,DepthScenes,duration_manipulation_targetAtFixation,jsons/v1_VE250_randls_45.json,http://54.235.29.9/FacialAge/BNav_EC2/DepthDuration/v2_depth_duration_MTurk/v2_DepthDuration_HTML.html#60,60,1280,657,1280,800,8-20-2022,11-19-46,133,depth_duration_stimuli/000878_2014-06-08_22-52-45_260595134347_rgbf000045-resize_2/000878_2014-06-08_22-52-45_260595134347_rgbf000045-resize_2-target.png,250,2.092,20,2567,247,meters,jsons/v1_VE250_randls_45.json,691902,905270,30,Woman
133,605617,DepthScenes,duration_manipulation_targetAtFixation,jsons/v1_VE250_randls_45.json,http://54.235.29.9/FacialAge/BNav_EC2/DepthDuration/v2_depth_duration_MTurk/v2_DepthDuration_HTML.html#60,60,1280,657,1280,800,8-20-2022,11-19-46,134,depth_duration_stimuli/002953_2014-06-08_17-32-18_094959634447_rgbf000059-resize_5/002953_2014-06-08_17-32-18_094959634447_rgbf000059-resize_5-target.png,250,1.551,30,2330,251,meters,jsons/v1_VE250_randls_45.json,691902,905270,30,Woman
134,605617,DepthScenes,duration_manipulation_targetAtFixation,jsons/v1_VE250_randls_45.json,http://54.235.29.9/FacialAge/BNav_EC2/DepthDuration/v2_depth_duration_MTurk/v2_DepthDuration_HTML.html#60,60,1280,657,1280,800,8-20-2022,11-19-46,135,depth_duration_stimuli/002072_2014-06-24_21-48-06_260595134347_rgbf000115-resize_0/002072_2014-06-24_21-48-06_260595134347_rgbf000115-resize-original.jpg,250,4.702,40,3138,248,meters,jsons/v1_VE250_randls_45.json,691902,905270,30,Woman
135,605617,DepthScenes,duration_manipulation_targetAtFixation,jsons/v1_VE250_randls_45.json,http://54.235.29.9/FacialAge/BNav_EC2/DepthDuration/v2_depth_duration_MTurk/v2_DepthDuration_HTML.html#60,60,1280,657,1280,800,8-20-2022,11-19-46,136,depth_duration_stimuli/002905_2014-06-03_18-04-43_094959634447_rgbf000151-resize_2/002905_2014-06-03_18-04-43_094959634447_rgbf000151-resize_2-target.png,250,2.0295,82,2967,249,meters,jsons/v1_VE250_randls_45.json,691902,905270,30,Woman
136,605617,DepthScenes,duration_manipulation_targetAtFixation,jsons/v1_VE250_randls_45.json,http://54.235.29.9/FacialAge/BNav_EC2/DepthDuration/v2_depth_duration_MTurk/v2_DepthDuration_HTML.html#60,60,1280,657,1280,800,8-20-2022,11-19-46,137,depth_duration_stimuli/003423_2014-05-21_10-23-26_094959634447_rgbf002665-resize_2/003423_2014-05-21_10-23-26_094959634447_rgbf002665-resize_2-target.png,250,3.2575,15,2459,246,meters,jsons/v1_VE250_randls_45.json,691902,905270,30,Woman
137,605617,DepthScenes,duration_manipulation_targetAtFixation,jsons/v1_VE250_randls_45.json,http://54.235.29.9/FacialAge/BNav_EC2/DepthDuration/v2_depth_duration_MTurk/v2_DepthDuration_HTML.html#60,60,1280,657,1280,800,8-20-2022,11-19-46,138,depth_duration_stimuli/001029_2014-06-08_13-17-57_260595134347_rgbf000065-resize_1/001029_2014-06-08_13-17-57_260595134347_rgbf000065-resize_1-target.png,250,3.0835,20,2362,250,meters,jsons/v1_VE250_randls_45.json,691902,905270,30,Woman
138,605617,DepthScenes,duration_manipulation_targetAtFixation,jsons/v1_VE250_randls_45.json,http://54.235.29.9/FacialAge/BNav_EC2/DepthDuration/v2_depth_duration_MTurk/v2_DepthDuration_HTML.html#60,60,1280,657,1280,800,8-20-2022,11-19-46,139,depth_duration_stimuli/000677_2014-06-08_23-10-32_260595134347_rgbf000158-resize_6/000677_2014-06-08_23-10-32_260595134347_rgbf000158-resize_6-target.png,250,3.556,60,2452,250,meters,jsons/v1_VE250_randls_45.json,691902,905270,30,Woman
139,605617,DepthScenes,duration_manipulation_targetAtFixation,jsons/v1_VE250_randls_45.json,http://54.235.29.9/FacialAge/BNav_EC2/DepthDuration/v2_depth_duration_MTurk/v2_DepthDuration_HTML.html#60,60,1280,657,1280,800,8-20-2022,11-19-46,140,depth_duration_stimuli/002989_2014-06-15_12-25-03_094959634447_rgbf000150-resize_3/002989_2014-06-15_12-25-03_094959634447_rgbf000150-resize_3-target.png,250,4.1975,20,2668,252,meters,jsons/v1_VE250_randls_45.json,691902,905270,30,Woman
140,605617,DepthScenes,duration_manipulation_targetAtFixation,jsons/v1_VE250_randls_45.json,http://54.235.29.9/FacialAge/BNav_EC2/DepthDuration/v2_depth_duration_MTurk/v2_DepthDuration_HTML.html#60,60,1280,657,1280,800,8-20-2022,11-19-46,141,depth_duration_stimuli/000866_2014-06-09_20-45-42_260595134347_rgbf000139-resize_1/000866_2014-06-09_20-45-42_260595134347_rgbf000139-resize_1-target.png,250,3.2155,30,2854,251,meters,jsons/v1_VE250_randls_45.json,691902,905270,30,Woman
141,605617,DepthScenes,duration_manipulation_targetAtFixation,jsons/v1_VE250_randls_45.json,http://54.235.29.9/FacialAge/BNav_EC2/DepthDuration/v2_depth_duration_MTurk/v2_DepthDuration_HTML.html#60,60,1280,657,1280,800,8-20-2022,11-19-46,142,depth_duration_stimuli/001150_2014-06-17_15-27-34_260595134347_rgbf000108-resize_2/001150_2014-06-17_15-27-34_260595134347_rgbf000108-resize_2-target.png,250,4.0325,40,2708,250,meters,jsons/v1_VE250_randls_45.json,691902,905270,30,Woman
142,605617,DepthScenes,duration_manipulation_targetAtFixation,jsons/v1_VE250_randls_45.json,http://54.235.29.9/FacialAge/BNav_EC2/DepthDuration/v2_depth_duration_MTurk/v2_DepthDuration_HTML.html#60,60,1280,657,1280,800,8-20-2022,11-19-46,143,depth_duration_stimuli/000665_2014-06-09_20-42-35_260595134347_rgbf000110-resize_1/000665_2014-06-09_20-42-35_260595134347_rgbf000110-resize_1-target.png,250,3.057,30,2623,248,meters,jsons/v1_VE250_randls_45.json,691902,905270,30,Woman
143,605617,DepthScenes,duration_manipulation_targetAtFixation,jsons/v1_VE250_randls_45.json,http://54.235.29.9/FacialAge/BNav_EC2/DepthDuration/v2_depth_duration_MTurk/v2_DepthDuration_HTML.html#60,60,1280,657,1280,800,8-20-2022,11-19-46,144,depth_duration_stimuli/001066_2014-06-08_22-03-20_260595134347_rgbf000066-resize_4/001066_2014-06-08_22-03-20_260595134347_rgbf000066-resize_4-target.png,250,4.2330000000000005,30,2630,252,meters,jsons/v1_VE250_randls_45.json,691902,905270,30,Woman
144,605617,DepthScenes,duration_manipulation_targetAtFixation,jsons/v1_VE250_randls_45.json,http://54.235.29.9/FacialAge/BNav_EC2/DepthDuration/v2_depth_duration_MTurk/v2_DepthDuration_HTML.html#60,60,1280,657,1280,800,8-20-2022,11-19-46,145,depth_duration_stimuli/000742_2014-06-08_18-48-09_260595134347_rgbf000164-resize_4/000742_2014-06-08_18-48-09_260595134347_rgbf000164-resize_4-target.png,250,4.632,50,2674,249,meters,jsons/v1_VE250_randls_45.json,691902,905270,30,Woman
145,605617,DepthScenes,duration_manipulation_targetAtFixation,jsons/v1_VE250_randls_45.json,http://54.235.29.9/FacialAge/BNav_EC2/DepthDuration/v2_depth_duration_MTurk/v2_DepthDuration_HTML.html#60,60,1280,657,1280,800,8-20-2022,11-19-46,146,depth_duration_stimuli/001498_2014-06-19_17-45-14_260595134347_rgbf000129-resize_4/001498_2014-06-19_17-45-14_260595134347_rgbf000129-resize-original.jpg,250,1.4075,30,2411,248,meters,jsons/v1_VE250_randls_45.json,691902,905270,30,Woman
146,605617,DepthScenes,duration_manipulation_targetAtFixation,jsons/v1_VE250_randls_45.json,http://54.235.29.9/FacialAge/BNav_EC2/DepthDuration/v2_depth_duration_MTurk/v2_DepthDuration_HTML.html#60,60,1280,657,1280,800,8-20-2022,11-19-46,147,depth_duration_stimuli/000506_2014-06-08_23-21-00_260595134347_rgbf000070-resize_7/000506_2014-06-08_23-21-00_260595134347_rgbf000070-resize_7-target.png,250,4.0585,30,2334,250,meters,jsons/v1_VE250_randls_45.json,691902,905270,30,Woman
147,605617,DepthScenes,duration_manipulation_targetAtFixation,jsons/v1_VE250_randls_45.json,http://54.235.29.9/FacialAge/BNav_EC2/DepthDuration/v2_depth_duration_MTurk/v2_DepthDuration_HTML.html#60,60,1280,657,1280,800,8-20-2022,11-19-46,148,depth_duration_stimuli/003079_2014-06-15_15-18-20_094959634447_rgbf000152-resize_8/003079_2014-06-15_15-18-20_094959634447_rgbf000152-resize_8-target.png,250,2.8775,70,2480,252,meters,jsons/v1_VE250_randls_45.json,691902,905270,30,Woman
148,605617,DepthScenes,duration_manipulation_targetAtFixation,jsons/v1_VE250_randls_45.json,http://54.235.29.9/FacialAge/BNav_EC2/DepthDuration/v2_depth_duration_MTurk/v2_DepthDuration_HTML.html#60,60,1280,657,1280,800,8-20-2022,11-19-46,149,depth_duration_stimuli/001164_2014-06-17_15-35-46_260595134347_rgbf000085-resize_3/001164_2014-06-17_15-35-46_260595134347_rgbf000085-resize_3-target.png,250,2.354,10,2760,249,meters,jsons/v1_VE250_randls_45.json,691902,905270,30,Woman
149,605617,DepthScenes,duration_manipulation_targetAtFixation,jsons/v1_VE250_randls_45.json,http://54.235.29.9/FacialAge/BNav_EC2/DepthDuration/v2_depth_duration_MTurk/v2_DepthDuration_HTML.html#60,60,1280,657,1280,800,8-20-2022,11-19-46,150,depth_duration_stimuli/001136_2014-06-17_15-19-41_260595134347_rgbf000076-resize_3/001136_2014-06-17_15-19-41_260595134347_rgbf000076-resize_3-target.png,250,1.8655,20,2510,249,meters,jsons/v1_VE250_randls_45.json,691902,905270,30,Woman
150,605617,DepthScenes,duration_manipulation_targetAtFixation,jsons/v1_VE250_randls_45.json,http://54.235.29.9/FacialAge/BNav_EC2/DepthDuration/v2_depth_duration_MTurk/v2_DepthDuration_HTML.html#60,60,1280,657,1280,800,8-20-2022,11-19-46,151,depth_duration_stimuli/000368_2014-06-09_15-53-01_260595134347_rgbf000155-resize_2/000368_2014-06-09_15-53-01_260595134347_rgbf000155-resize_2-target.png,250,2.4859999999999998,30,3132,250,meters,jsons/v1_VE250_randls_45.json,691902,905270,30,Woman
151,605617,DepthScenes,duration_manipulation_targetAtFixation,jsons/v1_VE250_randls_45.json,http://54.235.29.9/FacialAge/BNav_EC2/DepthDuration/v2_depth_duration_MTurk/v2_DepthDuration_HTML.html#60,60,1280,657,1280,800,8-20-2022,11-19-46,152,depth_duration_stimuli/002678_2014-06-13_16-15-32_094959634447_rgbf000151-resize_6/002678_2014-06-13_16-15-32_094959634447_rgbf000151-resize_6-target.png,250,2.1830000000000003,40,2811,251,meters,jsons/v1_VE250_randls_45.json,691902,905270,30,Woman
152,605617,DepthScenes,duration_manipulation_targetAtFixation,jsons/v1_VE250_randls_45.json,http://54.235.29.9/FacialAge/BNav_EC2/DepthDuration/v2_depth_duration_MTurk/v2_DepthDuration_HTML.html#60,60,1280,657,1280,800,8-20-2022,11-19-46,153,depth_duration_stimuli/003621_2014-05-23_18-06-08_094959634447_rgbf000101-resize_1/003621_2014-05-23_18-06-08_094959634447_rgbf000101-resize_1-target.png,250,3.9835,50,2646,249,meters,jsons/v1_VE250_randls_45.json,691902,905270,30,Woman
153,605617,DepthScenes,duration_manipulation_targetAtFixation,jsons/v1_VE250_randls_45.json,http://54.235.29.9/FacialAge/BNav_EC2/DepthDuration/v2_depth_duration_MTurk/v2_DepthDuration_HTML.html#60,60,1280,657,1280,800,8-20-2022,11-19-46,154,depth_duration_stimuli/001584_2014-06-20_11-07-43_260595134347_rgbf000002-resize_1/001584_2014-06-20_11-07-43_260595134347_rgbf000002-resize_1-target.png,250,3.53,60,5336,249,meters,jsons/v1_VE250_randls_45.json,691902,905270,30,Woman
154,605617,DepthScenes,duration_manipulation_targetAtFixation,jsons/v1_VE250_randls_45.json,http://54.235.29.9/FacialAge/BNav_EC2/DepthDuration/v2_depth_duration_MTurk/v2_DepthDuration_HTML.html#60,60,1280,657,1280,800,8-20-2022,11-19-46,155,depth_duration_stimuli/000009_2014-05-26_14-32-05_260595134347_rgbf000034-resize_3/000009_2014-05-26_14-32-05_260595134347_rgbf000034-resize_3-target.png,250,3.8715,40,2750,249,meters,jsons/v1_VE250_randls_45.json,691902,905270,30,Woman
155,605617,DepthScenes,duration_manipulation_targetAtFixation,jsons/v1_VE250_randls_45.json,http://54.235.29.9/FacialAge/BNav_EC2/DepthDuration/v2_depth_duration_MTurk/v2_DepthDuration_HTML.html#60,60,1280,657,1280,800,8-20-2022,11-19-46,156,depth_duration_stimuli/001828_2014-06-26_21-40-03_260595134347_rgbf000024-resize_0/001828_2014-06-26_21-40-03_260595134347_rgbf000024-resize_0-target.png,250,4.8260000000000005,20,2463,253,meters,jsons/v1_VE250_randls_45.json,691902,905270,30,Woman
156,605617,DepthScenes,duration_manipulation_targetAtFixation,jsons/v1_VE250_randls_45.json,http://54.235.29.9/FacialAge/BNav_EC2/DepthDuration/v2_depth_duration_MTurk/v2_DepthDuration_HTML.html#60,60,1280,657,1280,800,8-20-2022,11-19-46,157,depth_duration_stimuli/002445_2014-06-28_20-32-16_260595134347_rgbf000029-resize_4/002445_2014-06-28_20-32-16_260595134347_rgbf000029-resize_4-target.png,250,2.5315,30,2786,249,meters,jsons/v1_VE250_randls_45.json,691902,905270,30,Woman
157,605617,DepthScenes,duration_manipulation_targetAtFixation,jsons/v1_VE250_randls_45.json,http://54.235.29.9/FacialAge/BNav_EC2/DepthDuration/v2_depth_duration_MTurk/v2_DepthDuration_HTML.html#60,60,1280,657,1280,800,8-20-2022,11-19-46,158,depth_duration_stimuli/000780_2014-06-08_22-28-29_260595134347_rgbf000126-resize_1/000780_2014-06-08_22-28-29_260595134347_rgbf000126-resize_1-target.png,250,3.3825,40,2550,249,meters,jsons/v1_VE250_randls_45.json,691902,905270,30,Woman
158,605617,DepthScenes,duration_manipulation_targetAtFixation,jsons/v1_VE250_randls_45.json,http://54.235.29.9/FacialAge/BNav_EC2/DepthDuration/v2_depth_duration_MTurk/v2_DepthDuration_HTML.html#60,60,1280,657,1280,800,8-20-2022,11-19-46,159,depth_duration_stimuli/002748_2014-06-22_19-07-22_094959634447_rgbf000078-resize_1/002748_2014-06-22_19-07-22_094959634447_rgbf000078-resize_1-target.png,250,4.6705,10,2609,249,meters,jsons/v1_VE250_randls_45.json,691902,905270,30,Woman
159,605617,DepthScenes,duration_manipulation_targetAtFixation,jsons/v1_VE250_randls_45.json,http://54.235.29.9/FacialAge/BNav_EC2/DepthDuration/v2_depth_duration_MTurk/v2_DepthDuration_HTML.html#60,60,1280,657,1280,800,8-20-2022,11-19-46,160,depth_duration_stimuli/002995_2014-06-15_12-31-26_094959634447_rgbf000150-resize_1/002995_2014-06-15_12-31-26_094959634447_rgbf000150-resize_1-target.png,250,3.8360000000000003,20,2173,249,meters,jsons/v1_VE250_randls_45.json,691902,905270,30,Woman
160,605617,DepthScenes,duration_manipulation_targetAtFixation,jsons/v1_VE250_randls_45.json,http://54.235.29.9/FacialAge/BNav_EC2/DepthDuration/v2_depth_duration_MTurk/v2_DepthDuration_HTML.html#60,60,1280,657,1280,800,8-20-2022,11-19-46,161,depth_duration_stimuli/002272_2014-06-28_18-53-56_260595134347_rgbf000067-resize_2/002272_2014-06-28_18-53-56_260595134347_rgbf000067-resize_2-target.png,250,1.138,10,2522,249,meters,jsons/v1_VE250_randls_45.json,691902,905270,30,Woman
161,605617,DepthScenes,duration_manipulation_targetAtFixation,jsons/v1_VE250_randls_45.json,http://54.235.29.9/FacialAge/BNav_EC2/DepthDuration/v2_depth_duration_MTurk/v2_DepthDuration_HTML.html#60,60,1280,657,1280,800,8-20-2022,11-19-46,162,depth_duration_stimuli/001571_2014-06-20_17-21-32_260595134347_rgbf000089-resize_1/001571_2014-06-20_17-21-32_260595134347_rgbf000089-resize_1-target.png,250,1.86,30,2363,249,meters,jsons/v1_VE250_randls_45.json,691902,905270,30,Woman
162,605617,DepthScenes,duration_manipulation_targetAtFixation,jsons/v1_VE250_randls_45.json,http://54.235.29.9/FacialAge/BNav_EC2/DepthDuration/v2_depth_duration_MTurk/v2_DepthDuration_HTML.html#60,60,1280,657,1280,800,8-20-2022,11-19-46,163,depth_duration_stimuli/003070_2014-06-15_14-58-27_094959634447_rgbf000150-resize_3/003070_2014-06-15_14-58-27_094959634447_rgbf000150-resize_3-target.png,250,2.9415,50,4924,249,meters,jsons/v1_VE250_randls_45.json,691902,905270,30,Woman
163,605617,DepthScenes,duration_manipulation_targetAtFixation,jsons/v1_VE250_randls_45.json,http://54.235.29.9/FacialAge/BNav_EC2/DepthDuration/v2_depth_duration_MTurk/v2_DepthDuration_HTML.html#60,60,1280,657,1280,800,8-20-2022,11-19-46,164,depth_duration_stimuli/000943_2014-06-09_19-31-07_260595134347_rgbf000128-resize_1/000943_2014-06-09_19-31-07_260595134347_rgbf000128-resize_1-target.png,250,1.9765,10,3696,250,meters,jsons/v1_VE250_randls_45.json,691902,905270,30,Woman
