,subjID,experimentName,versionName,sequenceName,url,selected_row,windowWidth,windowHeight,screenWidth,screenHeight,startDate,startTime,trial,stimulus,duration,actual_depth,depth_estimate,trial_RT,log_sceneDuration,unitSelection,seq_filepath,experimentTime,totalTime,age,gender
0,606227,DepthScenes,duration_manipulation_targetAtFixation,jsons/VE125_randls_11.json,http://54.235.29.9/FacialAge/BNav_EC2/DepthDuration/v2_depth_duration_MTurk/v2_DepthDuration_HTML.html#287,287,1279,609,1280,720,8-29-2022,17-14-37,1,depth_duration_stimuli/000414_2014-06-04_19-49-13_260595134347_rgbf000044-resize_0/000414_2014-06-04_19-49-13_260595134347_rgbf000044-resize_0-target.png,125,4.329,10,4667,126,feet,jsons/VE125_randls_11.json,651823,869501,44,Woman
1,606227,DepthScenes,duration_manipulation_targetAtFixation,jsons/VE125_randls_11.json,http://54.235.29.9/FacialAge/BNav_EC2/DepthDuration/v2_depth_duration_MTurk/v2_DepthDuration_HTML.html#287,287,1279,609,1280,720,8-29-2022,17-14-37,2,depth_duration_stimuli/003129_2014-05-12_10-48-10_094959634447_rgbf000100-resize_0/003129_2014-05-12_10-48-10_094959634447_rgbf000100-resize_0-target.png,125,4.9305,10,5841,124,feet,jsons/VE125_randls_11.json,651823,869501,44,Woman
2,606227,DepthScenes,duration_manipulation_targetAtFixation,jsons/VE125_randls_11.json,http://54.235.29.9/FacialAge/BNav_EC2/DepthDuration/v2_depth_duration_MTurk/v2_DepthDuration_HTML.html#287,287,1279,609,1280,720,8-29-2022,17-14-37,3,depth_duration_stimuli/002153_2014-06-25_21-27-18_260595134347_rgbf000038-resize_5/002153_2014-06-25_21-27-18_260595134347_rgbf000038-resize_5-target.png,125,2.505,5,4283,136,feet,jsons/VE125_randls_11.json,651823,869501,44,Woman
3,606227,DepthScenes,duration_manipulation_targetAtFixation,jsons/VE125_randls_11.json,http://54.235.29.9/FacialAge/BNav_EC2/DepthDuration/v2_depth_duration_MTurk/v2_DepthDuration_HTML.html#287,287,1279,609,1280,720,8-29-2022,17-14-37,4,depth_duration_stimuli/002660_2014-06-13_15-44-18_094959634447_rgbf001878-resize_2/002660_2014-06-13_15-44-18_094959634447_rgbf001878-resize_2-target.png,125,3.576,8,3971,118,feet,jsons/VE125_randls_11.json,651823,869501,44,Woman
4,606227,DepthScenes,duration_manipulation_targetAtFixation,jsons/VE125_randls_11.json,http://54.235.29.9/FacialAge/BNav_EC2/DepthDuration/v2_depth_duration_MTurk/v2_DepthDuration_HTML.html#287,287,1279,609,1280,720,8-29-2022,17-14-37,5,depth_duration_stimuli/002788_2014-06-22_19-36-03_094959634447_rgbf000088-resize_2/002788_2014-06-22_19-36-03_094959634447_rgbf000088-resize_2-target.png,125,1.6465,7,5832,124,feet,jsons/VE125_randls_11.json,651823,869501,44,Woman
5,606227,DepthScenes,duration_manipulation_targetAtFixation,jsons/VE125_randls_11.json,http://54.235.29.9/FacialAge/BNav_EC2/DepthDuration/v2_depth_duration_MTurk/v2_DepthDuration_HTML.html#287,287,1279,609,1280,720,8-29-2022,17-14-37,6,depth_duration_stimuli/000749_2014-06-08_21-55-06_260595134347_rgbf000070-resize_2/000749_2014-06-08_21-55-06_260595134347_rgbf000070-resize_2-target.png,125,2.331,5,3739,132,feet,jsons/VE125_randls_11.json,651823,869501,44,Woman
6,606227,DepthScenes,duration_manipulation_targetAtFixation,jsons/VE125_randls_11.json,http://54.235.29.9/FacialAge/BNav_EC2/DepthDuration/v2_depth_duration_MTurk/v2_DepthDuration_HTML.html#287,287,1279,609,1280,720,8-29-2022,17-14-37,7,depth_duration_stimuli/000810_2014-06-08_17-20-01_260595134347_rgbf000105-resize_0/000810_2014-06-08_17-20-01_260595134347_rgbf000105-resize_0-target.png,125,1.4865,4,3842,112,feet,jsons/VE125_randls_11.json,651823,869501,44,Woman
7,606227,DepthScenes,duration_manipulation_targetAtFixation,jsons/VE125_randls_11.json,http://54.235.29.9/FacialAge/BNav_EC2/DepthDuration/v2_depth_duration_MTurk/v2_DepthDuration_HTML.html#287,287,1279,609,1280,720,8-29-2022,17-14-37,8,depth_duration_stimuli/001214_2014-06-17_16-13-55_260595134347_rgbf000111-resize_0/001214_2014-06-17_16-13-55_260595134347_rgbf000111-resize_0-target.png,125,2.6505,4,3489,125,feet,jsons/VE125_randls_11.json,651823,869501,44,Woman
8,606227,DepthScenes,duration_manipulation_targetAtFixation,jsons/VE125_randls_11.json,http://54.235.29.9/FacialAge/BNav_EC2/DepthDuration/v2_depth_duration_MTurk/v2_DepthDuration_HTML.html#287,287,1279,609,1280,720,8-29-2022,17-14-37,9,depth_duration_stimuli/000736_2014-06-08_18-24-15_260595134347_rgbf000206-resize_3/000736_2014-06-08_18-24-15_260595134347_rgbf000206-resize_3-target.png,125,3.515,5,3369,124,feet,jsons/VE125_randls_11.json,651823,869501,44,Woman
9,606227,DepthScenes,duration_manipulation_targetAtFixation,jsons/VE125_randls_11.json,http://54.235.29.9/FacialAge/BNav_EC2/DepthDuration/v2_depth_duration_MTurk/v2_DepthDuration_HTML.html#287,287,1279,609,1280,720,8-29-2022,17-14-37,10,depth_duration_stimuli/000137_2014-05-20_17-04-49_260595134347_rgbf000120-resize_1/000137_2014-05-20_17-04-49_260595134347_rgbf000120-resize_1-target.png,125,3.786,8,6876,121,feet,jsons/VE125_randls_11.json,651823,869501,44,Woman
10,606227,DepthScenes,duration_manipulation_targetAtFixation,jsons/VE125_randls_11.json,http://54.235.29.9/FacialAge/BNav_EC2/DepthDuration/v2_depth_duration_MTurk/v2_DepthDuration_HTML.html#287,287,1279,609,1280,720,8-29-2022,17-14-37,11,depth_duration_stimuli/001110_2014-06-15_17-25-28_260595134347_rgbf000150-resize_1/001110_2014-06-15_17-25-28_260595134347_rgbf000150-resize_1-target.png,125,1.7115,4,6074,125,feet,jsons/VE125_randls_11.json,651823,869501,44,Woman
11,606227,DepthScenes,duration_manipulation_targetAtFixation,jsons/VE125_randls_11.json,http://54.235.29.9/FacialAge/BNav_EC2/DepthDuration/v2_depth_duration_MTurk/v2_DepthDuration_HTML.html#287,287,1279,609,1280,720,8-29-2022,17-14-37,12,depth_duration_stimuli/000927_2014-06-09_16-32-30_260595134347_rgbf000123-resize_3/000927_2014-06-09_16-32-30_260595134347_rgbf000123-resize_3-target.png,125,2.6785,6,3867,124,feet,jsons/VE125_randls_11.json,651823,869501,44,Woman
12,606227,DepthScenes,duration_manipulation_targetAtFixation,jsons/VE125_randls_11.json,http://54.235.29.9/FacialAge/BNav_EC2/DepthDuration/v2_depth_duration_MTurk/v2_DepthDuration_HTML.html#287,287,1279,609,1280,720,8-29-2022,17-14-37,13,depth_duration_stimuli/000569_2014-06-09_22-51-47_260595134347_rgbf000141-resize_3/000569_2014-06-09_22-51-47_260595134347_rgbf000141-resize-original.jpg,125,4.512,0,3048,124,feet,jsons/VE125_randls_11.json,651823,869501,44,Woman
13,606227,DepthScenes,duration_manipulation_targetAtFixation,jsons/VE125_randls_11.json,http://54.235.29.9/FacialAge/BNav_EC2/DepthDuration/v2_depth_duration_MTurk/v2_DepthDuration_HTML.html#287,287,1279,609,1280,720,8-29-2022,17-14-37,14,depth_duration_stimuli/002509_2014-06-24_13-19-22_094959634447_rgbf000077-resize_0/002509_2014-06-24_13-19-22_094959634447_rgbf000077-resize_0-target.png,125,1.3065,3,3523,126,feet,jsons/VE125_randls_11.json,651823,869501,44,Woman
14,606227,DepthScenes,duration_manipulation_targetAtFixation,jsons/VE125_randls_11.json,http://54.235.29.9/FacialAge/BNav_EC2/DepthDuration/v2_depth_duration_MTurk/v2_DepthDuration_HTML.html#287,287,1279,609,1280,720,8-29-2022,17-14-37,15,depth_duration_stimuli/003338_2014-05-20_11-01-23_094959634447_rgbf000051-resize_6/003338_2014-05-20_11-01-23_094959634447_rgbf000051-resize_6-target.png,125,1.693,3,3170,128,feet,jsons/VE125_randls_11.json,651823,869501,44,Woman
15,606227,DepthScenes,duration_manipulation_targetAtFixation,jsons/VE125_randls_11.json,http://54.235.29.9/FacialAge/BNav_EC2/DepthDuration/v2_depth_duration_MTurk/v2_DepthDuration_HTML.html#287,287,1279,609,1280,720,8-29-2022,17-14-37,16,depth_duration_stimuli/002905_2014-06-03_18-04-43_094959634447_rgbf000151-resize_2/002905_2014-06-03_18-04-43_094959634447_rgbf000151-resize_2-target.png,125,2.0295,4,4317,123,feet,jsons/VE125_randls_11.json,651823,869501,44,Woman
16,606227,DepthScenes,duration_manipulation_targetAtFixation,jsons/VE125_randls_11.json,http://54.235.29.9/FacialAge/BNav_EC2/DepthDuration/v2_depth_duration_MTurk/v2_DepthDuration_HTML.html#287,287,1279,609,1280,720,8-29-2022,17-14-37,17,depth_duration_stimuli/003423_2014-05-21_10-23-26_094959634447_rgbf002665-resize_2/003423_2014-05-21_10-23-26_094959634447_rgbf002665-resize_2-target.png,125,3.2575,12,3883,116,feet,jsons/VE125_randls_11.json,651823,869501,44,Woman
17,606227,DepthScenes,duration_manipulation_targetAtFixation,jsons/VE125_randls_11.json,http://54.235.29.9/FacialAge/BNav_EC2/DepthDuration/v2_depth_duration_MTurk/v2_DepthDuration_HTML.html#287,287,1279,609,1280,720,8-29-2022,17-14-37,18,depth_duration_stimuli/000878_2014-06-08_22-52-45_260595134347_rgbf000045-resize_2/000878_2014-06-08_22-52-45_260595134347_rgbf000045-resize_2-target.png,125,2.092,3,3149,117,feet,jsons/VE125_randls_11.json,651823,869501,44,Woman
18,606227,DepthScenes,duration_manipulation_targetAtFixation,jsons/VE125_randls_11.json,http://54.235.29.9/FacialAge/BNav_EC2/DepthDuration/v2_depth_duration_MTurk/v2_DepthDuration_HTML.html#287,287,1279,609,1280,720,8-29-2022,17-14-37,19,depth_duration_stimuli/002953_2014-06-08_17-32-18_094959634447_rgbf000059-resize_5/002953_2014-06-08_17-32-18_094959634447_rgbf000059-resize_5-target.png,125,1.551,3,2878,128,feet,jsons/VE125_randls_11.json,651823,869501,44,Woman
19,606227,DepthScenes,duration_manipulation_targetAtFixation,jsons/VE125_randls_11.json,http://54.235.29.9/FacialAge/BNav_EC2/DepthDuration/v2_depth_duration_MTurk/v2_DepthDuration_HTML.html#287,287,1279,609,1280,720,8-29-2022,17-14-37,20,depth_duration_stimuli/002272_2014-06-28_18-53-56_260595134347_rgbf000067-resize_2/002272_2014-06-28_18-53-56_260595134347_rgbf000067-resize_2-target.png,125,1.138,3,2588,127,feet,jsons/VE125_randls_11.json,651823,869501,44,Woman
20,606227,DepthScenes,duration_manipulation_targetAtFixation,jsons/VE125_randls_11.json,http://54.235.29.9/FacialAge/BNav_EC2/DepthDuration/v2_depth_duration_MTurk/v2_DepthDuration_HTML.html#287,287,1279,609,1280,720,8-29-2022,17-14-37,21,depth_duration_stimuli/001571_2014-06-20_17-21-32_260595134347_rgbf000089-resize_1/001571_2014-06-20_17-21-32_260595134347_rgbf000089-resize_1-target.png,125,1.86,3,2730,126,feet,jsons/VE125_randls_11.json,651823,869501,44,Woman
21,606227,DepthScenes,duration_manipulation_targetAtFixation,jsons/VE125_randls_11.json,http://54.235.29.9/FacialAge/BNav_EC2/DepthDuration/v2_depth_duration_MTurk/v2_DepthDuration_HTML.html#287,287,1279,609,1280,720,8-29-2022,17-14-37,22,depth_duration_stimuli/001055_2014-06-08_18-45-35_260595134347_rgbf000111-resize_4/001055_2014-06-08_18-45-35_260595134347_rgbf000111-resize_4-target.png,125,2.4290000000000003,4,3609,125,feet,jsons/VE125_randls_11.json,651823,869501,44,Woman
22,606227,DepthScenes,duration_manipulation_targetAtFixation,jsons/VE125_randls_11.json,http://54.235.29.9/FacialAge/BNav_EC2/DepthDuration/v2_depth_duration_MTurk/v2_DepthDuration_HTML.html#287,287,1279,609,1280,720,8-29-2022,17-14-37,23,depth_duration_stimuli/000549_2014-06-08_22-10-24_260595134347_rgbf000247-resize_3/000549_2014-06-08_22-10-24_260595134347_rgbf000247-resize_3-target.png,125,1.841,3,4123,125,feet,jsons/VE125_randls_11.json,651823,869501,44,Woman
23,606227,DepthScenes,duration_manipulation_targetAtFixation,jsons/VE125_randls_11.json,http://54.235.29.9/FacialAge/BNav_EC2/DepthDuration/v2_depth_duration_MTurk/v2_DepthDuration_HTML.html#287,287,1279,609,1280,720,8-29-2022,17-14-37,24,depth_duration_stimuli/002725_2014-06-22_11-47-51_094959634447_rgbf000070-resize_1/002725_2014-06-22_11-47-51_094959634447_rgbf000070-resize_1-target.png,125,2.195,6,4052,115,feet,jsons/VE125_randls_11.json,651823,869501,44,Woman
24,606227,DepthScenes,duration_manipulation_targetAtFixation,jsons/VE125_randls_11.json,http://54.235.29.9/FacialAge/BNav_EC2/DepthDuration/v2_depth_duration_MTurk/v2_DepthDuration_HTML.html#287,287,1279,609,1280,720,8-29-2022,17-14-37,25,depth_duration_stimuli/002344_2014-06-28_20-06-29_260595134347_rgbf000030-resize_1/002344_2014-06-28_20-06-29_260595134347_rgbf000030-resize_1-target.png,125,1.5795,3,3094,124,feet,jsons/VE125_randls_11.json,651823,869501,44,Woman
25,606227,DepthScenes,duration_manipulation_targetAtFixation,jsons/VE125_randls_11.json,http://54.235.29.9/FacialAge/BNav_EC2/DepthDuration/v2_depth_duration_MTurk/v2_DepthDuration_HTML.html#287,287,1279,609,1280,720,8-29-2022,17-14-37,26,depth_duration_stimuli/003292_2014-05-14_21-53-49_094959634447_rgbf000100-resize_2/003292_2014-05-14_21-53-49_094959634447_rgbf000100-resize_2-target.png,125,3.4815,6,2953,119,feet,jsons/VE125_randls_11.json,651823,869501,44,Woman
26,606227,DepthScenes,duration_manipulation_targetAtFixation,jsons/VE125_randls_11.json,http://54.235.29.9/FacialAge/BNav_EC2/DepthDuration/v2_depth_duration_MTurk/v2_DepthDuration_HTML.html#287,287,1279,609,1280,720,8-29-2022,17-14-37,27,depth_duration_stimuli/002639_2014-06-24_14-51-37_094959634447_rgbf000074-resize_4/002639_2014-06-24_14-51-37_094959634447_rgbf000074-resize_4-target.png,125,4.0375,8,3463,116,feet,jsons/VE125_randls_11.json,651823,869501,44,Woman
27,606227,DepthScenes,duration_manipulation_targetAtFixation,jsons/VE125_randls_11.json,http://54.235.29.9/FacialAge/BNav_EC2/DepthDuration/v2_depth_duration_MTurk/v2_DepthDuration_HTML.html#287,287,1279,609,1280,720,8-29-2022,17-14-37,28,depth_duration_stimuli/000739_2014-06-08_18-45-58_260595134347_rgbf000068-resize_1/000739_2014-06-08_18-45-58_260595134347_rgbf000068-resize_1-target.png,125,3.534,10,4124,132,feet,jsons/VE125_randls_11.json,651823,869501,44,Woman
28,606227,DepthScenes,duration_manipulation_targetAtFixation,jsons/VE125_randls_11.json,http://54.235.29.9/FacialAge/BNav_EC2/DepthDuration/v2_depth_duration_MTurk/v2_DepthDuration_HTML.html#287,287,1279,609,1280,720,8-29-2022,17-14-37,29,depth_duration_stimuli/000734_2014-06-08_17-39-11_260595134347_rgbf000128-resize_2/000734_2014-06-08_17-39-11_260595134347_rgbf000128-resize_2-target.png,125,4.098,12,3313,123,feet,jsons/VE125_randls_11.json,651823,869501,44,Woman
29,606227,DepthScenes,duration_manipulation_targetAtFixation,jsons/VE125_randls_11.json,http://54.235.29.9/FacialAge/BNav_EC2/DepthDuration/v2_depth_duration_MTurk/v2_DepthDuration_HTML.html#287,287,1279,609,1280,720,8-29-2022,17-14-37,30,depth_duration_stimuli/000375_2014-06-08_11-17-29_260595134347_rgbf000133-resize_2/000375_2014-06-08_11-17-29_260595134347_rgbf000133-resize-original.jpg,125,4.718,0,2828,138,feet,jsons/VE125_randls_11.json,651823,869501,44,Woman
30,606227,DepthScenes,duration_manipulation_targetAtFixation,jsons/VE125_randls_11.json,http://54.235.29.9/FacialAge/BNav_EC2/DepthDuration/v2_depth_duration_MTurk/v2_DepthDuration_HTML.html#287,287,1279,609,1280,720,8-29-2022,17-14-37,31,depth_duration_stimuli/002630_2014-06-24_14-47-50_094959634447_rgbf000055-resize_1/002630_2014-06-24_14-47-50_094959634447_rgbf000055-resize_1-target.png,125,3.0095,12,4747,115,feet,jsons/VE125_randls_11.json,651823,869501,44,Woman
31,606227,DepthScenes,duration_manipulation_targetAtFixation,jsons/VE125_randls_11.json,http://54.235.29.9/FacialAge/BNav_EC2/DepthDuration/v2_depth_duration_MTurk/v2_DepthDuration_HTML.html#287,287,1279,609,1280,720,8-29-2022,17-14-37,32,depth_duration_stimuli/002758_2014-06-22_19-11-20_094959634447_rgbf000128-resize_1/002758_2014-06-22_19-11-20_094959634447_rgbf000128-resize_1-target.png,125,2.555,5,3204,122,feet,jsons/VE125_randls_11.json,651823,869501,44,Woman
32,606227,DepthScenes,duration_manipulation_targetAtFixation,jsons/VE125_randls_11.json,http://54.235.29.9/FacialAge/BNav_EC2/DepthDuration/v2_depth_duration_MTurk/v2_DepthDuration_HTML.html#287,287,1279,609,1280,720,8-29-2022,17-14-37,33,depth_duration_stimuli/000447_2014-06-08_16-15-46_260595134347_rgbf000130-resize_1/000447_2014-06-08_16-15-46_260595134347_rgbf000130-resize_1-target.png,125,4.479,8,3074,127,feet,jsons/VE125_randls_11.json,651823,869501,44,Woman
33,606227,DepthScenes,duration_manipulation_targetAtFixation,jsons/VE125_randls_11.json,http://54.235.29.9/FacialAge/BNav_EC2/DepthDuration/v2_depth_duration_MTurk/v2_DepthDuration_HTML.html#287,287,1279,609,1280,720,8-29-2022,17-14-37,34,depth_duration_stimuli/001447_2014-06-19_17-00-32_260595134347_rgbf000082-resize_5/001447_2014-06-19_17-00-32_260595134347_rgbf000082-resize_5-target.png,125,4.13775,6,3743,130,feet,jsons/VE125_randls_11.json,651823,869501,44,Woman
34,606227,DepthScenes,duration_manipulation_targetAtFixation,jsons/VE125_randls_11.json,http://54.235.29.9/FacialAge/BNav_EC2/DepthDuration/v2_depth_duration_MTurk/v2_DepthDuration_HTML.html#287,287,1279,609,1280,720,8-29-2022,17-14-37,35,depth_duration_stimuli/000906_2014-06-08_13-35-43_260595134347_rgbf000155-resize_1/000906_2014-06-08_13-35-43_260595134347_rgbf000155-resize_1-target.png,125,2.8489999999999998,14,3831,137,feet,jsons/VE125_randls_11.json,651823,869501,44,Woman
35,606227,DepthScenes,duration_manipulation_targetAtFixation,jsons/VE125_randls_11.json,http://54.235.29.9/FacialAge/BNav_EC2/DepthDuration/v2_depth_duration_MTurk/v2_DepthDuration_HTML.html#287,287,1279,609,1280,720,8-29-2022,17-14-37,36,depth_duration_stimuli/002805_2014-06-22_19-54-03_094959634447_rgbf000079-resize_1/002805_2014-06-22_19-54-03_094959634447_rgbf000079-resize_1-target.png,125,3.1439999999999997,8,3198,131,feet,jsons/VE125_randls_11.json,651823,869501,44,Woman
36,606227,DepthScenes,duration_manipulation_targetAtFixation,jsons/VE125_randls_11.json,http://54.235.29.9/FacialAge/BNav_EC2/DepthDuration/v2_depth_duration_MTurk/v2_DepthDuration_HTML.html#287,287,1279,609,1280,720,8-29-2022,17-14-37,37,depth_duration_stimuli/002445_2014-06-28_20-32-16_260595134347_rgbf000029-resize_4/002445_2014-06-28_20-32-16_260595134347_rgbf000029-resize_4-target.png,125,2.5315,8,2778,116,feet,jsons/VE125_randls_11.json,651823,869501,44,Woman
37,606227,DepthScenes,duration_manipulation_targetAtFixation,jsons/VE125_randls_11.json,http://54.235.29.9/FacialAge/BNav_EC2/DepthDuration/v2_depth_duration_MTurk/v2_DepthDuration_HTML.html#287,287,1279,609,1280,720,8-29-2022,17-14-37,38,depth_duration_stimuli/000780_2014-06-08_22-28-29_260595134347_rgbf000126-resize_1/000780_2014-06-08_22-28-29_260595134347_rgbf000126-resize_1-target.png,125,3.3825,8,3269,138,feet,jsons/VE125_randls_11.json,651823,869501,44,Woman
38,606227,DepthScenes,duration_manipulation_targetAtFixation,jsons/VE125_randls_11.json,http://54.235.29.9/FacialAge/BNav_EC2/DepthDuration/v2_depth_duration_MTurk/v2_DepthDuration_HTML.html#287,287,1279,609,1280,720,8-29-2022,17-14-37,39,depth_duration_stimuli/002279_2014-06-28_18-55-32_260595134347_rgbf000040-resize_5/002279_2014-06-28_18-55-32_260595134347_rgbf000040-resize_5-target.png,125,1.5043333333333,3,4029,125,feet,jsons/VE125_randls_11.json,651823,869501,44,Woman
39,606227,DepthScenes,duration_manipulation_targetAtFixation,jsons/VE125_randls_11.json,http://54.235.29.9/FacialAge/BNav_EC2/DepthDuration/v2_depth_duration_MTurk/v2_DepthDuration_HTML.html#287,287,1279,609,1280,720,8-29-2022,17-14-37,40,depth_duration_stimuli/000635_2014-06-08_16-38-42_260595134347_rgbf000106-resize_1/000635_2014-06-08_16-38-42_260595134347_rgbf000106-resize_1-target.png,125,2.074,6,2886,124,feet,jsons/VE125_randls_11.json,651823,869501,44,Woman
40,606227,DepthScenes,duration_manipulation_targetAtFixation,jsons/VE125_randls_11.json,http://54.235.29.9/FacialAge/BNav_EC2/DepthDuration/v2_depth_duration_MTurk/v2_DepthDuration_HTML.html#287,287,1279,609,1280,720,8-29-2022,17-14-37,41,depth_duration_stimuli/001175_2014-06-17_15-45-55_260595134347_rgbf000129-resize_4/001175_2014-06-17_15-45-55_260595134347_rgbf000129-resize_4-target.png,125,4.255,12,4033,130,feet,jsons/VE125_randls_11.json,651823,869501,44,Woman
41,606227,DepthScenes,duration_manipulation_targetAtFixation,jsons/VE125_randls_11.json,http://54.235.29.9/FacialAge/BNav_EC2/DepthDuration/v2_depth_duration_MTurk/v2_DepthDuration_HTML.html#287,287,1279,609,1280,720,8-29-2022,17-14-37,42,depth_duration_stimuli/003490_2014-05-21_15-50-11_094959634447_rgbf000101-resize_3/003490_2014-05-21_15-50-11_094959634447_rgbf000101-resize_3-target.png,125,3.6445,6,3806,118,feet,jsons/VE125_randls_11.json,651823,869501,44,Woman
42,606227,DepthScenes,duration_manipulation_targetAtFixation,jsons/VE125_randls_11.json,http://54.235.29.9/FacialAge/BNav_EC2/DepthDuration/v2_depth_duration_MTurk/v2_DepthDuration_HTML.html#287,287,1279,609,1280,720,8-29-2022,17-14-37,43,depth_duration_stimuli/002964_2014-06-08_17-46-11_094959634447_rgbf000091-resize_4/002964_2014-06-08_17-46-11_094959634447_rgbf000091-resize_4-target.png,125,1.6909999999999998,4,4188,124,feet,jsons/VE125_randls_11.json,651823,869501,44,Woman
43,606227,DepthScenes,duration_manipulation_targetAtFixation,jsons/VE125_randls_11.json,http://54.235.29.9/FacialAge/BNav_EC2/DepthDuration/v2_depth_duration_MTurk/v2_DepthDuration_HTML.html#287,287,1279,609,1280,720,8-29-2022,17-14-37,44,depth_duration_stimuli/002136_2014-06-25_21-18-03_260595134347_rgbf000109-resize_3/002136_2014-06-25_21-18-03_260595134347_rgbf000109-resize_3-target.png,125,1.9569999999999999,4,3624,134,feet,jsons/VE125_randls_11.json,651823,869501,44,Woman
44,606227,DepthScenes,duration_manipulation_targetAtFixation,jsons/VE125_randls_11.json,http://54.235.29.9/FacialAge/BNav_EC2/DepthDuration/v2_depth_duration_MTurk/v2_DepthDuration_HTML.html#287,287,1279,609,1280,720,8-29-2022,17-14-37,45,depth_duration_stimuli/000787_2014-06-08_22-33-53_260595134347_rgbf000175-resize_1/000787_2014-06-08_22-33-53_260595134347_rgbf000175-resize-original.jpg,125,4.784,0,3466,125,feet,jsons/VE125_randls_11.json,651823,869501,44,Woman
45,606227,DepthScenes,duration_manipulation_targetAtFixation,jsons/VE125_randls_11.json,http://54.235.29.9/FacialAge/BNav_EC2/DepthDuration/v2_depth_duration_MTurk/v2_DepthDuration_HTML.html#287,287,1279,609,1280,720,8-29-2022,17-14-37,46,depth_duration_stimuli/000682_2014-06-08_23-14-58_260595134347_rgbf000041-resize_5/000682_2014-06-08_23-14-58_260595134347_rgbf000041-resize_5-target.png,125,2.7239999999999998,5,4719,119,feet,jsons/VE125_randls_11.json,651823,869501,44,Woman
46,606227,DepthScenes,duration_manipulation_targetAtFixation,jsons/VE125_randls_11.json,http://54.235.29.9/FacialAge/BNav_EC2/DepthDuration/v2_depth_duration_MTurk/v2_DepthDuration_HTML.html#287,287,1279,609,1280,720,8-29-2022,17-14-37,47,depth_duration_stimuli/001650_2014-06-20_12-09-00_260595134347_rgbf000087-resize_3/001650_2014-06-20_12-09-00_260595134347_rgbf000087-resize_3-target.png,125,1.9505,3,2793,130,feet,jsons/VE125_randls_11.json,651823,869501,44,Woman
47,606227,DepthScenes,duration_manipulation_targetAtFixation,jsons/VE125_randls_11.json,http://54.235.29.9/FacialAge/BNav_EC2/DepthDuration/v2_depth_duration_MTurk/v2_DepthDuration_HTML.html#287,287,1279,609,1280,720,8-29-2022,17-14-37,48,depth_duration_stimuli/001059_2014-06-08_21-53-27_260595134347_rgbf000061-resize_4/001059_2014-06-08_21-53-27_260595134347_rgbf000061-resize_4-target.png,125,2.4185,5,2991,115,feet,jsons/VE125_randls_11.json,651823,869501,44,Woman
48,606227,DepthScenes,duration_manipulation_targetAtFixation,jsons/VE125_randls_11.json,http://54.235.29.9/FacialAge/BNav_EC2/DepthDuration/v2_depth_duration_MTurk/v2_DepthDuration_HTML.html#287,287,1279,609,1280,720,8-29-2022,17-14-37,49,depth_duration_stimuli/001032_2014-06-08_13-23-17_260595134347_rgbf000021-resize_3/001032_2014-06-08_13-23-17_260595134347_rgbf000021-resize_3-target.png,125,3.2725,4,2836,124,feet,jsons/VE125_randls_11.json,651823,869501,44,Woman
49,606227,DepthScenes,duration_manipulation_targetAtFixation,jsons/VE125_randls_11.json,http://54.235.29.9/FacialAge/BNav_EC2/DepthDuration/v2_depth_duration_MTurk/v2_DepthDuration_HTML.html#287,287,1279,609,1280,720,8-29-2022,17-14-37,50,depth_duration_stimuli/000929_2014-06-09_16-33-19_260595134347_rgbf000139-resize_0/000929_2014-06-09_16-33-19_260595134347_rgbf000139-resize_0-target.png,125,2.8680000000000003,6,3458,124,feet,jsons/VE125_randls_11.json,651823,869501,44,Woman
50,606227,DepthScenes,duration_manipulation_targetAtFixation,jsons/VE125_randls_11.json,http://54.235.29.9/FacialAge/BNav_EC2/DepthDuration/v2_depth_duration_MTurk/v2_DepthDuration_HTML.html#287,287,1279,609,1280,720,8-29-2022,17-14-37,51,depth_duration_stimuli/000457_2014-06-08_16-52-43_260595134347_rgbf000199-resize_1/000457_2014-06-08_16-52-43_260595134347_rgbf000199-resize_1-target.png,125,3.6489999999999996,8,3606,121,feet,jsons/VE125_randls_11.json,651823,869501,44,Woman
51,606227,DepthScenes,duration_manipulation_targetAtFixation,jsons/VE125_randls_11.json,http://54.235.29.9/FacialAge/BNav_EC2/DepthDuration/v2_depth_duration_MTurk/v2_DepthDuration_HTML.html#287,287,1279,609,1280,720,8-29-2022,17-14-37,52,depth_duration_stimuli/000692_2014-06-08_13-09-42_260595134347_rgbf000199-resize_2/000692_2014-06-08_13-09-42_260595134347_rgbf000199-resize_2-target.png,125,3.661,12,3566,131,feet,jsons/VE125_randls_11.json,651823,869501,44,Woman
52,606227,DepthScenes,duration_manipulation_targetAtFixation,jsons/VE125_randls_11.json,http://54.235.29.9/FacialAge/BNav_EC2/DepthDuration/v2_depth_duration_MTurk/v2_DepthDuration_HTML.html#287,287,1279,609,1280,720,8-29-2022,17-14-37,53,depth_duration_stimuli/001094_2014-06-15_17-36-00_260595134347_rgbf000205-resize_0/001094_2014-06-15_17-36-00_260595134347_rgbf000205-resize_0-target.png,125,4.2175,9,3807,123,feet,jsons/VE125_randls_11.json,651823,869501,44,Woman
53,606227,DepthScenes,duration_manipulation_targetAtFixation,jsons/VE125_randls_11.json,http://54.235.29.9/FacialAge/BNav_EC2/DepthDuration/v2_depth_duration_MTurk/v2_DepthDuration_HTML.html#287,287,1279,609,1280,720,8-29-2022,17-14-37,54,depth_duration_stimuli/000493_2014-06-09_21-01-18_260595134347_rgbf000196-resize_3/000493_2014-06-09_21-01-18_260595134347_rgbf000196-resize_3-target.png,125,3.44,6,2783,129,feet,jsons/VE125_randls_11.json,651823,869501,44,Woman
54,606227,DepthScenes,duration_manipulation_targetAtFixation,jsons/VE125_randls_11.json,http://54.235.29.9/FacialAge/BNav_EC2/DepthDuration/v2_depth_duration_MTurk/v2_DepthDuration_HTML.html#287,287,1279,609,1280,720,8-29-2022,17-14-37,55,depth_duration_stimuli/000191_2014-05-12_17-07-38_260595134347_rgbf000199-resize_0/000191_2014-05-12_17-07-38_260595134347_rgbf000199-resize_0-target.png,125,3.7995,14,4172,134,feet,jsons/VE125_randls_11.json,651823,869501,44,Woman
55,606227,DepthScenes,duration_manipulation_targetAtFixation,jsons/VE125_randls_11.json,http://54.235.29.9/FacialAge/BNav_EC2/DepthDuration/v2_depth_duration_MTurk/v2_DepthDuration_HTML.html#287,287,1279,609,1280,720,8-29-2022,17-14-37,56,depth_duration_stimuli/001449_2014-06-19_17-01-27_260595134347_rgbf000116-resize_2/001449_2014-06-19_17-01-27_260595134347_rgbf000116-resize_2-target.png,125,3.452,5,3255,131,feet,jsons/VE125_randls_11.json,651823,869501,44,Woman
56,606227,DepthScenes,duration_manipulation_targetAtFixation,jsons/VE125_randls_11.json,http://54.235.29.9/FacialAge/BNav_EC2/DepthDuration/v2_depth_duration_MTurk/v2_DepthDuration_HTML.html#287,287,1279,609,1280,720,8-29-2022,17-14-37,57,depth_duration_stimuli/001450_2014-06-19_17-02-03_260595134347_rgbf000203-resize_4/001450_2014-06-19_17-02-03_260595134347_rgbf000203-resize_4-target.png,125,4.0106666666667,9,4950,121,feet,jsons/VE125_randls_11.json,651823,869501,44,Woman
57,606227,DepthScenes,duration_manipulation_targetAtFixation,jsons/VE125_randls_11.json,http://54.235.29.9/FacialAge/BNav_EC2/DepthDuration/v2_depth_duration_MTurk/v2_DepthDuration_HTML.html#287,287,1279,609,1280,720,8-29-2022,17-14-37,58,depth_duration_stimuli/001199_2014-06-17_16-03-48_260595134347_rgbf000077-resize_0/001199_2014-06-17_16-03-48_260595134347_rgbf000077-resize_0-target.png,125,3.4375,6,6531,116,feet,jsons/VE125_randls_11.json,651823,869501,44,Woman
58,606227,DepthScenes,duration_manipulation_targetAtFixation,jsons/VE125_randls_11.json,http://54.235.29.9/FacialAge/BNav_EC2/DepthDuration/v2_depth_duration_MTurk/v2_DepthDuration_HTML.html#287,287,1279,609,1280,720,8-29-2022,17-14-37,59,depth_duration_stimuli/000502_2014-06-08_23-02-32_260595134347_rgbf000063-resize_4/000502_2014-06-08_23-02-32_260595134347_rgbf000063-resize_4-target.png,125,2.431,6,2594,122,feet,jsons/VE125_randls_11.json,651823,869501,44,Woman
59,606227,DepthScenes,duration_manipulation_targetAtFixation,jsons/VE125_randls_11.json,http://54.235.29.9/FacialAge/BNav_EC2/DepthDuration/v2_depth_duration_MTurk/v2_DepthDuration_HTML.html#287,287,1279,609,1280,720,8-29-2022,17-14-37,60,depth_duration_stimuli/001016_2014-06-09_16-16-10_260595134347_rgbf000112-resize_5/001016_2014-06-09_16-16-10_260595134347_rgbf000112-resize_5-target.png,125,1.6565,5,2769,131,feet,jsons/VE125_randls_11.json,651823,869501,44,Woman
60,606227,DepthScenes,duration_manipulation_targetAtFixation,jsons/VE125_randls_11.json,http://54.235.29.9/FacialAge/BNav_EC2/DepthDuration/v2_depth_duration_MTurk/v2_DepthDuration_HTML.html#287,287,1279,609,1280,720,8-29-2022,17-14-37,61,depth_duration_stimuli/002340_2014-06-28_20-05-46_260595134347_rgbf000113-resize_0/002340_2014-06-28_20-05-46_260595134347_rgbf000113-resize_0-target.png,125,2.4735,8,2999,130,feet,jsons/VE125_randls_11.json,651823,869501,44,Woman
61,606227,DepthScenes,duration_manipulation_targetAtFixation,jsons/VE125_randls_11.json,http://54.235.29.9/FacialAge/BNav_EC2/DepthDuration/v2_depth_duration_MTurk/v2_DepthDuration_HTML.html#287,287,1279,609,1280,720,8-29-2022,17-14-37,62,depth_duration_stimuli/000469_2014-06-09_19-42-10_260595134347_rgbf000081-resize_1/000469_2014-06-09_19-42-10_260595134347_rgbf000081-resize_1-target.png,125,1.652,4,3216,111,feet,jsons/VE125_randls_11.json,651823,869501,44,Woman
62,606227,DepthScenes,duration_manipulation_targetAtFixation,jsons/VE125_randls_11.json,http://54.235.29.9/FacialAge/BNav_EC2/DepthDuration/v2_depth_duration_MTurk/v2_DepthDuration_HTML.html#287,287,1279,609,1280,720,8-29-2022,17-14-37,63,depth_duration_stimuli/000483_2014-06-09_20-41-45_260595134347_rgbf000116-resize_4/000483_2014-06-09_20-41-45_260595134347_rgbf000116-resize_4-target.png,125,1.337,4,2512,121,feet,jsons/VE125_randls_11.json,651823,869501,44,Woman
63,606227,DepthScenes,duration_manipulation_targetAtFixation,jsons/VE125_randls_11.json,http://54.235.29.9/FacialAge/BNav_EC2/DepthDuration/v2_depth_duration_MTurk/v2_DepthDuration_HTML.html#287,287,1279,609,1280,720,8-29-2022,17-14-37,64,depth_duration_stimuli/002570_2014-06-24_13-59-54_094959634447_rgbf000059-resize_0/002570_2014-06-24_13-59-54_094959634447_rgbf000059-resize_0-target.png,125,4.037,8,3703,138,feet,jsons/VE125_randls_11.json,651823,869501,44,Woman
64,606227,DepthScenes,duration_manipulation_targetAtFixation,jsons/VE125_randls_11.json,http://54.235.29.9/FacialAge/BNav_EC2/DepthDuration/v2_depth_duration_MTurk/v2_DepthDuration_HTML.html#287,287,1279,609,1280,720,8-29-2022,17-14-37,65,depth_duration_stimuli/002467_2014-06-28_20-38-07_260595134347_rgbf000026-resize_2/002467_2014-06-28_20-38-07_260595134347_rgbf000026-resize_2-target.png,125,4.742,10,5720,123,feet,jsons/VE125_randls_11.json,651823,869501,44,Woman
65,606227,DepthScenes,duration_manipulation_targetAtFixation,jsons/VE125_randls_11.json,http://54.235.29.9/FacialAge/BNav_EC2/DepthDuration/v2_depth_duration_MTurk/v2_DepthDuration_HTML.html#287,287,1279,609,1280,720,8-29-2022,17-14-37,66,depth_duration_stimuli/001222_2014-06-17_16-24-06_260595134347_rgbf000073-resize_0/001222_2014-06-17_16-24-06_260595134347_rgbf000073-resize-original.jpg,125,1.4385,0,3070,124,feet,jsons/VE125_randls_11.json,651823,869501,44,Woman
66,606227,DepthScenes,duration_manipulation_targetAtFixation,jsons/VE125_randls_11.json,http://54.235.29.9/FacialAge/BNav_EC2/DepthDuration/v2_depth_duration_MTurk/v2_DepthDuration_HTML.html#287,287,1279,609,1280,720,8-29-2022,17-14-37,67,depth_duration_stimuli/001066_2014-06-08_22-03-20_260595134347_rgbf000066-resize_4/001066_2014-06-08_22-03-20_260595134347_rgbf000066-resize_4-target.png,125,4.2330000000000005,12,3078,123,feet,jsons/VE125_randls_11.json,651823,869501,44,Woman
67,606227,DepthScenes,duration_manipulation_targetAtFixation,jsons/VE125_randls_11.json,http://54.235.29.9/FacialAge/BNav_EC2/DepthDuration/v2_depth_duration_MTurk/v2_DepthDuration_HTML.html#287,287,1279,609,1280,720,8-29-2022,17-14-37,68,depth_duration_stimuli/000742_2014-06-08_18-48-09_260595134347_rgbf000164-resize_4/000742_2014-06-08_18-48-09_260595134347_rgbf000164-resize_4-target.png,125,4.632,12,3937,124,feet,jsons/VE125_randls_11.json,651823,869501,44,Woman
68,606227,DepthScenes,duration_manipulation_targetAtFixation,jsons/VE125_randls_11.json,http://54.235.29.9/FacialAge/BNav_EC2/DepthDuration/v2_depth_duration_MTurk/v2_DepthDuration_HTML.html#287,287,1279,609,1280,720,8-29-2022,17-14-37,69,depth_duration_stimuli/000436_2014-06-09_22-25-11_260595134347_rgbf000137-resize_1/000436_2014-06-09_22-25-11_260595134347_rgbf000137-resize_1-target.png,125,4.0705,14,3571,138,feet,jsons/VE125_randls_11.json,651823,869501,44,Woman
69,606227,DepthScenes,duration_manipulation_targetAtFixation,jsons/VE125_randls_11.json,http://54.235.29.9/FacialAge/BNav_EC2/DepthDuration/v2_depth_duration_MTurk/v2_DepthDuration_HTML.html#287,287,1279,609,1280,720,8-29-2022,17-14-37,70,depth_duration_stimuli/002444_2014-06-28_20-32-08_260595134347_rgbf000027-resize_0/002444_2014-06-28_20-32-08_260595134347_rgbf000027-resize_0-target.png,125,4.388999999999999,10,3117,116,feet,jsons/VE125_randls_11.json,651823,869501,44,Woman
70,606227,DepthScenes,duration_manipulation_targetAtFixation,jsons/VE125_randls_11.json,http://54.235.29.9/FacialAge/BNav_EC2/DepthDuration/v2_depth_duration_MTurk/v2_DepthDuration_HTML.html#287,287,1279,609,1280,720,8-29-2022,17-14-37,71,depth_duration_stimuli/001056_2014-06-08_18-46-44_260595134347_rgbf000068-resize_0/001056_2014-06-08_18-46-44_260595134347_rgbf000068-resize_0-target.png,125,2.6625,7,3399,115,feet,jsons/VE125_randls_11.json,651823,869501,44,Woman
71,606227,DepthScenes,duration_manipulation_targetAtFixation,jsons/VE125_randls_11.json,http://54.235.29.9/FacialAge/BNav_EC2/DepthDuration/v2_depth_duration_MTurk/v2_DepthDuration_HTML.html#287,287,1279,609,1280,720,8-29-2022,17-14-37,72,depth_duration_stimuli/002199_2014-06-28_18-33-56_260595134347_rgbf000074-resize_0/002199_2014-06-28_18-33-56_260595134347_rgbf000074-resize_0-target.png,125,1.996,3,3077,127,feet,jsons/VE125_randls_11.json,651823,869501,44,Woman
72,606227,DepthScenes,duration_manipulation_targetAtFixation,jsons/VE125_randls_11.json,http://54.235.29.9/FacialAge/BNav_EC2/DepthDuration/v2_depth_duration_MTurk/v2_DepthDuration_HTML.html#287,287,1279,609,1280,720,8-29-2022,17-14-37,73,depth_duration_stimuli/001164_2014-06-17_15-35-46_260595134347_rgbf000085-resize_3/001164_2014-06-17_15-35-46_260595134347_rgbf000085-resize_3-target.png,125,2.354,4,2790,128,feet,jsons/VE125_randls_11.json,651823,869501,44,Woman
73,606227,DepthScenes,duration_manipulation_targetAtFixation,jsons/VE125_randls_11.json,http://54.235.29.9/FacialAge/BNav_EC2/DepthDuration/v2_depth_duration_MTurk/v2_DepthDuration_HTML.html#287,287,1279,609,1280,720,8-29-2022,17-14-37,74,depth_duration_stimuli/001136_2014-06-17_15-19-41_260595134347_rgbf000076-resize_3/001136_2014-06-17_15-19-41_260595134347_rgbf000076-resize_3-target.png,125,1.8655,4,2666,137,feet,jsons/VE125_randls_11.json,651823,869501,44,Woman
74,606227,DepthScenes,duration_manipulation_targetAtFixation,jsons/VE125_randls_11.json,http://54.235.29.9/FacialAge/BNav_EC2/DepthDuration/v2_depth_duration_MTurk/v2_DepthDuration_HTML.html#287,287,1279,609,1280,720,8-29-2022,17-14-37,75,depth_duration_stimuli/003492_2014-05-21_15-50-55_094959634447_rgbf000828-resize_1/003492_2014-05-21_15-50-55_094959634447_rgbf000828-resize_1-target.png,125,4.06875,8,3788,115,feet,jsons/VE125_randls_11.json,651823,869501,44,Woman
75,606227,DepthScenes,duration_manipulation_targetAtFixation,jsons/VE125_randls_11.json,http://54.235.29.9/FacialAge/BNav_EC2/DepthDuration/v2_depth_duration_MTurk/v2_DepthDuration_HTML.html#287,287,1279,609,1280,720,8-29-2022,17-14-37,76,depth_duration_stimuli/002568_2014-06-24_13-59-21_094959634447_rgbf000062-resize_4/002568_2014-06-24_13-59-21_094959634447_rgbf000062-resize_4-target.png,125,3.015,8,3018,134,feet,jsons/VE125_randls_11.json,651823,869501,44,Woman
76,606227,DepthScenes,duration_manipulation_targetAtFixation,jsons/VE125_randls_11.json,http://54.235.29.9/FacialAge/BNav_EC2/DepthDuration/v2_depth_duration_MTurk/v2_DepthDuration_HTML.html#287,287,1279,609,1280,720,8-29-2022,17-14-37,77,depth_duration_stimuli/002748_2014-06-22_19-07-22_094959634447_rgbf000078-resize_1/002748_2014-06-22_19-07-22_094959634447_rgbf000078-resize_1-target.png,125,4.6705,10,3831,114,feet,jsons/VE125_randls_11.json,651823,869501,44,Woman
77,606227,DepthScenes,duration_manipulation_targetAtFixation,jsons/VE125_randls_11.json,http://54.235.29.9/FacialAge/BNav_EC2/DepthDuration/v2_depth_duration_MTurk/v2_DepthDuration_HTML.html#287,287,1279,609,1280,720,8-29-2022,17-14-37,78,depth_duration_stimuli/002995_2014-06-15_12-31-26_094959634447_rgbf000150-resize_1/002995_2014-06-15_12-31-26_094959634447_rgbf000150-resize_1-target.png,125,3.8360000000000003,10,3400,130,feet,jsons/VE125_randls_11.json,651823,869501,44,Woman
78,606227,DepthScenes,duration_manipulation_targetAtFixation,jsons/VE125_randls_11.json,http://54.235.29.9/FacialAge/BNav_EC2/DepthDuration/v2_depth_duration_MTurk/v2_DepthDuration_HTML.html#287,287,1279,609,1280,720,8-29-2022,17-14-37,79,depth_duration_stimuli/002988_2014-06-15_12-24-20_094959634447_rgbf000150-resize_1/002988_2014-06-15_12-24-20_094959634447_rgbf000150-resize_1-target.png,125,4.7669999999999995,14,3792,120,feet,jsons/VE125_randls_11.json,651823,869501,44,Woman
79,606227,DepthScenes,duration_manipulation_targetAtFixation,jsons/VE125_randls_11.json,http://54.235.29.9/FacialAge/BNav_EC2/DepthDuration/v2_depth_duration_MTurk/v2_DepthDuration_HTML.html#287,287,1279,609,1280,720,8-29-2022,17-14-37,80,depth_duration_stimuli/001052_2014-06-08_18-24-54_260595134347_rgbf000130-resize_1/001052_2014-06-08_18-24-54_260595134347_rgbf000130-resize_1-target.png,125,4.1045,12,3014,121,feet,jsons/VE125_randls_11.json,651823,869501,44,Woman
80,606227,DepthScenes,duration_manipulation_targetAtFixation,jsons/VE125_randls_11.json,http://54.235.29.9/FacialAge/BNav_EC2/DepthDuration/v2_depth_duration_MTurk/v2_DepthDuration_HTML.html#287,287,1279,609,1280,720,8-29-2022,17-14-37,81,depth_duration_stimuli/001808_2014-06-26_20-50-58_260595134347_rgbf000029-resize_1/001808_2014-06-26_20-50-58_260595134347_rgbf000029-resize_1-target.png,125,4.249,12,3980,115,feet,jsons/VE125_randls_11.json,651823,869501,44,Woman
81,606227,DepthScenes,duration_manipulation_targetAtFixation,jsons/VE125_randls_11.json,http://54.235.29.9/FacialAge/BNav_EC2/DepthDuration/v2_depth_duration_MTurk/v2_DepthDuration_HTML.html#287,287,1279,609,1280,720,8-29-2022,17-14-37,82,depth_duration_stimuli/001815_2014-06-26_20-52-55_260595134347_rgbf000020-resize_0/001815_2014-06-26_20-52-55_260595134347_rgbf000020-resize_0-target.png,125,3.3865,12,2962,123,feet,jsons/VE125_randls_11.json,651823,869501,44,Woman
82,606227,DepthScenes,duration_manipulation_targetAtFixation,jsons/VE125_randls_11.json,http://54.235.29.9/FacialAge/BNav_EC2/DepthDuration/v2_depth_duration_MTurk/v2_DepthDuration_HTML.html#287,287,1279,609,1280,720,8-29-2022,17-14-37,83,depth_duration_stimuli/001806_2014-06-26_20-50-20_260595134347_rgbf000091-resize_1/001806_2014-06-26_20-50-20_260595134347_rgbf000091-resize_1-target.png,125,2.7305,4,2735,133,feet,jsons/VE125_randls_11.json,651823,869501,44,Woman
83,606227,DepthScenes,duration_manipulation_targetAtFixation,jsons/VE125_randls_11.json,http://54.235.29.9/FacialAge/BNav_EC2/DepthDuration/v2_depth_duration_MTurk/v2_DepthDuration_HTML.html#287,287,1279,609,1280,720,8-29-2022,17-14-37,84,depth_duration_stimuli/001617_2014-06-20_11-35-32_260595134347_rgbf000066-resize_1/001617_2014-06-20_11-35-32_260595134347_rgbf000066-resize_1-target.png,125,3.7910000000000004,9,3287,124,feet,jsons/VE125_randls_11.json,651823,869501,44,Woman
84,606227,DepthScenes,duration_manipulation_targetAtFixation,jsons/VE125_randls_11.json,http://54.235.29.9/FacialAge/BNav_EC2/DepthDuration/v2_depth_duration_MTurk/v2_DepthDuration_HTML.html#287,287,1279,609,1280,720,8-29-2022,17-14-37,85,depth_duration_stimuli/000758_2014-06-08_22-05-08_260595134347_rgbf000085-resize_0/000758_2014-06-08_22-05-08_260595134347_rgbf000085-resize_0-target.png,125,3.3810000000000002,7,6403,122,feet,jsons/VE125_randls_11.json,651823,869501,44,Woman
85,606227,DepthScenes,duration_manipulation_targetAtFixation,jsons/VE125_randls_11.json,http://54.235.29.9/FacialAge/BNav_EC2/DepthDuration/v2_depth_duration_MTurk/v2_DepthDuration_HTML.html#287,287,1279,609,1280,720,8-29-2022,17-14-37,86,depth_duration_stimuli/000854_2014-06-09_19-43-13_260595134347_rgbf000066-resize_0/000854_2014-06-09_19-43-13_260595134347_rgbf000066-resize_0-target.png,125,3.068,4,3047,118,feet,jsons/VE125_randls_11.json,651823,869501,44,Woman
86,606227,DepthScenes,duration_manipulation_targetAtFixation,jsons/VE125_randls_11.json,http://54.235.29.9/FacialAge/BNav_EC2/DepthDuration/v2_depth_duration_MTurk/v2_DepthDuration_HTML.html#287,287,1279,609,1280,720,8-29-2022,17-14-37,87,depth_duration_stimuli/002600_2014-06-24_14-27-04_094959634447_rgbf000074-resize_2/002600_2014-06-24_14-27-04_094959634447_rgbf000074-resize_2-target.png,125,2.7575,6,2605,122,feet,jsons/VE125_randls_11.json,651823,869501,44,Woman
87,606227,DepthScenes,duration_manipulation_targetAtFixation,jsons/VE125_randls_11.json,http://54.235.29.9/FacialAge/BNav_EC2/DepthDuration/v2_depth_duration_MTurk/v2_DepthDuration_HTML.html#287,287,1279,609,1280,720,8-29-2022,17-14-37,88,depth_duration_stimuli/003228_2014-05-14_13-42-35_094959634447_rgbf000101-resize_1/003228_2014-05-14_13-42-35_094959634447_rgbf000101-resize_1-target.png,125,1.9680000000000002,4,2846,124,feet,jsons/VE125_randls_11.json,651823,869501,44,Woman
88,606227,DepthScenes,duration_manipulation_targetAtFixation,jsons/VE125_randls_11.json,http://54.235.29.9/FacialAge/BNav_EC2/DepthDuration/v2_depth_duration_MTurk/v2_DepthDuration_HTML.html#287,287,1279,609,1280,720,8-29-2022,17-14-37,89,depth_duration_stimuli/001244_2014-06-17_16-47-45_260595134347_rgbf000030-resize_4/001244_2014-06-17_16-47-45_260595134347_rgbf000030-resize_4-target.png,125,2.0425,5,2943,105,feet,jsons/VE125_randls_11.json,651823,869501,44,Woman
89,606227,DepthScenes,duration_manipulation_targetAtFixation,jsons/VE125_randls_11.json,http://54.235.29.9/FacialAge/BNav_EC2/DepthDuration/v2_depth_duration_MTurk/v2_DepthDuration_HTML.html#287,287,1279,609,1280,720,8-29-2022,17-14-37,90,depth_duration_stimuli/003495_2014-05-21_16-01-51_094959634447_rgbf000100-resize_3/003495_2014-05-21_16-01-51_094959634447_rgbf000100-resize_3-target.png,125,1.6255,4,2557,110,feet,jsons/VE125_randls_11.json,651823,869501,44,Woman
90,606227,DepthScenes,duration_manipulation_targetAtFixation,jsons/VE125_randls_11.json,http://54.235.29.9/FacialAge/BNav_EC2/DepthDuration/v2_depth_duration_MTurk/v2_DepthDuration_HTML.html#287,287,1279,609,1280,720,8-29-2022,17-14-37,91,depth_duration_stimuli/000506_2014-06-08_23-21-00_260595134347_rgbf000070-resize_7/000506_2014-06-08_23-21-00_260595134347_rgbf000070-resize_7-target.png,125,4.0585,8,3849,132,feet,jsons/VE125_randls_11.json,651823,869501,44,Woman
91,606227,DepthScenes,duration_manipulation_targetAtFixation,jsons/VE125_randls_11.json,http://54.235.29.9/FacialAge/BNav_EC2/DepthDuration/v2_depth_duration_MTurk/v2_DepthDuration_HTML.html#287,287,1279,609,1280,720,8-29-2022,17-14-37,92,depth_duration_stimuli/003079_2014-06-15_15-18-20_094959634447_rgbf000152-resize_8/003079_2014-06-15_15-18-20_094959634447_rgbf000152-resize_8-target.png,125,2.8775,7,4621,114,feet,jsons/VE125_randls_11.json,651823,869501,44,Woman
92,606227,DepthScenes,duration_manipulation_targetAtFixation,jsons/VE125_randls_11.json,http://54.235.29.9/FacialAge/BNav_EC2/DepthDuration/v2_depth_duration_MTurk/v2_DepthDuration_HTML.html#287,287,1279,609,1280,720,8-29-2022,17-14-37,93,depth_duration_stimuli/002989_2014-06-15_12-25-03_094959634447_rgbf000150-resize_3/002989_2014-06-15_12-25-03_094959634447_rgbf000150-resize_3-target.png,125,4.1975,10,3698,130,feet,jsons/VE125_randls_11.json,651823,869501,44,Woman
93,606227,DepthScenes,duration_manipulation_targetAtFixation,jsons/VE125_randls_11.json,http://54.235.29.9/FacialAge/BNav_EC2/DepthDuration/v2_depth_duration_MTurk/v2_DepthDuration_HTML.html#287,287,1279,609,1280,720,8-29-2022,17-14-37,94,depth_duration_stimuli/000866_2014-06-09_20-45-42_260595134347_rgbf000139-resize_1/000866_2014-06-09_20-45-42_260595134347_rgbf000139-resize_1-target.png,125,3.2155,6,2844,124,feet,jsons/VE125_randls_11.json,651823,869501,44,Woman
94,606227,DepthScenes,duration_manipulation_targetAtFixation,jsons/VE125_randls_11.json,http://54.235.29.9/FacialAge/BNav_EC2/DepthDuration/v2_depth_duration_MTurk/v2_DepthDuration_HTML.html#287,287,1279,609,1280,720,8-29-2022,17-14-37,95,depth_duration_stimuli/001029_2014-06-08_13-17-57_260595134347_rgbf000065-resize_1/001029_2014-06-08_13-17-57_260595134347_rgbf000065-resize_1-target.png,125,3.0835,8,2383,116,feet,jsons/VE125_randls_11.json,651823,869501,44,Woman
95,606227,DepthScenes,duration_manipulation_targetAtFixation,jsons/VE125_randls_11.json,http://54.235.29.9/FacialAge/BNav_EC2/DepthDuration/v2_depth_duration_MTurk/v2_DepthDuration_HTML.html#287,287,1279,609,1280,720,8-29-2022,17-14-37,96,depth_duration_stimuli/000677_2014-06-08_23-10-32_260595134347_rgbf000158-resize_6/000677_2014-06-08_23-10-32_260595134347_rgbf000158-resize_6-target.png,125,3.556,8,4284,124,feet,jsons/VE125_randls_11.json,651823,869501,44,Woman
96,606227,DepthScenes,duration_manipulation_targetAtFixation,jsons/VE125_randls_11.json,http://54.235.29.9/FacialAge/BNav_EC2/DepthDuration/v2_depth_duration_MTurk/v2_DepthDuration_HTML.html#287,287,1279,609,1280,720,8-29-2022,17-14-37,97,depth_duration_stimuli/002549_2014-06-24_13-41-39_094959634447_rgbf000022-resize_3/002549_2014-06-24_13-41-39_094959634447_rgbf000022-resize_3-target.png,125,1.476,4,5101,112,feet,jsons/VE125_randls_11.json,651823,869501,44,Woman
97,606227,DepthScenes,duration_manipulation_targetAtFixation,jsons/VE125_randls_11.json,http://54.235.29.9/FacialAge/BNav_EC2/DepthDuration/v2_depth_duration_MTurk/v2_DepthDuration_HTML.html#287,287,1279,609,1280,720,8-29-2022,17-14-37,98,depth_duration_stimuli/002750_2014-06-22_19-08-03_094959634447_rgbf000094-resize_4/002750_2014-06-22_19-08-03_094959634447_rgbf000094-resize_4-target.png,125,2.354,6,3774,125,feet,jsons/VE125_randls_11.json,651823,869501,44,Woman
98,606227,DepthScenes,duration_manipulation_targetAtFixation,jsons/VE125_randls_11.json,http://54.235.29.9/FacialAge/BNav_EC2/DepthDuration/v2_depth_duration_MTurk/v2_DepthDuration_HTML.html#287,287,1279,609,1280,720,8-29-2022,17-14-37,99,depth_duration_stimuli/001540_2014-06-20_17-01-05_260595134347_rgbf000086-resize_2/001540_2014-06-20_17-01-05_260595134347_rgbf000086-resize-original.jpg,125,1.459,0,2927,131,feet,jsons/VE125_randls_11.json,651823,869501,44,Woman
99,606227,DepthScenes,duration_manipulation_targetAtFixation,jsons/VE125_randls_11.json,http://54.235.29.9/FacialAge/BNav_EC2/DepthDuration/v2_depth_duration_MTurk/v2_DepthDuration_HTML.html#287,287,1279,609,1280,720,8-29-2022,17-14-37,100,depth_duration_stimuli/001417_2014-06-19_16-25-36_260595134347_rgbf000115-resize_5/001417_2014-06-19_16-25-36_260595134347_rgbf000115-resize_5-target.png,125,4.6255,8,3609,125,feet,jsons/VE125_randls_11.json,651823,869501,44,Woman
100,606227,DepthScenes,duration_manipulation_targetAtFixation,jsons/VE125_randls_11.json,http://54.235.29.9/FacialAge/BNav_EC2/DepthDuration/v2_depth_duration_MTurk/v2_DepthDuration_HTML.html#287,287,1279,609,1280,720,8-29-2022,17-14-37,101,depth_duration_stimuli/003081_2014-06-15_15-19-16_094959634447_rgbf000150-resize_1/003081_2014-06-15_15-19-16_094959634447_rgbf000150-resize_1-target.png,125,3.9125,8,2547,131,feet,jsons/VE125_randls_11.json,651823,869501,44,Woman
101,606227,DepthScenes,duration_manipulation_targetAtFixation,jsons/VE125_randls_11.json,http://54.235.29.9/FacialAge/BNav_EC2/DepthDuration/v2_depth_duration_MTurk/v2_DepthDuration_HTML.html#287,287,1279,609,1280,720,8-29-2022,17-14-37,102,depth_duration_stimuli/000522_2014-06-08_13-35-06_260595134347_rgbf000244-resize_1/000522_2014-06-08_13-35-06_260595134347_rgbf000244-resize_1-target.png,125,2.3715,3,2503,138,feet,jsons/VE125_randls_11.json,651823,869501,44,Woman
102,606227,DepthScenes,duration_manipulation_targetAtFixation,jsons/VE125_randls_11.json,http://54.235.29.9/FacialAge/BNav_EC2/DepthDuration/v2_depth_duration_MTurk/v2_DepthDuration_HTML.html#287,287,1279,609,1280,720,8-29-2022,17-14-37,103,depth_duration_stimuli/002949_2014-06-26_15-57-42_094959634447_rgbf000079-resize_1/002949_2014-06-26_15-57-42_094959634447_rgbf000079-resize_1-target.png,125,1.8915,4,2402,138,feet,jsons/VE125_randls_11.json,651823,869501,44,Woman
103,606227,DepthScenes,duration_manipulation_targetAtFixation,jsons/VE125_randls_11.json,http://54.235.29.9/FacialAge/BNav_EC2/DepthDuration/v2_depth_duration_MTurk/v2_DepthDuration_HTML.html#287,287,1279,609,1280,720,8-29-2022,17-14-37,104,depth_duration_stimuli/002375_2014-06-28_20-13-44_260595134347_rgbf000032-resize_1/002375_2014-06-28_20-13-44_260595134347_rgbf000032-resize_1-target.png,125,4.0175,5,2937,137,feet,jsons/VE125_randls_11.json,651823,869501,44,Woman
104,606227,DepthScenes,duration_manipulation_targetAtFixation,jsons/VE125_randls_11.json,http://54.235.29.9/FacialAge/BNav_EC2/DepthDuration/v2_depth_duration_MTurk/v2_DepthDuration_HTML.html#287,287,1279,609,1280,720,8-29-2022,17-14-37,105,depth_duration_stimuli/002657_2014-06-13_15-29-54_094959634447_rgbf000150-resize_1/002657_2014-06-13_15-29-54_094959634447_rgbf000150-resize_1-target.png,125,4.919,9,3876,115,feet,jsons/VE125_randls_11.json,651823,869501,44,Woman
105,606227,DepthScenes,duration_manipulation_targetAtFixation,jsons/VE125_randls_11.json,http://54.235.29.9/FacialAge/BNav_EC2/DepthDuration/v2_depth_duration_MTurk/v2_DepthDuration_HTML.html#287,287,1279,609,1280,720,8-29-2022,17-14-37,106,depth_duration_stimuli/002213_2014-06-28_18-37-58_260595134347_rgbf000055-resize_1/002213_2014-06-28_18-37-58_260595134347_rgbf000055-resize_1-target.png,125,3.62,14,3496,123,feet,jsons/VE125_randls_11.json,651823,869501,44,Woman
106,606227,DepthScenes,duration_manipulation_targetAtFixation,jsons/VE125_randls_11.json,http://54.235.29.9/FacialAge/BNav_EC2/DepthDuration/v2_depth_duration_MTurk/v2_DepthDuration_HTML.html#287,287,1279,609,1280,720,8-29-2022,17-14-37,107,depth_duration_stimuli/000691_2014-06-08_13-08-50_260595134347_rgbf000132-resize_3/000691_2014-06-08_13-08-50_260595134347_rgbf000132-resize_3-target.png,125,4.1530000000000005,8,3424,138,feet,jsons/VE125_randls_11.json,651823,869501,44,Woman
107,606227,DepthScenes,duration_manipulation_targetAtFixation,jsons/VE125_randls_11.json,http://54.235.29.9/FacialAge/BNav_EC2/DepthDuration/v2_depth_duration_MTurk/v2_DepthDuration_HTML.html#287,287,1279,609,1280,720,8-29-2022,17-14-37,108,depth_duration_stimuli/001570_2014-06-20_17-21-09_260595134347_rgbf000135-resize_4/001570_2014-06-20_17-21-09_260595134347_rgbf000135-resize_4-target.png,125,4.467,10,3217,122,feet,jsons/VE125_randls_11.json,651823,869501,44,Woman
108,606227,DepthScenes,duration_manipulation_targetAtFixation,jsons/VE125_randls_11.json,http://54.235.29.9/FacialAge/BNav_EC2/DepthDuration/v2_depth_duration_MTurk/v2_DepthDuration_HTML.html#287,287,1279,609,1280,720,8-29-2022,17-14-37,109,depth_duration_stimuli/001392_2014-06-19_16-07-59_260595134347_rgbf000046-resize_1/001392_2014-06-19_16-07-59_260595134347_rgbf000046-resize_1-target.png,125,4.135,10,3806,130,feet,jsons/VE125_randls_11.json,651823,869501,44,Woman
109,606227,DepthScenes,duration_manipulation_targetAtFixation,jsons/VE125_randls_11.json,http://54.235.29.9/FacialAge/BNav_EC2/DepthDuration/v2_depth_duration_MTurk/v2_DepthDuration_HTML.html#287,287,1279,609,1280,720,8-29-2022,17-14-37,110,depth_duration_stimuli/001150_2014-06-17_15-27-34_260595134347_rgbf000108-resize_2/001150_2014-06-17_15-27-34_260595134347_rgbf000108-resize_2-target.png,125,4.0325,10,5479,123,feet,jsons/VE125_randls_11.json,651823,869501,44,Woman
110,606227,DepthScenes,duration_manipulation_targetAtFixation,jsons/VE125_randls_11.json,http://54.235.29.9/FacialAge/BNav_EC2/DepthDuration/v2_depth_duration_MTurk/v2_DepthDuration_HTML.html#287,287,1279,609,1280,720,8-29-2022,17-14-37,111,depth_duration_stimuli/000665_2014-06-09_20-42-35_260595134347_rgbf000110-resize_1/000665_2014-06-09_20-42-35_260595134347_rgbf000110-resize_1-target.png,125,3.057,6,2607,112,feet,jsons/VE125_randls_11.json,651823,869501,44,Woman
111,606227,DepthScenes,duration_manipulation_targetAtFixation,jsons/VE125_randls_11.json,http://54.235.29.9/FacialAge/BNav_EC2/DepthDuration/v2_depth_duration_MTurk/v2_DepthDuration_HTML.html#287,287,1279,609,1280,720,8-29-2022,17-14-37,112,depth_duration_stimuli/001133_2014-06-17_14-49-16_260595134347_rgbf000100-resize_0/001133_2014-06-17_14-49-16_260595134347_rgbf000100-resize_0-target.png,125,4.2115,12,2721,124,feet,jsons/VE125_randls_11.json,651823,869501,44,Woman
112,606227,DepthScenes,duration_manipulation_targetAtFixation,jsons/VE125_randls_11.json,http://54.235.29.9/FacialAge/BNav_EC2/DepthDuration/v2_depth_duration_MTurk/v2_DepthDuration_HTML.html#287,287,1279,609,1280,720,8-29-2022,17-14-37,113,depth_duration_stimuli/001132_2014-06-17_14-48-54_260595134347_rgbf000100-resize_2/001132_2014-06-17_14-48-54_260595134347_rgbf000100-resize_2-target.png,125,3.753,9,3272,117,feet,jsons/VE125_randls_11.json,651823,869501,44,Woman
113,606227,DepthScenes,duration_manipulation_targetAtFixation,jsons/VE125_randls_11.json,http://54.235.29.9/FacialAge/BNav_EC2/DepthDuration/v2_depth_duration_MTurk/v2_DepthDuration_HTML.html#287,287,1279,609,1280,720,8-29-2022,17-14-37,114,depth_duration_stimuli/001011_2014-06-08_23-18-54_260595134347_rgbf000044-resize_4/001011_2014-06-08_23-18-54_260595134347_rgbf000044-resize_4-target.png,125,2.4730000000000003,6,3508,117,feet,jsons/VE125_randls_11.json,651823,869501,44,Woman
114,606227,DepthScenes,duration_manipulation_targetAtFixation,jsons/VE125_randls_11.json,http://54.235.29.9/FacialAge/BNav_EC2/DepthDuration/v2_depth_duration_MTurk/v2_DepthDuration_HTML.html#287,287,1279,609,1280,720,8-29-2022,17-14-37,115,depth_duration_stimuli/002875_2014-06-01_15-19-00_094959634447_rgbf000151-resize_1/002875_2014-06-01_15-19-00_094959634447_rgbf000151-resize_1-target.png,125,1.9675,4,3312,136,feet,jsons/VE125_randls_11.json,651823,869501,44,Woman
115,606227,DepthScenes,duration_manipulation_targetAtFixation,jsons/VE125_randls_11.json,http://54.235.29.9/FacialAge/BNav_EC2/DepthDuration/v2_depth_duration_MTurk/v2_DepthDuration_HTML.html#287,287,1279,609,1280,720,8-29-2022,17-14-37,116,depth_duration_stimuli/001170_2014-06-17_15-43-44_260595134347_rgbf000096-resize_6/001170_2014-06-17_15-43-44_260595134347_rgbf000096-resize-original.jpg,125,1.1909999999999998,0,3753,131,feet,jsons/VE125_randls_11.json,651823,869501,44,Woman
116,606227,DepthScenes,duration_manipulation_targetAtFixation,jsons/VE125_randls_11.json,http://54.235.29.9/FacialAge/BNav_EC2/DepthDuration/v2_depth_duration_MTurk/v2_DepthDuration_HTML.html#287,287,1279,609,1280,720,8-29-2022,17-14-37,117,depth_duration_stimuli/002784_2014-06-22_19-26-30_094959634447_rgbf000083-resize_3/002784_2014-06-22_19-26-30_094959634447_rgbf000083-resize_3-target.png,125,1.8046666666667,3,5812,122,feet,jsons/VE125_randls_11.json,651823,869501,44,Woman
117,606227,DepthScenes,duration_manipulation_targetAtFixation,jsons/VE125_randls_11.json,http://54.235.29.9/FacialAge/BNav_EC2/DepthDuration/v2_depth_duration_MTurk/v2_DepthDuration_HTML.html#287,287,1279,609,1280,720,8-29-2022,17-14-37,118,depth_duration_stimuli/001100_2014-06-15_17-46-26_260595134347_rgbf000225-resize_2/001100_2014-06-15_17-46-26_260595134347_rgbf000225-resize_2-target.png,125,2.24,3,2550,122,feet,jsons/VE125_randls_11.json,651823,869501,44,Woman
118,606227,DepthScenes,duration_manipulation_targetAtFixation,jsons/VE125_randls_11.json,http://54.235.29.9/FacialAge/BNav_EC2/DepthDuration/v2_depth_duration_MTurk/v2_DepthDuration_HTML.html#287,287,1279,609,1280,720,8-29-2022,17-14-37,119,depth_duration_stimuli/000470_2014-06-09_19-42-40_260595134347_rgbf000094-resize_1/000470_2014-06-09_19-42-40_260595134347_rgbf000094-resize_1-target.png,125,1.831,3,2266,126,feet,jsons/VE125_randls_11.json,651823,869501,44,Woman
119,606227,DepthScenes,duration_manipulation_targetAtFixation,jsons/VE125_randls_11.json,http://54.235.29.9/FacialAge/BNav_EC2/DepthDuration/v2_depth_duration_MTurk/v2_DepthDuration_HTML.html#287,287,1279,609,1280,720,8-29-2022,17-14-37,120,depth_duration_stimuli/000109_2014-05-14_23-41-52_260595134347_rgbf000035-resize_9/000109_2014-05-14_23-41-52_260595134347_rgbf000035-resize_9-target.png,125,1.3545,3,2048,124,feet,jsons/VE125_randls_11.json,651823,869501,44,Woman
120,606227,DepthScenes,duration_manipulation_targetAtFixation,jsons/VE125_randls_11.json,http://54.235.29.9/FacialAge/BNav_EC2/DepthDuration/v2_depth_duration_MTurk/v2_DepthDuration_HTML.html#287,287,1279,609,1280,720,8-29-2022,17-14-37,121,depth_duration_stimuli/002663_2014-06-13_15-50-26_094959634447_rgbf000075-resize_1/002663_2014-06-13_15-50-26_094959634447_rgbf000075-resize_1-target.png,125,4.7495,9,2790,125,feet,jsons/VE125_randls_11.json,651823,869501,44,Woman
121,606227,DepthScenes,duration_manipulation_targetAtFixation,jsons/VE125_randls_11.json,http://54.235.29.9/FacialAge/BNav_EC2/DepthDuration/v2_depth_duration_MTurk/v2_DepthDuration_HTML.html#287,287,1279,609,1280,720,8-29-2022,17-14-37,122,depth_duration_stimuli/000409_2014-06-04_19-23-33_260595134347_rgbf000067-resize_0/000409_2014-06-04_19-23-33_260595134347_rgbf000067-resize_0-target.png,125,3.7335,9,2567,115,feet,jsons/VE125_randls_11.json,651823,869501,44,Woman
122,606227,DepthScenes,duration_manipulation_targetAtFixation,jsons/VE125_randls_11.json,http://54.235.29.9/FacialAge/BNav_EC2/DepthDuration/v2_depth_duration_MTurk/v2_DepthDuration_HTML.html#287,287,1279,609,1280,720,8-29-2022,17-14-37,123,depth_duration_stimuli/001158_2014-06-17_15-32-16_260595134347_rgbf000138-resize_2/001158_2014-06-17_15-32-16_260595134347_rgbf000138-resize_2-target.png,125,4.5315,12,2879,122,feet,jsons/VE125_randls_11.json,651823,869501,44,Woman
123,606227,DepthScenes,duration_manipulation_targetAtFixation,jsons/VE125_randls_11.json,http://54.235.29.9/FacialAge/BNav_EC2/DepthDuration/v2_depth_duration_MTurk/v2_DepthDuration_HTML.html#287,287,1279,609,1280,720,8-29-2022,17-14-37,124,depth_duration_stimuli/000556_2014-06-09_22-42-56_260595134347_rgbf000214-resize_1/000556_2014-06-09_22-42-56_260595134347_rgbf000214-resize_1-target.png,125,4.8415,10,3745,113,feet,jsons/VE125_randls_11.json,651823,869501,44,Woman
124,606227,DepthScenes,duration_manipulation_targetAtFixation,jsons/VE125_randls_11.json,http://54.235.29.9/FacialAge/BNav_EC2/DepthDuration/v2_depth_duration_MTurk/v2_DepthDuration_HTML.html#287,287,1279,609,1280,720,8-29-2022,17-14-37,125,depth_duration_stimuli/002763_2014-06-22_19-13-10_094959634447_rgbf000075-resize_4/002763_2014-06-22_19-13-10_094959634447_rgbf000075-resize_4-target.png,125,1.68375,4,2916,131,feet,jsons/VE125_randls_11.json,651823,869501,44,Woman
125,606227,DepthScenes,duration_manipulation_targetAtFixation,jsons/VE125_randls_11.json,http://54.235.29.9/FacialAge/BNav_EC2/DepthDuration/v2_depth_duration_MTurk/v2_DepthDuration_HTML.html#287,287,1279,609,1280,720,8-29-2022,17-14-37,126,depth_duration_stimuli/002209_2014-06-28_18-36-10_260595134347_rgbf000051-resize_1/002209_2014-06-28_18-36-10_260595134347_rgbf000051-resize_1-target.png,125,2.057,5,2845,116,feet,jsons/VE125_randls_11.json,651823,869501,44,Woman
126,606227,DepthScenes,duration_manipulation_targetAtFixation,jsons/VE125_randls_11.json,http://54.235.29.9/FacialAge/BNav_EC2/DepthDuration/v2_depth_duration_MTurk/v2_DepthDuration_HTML.html#287,287,1279,609,1280,720,8-29-2022,17-14-37,127,depth_duration_stimuli/000773_2014-06-08_22-24-54_260595134347_rgbf000093-resize_1/000773_2014-06-08_22-24-54_260595134347_rgbf000093-resize_1-target.png,125,4.973,12,3697,117,feet,jsons/VE125_randls_11.json,651823,869501,44,Woman
127,606227,DepthScenes,duration_manipulation_targetAtFixation,jsons/VE125_randls_11.json,http://54.235.29.9/FacialAge/BNav_EC2/DepthDuration/v2_depth_duration_MTurk/v2_DepthDuration_HTML.html#287,287,1279,609,1280,720,8-29-2022,17-14-37,128,depth_duration_stimuli/002414_2014-06-28_20-24-58_260595134347_rgbf000067-resize_4/002414_2014-06-28_20-24-58_260595134347_rgbf000067-resize_4-target.png,125,4.363,12,2707,132,feet,jsons/VE125_randls_11.json,651823,869501,44,Woman
128,606227,DepthScenes,duration_manipulation_targetAtFixation,jsons/VE125_randls_11.json,http://54.235.29.9/FacialAge/BNav_EC2/DepthDuration/v2_depth_duration_MTurk/v2_DepthDuration_HTML.html#287,287,1279,609,1280,720,8-29-2022,17-14-37,129,depth_duration_stimuli/000642_2014-06-08_16-59-25_260595134347_rgbf000098-resize_2/000642_2014-06-08_16-59-25_260595134347_rgbf000098-resize_2-target.png,125,2.8815,6,3732,122,feet,jsons/VE125_randls_11.json,651823,869501,44,Woman
129,606227,DepthScenes,duration_manipulation_targetAtFixation,jsons/VE125_randls_11.json,http://54.235.29.9/FacialAge/BNav_EC2/DepthDuration/v2_depth_duration_MTurk/v2_DepthDuration_HTML.html#287,287,1279,609,1280,720,8-29-2022,17-14-37,130,depth_duration_stimuli/002425_2014-06-28_20-27-29_260595134347_rgbf000031-resize_8/002425_2014-06-28_20-27-29_260595134347_rgbf000031-resize_8-target.png,125,3.8960000000000004,12,2633,118,feet,jsons/VE125_randls_11.json,651823,869501,44,Woman
130,606227,DepthScenes,duration_manipulation_targetAtFixation,jsons/VE125_randls_11.json,http://54.235.29.9/FacialAge/BNav_EC2/DepthDuration/v2_depth_duration_MTurk/v2_DepthDuration_HTML.html#287,287,1279,609,1280,720,8-29-2022,17-14-37,131,depth_duration_stimuli/003070_2014-06-15_14-58-27_094959634447_rgbf000150-resize_3/003070_2014-06-15_14-58-27_094959634447_rgbf000150-resize_3-target.png,125,2.9415,6,2540,124,feet,jsons/VE125_randls_11.json,651823,869501,44,Woman
131,606227,DepthScenes,duration_manipulation_targetAtFixation,jsons/VE125_randls_11.json,http://54.235.29.9/FacialAge/BNav_EC2/DepthDuration/v2_depth_duration_MTurk/v2_DepthDuration_HTML.html#287,287,1279,609,1280,720,8-29-2022,17-14-37,132,depth_duration_stimuli/000943_2014-06-09_19-31-07_260595134347_rgbf000128-resize_1/000943_2014-06-09_19-31-07_260595134347_rgbf000128-resize_1-target.png,125,1.9765,4,2814,128,feet,jsons/VE125_randls_11.json,651823,869501,44,Woman
132,606227,DepthScenes,duration_manipulation_targetAtFixation,jsons/VE125_randls_11.json,http://54.235.29.9/FacialAge/BNav_EC2/DepthDuration/v2_depth_duration_MTurk/v2_DepthDuration_HTML.html#287,287,1279,609,1280,720,8-29-2022,17-14-37,133,depth_duration_stimuli/002039_2014-06-24_20-22-38_260595134347_rgbf000084-resize_1/002039_2014-06-24_20-22-38_260595134347_rgbf000084-resize_1-target.png,125,4.408,12,3423,124,feet,jsons/VE125_randls_11.json,651823,869501,44,Woman
133,606227,DepthScenes,duration_manipulation_targetAtFixation,jsons/VE125_randls_11.json,http://54.235.29.9/FacialAge/BNav_EC2/DepthDuration/v2_depth_duration_MTurk/v2_DepthDuration_HTML.html#287,287,1279,609,1280,720,8-29-2022,17-14-37,134,depth_duration_stimuli/002103_2014-06-25_20-00-40_260595134347_rgbf000049-resize_0/002103_2014-06-25_20-00-40_260595134347_rgbf000049-resize_0-target.png,125,4.105,6,3843,132,feet,jsons/VE125_randls_11.json,651823,869501,44,Woman
134,606227,DepthScenes,duration_manipulation_targetAtFixation,jsons/VE125_randls_11.json,http://54.235.29.9/FacialAge/BNav_EC2/DepthDuration/v2_depth_duration_MTurk/v2_DepthDuration_HTML.html#287,287,1279,609,1280,720,8-29-2022,17-14-37,135,depth_duration_stimuli/002072_2014-06-24_21-48-06_260595134347_rgbf000115-resize_0/002072_2014-06-24_21-48-06_260595134347_rgbf000115-resize-original.jpg,125,4.702,0,2802,122,feet,jsons/VE125_randls_11.json,651823,869501,44,Woman
135,606227,DepthScenes,duration_manipulation_targetAtFixation,jsons/VE125_randls_11.json,http://54.235.29.9/FacialAge/BNav_EC2/DepthDuration/v2_depth_duration_MTurk/v2_DepthDuration_HTML.html#287,287,1279,609,1280,720,8-29-2022,17-14-37,136,depth_duration_stimuli/003621_2014-05-23_18-06-08_094959634447_rgbf000101-resize_1/003621_2014-05-23_18-06-08_094959634447_rgbf000101-resize_1-target.png,125,3.9835,6,3139,115,feet,jsons/VE125_randls_11.json,651823,869501,44,Woman
136,606227,DepthScenes,duration_manipulation_targetAtFixation,jsons/VE125_randls_11.json,http://54.235.29.9/FacialAge/BNav_EC2/DepthDuration/v2_depth_duration_MTurk/v2_DepthDuration_HTML.html#287,287,1279,609,1280,720,8-29-2022,17-14-37,137,depth_duration_stimuli/001584_2014-06-20_11-07-43_260595134347_rgbf000002-resize_1/001584_2014-06-20_11-07-43_260595134347_rgbf000002-resize_1-target.png,125,3.53,8,2802,116,feet,jsons/VE125_randls_11.json,651823,869501,44,Woman
137,606227,DepthScenes,duration_manipulation_targetAtFixation,jsons/VE125_randls_11.json,http://54.235.29.9/FacialAge/BNav_EC2/DepthDuration/v2_depth_duration_MTurk/v2_DepthDuration_HTML.html#287,287,1279,609,1280,720,8-29-2022,17-14-37,138,depth_duration_stimuli/003534_2014-05-22_15-06-10_094959634447_rgbf000102-resize_4/003534_2014-05-22_15-06-10_094959634447_rgbf000102-resize_4-target.png,125,1.426,4,2871,124,feet,jsons/VE125_randls_11.json,651823,869501,44,Woman
138,606227,DepthScenes,duration_manipulation_targetAtFixation,jsons/VE125_randls_11.json,http://54.235.29.9/FacialAge/BNav_EC2/DepthDuration/v2_depth_duration_MTurk/v2_DepthDuration_HTML.html#287,287,1279,609,1280,720,8-29-2022,17-14-37,139,depth_duration_stimuli/002637_2014-06-24_14-51-13_094959634447_rgbf000066-resize_4/002637_2014-06-24_14-51-13_094959634447_rgbf000066-resize_4-target.png,125,1.9955,4,3923,121,feet,jsons/VE125_randls_11.json,651823,869501,44,Woman
139,606227,DepthScenes,duration_manipulation_targetAtFixation,jsons/VE125_randls_11.json,http://54.235.29.9/FacialAge/BNav_EC2/DepthDuration/v2_depth_duration_MTurk/v2_DepthDuration_HTML.html#287,287,1279,609,1280,720,8-29-2022,17-14-37,140,depth_duration_stimuli/000486_2014-06-09_20-47-20_260595134347_rgbf000143-resize_2/000486_2014-06-09_20-47-20_260595134347_rgbf000143-resize_2-target.png,125,4.8325,6,3205,125,feet,jsons/VE125_randls_11.json,651823,869501,44,Woman
140,606227,DepthScenes,duration_manipulation_targetAtFixation,jsons/VE125_randls_11.json,http://54.235.29.9/FacialAge/BNav_EC2/DepthDuration/v2_depth_duration_MTurk/v2_DepthDuration_HTML.html#287,287,1279,609,1280,720,8-29-2022,17-14-37,141,depth_duration_stimuli/003083_2014-06-15_15-21-03_094959634447_rgbf000063-resize_1/003083_2014-06-15_15-21-03_094959634447_rgbf000063-resize_1-target.png,125,4.1405,8,2815,125,feet,jsons/VE125_randls_11.json,651823,869501,44,Woman
141,606227,DepthScenes,duration_manipulation_targetAtFixation,jsons/VE125_randls_11.json,http://54.235.29.9/FacialAge/BNav_EC2/DepthDuration/v2_depth_duration_MTurk/v2_DepthDuration_HTML.html#287,287,1279,609,1280,720,8-29-2022,17-14-37,142,depth_duration_stimuli/000788_2014-06-08_22-34-36_260595134347_rgbf000131-resize_1/000788_2014-06-08_22-34-36_260595134347_rgbf000131-resize_1-target.png,125,3.359,8,2715,113,feet,jsons/VE125_randls_11.json,651823,869501,44,Woman
142,606227,DepthScenes,duration_manipulation_targetAtFixation,jsons/VE125_randls_11.json,http://54.235.29.9/FacialAge/BNav_EC2/DepthDuration/v2_depth_duration_MTurk/v2_DepthDuration_HTML.html#287,287,1279,609,1280,720,8-29-2022,17-14-37,143,depth_duration_stimuli/001235_2014-06-17_16-37-36_260595134347_rgbf000084-resize_4/001235_2014-06-17_16-37-36_260595134347_rgbf000084-resize_4-target.png,125,3.6605,7,3237,131,feet,jsons/VE125_randls_11.json,651823,869501,44,Woman
143,606227,DepthScenes,duration_manipulation_targetAtFixation,jsons/VE125_randls_11.json,http://54.235.29.9/FacialAge/BNav_EC2/DepthDuration/v2_depth_duration_MTurk/v2_DepthDuration_HTML.html#287,287,1279,609,1280,720,8-29-2022,17-14-37,144,depth_duration_stimuli/000368_2014-06-09_15-53-01_260595134347_rgbf000155-resize_2/000368_2014-06-09_15-53-01_260595134347_rgbf000155-resize_2-target.png,125,2.4859999999999998,7,2402,125,feet,jsons/VE125_randls_11.json,651823,869501,44,Woman
144,606227,DepthScenes,duration_manipulation_targetAtFixation,jsons/VE125_randls_11.json,http://54.235.29.9/FacialAge/BNav_EC2/DepthDuration/v2_depth_duration_MTurk/v2_DepthDuration_HTML.html#287,287,1279,609,1280,720,8-29-2022,17-14-37,145,depth_duration_stimuli/002678_2014-06-13_16-15-32_094959634447_rgbf000151-resize_6/002678_2014-06-13_16-15-32_094959634447_rgbf000151-resize_6-target.png,125,2.1830000000000003,8,3157,139,feet,jsons/VE125_randls_11.json,651823,869501,44,Woman
145,606227,DepthScenes,duration_manipulation_targetAtFixation,jsons/VE125_randls_11.json,http://54.235.29.9/FacialAge/BNav_EC2/DepthDuration/v2_depth_duration_MTurk/v2_DepthDuration_HTML.html#287,287,1279,609,1280,720,8-29-2022,17-14-37,146,depth_duration_stimuli/001498_2014-06-19_17-45-14_260595134347_rgbf000129-resize_4/001498_2014-06-19_17-45-14_260595134347_rgbf000129-resize-original.jpg,125,1.4075,0,2691,131,feet,jsons/VE125_randls_11.json,651823,869501,44,Woman
146,606227,DepthScenes,duration_manipulation_targetAtFixation,jsons/VE125_randls_11.json,http://54.235.29.9/FacialAge/BNav_EC2/DepthDuration/v2_depth_duration_MTurk/v2_DepthDuration_HTML.html#287,287,1279,609,1280,720,8-29-2022,17-14-37,147,depth_duration_stimuli/001167_2014-06-17_15-38-07_260595134347_rgbf000108-resize_0/001167_2014-06-17_15-38-07_260595134347_rgbf000108-resize_0-target.png,125,1.8505,4,3515,132,feet,jsons/VE125_randls_11.json,651823,869501,44,Woman
147,606227,DepthScenes,duration_manipulation_targetAtFixation,jsons/VE125_randls_11.json,http://54.235.29.9/FacialAge/BNav_EC2/DepthDuration/v2_depth_duration_MTurk/v2_DepthDuration_HTML.html#287,287,1279,609,1280,720,8-29-2022,17-14-37,148,depth_duration_stimuli/003587_2014-05-23_16-48-02_094959634447_rgbf002384-resize_2/003587_2014-05-23_16-48-02_094959634447_rgbf002384-resize_2-target.png,125,1.357,4,2610,120,feet,jsons/VE125_randls_11.json,651823,869501,44,Woman
148,606227,DepthScenes,duration_manipulation_targetAtFixation,jsons/VE125_randls_11.json,http://54.235.29.9/FacialAge/BNav_EC2/DepthDuration/v2_depth_duration_MTurk/v2_DepthDuration_HTML.html#287,287,1279,609,1280,720,8-29-2022,17-14-37,149,depth_duration_stimuli/002118_2014-06-25_20-32-08_260595134347_rgbf000078-resize_1/002118_2014-06-25_20-32-08_260595134347_rgbf000078-resize_1-target.png,125,2.6460000000000004,7,2783,134,feet,jsons/VE125_randls_11.json,651823,869501,44,Woman
149,606227,DepthScenes,duration_manipulation_targetAtFixation,jsons/VE125_randls_11.json,http://54.235.29.9/FacialAge/BNav_EC2/DepthDuration/v2_depth_duration_MTurk/v2_DepthDuration_HTML.html#287,287,1279,609,1280,720,8-29-2022,17-14-37,150,depth_duration_stimuli/001516_2014-06-20_16-25-09_260595134347_rgbf000076-resize_2/001516_2014-06-20_16-25-09_260595134347_rgbf000076-resize_2-target.png,125,1.7445,4,2854,126,feet,jsons/VE125_randls_11.json,651823,869501,44,Woman
150,606227,DepthScenes,duration_manipulation_targetAtFixation,jsons/VE125_randls_11.json,http://54.235.29.9/FacialAge/BNav_EC2/DepthDuration/v2_depth_duration_MTurk/v2_DepthDuration_HTML.html#287,287,1279,609,1280,720,8-29-2022,17-14-37,151,depth_duration_stimuli/002057_2014-06-24_21-00-13_260595134347_rgbf000120-resize_1/002057_2014-06-24_21-00-13_260595134347_rgbf000120-resize_1-target.png,125,2.967,9,3870,116,feet,jsons/VE125_randls_11.json,651823,869501,44,Woman
151,606227,DepthScenes,duration_manipulation_targetAtFixation,jsons/VE125_randls_11.json,http://54.235.29.9/FacialAge/BNav_EC2/DepthDuration/v2_depth_duration_MTurk/v2_DepthDuration_HTML.html#287,287,1279,609,1280,720,8-29-2022,17-14-37,152,depth_duration_stimuli/000709_2014-06-08_13-51-55_260595134347_rgbf000068-resize_3/000709_2014-06-08_13-51-55_260595134347_rgbf000068-resize_3-target.png,125,1.8030000000000002,3,2818,138,feet,jsons/VE125_randls_11.json,651823,869501,44,Woman
152,606227,DepthScenes,duration_manipulation_targetAtFixation,jsons/VE125_randls_11.json,http://54.235.29.9/FacialAge/BNav_EC2/DepthDuration/v2_depth_duration_MTurk/v2_DepthDuration_HTML.html#287,287,1279,609,1280,720,8-29-2022,17-14-37,153,depth_duration_stimuli/000009_2014-05-26_14-32-05_260595134347_rgbf000034-resize_3/000009_2014-05-26_14-32-05_260595134347_rgbf000034-resize_3-target.png,125,3.8715,12,4053,122,feet,jsons/VE125_randls_11.json,651823,869501,44,Woman
153,606227,DepthScenes,duration_manipulation_targetAtFixation,jsons/VE125_randls_11.json,http://54.235.29.9/FacialAge/BNav_EC2/DepthDuration/v2_depth_duration_MTurk/v2_DepthDuration_HTML.html#287,287,1279,609,1280,720,8-29-2022,17-14-37,154,depth_duration_stimuli/001828_2014-06-26_21-40-03_260595134347_rgbf000024-resize_0/001828_2014-06-26_21-40-03_260595134347_rgbf000024-resize_0-target.png,125,4.8260000000000005,10,4176,120,feet,jsons/VE125_randls_11.json,651823,869501,44,Woman
154,606227,DepthScenes,duration_manipulation_targetAtFixation,jsons/VE125_randls_11.json,http://54.235.29.9/FacialAge/BNav_EC2/DepthDuration/v2_depth_duration_MTurk/v2_DepthDuration_HTML.html#287,287,1279,609,1280,720,8-29-2022,17-14-37,155,depth_duration_stimuli/000917_2014-06-09_22-45-29_260595134347_rgbf000149-resize_3/000917_2014-06-09_22-45-29_260595134347_rgbf000149-resize_3-target.png,125,4.1865,8,3382,121,feet,jsons/VE125_randls_11.json,651823,869501,44,Woman
155,606227,DepthScenes,duration_manipulation_targetAtFixation,jsons/VE125_randls_11.json,http://54.235.29.9/FacialAge/BNav_EC2/DepthDuration/v2_depth_duration_MTurk/v2_DepthDuration_HTML.html#287,287,1279,609,1280,720,8-29-2022,17-14-37,156,depth_duration_stimuli/002323_2014-06-28_20-01-54_260595134347_rgbf000051-resize_4/002323_2014-06-28_20-01-54_260595134347_rgbf000051-resize_4-target.png,125,3.7310000000000003,8,2315,109,feet,jsons/VE125_randls_11.json,651823,869501,44,Woman
156,606227,DepthScenes,duration_manipulation_targetAtFixation,jsons/VE125_randls_11.json,http://54.235.29.9/FacialAge/BNav_EC2/DepthDuration/v2_depth_duration_MTurk/v2_DepthDuration_HTML.html#287,287,1279,609,1280,720,8-29-2022,17-14-37,157,depth_duration_stimuli/001092_2014-06-15_17-34-58_260595134347_rgbf000171-resize_3/001092_2014-06-15_17-34-58_260595134347_rgbf000171-resize_3-target.png,125,2.6935,5,2822,126,feet,jsons/VE125_randls_11.json,651823,869501,44,Woman
157,606227,DepthScenes,duration_manipulation_targetAtFixation,jsons/VE125_randls_11.json,http://54.235.29.9/FacialAge/BNav_EC2/DepthDuration/v2_depth_duration_MTurk/v2_DepthDuration_HTML.html#287,287,1279,609,1280,720,8-29-2022,17-14-37,158,depth_duration_stimuli/002545_2014-06-24_13-38-53_094959634447_rgbf000080-resize_4/002545_2014-06-24_13-38-53_094959634447_rgbf000080-resize_4-target.png,125,1.9205,6,2886,113,feet,jsons/VE125_randls_11.json,651823,869501,44,Woman
158,606227,DepthScenes,duration_manipulation_targetAtFixation,jsons/VE125_randls_11.json,http://54.235.29.9/FacialAge/BNav_EC2/DepthDuration/v2_depth_duration_MTurk/v2_DepthDuration_HTML.html#287,287,1279,609,1280,720,8-29-2022,17-14-37,159,depth_duration_stimuli/002043_2014-06-24_20-29-38_260595134347_rgbf000039-resize_4/002043_2014-06-24_20-29-38_260595134347_rgbf000039-resize_4-target.png,125,2.8435,7,2601,122,feet,jsons/VE125_randls_11.json,651823,869501,44,Woman
159,606227,DepthScenes,duration_manipulation_targetAtFixation,jsons/VE125_randls_11.json,http://54.235.29.9/FacialAge/BNav_EC2/DepthDuration/v2_depth_duration_MTurk/v2_DepthDuration_HTML.html#287,287,1279,609,1280,720,8-29-2022,17-14-37,160,depth_duration_stimuli/003048_2014-06-15_13-49-43_094959634447_rgbf000150-resize_1/003048_2014-06-15_13-49-43_094959634447_rgbf000150-resize_1-target.png,125,4.0035,9,2594,116,feet,jsons/VE125_randls_11.json,651823,869501,44,Woman
160,606227,DepthScenes,duration_manipulation_targetAtFixation,jsons/VE125_randls_11.json,http://54.235.29.9/FacialAge/BNav_EC2/DepthDuration/v2_depth_duration_MTurk/v2_DepthDuration_HTML.html#287,287,1279,609,1280,720,8-29-2022,17-14-37,161,depth_duration_stimuli/001555_2014-06-20_17-12-10_260595134347_rgbf000065-resize_4/001555_2014-06-20_17-12-10_260595134347_rgbf000065-resize_4-target.png,125,1.633,4,3236,123,feet,jsons/VE125_randls_11.json,651823,869501,44,Woman
161,606227,DepthScenes,duration_manipulation_targetAtFixation,jsons/VE125_randls_11.json,http://54.235.29.9/FacialAge/BNav_EC2/DepthDuration/v2_depth_duration_MTurk/v2_DepthDuration_HTML.html#287,287,1279,609,1280,720,8-29-2022,17-14-37,162,depth_duration_stimuli/000103_2014-05-14_22-01-17_260595134347_rgbf000152-resize_5/000103_2014-05-14_22-01-17_260595134347_rgbf000152-resize_5-target.png,125,1.993,8,3955,115,feet,jsons/VE125_randls_11.json,651823,869501,44,Woman
162,606227,DepthScenes,duration_manipulation_targetAtFixation,jsons/VE125_randls_11.json,http://54.235.29.9/FacialAge/BNav_EC2/DepthDuration/v2_depth_duration_MTurk/v2_DepthDuration_HTML.html#287,287,1279,609,1280,720,8-29-2022,17-14-37,163,depth_duration_stimuli/001810_2014-06-26_20-51-35_260595134347_rgbf000040-resize_3/001810_2014-06-26_20-51-35_260595134347_rgbf000040-resize_3-target.png,125,2.2525,6,2772,117,feet,jsons/VE125_randls_11.json,651823,869501,44,Woman
163,606227,DepthScenes,duration_manipulation_targetAtFixation,jsons/VE125_randls_11.json,http://54.235.29.9/FacialAge/BNav_EC2/DepthDuration/v2_depth_duration_MTurk/v2_DepthDuration_HTML.html#287,287,1279,609,1280,720,8-29-2022,17-14-37,164,depth_duration_stimuli/003010_2014-06-15_12-54-35_094959634447_rgbf000112-resize_0/003010_2014-06-15_12-54-35_094959634447_rgbf000112-resize_0-target.png,125,3.1185,8,7428,133,feet,jsons/VE125_randls_11.json,651823,869501,44,Woman
