,subjID,experimentName,versionName,sequenceName,url,selected_row,windowWidth,windowHeight,screenWidth,screenHeight,startDate,startTime,trial,stimulus,duration,actual_depth,depth_estimate,trial_RT,log_sceneDuration,unitSelection,seq_filepath,experimentTime,totalTime,age,gender
0,609937,DepthScenes,duration_manipulation_targetAtFixation,jsons/VE125_randls_24.json,http://54.235.29.9/FacialAge/BNav_EC2/DepthDuration/v2_depth_duration_MTurk/v2_DepthDuration_HTML.html#82,82,1440,789,1440,900,8-21-2022,9-35-23,1,depth_duration_stimuli/002153_2014-06-25_21-27-18_260595134347_rgbf000038-resize_5/002153_2014-06-25_21-27-18_260595134347_rgbf000038-resize_5-target.png,125,2.505,50,3625,125,meters,jsons/VE125_randls_24.json,904763,1358199,35,Man
1,609937,DepthScenes,duration_manipulation_targetAtFixation,jsons/VE125_randls_24.json,http://54.235.29.9/FacialAge/BNav_EC2/DepthDuration/v2_depth_duration_MTurk/v2_DepthDuration_HTML.html#82,82,1440,789,1440,900,8-21-2022,9-35-23,2,depth_duration_stimuli/002660_2014-06-13_15-44-18_094959634447_rgbf001878-resize_2/002660_2014-06-13_15-44-18_094959634447_rgbf001878-resize_2-target.png,125,3.576,51,3258,124,meters,jsons/VE125_randls_24.json,904763,1358199,35,Man
2,609937,DepthScenes,duration_manipulation_targetAtFixation,jsons/VE125_randls_24.json,http://54.235.29.9/FacialAge/BNav_EC2/DepthDuration/v2_depth_duration_MTurk/v2_DepthDuration_HTML.html#82,82,1440,789,1440,900,8-21-2022,9-35-23,3,depth_duration_stimuli/002763_2014-06-22_19-13-10_094959634447_rgbf000075-resize_4/002763_2014-06-22_19-13-10_094959634447_rgbf000075-resize_4-target.png,125,1.68375,52,3163,124,meters,jsons/VE125_randls_24.json,904763,1358199,35,Man
3,609937,DepthScenes,duration_manipulation_targetAtFixation,jsons/VE125_randls_24.json,http://54.235.29.9/FacialAge/BNav_EC2/DepthDuration/v2_depth_duration_MTurk/v2_DepthDuration_HTML.html#82,82,1440,789,1440,900,8-21-2022,9-35-23,4,depth_duration_stimuli/002209_2014-06-28_18-36-10_260595134347_rgbf000051-resize_1/002209_2014-06-28_18-36-10_260595134347_rgbf000051-resize_1-target.png,125,2.057,52,3074,126,meters,jsons/VE125_randls_24.json,904763,1358199,35,Man
4,609937,DepthScenes,duration_manipulation_targetAtFixation,jsons/VE125_randls_24.json,http://54.235.29.9/FacialAge/BNav_EC2/DepthDuration/v2_depth_duration_MTurk/v2_DepthDuration_HTML.html#82,82,1440,789,1440,900,8-21-2022,9-35-23,5,depth_duration_stimuli/002748_2014-06-22_19-07-22_094959634447_rgbf000078-resize_1/002748_2014-06-22_19-07-22_094959634447_rgbf000078-resize_1-target.png,125,4.6705,60,3554,126,meters,jsons/VE125_randls_24.json,904763,1358199,35,Man
5,609937,DepthScenes,duration_manipulation_targetAtFixation,jsons/VE125_randls_24.json,http://54.235.29.9/FacialAge/BNav_EC2/DepthDuration/v2_depth_duration_MTurk/v2_DepthDuration_HTML.html#82,82,1440,789,1440,900,8-21-2022,9-35-23,6,depth_duration_stimuli/002995_2014-06-15_12-31-26_094959634447_rgbf000150-resize_1/002995_2014-06-15_12-31-26_094959634447_rgbf000150-resize_1-target.png,125,3.8360000000000003,61,3611,125,meters,jsons/VE125_randls_24.json,904763,1358199,35,Man
6,609937,DepthScenes,duration_manipulation_targetAtFixation,jsons/VE125_randls_24.json,http://54.235.29.9/FacialAge/BNav_EC2/DepthDuration/v2_depth_duration_MTurk/v2_DepthDuration_HTML.html#82,82,1440,789,1440,900,8-21-2022,9-35-23,7,depth_duration_stimuli/002989_2014-06-15_12-25-03_094959634447_rgbf000150-resize_3/002989_2014-06-15_12-25-03_094959634447_rgbf000150-resize_3-target.png,125,4.1975,60,3130,125,meters,jsons/VE125_randls_24.json,904763,1358199,35,Man
7,609937,DepthScenes,duration_manipulation_targetAtFixation,jsons/VE125_randls_24.json,http://54.235.29.9/FacialAge/BNav_EC2/DepthDuration/v2_depth_duration_MTurk/v2_DepthDuration_HTML.html#82,82,1440,789,1440,900,8-21-2022,9-35-23,8,depth_duration_stimuli/000866_2014-06-09_20-45-42_260595134347_rgbf000139-resize_1/000866_2014-06-09_20-45-42_260595134347_rgbf000139-resize_1-target.png,125,3.2155,52,3235,126,meters,jsons/VE125_randls_24.json,904763,1358199,35,Man
8,609937,DepthScenes,duration_manipulation_targetAtFixation,jsons/VE125_randls_24.json,http://54.235.29.9/FacialAge/BNav_EC2/DepthDuration/v2_depth_duration_MTurk/v2_DepthDuration_HTML.html#82,82,1440,789,1440,900,8-21-2022,9-35-23,9,depth_duration_stimuli/000788_2014-06-08_22-34-36_260595134347_rgbf000131-resize_1/000788_2014-06-08_22-34-36_260595134347_rgbf000131-resize_1-target.png,125,3.359,50,3116,125,meters,jsons/VE125_randls_24.json,904763,1358199,35,Man
9,609937,DepthScenes,duration_manipulation_targetAtFixation,jsons/VE125_randls_24.json,http://54.235.29.9/FacialAge/BNav_EC2/DepthDuration/v2_depth_duration_MTurk/v2_DepthDuration_HTML.html#82,82,1440,789,1440,900,8-21-2022,9-35-23,10,depth_duration_stimuli/001235_2014-06-17_16-37-36_260595134347_rgbf000084-resize_4/001235_2014-06-17_16-37-36_260595134347_rgbf000084-resize_4-target.png,125,3.6605,52,89034,124,meters,jsons/VE125_randls_24.json,904763,1358199,35,Man
10,609937,DepthScenes,duration_manipulation_targetAtFixation,jsons/VE125_randls_24.json,http://54.235.29.9/FacialAge/BNav_EC2/DepthDuration/v2_depth_duration_MTurk/v2_DepthDuration_HTML.html#82,82,1440,789,1440,900,8-21-2022,9-35-23,11,depth_duration_stimuli/003070_2014-06-15_14-58-27_094959634447_rgbf000150-resize_3/003070_2014-06-15_14-58-27_094959634447_rgbf000150-resize_3-target.png,125,2.9415,51,8234,124,meters,jsons/VE125_randls_24.json,904763,1358199,35,Man
11,609937,DepthScenes,duration_manipulation_targetAtFixation,jsons/VE125_randls_24.json,http://54.235.29.9/FacialAge/BNav_EC2/DepthDuration/v2_depth_duration_MTurk/v2_DepthDuration_HTML.html#82,82,1440,789,1440,900,8-21-2022,9-35-23,12,depth_duration_stimuli/000943_2014-06-09_19-31-07_260595134347_rgbf000128-resize_1/000943_2014-06-09_19-31-07_260595134347_rgbf000128-resize_1-target.png,125,1.9765,51,4594,126,meters,jsons/VE125_randls_24.json,904763,1358199,35,Man
12,609937,DepthScenes,duration_manipulation_targetAtFixation,jsons/VE125_randls_24.json,http://54.235.29.9/FacialAge/BNav_EC2/DepthDuration/v2_depth_duration_MTurk/v2_DepthDuration_HTML.html#82,82,1440,789,1440,900,8-21-2022,9-35-23,13,depth_duration_stimuli/000569_2014-06-09_22-51-47_260595134347_rgbf000141-resize_3/000569_2014-06-09_22-51-47_260595134347_rgbf000141-resize-original.jpg,125,4.512,0,2995,124,meters,jsons/VE125_randls_24.json,904763,1358199,35,Man
13,609937,DepthScenes,duration_manipulation_targetAtFixation,jsons/VE125_randls_24.json,http://54.235.29.9/FacialAge/BNav_EC2/DepthDuration/v2_depth_duration_MTurk/v2_DepthDuration_HTML.html#82,82,1440,789,1440,900,8-21-2022,9-35-23,14,depth_duration_stimuli/000469_2014-06-09_19-42-10_260595134347_rgbf000081-resize_1/000469_2014-06-09_19-42-10_260595134347_rgbf000081-resize_1-target.png,125,1.652,50,3316,125,meters,jsons/VE125_randls_24.json,904763,1358199,35,Man
14,609937,DepthScenes,duration_manipulation_targetAtFixation,jsons/VE125_randls_24.json,http://54.235.29.9/FacialAge/BNav_EC2/DepthDuration/v2_depth_duration_MTurk/v2_DepthDuration_HTML.html#82,82,1440,789,1440,900,8-21-2022,9-35-23,15,depth_duration_stimuli/000483_2014-06-09_20-41-45_260595134347_rgbf000116-resize_4/000483_2014-06-09_20-41-45_260595134347_rgbf000116-resize_4-target.png,125,1.337,50,3027,126,meters,jsons/VE125_randls_24.json,904763,1358199,35,Man
15,609937,DepthScenes,duration_manipulation_targetAtFixation,jsons/VE125_randls_24.json,http://54.235.29.9/FacialAge/BNav_EC2/DepthDuration/v2_depth_duration_MTurk/v2_DepthDuration_HTML.html#82,82,1440,789,1440,900,8-21-2022,9-35-23,16,depth_duration_stimuli/000810_2014-06-08_17-20-01_260595134347_rgbf000105-resize_0/000810_2014-06-08_17-20-01_260595134347_rgbf000105-resize_0-target.png,125,1.4865,54,3276,125,meters,jsons/VE125_randls_24.json,904763,1358199,35,Man
16,609937,DepthScenes,duration_manipulation_targetAtFixation,jsons/VE125_randls_24.json,http://54.235.29.9/FacialAge/BNav_EC2/DepthDuration/v2_depth_duration_MTurk/v2_DepthDuration_HTML.html#82,82,1440,789,1440,900,8-21-2022,9-35-23,17,depth_duration_stimuli/001214_2014-06-17_16-13-55_260595134347_rgbf000111-resize_0/001214_2014-06-17_16-13-55_260595134347_rgbf000111-resize_0-target.png,125,2.6505,54,3313,124,meters,jsons/VE125_randls_24.json,904763,1358199,35,Man
17,609937,DepthScenes,duration_manipulation_targetAtFixation,jsons/VE125_randls_24.json,http://54.235.29.9/FacialAge/BNav_EC2/DepthDuration/v2_depth_duration_MTurk/v2_DepthDuration_HTML.html#82,82,1440,789,1440,900,8-21-2022,9-35-23,18,depth_duration_stimuli/000917_2014-06-09_22-45-29_260595134347_rgbf000149-resize_3/000917_2014-06-09_22-45-29_260595134347_rgbf000149-resize_3-target.png,125,4.1865,35,3163,125,meters,jsons/VE125_randls_24.json,904763,1358199,35,Man
18,609937,DepthScenes,duration_manipulation_targetAtFixation,jsons/VE125_randls_24.json,http://54.235.29.9/FacialAge/BNav_EC2/DepthDuration/v2_depth_duration_MTurk/v2_DepthDuration_HTML.html#82,82,1440,789,1440,900,8-21-2022,9-35-23,19,depth_duration_stimuli/002323_2014-06-28_20-01-54_260595134347_rgbf000051-resize_4/002323_2014-06-28_20-01-54_260595134347_rgbf000051-resize_4-target.png,125,3.7310000000000003,50,3346,124,meters,jsons/VE125_randls_24.json,904763,1358199,35,Man
19,609937,DepthScenes,duration_manipulation_targetAtFixation,jsons/VE125_randls_24.json,http://54.235.29.9/FacialAge/BNav_EC2/DepthDuration/v2_depth_duration_MTurk/v2_DepthDuration_HTML.html#82,82,1440,789,1440,900,8-21-2022,9-35-23,20,depth_duration_stimuli/001806_2014-06-26_20-50-20_260595134347_rgbf000091-resize_1/001806_2014-06-26_20-50-20_260595134347_rgbf000091-resize_1-target.png,125,2.7305,53,3611,125,meters,jsons/VE125_randls_24.json,904763,1358199,35,Man
20,609937,DepthScenes,duration_manipulation_targetAtFixation,jsons/VE125_randls_24.json,http://54.235.29.9/FacialAge/BNav_EC2/DepthDuration/v2_depth_duration_MTurk/v2_DepthDuration_HTML.html#82,82,1440,789,1440,900,8-21-2022,9-35-23,21,depth_duration_stimuli/001617_2014-06-20_11-35-32_260595134347_rgbf000066-resize_1/001617_2014-06-20_11-35-32_260595134347_rgbf000066-resize_1-target.png,125,3.7910000000000004,60,3346,126,meters,jsons/VE125_randls_24.json,904763,1358199,35,Man
21,609937,DepthScenes,duration_manipulation_targetAtFixation,jsons/VE125_randls_24.json,http://54.235.29.9/FacialAge/BNav_EC2/DepthDuration/v2_depth_duration_MTurk/v2_DepthDuration_HTML.html#82,82,1440,789,1440,900,8-21-2022,9-35-23,22,depth_duration_stimuli/002725_2014-06-22_11-47-51_094959634447_rgbf000070-resize_1/002725_2014-06-22_11-47-51_094959634447_rgbf000070-resize_1-target.png,125,2.195,61,4315,125,meters,jsons/VE125_randls_24.json,904763,1358199,35,Man
22,609937,DepthScenes,duration_manipulation_targetAtFixation,jsons/VE125_randls_24.json,http://54.235.29.9/FacialAge/BNav_EC2/DepthDuration/v2_depth_duration_MTurk/v2_DepthDuration_HTML.html#82,82,1440,789,1440,900,8-21-2022,9-35-23,23,depth_duration_stimuli/002344_2014-06-28_20-06-29_260595134347_rgbf000030-resize_1/002344_2014-06-28_20-06-29_260595134347_rgbf000030-resize_1-target.png,125,1.5795,52,8579,126,meters,jsons/VE125_randls_24.json,904763,1358199,35,Man
23,609937,DepthScenes,duration_manipulation_targetAtFixation,jsons/VE125_randls_24.json,http://54.235.29.9/FacialAge/BNav_EC2/DepthDuration/v2_depth_duration_MTurk/v2_DepthDuration_HTML.html#82,82,1440,789,1440,900,8-21-2022,9-35-23,24,depth_duration_stimuli/002570_2014-06-24_13-59-54_094959634447_rgbf000059-resize_0/002570_2014-06-24_13-59-54_094959634447_rgbf000059-resize_0-target.png,125,4.037,65,3133,125,meters,jsons/VE125_randls_24.json,904763,1358199,35,Man
24,609937,DepthScenes,duration_manipulation_targetAtFixation,jsons/VE125_randls_24.json,http://54.235.29.9/FacialAge/BNav_EC2/DepthDuration/v2_depth_duration_MTurk/v2_DepthDuration_HTML.html#82,82,1440,789,1440,900,8-21-2022,9-35-23,25,depth_duration_stimuli/002467_2014-06-28_20-38-07_260595134347_rgbf000026-resize_2/002467_2014-06-28_20-38-07_260595134347_rgbf000026-resize_2-target.png,125,4.742,65,3265,125,meters,jsons/VE125_randls_24.json,904763,1358199,35,Man
25,609937,DepthScenes,duration_manipulation_targetAtFixation,jsons/VE125_randls_24.json,http://54.235.29.9/FacialAge/BNav_EC2/DepthDuration/v2_depth_duration_MTurk/v2_DepthDuration_HTML.html#82,82,1440,789,1440,900,8-21-2022,9-35-23,26,depth_duration_stimuli/000878_2014-06-08_22-52-45_260595134347_rgbf000045-resize_2/000878_2014-06-08_22-52-45_260595134347_rgbf000045-resize_2-target.png,125,2.092,70,3116,125,meters,jsons/VE125_randls_24.json,904763,1358199,35,Man
26,609937,DepthScenes,duration_manipulation_targetAtFixation,jsons/VE125_randls_24.json,http://54.235.29.9/FacialAge/BNav_EC2/DepthDuration/v2_depth_duration_MTurk/v2_DepthDuration_HTML.html#82,82,1440,789,1440,900,8-21-2022,9-35-23,27,depth_duration_stimuli/002953_2014-06-08_17-32-18_094959634447_rgbf000059-resize_5/002953_2014-06-08_17-32-18_094959634447_rgbf000059-resize_5-target.png,125,1.551,62,4634,125,meters,jsons/VE125_randls_24.json,904763,1358199,35,Man
27,609937,DepthScenes,duration_manipulation_targetAtFixation,jsons/VE125_randls_24.json,http://54.235.29.9/FacialAge/BNav_EC2/DepthDuration/v2_depth_duration_MTurk/v2_DepthDuration_HTML.html#82,82,1440,789,1440,900,8-21-2022,9-35-23,28,depth_duration_stimuli/002964_2014-06-08_17-46-11_094959634447_rgbf000091-resize_4/002964_2014-06-08_17-46-11_094959634447_rgbf000091-resize_4-target.png,125,1.6909999999999998,50,17603,125,meters,jsons/VE125_randls_24.json,904763,1358199,35,Man
28,609937,DepthScenes,duration_manipulation_targetAtFixation,jsons/VE125_randls_24.json,http://54.235.29.9/FacialAge/BNav_EC2/DepthDuration/v2_depth_duration_MTurk/v2_DepthDuration_HTML.html#82,82,1440,789,1440,900,8-21-2022,9-35-23,29,depth_duration_stimuli/002136_2014-06-25_21-18-03_260595134347_rgbf000109-resize_3/002136_2014-06-25_21-18-03_260595134347_rgbf000109-resize_3-target.png,125,1.9569999999999999,55,5403,125,meters,jsons/VE125_randls_24.json,904763,1358199,35,Man
29,609937,DepthScenes,duration_manipulation_targetAtFixation,jsons/VE125_randls_24.json,http://54.235.29.9/FacialAge/BNav_EC2/DepthDuration/v2_depth_duration_MTurk/v2_DepthDuration_HTML.html#82,82,1440,789,1440,900,8-21-2022,9-35-23,30,depth_duration_stimuli/000375_2014-06-08_11-17-29_260595134347_rgbf000133-resize_2/000375_2014-06-08_11-17-29_260595134347_rgbf000133-resize-original.jpg,125,4.718,0,2994,126,meters,jsons/VE125_randls_24.json,904763,1358199,35,Man
30,609937,DepthScenes,duration_manipulation_targetAtFixation,jsons/VE125_randls_24.json,http://54.235.29.9/FacialAge/BNav_EC2/DepthDuration/v2_depth_duration_MTurk/v2_DepthDuration_HTML.html#82,82,1440,789,1440,900,8-21-2022,9-35-23,31,depth_duration_stimuli/002549_2014-06-24_13-41-39_094959634447_rgbf000022-resize_3/002549_2014-06-24_13-41-39_094959634447_rgbf000022-resize_3-target.png,125,1.476,50,3091,126,meters,jsons/VE125_randls_24.json,904763,1358199,35,Man
31,609937,DepthScenes,duration_manipulation_targetAtFixation,jsons/VE125_randls_24.json,http://54.235.29.9/FacialAge/BNav_EC2/DepthDuration/v2_depth_duration_MTurk/v2_DepthDuration_HTML.html#82,82,1440,789,1440,900,8-21-2022,9-35-23,32,depth_duration_stimuli/002750_2014-06-22_19-08-03_094959634447_rgbf000094-resize_4/002750_2014-06-22_19-08-03_094959634447_rgbf000094-resize_4-target.png,125,2.354,59,3204,125,meters,jsons/VE125_randls_24.json,904763,1358199,35,Man
32,609937,DepthScenes,duration_manipulation_targetAtFixation,jsons/VE125_randls_24.json,http://54.235.29.9/FacialAge/BNav_EC2/DepthDuration/v2_depth_duration_MTurk/v2_DepthDuration_HTML.html#82,82,1440,789,1440,900,8-21-2022,9-35-23,33,depth_duration_stimuli/002630_2014-06-24_14-47-50_094959634447_rgbf000055-resize_1/002630_2014-06-24_14-47-50_094959634447_rgbf000055-resize_1-target.png,125,3.0095,58,3123,126,meters,jsons/VE125_randls_24.json,904763,1358199,35,Man
33,609937,DepthScenes,duration_manipulation_targetAtFixation,jsons/VE125_randls_24.json,http://54.235.29.9/FacialAge/BNav_EC2/DepthDuration/v2_depth_duration_MTurk/v2_DepthDuration_HTML.html#82,82,1440,789,1440,900,8-21-2022,9-35-23,34,depth_duration_stimuli/002758_2014-06-22_19-11-20_094959634447_rgbf000128-resize_1/002758_2014-06-22_19-11-20_094959634447_rgbf000128-resize_1-target.png,125,2.555,54,3449,124,meters,jsons/VE125_randls_24.json,904763,1358199,35,Man
34,609937,DepthScenes,duration_manipulation_targetAtFixation,jsons/VE125_randls_24.json,http://54.235.29.9/FacialAge/BNav_EC2/DepthDuration/v2_depth_duration_MTurk/v2_DepthDuration_HTML.html#82,82,1440,789,1440,900,8-21-2022,9-35-23,35,depth_duration_stimuli/000692_2014-06-08_13-09-42_260595134347_rgbf000199-resize_2/000692_2014-06-08_13-09-42_260595134347_rgbf000199-resize_2-target.png,125,3.661,64,4434,124,meters,jsons/VE125_randls_24.json,904763,1358199,35,Man
35,609937,DepthScenes,duration_manipulation_targetAtFixation,jsons/VE125_randls_24.json,http://54.235.29.9/FacialAge/BNav_EC2/DepthDuration/v2_depth_duration_MTurk/v2_DepthDuration_HTML.html#82,82,1440,789,1440,900,8-21-2022,9-35-23,36,depth_duration_stimuli/001094_2014-06-15_17-36-00_260595134347_rgbf000205-resize_0/001094_2014-06-15_17-36-00_260595134347_rgbf000205-resize_0-target.png,125,4.2175,62,3187,126,meters,jsons/VE125_randls_24.json,904763,1358199,35,Man
36,609937,DepthScenes,duration_manipulation_targetAtFixation,jsons/VE125_randls_24.json,http://54.235.29.9/FacialAge/BNav_EC2/DepthDuration/v2_depth_duration_MTurk/v2_DepthDuration_HTML.html#82,82,1440,789,1440,900,8-21-2022,9-35-23,37,depth_duration_stimuli/002279_2014-06-28_18-55-32_260595134347_rgbf000040-resize_5/002279_2014-06-28_18-55-32_260595134347_rgbf000040-resize_5-target.png,125,1.5043333333333,50,3275,126,meters,jsons/VE125_randls_24.json,904763,1358199,35,Man
37,609937,DepthScenes,duration_manipulation_targetAtFixation,jsons/VE125_randls_24.json,http://54.235.29.9/FacialAge/BNav_EC2/DepthDuration/v2_depth_duration_MTurk/v2_DepthDuration_HTML.html#82,82,1440,789,1440,900,8-21-2022,9-35-23,38,depth_duration_stimuli/000635_2014-06-08_16-38-42_260595134347_rgbf000106-resize_1/000635_2014-06-08_16-38-42_260595134347_rgbf000106-resize_1-target.png,125,2.074,64,3426,125,meters,jsons/VE125_randls_24.json,904763,1358199,35,Man
38,609937,DepthScenes,duration_manipulation_targetAtFixation,jsons/VE125_randls_24.json,http://54.235.29.9/FacialAge/BNav_EC2/DepthDuration/v2_depth_duration_MTurk/v2_DepthDuration_HTML.html#82,82,1440,789,1440,900,8-21-2022,9-35-23,39,depth_duration_stimuli/001244_2014-06-17_16-47-45_260595134347_rgbf000030-resize_4/001244_2014-06-17_16-47-45_260595134347_rgbf000030-resize_4-target.png,125,2.0425,60,4691,125,meters,jsons/VE125_randls_24.json,904763,1358199,35,Man
39,609937,DepthScenes,duration_manipulation_targetAtFixation,jsons/VE125_randls_24.json,http://54.235.29.9/FacialAge/BNav_EC2/DepthDuration/v2_depth_duration_MTurk/v2_DepthDuration_HTML.html#82,82,1440,789,1440,900,8-21-2022,9-35-23,40,depth_duration_stimuli/003495_2014-05-21_16-01-51_094959634447_rgbf000100-resize_3/003495_2014-05-21_16-01-51_094959634447_rgbf000100-resize_3-target.png,125,1.6255,51,3995,126,meters,jsons/VE125_randls_24.json,904763,1358199,35,Man
40,609937,DepthScenes,duration_manipulation_targetAtFixation,jsons/VE125_randls_24.json,http://54.235.29.9/FacialAge/BNav_EC2/DepthDuration/v2_depth_duration_MTurk/v2_DepthDuration_HTML.html#82,82,1440,789,1440,900,8-21-2022,9-35-23,41,depth_duration_stimuli/001199_2014-06-17_16-03-48_260595134347_rgbf000077-resize_0/001199_2014-06-17_16-03-48_260595134347_rgbf000077-resize_0-target.png,125,3.4375,63,3251,126,meters,jsons/VE125_randls_24.json,904763,1358199,35,Man
41,609937,DepthScenes,duration_manipulation_targetAtFixation,jsons/VE125_randls_24.json,http://54.235.29.9/FacialAge/BNav_EC2/DepthDuration/v2_depth_duration_MTurk/v2_DepthDuration_HTML.html#82,82,1440,789,1440,900,8-21-2022,9-35-23,42,depth_duration_stimuli/000502_2014-06-08_23-02-32_260595134347_rgbf000063-resize_4/000502_2014-06-08_23-02-32_260595134347_rgbf000063-resize_4-target.png,125,2.431,62,3885,125,meters,jsons/VE125_randls_24.json,904763,1358199,35,Man
42,609937,DepthScenes,duration_manipulation_targetAtFixation,jsons/VE125_randls_24.json,http://54.235.29.9/FacialAge/BNav_EC2/DepthDuration/v2_depth_duration_MTurk/v2_DepthDuration_HTML.html#82,82,1440,789,1440,900,8-21-2022,9-35-23,43,depth_duration_stimuli/001133_2014-06-17_14-49-16_260595134347_rgbf000100-resize_0/001133_2014-06-17_14-49-16_260595134347_rgbf000100-resize_0-target.png,125,4.2115,64,3049,125,meters,jsons/VE125_randls_24.json,904763,1358199,35,Man
43,609937,DepthScenes,duration_manipulation_targetAtFixation,jsons/VE125_randls_24.json,http://54.235.29.9/FacialAge/BNav_EC2/DepthDuration/v2_depth_duration_MTurk/v2_DepthDuration_HTML.html#82,82,1440,789,1440,900,8-21-2022,9-35-23,44,depth_duration_stimuli/001132_2014-06-17_14-48-54_260595134347_rgbf000100-resize_2/001132_2014-06-17_14-48-54_260595134347_rgbf000100-resize_2-target.png,125,3.753,67,3259,126,meters,jsons/VE125_randls_24.json,904763,1358199,35,Man
44,609937,DepthScenes,duration_manipulation_targetAtFixation,jsons/VE125_randls_24.json,http://54.235.29.9/FacialAge/BNav_EC2/DepthDuration/v2_depth_duration_MTurk/v2_DepthDuration_HTML.html#82,82,1440,789,1440,900,8-21-2022,9-35-23,45,depth_duration_stimuli/000787_2014-06-08_22-33-53_260595134347_rgbf000175-resize_1/000787_2014-06-08_22-33-53_260595134347_rgbf000175-resize-original.jpg,125,4.784,0,3404,126,meters,jsons/VE125_randls_24.json,904763,1358199,35,Man
45,609937,DepthScenes,duration_manipulation_targetAtFixation,jsons/VE125_randls_24.json,http://54.235.29.9/FacialAge/BNav_EC2/DepthDuration/v2_depth_duration_MTurk/v2_DepthDuration_HTML.html#82,82,1440,789,1440,900,8-21-2022,9-35-23,46,depth_duration_stimuli/000906_2014-06-08_13-35-43_260595134347_rgbf000155-resize_1/000906_2014-06-08_13-35-43_260595134347_rgbf000155-resize_1-target.png,125,2.8489999999999998,63,3644,125,meters,jsons/VE125_randls_24.json,904763,1358199,35,Man
46,609937,DepthScenes,duration_manipulation_targetAtFixation,jsons/VE125_randls_24.json,http://54.235.29.9/FacialAge/BNav_EC2/DepthDuration/v2_depth_duration_MTurk/v2_DepthDuration_HTML.html#82,82,1440,789,1440,900,8-21-2022,9-35-23,47,depth_duration_stimuli/002805_2014-06-22_19-54-03_094959634447_rgbf000079-resize_1/002805_2014-06-22_19-54-03_094959634447_rgbf000079-resize_1-target.png,125,3.1439999999999997,65,3321,125,meters,jsons/VE125_randls_24.json,904763,1358199,35,Man
47,609937,DepthScenes,duration_manipulation_targetAtFixation,jsons/VE125_randls_24.json,http://54.235.29.9/FacialAge/BNav_EC2/DepthDuration/v2_depth_duration_MTurk/v2_DepthDuration_HTML.html#82,82,1440,789,1440,900,8-21-2022,9-35-23,48,depth_duration_stimuli/001055_2014-06-08_18-45-35_260595134347_rgbf000111-resize_4/001055_2014-06-08_18-45-35_260595134347_rgbf000111-resize_4-target.png,125,2.4290000000000003,68,4075,126,meters,jsons/VE125_randls_24.json,904763,1358199,35,Man
48,609937,DepthScenes,duration_manipulation_targetAtFixation,jsons/VE125_randls_24.json,http://54.235.29.9/FacialAge/BNav_EC2/DepthDuration/v2_depth_duration_MTurk/v2_DepthDuration_HTML.html#82,82,1440,789,1440,900,8-21-2022,9-35-23,49,depth_duration_stimuli/000549_2014-06-08_22-10-24_260595134347_rgbf000247-resize_3/000549_2014-06-08_22-10-24_260595134347_rgbf000247-resize_3-target.png,125,1.841,50,3060,125,meters,jsons/VE125_randls_24.json,904763,1358199,35,Man
49,609937,DepthScenes,duration_manipulation_targetAtFixation,jsons/VE125_randls_24.json,http://54.235.29.9/FacialAge/BNav_EC2/DepthDuration/v2_depth_duration_MTurk/v2_DepthDuration_HTML.html#82,82,1440,789,1440,900,8-21-2022,9-35-23,50,depth_duration_stimuli/000682_2014-06-08_23-14-58_260595134347_rgbf000041-resize_5/000682_2014-06-08_23-14-58_260595134347_rgbf000041-resize_5-target.png,125,2.7239999999999998,52,4490,125,meters,jsons/VE125_randls_24.json,904763,1358199,35,Man
50,609937,DepthScenes,duration_manipulation_targetAtFixation,jsons/VE125_randls_24.json,http://54.235.29.9/FacialAge/BNav_EC2/DepthDuration/v2_depth_duration_MTurk/v2_DepthDuration_HTML.html#82,82,1440,789,1440,900,8-21-2022,9-35-23,51,depth_duration_stimuli/001650_2014-06-20_12-09-00_260595134347_rgbf000087-resize_3/001650_2014-06-20_12-09-00_260595134347_rgbf000087-resize_3-target.png,125,1.9505,50,3802,126,meters,jsons/VE125_randls_24.json,904763,1358199,35,Man
51,609937,DepthScenes,duration_manipulation_targetAtFixation,jsons/VE125_randls_24.json,http://54.235.29.9/FacialAge/BNav_EC2/DepthDuration/v2_depth_duration_MTurk/v2_DepthDuration_HTML.html#82,82,1440,789,1440,900,8-21-2022,9-35-23,52,depth_duration_stimuli/002988_2014-06-15_12-24-20_094959634447_rgbf000150-resize_1/002988_2014-06-15_12-24-20_094959634447_rgbf000150-resize_1-target.png,125,4.7669999999999995,68,3337,125,meters,jsons/VE125_randls_24.json,904763,1358199,35,Man
52,609937,DepthScenes,duration_manipulation_targetAtFixation,jsons/VE125_randls_24.json,http://54.235.29.9/FacialAge/BNav_EC2/DepthDuration/v2_depth_duration_MTurk/v2_DepthDuration_HTML.html#82,82,1440,789,1440,900,8-21-2022,9-35-23,53,depth_duration_stimuli/001052_2014-06-08_18-24-54_260595134347_rgbf000130-resize_1/001052_2014-06-08_18-24-54_260595134347_rgbf000130-resize_1-target.png,125,4.1045,0,12346,124,meters,jsons/VE125_randls_24.json,904763,1358199,35,Man
53,609937,DepthScenes,duration_manipulation_targetAtFixation,jsons/VE125_randls_24.json,http://54.235.29.9/FacialAge/BNav_EC2/DepthDuration/v2_depth_duration_MTurk/v2_DepthDuration_HTML.html#82,82,1440,789,1440,900,8-21-2022,9-35-23,54,depth_duration_stimuli/002039_2014-06-24_20-22-38_260595134347_rgbf000084-resize_1/002039_2014-06-24_20-22-38_260595134347_rgbf000084-resize_1-target.png,125,4.408,65,4947,125,meters,jsons/VE125_randls_24.json,904763,1358199,35,Man
54,609937,DepthScenes,duration_manipulation_targetAtFixation,jsons/VE125_randls_24.json,http://54.235.29.9/FacialAge/BNav_EC2/DepthDuration/v2_depth_duration_MTurk/v2_DepthDuration_HTML.html#82,82,1440,789,1440,900,8-21-2022,9-35-23,55,depth_duration_stimuli/002103_2014-06-25_20-00-40_260595134347_rgbf000049-resize_0/002103_2014-06-25_20-00-40_260595134347_rgbf000049-resize_0-target.png,125,4.105,62,3578,125,meters,jsons/VE125_randls_24.json,904763,1358199,35,Man
55,609937,DepthScenes,duration_manipulation_targetAtFixation,jsons/VE125_randls_24.json,http://54.235.29.9/FacialAge/BNav_EC2/DepthDuration/v2_depth_duration_MTurk/v2_DepthDuration_HTML.html#82,82,1440,789,1440,900,8-21-2022,9-35-23,56,depth_duration_stimuli/001164_2014-06-17_15-35-46_260595134347_rgbf000085-resize_3/001164_2014-06-17_15-35-46_260595134347_rgbf000085-resize_3-target.png,125,2.354,67,3418,124,meters,jsons/VE125_randls_24.json,904763,1358199,35,Man
56,609937,DepthScenes,duration_manipulation_targetAtFixation,jsons/VE125_randls_24.json,http://54.235.29.9/FacialAge/BNav_EC2/DepthDuration/v2_depth_duration_MTurk/v2_DepthDuration_HTML.html#82,82,1440,789,1440,900,8-21-2022,9-35-23,57,depth_duration_stimuli/001136_2014-06-17_15-19-41_260595134347_rgbf000076-resize_3/001136_2014-06-17_15-19-41_260595134347_rgbf000076-resize_3-target.png,125,1.8655,68,3554,124,meters,jsons/VE125_randls_24.json,904763,1358199,35,Man
57,609937,DepthScenes,duration_manipulation_targetAtFixation,jsons/VE125_randls_24.json,http://54.235.29.9/FacialAge/BNav_EC2/DepthDuration/v2_depth_duration_MTurk/v2_DepthDuration_HTML.html#82,82,1440,789,1440,900,8-21-2022,9-35-23,58,depth_duration_stimuli/001449_2014-06-19_17-01-27_260595134347_rgbf000116-resize_2/001449_2014-06-19_17-01-27_260595134347_rgbf000116-resize_2-target.png,125,3.452,63,29330,125,meters,jsons/VE125_randls_24.json,904763,1358199,35,Man
58,609937,DepthScenes,duration_manipulation_targetAtFixation,jsons/VE125_randls_24.json,http://54.235.29.9/FacialAge/BNav_EC2/DepthDuration/v2_depth_duration_MTurk/v2_DepthDuration_HTML.html#82,82,1440,789,1440,900,8-21-2022,9-35-23,59,depth_duration_stimuli/001450_2014-06-19_17-02-03_260595134347_rgbf000203-resize_4/001450_2014-06-19_17-02-03_260595134347_rgbf000203-resize_4-target.png,125,4.0106666666667,65,3096,124,meters,jsons/VE125_randls_24.json,904763,1358199,35,Man
59,609937,DepthScenes,duration_manipulation_targetAtFixation,jsons/VE125_randls_24.json,http://54.235.29.9/FacialAge/BNav_EC2/DepthDuration/v2_depth_duration_MTurk/v2_DepthDuration_HTML.html#82,82,1440,789,1440,900,8-21-2022,9-35-23,60,depth_duration_stimuli/002272_2014-06-28_18-53-56_260595134347_rgbf000067-resize_2/002272_2014-06-28_18-53-56_260595134347_rgbf000067-resize_2-target.png,125,1.138,50,2945,125,meters,jsons/VE125_randls_24.json,904763,1358199,35,Man
60,609937,DepthScenes,duration_manipulation_targetAtFixation,jsons/VE125_randls_24.json,http://54.235.29.9/FacialAge/BNav_EC2/DepthDuration/v2_depth_duration_MTurk/v2_DepthDuration_HTML.html#82,82,1440,789,1440,900,8-21-2022,9-35-23,61,depth_duration_stimuli/001571_2014-06-20_17-21-32_260595134347_rgbf000089-resize_1/001571_2014-06-20_17-21-32_260595134347_rgbf000089-resize_1-target.png,125,1.86,60,2939,126,meters,jsons/VE125_randls_24.json,904763,1358199,35,Man
61,609937,DepthScenes,duration_manipulation_targetAtFixation,jsons/VE125_randls_24.json,http://54.235.29.9/FacialAge/BNav_EC2/DepthDuration/v2_depth_duration_MTurk/v2_DepthDuration_HTML.html#82,82,1440,789,1440,900,8-21-2022,9-35-23,62,depth_duration_stimuli/000773_2014-06-08_22-24-54_260595134347_rgbf000093-resize_1/000773_2014-06-08_22-24-54_260595134347_rgbf000093-resize_1-target.png,125,4.973,65,3092,125,meters,jsons/VE125_randls_24.json,904763,1358199,35,Man
62,609937,DepthScenes,duration_manipulation_targetAtFixation,jsons/VE125_randls_24.json,http://54.235.29.9/FacialAge/BNav_EC2/DepthDuration/v2_depth_duration_MTurk/v2_DepthDuration_HTML.html#82,82,1440,789,1440,900,8-21-2022,9-35-23,63,depth_duration_stimuli/002414_2014-06-28_20-24-58_260595134347_rgbf000067-resize_4/002414_2014-06-28_20-24-58_260595134347_rgbf000067-resize_4-target.png,125,4.363,60,3043,125,meters,jsons/VE125_randls_24.json,904763,1358199,35,Man
63,609937,DepthScenes,duration_manipulation_targetAtFixation,jsons/VE125_randls_24.json,http://54.235.29.9/FacialAge/BNav_EC2/DepthDuration/v2_depth_duration_MTurk/v2_DepthDuration_HTML.html#82,82,1440,789,1440,900,8-21-2022,9-35-23,64,depth_duration_stimuli/001056_2014-06-08_18-46-44_260595134347_rgbf000068-resize_0/001056_2014-06-08_18-46-44_260595134347_rgbf000068-resize_0-target.png,125,2.6625,55,12595,125,meters,jsons/VE125_randls_24.json,904763,1358199,35,Man
64,609937,DepthScenes,duration_manipulation_targetAtFixation,jsons/VE125_randls_24.json,http://54.235.29.9/FacialAge/BNav_EC2/DepthDuration/v2_depth_duration_MTurk/v2_DepthDuration_HTML.html#82,82,1440,789,1440,900,8-21-2022,9-35-23,65,depth_duration_stimuli/002199_2014-06-28_18-33-56_260595134347_rgbf000074-resize_0/002199_2014-06-28_18-33-56_260595134347_rgbf000074-resize_0-target.png,125,1.996,50,3434,123,meters,jsons/VE125_randls_24.json,904763,1358199,35,Man
65,609937,DepthScenes,duration_manipulation_targetAtFixation,jsons/VE125_randls_24.json,http://54.235.29.9/FacialAge/BNav_EC2/DepthDuration/v2_depth_duration_MTurk/v2_DepthDuration_HTML.html#82,82,1440,789,1440,900,8-21-2022,9-35-23,66,depth_duration_stimuli/001222_2014-06-17_16-24-06_260595134347_rgbf000073-resize_0/001222_2014-06-17_16-24-06_260595134347_rgbf000073-resize-original.jpg,125,1.4385,0,3250,125,meters,jsons/VE125_randls_24.json,904763,1358199,35,Man
66,609937,DepthScenes,duration_manipulation_targetAtFixation,jsons/VE125_randls_24.json,http://54.235.29.9/FacialAge/BNav_EC2/DepthDuration/v2_depth_duration_MTurk/v2_DepthDuration_HTML.html#82,82,1440,789,1440,900,8-21-2022,9-35-23,67,depth_duration_stimuli/001029_2014-06-08_13-17-57_260595134347_rgbf000065-resize_1/001029_2014-06-08_13-17-57_260595134347_rgbf000065-resize_1-target.png,125,3.0835,63,21898,126,meters,jsons/VE125_randls_24.json,904763,1358199,35,Man
67,609937,DepthScenes,duration_manipulation_targetAtFixation,jsons/VE125_randls_24.json,http://54.235.29.9/FacialAge/BNav_EC2/DepthDuration/v2_depth_duration_MTurk/v2_DepthDuration_HTML.html#82,82,1440,789,1440,900,8-21-2022,9-35-23,68,depth_duration_stimuli/000677_2014-06-08_23-10-32_260595134347_rgbf000158-resize_6/000677_2014-06-08_23-10-32_260595134347_rgbf000158-resize_6-target.png,125,3.556,54,3499,126,meters,jsons/VE125_randls_24.json,904763,1358199,35,Man
68,609937,DepthScenes,duration_manipulation_targetAtFixation,jsons/VE125_randls_24.json,http://54.235.29.9/FacialAge/BNav_EC2/DepthDuration/v2_depth_duration_MTurk/v2_DepthDuration_HTML.html#82,82,1440,789,1440,900,8-21-2022,9-35-23,69,depth_duration_stimuli/000506_2014-06-08_23-21-00_260595134347_rgbf000070-resize_7/000506_2014-06-08_23-21-00_260595134347_rgbf000070-resize_7-target.png,125,4.0585,62,3139,126,meters,jsons/VE125_randls_24.json,904763,1358199,35,Man
69,609937,DepthScenes,duration_manipulation_targetAtFixation,jsons/VE125_randls_24.json,http://54.235.29.9/FacialAge/BNav_EC2/DepthDuration/v2_depth_duration_MTurk/v2_DepthDuration_HTML.html#82,82,1440,789,1440,900,8-21-2022,9-35-23,70,depth_duration_stimuli/003079_2014-06-15_15-18-20_094959634447_rgbf000152-resize_8/003079_2014-06-15_15-18-20_094959634447_rgbf000152-resize_8-target.png,125,2.8775,65,3355,126,meters,jsons/VE125_randls_24.json,904763,1358199,35,Man
70,609937,DepthScenes,duration_manipulation_targetAtFixation,jsons/VE125_randls_24.json,http://54.235.29.9/FacialAge/BNav_EC2/DepthDuration/v2_depth_duration_MTurk/v2_DepthDuration_HTML.html#82,82,1440,789,1440,900,8-21-2022,9-35-23,71,depth_duration_stimuli/002600_2014-06-24_14-27-04_094959634447_rgbf000074-resize_2/002600_2014-06-24_14-27-04_094959634447_rgbf000074-resize_2-target.png,125,2.7575,57,3354,125,meters,jsons/VE125_randls_24.json,904763,1358199,35,Man
71,609937,DepthScenes,duration_manipulation_targetAtFixation,jsons/VE125_randls_24.json,http://54.235.29.9/FacialAge/BNav_EC2/DepthDuration/v2_depth_duration_MTurk/v2_DepthDuration_HTML.html#82,82,1440,789,1440,900,8-21-2022,9-35-23,72,depth_duration_stimuli/003228_2014-05-14_13-42-35_094959634447_rgbf000101-resize_1/003228_2014-05-14_13-42-35_094959634447_rgbf000101-resize_1-target.png,125,1.9680000000000002,62,3524,125,meters,jsons/VE125_randls_24.json,904763,1358199,35,Man
72,609937,DepthScenes,duration_manipulation_targetAtFixation,jsons/VE125_randls_24.json,http://54.235.29.9/FacialAge/BNav_EC2/DepthDuration/v2_depth_duration_MTurk/v2_DepthDuration_HTML.html#82,82,1440,789,1440,900,8-21-2022,9-35-23,73,depth_duration_stimuli/001417_2014-06-19_16-25-36_260595134347_rgbf000115-resize_5/001417_2014-06-19_16-25-36_260595134347_rgbf000115-resize_5-target.png,125,4.6255,62,3364,125,meters,jsons/VE125_randls_24.json,904763,1358199,35,Man
73,609937,DepthScenes,duration_manipulation_targetAtFixation,jsons/VE125_randls_24.json,http://54.235.29.9/FacialAge/BNav_EC2/DepthDuration/v2_depth_duration_MTurk/v2_DepthDuration_HTML.html#82,82,1440,789,1440,900,8-21-2022,9-35-23,74,depth_duration_stimuli/003081_2014-06-15_15-19-16_094959634447_rgbf000150-resize_1/003081_2014-06-15_15-19-16_094959634447_rgbf000150-resize_1-target.png,125,3.9125,65,3299,126,meters,jsons/VE125_randls_24.json,904763,1358199,35,Man
74,609937,DepthScenes,duration_manipulation_targetAtFixation,jsons/VE125_randls_24.json,http://54.235.29.9/FacialAge/BNav_EC2/DepthDuration/v2_depth_duration_MTurk/v2_DepthDuration_HTML.html#82,82,1440,789,1440,900,8-21-2022,9-35-23,75,depth_duration_stimuli/003621_2014-05-23_18-06-08_094959634447_rgbf000101-resize_1/003621_2014-05-23_18-06-08_094959634447_rgbf000101-resize_1-target.png,125,3.9835,65,3188,125,meters,jsons/VE125_randls_24.json,904763,1358199,35,Man
75,609937,DepthScenes,duration_manipulation_targetAtFixation,jsons/VE125_randls_24.json,http://54.235.29.9/FacialAge/BNav_EC2/DepthDuration/v2_depth_duration_MTurk/v2_DepthDuration_HTML.html#82,82,1440,789,1440,900,8-21-2022,9-35-23,76,depth_duration_stimuli/001584_2014-06-20_11-07-43_260595134347_rgbf000002-resize_1/001584_2014-06-20_11-07-43_260595134347_rgbf000002-resize_1-target.png,125,3.53,53,68691,126,meters,jsons/VE125_randls_24.json,904763,1358199,35,Man
76,609937,DepthScenes,duration_manipulation_targetAtFixation,jsons/VE125_randls_24.json,http://54.235.29.9/FacialAge/BNav_EC2/DepthDuration/v2_depth_duration_MTurk/v2_DepthDuration_HTML.html#82,82,1440,789,1440,900,8-21-2022,9-35-23,77,depth_duration_stimuli/003492_2014-05-21_15-50-55_094959634447_rgbf000828-resize_1/003492_2014-05-21_15-50-55_094959634447_rgbf000828-resize_1-target.png,125,4.06875,59,4339,126,meters,jsons/VE125_randls_24.json,904763,1358199,35,Man
77,609937,DepthScenes,duration_manipulation_targetAtFixation,jsons/VE125_randls_24.json,http://54.235.29.9/FacialAge/BNav_EC2/DepthDuration/v2_depth_duration_MTurk/v2_DepthDuration_HTML.html#82,82,1440,789,1440,900,8-21-2022,9-35-23,78,depth_duration_stimuli/002568_2014-06-24_13-59-21_094959634447_rgbf000062-resize_4/002568_2014-06-24_13-59-21_094959634447_rgbf000062-resize_4-target.png,125,3.015,56,3563,126,meters,jsons/VE125_randls_24.json,904763,1358199,35,Man
78,609937,DepthScenes,duration_manipulation_targetAtFixation,jsons/VE125_randls_24.json,http://54.235.29.9/FacialAge/BNav_EC2/DepthDuration/v2_depth_duration_MTurk/v2_DepthDuration_HTML.html#82,82,1440,789,1440,900,8-21-2022,9-35-23,79,depth_duration_stimuli/002043_2014-06-24_20-29-38_260595134347_rgbf000039-resize_4/002043_2014-06-24_20-29-38_260595134347_rgbf000039-resize_4-target.png,125,2.8435,60,3626,123,meters,jsons/VE125_randls_24.json,904763,1358199,35,Man
79,609937,DepthScenes,duration_manipulation_targetAtFixation,jsons/VE125_randls_24.json,http://54.235.29.9/FacialAge/BNav_EC2/DepthDuration/v2_depth_duration_MTurk/v2_DepthDuration_HTML.html#82,82,1440,789,1440,900,8-21-2022,9-35-23,80,depth_duration_stimuli/003048_2014-06-15_13-49-43_094959634447_rgbf000150-resize_1/003048_2014-06-15_13-49-43_094959634447_rgbf000150-resize_1-target.png,125,4.0035,55,4347,125,meters,jsons/VE125_randls_24.json,904763,1358199,35,Man
80,609937,DepthScenes,duration_manipulation_targetAtFixation,jsons/VE125_randls_24.json,http://54.235.29.9/FacialAge/BNav_EC2/DepthDuration/v2_depth_duration_MTurk/v2_DepthDuration_HTML.html#82,82,1440,789,1440,900,8-21-2022,9-35-23,81,depth_duration_stimuli/000368_2014-06-09_15-53-01_260595134347_rgbf000155-resize_2/000368_2014-06-09_15-53-01_260595134347_rgbf000155-resize_2-target.png,125,2.4859999999999998,52,2689,125,meters,jsons/VE125_randls_24.json,904763,1358199,35,Man
81,609937,DepthScenes,duration_manipulation_targetAtFixation,jsons/VE125_randls_24.json,http://54.235.29.9/FacialAge/BNav_EC2/DepthDuration/v2_depth_duration_MTurk/v2_DepthDuration_HTML.html#82,82,1440,789,1440,900,8-21-2022,9-35-23,82,depth_duration_stimuli/002678_2014-06-13_16-15-32_094959634447_rgbf000151-resize_6/002678_2014-06-13_16-15-32_094959634447_rgbf000151-resize_6-target.png,125,2.1830000000000003,58,2882,125,meters,jsons/VE125_randls_24.json,904763,1358199,35,Man
82,609937,DepthScenes,duration_manipulation_targetAtFixation,jsons/VE125_randls_24.json,http://54.235.29.9/FacialAge/BNav_EC2/DepthDuration/v2_depth_duration_MTurk/v2_DepthDuration_HTML.html#82,82,1440,789,1440,900,8-21-2022,9-35-23,83,depth_duration_stimuli/002905_2014-06-03_18-04-43_094959634447_rgbf000151-resize_2/002905_2014-06-03_18-04-43_094959634447_rgbf000151-resize_2-target.png,125,2.0295,54,2796,125,meters,jsons/VE125_randls_24.json,904763,1358199,35,Man
83,609937,DepthScenes,duration_manipulation_targetAtFixation,jsons/VE125_randls_24.json,http://54.235.29.9/FacialAge/BNav_EC2/DepthDuration/v2_depth_duration_MTurk/v2_DepthDuration_HTML.html#82,82,1440,789,1440,900,8-21-2022,9-35-23,84,depth_duration_stimuli/003423_2014-05-21_10-23-26_094959634447_rgbf002665-resize_2/003423_2014-05-21_10-23-26_094959634447_rgbf002665-resize_2-target.png,125,3.2575,53,3411,124,meters,jsons/VE125_randls_24.json,904763,1358199,35,Man
84,609937,DepthScenes,duration_manipulation_targetAtFixation,jsons/VE125_randls_24.json,http://54.235.29.9/FacialAge/BNav_EC2/DepthDuration/v2_depth_duration_MTurk/v2_DepthDuration_HTML.html#82,82,1440,789,1440,900,8-21-2022,9-35-23,85,depth_duration_stimuli/002118_2014-06-25_20-32-08_260595134347_rgbf000078-resize_1/002118_2014-06-25_20-32-08_260595134347_rgbf000078-resize_1-target.png,125,2.6460000000000004,54,2793,123,meters,jsons/VE125_randls_24.json,904763,1358199,35,Man
85,609937,DepthScenes,duration_manipulation_targetAtFixation,jsons/VE125_randls_24.json,http://54.235.29.9/FacialAge/BNav_EC2/DepthDuration/v2_depth_duration_MTurk/v2_DepthDuration_HTML.html#82,82,1440,789,1440,900,8-21-2022,9-35-23,86,depth_duration_stimuli/001516_2014-06-20_16-25-09_260595134347_rgbf000076-resize_2/001516_2014-06-20_16-25-09_260595134347_rgbf000076-resize_2-target.png,125,1.7445,57,2815,126,meters,jsons/VE125_randls_24.json,904763,1358199,35,Man
86,609937,DepthScenes,duration_manipulation_targetAtFixation,jsons/VE125_randls_24.json,http://54.235.29.9/FacialAge/BNav_EC2/DepthDuration/v2_depth_duration_MTurk/v2_DepthDuration_HTML.html#82,82,1440,789,1440,900,8-21-2022,9-35-23,87,depth_duration_stimuli/001570_2014-06-20_17-21-09_260595134347_rgbf000135-resize_4/001570_2014-06-20_17-21-09_260595134347_rgbf000135-resize_4-target.png,125,4.467,60,4930,126,meters,jsons/VE125_randls_24.json,904763,1358199,35,Man
87,609937,DepthScenes,duration_manipulation_targetAtFixation,jsons/VE125_randls_24.json,http://54.235.29.9/FacialAge/BNav_EC2/DepthDuration/v2_depth_duration_MTurk/v2_DepthDuration_HTML.html#82,82,1440,789,1440,900,8-21-2022,9-35-23,88,depth_duration_stimuli/001392_2014-06-19_16-07-59_260595134347_rgbf000046-resize_1/001392_2014-06-19_16-07-59_260595134347_rgbf000046-resize_1-target.png,125,4.135,58,2530,124,meters,jsons/VE125_randls_24.json,904763,1358199,35,Man
88,609937,DepthScenes,duration_manipulation_targetAtFixation,jsons/VE125_randls_24.json,http://54.235.29.9/FacialAge/BNav_EC2/DepthDuration/v2_depth_duration_MTurk/v2_DepthDuration_HTML.html#82,82,1440,789,1440,900,8-21-2022,9-35-23,89,depth_duration_stimuli/000522_2014-06-08_13-35-06_260595134347_rgbf000244-resize_1/000522_2014-06-08_13-35-06_260595134347_rgbf000244-resize_1-target.png,125,2.3715,52,3250,125,meters,jsons/VE125_randls_24.json,904763,1358199,35,Man
89,609937,DepthScenes,duration_manipulation_targetAtFixation,jsons/VE125_randls_24.json,http://54.235.29.9/FacialAge/BNav_EC2/DepthDuration/v2_depth_duration_MTurk/v2_DepthDuration_HTML.html#82,82,1440,789,1440,900,8-21-2022,9-35-23,90,depth_duration_stimuli/002949_2014-06-26_15-57-42_094959634447_rgbf000079-resize_1/002949_2014-06-26_15-57-42_094959634447_rgbf000079-resize_1-target.png,125,1.8915,53,3091,125,meters,jsons/VE125_randls_24.json,904763,1358199,35,Man
90,609937,DepthScenes,duration_manipulation_targetAtFixation,jsons/VE125_randls_24.json,http://54.235.29.9/FacialAge/BNav_EC2/DepthDuration/v2_depth_duration_MTurk/v2_DepthDuration_HTML.html#82,82,1440,789,1440,900,8-21-2022,9-35-23,91,depth_duration_stimuli/000739_2014-06-08_18-45-58_260595134347_rgbf000068-resize_1/000739_2014-06-08_18-45-58_260595134347_rgbf000068-resize_1-target.png,125,3.534,64,2890,125,meters,jsons/VE125_randls_24.json,904763,1358199,35,Man
91,609937,DepthScenes,duration_manipulation_targetAtFixation,jsons/VE125_randls_24.json,http://54.235.29.9/FacialAge/BNav_EC2/DepthDuration/v2_depth_duration_MTurk/v2_DepthDuration_HTML.html#82,82,1440,789,1440,900,8-21-2022,9-35-23,92,depth_duration_stimuli/000734_2014-06-08_17-39-11_260595134347_rgbf000128-resize_2/000734_2014-06-08_17-39-11_260595134347_rgbf000128-resize_2-target.png,125,4.098,65,2813,125,meters,jsons/VE125_randls_24.json,904763,1358199,35,Man
92,609937,DepthScenes,duration_manipulation_targetAtFixation,jsons/VE125_randls_24.json,http://54.235.29.9/FacialAge/BNav_EC2/DepthDuration/v2_depth_duration_MTurk/v2_DepthDuration_HTML.html#82,82,1440,789,1440,900,8-21-2022,9-35-23,93,depth_duration_stimuli/001810_2014-06-26_20-51-35_260595134347_rgbf000040-resize_3/001810_2014-06-26_20-51-35_260595134347_rgbf000040-resize_3-target.png,125,2.2525,57,3496,125,meters,jsons/VE125_randls_24.json,904763,1358199,35,Man
93,609937,DepthScenes,duration_manipulation_targetAtFixation,jsons/VE125_randls_24.json,http://54.235.29.9/FacialAge/BNav_EC2/DepthDuration/v2_depth_duration_MTurk/v2_DepthDuration_HTML.html#82,82,1440,789,1440,900,8-21-2022,9-35-23,94,depth_duration_stimuli/003010_2014-06-15_12-54-35_094959634447_rgbf000112-resize_0/003010_2014-06-15_12-54-35_094959634447_rgbf000112-resize_0-target.png,125,3.1185,65,3081,124,meters,jsons/VE125_randls_24.json,904763,1358199,35,Man
94,609937,DepthScenes,duration_manipulation_targetAtFixation,jsons/VE125_randls_24.json,http://54.235.29.9/FacialAge/BNav_EC2/DepthDuration/v2_depth_duration_MTurk/v2_DepthDuration_HTML.html#82,82,1440,789,1440,900,8-21-2022,9-35-23,95,depth_duration_stimuli/000447_2014-06-08_16-15-46_260595134347_rgbf000130-resize_1/000447_2014-06-08_16-15-46_260595134347_rgbf000130-resize_1-target.png,125,4.479,62,2659,126,meters,jsons/VE125_randls_24.json,904763,1358199,35,Man
95,609937,DepthScenes,duration_manipulation_targetAtFixation,jsons/VE125_randls_24.json,http://54.235.29.9/FacialAge/BNav_EC2/DepthDuration/v2_depth_duration_MTurk/v2_DepthDuration_HTML.html#82,82,1440,789,1440,900,8-21-2022,9-35-23,96,depth_duration_stimuli/001447_2014-06-19_17-00-32_260595134347_rgbf000082-resize_5/001447_2014-06-19_17-00-32_260595134347_rgbf000082-resize_5-target.png,125,4.13775,63,2852,126,meters,jsons/VE125_randls_24.json,904763,1358199,35,Man
96,609937,DepthScenes,duration_manipulation_targetAtFixation,jsons/VE125_randls_24.json,http://54.235.29.9/FacialAge/BNav_EC2/DepthDuration/v2_depth_duration_MTurk/v2_DepthDuration_HTML.html#82,82,1440,789,1440,900,8-21-2022,9-35-23,97,depth_duration_stimuli/000642_2014-06-08_16-59-25_260595134347_rgbf000098-resize_2/000642_2014-06-08_16-59-25_260595134347_rgbf000098-resize_2-target.png,125,2.8815,62,2880,125,meters,jsons/VE125_randls_24.json,904763,1358199,35,Man
97,609937,DepthScenes,duration_manipulation_targetAtFixation,jsons/VE125_randls_24.json,http://54.235.29.9/FacialAge/BNav_EC2/DepthDuration/v2_depth_duration_MTurk/v2_DepthDuration_HTML.html#82,82,1440,789,1440,900,8-21-2022,9-35-23,98,depth_duration_stimuli/002425_2014-06-28_20-27-29_260595134347_rgbf000031-resize_8/002425_2014-06-28_20-27-29_260595134347_rgbf000031-resize_8-target.png,125,3.8960000000000004,61,2931,126,meters,jsons/VE125_randls_24.json,904763,1358199,35,Man
98,609937,DepthScenes,duration_manipulation_targetAtFixation,jsons/VE125_randls_24.json,http://54.235.29.9/FacialAge/BNav_EC2/DepthDuration/v2_depth_duration_MTurk/v2_DepthDuration_HTML.html#82,82,1440,789,1440,900,8-21-2022,9-35-23,99,depth_duration_stimuli/001540_2014-06-20_17-01-05_260595134347_rgbf000086-resize_2/001540_2014-06-20_17-01-05_260595134347_rgbf000086-resize-original.jpg,125,1.459,0,2507,125,meters,jsons/VE125_randls_24.json,904763,1358199,35,Man
99,609937,DepthScenes,duration_manipulation_targetAtFixation,jsons/VE125_randls_24.json,http://54.235.29.9/FacialAge/BNav_EC2/DepthDuration/v2_depth_duration_MTurk/v2_DepthDuration_HTML.html#82,82,1440,789,1440,900,8-21-2022,9-35-23,100,depth_duration_stimuli/000486_2014-06-09_20-47-20_260595134347_rgbf000143-resize_2/000486_2014-06-09_20-47-20_260595134347_rgbf000143-resize_2-target.png,125,4.8325,53,3067,125,meters,jsons/VE125_randls_24.json,904763,1358199,35,Man
100,609937,DepthScenes,duration_manipulation_targetAtFixation,jsons/VE125_randls_24.json,http://54.235.29.9/FacialAge/BNav_EC2/DepthDuration/v2_depth_duration_MTurk/v2_DepthDuration_HTML.html#82,82,1440,789,1440,900,8-21-2022,9-35-23,101,depth_duration_stimuli/003083_2014-06-15_15-21-03_094959634447_rgbf000063-resize_1/003083_2014-06-15_15-21-03_094959634447_rgbf000063-resize_1-target.png,125,4.1405,64,3476,125,meters,jsons/VE125_randls_24.json,904763,1358199,35,Man
101,609937,DepthScenes,duration_manipulation_targetAtFixation,jsons/VE125_randls_24.json,http://54.235.29.9/FacialAge/BNav_EC2/DepthDuration/v2_depth_duration_MTurk/v2_DepthDuration_HTML.html#82,82,1440,789,1440,900,8-21-2022,9-35-23,102,depth_duration_stimuli/001066_2014-06-08_22-03-20_260595134347_rgbf000066-resize_4/001066_2014-06-08_22-03-20_260595134347_rgbf000066-resize_4-target.png,125,4.2330000000000005,68,2754,126,meters,jsons/VE125_randls_24.json,904763,1358199,35,Man
102,609937,DepthScenes,duration_manipulation_targetAtFixation,jsons/VE125_randls_24.json,http://54.235.29.9/FacialAge/BNav_EC2/DepthDuration/v2_depth_duration_MTurk/v2_DepthDuration_HTML.html#82,82,1440,789,1440,900,8-21-2022,9-35-23,103,depth_duration_stimuli/000742_2014-06-08_18-48-09_260595134347_rgbf000164-resize_4/000742_2014-06-08_18-48-09_260595134347_rgbf000164-resize_4-target.png,125,4.632,67,2740,126,meters,jsons/VE125_randls_24.json,904763,1358199,35,Man
103,609937,DepthScenes,duration_manipulation_targetAtFixation,jsons/VE125_randls_24.json,http://54.235.29.9/FacialAge/BNav_EC2/DepthDuration/v2_depth_duration_MTurk/v2_DepthDuration_HTML.html#82,82,1440,789,1440,900,8-21-2022,9-35-23,104,depth_duration_stimuli/003534_2014-05-22_15-06-10_094959634447_rgbf000102-resize_4/003534_2014-05-22_15-06-10_094959634447_rgbf000102-resize_4-target.png,125,1.426,52,2732,126,meters,jsons/VE125_randls_24.json,904763,1358199,35,Man
104,609937,DepthScenes,duration_manipulation_targetAtFixation,jsons/VE125_randls_24.json,http://54.235.29.9/FacialAge/BNav_EC2/DepthDuration/v2_depth_duration_MTurk/v2_DepthDuration_HTML.html#82,82,1440,789,1440,900,8-21-2022,9-35-23,105,depth_duration_stimuli/002637_2014-06-24_14-51-13_094959634447_rgbf000066-resize_4/002637_2014-06-24_14-51-13_094959634447_rgbf000066-resize_4-target.png,125,1.9955,56,2659,126,meters,jsons/VE125_randls_24.json,904763,1358199,35,Man
105,609937,DepthScenes,duration_manipulation_targetAtFixation,jsons/VE125_randls_24.json,http://54.235.29.9/FacialAge/BNav_EC2/DepthDuration/v2_depth_duration_MTurk/v2_DepthDuration_HTML.html#82,82,1440,789,1440,900,8-21-2022,9-35-23,106,depth_duration_stimuli/000493_2014-06-09_21-01-18_260595134347_rgbf000196-resize_3/000493_2014-06-09_21-01-18_260595134347_rgbf000196-resize_3-target.png,125,3.44,57,2915,125,meters,jsons/VE125_randls_24.json,904763,1358199,35,Man
106,609937,DepthScenes,duration_manipulation_targetAtFixation,jsons/VE125_randls_24.json,http://54.235.29.9/FacialAge/BNav_EC2/DepthDuration/v2_depth_duration_MTurk/v2_DepthDuration_HTML.html#82,82,1440,789,1440,900,8-21-2022,9-35-23,107,depth_duration_stimuli/000191_2014-05-12_17-07-38_260595134347_rgbf000199-resize_0/000191_2014-05-12_17-07-38_260595134347_rgbf000199-resize_0-target.png,125,3.7995,67,2770,124,meters,jsons/VE125_randls_24.json,904763,1358199,35,Man
107,609937,DepthScenes,duration_manipulation_targetAtFixation,jsons/VE125_randls_24.json,http://54.235.29.9/FacialAge/BNav_EC2/DepthDuration/v2_depth_duration_MTurk/v2_DepthDuration_HTML.html#82,82,1440,789,1440,900,8-21-2022,9-35-23,108,depth_duration_stimuli/001092_2014-06-15_17-34-58_260595134347_rgbf000171-resize_3/001092_2014-06-15_17-34-58_260595134347_rgbf000171-resize_3-target.png,125,2.6935,67,2744,124,meters,jsons/VE125_randls_24.json,904763,1358199,35,Man
108,609937,DepthScenes,duration_manipulation_targetAtFixation,jsons/VE125_randls_24.json,http://54.235.29.9/FacialAge/BNav_EC2/DepthDuration/v2_depth_duration_MTurk/v2_DepthDuration_HTML.html#82,82,1440,789,1440,900,8-21-2022,9-35-23,109,depth_duration_stimuli/002545_2014-06-24_13-38-53_094959634447_rgbf000080-resize_4/002545_2014-06-24_13-38-53_094959634447_rgbf000080-resize_4-target.png,125,1.9205,65,2682,124,meters,jsons/VE125_randls_24.json,904763,1358199,35,Man
109,609937,DepthScenes,duration_manipulation_targetAtFixation,jsons/VE125_randls_24.json,http://54.235.29.9/FacialAge/BNav_EC2/DepthDuration/v2_depth_duration_MTurk/v2_DepthDuration_HTML.html#82,82,1440,789,1440,900,8-21-2022,9-35-23,110,depth_duration_stimuli/000009_2014-05-26_14-32-05_260595134347_rgbf000034-resize_3/000009_2014-05-26_14-32-05_260595134347_rgbf000034-resize_3-target.png,125,3.8715,68,2659,125,meters,jsons/VE125_randls_24.json,904763,1358199,35,Man
110,609937,DepthScenes,duration_manipulation_targetAtFixation,jsons/VE125_randls_24.json,http://54.235.29.9/FacialAge/BNav_EC2/DepthDuration/v2_depth_duration_MTurk/v2_DepthDuration_HTML.html#82,82,1440,789,1440,900,8-21-2022,9-35-23,111,depth_duration_stimuli/001828_2014-06-26_21-40-03_260595134347_rgbf000024-resize_0/001828_2014-06-26_21-40-03_260595134347_rgbf000024-resize_0-target.png,125,4.8260000000000005,65,2504,125,meters,jsons/VE125_randls_24.json,904763,1358199,35,Man
111,609937,DepthScenes,duration_manipulation_targetAtFixation,jsons/VE125_randls_24.json,http://54.235.29.9/FacialAge/BNav_EC2/DepthDuration/v2_depth_duration_MTurk/v2_DepthDuration_HTML.html#82,82,1440,789,1440,900,8-21-2022,9-35-23,112,depth_duration_stimuli/002509_2014-06-24_13-19-22_094959634447_rgbf000077-resize_0/002509_2014-06-24_13-19-22_094959634447_rgbf000077-resize_0-target.png,125,1.3065,55,2427,126,meters,jsons/VE125_randls_24.json,904763,1358199,35,Man
112,609937,DepthScenes,duration_manipulation_targetAtFixation,jsons/VE125_randls_24.json,http://54.235.29.9/FacialAge/BNav_EC2/DepthDuration/v2_depth_duration_MTurk/v2_DepthDuration_HTML.html#82,82,1440,789,1440,900,8-21-2022,9-35-23,113,depth_duration_stimuli/003338_2014-05-20_11-01-23_094959634447_rgbf000051-resize_6/003338_2014-05-20_11-01-23_094959634447_rgbf000051-resize_6-target.png,125,1.693,53,2548,126,meters,jsons/VE125_randls_24.json,904763,1358199,35,Man
113,609937,DepthScenes,duration_manipulation_targetAtFixation,jsons/VE125_randls_24.json,http://54.235.29.9/FacialAge/BNav_EC2/DepthDuration/v2_depth_duration_MTurk/v2_DepthDuration_HTML.html#82,82,1440,789,1440,900,8-21-2022,9-35-23,114,depth_duration_stimuli/001808_2014-06-26_20-50-58_260595134347_rgbf000029-resize_1/001808_2014-06-26_20-50-58_260595134347_rgbf000029-resize_1-target.png,125,4.249,61,3306,125,meters,jsons/VE125_randls_24.json,904763,1358199,35,Man
114,609937,DepthScenes,duration_manipulation_targetAtFixation,jsons/VE125_randls_24.json,http://54.235.29.9/FacialAge/BNav_EC2/DepthDuration/v2_depth_duration_MTurk/v2_DepthDuration_HTML.html#82,82,1440,789,1440,900,8-21-2022,9-35-23,115,depth_duration_stimuli/001815_2014-06-26_20-52-55_260595134347_rgbf000020-resize_0/001815_2014-06-26_20-52-55_260595134347_rgbf000020-resize_0-target.png,125,3.3865,64,2586,126,meters,jsons/VE125_randls_24.json,904763,1358199,35,Man
115,609937,DepthScenes,duration_manipulation_targetAtFixation,jsons/VE125_randls_24.json,http://54.235.29.9/FacialAge/BNav_EC2/DepthDuration/v2_depth_duration_MTurk/v2_DepthDuration_HTML.html#82,82,1440,789,1440,900,8-21-2022,9-35-23,116,depth_duration_stimuli/001170_2014-06-17_15-43-44_260595134347_rgbf000096-resize_6/001170_2014-06-17_15-43-44_260595134347_rgbf000096-resize-original.jpg,125,1.1909999999999998,0,2915,126,meters,jsons/VE125_randls_24.json,904763,1358199,35,Man
116,609937,DepthScenes,duration_manipulation_targetAtFixation,jsons/VE125_randls_24.json,http://54.235.29.9/FacialAge/BNav_EC2/DepthDuration/v2_depth_duration_MTurk/v2_DepthDuration_HTML.html#82,82,1440,789,1440,900,8-21-2022,9-35-23,117,depth_duration_stimuli/001016_2014-06-09_16-16-10_260595134347_rgbf000112-resize_5/001016_2014-06-09_16-16-10_260595134347_rgbf000112-resize_5-target.png,125,1.6565,53,2904,125,meters,jsons/VE125_randls_24.json,904763,1358199,35,Man
117,609937,DepthScenes,duration_manipulation_targetAtFixation,jsons/VE125_randls_24.json,http://54.235.29.9/FacialAge/BNav_EC2/DepthDuration/v2_depth_duration_MTurk/v2_DepthDuration_HTML.html#82,82,1440,789,1440,900,8-21-2022,9-35-23,118,depth_duration_stimuli/002340_2014-06-28_20-05-46_260595134347_rgbf000113-resize_0/002340_2014-06-28_20-05-46_260595134347_rgbf000113-resize_0-target.png,125,2.4735,64,2529,125,meters,jsons/VE125_randls_24.json,904763,1358199,35,Man
118,609937,DepthScenes,duration_manipulation_targetAtFixation,jsons/VE125_randls_24.json,http://54.235.29.9/FacialAge/BNav_EC2/DepthDuration/v2_depth_duration_MTurk/v2_DepthDuration_HTML.html#82,82,1440,789,1440,900,8-21-2022,9-35-23,119,depth_duration_stimuli/002213_2014-06-28_18-37-58_260595134347_rgbf000055-resize_1/002213_2014-06-28_18-37-58_260595134347_rgbf000055-resize_1-target.png,125,3.62,63,2819,126,meters,jsons/VE125_randls_24.json,904763,1358199,35,Man
119,609937,DepthScenes,duration_manipulation_targetAtFixation,jsons/VE125_randls_24.json,http://54.235.29.9/FacialAge/BNav_EC2/DepthDuration/v2_depth_duration_MTurk/v2_DepthDuration_HTML.html#82,82,1440,789,1440,900,8-21-2022,9-35-23,120,depth_duration_stimuli/000691_2014-06-08_13-08-50_260595134347_rgbf000132-resize_3/000691_2014-06-08_13-08-50_260595134347_rgbf000132-resize_3-target.png,125,4.1530000000000005,60,2682,126,meters,jsons/VE125_randls_24.json,904763,1358199,35,Man
120,609937,DepthScenes,duration_manipulation_targetAtFixation,jsons/VE125_randls_24.json,http://54.235.29.9/FacialAge/BNav_EC2/DepthDuration/v2_depth_duration_MTurk/v2_DepthDuration_HTML.html#82,82,1440,789,1440,900,8-21-2022,9-35-23,121,depth_duration_stimuli/000470_2014-06-09_19-42-40_260595134347_rgbf000094-resize_1/000470_2014-06-09_19-42-40_260595134347_rgbf000094-resize_1-target.png,125,1.831,53,2561,124,meters,jsons/VE125_randls_24.json,904763,1358199,35,Man
121,609937,DepthScenes,duration_manipulation_targetAtFixation,jsons/VE125_randls_24.json,http://54.235.29.9/FacialAge/BNav_EC2/DepthDuration/v2_depth_duration_MTurk/v2_DepthDuration_HTML.html#82,82,1440,789,1440,900,8-21-2022,9-35-23,122,depth_duration_stimuli/000109_2014-05-14_23-41-52_260595134347_rgbf000035-resize_9/000109_2014-05-14_23-41-52_260595134347_rgbf000035-resize_9-target.png,125,1.3545,52,2421,126,meters,jsons/VE125_randls_24.json,904763,1358199,35,Man
122,609937,DepthScenes,duration_manipulation_targetAtFixation,jsons/VE125_randls_24.json,http://54.235.29.9/FacialAge/BNav_EC2/DepthDuration/v2_depth_duration_MTurk/v2_DepthDuration_HTML.html#82,82,1440,789,1440,900,8-21-2022,9-35-23,123,depth_duration_stimuli/002788_2014-06-22_19-36-03_094959634447_rgbf000088-resize_2/002788_2014-06-22_19-36-03_094959634447_rgbf000088-resize_2-target.png,125,1.6465,56,2675,125,meters,jsons/VE125_randls_24.json,904763,1358199,35,Man
123,609937,DepthScenes,duration_manipulation_targetAtFixation,jsons/VE125_randls_24.json,http://54.235.29.9/FacialAge/BNav_EC2/DepthDuration/v2_depth_duration_MTurk/v2_DepthDuration_HTML.html#82,82,1440,789,1440,900,8-21-2022,9-35-23,124,depth_duration_stimuli/000749_2014-06-08_21-55-06_260595134347_rgbf000070-resize_2/000749_2014-06-08_21-55-06_260595134347_rgbf000070-resize_2-target.png,125,2.331,55,2323,125,meters,jsons/VE125_randls_24.json,904763,1358199,35,Man
124,609937,DepthScenes,duration_manipulation_targetAtFixation,jsons/VE125_randls_24.json,http://54.235.29.9/FacialAge/BNav_EC2/DepthDuration/v2_depth_duration_MTurk/v2_DepthDuration_HTML.html#82,82,1440,789,1440,900,8-21-2022,9-35-23,125,depth_duration_stimuli/003292_2014-05-14_21-53-49_094959634447_rgbf000100-resize_2/003292_2014-05-14_21-53-49_094959634447_rgbf000100-resize_2-target.png,125,3.4815,54,2539,125,meters,jsons/VE125_randls_24.json,904763,1358199,35,Man
125,609937,DepthScenes,duration_manipulation_targetAtFixation,jsons/VE125_randls_24.json,http://54.235.29.9/FacialAge/BNav_EC2/DepthDuration/v2_depth_duration_MTurk/v2_DepthDuration_HTML.html#82,82,1440,789,1440,900,8-21-2022,9-35-23,126,depth_duration_stimuli/002639_2014-06-24_14-51-37_094959634447_rgbf000074-resize_4/002639_2014-06-24_14-51-37_094959634447_rgbf000074-resize_4-target.png,125,4.0375,54,2858,126,meters,jsons/VE125_randls_24.json,904763,1358199,35,Man
126,609937,DepthScenes,duration_manipulation_targetAtFixation,jsons/VE125_randls_24.json,http://54.235.29.9/FacialAge/BNav_EC2/DepthDuration/v2_depth_duration_MTurk/v2_DepthDuration_HTML.html#82,82,1440,789,1440,900,8-21-2022,9-35-23,127,depth_duration_stimuli/001150_2014-06-17_15-27-34_260595134347_rgbf000108-resize_2/001150_2014-06-17_15-27-34_260595134347_rgbf000108-resize_2-target.png,125,4.0325,58,3138,125,meters,jsons/VE125_randls_24.json,904763,1358199,35,Man
127,609937,DepthScenes,duration_manipulation_targetAtFixation,jsons/VE125_randls_24.json,http://54.235.29.9/FacialAge/BNav_EC2/DepthDuration/v2_depth_duration_MTurk/v2_DepthDuration_HTML.html#82,82,1440,789,1440,900,8-21-2022,9-35-23,128,depth_duration_stimuli/000665_2014-06-09_20-42-35_260595134347_rgbf000110-resize_1/000665_2014-06-09_20-42-35_260595134347_rgbf000110-resize_1-target.png,125,3.057,56,3057,123,meters,jsons/VE125_randls_24.json,904763,1358199,35,Man
128,609937,DepthScenes,duration_manipulation_targetAtFixation,jsons/VE125_randls_24.json,http://54.235.29.9/FacialAge/BNav_EC2/DepthDuration/v2_depth_duration_MTurk/v2_DepthDuration_HTML.html#82,82,1440,789,1440,900,8-21-2022,9-35-23,129,depth_duration_stimuli/000414_2014-06-04_19-49-13_260595134347_rgbf000044-resize_0/000414_2014-06-04_19-49-13_260595134347_rgbf000044-resize_0-target.png,125,4.329,60,3628,125,meters,jsons/VE125_randls_24.json,904763,1358199,35,Man
129,609937,DepthScenes,duration_manipulation_targetAtFixation,jsons/VE125_randls_24.json,http://54.235.29.9/FacialAge/BNav_EC2/DepthDuration/v2_depth_duration_MTurk/v2_DepthDuration_HTML.html#82,82,1440,789,1440,900,8-21-2022,9-35-23,130,depth_duration_stimuli/003129_2014-05-12_10-48-10_094959634447_rgbf000100-resize_0/003129_2014-05-12_10-48-10_094959634447_rgbf000100-resize_0-target.png,125,4.9305,62,3024,124,meters,jsons/VE125_randls_24.json,904763,1358199,35,Man
130,609937,DepthScenes,duration_manipulation_targetAtFixation,jsons/VE125_randls_24.json,http://54.235.29.9/FacialAge/BNav_EC2/DepthDuration/v2_depth_duration_MTurk/v2_DepthDuration_HTML.html#82,82,1440,789,1440,900,8-21-2022,9-35-23,131,depth_duration_stimuli/001011_2014-06-08_23-18-54_260595134347_rgbf000044-resize_4/001011_2014-06-08_23-18-54_260595134347_rgbf000044-resize_4-target.png,125,2.4730000000000003,64,2931,124,meters,jsons/VE125_randls_24.json,904763,1358199,35,Man
131,609937,DepthScenes,duration_manipulation_targetAtFixation,jsons/VE125_randls_24.json,http://54.235.29.9/FacialAge/BNav_EC2/DepthDuration/v2_depth_duration_MTurk/v2_DepthDuration_HTML.html#82,82,1440,789,1440,900,8-21-2022,9-35-23,132,depth_duration_stimuli/002875_2014-06-01_15-19-00_094959634447_rgbf000151-resize_1/002875_2014-06-01_15-19-00_094959634447_rgbf000151-resize_1-target.png,125,1.9675,60,2531,125,meters,jsons/VE125_randls_24.json,904763,1358199,35,Man
132,609937,DepthScenes,duration_manipulation_targetAtFixation,jsons/VE125_randls_24.json,http://54.235.29.9/FacialAge/BNav_EC2/DepthDuration/v2_depth_duration_MTurk/v2_DepthDuration_HTML.html#82,82,1440,789,1440,900,8-21-2022,9-35-23,133,depth_duration_stimuli/001555_2014-06-20_17-12-10_260595134347_rgbf000065-resize_4/001555_2014-06-20_17-12-10_260595134347_rgbf000065-resize_4-target.png,125,1.633,60,2729,124,meters,jsons/VE125_randls_24.json,904763,1358199,35,Man
133,609937,DepthScenes,duration_manipulation_targetAtFixation,jsons/VE125_randls_24.json,http://54.235.29.9/FacialAge/BNav_EC2/DepthDuration/v2_depth_duration_MTurk/v2_DepthDuration_HTML.html#82,82,1440,789,1440,900,8-21-2022,9-35-23,134,depth_duration_stimuli/000103_2014-05-14_22-01-17_260595134347_rgbf000152-resize_5/000103_2014-05-14_22-01-17_260595134347_rgbf000152-resize_5-target.png,125,1.993,63,2770,125,meters,jsons/VE125_randls_24.json,904763,1358199,35,Man
134,609937,DepthScenes,duration_manipulation_targetAtFixation,jsons/VE125_randls_24.json,http://54.235.29.9/FacialAge/BNav_EC2/DepthDuration/v2_depth_duration_MTurk/v2_DepthDuration_HTML.html#82,82,1440,789,1440,900,8-21-2022,9-35-23,135,depth_duration_stimuli/002072_2014-06-24_21-48-06_260595134347_rgbf000115-resize_0/002072_2014-06-24_21-48-06_260595134347_rgbf000115-resize-original.jpg,125,4.702,0,2811,125,meters,jsons/VE125_randls_24.json,904763,1358199,35,Man
135,609937,DepthScenes,duration_manipulation_targetAtFixation,jsons/VE125_randls_24.json,http://54.235.29.9/FacialAge/BNav_EC2/DepthDuration/v2_depth_duration_MTurk/v2_DepthDuration_HTML.html#82,82,1440,789,1440,900,8-21-2022,9-35-23,136,depth_duration_stimuli/001175_2014-06-17_15-45-55_260595134347_rgbf000129-resize_4/001175_2014-06-17_15-45-55_260595134347_rgbf000129-resize_4-target.png,125,4.255,63,2723,126,meters,jsons/VE125_randls_24.json,904763,1358199,35,Man
136,609937,DepthScenes,duration_manipulation_targetAtFixation,jsons/VE125_randls_24.json,http://54.235.29.9/FacialAge/BNav_EC2/DepthDuration/v2_depth_duration_MTurk/v2_DepthDuration_HTML.html#82,82,1440,789,1440,900,8-21-2022,9-35-23,137,depth_duration_stimuli/003490_2014-05-21_15-50-11_094959634447_rgbf000101-resize_3/003490_2014-05-21_15-50-11_094959634447_rgbf000101-resize_3-target.png,125,3.6445,60,2497,125,meters,jsons/VE125_randls_24.json,904763,1358199,35,Man
137,609937,DepthScenes,duration_manipulation_targetAtFixation,jsons/VE125_randls_24.json,http://54.235.29.9/FacialAge/BNav_EC2/DepthDuration/v2_depth_duration_MTurk/v2_DepthDuration_HTML.html#82,82,1440,789,1440,900,8-21-2022,9-35-23,138,depth_duration_stimuli/001059_2014-06-08_21-53-27_260595134347_rgbf000061-resize_4/001059_2014-06-08_21-53-27_260595134347_rgbf000061-resize_4-target.png,125,2.4185,60,2619,126,meters,jsons/VE125_randls_24.json,904763,1358199,35,Man
138,609937,DepthScenes,duration_manipulation_targetAtFixation,jsons/VE125_randls_24.json,http://54.235.29.9/FacialAge/BNav_EC2/DepthDuration/v2_depth_duration_MTurk/v2_DepthDuration_HTML.html#82,82,1440,789,1440,900,8-21-2022,9-35-23,139,depth_duration_stimuli/001032_2014-06-08_13-23-17_260595134347_rgbf000021-resize_3/001032_2014-06-08_13-23-17_260595134347_rgbf000021-resize_3-target.png,125,3.2725,54,2643,126,meters,jsons/VE125_randls_24.json,904763,1358199,35,Man
139,609937,DepthScenes,duration_manipulation_targetAtFixation,jsons/VE125_randls_24.json,http://54.235.29.9/FacialAge/BNav_EC2/DepthDuration/v2_depth_duration_MTurk/v2_DepthDuration_HTML.html#82,82,1440,789,1440,900,8-21-2022,9-35-23,140,depth_duration_stimuli/000758_2014-06-08_22-05-08_260595134347_rgbf000085-resize_0/000758_2014-06-08_22-05-08_260595134347_rgbf000085-resize_0-target.png,125,3.3810000000000002,53,2709,126,meters,jsons/VE125_randls_24.json,904763,1358199,35,Man
140,609937,DepthScenes,duration_manipulation_targetAtFixation,jsons/VE125_randls_24.json,http://54.235.29.9/FacialAge/BNav_EC2/DepthDuration/v2_depth_duration_MTurk/v2_DepthDuration_HTML.html#82,82,1440,789,1440,900,8-21-2022,9-35-23,141,depth_duration_stimuli/000854_2014-06-09_19-43-13_260595134347_rgbf000066-resize_0/000854_2014-06-09_19-43-13_260595134347_rgbf000066-resize_0-target.png,125,3.068,50,5259,126,meters,jsons/VE125_randls_24.json,904763,1358199,35,Man
141,609937,DepthScenes,duration_manipulation_targetAtFixation,jsons/VE125_randls_24.json,http://54.235.29.9/FacialAge/BNav_EC2/DepthDuration/v2_depth_duration_MTurk/v2_DepthDuration_HTML.html#82,82,1440,789,1440,900,8-21-2022,9-35-23,142,depth_duration_stimuli/000436_2014-06-09_22-25-11_260595134347_rgbf000137-resize_1/000436_2014-06-09_22-25-11_260595134347_rgbf000137-resize_1-target.png,125,4.0705,60,4433,124,meters,jsons/VE125_randls_24.json,904763,1358199,35,Man
142,609937,DepthScenes,duration_manipulation_targetAtFixation,jsons/VE125_randls_24.json,http://54.235.29.9/FacialAge/BNav_EC2/DepthDuration/v2_depth_duration_MTurk/v2_DepthDuration_HTML.html#82,82,1440,789,1440,900,8-21-2022,9-35-23,143,depth_duration_stimuli/002444_2014-06-28_20-32-08_260595134347_rgbf000027-resize_0/002444_2014-06-28_20-32-08_260595134347_rgbf000027-resize_0-target.png,125,4.388999999999999,55,2666,124,meters,jsons/VE125_randls_24.json,904763,1358199,35,Man
143,609937,DepthScenes,duration_manipulation_targetAtFixation,jsons/VE125_randls_24.json,http://54.235.29.9/FacialAge/BNav_EC2/DepthDuration/v2_depth_duration_MTurk/v2_DepthDuration_HTML.html#82,82,1440,789,1440,900,8-21-2022,9-35-23,144,depth_duration_stimuli/002057_2014-06-24_21-00-13_260595134347_rgbf000120-resize_1/002057_2014-06-24_21-00-13_260595134347_rgbf000120-resize_1-target.png,125,2.967,61,2834,125,meters,jsons/VE125_randls_24.json,904763,1358199,35,Man
144,609937,DepthScenes,duration_manipulation_targetAtFixation,jsons/VE125_randls_24.json,http://54.235.29.9/FacialAge/BNav_EC2/DepthDuration/v2_depth_duration_MTurk/v2_DepthDuration_HTML.html#82,82,1440,789,1440,900,8-21-2022,9-35-23,145,depth_duration_stimuli/000709_2014-06-08_13-51-55_260595134347_rgbf000068-resize_3/000709_2014-06-08_13-51-55_260595134347_rgbf000068-resize_3-target.png,125,1.8030000000000002,64,2724,125,meters,jsons/VE125_randls_24.json,904763,1358199,35,Man
145,609937,DepthScenes,duration_manipulation_targetAtFixation,jsons/VE125_randls_24.json,http://54.235.29.9/FacialAge/BNav_EC2/DepthDuration/v2_depth_duration_MTurk/v2_DepthDuration_HTML.html#82,82,1440,789,1440,900,8-21-2022,9-35-23,146,depth_duration_stimuli/001498_2014-06-19_17-45-14_260595134347_rgbf000129-resize_4/001498_2014-06-19_17-45-14_260595134347_rgbf000129-resize-original.jpg,125,1.4075,0,2395,125,meters,jsons/VE125_randls_24.json,904763,1358199,35,Man
146,609937,DepthScenes,duration_manipulation_targetAtFixation,jsons/VE125_randls_24.json,http://54.235.29.9/FacialAge/BNav_EC2/DepthDuration/v2_depth_duration_MTurk/v2_DepthDuration_HTML.html#82,82,1440,789,1440,900,8-21-2022,9-35-23,147,depth_duration_stimuli/001158_2014-06-17_15-32-16_260595134347_rgbf000138-resize_2/001158_2014-06-17_15-32-16_260595134347_rgbf000138-resize_2-target.png,125,4.5315,65,3035,125,meters,jsons/VE125_randls_24.json,904763,1358199,35,Man
147,609937,DepthScenes,duration_manipulation_targetAtFixation,jsons/VE125_randls_24.json,http://54.235.29.9/FacialAge/BNav_EC2/DepthDuration/v2_depth_duration_MTurk/v2_DepthDuration_HTML.html#82,82,1440,789,1440,900,8-21-2022,9-35-23,148,depth_duration_stimuli/000556_2014-06-09_22-42-56_260595134347_rgbf000214-resize_1/000556_2014-06-09_22-42-56_260595134347_rgbf000214-resize_1-target.png,125,4.8415,60,2475,126,meters,jsons/VE125_randls_24.json,904763,1358199,35,Man
148,609937,DepthScenes,duration_manipulation_targetAtFixation,jsons/VE125_randls_24.json,http://54.235.29.9/FacialAge/BNav_EC2/DepthDuration/v2_depth_duration_MTurk/v2_DepthDuration_HTML.html#82,82,1440,789,1440,900,8-21-2022,9-35-23,149,depth_duration_stimuli/002784_2014-06-22_19-26-30_094959634447_rgbf000083-resize_3/002784_2014-06-22_19-26-30_094959634447_rgbf000083-resize_3-target.png,125,1.8046666666667,50,2388,126,meters,jsons/VE125_randls_24.json,904763,1358199,35,Man
149,609937,DepthScenes,duration_manipulation_targetAtFixation,jsons/VE125_randls_24.json,http://54.235.29.9/FacialAge/BNav_EC2/DepthDuration/v2_depth_duration_MTurk/v2_DepthDuration_HTML.html#82,82,1440,789,1440,900,8-21-2022,9-35-23,150,depth_duration_stimuli/001100_2014-06-15_17-46-26_260595134347_rgbf000225-resize_2/001100_2014-06-15_17-46-26_260595134347_rgbf000225-resize_2-target.png,125,2.24,50,2443,125,meters,jsons/VE125_randls_24.json,904763,1358199,35,Man
150,609937,DepthScenes,duration_manipulation_targetAtFixation,jsons/VE125_randls_24.json,http://54.235.29.9/FacialAge/BNav_EC2/DepthDuration/v2_depth_duration_MTurk/v2_DepthDuration_HTML.html#82,82,1440,789,1440,900,8-21-2022,9-35-23,151,depth_duration_stimuli/002445_2014-06-28_20-32-16_260595134347_rgbf000029-resize_4/002445_2014-06-28_20-32-16_260595134347_rgbf000029-resize_4-target.png,125,2.5315,52,3275,126,meters,jsons/VE125_randls_24.json,904763,1358199,35,Man
151,609937,DepthScenes,duration_manipulation_targetAtFixation,jsons/VE125_randls_24.json,http://54.235.29.9/FacialAge/BNav_EC2/DepthDuration/v2_depth_duration_MTurk/v2_DepthDuration_HTML.html#82,82,1440,789,1440,900,8-21-2022,9-35-23,152,depth_duration_stimuli/000780_2014-06-08_22-28-29_260595134347_rgbf000126-resize_1/000780_2014-06-08_22-28-29_260595134347_rgbf000126-resize_1-target.png,125,3.3825,53,3233,126,meters,jsons/VE125_randls_24.json,904763,1358199,35,Man
152,609937,DepthScenes,duration_manipulation_targetAtFixation,jsons/VE125_randls_24.json,http://54.235.29.9/FacialAge/BNav_EC2/DepthDuration/v2_depth_duration_MTurk/v2_DepthDuration_HTML.html#82,82,1440,789,1440,900,8-21-2022,9-35-23,153,depth_duration_stimuli/002663_2014-06-13_15-50-26_094959634447_rgbf000075-resize_1/002663_2014-06-13_15-50-26_094959634447_rgbf000075-resize_1-target.png,125,4.7495,65,2853,125,meters,jsons/VE125_randls_24.json,904763,1358199,35,Man
153,609937,DepthScenes,duration_manipulation_targetAtFixation,jsons/VE125_randls_24.json,http://54.235.29.9/FacialAge/BNav_EC2/DepthDuration/v2_depth_duration_MTurk/v2_DepthDuration_HTML.html#82,82,1440,789,1440,900,8-21-2022,9-35-23,154,depth_duration_stimuli/000409_2014-06-04_19-23-33_260595134347_rgbf000067-resize_0/000409_2014-06-04_19-23-33_260595134347_rgbf000067-resize_0-target.png,125,3.7335,64,3202,125,meters,jsons/VE125_randls_24.json,904763,1358199,35,Man
154,609937,DepthScenes,duration_manipulation_targetAtFixation,jsons/VE125_randls_24.json,http://54.235.29.9/FacialAge/BNav_EC2/DepthDuration/v2_depth_duration_MTurk/v2_DepthDuration_HTML.html#82,82,1440,789,1440,900,8-21-2022,9-35-23,155,depth_duration_stimuli/002375_2014-06-28_20-13-44_260595134347_rgbf000032-resize_1/002375_2014-06-28_20-13-44_260595134347_rgbf000032-resize_1-target.png,125,4.0175,61,4355,125,meters,jsons/VE125_randls_24.json,904763,1358199,35,Man
155,609937,DepthScenes,duration_manipulation_targetAtFixation,jsons/VE125_randls_24.json,http://54.235.29.9/FacialAge/BNav_EC2/DepthDuration/v2_depth_duration_MTurk/v2_DepthDuration_HTML.html#82,82,1440,789,1440,900,8-21-2022,9-35-23,156,depth_duration_stimuli/002657_2014-06-13_15-29-54_094959634447_rgbf000150-resize_1/002657_2014-06-13_15-29-54_094959634447_rgbf000150-resize_1-target.png,125,4.919,60,38548,126,meters,jsons/VE125_randls_24.json,904763,1358199,35,Man
156,609937,DepthScenes,duration_manipulation_targetAtFixation,jsons/VE125_randls_24.json,http://54.235.29.9/FacialAge/BNav_EC2/DepthDuration/v2_depth_duration_MTurk/v2_DepthDuration_HTML.html#82,82,1440,789,1440,900,8-21-2022,9-35-23,157,depth_duration_stimuli/001110_2014-06-15_17-25-28_260595134347_rgbf000150-resize_1/001110_2014-06-15_17-25-28_260595134347_rgbf000150-resize_1-target.png,125,1.7115,55,3043,126,meters,jsons/VE125_randls_24.json,904763,1358199,35,Man
157,609937,DepthScenes,duration_manipulation_targetAtFixation,jsons/VE125_randls_24.json,http://54.235.29.9/FacialAge/BNav_EC2/DepthDuration/v2_depth_duration_MTurk/v2_DepthDuration_HTML.html#82,82,1440,789,1440,900,8-21-2022,9-35-23,158,depth_duration_stimuli/000927_2014-06-09_16-32-30_260595134347_rgbf000123-resize_3/000927_2014-06-09_16-32-30_260595134347_rgbf000123-resize_3-target.png,125,2.6785,60,2793,125,meters,jsons/VE125_randls_24.json,904763,1358199,35,Man
158,609937,DepthScenes,duration_manipulation_targetAtFixation,jsons/VE125_randls_24.json,http://54.235.29.9/FacialAge/BNav_EC2/DepthDuration/v2_depth_duration_MTurk/v2_DepthDuration_HTML.html#82,82,1440,789,1440,900,8-21-2022,9-35-23,159,depth_duration_stimuli/000736_2014-06-08_18-24-15_260595134347_rgbf000206-resize_3/000736_2014-06-08_18-24-15_260595134347_rgbf000206-resize_3-target.png,125,3.515,56,3139,126,meters,jsons/VE125_randls_24.json,904763,1358199,35,Man
159,609937,DepthScenes,duration_manipulation_targetAtFixation,jsons/VE125_randls_24.json,http://54.235.29.9/FacialAge/BNav_EC2/DepthDuration/v2_depth_duration_MTurk/v2_DepthDuration_HTML.html#82,82,1440,789,1440,900,8-21-2022,9-35-23,160,depth_duration_stimuli/000137_2014-05-20_17-04-49_260595134347_rgbf000120-resize_1/000137_2014-05-20_17-04-49_260595134347_rgbf000120-resize_1-target.png,125,3.786,62,2602,126,meters,jsons/VE125_randls_24.json,904763,1358199,35,Man
160,609937,DepthScenes,duration_manipulation_targetAtFixation,jsons/VE125_randls_24.json,http://54.235.29.9/FacialAge/BNav_EC2/DepthDuration/v2_depth_duration_MTurk/v2_DepthDuration_HTML.html#82,82,1440,789,1440,900,8-21-2022,9-35-23,161,depth_duration_stimuli/001167_2014-06-17_15-38-07_260595134347_rgbf000108-resize_0/001167_2014-06-17_15-38-07_260595134347_rgbf000108-resize_0-target.png,125,1.8505,65,2671,125,meters,jsons/VE125_randls_24.json,904763,1358199,35,Man
161,609937,DepthScenes,duration_manipulation_targetAtFixation,jsons/VE125_randls_24.json,http://54.235.29.9/FacialAge/BNav_EC2/DepthDuration/v2_depth_duration_MTurk/v2_DepthDuration_HTML.html#82,82,1440,789,1440,900,8-21-2022,9-35-23,162,depth_duration_stimuli/003587_2014-05-23_16-48-02_094959634447_rgbf002384-resize_2/003587_2014-05-23_16-48-02_094959634447_rgbf002384-resize_2-target.png,125,1.357,53,28593,125,meters,jsons/VE125_randls_24.json,904763,1358199,35,Man
162,609937,DepthScenes,duration_manipulation_targetAtFixation,jsons/VE125_randls_24.json,http://54.235.29.9/FacialAge/BNav_EC2/DepthDuration/v2_depth_duration_MTurk/v2_DepthDuration_HTML.html#82,82,1440,789,1440,900,8-21-2022,9-35-23,163,depth_duration_stimuli/000929_2014-06-09_16-33-19_260595134347_rgbf000139-resize_0/000929_2014-06-09_16-33-19_260595134347_rgbf000139-resize_0-target.png,125,2.8680000000000003,53,2651,125,meters,jsons/VE125_randls_24.json,904763,1358199,35,Man
163,609937,DepthScenes,duration_manipulation_targetAtFixation,jsons/VE125_randls_24.json,http://54.235.29.9/FacialAge/BNav_EC2/DepthDuration/v2_depth_duration_MTurk/v2_DepthDuration_HTML.html#82,82,1440,789,1440,900,8-21-2022,9-35-23,164,depth_duration_stimuli/000457_2014-06-08_16-52-43_260595134347_rgbf000199-resize_1/000457_2014-06-08_16-52-43_260595134347_rgbf000199-resize_1-target.png,125,3.6489999999999996,54,2747,126,meters,jsons/VE125_randls_24.json,904763,1358199,35,Man
