,subjID,experimentName,versionName,sequenceName,url,selected_row,windowWidth,windowHeight,screenWidth,screenHeight,startDate,startTime,trial,stimulus,duration,actual_depth,depth_estimate,trial_RT,log_sceneDuration,unitSelection,seq_filepath,experimentTime,totalTime,age,gender
0,610706,DepthScenes,duration_manipulation_targetAtFixation,jsons/v1_VE1000_randls_49_rotated.json,http://54.235.29.9/FacialAge/BNav_EC2/DepthDuration/v2_depth_duration_MTurk/v2_DepthDuration_HTML.html#369,369,1364,625,1364,768,8-29-2022,15-27-19,1,depth_duration_stimuli/000665_2014-06-09_20-42-35_260595134347_rgbf000110-resize_1/000665_2014-06-09_20-42-35_260595134347_rgbf000110-resize_1-target.png,1000,3.057,5,11569,999,meters,jsons/v1_VE1000_randls_49_rotated.json,1537300,2011101,52,Man
1,610706,DepthScenes,duration_manipulation_targetAtFixation,jsons/v1_VE1000_randls_49_rotated.json,http://54.235.29.9/FacialAge/BNav_EC2/DepthDuration/v2_depth_duration_MTurk/v2_DepthDuration_HTML.html#369,369,1364,625,1364,768,8-29-2022,15-27-19,2,depth_duration_stimuli/001150_2014-06-17_15-27-34_260595134347_rgbf000108-resize_2/001150_2014-06-17_15-27-34_260595134347_rgbf000108-resize_2-target.png,1000,4.0325,2,7422,998,meters,jsons/v1_VE1000_randls_49_rotated.json,1537300,2011101,52,Man
2,610706,DepthScenes,duration_manipulation_targetAtFixation,jsons/v1_VE1000_randls_49_rotated.json,http://54.235.29.9/FacialAge/BNav_EC2/DepthDuration/v2_depth_duration_MTurk/v2_DepthDuration_HTML.html#369,369,1364,625,1364,768,8-29-2022,15-27-19,3,depth_duration_stimuli/002444_2014-06-28_20-32-08_260595134347_rgbf000027-resize_0/002444_2014-06-28_20-32-08_260595134347_rgbf000027-resize_0-target.png,1000,4.388999999999999,4,10297,1014,meters,jsons/v1_VE1000_randls_49_rotated.json,1537300,2011101,52,Man
3,610706,DepthScenes,duration_manipulation_targetAtFixation,jsons/v1_VE1000_randls_49_rotated.json,http://54.235.29.9/FacialAge/BNav_EC2/DepthDuration/v2_depth_duration_MTurk/v2_DepthDuration_HTML.html#369,369,1364,625,1364,768,8-29-2022,15-27-19,4,depth_duration_stimuli/000436_2014-06-09_22-25-11_260595134347_rgbf000137-resize_1/000436_2014-06-09_22-25-11_260595134347_rgbf000137-resize_1-target.png,1000,4.0705,2,4391,998,meters,jsons/v1_VE1000_randls_49_rotated.json,1537300,2011101,52,Man
4,610706,DepthScenes,duration_manipulation_targetAtFixation,jsons/v1_VE1000_randls_49_rotated.json,http://54.235.29.9/FacialAge/BNav_EC2/DepthDuration/v2_depth_duration_MTurk/v2_DepthDuration_HTML.html#369,369,1364,625,1364,768,8-29-2022,15-27-19,5,depth_duration_stimuli/001032_2014-06-08_13-23-17_260595134347_rgbf000021-resize_3/001032_2014-06-08_13-23-17_260595134347_rgbf000021-resize_3-target.png,1000,3.2725,3,6298,998,meters,jsons/v1_VE1000_randls_49_rotated.json,1537300,2011101,52,Man
5,610706,DepthScenes,duration_manipulation_targetAtFixation,jsons/v1_VE1000_randls_49_rotated.json,http://54.235.29.9/FacialAge/BNav_EC2/DepthDuration/v2_depth_duration_MTurk/v2_DepthDuration_HTML.html#369,369,1364,625,1364,768,8-29-2022,15-27-19,6,depth_duration_stimuli/001059_2014-06-08_21-53-27_260595134347_rgbf000061-resize_4/001059_2014-06-08_21-53-27_260595134347_rgbf000061-resize_4-target.png,1000,2.4185,4,4733,998,meters,jsons/v1_VE1000_randls_49_rotated.json,1537300,2011101,52,Man
6,610706,DepthScenes,duration_manipulation_targetAtFixation,jsons/v1_VE1000_randls_49_rotated.json,http://54.235.29.9/FacialAge/BNav_EC2/DepthDuration/v2_depth_duration_MTurk/v2_DepthDuration_HTML.html#369,369,1364,625,1364,768,8-29-2022,15-27-19,7,depth_duration_stimuli/002323_2014-06-28_20-01-54_260595134347_rgbf000051-resize_4/002323_2014-06-28_20-01-54_260595134347_rgbf000051-resize_4-target.png,1000,3.7310000000000003,3,4740,999,meters,jsons/v1_VE1000_randls_49_rotated.json,1537300,2011101,52,Man
7,610706,DepthScenes,duration_manipulation_targetAtFixation,jsons/v1_VE1000_randls_49_rotated.json,http://54.235.29.9/FacialAge/BNav_EC2/DepthDuration/v2_depth_duration_MTurk/v2_DepthDuration_HTML.html#369,369,1364,625,1364,768,8-29-2022,15-27-19,8,depth_duration_stimuli/000917_2014-06-09_22-45-29_260595134347_rgbf000149-resize_3/000917_2014-06-09_22-45-29_260595134347_rgbf000149-resize_3-target.png,1000,4.1865,2,5167,1010,meters,jsons/v1_VE1000_randls_49_rotated.json,1537300,2011101,52,Man
8,610706,DepthScenes,duration_manipulation_targetAtFixation,jsons/v1_VE1000_randls_49_rotated.json,http://54.235.29.9/FacialAge/BNav_EC2/DepthDuration/v2_depth_duration_MTurk/v2_DepthDuration_HTML.html#369,369,1364,625,1364,768,8-29-2022,15-27-19,9,depth_duration_stimuli/000691_2014-06-08_13-08-50_260595134347_rgbf000132-resize_3/000691_2014-06-08_13-08-50_260595134347_rgbf000132-resize_3-target.png,1000,4.1530000000000005,4,9859,999,meters,jsons/v1_VE1000_randls_49_rotated.json,1537300,2011101,52,Man
9,610706,DepthScenes,duration_manipulation_targetAtFixation,jsons/v1_VE1000_randls_49_rotated.json,http://54.235.29.9/FacialAge/BNav_EC2/DepthDuration/v2_depth_duration_MTurk/v2_DepthDuration_HTML.html#369,369,1364,625,1364,768,8-29-2022,15-27-19,10,depth_duration_stimuli/002213_2014-06-28_18-37-58_260595134347_rgbf000055-resize_1/002213_2014-06-28_18-37-58_260595134347_rgbf000055-resize_1-target.png,1000,3.62,3,4172,999,meters,jsons/v1_VE1000_randls_49_rotated.json,1537300,2011101,52,Man
10,610706,DepthScenes,duration_manipulation_targetAtFixation,jsons/v1_VE1000_randls_49_rotated.json,http://54.235.29.9/FacialAge/BNav_EC2/DepthDuration/v2_depth_duration_MTurk/v2_DepthDuration_HTML.html#369,369,1364,625,1364,768,8-29-2022,15-27-19,11,depth_duration_stimuli/000457_2014-06-08_16-52-43_260595134347_rgbf000199-resize_1/000457_2014-06-08_16-52-43_260595134347_rgbf000199-resize_1-target.png,1000,3.6489999999999996,2,6047,998,meters,jsons/v1_VE1000_randls_49_rotated.json,1537300,2011101,52,Man
11,610706,DepthScenes,duration_manipulation_targetAtFixation,jsons/v1_VE1000_randls_49_rotated.json,http://54.235.29.9/FacialAge/BNav_EC2/DepthDuration/v2_depth_duration_MTurk/v2_DepthDuration_HTML.html#369,369,1364,625,1364,768,8-29-2022,15-27-19,12,depth_duration_stimuli/000929_2014-06-09_16-33-19_260595134347_rgbf000139-resize_0/000929_2014-06-09_16-33-19_260595134347_rgbf000139-resize_0-target.png,1000,2.8680000000000003,2,4922,1000,meters,jsons/v1_VE1000_randls_49_rotated.json,1537300,2011101,52,Man
12,610706,DepthScenes,duration_manipulation_targetAtFixation,jsons/v1_VE1000_randls_49_rotated.json,http://54.235.29.9/FacialAge/BNav_EC2/DepthDuration/v2_depth_duration_MTurk/v2_DepthDuration_HTML.html#369,369,1364,625,1364,768,8-29-2022,15-27-19,13,depth_duration_stimuli/001584_2014-06-20_11-07-43_260595134347_rgbf000002-resize_1/001584_2014-06-20_11-07-43_260595134347_rgbf000002-resize_1-target.png,1000,3.53,2,15204,1001,meters,jsons/v1_VE1000_randls_49_rotated.json,1537300,2011101,52,Man
13,610706,DepthScenes,duration_manipulation_targetAtFixation,jsons/v1_VE1000_randls_49_rotated.json,http://54.235.29.9/FacialAge/BNav_EC2/DepthDuration/v2_depth_duration_MTurk/v2_DepthDuration_HTML.html#369,369,1364,625,1364,768,8-29-2022,15-27-19,14,depth_duration_stimuli/003621_2014-05-23_18-06-08_094959634447_rgbf000101-resize_1/003621_2014-05-23_18-06-08_094959634447_rgbf000101-resize_1-target.png,1000,3.9835,36,4611,1001,meters,jsons/v1_VE1000_randls_49_rotated.json,1537300,2011101,52,Man
14,610706,DepthScenes,duration_manipulation_targetAtFixation,jsons/v1_VE1000_randls_49_rotated.json,http://54.235.29.9/FacialAge/BNav_EC2/DepthDuration/v2_depth_duration_MTurk/v2_DepthDuration_HTML.html#369,369,1364,625,1364,768,8-29-2022,15-27-19,15,depth_duration_stimuli/003228_2014-05-14_13-42-35_094959634447_rgbf000101-resize_1/003228_2014-05-14_13-42-35_094959634447_rgbf000101-resize_1-target.png,1000,1.9680000000000002,4,8766,999,meters,jsons/v1_VE1000_randls_49_rotated.json,1537300,2011101,52,Man
15,610706,DepthScenes,duration_manipulation_targetAtFixation,jsons/v1_VE1000_randls_49_rotated.json,http://54.235.29.9/FacialAge/BNav_EC2/DepthDuration/v2_depth_duration_MTurk/v2_DepthDuration_HTML.html#369,369,1364,625,1364,768,8-29-2022,15-27-19,16,depth_duration_stimuli/002600_2014-06-24_14-27-04_094959634447_rgbf000074-resize_2/002600_2014-06-24_14-27-04_094959634447_rgbf000074-resize_2-target.png,1000,2.7575,2,5000,998,meters,jsons/v1_VE1000_randls_49_rotated.json,1537300,2011101,52,Man
16,610706,DepthScenes,duration_manipulation_targetAtFixation,jsons/v1_VE1000_randls_49_rotated.json,http://54.235.29.9/FacialAge/BNav_EC2/DepthDuration/v2_depth_duration_MTurk/v2_DepthDuration_HTML.html#369,369,1364,625,1364,768,8-29-2022,15-27-19,17,depth_duration_stimuli/000191_2014-05-12_17-07-38_260595134347_rgbf000199-resize_0/000191_2014-05-12_17-07-38_260595134347_rgbf000199-resize_0-target.png,1000,3.7995,2,11828,992,meters,jsons/v1_VE1000_randls_49_rotated.json,1537300,2011101,52,Man
17,610706,DepthScenes,duration_manipulation_targetAtFixation,jsons/v1_VE1000_randls_49_rotated.json,http://54.235.29.9/FacialAge/BNav_EC2/DepthDuration/v2_depth_duration_MTurk/v2_DepthDuration_HTML.html#369,369,1364,625,1364,768,8-29-2022,15-27-19,18,depth_duration_stimuli/000493_2014-06-09_21-01-18_260595134347_rgbf000196-resize_3/000493_2014-06-09_21-01-18_260595134347_rgbf000196-resize_3-target.png,1000,3.44,4,8781,997,meters,jsons/v1_VE1000_randls_49_rotated.json,1537300,2011101,52,Man
18,610706,DepthScenes,duration_manipulation_targetAtFixation,jsons/v1_VE1000_randls_49_rotated.json,http://54.235.29.9/FacialAge/BNav_EC2/DepthDuration/v2_depth_duration_MTurk/v2_DepthDuration_HTML.html#369,369,1364,625,1364,768,8-29-2022,15-27-19,19,depth_duration_stimuli/001498_2014-06-19_17-45-14_260595134347_rgbf000129-resize_4/001498_2014-06-19_17-45-14_260595134347_rgbf000129-resize-original.jpg,1000,1.4075,0,6782,1000,meters,jsons/v1_VE1000_randls_49_rotated.json,1537300,2011101,52,Man
19,610706,DepthScenes,duration_manipulation_targetAtFixation,jsons/v1_VE1000_randls_49_rotated.json,http://54.235.29.9/FacialAge/BNav_EC2/DepthDuration/v2_depth_duration_MTurk/v2_DepthDuration_HTML.html#369,369,1364,625,1364,768,8-29-2022,15-27-19,20,depth_duration_stimuli/000635_2014-06-08_16-38-42_260595134347_rgbf000106-resize_1/000635_2014-06-08_16-38-42_260595134347_rgbf000106-resize_1-target.png,1000,2.074,4,10108,998,meters,jsons/v1_VE1000_randls_49_rotated.json,1537300,2011101,52,Man
20,610706,DepthScenes,duration_manipulation_targetAtFixation,jsons/v1_VE1000_randls_49_rotated.json,http://54.235.29.9/FacialAge/BNav_EC2/DepthDuration/v2_depth_duration_MTurk/v2_DepthDuration_HTML.html#369,369,1364,625,1364,768,8-29-2022,15-27-19,21,depth_duration_stimuli/002279_2014-06-28_18-55-32_260595134347_rgbf000040-resize_5/002279_2014-06-28_18-55-32_260595134347_rgbf000040-resize_5-target.png,1000,1.5043333333333,4,6578,999,meters,jsons/v1_VE1000_randls_49_rotated.json,1537300,2011101,52,Man
21,610706,DepthScenes,duration_manipulation_targetAtFixation,jsons/v1_VE1000_randls_49_rotated.json,http://54.235.29.9/FacialAge/BNav_EC2/DepthDuration/v2_depth_duration_MTurk/v2_DepthDuration_HTML.html#369,369,1364,625,1364,768,8-29-2022,15-27-19,22,depth_duration_stimuli/002545_2014-06-24_13-38-53_094959634447_rgbf000080-resize_4/002545_2014-06-24_13-38-53_094959634447_rgbf000080-resize_4-target.png,1000,1.9205,4,11487,987,meters,jsons/v1_VE1000_randls_49_rotated.json,1537300,2011101,52,Man
22,610706,DepthScenes,duration_manipulation_targetAtFixation,jsons/v1_VE1000_randls_49_rotated.json,http://54.235.29.9/FacialAge/BNav_EC2/DepthDuration/v2_depth_duration_MTurk/v2_DepthDuration_HTML.html#369,369,1364,625,1364,768,8-29-2022,15-27-19,23,depth_duration_stimuli/001092_2014-06-15_17-34-58_260595134347_rgbf000171-resize_3/001092_2014-06-15_17-34-58_260595134347_rgbf000171-resize_3-target.png,1000,2.6935,3,6015,994,meters,jsons/v1_VE1000_randls_49_rotated.json,1537300,2011101,52,Man
23,610706,DepthScenes,duration_manipulation_targetAtFixation,jsons/v1_VE1000_randls_49_rotated.json,http://54.235.29.9/FacialAge/BNav_EC2/DepthDuration/v2_depth_duration_MTurk/v2_DepthDuration_HTML.html#369,369,1364,625,1364,768,8-29-2022,15-27-19,24,depth_duration_stimuli/002758_2014-06-22_19-11-20_094959634447_rgbf000128-resize_1/002758_2014-06-22_19-11-20_094959634447_rgbf000128-resize_1-target.png,1000,2.555,4,12594,999,meters,jsons/v1_VE1000_randls_49_rotated.json,1537300,2011101,52,Man
24,610706,DepthScenes,duration_manipulation_targetAtFixation,jsons/v1_VE1000_randls_49_rotated.json,http://54.235.29.9/FacialAge/BNav_EC2/DepthDuration/v2_depth_duration_MTurk/v2_DepthDuration_HTML.html#369,369,1364,625,1364,768,8-29-2022,15-27-19,25,depth_duration_stimuli/002630_2014-06-24_14-47-50_094959634447_rgbf000055-resize_1/002630_2014-06-24_14-47-50_094959634447_rgbf000055-resize_1-target.png,1000,3.0095,2,4531,1014,meters,jsons/v1_VE1000_randls_49_rotated.json,1537300,2011101,52,Man
25,610706,DepthScenes,duration_manipulation_targetAtFixation,jsons/v1_VE1000_randls_49_rotated.json,http://54.235.29.9/FacialAge/BNav_EC2/DepthDuration/v2_depth_duration_MTurk/v2_DepthDuration_HTML.html#369,369,1364,625,1364,768,8-29-2022,15-27-19,26,depth_duration_stimuli/002875_2014-06-01_15-19-00_094959634447_rgbf000151-resize_1/002875_2014-06-01_15-19-00_094959634447_rgbf000151-resize_1-target.png,1000,1.9675,2,9672,1001,meters,jsons/v1_VE1000_randls_49_rotated.json,1537300,2011101,52,Man
26,610706,DepthScenes,duration_manipulation_targetAtFixation,jsons/v1_VE1000_randls_49_rotated.json,http://54.235.29.9/FacialAge/BNav_EC2/DepthDuration/v2_depth_duration_MTurk/v2_DepthDuration_HTML.html#369,369,1364,625,1364,768,8-29-2022,15-27-19,27,depth_duration_stimuli/001011_2014-06-08_23-18-54_260595134347_rgbf000044-resize_4/001011_2014-06-08_23-18-54_260595134347_rgbf000044-resize_4-target.png,1000,2.4730000000000003,0,3547,999,meters,jsons/v1_VE1000_randls_49_rotated.json,1537300,2011101,52,Man
27,610706,DepthScenes,duration_manipulation_targetAtFixation,jsons/v1_VE1000_randls_49_rotated.json,http://54.235.29.9/FacialAge/BNav_EC2/DepthDuration/v2_depth_duration_MTurk/v2_DepthDuration_HTML.html#369,369,1364,625,1364,768,8-29-2022,15-27-19,28,depth_duration_stimuli/000709_2014-06-08_13-51-55_260595134347_rgbf000068-resize_3/000709_2014-06-08_13-51-55_260595134347_rgbf000068-resize_3-target.png,1000,1.8030000000000002,4,4188,999,meters,jsons/v1_VE1000_randls_49_rotated.json,1537300,2011101,52,Man
28,610706,DepthScenes,duration_manipulation_targetAtFixation,jsons/v1_VE1000_randls_49_rotated.json,http://54.235.29.9/FacialAge/BNav_EC2/DepthDuration/v2_depth_duration_MTurk/v2_DepthDuration_HTML.html#369,369,1364,625,1364,768,8-29-2022,15-27-19,29,depth_duration_stimuli/002057_2014-06-24_21-00-13_260595134347_rgbf000120-resize_1/002057_2014-06-24_21-00-13_260595134347_rgbf000120-resize_1-target.png,1000,2.967,5,3782,998,meters,jsons/v1_VE1000_randls_49_rotated.json,1537300,2011101,52,Man
29,610706,DepthScenes,duration_manipulation_targetAtFixation,jsons/v1_VE1000_randls_49_rotated.json,http://54.235.29.9/FacialAge/BNav_EC2/DepthDuration/v2_depth_duration_MTurk/v2_DepthDuration_HTML.html#369,369,1364,625,1364,768,8-29-2022,15-27-19,30,depth_duration_stimuli/002072_2014-06-24_21-48-06_260595134347_rgbf000115-resize_0/002072_2014-06-24_21-48-06_260595134347_rgbf000115-resize-original.jpg,1000,4.702,0,5750,998,meters,jsons/v1_VE1000_randls_49_rotated.json,1537300,2011101,52,Man
30,610706,DepthScenes,duration_manipulation_targetAtFixation,jsons/v1_VE1000_randls_49_rotated.json,http://54.235.29.9/FacialAge/BNav_EC2/DepthDuration/v2_depth_duration_MTurk/v2_DepthDuration_HTML.html#369,369,1364,625,1364,768,8-29-2022,15-27-19,31,depth_duration_stimuli/001516_2014-06-20_16-25-09_260595134347_rgbf000076-resize_2/001516_2014-06-20_16-25-09_260595134347_rgbf000076-resize_2-target.png,1000,1.7445,4,6083,999,meters,jsons/v1_VE1000_randls_49_rotated.json,1537300,2011101,52,Man
31,610706,DepthScenes,duration_manipulation_targetAtFixation,jsons/v1_VE1000_randls_49_rotated.json,http://54.235.29.9/FacialAge/BNav_EC2/DepthDuration/v2_depth_duration_MTurk/v2_DepthDuration_HTML.html#369,369,1364,625,1364,768,8-29-2022,15-27-19,32,depth_duration_stimuli/002118_2014-06-25_20-32-08_260595134347_rgbf000078-resize_1/002118_2014-06-25_20-32-08_260595134347_rgbf000078-resize_1-target.png,1000,2.6460000000000004,4,4640,1015,meters,jsons/v1_VE1000_randls_49_rotated.json,1537300,2011101,52,Man
32,610706,DepthScenes,duration_manipulation_targetAtFixation,jsons/v1_VE1000_randls_49_rotated.json,http://54.235.29.9/FacialAge/BNav_EC2/DepthDuration/v2_depth_duration_MTurk/v2_DepthDuration_HTML.html#369,369,1364,625,1364,768,8-29-2022,15-27-19,33,depth_duration_stimuli/000854_2014-06-09_19-43-13_260595134347_rgbf000066-resize_0/000854_2014-06-09_19-43-13_260595134347_rgbf000066-resize_0-target.png,1000,3.068,4,17437,999,meters,jsons/v1_VE1000_randls_49_rotated.json,1537300,2011101,52,Man
33,610706,DepthScenes,duration_manipulation_targetAtFixation,jsons/v1_VE1000_randls_49_rotated.json,http://54.235.29.9/FacialAge/BNav_EC2/DepthDuration/v2_depth_duration_MTurk/v2_DepthDuration_HTML.html#369,369,1364,625,1364,768,8-29-2022,15-27-19,34,depth_duration_stimuli/000758_2014-06-08_22-05-08_260595134347_rgbf000085-resize_0/000758_2014-06-08_22-05-08_260595134347_rgbf000085-resize_0-target.png,1000,3.3810000000000002,4,8735,999,meters,jsons/v1_VE1000_randls_49_rotated.json,1537300,2011101,52,Man
34,610706,DepthScenes,duration_manipulation_targetAtFixation,jsons/v1_VE1000_randls_49_rotated.json,http://54.235.29.9/FacialAge/BNav_EC2/DepthDuration/v2_depth_duration_MTurk/v2_DepthDuration_HTML.html#369,369,1364,625,1364,768,8-29-2022,15-27-19,35,depth_duration_stimuli/000137_2014-05-20_17-04-49_260595134347_rgbf000120-resize_1/000137_2014-05-20_17-04-49_260595134347_rgbf000120-resize_1-target.png,1000,3.786,2,12313,998,meters,jsons/v1_VE1000_randls_49_rotated.json,1537300,2011101,52,Man
35,610706,DepthScenes,duration_manipulation_targetAtFixation,jsons/v1_VE1000_randls_49_rotated.json,http://54.235.29.9/FacialAge/BNav_EC2/DepthDuration/v2_depth_duration_MTurk/v2_DepthDuration_HTML.html#369,369,1364,625,1364,768,8-29-2022,15-27-19,36,depth_duration_stimuli/000736_2014-06-08_18-24-15_260595134347_rgbf000206-resize_3/000736_2014-06-08_18-24-15_260595134347_rgbf000206-resize_3-target.png,1000,3.515,4,4719,999,meters,jsons/v1_VE1000_randls_49_rotated.json,1537300,2011101,52,Man
36,610706,DepthScenes,duration_manipulation_targetAtFixation,jsons/v1_VE1000_randls_49_rotated.json,http://54.235.29.9/FacialAge/BNav_EC2/DepthDuration/v2_depth_duration_MTurk/v2_DepthDuration_HTML.html#369,369,1364,625,1364,768,8-29-2022,15-27-19,37,depth_duration_stimuli/002199_2014-06-28_18-33-56_260595134347_rgbf000074-resize_0/002199_2014-06-28_18-33-56_260595134347_rgbf000074-resize_0-target.png,1000,1.996,2,10266,1014,meters,jsons/v1_VE1000_randls_49_rotated.json,1537300,2011101,52,Man
37,610706,DepthScenes,duration_manipulation_targetAtFixation,jsons/v1_VE1000_randls_49_rotated.json,http://54.235.29.9/FacialAge/BNav_EC2/DepthDuration/v2_depth_duration_MTurk/v2_DepthDuration_HTML.html#369,369,1364,625,1364,768,8-29-2022,15-27-19,38,depth_duration_stimuli/001056_2014-06-08_18-46-44_260595134347_rgbf000068-resize_0/001056_2014-06-08_18-46-44_260595134347_rgbf000068-resize_0-target.png,1000,2.6625,4,8250,984,meters,jsons/v1_VE1000_randls_49_rotated.json,1537300,2011101,52,Man
38,610706,DepthScenes,duration_manipulation_targetAtFixation,jsons/v1_VE1000_randls_49_rotated.json,http://54.235.29.9/FacialAge/BNav_EC2/DepthDuration/v2_depth_duration_MTurk/v2_DepthDuration_HTML.html#369,369,1364,625,1364,768,8-29-2022,15-27-19,39,depth_duration_stimuli/000409_2014-06-04_19-23-33_260595134347_rgbf000067-resize_0/000409_2014-06-04_19-23-33_260595134347_rgbf000067-resize_0-target.png,1000,3.7335,4,8688,984,meters,jsons/v1_VE1000_randls_49_rotated.json,1537300,2011101,52,Man
39,610706,DepthScenes,duration_manipulation_targetAtFixation,jsons/v1_VE1000_randls_49_rotated.json,http://54.235.29.9/FacialAge/BNav_EC2/DepthDuration/v2_depth_duration_MTurk/v2_DepthDuration_HTML.html#369,369,1364,625,1364,768,8-29-2022,15-27-19,40,depth_duration_stimuli/002663_2014-06-13_15-50-26_094959634447_rgbf000075-resize_1/002663_2014-06-13_15-50-26_094959634447_rgbf000075-resize_1-target.png,1000,4.7495,0,3499,998,meters,jsons/v1_VE1000_randls_49_rotated.json,1537300,2011101,52,Man
40,610706,DepthScenes,duration_manipulation_targetAtFixation,jsons/v1_VE1000_randls_49_rotated.json,http://54.235.29.9/FacialAge/BNav_EC2/DepthDuration/v2_depth_duration_MTurk/v2_DepthDuration_HTML.html#369,369,1364,625,1364,768,8-29-2022,15-27-19,41,depth_duration_stimuli/001052_2014-06-08_18-24-54_260595134347_rgbf000130-resize_1/001052_2014-06-08_18-24-54_260595134347_rgbf000130-resize_1-target.png,1000,4.1045,2,4859,998,meters,jsons/v1_VE1000_randls_49_rotated.json,1537300,2011101,52,Man
41,610706,DepthScenes,duration_manipulation_targetAtFixation,jsons/v1_VE1000_randls_49_rotated.json,http://54.235.29.9/FacialAge/BNav_EC2/DepthDuration/v2_depth_duration_MTurk/v2_DepthDuration_HTML.html#369,369,1364,625,1364,768,8-29-2022,15-27-19,42,depth_duration_stimuli/002988_2014-06-15_12-24-20_094959634447_rgbf000150-resize_1/002988_2014-06-15_12-24-20_094959634447_rgbf000150-resize_1-target.png,1000,4.7669999999999995,3,5165,1000,meters,jsons/v1_VE1000_randls_49_rotated.json,1537300,2011101,52,Man
42,610706,DepthScenes,duration_manipulation_targetAtFixation,jsons/v1_VE1000_randls_49_rotated.json,http://54.235.29.9/FacialAge/BNav_EC2/DepthDuration/v2_depth_duration_MTurk/v2_DepthDuration_HTML.html#369,369,1364,625,1364,768,8-29-2022,15-27-19,43,depth_duration_stimuli/002750_2014-06-22_19-08-03_094959634447_rgbf000094-resize_4/002750_2014-06-22_19-08-03_094959634447_rgbf000094-resize_4-target.png,1000,2.354,4,7618,999,meters,jsons/v1_VE1000_randls_49_rotated.json,1537300,2011101,52,Man
43,610706,DepthScenes,duration_manipulation_targetAtFixation,jsons/v1_VE1000_randls_49_rotated.json,http://54.235.29.9/FacialAge/BNav_EC2/DepthDuration/v2_depth_duration_MTurk/v2_DepthDuration_HTML.html#369,369,1364,625,1364,768,8-29-2022,15-27-19,44,depth_duration_stimuli/002549_2014-06-24_13-41-39_094959634447_rgbf000022-resize_3/002549_2014-06-24_13-41-39_094959634447_rgbf000022-resize_3-target.png,1000,1.476,4,5110,1000,meters,jsons/v1_VE1000_randls_49_rotated.json,1537300,2011101,52,Man
44,610706,DepthScenes,duration_manipulation_targetAtFixation,jsons/v1_VE1000_randls_49_rotated.json,http://54.235.29.9/FacialAge/BNav_EC2/DepthDuration/v2_depth_duration_MTurk/v2_DepthDuration_HTML.html#369,369,1364,625,1364,768,8-29-2022,15-27-19,45,depth_duration_stimuli/001392_2014-06-19_16-07-59_260595134347_rgbf000046-resize_1/001392_2014-06-19_16-07-59_260595134347_rgbf000046-resize_1-target.png,1000,4.135,2,8409,1003,meters,jsons/v1_VE1000_randls_49_rotated.json,1537300,2011101,52,Man
45,610706,DepthScenes,duration_manipulation_targetAtFixation,jsons/v1_VE1000_randls_49_rotated.json,http://54.235.29.9/FacialAge/BNav_EC2/DepthDuration/v2_depth_duration_MTurk/v2_DepthDuration_HTML.html#369,369,1364,625,1364,768,8-29-2022,15-27-19,46,depth_duration_stimuli/001570_2014-06-20_17-21-09_260595134347_rgbf000135-resize_4/001570_2014-06-20_17-21-09_260595134347_rgbf000135-resize_4-target.png,1000,4.467,0,6471,1001,meters,jsons/v1_VE1000_randls_49_rotated.json,1537300,2011101,52,Man
46,610706,DepthScenes,duration_manipulation_targetAtFixation,jsons/v1_VE1000_randls_49_rotated.json,http://54.235.29.9/FacialAge/BNav_EC2/DepthDuration/v2_depth_duration_MTurk/v2_DepthDuration_HTML.html#369,369,1364,625,1364,768,8-29-2022,15-27-19,47,depth_duration_stimuli/001571_2014-06-20_17-21-32_260595134347_rgbf000089-resize_1/001571_2014-06-20_17-21-32_260595134347_rgbf000089-resize_1-target.png,1000,1.86,4,11859,998,meters,jsons/v1_VE1000_randls_49_rotated.json,1537300,2011101,52,Man
47,610706,DepthScenes,duration_manipulation_targetAtFixation,jsons/v1_VE1000_randls_49_rotated.json,http://54.235.29.9/FacialAge/BNav_EC2/DepthDuration/v2_depth_duration_MTurk/v2_DepthDuration_HTML.html#369,369,1364,625,1364,768,8-29-2022,15-27-19,48,depth_duration_stimuli/002272_2014-06-28_18-53-56_260595134347_rgbf000067-resize_2/002272_2014-06-28_18-53-56_260595134347_rgbf000067-resize_2-target.png,1000,1.138,5,9328,998,meters,jsons/v1_VE1000_randls_49_rotated.json,1537300,2011101,52,Man
48,610706,DepthScenes,duration_manipulation_targetAtFixation,jsons/v1_VE1000_randls_49_rotated.json,http://54.235.29.9/FacialAge/BNav_EC2/DepthDuration/v2_depth_duration_MTurk/v2_DepthDuration_HTML.html#369,369,1364,625,1364,768,8-29-2022,15-27-19,49,depth_duration_stimuli/001170_2014-06-17_15-43-44_260595134347_rgbf000096-resize_6/001170_2014-06-17_15-43-44_260595134347_rgbf000096-resize-original.jpg,1000,1.1909999999999998,0,8718,999,meters,jsons/v1_VE1000_randls_49_rotated.json,1537300,2011101,52,Man
49,610706,DepthScenes,duration_manipulation_targetAtFixation,jsons/v1_VE1000_randls_49_rotated.json,http://54.235.29.9/FacialAge/BNav_EC2/DepthDuration/v2_depth_duration_MTurk/v2_DepthDuration_HTML.html#369,369,1364,625,1364,768,8-29-2022,15-27-19,50,depth_duration_stimuli/000742_2014-06-08_18-48-09_260595134347_rgbf000164-resize_4/000742_2014-06-08_18-48-09_260595134347_rgbf000164-resize_4-target.png,1000,4.632,2,9465,1014,meters,jsons/v1_VE1000_randls_49_rotated.json,1537300,2011101,52,Man
50,610706,DepthScenes,duration_manipulation_targetAtFixation,jsons/v1_VE1000_randls_49_rotated.json,http://54.235.29.9/FacialAge/BNav_EC2/DepthDuration/v2_depth_duration_MTurk/v2_DepthDuration_HTML.html#369,369,1364,625,1364,768,8-29-2022,15-27-19,51,depth_duration_stimuli/001066_2014-06-08_22-03-20_260595134347_rgbf000066-resize_4/001066_2014-06-08_22-03-20_260595134347_rgbf000066-resize_4-target.png,1000,4.2330000000000005,4,5603,999,meters,jsons/v1_VE1000_randls_49_rotated.json,1537300,2011101,52,Man
51,610706,DepthScenes,duration_manipulation_targetAtFixation,jsons/v1_VE1000_randls_49_rotated.json,http://54.235.29.9/FacialAge/BNav_EC2/DepthDuration/v2_depth_duration_MTurk/v2_DepthDuration_HTML.html#369,369,1364,625,1364,768,8-29-2022,15-27-19,52,depth_duration_stimuli/000780_2014-06-08_22-28-29_260595134347_rgbf000126-resize_1/000780_2014-06-08_22-28-29_260595134347_rgbf000126-resize_1-target.png,1000,3.3825,4,17282,998,meters,jsons/v1_VE1000_randls_49_rotated.json,1537300,2011101,52,Man
52,610706,DepthScenes,duration_manipulation_targetAtFixation,jsons/v1_VE1000_randls_49_rotated.json,http://54.235.29.9/FacialAge/BNav_EC2/DepthDuration/v2_depth_duration_MTurk/v2_DepthDuration_HTML.html#369,369,1364,625,1364,768,8-29-2022,15-27-19,53,depth_duration_stimuli/002445_2014-06-28_20-32-16_260595134347_rgbf000029-resize_4/002445_2014-06-28_20-32-16_260595134347_rgbf000029-resize_4-target.png,1000,2.5315,4,12594,999,meters,jsons/v1_VE1000_randls_49_rotated.json,1537300,2011101,52,Man
53,610706,DepthScenes,duration_manipulation_targetAtFixation,jsons/v1_VE1000_randls_49_rotated.json,http://54.235.29.9/FacialAge/BNav_EC2/DepthDuration/v2_depth_duration_MTurk/v2_DepthDuration_HTML.html#369,369,1364,625,1364,768,8-29-2022,15-27-19,54,depth_duration_stimuli/002995_2014-06-15_12-31-26_094959634447_rgbf000150-resize_1/002995_2014-06-15_12-31-26_094959634447_rgbf000150-resize_1-target.png,1000,3.8360000000000003,2,15000,999,meters,jsons/v1_VE1000_randls_49_rotated.json,1537300,2011101,52,Man
54,610706,DepthScenes,duration_manipulation_targetAtFixation,jsons/v1_VE1000_randls_49_rotated.json,http://54.235.29.9/FacialAge/BNav_EC2/DepthDuration/v2_depth_duration_MTurk/v2_DepthDuration_HTML.html#369,369,1364,625,1364,768,8-29-2022,15-27-19,55,depth_duration_stimuli/002748_2014-06-22_19-07-22_094959634447_rgbf000078-resize_1/002748_2014-06-22_19-07-22_094959634447_rgbf000078-resize_1-target.png,1000,4.6705,4,6668,999,meters,jsons/v1_VE1000_randls_49_rotated.json,1537300,2011101,52,Man
55,610706,DepthScenes,duration_manipulation_targetAtFixation,jsons/v1_VE1000_randls_49_rotated.json,http://54.235.29.9/FacialAge/BNav_EC2/DepthDuration/v2_depth_duration_MTurk/v2_DepthDuration_HTML.html#369,369,1364,625,1364,768,8-29-2022,15-27-19,56,depth_duration_stimuli/002949_2014-06-26_15-57-42_094959634447_rgbf000079-resize_1/002949_2014-06-26_15-57-42_094959634447_rgbf000079-resize_1-target.png,1000,1.8915,5,8819,998,meters,jsons/v1_VE1000_randls_49_rotated.json,1537300,2011101,52,Man
56,610706,DepthScenes,duration_manipulation_targetAtFixation,jsons/v1_VE1000_randls_49_rotated.json,http://54.235.29.9/FacialAge/BNav_EC2/DepthDuration/v2_depth_duration_MTurk/v2_DepthDuration_HTML.html#369,369,1364,625,1364,768,8-29-2022,15-27-19,57,depth_duration_stimuli/000522_2014-06-08_13-35-06_260595134347_rgbf000244-resize_1/000522_2014-06-08_13-35-06_260595134347_rgbf000244-resize_1-target.png,1000,2.3715,4,4093,1000,meters,jsons/v1_VE1000_randls_49_rotated.json,1537300,2011101,52,Man
57,610706,DepthScenes,duration_manipulation_targetAtFixation,jsons/v1_VE1000_randls_49_rotated.json,http://54.235.29.9/FacialAge/BNav_EC2/DepthDuration/v2_depth_duration_MTurk/v2_DepthDuration_HTML.html#369,369,1364,625,1364,768,8-29-2022,15-27-19,58,depth_duration_stimuli/002660_2014-06-13_15-44-18_094959634447_rgbf001878-resize_2/002660_2014-06-13_15-44-18_094959634447_rgbf001878-resize_2-target.png,1000,3.576,4,5197,1008,meters,jsons/v1_VE1000_randls_49_rotated.json,1537300,2011101,52,Man
58,610706,DepthScenes,duration_manipulation_targetAtFixation,jsons/v1_VE1000_randls_49_rotated.json,http://54.235.29.9/FacialAge/BNav_EC2/DepthDuration/v2_depth_duration_MTurk/v2_DepthDuration_HTML.html#369,369,1364,625,1364,768,8-29-2022,15-27-19,59,depth_duration_stimuli/002153_2014-06-25_21-27-18_260595134347_rgbf000038-resize_5/002153_2014-06-25_21-27-18_260595134347_rgbf000038-resize_5-target.png,1000,2.505,5,3812,998,meters,jsons/v1_VE1000_randls_49_rotated.json,1537300,2011101,52,Man
59,610706,DepthScenes,duration_manipulation_targetAtFixation,jsons/v1_VE1000_randls_49_rotated.json,http://54.235.29.9/FacialAge/BNav_EC2/DepthDuration/v2_depth_duration_MTurk/v2_DepthDuration_HTML.html#369,369,1364,625,1364,768,8-29-2022,15-27-19,60,depth_duration_stimuli/001450_2014-06-19_17-02-03_260595134347_rgbf000203-resize_4/001450_2014-06-19_17-02-03_260595134347_rgbf000203-resize_4-target.png,1000,4.0106666666667,2,5391,999,meters,jsons/v1_VE1000_randls_49_rotated.json,1537300,2011101,52,Man
60,610706,DepthScenes,duration_manipulation_targetAtFixation,jsons/v1_VE1000_randls_49_rotated.json,http://54.235.29.9/FacialAge/BNav_EC2/DepthDuration/v2_depth_duration_MTurk/v2_DepthDuration_HTML.html#369,369,1364,625,1364,768,8-29-2022,15-27-19,61,depth_duration_stimuli/001449_2014-06-19_17-01-27_260595134347_rgbf000116-resize_2/001449_2014-06-19_17-01-27_260595134347_rgbf000116-resize_2-target.png,1000,3.452,4,4140,999,meters,jsons/v1_VE1000_randls_49_rotated.json,1537300,2011101,52,Man
61,610706,DepthScenes,duration_manipulation_targetAtFixation,jsons/v1_VE1000_randls_49_rotated.json,http://54.235.29.9/FacialAge/BNav_EC2/DepthDuration/v2_depth_duration_MTurk/v2_DepthDuration_HTML.html#369,369,1364,625,1364,768,8-29-2022,15-27-19,62,depth_duration_stimuli/003495_2014-05-21_16-01-51_094959634447_rgbf000100-resize_3/003495_2014-05-21_16-01-51_094959634447_rgbf000100-resize_3-target.png,1000,1.6255,4,19178,999,meters,jsons/v1_VE1000_randls_49_rotated.json,1537300,2011101,52,Man
62,610706,DepthScenes,duration_manipulation_targetAtFixation,jsons/v1_VE1000_randls_49_rotated.json,http://54.235.29.9/FacialAge/BNav_EC2/DepthDuration/v2_depth_duration_MTurk/v2_DepthDuration_HTML.html#369,369,1364,625,1364,768,8-29-2022,15-27-19,63,depth_duration_stimuli/001244_2014-06-17_16-47-45_260595134347_rgbf000030-resize_4/001244_2014-06-17_16-47-45_260595134347_rgbf000030-resize_4-target.png,1000,2.0425,5,6437,999,meters,jsons/v1_VE1000_randls_49_rotated.json,1537300,2011101,52,Man
63,610706,DepthScenes,duration_manipulation_targetAtFixation,jsons/v1_VE1000_randls_49_rotated.json,http://54.235.29.9/FacialAge/BNav_EC2/DepthDuration/v2_depth_duration_MTurk/v2_DepthDuration_HTML.html#369,369,1364,625,1364,768,8-29-2022,15-27-19,64,depth_duration_stimuli/002639_2014-06-24_14-51-37_094959634447_rgbf000074-resize_4/002639_2014-06-24_14-51-37_094959634447_rgbf000074-resize_4-target.png,1000,4.0375,4,7906,1000,meters,jsons/v1_VE1000_randls_49_rotated.json,1537300,2011101,52,Man
64,610706,DepthScenes,duration_manipulation_targetAtFixation,jsons/v1_VE1000_randls_49_rotated.json,http://54.235.29.9/FacialAge/BNav_EC2/DepthDuration/v2_depth_duration_MTurk/v2_DepthDuration_HTML.html#369,369,1364,625,1364,768,8-29-2022,15-27-19,65,depth_duration_stimuli/003292_2014-05-14_21-53-49_094959634447_rgbf000100-resize_2/003292_2014-05-14_21-53-49_094959634447_rgbf000100-resize_2-target.png,1000,3.4815,5,3524,999,meters,jsons/v1_VE1000_randls_49_rotated.json,1537300,2011101,52,Man
65,610706,DepthScenes,duration_manipulation_targetAtFixation,jsons/v1_VE1000_randls_49_rotated.json,http://54.235.29.9/FacialAge/BNav_EC2/DepthDuration/v2_depth_duration_MTurk/v2_DepthDuration_HTML.html#369,369,1364,625,1364,768,8-29-2022,15-27-19,66,depth_duration_stimuli/001540_2014-06-20_17-01-05_260595134347_rgbf000086-resize_2/001540_2014-06-20_17-01-05_260595134347_rgbf000086-resize-original.jpg,1000,1.459,0,5770,999,meters,jsons/v1_VE1000_randls_49_rotated.json,1537300,2011101,52,Man
66,610706,DepthScenes,duration_manipulation_targetAtFixation,jsons/v1_VE1000_randls_49_rotated.json,http://54.235.29.9/FacialAge/BNav_EC2/DepthDuration/v2_depth_duration_MTurk/v2_DepthDuration_HTML.html#369,369,1364,625,1364,768,8-29-2022,15-27-19,67,depth_duration_stimuli/002568_2014-06-24_13-59-21_094959634447_rgbf000062-resize_4/002568_2014-06-24_13-59-21_094959634447_rgbf000062-resize_4-target.png,1000,3.015,2,6312,1000,meters,jsons/v1_VE1000_randls_49_rotated.json,1537300,2011101,52,Man
67,610706,DepthScenes,duration_manipulation_targetAtFixation,jsons/v1_VE1000_randls_49_rotated.json,http://54.235.29.9/FacialAge/BNav_EC2/DepthDuration/v2_depth_duration_MTurk/v2_DepthDuration_HTML.html#369,369,1364,625,1364,768,8-29-2022,15-27-19,68,depth_duration_stimuli/003492_2014-05-21_15-50-55_094959634447_rgbf000828-resize_1/003492_2014-05-21_15-50-55_094959634447_rgbf000828-resize_1-target.png,1000,4.06875,4,3562,999,meters,jsons/v1_VE1000_randls_49_rotated.json,1537300,2011101,52,Man
68,610706,DepthScenes,duration_manipulation_targetAtFixation,jsons/v1_VE1000_randls_49_rotated.json,http://54.235.29.9/FacialAge/BNav_EC2/DepthDuration/v2_depth_duration_MTurk/v2_DepthDuration_HTML.html#369,369,1364,625,1364,768,8-29-2022,15-27-19,69,depth_duration_stimuli/002414_2014-06-28_20-24-58_260595134347_rgbf000067-resize_4/002414_2014-06-28_20-24-58_260595134347_rgbf000067-resize_4-target.png,1000,4.363,5,6861,1001,meters,jsons/v1_VE1000_randls_49_rotated.json,1537300,2011101,52,Man
69,610706,DepthScenes,duration_manipulation_targetAtFixation,jsons/v1_VE1000_randls_49_rotated.json,http://54.235.29.9/FacialAge/BNav_EC2/DepthDuration/v2_depth_duration_MTurk/v2_DepthDuration_HTML.html#369,369,1364,625,1364,768,8-29-2022,15-27-19,70,depth_duration_stimuli/000773_2014-06-08_22-24-54_260595134347_rgbf000093-resize_1/000773_2014-06-08_22-24-54_260595134347_rgbf000093-resize_1-target.png,1000,4.973,4,3577,999,meters,jsons/v1_VE1000_randls_49_rotated.json,1537300,2011101,52,Man
70,610706,DepthScenes,duration_manipulation_targetAtFixation,jsons/v1_VE1000_randls_49_rotated.json,http://54.235.29.9/FacialAge/BNav_EC2/DepthDuration/v2_depth_duration_MTurk/v2_DepthDuration_HTML.html#369,369,1364,625,1364,768,8-29-2022,15-27-19,71,depth_duration_stimuli/001235_2014-06-17_16-37-36_260595134347_rgbf000084-resize_4/001235_2014-06-17_16-37-36_260595134347_rgbf000084-resize_4-target.png,1000,3.6605,4,14109,1014,meters,jsons/v1_VE1000_randls_49_rotated.json,1537300,2011101,52,Man
71,610706,DepthScenes,duration_manipulation_targetAtFixation,jsons/v1_VE1000_randls_49_rotated.json,http://54.235.29.9/FacialAge/BNav_EC2/DepthDuration/v2_depth_duration_MTurk/v2_DepthDuration_HTML.html#369,369,1364,625,1364,768,8-29-2022,15-27-19,72,depth_duration_stimuli/000788_2014-06-08_22-34-36_260595134347_rgbf000131-resize_1/000788_2014-06-08_22-34-36_260595134347_rgbf000131-resize_1-target.png,1000,3.359,5,6234,998,meters,jsons/v1_VE1000_randls_49_rotated.json,1537300,2011101,52,Man
72,610706,DepthScenes,duration_manipulation_targetAtFixation,jsons/v1_VE1000_randls_49_rotated.json,http://54.235.29.9/FacialAge/BNav_EC2/DepthDuration/v2_depth_duration_MTurk/v2_DepthDuration_HTML.html#369,369,1364,625,1364,768,8-29-2022,15-27-19,73,depth_duration_stimuli/000103_2014-05-14_22-01-17_260595134347_rgbf000152-resize_5/000103_2014-05-14_22-01-17_260595134347_rgbf000152-resize_5-target.png,1000,1.993,5,13407,999,meters,jsons/v1_VE1000_randls_49_rotated.json,1537300,2011101,52,Man
73,610706,DepthScenes,duration_manipulation_targetAtFixation,jsons/v1_VE1000_randls_49_rotated.json,http://54.235.29.9/FacialAge/BNav_EC2/DepthDuration/v2_depth_duration_MTurk/v2_DepthDuration_HTML.html#369,369,1364,625,1364,768,8-29-2022,15-27-19,74,depth_duration_stimuli/001555_2014-06-20_17-12-10_260595134347_rgbf000065-resize_4/001555_2014-06-20_17-12-10_260595134347_rgbf000065-resize_4-target.png,1000,1.633,2,19991,1003,meters,jsons/v1_VE1000_randls_49_rotated.json,1537300,2011101,52,Man
74,610706,DepthScenes,duration_manipulation_targetAtFixation,jsons/v1_VE1000_randls_49_rotated.json,http://54.235.29.9/FacialAge/BNav_EC2/DepthDuration/v2_depth_duration_MTurk/v2_DepthDuration_HTML.html#369,369,1364,625,1364,768,8-29-2022,15-27-19,75,depth_duration_stimuli/000549_2014-06-08_22-10-24_260595134347_rgbf000247-resize_3/000549_2014-06-08_22-10-24_260595134347_rgbf000247-resize_3-target.png,1000,1.841,4,11651,999,meters,jsons/v1_VE1000_randls_49_rotated.json,1537300,2011101,52,Man
75,610706,DepthScenes,duration_manipulation_targetAtFixation,jsons/v1_VE1000_randls_49_rotated.json,http://54.235.29.9/FacialAge/BNav_EC2/DepthDuration/v2_depth_duration_MTurk/v2_DepthDuration_HTML.html#369,369,1364,625,1364,768,8-29-2022,15-27-19,76,depth_duration_stimuli/001055_2014-06-08_18-45-35_260595134347_rgbf000111-resize_4/001055_2014-06-08_18-45-35_260595134347_rgbf000111-resize_4-target.png,1000,2.4290000000000003,5,5251,1000,meters,jsons/v1_VE1000_randls_49_rotated.json,1537300,2011101,52,Man
76,610706,DepthScenes,duration_manipulation_targetAtFixation,jsons/v1_VE1000_randls_49_rotated.json,http://54.235.29.9/FacialAge/BNav_EC2/DepthDuration/v2_depth_duration_MTurk/v2_DepthDuration_HTML.html#369,369,1364,625,1364,768,8-29-2022,15-27-19,77,depth_duration_stimuli/002637_2014-06-24_14-51-13_094959634447_rgbf000066-resize_4/002637_2014-06-24_14-51-13_094959634447_rgbf000066-resize_4-target.png,1000,1.9955,4,6594,999,meters,jsons/v1_VE1000_randls_49_rotated.json,1537300,2011101,52,Man
77,610706,DepthScenes,duration_manipulation_targetAtFixation,jsons/v1_VE1000_randls_49_rotated.json,http://54.235.29.9/FacialAge/BNav_EC2/DepthDuration/v2_depth_duration_MTurk/v2_DepthDuration_HTML.html#369,369,1364,625,1364,768,8-29-2022,15-27-19,78,depth_duration_stimuli/003534_2014-05-22_15-06-10_094959634447_rgbf000102-resize_4/003534_2014-05-22_15-06-10_094959634447_rgbf000102-resize_4-target.png,1000,1.426,5,3829,1000,meters,jsons/v1_VE1000_randls_49_rotated.json,1537300,2011101,52,Man
78,610706,DepthScenes,duration_manipulation_targetAtFixation,jsons/v1_VE1000_randls_49_rotated.json,http://54.235.29.9/FacialAge/BNav_EC2/DepthDuration/v2_depth_duration_MTurk/v2_DepthDuration_HTML.html#369,369,1364,625,1364,768,8-29-2022,15-27-19,79,depth_duration_stimuli/000734_2014-06-08_17-39-11_260595134347_rgbf000128-resize_2/000734_2014-06-08_17-39-11_260595134347_rgbf000128-resize_2-target.png,1000,4.098,2,8297,998,meters,jsons/v1_VE1000_randls_49_rotated.json,1537300,2011101,52,Man
79,610706,DepthScenes,duration_manipulation_targetAtFixation,jsons/v1_VE1000_randls_49_rotated.json,http://54.235.29.9/FacialAge/BNav_EC2/DepthDuration/v2_depth_duration_MTurk/v2_DepthDuration_HTML.html#369,369,1364,625,1364,768,8-29-2022,15-27-19,80,depth_duration_stimuli/000739_2014-06-08_18-45-58_260595134347_rgbf000068-resize_1/000739_2014-06-08_18-45-58_260595134347_rgbf000068-resize_1-target.png,1000,3.534,3,4801,999,meters,jsons/v1_VE1000_randls_49_rotated.json,1537300,2011101,52,Man
80,610706,DepthScenes,duration_manipulation_targetAtFixation,jsons/v1_VE1000_randls_49_rotated.json,http://54.235.29.9/FacialAge/BNav_EC2/DepthDuration/v2_depth_duration_MTurk/v2_DepthDuration_HTML.html#369,369,1364,625,1364,768,8-29-2022,15-27-19,81,depth_duration_stimuli/000943_2014-06-09_19-31-07_260595134347_rgbf000128-resize_1/000943_2014-06-09_19-31-07_260595134347_rgbf000128-resize_1-target.png,1000,1.9765,2,6563,999,meters,jsons/v1_VE1000_randls_49_rotated.json,1537300,2011101,52,Man
81,610706,DepthScenes,duration_manipulation_targetAtFixation,jsons/v1_VE1000_randls_49_rotated.json,http://54.235.29.9/FacialAge/BNav_EC2/DepthDuration/v2_depth_duration_MTurk/v2_DepthDuration_HTML.html#369,369,1364,625,1364,768,8-29-2022,15-27-19,82,depth_duration_stimuli/003070_2014-06-15_14-58-27_094959634447_rgbf000150-resize_3/003070_2014-06-15_14-58-27_094959634447_rgbf000150-resize_3-target.png,1000,2.9415,2,4024,998,meters,jsons/v1_VE1000_randls_49_rotated.json,1537300,2011101,52,Man
82,610706,DepthScenes,duration_manipulation_targetAtFixation,jsons/v1_VE1000_randls_49_rotated.json,http://54.235.29.9/FacialAge/BNav_EC2/DepthDuration/v2_depth_duration_MTurk/v2_DepthDuration_HTML.html#369,369,1364,625,1364,768,8-29-2022,15-27-19,83,depth_duration_stimuli/002805_2014-06-22_19-54-03_094959634447_rgbf000079-resize_1/002805_2014-06-22_19-54-03_094959634447_rgbf000079-resize_1-target.png,1000,3.1439999999999997,2,7084,1002,meters,jsons/v1_VE1000_randls_49_rotated.json,1537300,2011101,52,Man
83,610706,DepthScenes,duration_manipulation_targetAtFixation,jsons/v1_VE1000_randls_49_rotated.json,http://54.235.29.9/FacialAge/BNav_EC2/DepthDuration/v2_depth_duration_MTurk/v2_DepthDuration_HTML.html#369,369,1364,625,1364,768,8-29-2022,15-27-19,84,depth_duration_stimuli/000906_2014-06-08_13-35-43_260595134347_rgbf000155-resize_1/000906_2014-06-08_13-35-43_260595134347_rgbf000155-resize_1-target.png,1000,2.8489999999999998,4,3863,1000,meters,jsons/v1_VE1000_randls_49_rotated.json,1537300,2011101,52,Man
84,610706,DepthScenes,duration_manipulation_targetAtFixation,jsons/v1_VE1000_randls_49_rotated.json,http://54.235.29.9/FacialAge/BNav_EC2/DepthDuration/v2_depth_duration_MTurk/v2_DepthDuration_HTML.html#369,369,1364,625,1364,768,8-29-2022,15-27-19,85,depth_duration_stimuli/002136_2014-06-25_21-18-03_260595134347_rgbf000109-resize_3/002136_2014-06-25_21-18-03_260595134347_rgbf000109-resize_3-target.png,1000,1.9569999999999999,5,6419,1001,meters,jsons/v1_VE1000_randls_49_rotated.json,1537300,2011101,52,Man
85,610706,DepthScenes,duration_manipulation_targetAtFixation,jsons/v1_VE1000_randls_49_rotated.json,http://54.235.29.9/FacialAge/BNav_EC2/DepthDuration/v2_depth_duration_MTurk/v2_DepthDuration_HTML.html#369,369,1364,625,1364,768,8-29-2022,15-27-19,86,depth_duration_stimuli/002964_2014-06-08_17-46-11_094959634447_rgbf000091-resize_4/002964_2014-06-08_17-46-11_094959634447_rgbf000091-resize_4-target.png,1000,1.6909999999999998,4,7154,1015,meters,jsons/v1_VE1000_randls_49_rotated.json,1537300,2011101,52,Man
86,610706,DepthScenes,duration_manipulation_targetAtFixation,jsons/v1_VE1000_randls_49_rotated.json,http://54.235.29.9/FacialAge/BNav_EC2/DepthDuration/v2_depth_duration_MTurk/v2_DepthDuration_HTML.html#369,369,1364,625,1364,768,8-29-2022,15-27-19,87,depth_duration_stimuli/002467_2014-06-28_20-38-07_260595134347_rgbf000026-resize_2/002467_2014-06-28_20-38-07_260595134347_rgbf000026-resize_2-target.png,1000,4.742,5,15704,999,meters,jsons/v1_VE1000_randls_49_rotated.json,1537300,2011101,52,Man
87,610706,DepthScenes,duration_manipulation_targetAtFixation,jsons/v1_VE1000_randls_49_rotated.json,http://54.235.29.9/FacialAge/BNav_EC2/DepthDuration/v2_depth_duration_MTurk/v2_DepthDuration_HTML.html#369,369,1364,625,1364,768,8-29-2022,15-27-19,88,depth_duration_stimuli/002570_2014-06-24_13-59-54_094959634447_rgbf000059-resize_0/002570_2014-06-24_13-59-54_094959634447_rgbf000059-resize_0-target.png,1000,4.037,2,4492,998,meters,jsons/v1_VE1000_randls_49_rotated.json,1537300,2011101,52,Man
88,610706,DepthScenes,duration_manipulation_targetAtFixation,jsons/v1_VE1000_randls_49_rotated.json,http://54.235.29.9/FacialAge/BNav_EC2/DepthDuration/v2_depth_duration_MTurk/v2_DepthDuration_HTML.html#369,369,1364,625,1364,768,8-29-2022,15-27-19,89,depth_duration_stimuli/001136_2014-06-17_15-19-41_260595134347_rgbf000076-resize_3/001136_2014-06-17_15-19-41_260595134347_rgbf000076-resize_3-target.png,1000,1.8655,4,9452,998,meters,jsons/v1_VE1000_randls_49_rotated.json,1537300,2011101,52,Man
89,610706,DepthScenes,duration_manipulation_targetAtFixation,jsons/v1_VE1000_randls_49_rotated.json,http://54.235.29.9/FacialAge/BNav_EC2/DepthDuration/v2_depth_duration_MTurk/v2_DepthDuration_HTML.html#369,369,1364,625,1364,768,8-29-2022,15-27-19,90,depth_duration_stimuli/001164_2014-06-17_15-35-46_260595134347_rgbf000085-resize_3/001164_2014-06-17_15-35-46_260595134347_rgbf000085-resize_3-target.png,1000,2.354,4,10384,999,meters,jsons/v1_VE1000_randls_49_rotated.json,1537300,2011101,52,Man
90,610706,DepthScenes,duration_manipulation_targetAtFixation,jsons/v1_VE1000_randls_49_rotated.json,http://54.235.29.9/FacialAge/BNav_EC2/DepthDuration/v2_depth_duration_MTurk/v2_DepthDuration_HTML.html#369,369,1364,625,1364,768,8-29-2022,15-27-19,91,depth_duration_stimuli/003129_2014-05-12_10-48-10_094959634447_rgbf000100-resize_0/003129_2014-05-12_10-48-10_094959634447_rgbf000100-resize_0-target.png,1000,4.9305,3,8833,1004,meters,jsons/v1_VE1000_randls_49_rotated.json,1537300,2011101,52,Man
91,610706,DepthScenes,duration_manipulation_targetAtFixation,jsons/v1_VE1000_randls_49_rotated.json,http://54.235.29.9/FacialAge/BNav_EC2/DepthDuration/v2_depth_duration_MTurk/v2_DepthDuration_HTML.html#369,369,1364,625,1364,768,8-29-2022,15-27-19,92,depth_duration_stimuli/000414_2014-06-04_19-49-13_260595134347_rgbf000044-resize_0/000414_2014-06-04_19-49-13_260595134347_rgbf000044-resize_0-target.png,1000,4.329,4,7752,998,meters,jsons/v1_VE1000_randls_49_rotated.json,1537300,2011101,52,Man
92,610706,DepthScenes,duration_manipulation_targetAtFixation,jsons/v1_VE1000_randls_49_rotated.json,http://54.235.29.9/FacialAge/BNav_EC2/DepthDuration/v2_depth_duration_MTurk/v2_DepthDuration_HTML.html#369,369,1364,625,1364,768,8-29-2022,15-27-19,93,depth_duration_stimuli/002103_2014-06-25_20-00-40_260595134347_rgbf000049-resize_0/002103_2014-06-25_20-00-40_260595134347_rgbf000049-resize_0-target.png,1000,4.105,2,6956,998,meters,jsons/v1_VE1000_randls_49_rotated.json,1537300,2011101,52,Man
93,610706,DepthScenes,duration_manipulation_targetAtFixation,jsons/v1_VE1000_randls_49_rotated.json,http://54.235.29.9/FacialAge/BNav_EC2/DepthDuration/v2_depth_duration_MTurk/v2_DepthDuration_HTML.html#369,369,1364,625,1364,768,8-29-2022,15-27-19,94,depth_duration_stimuli/002039_2014-06-24_20-22-38_260595134347_rgbf000084-resize_1/002039_2014-06-24_20-22-38_260595134347_rgbf000084-resize_1-target.png,1000,4.408,2,3484,999,meters,jsons/v1_VE1000_randls_49_rotated.json,1537300,2011101,52,Man
94,610706,DepthScenes,duration_manipulation_targetAtFixation,jsons/v1_VE1000_randls_49_rotated.json,http://54.235.29.9/FacialAge/BNav_EC2/DepthDuration/v2_depth_duration_MTurk/v2_DepthDuration_HTML.html#369,369,1364,625,1364,768,8-29-2022,15-27-19,95,depth_duration_stimuli/001132_2014-06-17_14-48-54_260595134347_rgbf000100-resize_2/001132_2014-06-17_14-48-54_260595134347_rgbf000100-resize_2-target.png,1000,3.753,4,44202,1014,meters,jsons/v1_VE1000_randls_49_rotated.json,1537300,2011101,52,Man
95,610706,DepthScenes,duration_manipulation_targetAtFixation,jsons/v1_VE1000_randls_49_rotated.json,http://54.235.29.9/FacialAge/BNav_EC2/DepthDuration/v2_depth_duration_MTurk/v2_DepthDuration_HTML.html#369,369,1364,625,1364,768,8-29-2022,15-27-19,96,depth_duration_stimuli/001133_2014-06-17_14-49-16_260595134347_rgbf000100-resize_0/001133_2014-06-17_14-49-16_260595134347_rgbf000100-resize_0-target.png,1000,4.2115,2,6610,998,meters,jsons/v1_VE1000_randls_49_rotated.json,1537300,2011101,52,Man
96,610706,DepthScenes,duration_manipulation_targetAtFixation,jsons/v1_VE1000_randls_49_rotated.json,http://54.235.29.9/FacialAge/BNav_EC2/DepthDuration/v2_depth_duration_MTurk/v2_DepthDuration_HTML.html#369,369,1364,625,1364,768,8-29-2022,15-27-19,97,depth_duration_stimuli/002657_2014-06-13_15-29-54_094959634447_rgbf000150-resize_1/002657_2014-06-13_15-29-54_094959634447_rgbf000150-resize_1-target.png,1000,4.919,23,8917,998,meters,jsons/v1_VE1000_randls_49_rotated.json,1537300,2011101,52,Man
97,610706,DepthScenes,duration_manipulation_targetAtFixation,jsons/v1_VE1000_randls_49_rotated.json,http://54.235.29.9/FacialAge/BNav_EC2/DepthDuration/v2_depth_duration_MTurk/v2_DepthDuration_HTML.html#369,369,1364,625,1364,768,8-29-2022,15-27-19,98,depth_duration_stimuli/002375_2014-06-28_20-13-44_260595134347_rgbf000032-resize_1/002375_2014-06-28_20-13-44_260595134347_rgbf000032-resize_1-target.png,1000,4.0175,2,8266,998,meters,jsons/v1_VE1000_randls_49_rotated.json,1537300,2011101,52,Man
98,610706,DepthScenes,duration_manipulation_targetAtFixation,jsons/v1_VE1000_randls_49_rotated.json,http://54.235.29.9/FacialAge/BNav_EC2/DepthDuration/v2_depth_duration_MTurk/v2_DepthDuration_HTML.html#369,369,1364,625,1364,768,8-29-2022,15-27-19,99,depth_duration_stimuli/001222_2014-06-17_16-24-06_260595134347_rgbf000073-resize_0/001222_2014-06-17_16-24-06_260595134347_rgbf000073-resize-original.jpg,1000,1.4385,4,8953,998,meters,jsons/v1_VE1000_randls_49_rotated.json,1537300,2011101,52,Man
99,610706,DepthScenes,duration_manipulation_targetAtFixation,jsons/v1_VE1000_randls_49_rotated.json,http://54.235.29.9/FacialAge/BNav_EC2/DepthDuration/v2_depth_duration_MTurk/v2_DepthDuration_HTML.html#369,369,1364,625,1364,768,8-29-2022,15-27-19,100,depth_duration_stimuli/000749_2014-06-08_21-55-06_260595134347_rgbf000070-resize_2/000749_2014-06-08_21-55-06_260595134347_rgbf000070-resize_2-target.png,1000,2.331,4,17782,998,meters,jsons/v1_VE1000_randls_49_rotated.json,1537300,2011101,52,Man
100,610706,DepthScenes,duration_manipulation_targetAtFixation,jsons/v1_VE1000_randls_49_rotated.json,http://54.235.29.9/FacialAge/BNav_EC2/DepthDuration/v2_depth_duration_MTurk/v2_DepthDuration_HTML.html#369,369,1364,625,1364,768,8-29-2022,15-27-19,101,depth_duration_stimuli/002788_2014-06-22_19-36-03_094959634447_rgbf000088-resize_2/002788_2014-06-22_19-36-03_094959634447_rgbf000088-resize_2-target.png,1000,1.6465,4,10143,1030,meters,jsons/v1_VE1000_randls_49_rotated.json,1537300,2011101,52,Man
101,610706,DepthScenes,duration_manipulation_targetAtFixation,jsons/v1_VE1000_randls_49_rotated.json,http://54.235.29.9/FacialAge/BNav_EC2/DepthDuration/v2_depth_duration_MTurk/v2_DepthDuration_HTML.html#369,369,1364,625,1364,768,8-29-2022,15-27-19,102,depth_duration_stimuli/003083_2014-06-15_15-21-03_094959634447_rgbf000063-resize_1/003083_2014-06-15_15-21-03_094959634447_rgbf000063-resize_1-target.png,1000,4.1405,2,10219,996,meters,jsons/v1_VE1000_randls_49_rotated.json,1537300,2011101,52,Man
102,610706,DepthScenes,duration_manipulation_targetAtFixation,jsons/v1_VE1000_randls_49_rotated.json,http://54.235.29.9/FacialAge/BNav_EC2/DepthDuration/v2_depth_duration_MTurk/v2_DepthDuration_HTML.html#369,369,1364,625,1364,768,8-29-2022,15-27-19,103,depth_duration_stimuli/000486_2014-06-09_20-47-20_260595134347_rgbf000143-resize_2/000486_2014-06-09_20-47-20_260595134347_rgbf000143-resize_2-target.png,1000,4.8325,4,7078,990,meters,jsons/v1_VE1000_randls_49_rotated.json,1537300,2011101,52,Man
103,610706,DepthScenes,duration_manipulation_targetAtFixation,jsons/v1_VE1000_randls_49_rotated.json,http://54.235.29.9/FacialAge/BNav_EC2/DepthDuration/v2_depth_duration_MTurk/v2_DepthDuration_HTML.html#369,369,1364,625,1364,768,8-29-2022,15-27-19,104,depth_duration_stimuli/000866_2014-06-09_20-45-42_260595134347_rgbf000139-resize_1/000866_2014-06-09_20-45-42_260595134347_rgbf000139-resize_1-target.png,1000,3.2155,4,10890,977,meters,jsons/v1_VE1000_randls_49_rotated.json,1537300,2011101,52,Man
104,610706,DepthScenes,duration_manipulation_targetAtFixation,jsons/v1_VE1000_randls_49_rotated.json,http://54.235.29.9/FacialAge/BNav_EC2/DepthDuration/v2_depth_duration_MTurk/v2_DepthDuration_HTML.html#369,369,1364,625,1364,768,8-29-2022,15-27-19,105,depth_duration_stimuli/002989_2014-06-15_12-25-03_094959634447_rgbf000150-resize_3/002989_2014-06-15_12-25-03_094959634447_rgbf000150-resize_3-target.png,1000,4.1975,4,9579,999,meters,jsons/v1_VE1000_randls_49_rotated.json,1537300,2011101,52,Man
105,610706,DepthScenes,duration_manipulation_targetAtFixation,jsons/v1_VE1000_randls_49_rotated.json,http://54.235.29.9/FacialAge/BNav_EC2/DepthDuration/v2_depth_duration_MTurk/v2_DepthDuration_HTML.html#369,369,1364,625,1364,768,8-29-2022,15-27-19,106,depth_duration_stimuli/003048_2014-06-15_13-49-43_094959634447_rgbf000150-resize_1/003048_2014-06-15_13-49-43_094959634447_rgbf000150-resize_1-target.png,1000,4.0035,43,20916,999,meters,jsons/v1_VE1000_randls_49_rotated.json,1537300,2011101,52,Man
106,610706,DepthScenes,duration_manipulation_targetAtFixation,jsons/v1_VE1000_randls_49_rotated.json,http://54.235.29.9/FacialAge/BNav_EC2/DepthDuration/v2_depth_duration_MTurk/v2_DepthDuration_HTML.html#369,369,1364,625,1364,768,8-29-2022,15-27-19,107,depth_duration_stimuli/002043_2014-06-24_20-29-38_260595134347_rgbf000039-resize_4/002043_2014-06-24_20-29-38_260595134347_rgbf000039-resize_4-target.png,1000,2.8435,2,7703,999,meters,jsons/v1_VE1000_randls_49_rotated.json,1537300,2011101,52,Man
107,610706,DepthScenes,duration_manipulation_targetAtFixation,jsons/v1_VE1000_randls_49_rotated.json,http://54.235.29.9/FacialAge/BNav_EC2/DepthDuration/v2_depth_duration_MTurk/v2_DepthDuration_HTML.html#369,369,1364,625,1364,768,8-29-2022,15-27-19,108,depth_duration_stimuli/000556_2014-06-09_22-42-56_260595134347_rgbf000214-resize_1/000556_2014-06-09_22-42-56_260595134347_rgbf000214-resize_1-target.png,1000,4.8415,4,13737,1000,meters,jsons/v1_VE1000_randls_49_rotated.json,1537300,2011101,52,Man
108,610706,DepthScenes,duration_manipulation_targetAtFixation,jsons/v1_VE1000_randls_49_rotated.json,http://54.235.29.9/FacialAge/BNav_EC2/DepthDuration/v2_depth_duration_MTurk/v2_DepthDuration_HTML.html#369,369,1364,625,1364,768,8-29-2022,15-27-19,109,depth_duration_stimuli/001158_2014-06-17_15-32-16_260595134347_rgbf000138-resize_2/001158_2014-06-17_15-32-16_260595134347_rgbf000138-resize_2-target.png,1000,4.5315,2,4453,1000,meters,jsons/v1_VE1000_randls_49_rotated.json,1537300,2011101,52,Man
109,610706,DepthScenes,duration_manipulation_targetAtFixation,jsons/v1_VE1000_randls_49_rotated.json,http://54.235.29.9/FacialAge/BNav_EC2/DepthDuration/v2_depth_duration_MTurk/v2_DepthDuration_HTML.html#369,369,1364,625,1364,768,8-29-2022,15-27-19,110,depth_duration_stimuli/001828_2014-06-26_21-40-03_260595134347_rgbf000024-resize_0/001828_2014-06-26_21-40-03_260595134347_rgbf000024-resize_0-target.png,1000,4.8260000000000005,4,12979,999,meters,jsons/v1_VE1000_randls_49_rotated.json,1537300,2011101,52,Man
110,610706,DepthScenes,duration_manipulation_targetAtFixation,jsons/v1_VE1000_randls_49_rotated.json,http://54.235.29.9/FacialAge/BNav_EC2/DepthDuration/v2_depth_duration_MTurk/v2_DepthDuration_HTML.html#369,369,1364,625,1364,768,8-29-2022,15-27-19,111,depth_duration_stimuli/000009_2014-05-26_14-32-05_260595134347_rgbf000034-resize_3/000009_2014-05-26_14-32-05_260595134347_rgbf000034-resize_3-target.png,1000,3.8715,4,5517,1000,meters,jsons/v1_VE1000_randls_49_rotated.json,1537300,2011101,52,Man
111,610706,DepthScenes,duration_manipulation_targetAtFixation,jsons/v1_VE1000_randls_49_rotated.json,http://54.235.29.9/FacialAge/BNav_EC2/DepthDuration/v2_depth_duration_MTurk/v2_DepthDuration_HTML.html#369,369,1364,625,1364,768,8-29-2022,15-27-19,112,depth_duration_stimuli/003079_2014-06-15_15-18-20_094959634447_rgbf000152-resize_8/003079_2014-06-15_15-18-20_094959634447_rgbf000152-resize_8-target.png,1000,2.8775,2,8969,999,meters,jsons/v1_VE1000_randls_49_rotated.json,1537300,2011101,52,Man
112,610706,DepthScenes,duration_manipulation_targetAtFixation,jsons/v1_VE1000_randls_49_rotated.json,http://54.235.29.9/FacialAge/BNav_EC2/DepthDuration/v2_depth_duration_MTurk/v2_DepthDuration_HTML.html#369,369,1364,625,1364,768,8-29-2022,15-27-19,113,depth_duration_stimuli/000506_2014-06-08_23-21-00_260595134347_rgbf000070-resize_7/000506_2014-06-08_23-21-00_260595134347_rgbf000070-resize_7-target.png,1000,4.0585,4,6454,998,meters,jsons/v1_VE1000_randls_49_rotated.json,1537300,2011101,52,Man
113,610706,DepthScenes,duration_manipulation_targetAtFixation,jsons/v1_VE1000_randls_49_rotated.json,http://54.235.29.9/FacialAge/BNav_EC2/DepthDuration/v2_depth_duration_MTurk/v2_DepthDuration_HTML.html#369,369,1364,625,1364,768,8-29-2022,15-27-19,114,depth_duration_stimuli/000677_2014-06-08_23-10-32_260595134347_rgbf000158-resize_6/000677_2014-06-08_23-10-32_260595134347_rgbf000158-resize_6-target.png,1000,3.556,4,12984,1000,meters,jsons/v1_VE1000_randls_49_rotated.json,1537300,2011101,52,Man
114,610706,DepthScenes,duration_manipulation_targetAtFixation,jsons/v1_VE1000_randls_49_rotated.json,http://54.235.29.9/FacialAge/BNav_EC2/DepthDuration/v2_depth_duration_MTurk/v2_DepthDuration_HTML.html#369,369,1364,625,1364,768,8-29-2022,15-27-19,115,depth_duration_stimuli/001029_2014-06-08_13-17-57_260595134347_rgbf000065-resize_1/001029_2014-06-08_13-17-57_260595134347_rgbf000065-resize_1-target.png,1000,3.0835,4,6448,999,meters,jsons/v1_VE1000_randls_49_rotated.json,1537300,2011101,52,Man
115,610706,DepthScenes,duration_manipulation_targetAtFixation,jsons/v1_VE1000_randls_49_rotated.json,http://54.235.29.9/FacialAge/BNav_EC2/DepthDuration/v2_depth_duration_MTurk/v2_DepthDuration_HTML.html#369,369,1364,625,1364,768,8-29-2022,15-27-19,116,depth_duration_stimuli/003423_2014-05-21_10-23-26_094959634447_rgbf002665-resize_2/003423_2014-05-21_10-23-26_094959634447_rgbf002665-resize_2-target.png,1000,3.2575,4,16005,999,meters,jsons/v1_VE1000_randls_49_rotated.json,1537300,2011101,52,Man
116,610706,DepthScenes,duration_manipulation_targetAtFixation,jsons/v1_VE1000_randls_49_rotated.json,http://54.235.29.9/FacialAge/BNav_EC2/DepthDuration/v2_depth_duration_MTurk/v2_DepthDuration_HTML.html#369,369,1364,625,1364,768,8-29-2022,15-27-19,117,depth_duration_stimuli/002905_2014-06-03_18-04-43_094959634447_rgbf000151-resize_2/002905_2014-06-03_18-04-43_094959634447_rgbf000151-resize_2-target.png,1000,2.0295,4,20788,1000,meters,jsons/v1_VE1000_randls_49_rotated.json,1537300,2011101,52,Man
117,610706,DepthScenes,duration_manipulation_targetAtFixation,jsons/v1_VE1000_randls_49_rotated.json,http://54.235.29.9/FacialAge/BNav_EC2/DepthDuration/v2_depth_duration_MTurk/v2_DepthDuration_HTML.html#369,369,1364,625,1364,768,8-29-2022,15-27-19,118,depth_duration_stimuli/003587_2014-05-23_16-48-02_094959634447_rgbf002384-resize_2/003587_2014-05-23_16-48-02_094959634447_rgbf002384-resize_2-target.png,1000,1.357,4,15860,998,meters,jsons/v1_VE1000_randls_49_rotated.json,1537300,2011101,52,Man
118,610706,DepthScenes,duration_manipulation_targetAtFixation,jsons/v1_VE1000_randls_49_rotated.json,http://54.235.29.9/FacialAge/BNav_EC2/DepthDuration/v2_depth_duration_MTurk/v2_DepthDuration_HTML.html#369,369,1364,625,1364,768,8-29-2022,15-27-19,119,depth_duration_stimuli/001167_2014-06-17_15-38-07_260595134347_rgbf000108-resize_0/001167_2014-06-17_15-38-07_260595134347_rgbf000108-resize_0-target.png,1000,1.8505,4,8143,996,meters,jsons/v1_VE1000_randls_49_rotated.json,1537300,2011101,52,Man
119,610706,DepthScenes,duration_manipulation_targetAtFixation,jsons/v1_VE1000_randls_49_rotated.json,http://54.235.29.9/FacialAge/BNav_EC2/DepthDuration/v2_depth_duration_MTurk/v2_DepthDuration_HTML.html#369,369,1364,625,1364,768,8-29-2022,15-27-19,120,depth_duration_stimuli/000787_2014-06-08_22-33-53_260595134347_rgbf000175-resize_1/000787_2014-06-08_22-33-53_260595134347_rgbf000175-resize-original.jpg,1000,4.784,2,5999,999,meters,jsons/v1_VE1000_randls_49_rotated.json,1537300,2011101,52,Man
120,610706,DepthScenes,duration_manipulation_targetAtFixation,jsons/v1_VE1000_randls_49_rotated.json,http://54.235.29.9/FacialAge/BNav_EC2/DepthDuration/v2_depth_duration_MTurk/v2_DepthDuration_HTML.html#369,369,1364,625,1364,768,8-29-2022,15-27-19,121,depth_duration_stimuli/001100_2014-06-15_17-46-26_260595134347_rgbf000225-resize_2/001100_2014-06-15_17-46-26_260595134347_rgbf000225-resize_2-target.png,1000,2.24,4,6548,996,meters,jsons/v1_VE1000_randls_49_rotated.json,1537300,2011101,52,Man
121,610706,DepthScenes,duration_manipulation_targetAtFixation,jsons/v1_VE1000_randls_49_rotated.json,http://54.235.29.9/FacialAge/BNav_EC2/DepthDuration/v2_depth_duration_MTurk/v2_DepthDuration_HTML.html#369,369,1364,625,1364,768,8-29-2022,15-27-19,122,depth_duration_stimuli/002784_2014-06-22_19-26-30_094959634447_rgbf000083-resize_3/002784_2014-06-22_19-26-30_094959634447_rgbf000083-resize_3-target.png,1000,1.8046666666667,4,5875,999,meters,jsons/v1_VE1000_randls_49_rotated.json,1537300,2011101,52,Man
122,610706,DepthScenes,duration_manipulation_targetAtFixation,jsons/v1_VE1000_randls_49_rotated.json,http://54.235.29.9/FacialAge/BNav_EC2/DepthDuration/v2_depth_duration_MTurk/v2_DepthDuration_HTML.html#369,369,1364,625,1364,768,8-29-2022,15-27-19,123,depth_duration_stimuli/003338_2014-05-20_11-01-23_094959634447_rgbf000051-resize_6/003338_2014-05-20_11-01-23_094959634447_rgbf000051-resize_6-target.png,1000,1.693,4,12500,1003,meters,jsons/v1_VE1000_randls_49_rotated.json,1537300,2011101,52,Man
123,610706,DepthScenes,duration_manipulation_targetAtFixation,jsons/v1_VE1000_randls_49_rotated.json,http://54.235.29.9/FacialAge/BNav_EC2/DepthDuration/v2_depth_duration_MTurk/v2_DepthDuration_HTML.html#369,369,1364,625,1364,768,8-29-2022,15-27-19,124,depth_duration_stimuli/002509_2014-06-24_13-19-22_094959634447_rgbf000077-resize_0/002509_2014-06-24_13-19-22_094959634447_rgbf000077-resize_0-target.png,1000,1.3065,4,8640,998,meters,jsons/v1_VE1000_randls_49_rotated.json,1537300,2011101,52,Man
124,610706,DepthScenes,duration_manipulation_targetAtFixation,jsons/v1_VE1000_randls_49_rotated.json,http://54.235.29.9/FacialAge/BNav_EC2/DepthDuration/v2_depth_duration_MTurk/v2_DepthDuration_HTML.html#369,369,1364,625,1364,768,8-29-2022,15-27-19,125,depth_duration_stimuli/000502_2014-06-08_23-02-32_260595134347_rgbf000063-resize_4/000502_2014-06-08_23-02-32_260595134347_rgbf000063-resize_4-target.png,1000,2.431,4,8422,999,meters,jsons/v1_VE1000_randls_49_rotated.json,1537300,2011101,52,Man
125,610706,DepthScenes,duration_manipulation_targetAtFixation,jsons/v1_VE1000_randls_49_rotated.json,http://54.235.29.9/FacialAge/BNav_EC2/DepthDuration/v2_depth_duration_MTurk/v2_DepthDuration_HTML.html#369,369,1364,625,1364,768,8-29-2022,15-27-19,126,depth_duration_stimuli/001199_2014-06-17_16-03-48_260595134347_rgbf000077-resize_0/001199_2014-06-17_16-03-48_260595134347_rgbf000077-resize_0-target.png,1000,3.4375,5,5749,998,meters,jsons/v1_VE1000_randls_49_rotated.json,1537300,2011101,52,Man
126,610706,DepthScenes,duration_manipulation_targetAtFixation,jsons/v1_VE1000_randls_49_rotated.json,http://54.235.29.9/FacialAge/BNav_EC2/DepthDuration/v2_depth_duration_MTurk/v2_DepthDuration_HTML.html#369,369,1364,625,1364,768,8-29-2022,15-27-19,127,depth_duration_stimuli/000483_2014-06-09_20-41-45_260595134347_rgbf000116-resize_4/000483_2014-06-09_20-41-45_260595134347_rgbf000116-resize_4-target.png,1000,1.337,4,6120,999,meters,jsons/v1_VE1000_randls_49_rotated.json,1537300,2011101,52,Man
127,610706,DepthScenes,duration_manipulation_targetAtFixation,jsons/v1_VE1000_randls_49_rotated.json,http://54.235.29.9/FacialAge/BNav_EC2/DepthDuration/v2_depth_duration_MTurk/v2_DepthDuration_HTML.html#369,369,1364,625,1364,768,8-29-2022,15-27-19,128,depth_duration_stimuli/000469_2014-06-09_19-42-10_260595134347_rgbf000081-resize_1/000469_2014-06-09_19-42-10_260595134347_rgbf000081-resize_1-target.png,1000,1.652,4,4113,1000,meters,jsons/v1_VE1000_randls_49_rotated.json,1537300,2011101,52,Man
128,610706,DepthScenes,duration_manipulation_targetAtFixation,jsons/v1_VE1000_randls_49_rotated.json,http://54.235.29.9/FacialAge/BNav_EC2/DepthDuration/v2_depth_duration_MTurk/v2_DepthDuration_HTML.html#369,369,1364,625,1364,768,8-29-2022,15-27-19,129,depth_duration_stimuli/003490_2014-05-21_15-50-11_094959634447_rgbf000101-resize_3/003490_2014-05-21_15-50-11_094959634447_rgbf000101-resize_3-target.png,1000,3.6445,5,9610,999,meters,jsons/v1_VE1000_randls_49_rotated.json,1537300,2011101,52,Man
129,610706,DepthScenes,duration_manipulation_targetAtFixation,jsons/v1_VE1000_randls_49_rotated.json,http://54.235.29.9/FacialAge/BNav_EC2/DepthDuration/v2_depth_duration_MTurk/v2_DepthDuration_HTML.html#369,369,1364,625,1364,768,8-29-2022,15-27-19,130,depth_duration_stimuli/001175_2014-06-17_15-45-55_260595134347_rgbf000129-resize_4/001175_2014-06-17_15-45-55_260595134347_rgbf000129-resize_4-target.png,1000,4.255,4,12062,998,meters,jsons/v1_VE1000_randls_49_rotated.json,1537300,2011101,52,Man
130,610706,DepthScenes,duration_manipulation_targetAtFixation,jsons/v1_VE1000_randls_49_rotated.json,http://54.235.29.9/FacialAge/BNav_EC2/DepthDuration/v2_depth_duration_MTurk/v2_DepthDuration_HTML.html#369,369,1364,625,1364,768,8-29-2022,15-27-19,131,depth_duration_stimuli/000109_2014-05-14_23-41-52_260595134347_rgbf000035-resize_9/000109_2014-05-14_23-41-52_260595134347_rgbf000035-resize_9-target.png,1000,1.3545,5,9173,984,meters,jsons/v1_VE1000_randls_49_rotated.json,1537300,2011101,52,Man
131,610706,DepthScenes,duration_manipulation_targetAtFixation,jsons/v1_VE1000_randls_49_rotated.json,http://54.235.29.9/FacialAge/BNav_EC2/DepthDuration/v2_depth_duration_MTurk/v2_DepthDuration_HTML.html#369,369,1364,625,1364,768,8-29-2022,15-27-19,132,depth_duration_stimuli/000470_2014-06-09_19-42-40_260595134347_rgbf000094-resize_1/000470_2014-06-09_19-42-40_260595134347_rgbf000094-resize_1-target.png,1000,1.831,4,12641,999,meters,jsons/v1_VE1000_randls_49_rotated.json,1537300,2011101,52,Man
132,610706,DepthScenes,duration_manipulation_targetAtFixation,jsons/v1_VE1000_randls_49_rotated.json,http://54.235.29.9/FacialAge/BNav_EC2/DepthDuration/v2_depth_duration_MTurk/v2_DepthDuration_HTML.html#369,369,1364,625,1364,768,8-29-2022,15-27-19,133,depth_duration_stimuli/001094_2014-06-15_17-36-00_260595134347_rgbf000205-resize_0/001094_2014-06-15_17-36-00_260595134347_rgbf000205-resize_0-target.png,1000,4.2175,4,7845,1000,meters,jsons/v1_VE1000_randls_49_rotated.json,1537300,2011101,52,Man
133,610706,DepthScenes,duration_manipulation_targetAtFixation,jsons/v1_VE1000_randls_49_rotated.json,http://54.235.29.9/FacialAge/BNav_EC2/DepthDuration/v2_depth_duration_MTurk/v2_DepthDuration_HTML.html#369,369,1364,625,1364,768,8-29-2022,15-27-19,134,depth_duration_stimuli/000692_2014-06-08_13-09-42_260595134347_rgbf000199-resize_2/000692_2014-06-08_13-09-42_260595134347_rgbf000199-resize_2-target.png,1000,3.661,5,3968,999,meters,jsons/v1_VE1000_randls_49_rotated.json,1537300,2011101,52,Man
134,610706,DepthScenes,duration_manipulation_targetAtFixation,jsons/v1_VE1000_randls_49_rotated.json,http://54.235.29.9/FacialAge/BNav_EC2/DepthDuration/v2_depth_duration_MTurk/v2_DepthDuration_HTML.html#369,369,1364,625,1364,768,8-29-2022,15-27-19,135,depth_duration_stimuli/000375_2014-06-08_11-17-29_260595134347_rgbf000133-resize_2/000375_2014-06-08_11-17-29_260595134347_rgbf000133-resize-original.jpg,1000,4.718,0,10343,999,meters,jsons/v1_VE1000_randls_49_rotated.json,1537300,2011101,52,Man
135,610706,DepthScenes,duration_manipulation_targetAtFixation,jsons/v1_VE1000_randls_49_rotated.json,http://54.235.29.9/FacialAge/BNav_EC2/DepthDuration/v2_depth_duration_MTurk/v2_DepthDuration_HTML.html#369,369,1364,625,1364,768,8-29-2022,15-27-19,136,depth_duration_stimuli/001214_2014-06-17_16-13-55_260595134347_rgbf000111-resize_0/001214_2014-06-17_16-13-55_260595134347_rgbf000111-resize_0-target.png,1000,2.6505,4,9375,1014,meters,jsons/v1_VE1000_randls_49_rotated.json,1537300,2011101,52,Man
136,610706,DepthScenes,duration_manipulation_targetAtFixation,jsons/v1_VE1000_randls_49_rotated.json,http://54.235.29.9/FacialAge/BNav_EC2/DepthDuration/v2_depth_duration_MTurk/v2_DepthDuration_HTML.html#369,369,1364,625,1364,768,8-29-2022,15-27-19,137,depth_duration_stimuli/000810_2014-06-08_17-20-01_260595134347_rgbf000105-resize_0/000810_2014-06-08_17-20-01_260595134347_rgbf000105-resize_0-target.png,1000,1.4865,5,4031,984,meters,jsons/v1_VE1000_randls_49_rotated.json,1537300,2011101,52,Man
137,610706,DepthScenes,duration_manipulation_targetAtFixation,jsons/v1_VE1000_randls_49_rotated.json,http://54.235.29.9/FacialAge/BNav_EC2/DepthDuration/v2_depth_duration_MTurk/v2_DepthDuration_HTML.html#369,369,1364,625,1364,768,8-29-2022,15-27-19,138,depth_duration_stimuli/002209_2014-06-28_18-36-10_260595134347_rgbf000051-resize_1/002209_2014-06-28_18-36-10_260595134347_rgbf000051-resize_1-target.png,1000,2.057,4,5499,997,meters,jsons/v1_VE1000_randls_49_rotated.json,1537300,2011101,52,Man
138,610706,DepthScenes,duration_manipulation_targetAtFixation,jsons/v1_VE1000_randls_49_rotated.json,http://54.235.29.9/FacialAge/BNav_EC2/DepthDuration/v2_depth_duration_MTurk/v2_DepthDuration_HTML.html#369,369,1364,625,1364,768,8-29-2022,15-27-19,139,depth_duration_stimuli/002763_2014-06-22_19-13-10_094959634447_rgbf000075-resize_4/002763_2014-06-22_19-13-10_094959634447_rgbf000075-resize_4-target.png,1000,1.68375,4,4199,995,meters,jsons/v1_VE1000_randls_49_rotated.json,1537300,2011101,52,Man
139,610706,DepthScenes,duration_manipulation_targetAtFixation,jsons/v1_VE1000_randls_49_rotated.json,http://54.235.29.9/FacialAge/BNav_EC2/DepthDuration/v2_depth_duration_MTurk/v2_DepthDuration_HTML.html#369,369,1364,625,1364,768,8-29-2022,15-27-19,140,depth_duration_stimuli/000927_2014-06-09_16-32-30_260595134347_rgbf000123-resize_3/000927_2014-06-09_16-32-30_260595134347_rgbf000123-resize_3-target.png,1000,2.6785,2,4703,998,meters,jsons/v1_VE1000_randls_49_rotated.json,1537300,2011101,52,Man
140,610706,DepthScenes,duration_manipulation_targetAtFixation,jsons/v1_VE1000_randls_49_rotated.json,http://54.235.29.9/FacialAge/BNav_EC2/DepthDuration/v2_depth_duration_MTurk/v2_DepthDuration_HTML.html#369,369,1364,625,1364,768,8-29-2022,15-27-19,141,depth_duration_stimuli/001110_2014-06-15_17-25-28_260595134347_rgbf000150-resize_1/001110_2014-06-15_17-25-28_260595134347_rgbf000150-resize_1-target.png,1000,1.7115,0,3563,1000,meters,jsons/v1_VE1000_randls_49_rotated.json,1537300,2011101,52,Man
141,610706,DepthScenes,duration_manipulation_targetAtFixation,jsons/v1_VE1000_randls_49_rotated.json,http://54.235.29.9/FacialAge/BNav_EC2/DepthDuration/v2_depth_duration_MTurk/v2_DepthDuration_HTML.html#369,369,1364,625,1364,768,8-29-2022,15-27-19,142,depth_duration_stimuli/003081_2014-06-15_15-19-16_094959634447_rgbf000150-resize_1/003081_2014-06-15_15-19-16_094959634447_rgbf000150-resize_1-target.png,1000,3.9125,5,7610,984,meters,jsons/v1_VE1000_randls_49_rotated.json,1537300,2011101,52,Man
142,610706,DepthScenes,duration_manipulation_targetAtFixation,jsons/v1_VE1000_randls_49_rotated.json,http://54.235.29.9/FacialAge/BNav_EC2/DepthDuration/v2_depth_duration_MTurk/v2_DepthDuration_HTML.html#369,369,1364,625,1364,768,8-29-2022,15-27-19,143,depth_duration_stimuli/001417_2014-06-19_16-25-36_260595134347_rgbf000115-resize_5/001417_2014-06-19_16-25-36_260595134347_rgbf000115-resize_5-target.png,1000,4.6255,4,5189,999,meters,jsons/v1_VE1000_randls_49_rotated.json,1537300,2011101,52,Man
143,610706,DepthScenes,duration_manipulation_targetAtFixation,jsons/v1_VE1000_randls_49_rotated.json,http://54.235.29.9/FacialAge/BNav_EC2/DepthDuration/v2_depth_duration_MTurk/v2_DepthDuration_HTML.html#369,369,1364,625,1364,768,8-29-2022,15-27-19,144,depth_duration_stimuli/003010_2014-06-15_12-54-35_094959634447_rgbf000112-resize_0/003010_2014-06-15_12-54-35_094959634447_rgbf000112-resize_0-target.png,1000,3.1185,4,19438,998,meters,jsons/v1_VE1000_randls_49_rotated.json,1537300,2011101,52,Man
144,610706,DepthScenes,duration_manipulation_targetAtFixation,jsons/v1_VE1000_randls_49_rotated.json,http://54.235.29.9/FacialAge/BNav_EC2/DepthDuration/v2_depth_duration_MTurk/v2_DepthDuration_HTML.html#369,369,1364,625,1364,768,8-29-2022,15-27-19,145,depth_duration_stimuli/001810_2014-06-26_20-51-35_260595134347_rgbf000040-resize_3/001810_2014-06-26_20-51-35_260595134347_rgbf000040-resize_3-target.png,1000,2.2525,4,18002,998,meters,jsons/v1_VE1000_randls_49_rotated.json,1537300,2011101,52,Man
145,610706,DepthScenes,duration_manipulation_targetAtFixation,jsons/v1_VE1000_randls_49_rotated.json,http://54.235.29.9/FacialAge/BNav_EC2/DepthDuration/v2_depth_duration_MTurk/v2_DepthDuration_HTML.html#369,369,1364,625,1364,768,8-29-2022,15-27-19,146,depth_duration_stimuli/001617_2014-06-20_11-35-32_260595134347_rgbf000066-resize_1/001617_2014-06-20_11-35-32_260595134347_rgbf000066-resize_1-target.png,1000,3.7910000000000004,4,25306,999,meters,jsons/v1_VE1000_randls_49_rotated.json,1537300,2011101,52,Man
146,610706,DepthScenes,duration_manipulation_targetAtFixation,jsons/v1_VE1000_randls_49_rotated.json,http://54.235.29.9/FacialAge/BNav_EC2/DepthDuration/v2_depth_duration_MTurk/v2_DepthDuration_HTML.html#369,369,1364,625,1364,768,8-29-2022,15-27-19,147,depth_duration_stimuli/001806_2014-06-26_20-50-20_260595134347_rgbf000091-resize_1/001806_2014-06-26_20-50-20_260595134347_rgbf000091-resize_1-target.png,1000,2.7305,4,8766,998,meters,jsons/v1_VE1000_randls_49_rotated.json,1537300,2011101,52,Man
147,610706,DepthScenes,duration_manipulation_targetAtFixation,jsons/v1_VE1000_randls_49_rotated.json,http://54.235.29.9/FacialAge/BNav_EC2/DepthDuration/v2_depth_duration_MTurk/v2_DepthDuration_HTML.html#369,369,1364,625,1364,768,8-29-2022,15-27-19,148,depth_duration_stimuli/001650_2014-06-20_12-09-00_260595134347_rgbf000087-resize_3/001650_2014-06-20_12-09-00_260595134347_rgbf000087-resize_3-target.png,1000,1.9505,5,12275,999,meters,jsons/v1_VE1000_randls_49_rotated.json,1537300,2011101,52,Man
148,610706,DepthScenes,duration_manipulation_targetAtFixation,jsons/v1_VE1000_randls_49_rotated.json,http://54.235.29.9/FacialAge/BNav_EC2/DepthDuration/v2_depth_duration_MTurk/v2_DepthDuration_HTML.html#369,369,1364,625,1364,768,8-29-2022,15-27-19,149,depth_duration_stimuli/000682_2014-06-08_23-14-58_260595134347_rgbf000041-resize_5/000682_2014-06-08_23-14-58_260595134347_rgbf000041-resize_5-target.png,1000,2.7239999999999998,4,5318,999,meters,jsons/v1_VE1000_randls_49_rotated.json,1537300,2011101,52,Man
149,610706,DepthScenes,duration_manipulation_targetAtFixation,jsons/v1_VE1000_randls_49_rotated.json,http://54.235.29.9/FacialAge/BNav_EC2/DepthDuration/v2_depth_duration_MTurk/v2_DepthDuration_HTML.html#369,369,1364,625,1364,768,8-29-2022,15-27-19,150,depth_duration_stimuli/002344_2014-06-28_20-06-29_260595134347_rgbf000030-resize_1/002344_2014-06-28_20-06-29_260595134347_rgbf000030-resize_1-target.png,1000,1.5795,4,7336,1007,meters,jsons/v1_VE1000_randls_49_rotated.json,1537300,2011101,52,Man
150,610706,DepthScenes,duration_manipulation_targetAtFixation,jsons/v1_VE1000_randls_49_rotated.json,http://54.235.29.9/FacialAge/BNav_EC2/DepthDuration/v2_depth_duration_MTurk/v2_DepthDuration_HTML.html#369,369,1364,625,1364,768,8-29-2022,15-27-19,151,depth_duration_stimuli/002725_2014-06-22_11-47-51_094959634447_rgbf000070-resize_1/002725_2014-06-22_11-47-51_094959634447_rgbf000070-resize_1-target.png,1000,2.195,5,7516,998,meters,jsons/v1_VE1000_randls_49_rotated.json,1537300,2011101,52,Man
151,610706,DepthScenes,duration_manipulation_targetAtFixation,jsons/v1_VE1000_randls_49_rotated.json,http://54.235.29.9/FacialAge/BNav_EC2/DepthDuration/v2_depth_duration_MTurk/v2_DepthDuration_HTML.html#369,369,1364,625,1364,768,8-29-2022,15-27-19,152,depth_duration_stimuli/000569_2014-06-09_22-51-47_260595134347_rgbf000141-resize_3/000569_2014-06-09_22-51-47_260595134347_rgbf000141-resize-original.jpg,1000,4.512,0,14195,1000,meters,jsons/v1_VE1000_randls_49_rotated.json,1537300,2011101,52,Man
152,610706,DepthScenes,duration_manipulation_targetAtFixation,jsons/v1_VE1000_randls_49_rotated.json,http://54.235.29.9/FacialAge/BNav_EC2/DepthDuration/v2_depth_duration_MTurk/v2_DepthDuration_HTML.html#369,369,1364,625,1364,768,8-29-2022,15-27-19,153,depth_duration_stimuli/001447_2014-06-19_17-00-32_260595134347_rgbf000082-resize_5/001447_2014-06-19_17-00-32_260595134347_rgbf000082-resize_5-target.png,1000,4.13775,4,15818,998,meters,jsons/v1_VE1000_randls_49_rotated.json,1537300,2011101,52,Man
153,610706,DepthScenes,duration_manipulation_targetAtFixation,jsons/v1_VE1000_randls_49_rotated.json,http://54.235.29.9/FacialAge/BNav_EC2/DepthDuration/v2_depth_duration_MTurk/v2_DepthDuration_HTML.html#369,369,1364,625,1364,768,8-29-2022,15-27-19,154,depth_duration_stimuli/000447_2014-06-08_16-15-46_260595134347_rgbf000130-resize_1/000447_2014-06-08_16-15-46_260595134347_rgbf000130-resize_1-target.png,1000,4.479,4,5921,1000,meters,jsons/v1_VE1000_randls_49_rotated.json,1537300,2011101,52,Man
154,610706,DepthScenes,duration_manipulation_targetAtFixation,jsons/v1_VE1000_randls_49_rotated.json,http://54.235.29.9/FacialAge/BNav_EC2/DepthDuration/v2_depth_duration_MTurk/v2_DepthDuration_HTML.html#369,369,1364,625,1364,768,8-29-2022,15-27-19,155,depth_duration_stimuli/002678_2014-06-13_16-15-32_094959634447_rgbf000151-resize_6/002678_2014-06-13_16-15-32_094959634447_rgbf000151-resize_6-target.png,1000,2.1830000000000003,5,11282,990,meters,jsons/v1_VE1000_randls_49_rotated.json,1537300,2011101,52,Man
155,610706,DepthScenes,duration_manipulation_targetAtFixation,jsons/v1_VE1000_randls_49_rotated.json,http://54.235.29.9/FacialAge/BNav_EC2/DepthDuration/v2_depth_duration_MTurk/v2_DepthDuration_HTML.html#369,369,1364,625,1364,768,8-29-2022,15-27-19,156,depth_duration_stimuli/000368_2014-06-09_15-53-01_260595134347_rgbf000155-resize_2/000368_2014-06-09_15-53-01_260595134347_rgbf000155-resize_2-target.png,1000,2.4859999999999998,4,5609,999,meters,jsons/v1_VE1000_randls_49_rotated.json,1537300,2011101,52,Man
156,610706,DepthScenes,duration_manipulation_targetAtFixation,jsons/v1_VE1000_randls_49_rotated.json,http://54.235.29.9/FacialAge/BNav_EC2/DepthDuration/v2_depth_duration_MTurk/v2_DepthDuration_HTML.html#369,369,1364,625,1364,768,8-29-2022,15-27-19,157,depth_duration_stimuli/002953_2014-06-08_17-32-18_094959634447_rgbf000059-resize_5/002953_2014-06-08_17-32-18_094959634447_rgbf000059-resize_5-target.png,1000,1.551,5,8220,999,meters,jsons/v1_VE1000_randls_49_rotated.json,1537300,2011101,52,Man
157,610706,DepthScenes,duration_manipulation_targetAtFixation,jsons/v1_VE1000_randls_49_rotated.json,http://54.235.29.9/FacialAge/BNav_EC2/DepthDuration/v2_depth_duration_MTurk/v2_DepthDuration_HTML.html#369,369,1364,625,1364,768,8-29-2022,15-27-19,158,depth_duration_stimuli/000878_2014-06-08_22-52-45_260595134347_rgbf000045-resize_2/000878_2014-06-08_22-52-45_260595134347_rgbf000045-resize_2-target.png,1000,2.092,4,6077,994,meters,jsons/v1_VE1000_randls_49_rotated.json,1537300,2011101,52,Man
158,610706,DepthScenes,duration_manipulation_targetAtFixation,jsons/v1_VE1000_randls_49_rotated.json,http://54.235.29.9/FacialAge/BNav_EC2/DepthDuration/v2_depth_duration_MTurk/v2_DepthDuration_HTML.html#369,369,1364,625,1364,768,8-29-2022,15-27-19,159,depth_duration_stimuli/001815_2014-06-26_20-52-55_260595134347_rgbf000020-resize_0/001815_2014-06-26_20-52-55_260595134347_rgbf000020-resize_0-target.png,1000,3.3865,4,19563,1016,meters,jsons/v1_VE1000_randls_49_rotated.json,1537300,2011101,52,Man
159,610706,DepthScenes,duration_manipulation_targetAtFixation,jsons/v1_VE1000_randls_49_rotated.json,http://54.235.29.9/FacialAge/BNav_EC2/DepthDuration/v2_depth_duration_MTurk/v2_DepthDuration_HTML.html#369,369,1364,625,1364,768,8-29-2022,15-27-19,160,depth_duration_stimuli/001808_2014-06-26_20-50-58_260595134347_rgbf000029-resize_1/001808_2014-06-26_20-50-58_260595134347_rgbf000029-resize_1-target.png,1000,4.249,5,4188,1000,meters,jsons/v1_VE1000_randls_49_rotated.json,1537300,2011101,52,Man
160,610706,DepthScenes,duration_manipulation_targetAtFixation,jsons/v1_VE1000_randls_49_rotated.json,http://54.235.29.9/FacialAge/BNav_EC2/DepthDuration/v2_depth_duration_MTurk/v2_DepthDuration_HTML.html#369,369,1364,625,1364,768,8-29-2022,15-27-19,161,depth_duration_stimuli/002340_2014-06-28_20-05-46_260595134347_rgbf000113-resize_0/002340_2014-06-28_20-05-46_260595134347_rgbf000113-resize_0-target.png,1000,2.4735,4,7907,999,meters,jsons/v1_VE1000_randls_49_rotated.json,1537300,2011101,52,Man
161,610706,DepthScenes,duration_manipulation_targetAtFixation,jsons/v1_VE1000_randls_49_rotated.json,http://54.235.29.9/FacialAge/BNav_EC2/DepthDuration/v2_depth_duration_MTurk/v2_DepthDuration_HTML.html#369,369,1364,625,1364,768,8-29-2022,15-27-19,162,depth_duration_stimuli/001016_2014-06-09_16-16-10_260595134347_rgbf000112-resize_5/001016_2014-06-09_16-16-10_260595134347_rgbf000112-resize_5-target.png,1000,1.6565,4,4974,999,meters,jsons/v1_VE1000_randls_49_rotated.json,1537300,2011101,52,Man
162,610706,DepthScenes,duration_manipulation_targetAtFixation,jsons/v1_VE1000_randls_49_rotated.json,http://54.235.29.9/FacialAge/BNav_EC2/DepthDuration/v2_depth_duration_MTurk/v2_DepthDuration_HTML.html#369,369,1364,625,1364,768,8-29-2022,15-27-19,163,depth_duration_stimuli/002425_2014-06-28_20-27-29_260595134347_rgbf000031-resize_8/002425_2014-06-28_20-27-29_260595134347_rgbf000031-resize_8-target.png,1000,3.8960000000000004,4,15305,999,meters,jsons/v1_VE1000_randls_49_rotated.json,1537300,2011101,52,Man
163,610706,DepthScenes,duration_manipulation_targetAtFixation,jsons/v1_VE1000_randls_49_rotated.json,http://54.235.29.9/FacialAge/BNav_EC2/DepthDuration/v2_depth_duration_MTurk/v2_DepthDuration_HTML.html#369,369,1364,625,1364,768,8-29-2022,15-27-19,164,depth_duration_stimuli/000642_2014-06-08_16-59-25_260595134347_rgbf000098-resize_2/000642_2014-06-08_16-59-25_260595134347_rgbf000098-resize_2-target.png,1000,2.8815,4,24343,998,meters,jsons/v1_VE1000_randls_49_rotated.json,1537300,2011101,52,Man
