,subjID,experimentName,versionName,sequenceName,url,selected_row,windowWidth,windowHeight,screenWidth,screenHeight,startDate,startTime,trial,stimulus,duration,actual_depth,depth_estimate,trial_RT,log_sceneDuration,unitSelection,seq_filepath,experimentTime,totalTime,age,gender
0,612090,DepthScenes,duration_manipulation_targetAtFixation,jsons/VE83_randls_41.json,http://54.235.29.9/FacialAge/BNav_EC2/DepthDuration/v2_depth_duration_MTurk/v2_DepthDuration_HTML.html#5,5,1280,603,1280,720,8-29-2023,12-47-26,1,depth_duration_stimuli/002213_2014-06-28_18-37-58_260595134347_rgbf000055-resize_1/002213_2014-06-28_18-37-58_260595134347_rgbf000055-resize_1-target.png,83,3.62,4,5357,83,meters,jsons/VE83_randls_41.json,1094072,1314108,35,Woman
1,612090,DepthScenes,duration_manipulation_targetAtFixation,jsons/VE83_randls_41.json,http://54.235.29.9/FacialAge/BNav_EC2/DepthDuration/v2_depth_duration_MTurk/v2_DepthDuration_HTML.html#5,5,1280,603,1280,720,8-29-2023,12-47-26,2,depth_duration_stimuli/000691_2014-06-08_13-08-50_260595134347_rgbf000132-resize_3/000691_2014-06-08_13-08-50_260595134347_rgbf000132-resize_3-target.png,83,4.1530000000000005,3,4154,84,meters,jsons/VE83_randls_41.json,1094072,1314108,35,Woman
2,612090,DepthScenes,duration_manipulation_targetAtFixation,jsons/VE83_randls_41.json,http://54.235.29.9/FacialAge/BNav_EC2/DepthDuration/v2_depth_duration_MTurk/v2_DepthDuration_HTML.html#5,5,1280,603,1280,720,8-29-2023,12-47-26,3,depth_duration_stimuli/001055_2014-06-08_18-45-35_260595134347_rgbf000111-resize_4/001055_2014-06-08_18-45-35_260595134347_rgbf000111-resize_4-target.png,83,2.4290000000000003,3,5177,84,meters,jsons/VE83_randls_41.json,1094072,1314108,35,Woman
3,612090,DepthScenes,duration_manipulation_targetAtFixation,jsons/VE83_randls_41.json,http://54.235.29.9/FacialAge/BNav_EC2/DepthDuration/v2_depth_duration_MTurk/v2_DepthDuration_HTML.html#5,5,1280,603,1280,720,8-29-2023,12-47-26,4,depth_duration_stimuli/000549_2014-06-08_22-10-24_260595134347_rgbf000247-resize_3/000549_2014-06-08_22-10-24_260595134347_rgbf000247-resize_3-target.png,83,1.841,2,3707,83,meters,jsons/VE83_randls_41.json,1094072,1314108,35,Woman
4,612090,DepthScenes,duration_manipulation_targetAtFixation,jsons/VE83_randls_41.json,http://54.235.29.9/FacialAge/BNav_EC2/DepthDuration/v2_depth_duration_MTurk/v2_DepthDuration_HTML.html#5,5,1280,603,1280,720,8-29-2023,12-47-26,5,depth_duration_stimuli/002509_2014-06-24_13-19-22_094959634447_rgbf000077-resize_0/002509_2014-06-24_13-19-22_094959634447_rgbf000077-resize_0-target.png,83,1.3065,1,5088,84,meters,jsons/VE83_randls_41.json,1094072,1314108,35,Woman
5,612090,DepthScenes,duration_manipulation_targetAtFixation,jsons/VE83_randls_41.json,http://54.235.29.9/FacialAge/BNav_EC2/DepthDuration/v2_depth_duration_MTurk/v2_DepthDuration_HTML.html#5,5,1280,603,1280,720,8-29-2023,12-47-26,6,depth_duration_stimuli/003338_2014-05-20_11-01-23_094959634447_rgbf000051-resize_6/003338_2014-05-20_11-01-23_094959634447_rgbf000051-resize_6-target.png,83,1.693,0,5553,84,meters,jsons/VE83_randls_41.json,1094072,1314108,35,Woman
6,612090,DepthScenes,duration_manipulation_targetAtFixation,jsons/VE83_randls_41.json,http://54.235.29.9/FacialAge/BNav_EC2/DepthDuration/v2_depth_duration_MTurk/v2_DepthDuration_HTML.html#5,5,1280,603,1280,720,8-29-2023,12-47-26,7,depth_duration_stimuli/001167_2014-06-17_15-38-07_260595134347_rgbf000108-resize_0/001167_2014-06-17_15-38-07_260595134347_rgbf000108-resize_0-target.png,83,1.8505,1,4597,83,meters,jsons/VE83_randls_41.json,1094072,1314108,35,Woman
7,612090,DepthScenes,duration_manipulation_targetAtFixation,jsons/VE83_randls_41.json,http://54.235.29.9/FacialAge/BNav_EC2/DepthDuration/v2_depth_duration_MTurk/v2_DepthDuration_HTML.html#5,5,1280,603,1280,720,8-29-2023,12-47-26,8,depth_duration_stimuli/003587_2014-05-23_16-48-02_094959634447_rgbf002384-resize_2/003587_2014-05-23_16-48-02_094959634447_rgbf002384-resize_2-target.png,83,1.357,2,5357,84,meters,jsons/VE83_randls_41.json,1094072,1314108,35,Woman
8,612090,DepthScenes,duration_manipulation_targetAtFixation,jsons/VE83_randls_41.json,http://54.235.29.9/FacialAge/BNav_EC2/DepthDuration/v2_depth_duration_MTurk/v2_DepthDuration_HTML.html#5,5,1280,603,1280,720,8-29-2023,12-47-26,9,depth_duration_stimuli/002445_2014-06-28_20-32-16_260595134347_rgbf000029-resize_4/002445_2014-06-28_20-32-16_260595134347_rgbf000029-resize_4-target.png,83,2.5315,0,5051,84,meters,jsons/VE83_randls_41.json,1094072,1314108,35,Woman
9,612090,DepthScenes,duration_manipulation_targetAtFixation,jsons/VE83_randls_41.json,http://54.235.29.9/FacialAge/BNav_EC2/DepthDuration/v2_depth_duration_MTurk/v2_DepthDuration_HTML.html#5,5,1280,603,1280,720,8-29-2023,12-47-26,10,depth_duration_stimuli/000780_2014-06-08_22-28-29_260595134347_rgbf000126-resize_1/000780_2014-06-08_22-28-29_260595134347_rgbf000126-resize_1-target.png,83,3.3825,2,3797,84,meters,jsons/VE83_randls_41.json,1094072,1314108,35,Woman
10,612090,DepthScenes,duration_manipulation_targetAtFixation,jsons/VE83_randls_41.json,http://54.235.29.9/FacialAge/BNav_EC2/DepthDuration/v2_depth_duration_MTurk/v2_DepthDuration_HTML.html#5,5,1280,603,1280,720,8-29-2023,12-47-26,11,depth_duration_stimuli/000929_2014-06-09_16-33-19_260595134347_rgbf000139-resize_0/000929_2014-06-09_16-33-19_260595134347_rgbf000139-resize_0-target.png,83,2.8680000000000003,2,5725,84,meters,jsons/VE83_randls_41.json,1094072,1314108,35,Woman
11,612090,DepthScenes,duration_manipulation_targetAtFixation,jsons/VE83_randls_41.json,http://54.235.29.9/FacialAge/BNav_EC2/DepthDuration/v2_depth_duration_MTurk/v2_DepthDuration_HTML.html#5,5,1280,603,1280,720,8-29-2023,12-47-26,12,depth_duration_stimuli/000457_2014-06-08_16-52-43_260595134347_rgbf000199-resize_1/000457_2014-06-08_16-52-43_260595134347_rgbf000199-resize_1-target.png,83,3.6489999999999996,1,4311,84,meters,jsons/VE83_randls_41.json,1094072,1314108,35,Woman
12,612090,DepthScenes,duration_manipulation_targetAtFixation,jsons/VE83_randls_41.json,http://54.235.29.9/FacialAge/BNav_EC2/DepthDuration/v2_depth_duration_MTurk/v2_DepthDuration_HTML.html#5,5,1280,603,1280,720,8-29-2023,12-47-26,13,depth_duration_stimuli/000569_2014-06-09_22-51-47_260595134347_rgbf000141-resize_3/000569_2014-06-09_22-51-47_260595134347_rgbf000141-resize-original.jpg,83,4.512,0,6242,84,meters,jsons/VE83_randls_41.json,1094072,1314108,35,Woman
13,612090,DepthScenes,duration_manipulation_targetAtFixation,jsons/VE83_randls_41.json,http://54.235.29.9/FacialAge/BNav_EC2/DepthDuration/v2_depth_duration_MTurk/v2_DepthDuration_HTML.html#5,5,1280,603,1280,720,8-29-2023,12-47-26,14,depth_duration_stimuli/000447_2014-06-08_16-15-46_260595134347_rgbf000130-resize_1/000447_2014-06-08_16-15-46_260595134347_rgbf000130-resize_1-target.png,83,4.479,3,7384,83,meters,jsons/VE83_randls_41.json,1094072,1314108,35,Woman
14,612090,DepthScenes,duration_manipulation_targetAtFixation,jsons/VE83_randls_41.json,http://54.235.29.9/FacialAge/BNav_EC2/DepthDuration/v2_depth_duration_MTurk/v2_DepthDuration_HTML.html#5,5,1280,603,1280,720,8-29-2023,12-47-26,15,depth_duration_stimuli/001447_2014-06-19_17-00-32_260595134347_rgbf000082-resize_5/001447_2014-06-19_17-00-32_260595134347_rgbf000082-resize_5-target.png,83,4.13775,0,5025,83,meters,jsons/VE83_randls_41.json,1094072,1314108,35,Woman
15,612090,DepthScenes,duration_manipulation_targetAtFixation,jsons/VE83_randls_41.json,http://54.235.29.9/FacialAge/BNav_EC2/DepthDuration/v2_depth_duration_MTurk/v2_DepthDuration_HTML.html#5,5,1280,603,1280,720,8-29-2023,12-47-26,16,depth_duration_stimuli/002375_2014-06-28_20-13-44_260595134347_rgbf000032-resize_1/002375_2014-06-28_20-13-44_260595134347_rgbf000032-resize_1-target.png,83,4.0175,0,12483,83,meters,jsons/VE83_randls_41.json,1094072,1314108,35,Woman
16,612090,DepthScenes,duration_manipulation_targetAtFixation,jsons/VE83_randls_41.json,http://54.235.29.9/FacialAge/BNav_EC2/DepthDuration/v2_depth_duration_MTurk/v2_DepthDuration_HTML.html#5,5,1280,603,1280,720,8-29-2023,12-47-26,17,depth_duration_stimuli/002657_2014-06-13_15-29-54_094959634447_rgbf000150-resize_1/002657_2014-06-13_15-29-54_094959634447_rgbf000150-resize_1-target.png,83,4.919,0,8722,83,meters,jsons/VE83_randls_41.json,1094072,1314108,35,Woman
17,612090,DepthScenes,duration_manipulation_targetAtFixation,jsons/VE83_randls_41.json,http://54.235.29.9/FacialAge/BNav_EC2/DepthDuration/v2_depth_duration_MTurk/v2_DepthDuration_HTML.html#5,5,1280,603,1280,720,8-29-2023,12-47-26,18,depth_duration_stimuli/001016_2014-06-09_16-16-10_260595134347_rgbf000112-resize_5/001016_2014-06-09_16-16-10_260595134347_rgbf000112-resize_5-target.png,83,1.6565,2,6268,83,meters,jsons/VE83_randls_41.json,1094072,1314108,35,Woman
18,612090,DepthScenes,duration_manipulation_targetAtFixation,jsons/VE83_randls_41.json,http://54.235.29.9/FacialAge/BNav_EC2/DepthDuration/v2_depth_duration_MTurk/v2_DepthDuration_HTML.html#5,5,1280,603,1280,720,8-29-2023,12-47-26,19,depth_duration_stimuli/002340_2014-06-28_20-05-46_260595134347_rgbf000113-resize_0/002340_2014-06-28_20-05-46_260595134347_rgbf000113-resize_0-target.png,83,2.4735,2,4253,84,meters,jsons/VE83_randls_41.json,1094072,1314108,35,Woman
19,612090,DepthScenes,duration_manipulation_targetAtFixation,jsons/VE83_randls_41.json,http://54.235.29.9/FacialAge/BNav_EC2/DepthDuration/v2_depth_duration_MTurk/v2_DepthDuration_HTML.html#5,5,1280,603,1280,720,8-29-2023,12-47-26,20,depth_duration_stimuli/002788_2014-06-22_19-36-03_094959634447_rgbf000088-resize_2/002788_2014-06-22_19-36-03_094959634447_rgbf000088-resize_2-target.png,83,1.6465,3,5873,84,meters,jsons/VE83_randls_41.json,1094072,1314108,35,Woman
20,612090,DepthScenes,duration_manipulation_targetAtFixation,jsons/VE83_randls_41.json,http://54.235.29.9/FacialAge/BNav_EC2/DepthDuration/v2_depth_duration_MTurk/v2_DepthDuration_HTML.html#5,5,1280,603,1280,720,8-29-2023,12-47-26,21,depth_duration_stimuli/000749_2014-06-08_21-55-06_260595134347_rgbf000070-resize_2/000749_2014-06-08_21-55-06_260595134347_rgbf000070-resize_2-target.png,83,2.331,2,7962,84,meters,jsons/VE83_randls_41.json,1094072,1314108,35,Woman
21,612090,DepthScenes,duration_manipulation_targetAtFixation,jsons/VE83_randls_41.json,http://54.235.29.9/FacialAge/BNav_EC2/DepthDuration/v2_depth_duration_MTurk/v2_DepthDuration_HTML.html#5,5,1280,603,1280,720,8-29-2023,12-47-26,22,depth_duration_stimuli/000436_2014-06-09_22-25-11_260595134347_rgbf000137-resize_1/000436_2014-06-09_22-25-11_260595134347_rgbf000137-resize_1-target.png,83,4.0705,4,6204,83,meters,jsons/VE83_randls_41.json,1094072,1314108,35,Woman
22,612090,DepthScenes,duration_manipulation_targetAtFixation,jsons/VE83_randls_41.json,http://54.235.29.9/FacialAge/BNav_EC2/DepthDuration/v2_depth_duration_MTurk/v2_DepthDuration_HTML.html#5,5,1280,603,1280,720,8-29-2023,12-47-26,23,depth_duration_stimuli/002444_2014-06-28_20-32-08_260595134347_rgbf000027-resize_0/002444_2014-06-28_20-32-08_260595134347_rgbf000027-resize_0-target.png,83,4.388999999999999,0,7715,83,meters,jsons/VE83_randls_41.json,1094072,1314108,35,Woman
23,612090,DepthScenes,duration_manipulation_targetAtFixation,jsons/VE83_randls_41.json,http://54.235.29.9/FacialAge/BNav_EC2/DepthDuration/v2_depth_duration_MTurk/v2_DepthDuration_HTML.html#5,5,1280,603,1280,720,8-29-2023,12-47-26,24,depth_duration_stimuli/002600_2014-06-24_14-27-04_094959634447_rgbf000074-resize_2/002600_2014-06-24_14-27-04_094959634447_rgbf000074-resize_2-target.png,83,2.7575,4,8231,84,meters,jsons/VE83_randls_41.json,1094072,1314108,35,Woman
24,612090,DepthScenes,duration_manipulation_targetAtFixation,jsons/VE83_randls_41.json,http://54.235.29.9/FacialAge/BNav_EC2/DepthDuration/v2_depth_duration_MTurk/v2_DepthDuration_HTML.html#5,5,1280,603,1280,720,8-29-2023,12-47-26,25,depth_duration_stimuli/003228_2014-05-14_13-42-35_094959634447_rgbf000101-resize_1/003228_2014-05-14_13-42-35_094959634447_rgbf000101-resize_1-target.png,83,1.9680000000000002,3,4682,84,meters,jsons/VE83_randls_41.json,1094072,1314108,35,Woman
25,612090,DepthScenes,duration_manipulation_targetAtFixation,jsons/VE83_randls_41.json,http://54.235.29.9/FacialAge/BNav_EC2/DepthDuration/v2_depth_duration_MTurk/v2_DepthDuration_HTML.html#5,5,1280,603,1280,720,8-29-2023,12-47-26,26,depth_duration_stimuli/001175_2014-06-17_15-45-55_260595134347_rgbf000129-resize_4/001175_2014-06-17_15-45-55_260595134347_rgbf000129-resize_4-target.png,83,4.255,5,10465,83,meters,jsons/VE83_randls_41.json,1094072,1314108,35,Woman
26,612090,DepthScenes,duration_manipulation_targetAtFixation,jsons/VE83_randls_41.json,http://54.235.29.9/FacialAge/BNav_EC2/DepthDuration/v2_depth_duration_MTurk/v2_DepthDuration_HTML.html#5,5,1280,603,1280,720,8-29-2023,12-47-26,27,depth_duration_stimuli/003490_2014-05-21_15-50-11_094959634447_rgbf000101-resize_3/003490_2014-05-21_15-50-11_094959634447_rgbf000101-resize_3-target.png,83,3.6445,4,5000,84,meters,jsons/VE83_randls_41.json,1094072,1314108,35,Woman
27,612090,DepthScenes,duration_manipulation_targetAtFixation,jsons/VE83_randls_41.json,http://54.235.29.9/FacialAge/BNav_EC2/DepthDuration/v2_depth_duration_MTurk/v2_DepthDuration_HTML.html#5,5,1280,603,1280,720,8-29-2023,12-47-26,28,depth_duration_stimuli/001164_2014-06-17_15-35-46_260595134347_rgbf000085-resize_3/001164_2014-06-17_15-35-46_260595134347_rgbf000085-resize_3-target.png,83,2.354,4,6697,83,meters,jsons/VE83_randls_41.json,1094072,1314108,35,Woman
28,612090,DepthScenes,duration_manipulation_targetAtFixation,jsons/VE83_randls_41.json,http://54.235.29.9/FacialAge/BNav_EC2/DepthDuration/v2_depth_duration_MTurk/v2_DepthDuration_HTML.html#5,5,1280,603,1280,720,8-29-2023,12-47-26,29,depth_duration_stimuli/001136_2014-06-17_15-19-41_260595134347_rgbf000076-resize_3/001136_2014-06-17_15-19-41_260595134347_rgbf000076-resize_3-target.png,83,1.8655,0,4242,84,meters,jsons/VE83_randls_41.json,1094072,1314108,35,Woman
29,612090,DepthScenes,duration_manipulation_targetAtFixation,jsons/VE83_randls_41.json,http://54.235.29.9/FacialAge/BNav_EC2/DepthDuration/v2_depth_duration_MTurk/v2_DepthDuration_HTML.html#5,5,1280,603,1280,720,8-29-2023,12-47-26,30,depth_duration_stimuli/000375_2014-06-08_11-17-29_260595134347_rgbf000133-resize_2/000375_2014-06-08_11-17-29_260595134347_rgbf000133-resize-original.jpg,83,4.718,0,4239,84,meters,jsons/VE83_randls_41.json,1094072,1314108,35,Woman
30,612090,DepthScenes,duration_manipulation_targetAtFixation,jsons/VE83_randls_41.json,http://54.235.29.9/FacialAge/BNav_EC2/DepthDuration/v2_depth_duration_MTurk/v2_DepthDuration_HTML.html#5,5,1280,603,1280,720,8-29-2023,12-47-26,31,depth_duration_stimuli/002748_2014-06-22_19-07-22_094959634447_rgbf000078-resize_1/002748_2014-06-22_19-07-22_094959634447_rgbf000078-resize_1-target.png,83,4.6705,5,6168,84,meters,jsons/VE83_randls_41.json,1094072,1314108,35,Woman
31,612090,DepthScenes,duration_manipulation_targetAtFixation,jsons/VE83_randls_41.json,http://54.235.29.9/FacialAge/BNav_EC2/DepthDuration/v2_depth_duration_MTurk/v2_DepthDuration_HTML.html#5,5,1280,603,1280,720,8-29-2023,12-47-26,32,depth_duration_stimuli/002995_2014-06-15_12-31-26_094959634447_rgbf000150-resize_1/002995_2014-06-15_12-31-26_094959634447_rgbf000150-resize_1-target.png,83,3.8360000000000003,0,6364,83,meters,jsons/VE83_randls_41.json,1094072,1314108,35,Woman
32,612090,DepthScenes,duration_manipulation_targetAtFixation,jsons/VE83_randls_41.json,http://54.235.29.9/FacialAge/BNav_EC2/DepthDuration/v2_depth_duration_MTurk/v2_DepthDuration_HTML.html#5,5,1280,603,1280,720,8-29-2023,12-47-26,33,depth_duration_stimuli/000810_2014-06-08_17-20-01_260595134347_rgbf000105-resize_0/000810_2014-06-08_17-20-01_260595134347_rgbf000105-resize_0-target.png,83,1.4865,0,20273,83,meters,jsons/VE83_randls_41.json,1094072,1314108,35,Woman
33,612090,DepthScenes,duration_manipulation_targetAtFixation,jsons/VE83_randls_41.json,http://54.235.29.9/FacialAge/BNav_EC2/DepthDuration/v2_depth_duration_MTurk/v2_DepthDuration_HTML.html#5,5,1280,603,1280,720,8-29-2023,12-47-26,34,depth_duration_stimuli/001214_2014-06-17_16-13-55_260595134347_rgbf000111-resize_0/001214_2014-06-17_16-13-55_260595134347_rgbf000111-resize_0-target.png,83,2.6505,2,4892,83,meters,jsons/VE83_randls_41.json,1094072,1314108,35,Woman
34,612090,DepthScenes,duration_manipulation_targetAtFixation,jsons/VE83_randls_41.json,http://54.235.29.9/FacialAge/BNav_EC2/DepthDuration/v2_depth_duration_MTurk/v2_DepthDuration_HTML.html#5,5,1280,603,1280,720,8-29-2023,12-47-26,35,depth_duration_stimuli/001150_2014-06-17_15-27-34_260595134347_rgbf000108-resize_2/001150_2014-06-17_15-27-34_260595134347_rgbf000108-resize_2-target.png,83,4.0325,3,4681,84,meters,jsons/VE83_randls_41.json,1094072,1314108,35,Woman
35,612090,DepthScenes,duration_manipulation_targetAtFixation,jsons/VE83_randls_41.json,http://54.235.29.9/FacialAge/BNav_EC2/DepthDuration/v2_depth_duration_MTurk/v2_DepthDuration_HTML.html#5,5,1280,603,1280,720,8-29-2023,12-47-26,36,depth_duration_stimuli/000665_2014-06-09_20-42-35_260595134347_rgbf000110-resize_1/000665_2014-06-09_20-42-35_260595134347_rgbf000110-resize_1-target.png,83,3.057,3,3479,84,meters,jsons/VE83_randls_41.json,1094072,1314108,35,Woman
36,612090,DepthScenes,duration_manipulation_targetAtFixation,jsons/VE83_randls_41.json,http://54.235.29.9/FacialAge/BNav_EC2/DepthDuration/v2_depth_duration_MTurk/v2_DepthDuration_HTML.html#5,5,1280,603,1280,720,8-29-2023,12-47-26,37,depth_duration_stimuli/003292_2014-05-14_21-53-49_094959634447_rgbf000100-resize_2/003292_2014-05-14_21-53-49_094959634447_rgbf000100-resize_2-target.png,83,3.4815,4,4869,84,meters,jsons/VE83_randls_41.json,1094072,1314108,35,Woman
37,612090,DepthScenes,duration_manipulation_targetAtFixation,jsons/VE83_randls_41.json,http://54.235.29.9/FacialAge/BNav_EC2/DepthDuration/v2_depth_duration_MTurk/v2_DepthDuration_HTML.html#5,5,1280,603,1280,720,8-29-2023,12-47-26,38,depth_duration_stimuli/002639_2014-06-24_14-51-37_094959634447_rgbf000074-resize_4/002639_2014-06-24_14-51-37_094959634447_rgbf000074-resize_4-target.png,83,4.0375,3,4007,83,meters,jsons/VE83_randls_41.json,1094072,1314108,35,Woman
38,612090,DepthScenes,duration_manipulation_targetAtFixation,jsons/VE83_randls_41.json,http://54.235.29.9/FacialAge/BNav_EC2/DepthDuration/v2_depth_duration_MTurk/v2_DepthDuration_HTML.html#5,5,1280,603,1280,720,8-29-2023,12-47-26,39,depth_duration_stimuli/001555_2014-06-20_17-12-10_260595134347_rgbf000065-resize_4/001555_2014-06-20_17-12-10_260595134347_rgbf000065-resize_4-target.png,83,1.633,1,4740,84,meters,jsons/VE83_randls_41.json,1094072,1314108,35,Woman
39,612090,DepthScenes,duration_manipulation_targetAtFixation,jsons/VE83_randls_41.json,http://54.235.29.9/FacialAge/BNav_EC2/DepthDuration/v2_depth_duration_MTurk/v2_DepthDuration_HTML.html#5,5,1280,603,1280,720,8-29-2023,12-47-26,40,depth_duration_stimuli/000103_2014-05-14_22-01-17_260595134347_rgbf000152-resize_5/000103_2014-05-14_22-01-17_260595134347_rgbf000152-resize_5-target.png,83,1.993,3,4106,84,meters,jsons/VE83_randls_41.json,1094072,1314108,35,Woman
40,612090,DepthScenes,duration_manipulation_targetAtFixation,jsons/VE83_randls_41.json,http://54.235.29.9/FacialAge/BNav_EC2/DepthDuration/v2_depth_duration_MTurk/v2_DepthDuration_HTML.html#5,5,1280,603,1280,720,8-29-2023,12-47-26,41,depth_duration_stimuli/001158_2014-06-17_15-32-16_260595134347_rgbf000138-resize_2/001158_2014-06-17_15-32-16_260595134347_rgbf000138-resize_2-target.png,83,4.5315,5,5050,84,meters,jsons/VE83_randls_41.json,1094072,1314108,35,Woman
41,612090,DepthScenes,duration_manipulation_targetAtFixation,jsons/VE83_randls_41.json,http://54.235.29.9/FacialAge/BNav_EC2/DepthDuration/v2_depth_duration_MTurk/v2_DepthDuration_HTML.html#5,5,1280,603,1280,720,8-29-2023,12-47-26,42,depth_duration_stimuli/000556_2014-06-09_22-42-56_260595134347_rgbf000214-resize_1/000556_2014-06-09_22-42-56_260595134347_rgbf000214-resize_1-target.png,83,4.8415,5,4768,84,meters,jsons/VE83_randls_41.json,1094072,1314108,35,Woman
42,612090,DepthScenes,duration_manipulation_targetAtFixation,jsons/VE83_randls_41.json,http://54.235.29.9/FacialAge/BNav_EC2/DepthDuration/v2_depth_duration_MTurk/v2_DepthDuration_HTML.html#5,5,1280,603,1280,720,8-29-2023,12-47-26,43,depth_duration_stimuli/002905_2014-06-03_18-04-43_094959634447_rgbf000151-resize_2/002905_2014-06-03_18-04-43_094959634447_rgbf000151-resize_2-target.png,83,2.0295,2,5628,84,meters,jsons/VE83_randls_41.json,1094072,1314108,35,Woman
43,612090,DepthScenes,duration_manipulation_targetAtFixation,jsons/VE83_randls_41.json,http://54.235.29.9/FacialAge/BNav_EC2/DepthDuration/v2_depth_duration_MTurk/v2_DepthDuration_HTML.html#5,5,1280,603,1280,720,8-29-2023,12-47-26,44,depth_duration_stimuli/003423_2014-05-21_10-23-26_094959634447_rgbf002665-resize_2/003423_2014-05-21_10-23-26_094959634447_rgbf002665-resize_2-target.png,83,3.2575,3,4477,83,meters,jsons/VE83_randls_41.json,1094072,1314108,35,Woman
44,612090,DepthScenes,duration_manipulation_targetAtFixation,jsons/VE83_randls_41.json,http://54.235.29.9/FacialAge/BNav_EC2/DepthDuration/v2_depth_duration_MTurk/v2_DepthDuration_HTML.html#5,5,1280,603,1280,720,8-29-2023,12-47-26,45,depth_duration_stimuli/000787_2014-06-08_22-33-53_260595134347_rgbf000175-resize_1/000787_2014-06-08_22-33-53_260595134347_rgbf000175-resize-original.jpg,83,4.784,0,5879,84,meters,jsons/VE83_randls_41.json,1094072,1314108,35,Woman
45,612090,DepthScenes,duration_manipulation_targetAtFixation,jsons/VE83_randls_41.json,http://54.235.29.9/FacialAge/BNav_EC2/DepthDuration/v2_depth_duration_MTurk/v2_DepthDuration_HTML.html#5,5,1280,603,1280,720,8-29-2023,12-47-26,46,depth_duration_stimuli/001570_2014-06-20_17-21-09_260595134347_rgbf000135-resize_4/001570_2014-06-20_17-21-09_260595134347_rgbf000135-resize_4-target.png,83,4.467,6,9335,84,meters,jsons/VE83_randls_41.json,1094072,1314108,35,Woman
46,612090,DepthScenes,duration_manipulation_targetAtFixation,jsons/VE83_randls_41.json,http://54.235.29.9/FacialAge/BNav_EC2/DepthDuration/v2_depth_duration_MTurk/v2_DepthDuration_HTML.html#5,5,1280,603,1280,720,8-29-2023,12-47-26,47,depth_duration_stimuli/001392_2014-06-19_16-07-59_260595134347_rgbf000046-resize_1/001392_2014-06-19_16-07-59_260595134347_rgbf000046-resize_1-target.png,83,4.135,4,5222,84,meters,jsons/VE83_randls_41.json,1094072,1314108,35,Woman
47,612090,DepthScenes,duration_manipulation_targetAtFixation,jsons/VE83_randls_41.json,http://54.235.29.9/FacialAge/BNav_EC2/DepthDuration/v2_depth_duration_MTurk/v2_DepthDuration_HTML.html#5,5,1280,603,1280,720,8-29-2023,12-47-26,48,depth_duration_stimuli/001806_2014-06-26_20-50-20_260595134347_rgbf000091-resize_1/001806_2014-06-26_20-50-20_260595134347_rgbf000091-resize_1-target.png,83,2.7305,2,6402,84,meters,jsons/VE83_randls_41.json,1094072,1314108,35,Woman
48,612090,DepthScenes,duration_manipulation_targetAtFixation,jsons/VE83_randls_41.json,http://54.235.29.9/FacialAge/BNav_EC2/DepthDuration/v2_depth_duration_MTurk/v2_DepthDuration_HTML.html#5,5,1280,603,1280,720,8-29-2023,12-47-26,49,depth_duration_stimuli/001617_2014-06-20_11-35-32_260595134347_rgbf000066-resize_1/001617_2014-06-20_11-35-32_260595134347_rgbf000066-resize_1-target.png,83,3.7910000000000004,4,4031,84,meters,jsons/VE83_randls_41.json,1094072,1314108,35,Woman
49,612090,DepthScenes,duration_manipulation_targetAtFixation,jsons/VE83_randls_41.json,http://54.235.29.9/FacialAge/BNav_EC2/DepthDuration/v2_depth_duration_MTurk/v2_DepthDuration_HTML.html#5,5,1280,603,1280,720,8-29-2023,12-47-26,50,depth_duration_stimuli/000470_2014-06-09_19-42-40_260595134347_rgbf000094-resize_1/000470_2014-06-09_19-42-40_260595134347_rgbf000094-resize_1-target.png,83,1.831,2,4916,83,meters,jsons/VE83_randls_41.json,1094072,1314108,35,Woman
50,612090,DepthScenes,duration_manipulation_targetAtFixation,jsons/VE83_randls_41.json,http://54.235.29.9/FacialAge/BNav_EC2/DepthDuration/v2_depth_duration_MTurk/v2_DepthDuration_HTML.html#5,5,1280,603,1280,720,8-29-2023,12-47-26,51,depth_duration_stimuli/000109_2014-05-14_23-41-52_260595134347_rgbf000035-resize_9/000109_2014-05-14_23-41-52_260595134347_rgbf000035-resize_9-target.png,83,1.3545,3,4980,83,meters,jsons/VE83_randls_41.json,1094072,1314108,35,Woman
51,612090,DepthScenes,duration_manipulation_targetAtFixation,jsons/VE83_randls_41.json,http://54.235.29.9/FacialAge/BNav_EC2/DepthDuration/v2_depth_duration_MTurk/v2_DepthDuration_HTML.html#5,5,1280,603,1280,720,8-29-2023,12-47-26,52,depth_duration_stimuli/002663_2014-06-13_15-50-26_094959634447_rgbf000075-resize_1/002663_2014-06-13_15-50-26_094959634447_rgbf000075-resize_1-target.png,83,4.7495,5,6393,84,meters,jsons/VE83_randls_41.json,1094072,1314108,35,Woman
52,612090,DepthScenes,duration_manipulation_targetAtFixation,jsons/VE83_randls_41.json,http://54.235.29.9/FacialAge/BNav_EC2/DepthDuration/v2_depth_duration_MTurk/v2_DepthDuration_HTML.html#5,5,1280,603,1280,720,8-29-2023,12-47-26,53,depth_duration_stimuli/000409_2014-06-04_19-23-33_260595134347_rgbf000067-resize_0/000409_2014-06-04_19-23-33_260595134347_rgbf000067-resize_0-target.png,83,3.7335,0,5384,84,meters,jsons/VE83_randls_41.json,1094072,1314108,35,Woman
53,612090,DepthScenes,duration_manipulation_targetAtFixation,jsons/VE83_randls_41.json,http://54.235.29.9/FacialAge/BNav_EC2/DepthDuration/v2_depth_duration_MTurk/v2_DepthDuration_HTML.html#5,5,1280,603,1280,720,8-29-2023,12-47-26,54,depth_duration_stimuli/002118_2014-06-25_20-32-08_260595134347_rgbf000078-resize_1/002118_2014-06-25_20-32-08_260595134347_rgbf000078-resize_1-target.png,83,2.6460000000000004,3,6279,84,meters,jsons/VE83_randls_41.json,1094072,1314108,35,Woman
54,612090,DepthScenes,duration_manipulation_targetAtFixation,jsons/VE83_randls_41.json,http://54.235.29.9/FacialAge/BNav_EC2/DepthDuration/v2_depth_duration_MTurk/v2_DepthDuration_HTML.html#5,5,1280,603,1280,720,8-29-2023,12-47-26,55,depth_duration_stimuli/001516_2014-06-20_16-25-09_260595134347_rgbf000076-resize_2/001516_2014-06-20_16-25-09_260595134347_rgbf000076-resize_2-target.png,83,1.7445,4,5910,83,meters,jsons/VE83_randls_41.json,1094072,1314108,35,Woman
55,612090,DepthScenes,duration_manipulation_targetAtFixation,jsons/VE83_randls_41.json,http://54.235.29.9/FacialAge/BNav_EC2/DepthDuration/v2_depth_duration_MTurk/v2_DepthDuration_HTML.html#5,5,1280,603,1280,720,8-29-2023,12-47-26,56,depth_duration_stimuli/002039_2014-06-24_20-22-38_260595134347_rgbf000084-resize_1/002039_2014-06-24_20-22-38_260595134347_rgbf000084-resize_1-target.png,83,4.408,6,5641,84,meters,jsons/VE83_randls_41.json,1094072,1314108,35,Woman
56,612090,DepthScenes,duration_manipulation_targetAtFixation,jsons/VE83_randls_41.json,http://54.235.29.9/FacialAge/BNav_EC2/DepthDuration/v2_depth_duration_MTurk/v2_DepthDuration_HTML.html#5,5,1280,603,1280,720,8-29-2023,12-47-26,57,depth_duration_stimuli/002103_2014-06-25_20-00-40_260595134347_rgbf000049-resize_0/002103_2014-06-25_20-00-40_260595134347_rgbf000049-resize_0-target.png,83,4.105,5,4301,83,meters,jsons/VE83_randls_41.json,1094072,1314108,35,Woman
57,612090,DepthScenes,duration_manipulation_targetAtFixation,jsons/VE83_randls_41.json,http://54.235.29.9/FacialAge/BNav_EC2/DepthDuration/v2_depth_duration_MTurk/v2_DepthDuration_HTML.html#5,5,1280,603,1280,720,8-29-2023,12-47-26,58,depth_duration_stimuli/001066_2014-06-08_22-03-20_260595134347_rgbf000066-resize_4/001066_2014-06-08_22-03-20_260595134347_rgbf000066-resize_4-target.png,83,4.2330000000000005,6,5851,83,meters,jsons/VE83_randls_41.json,1094072,1314108,35,Woman
58,612090,DepthScenes,duration_manipulation_targetAtFixation,jsons/VE83_randls_41.json,http://54.235.29.9/FacialAge/BNav_EC2/DepthDuration/v2_depth_duration_MTurk/v2_DepthDuration_HTML.html#5,5,1280,603,1280,720,8-29-2023,12-47-26,59,depth_duration_stimuli/000742_2014-06-08_18-48-09_260595134347_rgbf000164-resize_4/000742_2014-06-08_18-48-09_260595134347_rgbf000164-resize_4-target.png,83,4.632,3,6225,83,meters,jsons/VE83_randls_41.json,1094072,1314108,35,Woman
59,612090,DepthScenes,duration_manipulation_targetAtFixation,jsons/VE83_randls_41.json,http://54.235.29.9/FacialAge/BNav_EC2/DepthDuration/v2_depth_duration_MTurk/v2_DepthDuration_HTML.html#5,5,1280,603,1280,720,8-29-2023,12-47-26,60,depth_duration_stimuli/000493_2014-06-09_21-01-18_260595134347_rgbf000196-resize_3/000493_2014-06-09_21-01-18_260595134347_rgbf000196-resize_3-target.png,83,3.44,4,5295,83,meters,jsons/VE83_randls_41.json,1094072,1314108,35,Woman
60,612090,DepthScenes,duration_manipulation_targetAtFixation,jsons/VE83_randls_41.json,http://54.235.29.9/FacialAge/BNav_EC2/DepthDuration/v2_depth_duration_MTurk/v2_DepthDuration_HTML.html#5,5,1280,603,1280,720,8-29-2023,12-47-26,61,depth_duration_stimuli/000191_2014-05-12_17-07-38_260595134347_rgbf000199-resize_0/000191_2014-05-12_17-07-38_260595134347_rgbf000199-resize_0-target.png,83,3.7995,7,4121,83,meters,jsons/VE83_randls_41.json,1094072,1314108,35,Woman
61,612090,DepthScenes,duration_manipulation_targetAtFixation,jsons/VE83_randls_41.json,http://54.235.29.9/FacialAge/BNav_EC2/DepthDuration/v2_depth_duration_MTurk/v2_DepthDuration_HTML.html#5,5,1280,603,1280,720,8-29-2023,12-47-26,62,depth_duration_stimuli/002279_2014-06-28_18-55-32_260595134347_rgbf000040-resize_5/002279_2014-06-28_18-55-32_260595134347_rgbf000040-resize_5-target.png,83,1.5043333333333,1,5934,84,meters,jsons/VE83_randls_41.json,1094072,1314108,35,Woman
62,612090,DepthScenes,duration_manipulation_targetAtFixation,jsons/VE83_randls_41.json,http://54.235.29.9/FacialAge/BNav_EC2/DepthDuration/v2_depth_duration_MTurk/v2_DepthDuration_HTML.html#5,5,1280,603,1280,720,8-29-2023,12-47-26,63,depth_duration_stimuli/000635_2014-06-08_16-38-42_260595134347_rgbf000106-resize_1/000635_2014-06-08_16-38-42_260595134347_rgbf000106-resize_1-target.png,83,2.074,4,7983,84,meters,jsons/VE83_randls_41.json,1094072,1314108,35,Woman
63,612090,DepthScenes,duration_manipulation_targetAtFixation,jsons/VE83_randls_41.json,http://54.235.29.9/FacialAge/BNav_EC2/DepthDuration/v2_depth_duration_MTurk/v2_DepthDuration_HTML.html#5,5,1280,603,1280,720,8-29-2023,12-47-26,64,depth_duration_stimuli/000009_2014-05-26_14-32-05_260595134347_rgbf000034-resize_3/000009_2014-05-26_14-32-05_260595134347_rgbf000034-resize_3-target.png,83,3.8715,6,6277,84,meters,jsons/VE83_randls_41.json,1094072,1314108,35,Woman
64,612090,DepthScenes,duration_manipulation_targetAtFixation,jsons/VE83_randls_41.json,http://54.235.29.9/FacialAge/BNav_EC2/DepthDuration/v2_depth_duration_MTurk/v2_DepthDuration_HTML.html#5,5,1280,603,1280,720,8-29-2023,12-47-26,65,depth_duration_stimuli/001828_2014-06-26_21-40-03_260595134347_rgbf000024-resize_0/001828_2014-06-26_21-40-03_260595134347_rgbf000024-resize_0-target.png,83,4.8260000000000005,0,13594,83,meters,jsons/VE83_randls_41.json,1094072,1314108,35,Woman
65,612090,DepthScenes,duration_manipulation_targetAtFixation,jsons/VE83_randls_41.json,http://54.235.29.9/FacialAge/BNav_EC2/DepthDuration/v2_depth_duration_MTurk/v2_DepthDuration_HTML.html#5,5,1280,603,1280,720,8-29-2023,12-47-26,66,depth_duration_stimuli/001222_2014-06-17_16-24-06_260595134347_rgbf000073-resize_0/001222_2014-06-17_16-24-06_260595134347_rgbf000073-resize-original.jpg,83,1.4385,0,7407,84,meters,jsons/VE83_randls_41.json,1094072,1314108,35,Woman
66,612090,DepthScenes,duration_manipulation_targetAtFixation,jsons/VE83_randls_41.json,http://54.235.29.9/FacialAge/BNav_EC2/DepthDuration/v2_depth_duration_MTurk/v2_DepthDuration_HTML.html#5,5,1280,603,1280,720,8-29-2023,12-47-26,67,depth_duration_stimuli/000736_2014-06-08_18-24-15_260595134347_rgbf000206-resize_3/000736_2014-06-08_18-24-15_260595134347_rgbf000206-resize_3-target.png,83,3.515,2,8743,84,meters,jsons/VE83_randls_41.json,1094072,1314108,35,Woman
67,612090,DepthScenes,duration_manipulation_targetAtFixation,jsons/VE83_randls_41.json,http://54.235.29.9/FacialAge/BNav_EC2/DepthDuration/v2_depth_duration_MTurk/v2_DepthDuration_HTML.html#5,5,1280,603,1280,720,8-29-2023,12-47-26,68,depth_duration_stimuli/000137_2014-05-20_17-04-49_260595134347_rgbf000120-resize_1/000137_2014-05-20_17-04-49_260595134347_rgbf000120-resize_1-target.png,83,3.786,5,5368,84,meters,jsons/VE83_randls_41.json,1094072,1314108,35,Woman
68,612090,DepthScenes,duration_manipulation_targetAtFixation,jsons/VE83_randls_41.json,http://54.235.29.9/FacialAge/BNav_EC2/DepthDuration/v2_depth_duration_MTurk/v2_DepthDuration_HTML.html#5,5,1280,603,1280,720,8-29-2023,12-47-26,69,depth_duration_stimuli/001810_2014-06-26_20-51-35_260595134347_rgbf000040-resize_3/001810_2014-06-26_20-51-35_260595134347_rgbf000040-resize_3-target.png,83,2.2525,4,6541,83,meters,jsons/VE83_randls_41.json,1094072,1314108,35,Woman
69,612090,DepthScenes,duration_manipulation_targetAtFixation,jsons/VE83_randls_41.json,http://54.235.29.9/FacialAge/BNav_EC2/DepthDuration/v2_depth_duration_MTurk/v2_DepthDuration_HTML.html#5,5,1280,603,1280,720,8-29-2023,12-47-26,70,depth_duration_stimuli/003010_2014-06-15_12-54-35_094959634447_rgbf000112-resize_0/003010_2014-06-15_12-54-35_094959634447_rgbf000112-resize_0-target.png,83,3.1185,0,4637,84,meters,jsons/VE83_randls_41.json,1094072,1314108,35,Woman
70,612090,DepthScenes,duration_manipulation_targetAtFixation,jsons/VE83_randls_41.json,http://54.235.29.9/FacialAge/BNav_EC2/DepthDuration/v2_depth_duration_MTurk/v2_DepthDuration_HTML.html#5,5,1280,603,1280,720,8-29-2023,12-47-26,71,depth_duration_stimuli/002057_2014-06-24_21-00-13_260595134347_rgbf000120-resize_1/002057_2014-06-24_21-00-13_260595134347_rgbf000120-resize_1-target.png,83,2.967,7,5486,84,meters,jsons/VE83_randls_41.json,1094072,1314108,35,Woman
71,612090,DepthScenes,duration_manipulation_targetAtFixation,jsons/VE83_randls_41.json,http://54.235.29.9/FacialAge/BNav_EC2/DepthDuration/v2_depth_duration_MTurk/v2_DepthDuration_HTML.html#5,5,1280,603,1280,720,8-29-2023,12-47-26,72,depth_duration_stimuli/000709_2014-06-08_13-51-55_260595134347_rgbf000068-resize_3/000709_2014-06-08_13-51-55_260595134347_rgbf000068-resize_3-target.png,83,1.8030000000000002,0,4423,84,meters,jsons/VE83_randls_41.json,1094072,1314108,35,Woman
72,612090,DepthScenes,duration_manipulation_targetAtFixation,jsons/VE83_randls_41.json,http://54.235.29.9/FacialAge/BNav_EC2/DepthDuration/v2_depth_duration_MTurk/v2_DepthDuration_HTML.html#5,5,1280,603,1280,720,8-29-2023,12-47-26,73,depth_duration_stimuli/000788_2014-06-08_22-34-36_260595134347_rgbf000131-resize_1/000788_2014-06-08_22-34-36_260595134347_rgbf000131-resize_1-target.png,83,3.359,4,6447,84,meters,jsons/VE83_randls_41.json,1094072,1314108,35,Woman
73,612090,DepthScenes,duration_manipulation_targetAtFixation,jsons/VE83_randls_41.json,http://54.235.29.9/FacialAge/BNav_EC2/DepthDuration/v2_depth_duration_MTurk/v2_DepthDuration_HTML.html#5,5,1280,603,1280,720,8-29-2023,12-47-26,74,depth_duration_stimuli/001235_2014-06-17_16-37-36_260595134347_rgbf000084-resize_4/001235_2014-06-17_16-37-36_260595134347_rgbf000084-resize_4-target.png,83,3.6605,3,5429,83,meters,jsons/VE83_randls_41.json,1094072,1314108,35,Woman
74,612090,DepthScenes,duration_manipulation_targetAtFixation,jsons/VE83_randls_41.json,http://54.235.29.9/FacialAge/BNav_EC2/DepthDuration/v2_depth_duration_MTurk/v2_DepthDuration_HTML.html#5,5,1280,603,1280,720,8-29-2023,12-47-26,75,depth_duration_stimuli/002784_2014-06-22_19-26-30_094959634447_rgbf000083-resize_3/002784_2014-06-22_19-26-30_094959634447_rgbf000083-resize_3-target.png,83,1.8046666666667,2,6817,84,meters,jsons/VE83_randls_41.json,1094072,1314108,35,Woman
75,612090,DepthScenes,duration_manipulation_targetAtFixation,jsons/VE83_randls_41.json,http://54.235.29.9/FacialAge/BNav_EC2/DepthDuration/v2_depth_duration_MTurk/v2_DepthDuration_HTML.html#5,5,1280,603,1280,720,8-29-2023,12-47-26,76,depth_duration_stimuli/001100_2014-06-15_17-46-26_260595134347_rgbf000225-resize_2/001100_2014-06-15_17-46-26_260595134347_rgbf000225-resize_2-target.png,83,2.24,0,4570,84,meters,jsons/VE83_randls_41.json,1094072,1314108,35,Woman
76,612090,DepthScenes,duration_manipulation_targetAtFixation,jsons/VE83_randls_41.json,http://54.235.29.9/FacialAge/BNav_EC2/DepthDuration/v2_depth_duration_MTurk/v2_DepthDuration_HTML.html#5,5,1280,603,1280,720,8-29-2023,12-47-26,77,depth_duration_stimuli/002043_2014-06-24_20-29-38_260595134347_rgbf000039-resize_4/002043_2014-06-24_20-29-38_260595134347_rgbf000039-resize_4-target.png,83,2.8435,6,6560,83,meters,jsons/VE83_randls_41.json,1094072,1314108,35,Woman
77,612090,DepthScenes,duration_manipulation_targetAtFixation,jsons/VE83_randls_41.json,http://54.235.29.9/FacialAge/BNav_EC2/DepthDuration/v2_depth_duration_MTurk/v2_DepthDuration_HTML.html#5,5,1280,603,1280,720,8-29-2023,12-47-26,78,depth_duration_stimuli/003048_2014-06-15_13-49-43_094959634447_rgbf000150-resize_1/003048_2014-06-15_13-49-43_094959634447_rgbf000150-resize_1-target.png,83,4.0035,0,4731,84,meters,jsons/VE83_randls_41.json,1094072,1314108,35,Woman
78,612090,DepthScenes,duration_manipulation_targetAtFixation,jsons/VE83_randls_41.json,http://54.235.29.9/FacialAge/BNav_EC2/DepthDuration/v2_depth_duration_MTurk/v2_DepthDuration_HTML.html#5,5,1280,603,1280,720,8-29-2023,12-47-26,79,depth_duration_stimuli/000906_2014-06-08_13-35-43_260595134347_rgbf000155-resize_1/000906_2014-06-08_13-35-43_260595134347_rgbf000155-resize_1-target.png,83,2.8489999999999998,8,5099,83,meters,jsons/VE83_randls_41.json,1094072,1314108,35,Woman
79,612090,DepthScenes,duration_manipulation_targetAtFixation,jsons/VE83_randls_41.json,http://54.235.29.9/FacialAge/BNav_EC2/DepthDuration/v2_depth_duration_MTurk/v2_DepthDuration_HTML.html#5,5,1280,603,1280,720,8-29-2023,12-47-26,80,depth_duration_stimuli/002805_2014-06-22_19-54-03_094959634447_rgbf000079-resize_1/002805_2014-06-22_19-54-03_094959634447_rgbf000079-resize_1-target.png,83,3.1439999999999997,7,4695,84,meters,jsons/VE83_randls_41.json,1094072,1314108,35,Woman
80,612090,DepthScenes,duration_manipulation_targetAtFixation,jsons/VE83_randls_41.json,http://54.235.29.9/FacialAge/BNav_EC2/DepthDuration/v2_depth_duration_MTurk/v2_DepthDuration_HTML.html#5,5,1280,603,1280,720,8-29-2023,12-47-26,81,depth_duration_stimuli/000773_2014-06-08_22-24-54_260595134347_rgbf000093-resize_1/000773_2014-06-08_22-24-54_260595134347_rgbf000093-resize_1-target.png,83,4.973,6,4795,84,meters,jsons/VE83_randls_41.json,1094072,1314108,35,Woman
81,612090,DepthScenes,duration_manipulation_targetAtFixation,jsons/VE83_randls_41.json,http://54.235.29.9/FacialAge/BNav_EC2/DepthDuration/v2_depth_duration_MTurk/v2_DepthDuration_HTML.html#5,5,1280,603,1280,720,8-29-2023,12-47-26,82,depth_duration_stimuli/002414_2014-06-28_20-24-58_260595134347_rgbf000067-resize_4/002414_2014-06-28_20-24-58_260595134347_rgbf000067-resize_4-target.png,83,4.363,5,4296,83,meters,jsons/VE83_randls_41.json,1094072,1314108,35,Woman
82,612090,DepthScenes,duration_manipulation_targetAtFixation,jsons/VE83_randls_41.json,http://54.235.29.9/FacialAge/BNav_EC2/DepthDuration/v2_depth_duration_MTurk/v2_DepthDuration_HTML.html#5,5,1280,603,1280,720,8-29-2023,12-47-26,83,depth_duration_stimuli/003492_2014-05-21_15-50-55_094959634447_rgbf000828-resize_1/003492_2014-05-21_15-50-55_094959634447_rgbf000828-resize_1-target.png,83,4.06875,7,5958,84,meters,jsons/VE83_randls_41.json,1094072,1314108,35,Woman
83,612090,DepthScenes,duration_manipulation_targetAtFixation,jsons/VE83_randls_41.json,http://54.235.29.9/FacialAge/BNav_EC2/DepthDuration/v2_depth_duration_MTurk/v2_DepthDuration_HTML.html#5,5,1280,603,1280,720,8-29-2023,12-47-26,84,depth_duration_stimuli/002568_2014-06-24_13-59-21_094959634447_rgbf000062-resize_4/002568_2014-06-24_13-59-21_094959634447_rgbf000062-resize_4-target.png,83,3.015,8,4154,84,meters,jsons/VE83_randls_41.json,1094072,1314108,35,Woman
84,612090,DepthScenes,duration_manipulation_targetAtFixation,jsons/VE83_randls_41.json,http://54.235.29.9/FacialAge/BNav_EC2/DepthDuration/v2_depth_duration_MTurk/v2_DepthDuration_HTML.html#5,5,1280,603,1280,720,8-29-2023,12-47-26,85,depth_duration_stimuli/000642_2014-06-08_16-59-25_260595134347_rgbf000098-resize_2/000642_2014-06-08_16-59-25_260595134347_rgbf000098-resize_2-target.png,83,2.8815,6,5617,83,meters,jsons/VE83_randls_41.json,1094072,1314108,35,Woman
85,612090,DepthScenes,duration_manipulation_targetAtFixation,jsons/VE83_randls_41.json,http://54.235.29.9/FacialAge/BNav_EC2/DepthDuration/v2_depth_duration_MTurk/v2_DepthDuration_HTML.html#5,5,1280,603,1280,720,8-29-2023,12-47-26,86,depth_duration_stimuli/002425_2014-06-28_20-27-29_260595134347_rgbf000031-resize_8/002425_2014-06-28_20-27-29_260595134347_rgbf000031-resize_8-target.png,83,3.8960000000000004,4,4702,83,meters,jsons/VE83_randls_41.json,1094072,1314108,35,Woman
86,612090,DepthScenes,duration_manipulation_targetAtFixation,jsons/VE83_randls_41.json,http://54.235.29.9/FacialAge/BNav_EC2/DepthDuration/v2_depth_duration_MTurk/v2_DepthDuration_HTML.html#5,5,1280,603,1280,720,8-29-2023,12-47-26,87,depth_duration_stimuli/001244_2014-06-17_16-47-45_260595134347_rgbf000030-resize_4/001244_2014-06-17_16-47-45_260595134347_rgbf000030-resize_4-target.png,83,2.0425,6,5317,83,meters,jsons/VE83_randls_41.json,1094072,1314108,35,Woman
87,612090,DepthScenes,duration_manipulation_targetAtFixation,jsons/VE83_randls_41.json,http://54.235.29.9/FacialAge/BNav_EC2/DepthDuration/v2_depth_duration_MTurk/v2_DepthDuration_HTML.html#5,5,1280,603,1280,720,8-29-2023,12-47-26,88,depth_duration_stimuli/003495_2014-05-21_16-01-51_094959634447_rgbf000100-resize_3/003495_2014-05-21_16-01-51_094959634447_rgbf000100-resize_3-target.png,83,1.6255,3,4240,83,meters,jsons/VE83_randls_41.json,1094072,1314108,35,Woman
88,612090,DepthScenes,duration_manipulation_targetAtFixation,jsons/VE83_randls_41.json,http://54.235.29.9/FacialAge/BNav_EC2/DepthDuration/v2_depth_duration_MTurk/v2_DepthDuration_HTML.html#5,5,1280,603,1280,720,8-29-2023,12-47-26,89,depth_duration_stimuli/001110_2014-06-15_17-25-28_260595134347_rgbf000150-resize_1/001110_2014-06-15_17-25-28_260595134347_rgbf000150-resize_1-target.png,83,1.7115,3,3600,84,meters,jsons/VE83_randls_41.json,1094072,1314108,35,Woman
89,612090,DepthScenes,duration_manipulation_targetAtFixation,jsons/VE83_randls_41.json,http://54.235.29.9/FacialAge/BNav_EC2/DepthDuration/v2_depth_duration_MTurk/v2_DepthDuration_HTML.html#5,5,1280,603,1280,720,8-29-2023,12-47-26,90,depth_duration_stimuli/000927_2014-06-09_16-32-30_260595134347_rgbf000123-resize_3/000927_2014-06-09_16-32-30_260595134347_rgbf000123-resize_3-target.png,83,2.6785,3,4116,84,meters,jsons/VE83_randls_41.json,1094072,1314108,35,Woman
90,612090,DepthScenes,duration_manipulation_targetAtFixation,jsons/VE83_randls_41.json,http://54.235.29.9/FacialAge/BNav_EC2/DepthDuration/v2_depth_duration_MTurk/v2_DepthDuration_HTML.html#5,5,1280,603,1280,720,8-29-2023,12-47-26,91,depth_duration_stimuli/000414_2014-06-04_19-49-13_260595134347_rgbf000044-resize_0/000414_2014-06-04_19-49-13_260595134347_rgbf000044-resize_0-target.png,83,4.329,4,6241,83,meters,jsons/VE83_randls_41.json,1094072,1314108,35,Woman
91,612090,DepthScenes,duration_manipulation_targetAtFixation,jsons/VE83_randls_41.json,http://54.235.29.9/FacialAge/BNav_EC2/DepthDuration/v2_depth_duration_MTurk/v2_DepthDuration_HTML.html#5,5,1280,603,1280,720,8-29-2023,12-47-26,92,depth_duration_stimuli/003129_2014-05-12_10-48-10_094959634447_rgbf000100-resize_0/003129_2014-05-12_10-48-10_094959634447_rgbf000100-resize_0-target.png,83,4.9305,5,10074,84,meters,jsons/VE83_randls_41.json,1094072,1314108,35,Woman
92,612090,DepthScenes,duration_manipulation_targetAtFixation,jsons/VE83_randls_41.json,http://54.235.29.9/FacialAge/BNav_EC2/DepthDuration/v2_depth_duration_MTurk/v2_DepthDuration_HTML.html#5,5,1280,603,1280,720,8-29-2023,12-47-26,93,depth_duration_stimuli/000522_2014-06-08_13-35-06_260595134347_rgbf000244-resize_1/000522_2014-06-08_13-35-06_260595134347_rgbf000244-resize_1-target.png,83,2.3715,2,5844,84,meters,jsons/VE83_randls_41.json,1094072,1314108,35,Woman
93,612090,DepthScenes,duration_manipulation_targetAtFixation,jsons/VE83_randls_41.json,http://54.235.29.9/FacialAge/BNav_EC2/DepthDuration/v2_depth_duration_MTurk/v2_DepthDuration_HTML.html#5,5,1280,603,1280,720,8-29-2023,12-47-26,94,depth_duration_stimuli/002949_2014-06-26_15-57-42_094959634447_rgbf000079-resize_1/002949_2014-06-26_15-57-42_094959634447_rgbf000079-resize_1-target.png,83,1.8915,0,4261,84,meters,jsons/VE83_randls_41.json,1094072,1314108,35,Woman
94,612090,DepthScenes,duration_manipulation_targetAtFixation,jsons/VE83_randls_41.json,http://54.235.29.9/FacialAge/BNav_EC2/DepthDuration/v2_depth_duration_MTurk/v2_DepthDuration_HTML.html#5,5,1280,603,1280,720,8-29-2023,12-47-26,95,depth_duration_stimuli/000917_2014-06-09_22-45-29_260595134347_rgbf000149-resize_3/000917_2014-06-09_22-45-29_260595134347_rgbf000149-resize_3-target.png,83,4.1865,4,5086,84,meters,jsons/VE83_randls_41.json,1094072,1314108,35,Woman
95,612090,DepthScenes,duration_manipulation_targetAtFixation,jsons/VE83_randls_41.json,http://54.235.29.9/FacialAge/BNav_EC2/DepthDuration/v2_depth_duration_MTurk/v2_DepthDuration_HTML.html#5,5,1280,603,1280,720,8-29-2023,12-47-26,96,depth_duration_stimuli/002323_2014-06-28_20-01-54_260595134347_rgbf000051-resize_4/002323_2014-06-28_20-01-54_260595134347_rgbf000051-resize_4-target.png,83,3.7310000000000003,4,21901,84,meters,jsons/VE83_randls_41.json,1094072,1314108,35,Woman
96,612090,DepthScenes,duration_manipulation_targetAtFixation,jsons/VE83_randls_41.json,http://54.235.29.9/FacialAge/BNav_EC2/DepthDuration/v2_depth_duration_MTurk/v2_DepthDuration_HTML.html#5,5,1280,603,1280,720,8-29-2023,12-47-26,97,depth_duration_stimuli/001011_2014-06-08_23-18-54_260595134347_rgbf000044-resize_4/001011_2014-06-08_23-18-54_260595134347_rgbf000044-resize_4-target.png,83,2.4730000000000003,4,5763,84,meters,jsons/VE83_randls_41.json,1094072,1314108,35,Woman
97,612090,DepthScenes,duration_manipulation_targetAtFixation,jsons/VE83_randls_41.json,http://54.235.29.9/FacialAge/BNav_EC2/DepthDuration/v2_depth_duration_MTurk/v2_DepthDuration_HTML.html#5,5,1280,603,1280,720,8-29-2023,12-47-26,98,depth_duration_stimuli/002875_2014-06-01_15-19-00_094959634447_rgbf000151-resize_1/002875_2014-06-01_15-19-00_094959634447_rgbf000151-resize_1-target.png,83,1.9675,3,5537,83,meters,jsons/VE83_randls_41.json,1094072,1314108,35,Woman
98,612090,DepthScenes,duration_manipulation_targetAtFixation,jsons/VE83_randls_41.json,http://54.235.29.9/FacialAge/BNav_EC2/DepthDuration/v2_depth_duration_MTurk/v2_DepthDuration_HTML.html#5,5,1280,603,1280,720,8-29-2023,12-47-26,99,depth_duration_stimuli/001540_2014-06-20_17-01-05_260595134347_rgbf000086-resize_2/001540_2014-06-20_17-01-05_260595134347_rgbf000086-resize-original.jpg,83,1.459,0,5156,84,meters,jsons/VE83_randls_41.json,1094072,1314108,35,Woman
99,612090,DepthScenes,duration_manipulation_targetAtFixation,jsons/VE83_randls_41.json,http://54.235.29.9/FacialAge/BNav_EC2/DepthDuration/v2_depth_duration_MTurk/v2_DepthDuration_HTML.html#5,5,1280,603,1280,720,8-29-2023,12-47-26,100,depth_duration_stimuli/002630_2014-06-24_14-47-50_094959634447_rgbf000055-resize_1/002630_2014-06-24_14-47-50_094959634447_rgbf000055-resize_1-target.png,83,3.0095,5,4892,83,meters,jsons/VE83_randls_41.json,1094072,1314108,35,Woman
100,612090,DepthScenes,duration_manipulation_targetAtFixation,jsons/VE83_randls_41.json,http://54.235.29.9/FacialAge/BNav_EC2/DepthDuration/v2_depth_duration_MTurk/v2_DepthDuration_HTML.html#5,5,1280,603,1280,720,8-29-2023,12-47-26,101,depth_duration_stimuli/002758_2014-06-22_19-11-20_094959634447_rgbf000128-resize_1/002758_2014-06-22_19-11-20_094959634447_rgbf000128-resize_1-target.png,83,2.555,3,4786,84,meters,jsons/VE83_randls_41.json,1094072,1314108,35,Woman
101,612090,DepthScenes,duration_manipulation_targetAtFixation,jsons/VE83_randls_41.json,http://54.235.29.9/FacialAge/BNav_EC2/DepthDuration/v2_depth_duration_MTurk/v2_DepthDuration_HTML.html#5,5,1280,603,1280,720,8-29-2023,12-47-26,102,depth_duration_stimuli/002763_2014-06-22_19-13-10_094959634447_rgbf000075-resize_4/002763_2014-06-22_19-13-10_094959634447_rgbf000075-resize_4-target.png,83,1.68375,4,4901,84,meters,jsons/VE83_randls_41.json,1094072,1314108,35,Woman
102,612090,DepthScenes,duration_manipulation_targetAtFixation,jsons/VE83_randls_41.json,http://54.235.29.9/FacialAge/BNav_EC2/DepthDuration/v2_depth_duration_MTurk/v2_DepthDuration_HTML.html#5,5,1280,603,1280,720,8-29-2023,12-47-26,103,depth_duration_stimuli/002209_2014-06-28_18-36-10_260595134347_rgbf000051-resize_1/002209_2014-06-28_18-36-10_260595134347_rgbf000051-resize_1-target.png,83,2.057,4,10013,83,meters,jsons/VE83_randls_41.json,1094072,1314108,35,Woman
103,612090,DepthScenes,duration_manipulation_targetAtFixation,jsons/VE83_randls_41.json,http://54.235.29.9/FacialAge/BNav_EC2/DepthDuration/v2_depth_duration_MTurk/v2_DepthDuration_HTML.html#5,5,1280,603,1280,720,8-29-2023,12-47-26,104,depth_duration_stimuli/002570_2014-06-24_13-59-54_094959634447_rgbf000059-resize_0/002570_2014-06-24_13-59-54_094959634447_rgbf000059-resize_0-target.png,83,4.037,4,6114,83,meters,jsons/VE83_randls_41.json,1094072,1314108,35,Woman
104,612090,DepthScenes,duration_manipulation_targetAtFixation,jsons/VE83_randls_41.json,http://54.235.29.9/FacialAge/BNav_EC2/DepthDuration/v2_depth_duration_MTurk/v2_DepthDuration_HTML.html#5,5,1280,603,1280,720,8-29-2023,12-47-26,105,depth_duration_stimuli/002467_2014-06-28_20-38-07_260595134347_rgbf000026-resize_2/002467_2014-06-28_20-38-07_260595134347_rgbf000026-resize_2-target.png,83,4.742,4,4975,83,meters,jsons/VE83_randls_41.json,1094072,1314108,35,Woman
105,612090,DepthScenes,duration_manipulation_targetAtFixation,jsons/VE83_randls_41.json,http://54.235.29.9/FacialAge/BNav_EC2/DepthDuration/v2_depth_duration_MTurk/v2_DepthDuration_HTML.html#5,5,1280,603,1280,720,8-29-2023,12-47-26,106,depth_duration_stimuli/001808_2014-06-26_20-50-58_260595134347_rgbf000029-resize_1/001808_2014-06-26_20-50-58_260595134347_rgbf000029-resize_1-target.png,83,4.249,7,6705,84,meters,jsons/VE83_randls_41.json,1094072,1314108,35,Woman
106,612090,DepthScenes,duration_manipulation_targetAtFixation,jsons/VE83_randls_41.json,http://54.235.29.9/FacialAge/BNav_EC2/DepthDuration/v2_depth_duration_MTurk/v2_DepthDuration_HTML.html#5,5,1280,603,1280,720,8-29-2023,12-47-26,107,depth_duration_stimuli/001815_2014-06-26_20-52-55_260595134347_rgbf000020-resize_0/001815_2014-06-26_20-52-55_260595134347_rgbf000020-resize_0-target.png,83,3.3865,5,5898,84,meters,jsons/VE83_randls_41.json,1094072,1314108,35,Woman
107,612090,DepthScenes,duration_manipulation_targetAtFixation,jsons/VE83_randls_41.json,http://54.235.29.9/FacialAge/BNav_EC2/DepthDuration/v2_depth_duration_MTurk/v2_DepthDuration_HTML.html#5,5,1280,603,1280,720,8-29-2023,12-47-26,108,depth_duration_stimuli/002964_2014-06-08_17-46-11_094959634447_rgbf000091-resize_4/002964_2014-06-08_17-46-11_094959634447_rgbf000091-resize_4-target.png,83,1.6909999999999998,2,5844,85,meters,jsons/VE83_randls_41.json,1094072,1314108,35,Woman
108,612090,DepthScenes,duration_manipulation_targetAtFixation,jsons/VE83_randls_41.json,http://54.235.29.9/FacialAge/BNav_EC2/DepthDuration/v2_depth_duration_MTurk/v2_DepthDuration_HTML.html#5,5,1280,603,1280,720,8-29-2023,12-47-26,109,depth_duration_stimuli/002136_2014-06-25_21-18-03_260595134347_rgbf000109-resize_3/002136_2014-06-25_21-18-03_260595134347_rgbf000109-resize_3-target.png,83,1.9569999999999999,3,4633,84,meters,jsons/VE83_randls_41.json,1094072,1314108,35,Woman
109,612090,DepthScenes,duration_manipulation_targetAtFixation,jsons/VE83_randls_41.json,http://54.235.29.9/FacialAge/BNav_EC2/DepthDuration/v2_depth_duration_MTurk/v2_DepthDuration_HTML.html#5,5,1280,603,1280,720,8-29-2023,12-47-26,110,depth_duration_stimuli/003534_2014-05-22_15-06-10_094959634447_rgbf000102-resize_4/003534_2014-05-22_15-06-10_094959634447_rgbf000102-resize_4-target.png,83,1.426,2,6615,84,meters,jsons/VE83_randls_41.json,1094072,1314108,35,Woman
110,612090,DepthScenes,duration_manipulation_targetAtFixation,jsons/VE83_randls_41.json,http://54.235.29.9/FacialAge/BNav_EC2/DepthDuration/v2_depth_duration_MTurk/v2_DepthDuration_HTML.html#5,5,1280,603,1280,720,8-29-2023,12-47-26,111,depth_duration_stimuli/002637_2014-06-24_14-51-13_094959634447_rgbf000066-resize_4/002637_2014-06-24_14-51-13_094959634447_rgbf000066-resize_4-target.png,83,1.9955,3,4547,83,meters,jsons/VE83_randls_41.json,1094072,1314108,35,Woman
111,612090,DepthScenes,duration_manipulation_targetAtFixation,jsons/VE83_randls_41.json,http://54.235.29.9/FacialAge/BNav_EC2/DepthDuration/v2_depth_duration_MTurk/v2_DepthDuration_HTML.html#5,5,1280,603,1280,720,8-29-2023,12-47-26,112,depth_duration_stimuli/000739_2014-06-08_18-45-58_260595134347_rgbf000068-resize_1/000739_2014-06-08_18-45-58_260595134347_rgbf000068-resize_1-target.png,83,3.534,5,5918,84,meters,jsons/VE83_randls_41.json,1094072,1314108,35,Woman
112,612090,DepthScenes,duration_manipulation_targetAtFixation,jsons/VE83_randls_41.json,http://54.235.29.9/FacialAge/BNav_EC2/DepthDuration/v2_depth_duration_MTurk/v2_DepthDuration_HTML.html#5,5,1280,603,1280,720,8-29-2023,12-47-26,113,depth_duration_stimuli/000734_2014-06-08_17-39-11_260595134347_rgbf000128-resize_2/000734_2014-06-08_17-39-11_260595134347_rgbf000128-resize_2-target.png,83,4.098,6,4659,83,meters,jsons/VE83_randls_41.json,1094072,1314108,35,Woman
113,612090,DepthScenes,duration_manipulation_targetAtFixation,jsons/VE83_randls_41.json,http://54.235.29.9/FacialAge/BNav_EC2/DepthDuration/v2_depth_duration_MTurk/v2_DepthDuration_HTML.html#5,5,1280,603,1280,720,8-29-2023,12-47-26,114,depth_duration_stimuli/001133_2014-06-17_14-49-16_260595134347_rgbf000100-resize_0/001133_2014-06-17_14-49-16_260595134347_rgbf000100-resize_0-target.png,83,4.2115,5,8581,84,meters,jsons/VE83_randls_41.json,1094072,1314108,35,Woman
114,612090,DepthScenes,duration_manipulation_targetAtFixation,jsons/VE83_randls_41.json,http://54.235.29.9/FacialAge/BNav_EC2/DepthDuration/v2_depth_duration_MTurk/v2_DepthDuration_HTML.html#5,5,1280,603,1280,720,8-29-2023,12-47-26,115,depth_duration_stimuli/001132_2014-06-17_14-48-54_260595134347_rgbf000100-resize_2/001132_2014-06-17_14-48-54_260595134347_rgbf000100-resize_2-target.png,83,3.753,5,5378,84,meters,jsons/VE83_randls_41.json,1094072,1314108,35,Woman
115,612090,DepthScenes,duration_manipulation_targetAtFixation,jsons/VE83_randls_41.json,http://54.235.29.9/FacialAge/BNav_EC2/DepthDuration/v2_depth_duration_MTurk/v2_DepthDuration_HTML.html#5,5,1280,603,1280,720,8-29-2023,12-47-26,116,depth_duration_stimuli/001170_2014-06-17_15-43-44_260595134347_rgbf000096-resize_6/001170_2014-06-17_15-43-44_260595134347_rgbf000096-resize-original.jpg,83,1.1909999999999998,0,6249,84,meters,jsons/VE83_randls_41.json,1094072,1314108,35,Woman
116,612090,DepthScenes,duration_manipulation_targetAtFixation,jsons/VE83_randls_41.json,http://54.235.29.9/FacialAge/BNav_EC2/DepthDuration/v2_depth_duration_MTurk/v2_DepthDuration_HTML.html#5,5,1280,603,1280,720,8-29-2023,12-47-26,117,depth_duration_stimuli/001449_2014-06-19_17-01-27_260595134347_rgbf000116-resize_2/001449_2014-06-19_17-01-27_260595134347_rgbf000116-resize_2-target.png,83,3.452,5,9110,84,meters,jsons/VE83_randls_41.json,1094072,1314108,35,Woman
117,612090,DepthScenes,duration_manipulation_targetAtFixation,jsons/VE83_randls_41.json,http://54.235.29.9/FacialAge/BNav_EC2/DepthDuration/v2_depth_duration_MTurk/v2_DepthDuration_HTML.html#5,5,1280,603,1280,720,8-29-2023,12-47-26,118,depth_duration_stimuli/001450_2014-06-19_17-02-03_260595134347_rgbf000203-resize_4/001450_2014-06-19_17-02-03_260595134347_rgbf000203-resize_4-target.png,83,4.0106666666667,0,4656,83,meters,jsons/VE83_randls_41.json,1094072,1314108,35,Woman
118,612090,DepthScenes,duration_manipulation_targetAtFixation,jsons/VE83_randls_41.json,http://54.235.29.9/FacialAge/BNav_EC2/DepthDuration/v2_depth_duration_MTurk/v2_DepthDuration_HTML.html#5,5,1280,603,1280,720,8-29-2023,12-47-26,119,depth_duration_stimuli/000758_2014-06-08_22-05-08_260595134347_rgbf000085-resize_0/000758_2014-06-08_22-05-08_260595134347_rgbf000085-resize_0-target.png,83,3.3810000000000002,5,5419,84,meters,jsons/VE83_randls_41.json,1094072,1314108,35,Woman
119,612090,DepthScenes,duration_manipulation_targetAtFixation,jsons/VE83_randls_41.json,http://54.235.29.9/FacialAge/BNav_EC2/DepthDuration/v2_depth_duration_MTurk/v2_DepthDuration_HTML.html#5,5,1280,603,1280,720,8-29-2023,12-47-26,120,depth_duration_stimuli/000854_2014-06-09_19-43-13_260595134347_rgbf000066-resize_0/000854_2014-06-09_19-43-13_260595134347_rgbf000066-resize_0-target.png,83,3.068,4,4310,83,meters,jsons/VE83_randls_41.json,1094072,1314108,35,Woman
120,612090,DepthScenes,duration_manipulation_targetAtFixation,jsons/VE83_randls_41.json,http://54.235.29.9/FacialAge/BNav_EC2/DepthDuration/v2_depth_duration_MTurk/v2_DepthDuration_HTML.html#5,5,1280,603,1280,720,8-29-2023,12-47-26,121,depth_duration_stimuli/001199_2014-06-17_16-03-48_260595134347_rgbf000077-resize_0/001199_2014-06-17_16-03-48_260595134347_rgbf000077-resize_0-target.png,83,3.4375,4,8499,83,meters,jsons/VE83_randls_41.json,1094072,1314108,35,Woman
121,612090,DepthScenes,duration_manipulation_targetAtFixation,jsons/VE83_randls_41.json,http://54.235.29.9/FacialAge/BNav_EC2/DepthDuration/v2_depth_duration_MTurk/v2_DepthDuration_HTML.html#5,5,1280,603,1280,720,8-29-2023,12-47-26,122,depth_duration_stimuli/000502_2014-06-08_23-02-32_260595134347_rgbf000063-resize_4/000502_2014-06-08_23-02-32_260595134347_rgbf000063-resize_4-target.png,83,2.431,3,9593,83,meters,jsons/VE83_randls_41.json,1094072,1314108,35,Woman
122,612090,DepthScenes,duration_manipulation_targetAtFixation,jsons/VE83_randls_41.json,http://54.235.29.9/FacialAge/BNav_EC2/DepthDuration/v2_depth_duration_MTurk/v2_DepthDuration_HTML.html#5,5,1280,603,1280,720,8-29-2023,12-47-26,123,depth_duration_stimuli/000486_2014-06-09_20-47-20_260595134347_rgbf000143-resize_2/000486_2014-06-09_20-47-20_260595134347_rgbf000143-resize_2-target.png,83,4.8325,3,6868,83,meters,jsons/VE83_randls_41.json,1094072,1314108,35,Woman
123,612090,DepthScenes,duration_manipulation_targetAtFixation,jsons/VE83_randls_41.json,http://54.235.29.9/FacialAge/BNav_EC2/DepthDuration/v2_depth_duration_MTurk/v2_DepthDuration_HTML.html#5,5,1280,603,1280,720,8-29-2023,12-47-26,124,depth_duration_stimuli/003083_2014-06-15_15-21-03_094959634447_rgbf000063-resize_1/003083_2014-06-15_15-21-03_094959634447_rgbf000063-resize_1-target.png,83,4.1405,2,6066,84,meters,jsons/VE83_randls_41.json,1094072,1314108,35,Woman
124,612090,DepthScenes,duration_manipulation_targetAtFixation,jsons/VE83_randls_41.json,http://54.235.29.9/FacialAge/BNav_EC2/DepthDuration/v2_depth_duration_MTurk/v2_DepthDuration_HTML.html#5,5,1280,603,1280,720,8-29-2023,12-47-26,125,depth_duration_stimuli/002272_2014-06-28_18-53-56_260595134347_rgbf000067-resize_2/002272_2014-06-28_18-53-56_260595134347_rgbf000067-resize_2-target.png,83,1.138,2,8437,84,meters,jsons/VE83_randls_41.json,1094072,1314108,35,Woman
125,612090,DepthScenes,duration_manipulation_targetAtFixation,jsons/VE83_randls_41.json,http://54.235.29.9/FacialAge/BNav_EC2/DepthDuration/v2_depth_duration_MTurk/v2_DepthDuration_HTML.html#5,5,1280,603,1280,720,8-29-2023,12-47-26,126,depth_duration_stimuli/001571_2014-06-20_17-21-32_260595134347_rgbf000089-resize_1/001571_2014-06-20_17-21-32_260595134347_rgbf000089-resize_1-target.png,83,1.86,0,12172,83,meters,jsons/VE83_randls_41.json,1094072,1314108,35,Woman
126,612090,DepthScenes,duration_manipulation_targetAtFixation,jsons/VE83_randls_41.json,http://54.235.29.9/FacialAge/BNav_EC2/DepthDuration/v2_depth_duration_MTurk/v2_DepthDuration_HTML.html#5,5,1280,603,1280,720,8-29-2023,12-47-26,127,depth_duration_stimuli/000506_2014-06-08_23-21-00_260595134347_rgbf000070-resize_7/000506_2014-06-08_23-21-00_260595134347_rgbf000070-resize_7-target.png,83,4.0585,4,6103,82,meters,jsons/VE83_randls_41.json,1094072,1314108,35,Woman
127,612090,DepthScenes,duration_manipulation_targetAtFixation,jsons/VE83_randls_41.json,http://54.235.29.9/FacialAge/BNav_EC2/DepthDuration/v2_depth_duration_MTurk/v2_DepthDuration_HTML.html#5,5,1280,603,1280,720,8-29-2023,12-47-26,128,depth_duration_stimuli/003079_2014-06-15_15-18-20_094959634447_rgbf000152-resize_8/003079_2014-06-15_15-18-20_094959634447_rgbf000152-resize_8-target.png,83,2.8775,5,3980,83,meters,jsons/VE83_randls_41.json,1094072,1314108,35,Woman
128,612090,DepthScenes,duration_manipulation_targetAtFixation,jsons/VE83_randls_41.json,http://54.235.29.9/FacialAge/BNav_EC2/DepthDuration/v2_depth_duration_MTurk/v2_DepthDuration_HTML.html#5,5,1280,603,1280,720,8-29-2023,12-47-26,129,depth_duration_stimuli/003070_2014-06-15_14-58-27_094959634447_rgbf000150-resize_3/003070_2014-06-15_14-58-27_094959634447_rgbf000150-resize_3-target.png,83,2.9415,3,6498,84,meters,jsons/VE83_randls_41.json,1094072,1314108,35,Woman
129,612090,DepthScenes,duration_manipulation_targetAtFixation,jsons/VE83_randls_41.json,http://54.235.29.9/FacialAge/BNav_EC2/DepthDuration/v2_depth_duration_MTurk/v2_DepthDuration_HTML.html#5,5,1280,603,1280,720,8-29-2023,12-47-26,130,depth_duration_stimuli/000943_2014-06-09_19-31-07_260595134347_rgbf000128-resize_1/000943_2014-06-09_19-31-07_260595134347_rgbf000128-resize_1-target.png,83,1.9765,0,12516,84,meters,jsons/VE83_randls_41.json,1094072,1314108,35,Woman
130,612090,DepthScenes,duration_manipulation_targetAtFixation,jsons/VE83_randls_41.json,http://54.235.29.9/FacialAge/BNav_EC2/DepthDuration/v2_depth_duration_MTurk/v2_DepthDuration_HTML.html#5,5,1280,603,1280,720,8-29-2023,12-47-26,131,depth_duration_stimuli/003621_2014-05-23_18-06-08_094959634447_rgbf000101-resize_1/003621_2014-05-23_18-06-08_094959634447_rgbf000101-resize_1-target.png,83,3.9835,4,7194,84,meters,jsons/VE83_randls_41.json,1094072,1314108,35,Woman
131,612090,DepthScenes,duration_manipulation_targetAtFixation,jsons/VE83_randls_41.json,http://54.235.29.9/FacialAge/BNav_EC2/DepthDuration/v2_depth_duration_MTurk/v2_DepthDuration_HTML.html#5,5,1280,603,1280,720,8-29-2023,12-47-26,132,depth_duration_stimuli/001584_2014-06-20_11-07-43_260595134347_rgbf000002-resize_1/001584_2014-06-20_11-07-43_260595134347_rgbf000002-resize_1-target.png,83,3.53,4,5288,84,meters,jsons/VE83_randls_41.json,1094072,1314108,35,Woman
132,612090,DepthScenes,duration_manipulation_targetAtFixation,jsons/VE83_randls_41.json,http://54.235.29.9/FacialAge/BNav_EC2/DepthDuration/v2_depth_duration_MTurk/v2_DepthDuration_HTML.html#5,5,1280,603,1280,720,8-29-2023,12-47-26,133,depth_duration_stimuli/000692_2014-06-08_13-09-42_260595134347_rgbf000199-resize_2/000692_2014-06-08_13-09-42_260595134347_rgbf000199-resize_2-target.png,83,3.661,4,7097,84,meters,jsons/VE83_randls_41.json,1094072,1314108,35,Woman
133,612090,DepthScenes,duration_manipulation_targetAtFixation,jsons/VE83_randls_41.json,http://54.235.29.9/FacialAge/BNav_EC2/DepthDuration/v2_depth_duration_MTurk/v2_DepthDuration_HTML.html#5,5,1280,603,1280,720,8-29-2023,12-47-26,134,depth_duration_stimuli/001094_2014-06-15_17-36-00_260595134347_rgbf000205-resize_0/001094_2014-06-15_17-36-00_260595134347_rgbf000205-resize_0-target.png,83,4.2175,4,5858,83,meters,jsons/VE83_randls_41.json,1094072,1314108,35,Woman
134,612090,DepthScenes,duration_manipulation_targetAtFixation,jsons/VE83_randls_41.json,http://54.235.29.9/FacialAge/BNav_EC2/DepthDuration/v2_depth_duration_MTurk/v2_DepthDuration_HTML.html#5,5,1280,603,1280,720,8-29-2023,12-47-26,135,depth_duration_stimuli/002072_2014-06-24_21-48-06_260595134347_rgbf000115-resize_0/002072_2014-06-24_21-48-06_260595134347_rgbf000115-resize-original.jpg,83,4.702,0,8751,83,meters,jsons/VE83_randls_41.json,1094072,1314108,35,Woman
135,612090,DepthScenes,duration_manipulation_targetAtFixation,jsons/VE83_randls_41.json,http://54.235.29.9/FacialAge/BNav_EC2/DepthDuration/v2_depth_duration_MTurk/v2_DepthDuration_HTML.html#5,5,1280,603,1280,720,8-29-2023,12-47-26,136,depth_duration_stimuli/002153_2014-06-25_21-27-18_260595134347_rgbf000038-resize_5/002153_2014-06-25_21-27-18_260595134347_rgbf000038-resize_5-target.png,83,2.505,2,22566,84,meters,jsons/VE83_randls_41.json,1094072,1314108,35,Woman
136,612090,DepthScenes,duration_manipulation_targetAtFixation,jsons/VE83_randls_41.json,http://54.235.29.9/FacialAge/BNav_EC2/DepthDuration/v2_depth_duration_MTurk/v2_DepthDuration_HTML.html#5,5,1280,603,1280,720,8-29-2023,12-47-26,137,depth_duration_stimuli/002660_2014-06-13_15-44-18_094959634447_rgbf001878-resize_2/002660_2014-06-13_15-44-18_094959634447_rgbf001878-resize_2-target.png,83,3.576,3,7043,83,meters,jsons/VE83_randls_41.json,1094072,1314108,35,Woman
137,612090,DepthScenes,duration_manipulation_targetAtFixation,jsons/VE83_randls_41.json,http://54.235.29.9/FacialAge/BNav_EC2/DepthDuration/v2_depth_duration_MTurk/v2_DepthDuration_HTML.html#5,5,1280,603,1280,720,8-29-2023,12-47-26,138,depth_duration_stimuli/000368_2014-06-09_15-53-01_260595134347_rgbf000155-resize_2/000368_2014-06-09_15-53-01_260595134347_rgbf000155-resize_2-target.png,83,2.4859999999999998,2,5570,83,meters,jsons/VE83_randls_41.json,1094072,1314108,35,Woman
138,612090,DepthScenes,duration_manipulation_targetAtFixation,jsons/VE83_randls_41.json,http://54.235.29.9/FacialAge/BNav_EC2/DepthDuration/v2_depth_duration_MTurk/v2_DepthDuration_HTML.html#5,5,1280,603,1280,720,8-29-2023,12-47-26,139,depth_duration_stimuli/002678_2014-06-13_16-15-32_094959634447_rgbf000151-resize_6/002678_2014-06-13_16-15-32_094959634447_rgbf000151-resize_6-target.png,83,2.1830000000000003,0,5047,84,meters,jsons/VE83_randls_41.json,1094072,1314108,35,Woman
139,612090,DepthScenes,duration_manipulation_targetAtFixation,jsons/VE83_randls_41.json,http://54.235.29.9/FacialAge/BNav_EC2/DepthDuration/v2_depth_duration_MTurk/v2_DepthDuration_HTML.html#5,5,1280,603,1280,720,8-29-2023,12-47-26,140,depth_duration_stimuli/002988_2014-06-15_12-24-20_094959634447_rgbf000150-resize_1/002988_2014-06-15_12-24-20_094959634447_rgbf000150-resize_1-target.png,83,4.7669999999999995,4,6888,84,meters,jsons/VE83_randls_41.json,1094072,1314108,35,Woman
140,612090,DepthScenes,duration_manipulation_targetAtFixation,jsons/VE83_randls_41.json,http://54.235.29.9/FacialAge/BNav_EC2/DepthDuration/v2_depth_duration_MTurk/v2_DepthDuration_HTML.html#5,5,1280,603,1280,720,8-29-2023,12-47-26,141,depth_duration_stimuli/001052_2014-06-08_18-24-54_260595134347_rgbf000130-resize_1/001052_2014-06-08_18-24-54_260595134347_rgbf000130-resize_1-target.png,83,4.1045,4,5553,83,meters,jsons/VE83_randls_41.json,1094072,1314108,35,Woman
141,612090,DepthScenes,duration_manipulation_targetAtFixation,jsons/VE83_randls_41.json,http://54.235.29.9/FacialAge/BNav_EC2/DepthDuration/v2_depth_duration_MTurk/v2_DepthDuration_HTML.html#5,5,1280,603,1280,720,8-29-2023,12-47-26,142,depth_duration_stimuli/001029_2014-06-08_13-17-57_260595134347_rgbf000065-resize_1/001029_2014-06-08_13-17-57_260595134347_rgbf000065-resize_1-target.png,83,3.0835,5,5884,83,meters,jsons/VE83_randls_41.json,1094072,1314108,35,Woman
142,612090,DepthScenes,duration_manipulation_targetAtFixation,jsons/VE83_randls_41.json,http://54.235.29.9/FacialAge/BNav_EC2/DepthDuration/v2_depth_duration_MTurk/v2_DepthDuration_HTML.html#5,5,1280,603,1280,720,8-29-2023,12-47-26,143,depth_duration_stimuli/000677_2014-06-08_23-10-32_260595134347_rgbf000158-resize_6/000677_2014-06-08_23-10-32_260595134347_rgbf000158-resize_6-target.png,83,3.556,5,4784,84,meters,jsons/VE83_randls_41.json,1094072,1314108,35,Woman
143,612090,DepthScenes,duration_manipulation_targetAtFixation,jsons/VE83_randls_41.json,http://54.235.29.9/FacialAge/BNav_EC2/DepthDuration/v2_depth_duration_MTurk/v2_DepthDuration_HTML.html#5,5,1280,603,1280,720,8-29-2023,12-47-26,144,depth_duration_stimuli/000878_2014-06-08_22-52-45_260595134347_rgbf000045-resize_2/000878_2014-06-08_22-52-45_260595134347_rgbf000045-resize_2-target.png,83,2.092,5,9635,84,meters,jsons/VE83_randls_41.json,1094072,1314108,35,Woman
144,612090,DepthScenes,duration_manipulation_targetAtFixation,jsons/VE83_randls_41.json,http://54.235.29.9/FacialAge/BNav_EC2/DepthDuration/v2_depth_duration_MTurk/v2_DepthDuration_HTML.html#5,5,1280,603,1280,720,8-29-2023,12-47-26,145,depth_duration_stimuli/002953_2014-06-08_17-32-18_094959634447_rgbf000059-resize_5/002953_2014-06-08_17-32-18_094959634447_rgbf000059-resize_5-target.png,83,1.551,0,5001,84,meters,jsons/VE83_randls_41.json,1094072,1314108,35,Woman
145,612090,DepthScenes,duration_manipulation_targetAtFixation,jsons/VE83_randls_41.json,http://54.235.29.9/FacialAge/BNav_EC2/DepthDuration/v2_depth_duration_MTurk/v2_DepthDuration_HTML.html#5,5,1280,603,1280,720,8-29-2023,12-47-26,146,depth_duration_stimuli/001498_2014-06-19_17-45-14_260595134347_rgbf000129-resize_4/001498_2014-06-19_17-45-14_260595134347_rgbf000129-resize-original.jpg,83,1.4075,0,5745,84,meters,jsons/VE83_randls_41.json,1094072,1314108,35,Woman
146,612090,DepthScenes,duration_manipulation_targetAtFixation,jsons/VE83_randls_41.json,http://54.235.29.9/FacialAge/BNav_EC2/DepthDuration/v2_depth_duration_MTurk/v2_DepthDuration_HTML.html#5,5,1280,603,1280,720,8-29-2023,12-47-26,147,depth_duration_stimuli/001059_2014-06-08_21-53-27_260595134347_rgbf000061-resize_4/001059_2014-06-08_21-53-27_260595134347_rgbf000061-resize_4-target.png,83,2.4185,4,6419,84,meters,jsons/VE83_randls_41.json,1094072,1314108,35,Woman
147,612090,DepthScenes,duration_manipulation_targetAtFixation,jsons/VE83_randls_41.json,http://54.235.29.9/FacialAge/BNav_EC2/DepthDuration/v2_depth_duration_MTurk/v2_DepthDuration_HTML.html#5,5,1280,603,1280,720,8-29-2023,12-47-26,148,depth_duration_stimuli/001032_2014-06-08_13-23-17_260595134347_rgbf000021-resize_3/001032_2014-06-08_13-23-17_260595134347_rgbf000021-resize_3-target.png,83,3.2725,4,4453,84,meters,jsons/VE83_randls_41.json,1094072,1314108,35,Woman
148,612090,DepthScenes,duration_manipulation_targetAtFixation,jsons/VE83_randls_41.json,http://54.235.29.9/FacialAge/BNav_EC2/DepthDuration/v2_depth_duration_MTurk/v2_DepthDuration_HTML.html#5,5,1280,603,1280,720,8-29-2023,12-47-26,149,depth_duration_stimuli/001092_2014-06-15_17-34-58_260595134347_rgbf000171-resize_3/001092_2014-06-15_17-34-58_260595134347_rgbf000171-resize_3-target.png,83,2.6935,3,9223,83,meters,jsons/VE83_randls_41.json,1094072,1314108,35,Woman
149,612090,DepthScenes,duration_manipulation_targetAtFixation,jsons/VE83_randls_41.json,http://54.235.29.9/FacialAge/BNav_EC2/DepthDuration/v2_depth_duration_MTurk/v2_DepthDuration_HTML.html#5,5,1280,603,1280,720,8-29-2023,12-47-26,150,depth_duration_stimuli/002545_2014-06-24_13-38-53_094959634447_rgbf000080-resize_4/002545_2014-06-24_13-38-53_094959634447_rgbf000080-resize_4-target.png,83,1.9205,4,5208,84,meters,jsons/VE83_randls_41.json,1094072,1314108,35,Woman
150,612090,DepthScenes,duration_manipulation_targetAtFixation,jsons/VE83_randls_41.json,http://54.235.29.9/FacialAge/BNav_EC2/DepthDuration/v2_depth_duration_MTurk/v2_DepthDuration_HTML.html#5,5,1280,603,1280,720,8-29-2023,12-47-26,151,depth_duration_stimuli/000682_2014-06-08_23-14-58_260595134347_rgbf000041-resize_5/000682_2014-06-08_23-14-58_260595134347_rgbf000041-resize_5-target.png,83,2.7239999999999998,3,5747,84,meters,jsons/VE83_randls_41.json,1094072,1314108,35,Woman
151,612090,DepthScenes,duration_manipulation_targetAtFixation,jsons/VE83_randls_41.json,http://54.235.29.9/FacialAge/BNav_EC2/DepthDuration/v2_depth_duration_MTurk/v2_DepthDuration_HTML.html#5,5,1280,603,1280,720,8-29-2023,12-47-26,152,depth_duration_stimuli/001650_2014-06-20_12-09-00_260595134347_rgbf000087-resize_3/001650_2014-06-20_12-09-00_260595134347_rgbf000087-resize_3-target.png,83,1.9505,3,5000,84,meters,jsons/VE83_randls_41.json,1094072,1314108,35,Woman
152,612090,DepthScenes,duration_manipulation_targetAtFixation,jsons/VE83_randls_41.json,http://54.235.29.9/FacialAge/BNav_EC2/DepthDuration/v2_depth_duration_MTurk/v2_DepthDuration_HTML.html#5,5,1280,603,1280,720,8-29-2023,12-47-26,153,depth_duration_stimuli/000469_2014-06-09_19-42-10_260595134347_rgbf000081-resize_1/000469_2014-06-09_19-42-10_260595134347_rgbf000081-resize_1-target.png,83,1.652,2,5480,83,meters,jsons/VE83_randls_41.json,1094072,1314108,35,Woman
153,612090,DepthScenes,duration_manipulation_targetAtFixation,jsons/VE83_randls_41.json,http://54.235.29.9/FacialAge/BNav_EC2/DepthDuration/v2_depth_duration_MTurk/v2_DepthDuration_HTML.html#5,5,1280,603,1280,720,8-29-2023,12-47-26,154,depth_duration_stimuli/000483_2014-06-09_20-41-45_260595134347_rgbf000116-resize_4/000483_2014-06-09_20-41-45_260595134347_rgbf000116-resize_4-target.png,83,1.337,2,4780,83,meters,jsons/VE83_randls_41.json,1094072,1314108,35,Woman
154,612090,DepthScenes,duration_manipulation_targetAtFixation,jsons/VE83_randls_41.json,http://54.235.29.9/FacialAge/BNav_EC2/DepthDuration/v2_depth_duration_MTurk/v2_DepthDuration_HTML.html#5,5,1280,603,1280,720,8-29-2023,12-47-26,155,depth_duration_stimuli/002549_2014-06-24_13-41-39_094959634447_rgbf000022-resize_3/002549_2014-06-24_13-41-39_094959634447_rgbf000022-resize_3-target.png,83,1.476,2,5904,84,meters,jsons/VE83_randls_41.json,1094072,1314108,35,Woman
155,612090,DepthScenes,duration_manipulation_targetAtFixation,jsons/VE83_randls_41.json,http://54.235.29.9/FacialAge/BNav_EC2/DepthDuration/v2_depth_duration_MTurk/v2_DepthDuration_HTML.html#5,5,1280,603,1280,720,8-29-2023,12-47-26,156,depth_duration_stimuli/002750_2014-06-22_19-08-03_094959634447_rgbf000094-resize_4/002750_2014-06-22_19-08-03_094959634447_rgbf000094-resize_4-target.png,83,2.354,4,4682,84,meters,jsons/VE83_randls_41.json,1094072,1314108,35,Woman
156,612090,DepthScenes,duration_manipulation_targetAtFixation,jsons/VE83_randls_41.json,http://54.235.29.9/FacialAge/BNav_EC2/DepthDuration/v2_depth_duration_MTurk/v2_DepthDuration_HTML.html#5,5,1280,603,1280,720,8-29-2023,12-47-26,157,depth_duration_stimuli/002725_2014-06-22_11-47-51_094959634447_rgbf000070-resize_1/002725_2014-06-22_11-47-51_094959634447_rgbf000070-resize_1-target.png,83,2.195,3,4949,84,meters,jsons/VE83_randls_41.json,1094072,1314108,35,Woman
157,612090,DepthScenes,duration_manipulation_targetAtFixation,jsons/VE83_randls_41.json,http://54.235.29.9/FacialAge/BNav_EC2/DepthDuration/v2_depth_duration_MTurk/v2_DepthDuration_HTML.html#5,5,1280,603,1280,720,8-29-2023,12-47-26,158,depth_duration_stimuli/002344_2014-06-28_20-06-29_260595134347_rgbf000030-resize_1/002344_2014-06-28_20-06-29_260595134347_rgbf000030-resize_1-target.png,83,1.5795,3,3758,83,meters,jsons/VE83_randls_41.json,1094072,1314108,35,Woman
158,612090,DepthScenes,duration_manipulation_targetAtFixation,jsons/VE83_randls_41.json,http://54.235.29.9/FacialAge/BNav_EC2/DepthDuration/v2_depth_duration_MTurk/v2_DepthDuration_HTML.html#5,5,1280,603,1280,720,8-29-2023,12-47-26,159,depth_duration_stimuli/002989_2014-06-15_12-25-03_094959634447_rgbf000150-resize_3/002989_2014-06-15_12-25-03_094959634447_rgbf000150-resize_3-target.png,83,4.1975,4,5402,84,meters,jsons/VE83_randls_41.json,1094072,1314108,35,Woman
159,612090,DepthScenes,duration_manipulation_targetAtFixation,jsons/VE83_randls_41.json,http://54.235.29.9/FacialAge/BNav_EC2/DepthDuration/v2_depth_duration_MTurk/v2_DepthDuration_HTML.html#5,5,1280,603,1280,720,8-29-2023,12-47-26,160,depth_duration_stimuli/000866_2014-06-09_20-45-42_260595134347_rgbf000139-resize_1/000866_2014-06-09_20-45-42_260595134347_rgbf000139-resize_1-target.png,83,3.2155,3,4011,83,meters,jsons/VE83_randls_41.json,1094072,1314108,35,Woman
160,612090,DepthScenes,duration_manipulation_targetAtFixation,jsons/VE83_randls_41.json,http://54.235.29.9/FacialAge/BNav_EC2/DepthDuration/v2_depth_duration_MTurk/v2_DepthDuration_HTML.html#5,5,1280,603,1280,720,8-29-2023,12-47-26,161,depth_duration_stimuli/001056_2014-06-08_18-46-44_260595134347_rgbf000068-resize_0/001056_2014-06-08_18-46-44_260595134347_rgbf000068-resize_0-target.png,83,2.6625,3,4309,83,meters,jsons/VE83_randls_41.json,1094072,1314108,35,Woman
161,612090,DepthScenes,duration_manipulation_targetAtFixation,jsons/VE83_randls_41.json,http://54.235.29.9/FacialAge/BNav_EC2/DepthDuration/v2_depth_duration_MTurk/v2_DepthDuration_HTML.html#5,5,1280,603,1280,720,8-29-2023,12-47-26,162,depth_duration_stimuli/002199_2014-06-28_18-33-56_260595134347_rgbf000074-resize_0/002199_2014-06-28_18-33-56_260595134347_rgbf000074-resize_0-target.png,83,1.996,3,4092,83,meters,jsons/VE83_randls_41.json,1094072,1314108,35,Woman
162,612090,DepthScenes,duration_manipulation_targetAtFixation,jsons/VE83_randls_41.json,http://54.235.29.9/FacialAge/BNav_EC2/DepthDuration/v2_depth_duration_MTurk/v2_DepthDuration_HTML.html#5,5,1280,603,1280,720,8-29-2023,12-47-26,163,depth_duration_stimuli/001417_2014-06-19_16-25-36_260595134347_rgbf000115-resize_5/001417_2014-06-19_16-25-36_260595134347_rgbf000115-resize_5-target.png,83,4.6255,3,4640,83,meters,jsons/VE83_randls_41.json,1094072,1314108,35,Woman
163,612090,DepthScenes,duration_manipulation_targetAtFixation,jsons/VE83_randls_41.json,http://54.235.29.9/FacialAge/BNav_EC2/DepthDuration/v2_depth_duration_MTurk/v2_DepthDuration_HTML.html#5,5,1280,603,1280,720,8-29-2023,12-47-26,164,depth_duration_stimuli/003081_2014-06-15_15-19-16_094959634447_rgbf000150-resize_1/003081_2014-06-15_15-19-16_094959634447_rgbf000150-resize_1-target.png,83,3.9125,2,4389,84,meters,jsons/VE83_randls_41.json,1094072,1314108,35,Woman
