,subjID,experimentName,versionName,sequenceName,url,selected_row,windowWidth,windowHeight,screenWidth,screenHeight,startDate,startTime,trial,stimulus,duration,actual_depth,depth_estimate,trial_RT,log_sceneDuration,unitSelection,seq_filepath,experimentTime,totalTime,age,gender
0,612169,DepthScenes,duration_manipulation_targetAtFixation,jsons/VE125_randls_63_rotated.json,http://54.235.29.9/FacialAge/BNav_EC2/DepthDuration/v2_depth_duration_MTurk/v2_DepthDuration_HTML.html#62,62,1366,625,1366,768,8-21-2022,6-52-59,1,depth_duration_stimuli/003129_2014-05-12_10-48-10_094959634447_rgbf000100-resize_0/003129_2014-05-12_10-48-10_094959634447_rgbf000100-resize_0-target.png,125,4.9305,200,3752,122,meters,jsons/VE125_randls_63_rotated.json,1279894,2508747,33,Man
1,612169,DepthScenes,duration_manipulation_targetAtFixation,jsons/VE125_randls_63_rotated.json,http://54.235.29.9/FacialAge/BNav_EC2/DepthDuration/v2_depth_duration_MTurk/v2_DepthDuration_HTML.html#62,62,1366,625,1366,768,8-21-2022,6-52-59,2,depth_duration_stimuli/000414_2014-06-04_19-49-13_260595134347_rgbf000044-resize_0/000414_2014-06-04_19-49-13_260595134347_rgbf000044-resize_0-target.png,125,4.329,100,4672,124,meters,jsons/VE125_randls_63_rotated.json,1279894,2508747,33,Man
2,612169,DepthScenes,duration_manipulation_targetAtFixation,jsons/VE125_randls_63_rotated.json,http://54.235.29.9/FacialAge/BNav_EC2/DepthDuration/v2_depth_duration_MTurk/v2_DepthDuration_HTML.html#62,62,1366,625,1366,768,8-21-2022,6-52-59,3,depth_duration_stimuli/000109_2014-05-14_23-41-52_260595134347_rgbf000035-resize_9/000109_2014-05-14_23-41-52_260595134347_rgbf000035-resize_9-target.png,125,1.3545,100,3046,122,meters,jsons/VE125_randls_63_rotated.json,1279894,2508747,33,Man
3,612169,DepthScenes,duration_manipulation_targetAtFixation,jsons/VE125_randls_63_rotated.json,http://54.235.29.9/FacialAge/BNav_EC2/DepthDuration/v2_depth_duration_MTurk/v2_DepthDuration_HTML.html#62,62,1366,625,1366,768,8-21-2022,6-52-59,4,depth_duration_stimuli/000470_2014-06-09_19-42-40_260595134347_rgbf000094-resize_1/000470_2014-06-09_19-42-40_260595134347_rgbf000094-resize_1-target.png,125,1.831,150,2943,121,meters,jsons/VE125_randls_63_rotated.json,1279894,2508747,33,Man
4,612169,DepthScenes,duration_manipulation_targetAtFixation,jsons/VE125_randls_63_rotated.json,http://54.235.29.9/FacialAge/BNav_EC2/DepthDuration/v2_depth_duration_MTurk/v2_DepthDuration_HTML.html#62,62,1366,625,1366,768,8-21-2022,6-52-59,5,depth_duration_stimuli/003338_2014-05-20_11-01-23_094959634447_rgbf000051-resize_6/003338_2014-05-20_11-01-23_094959634447_rgbf000051-resize_6-target.png,125,1.693,100,3850,123,meters,jsons/VE125_randls_63_rotated.json,1279894,2508747,33,Man
5,612169,DepthScenes,duration_manipulation_targetAtFixation,jsons/VE125_randls_63_rotated.json,http://54.235.29.9/FacialAge/BNav_EC2/DepthDuration/v2_depth_duration_MTurk/v2_DepthDuration_HTML.html#62,62,1366,625,1366,768,8-21-2022,6-52-59,6,depth_duration_stimuli/002509_2014-06-24_13-19-22_094959634447_rgbf000077-resize_0/002509_2014-06-24_13-19-22_094959634447_rgbf000077-resize_0-target.png,125,1.3065,75,3823,128,meters,jsons/VE125_randls_63_rotated.json,1279894,2508747,33,Man
6,612169,DepthScenes,duration_manipulation_targetAtFixation,jsons/VE125_randls_63_rotated.json,http://54.235.29.9/FacialAge/BNav_EC2/DepthDuration/v2_depth_duration_MTurk/v2_DepthDuration_HTML.html#62,62,1366,625,1366,768,8-21-2022,6-52-59,7,depth_duration_stimuli/003010_2014-06-15_12-54-35_094959634447_rgbf000112-resize_0/003010_2014-06-15_12-54-35_094959634447_rgbf000112-resize_0-target.png,125,3.1185,250,2947,111,meters,jsons/VE125_randls_63_rotated.json,1279894,2508747,33,Man
7,612169,DepthScenes,duration_manipulation_targetAtFixation,jsons/VE125_randls_63_rotated.json,http://54.235.29.9/FacialAge/BNav_EC2/DepthDuration/v2_depth_duration_MTurk/v2_DepthDuration_HTML.html#62,62,1366,625,1366,768,8-21-2022,6-52-59,8,depth_duration_stimuli/001810_2014-06-26_20-51-35_260595134347_rgbf000040-resize_3/001810_2014-06-26_20-51-35_260595134347_rgbf000040-resize_3-target.png,125,2.2525,150,3874,115,meters,jsons/VE125_randls_63_rotated.json,1279894,2508747,33,Man
8,612169,DepthScenes,duration_manipulation_targetAtFixation,jsons/VE125_randls_63_rotated.json,http://54.235.29.9/FacialAge/BNav_EC2/DepthDuration/v2_depth_duration_MTurk/v2_DepthDuration_HTML.html#62,62,1366,625,1366,768,8-21-2022,6-52-59,9,depth_duration_stimuli/003228_2014-05-14_13-42-35_094959634447_rgbf000101-resize_1/003228_2014-05-14_13-42-35_094959634447_rgbf000101-resize_1-target.png,125,1.9680000000000002,120,23955,116,meters,jsons/VE125_randls_63_rotated.json,1279894,2508747,33,Man
9,612169,DepthScenes,duration_manipulation_targetAtFixation,jsons/VE125_randls_63_rotated.json,http://54.235.29.9/FacialAge/BNav_EC2/DepthDuration/v2_depth_duration_MTurk/v2_DepthDuration_HTML.html#62,62,1366,625,1366,768,8-21-2022,6-52-59,10,depth_duration_stimuli/002600_2014-06-24_14-27-04_094959634447_rgbf000074-resize_2/002600_2014-06-24_14-27-04_094959634447_rgbf000074-resize_2-target.png,125,2.7575,120,7814,124,meters,jsons/VE125_randls_63_rotated.json,1279894,2508747,33,Man
10,612169,DepthScenes,duration_manipulation_targetAtFixation,jsons/VE125_randls_63_rotated.json,http://54.235.29.9/FacialAge/BNav_EC2/DepthDuration/v2_depth_duration_MTurk/v2_DepthDuration_HTML.html#62,62,1366,625,1366,768,8-21-2022,6-52-59,11,depth_duration_stimuli/002805_2014-06-22_19-54-03_094959634447_rgbf000079-resize_1/002805_2014-06-22_19-54-03_094959634447_rgbf000079-resize_1-target.png,125,3.1439999999999997,100,5424,122,meters,jsons/VE125_randls_63_rotated.json,1279894,2508747,33,Man
11,612169,DepthScenes,duration_manipulation_targetAtFixation,jsons/VE125_randls_63_rotated.json,http://54.235.29.9/FacialAge/BNav_EC2/DepthDuration/v2_depth_duration_MTurk/v2_DepthDuration_HTML.html#62,62,1366,625,1366,768,8-21-2022,6-52-59,12,depth_duration_stimuli/000906_2014-06-08_13-35-43_260595134347_rgbf000155-resize_1/000906_2014-06-08_13-35-43_260595134347_rgbf000155-resize_1-target.png,125,2.8489999999999998,100,5306,124,meters,jsons/VE125_randls_63_rotated.json,1279894,2508747,33,Man
12,612169,DepthScenes,duration_manipulation_targetAtFixation,jsons/VE125_randls_63_rotated.json,http://54.235.29.9/FacialAge/BNav_EC2/DepthDuration/v2_depth_duration_MTurk/v2_DepthDuration_HTML.html#62,62,1366,625,1366,768,8-21-2022,6-52-59,13,depth_duration_stimuli/003587_2014-05-23_16-48-02_094959634447_rgbf002384-resize_2/003587_2014-05-23_16-48-02_094959634447_rgbf002384-resize_2-target.png,125,1.357,50,28161,124,meters,jsons/VE125_randls_63_rotated.json,1279894,2508747,33,Man
13,612169,DepthScenes,duration_manipulation_targetAtFixation,jsons/VE125_randls_63_rotated.json,http://54.235.29.9/FacialAge/BNav_EC2/DepthDuration/v2_depth_duration_MTurk/v2_DepthDuration_HTML.html#62,62,1366,625,1366,768,8-21-2022,6-52-59,14,depth_duration_stimuli/001167_2014-06-17_15-38-07_260595134347_rgbf000108-resize_0/001167_2014-06-17_15-38-07_260595134347_rgbf000108-resize_0-target.png,125,1.8505,80,3110,123,meters,jsons/VE125_randls_63_rotated.json,1279894,2508747,33,Man
14,612169,DepthScenes,duration_manipulation_targetAtFixation,jsons/VE125_randls_63_rotated.json,http://54.235.29.9/FacialAge/BNav_EC2/DepthDuration/v2_depth_duration_MTurk/v2_DepthDuration_HTML.html#62,62,1366,625,1366,768,8-21-2022,6-52-59,15,depth_duration_stimuli/002995_2014-06-15_12-31-26_094959634447_rgbf000150-resize_1/002995_2014-06-15_12-31-26_094959634447_rgbf000150-resize_1-target.png,125,3.8360000000000003,100,2726,126,meters,jsons/VE125_randls_63_rotated.json,1279894,2508747,33,Man
15,612169,DepthScenes,duration_manipulation_targetAtFixation,jsons/VE125_randls_63_rotated.json,http://54.235.29.9/FacialAge/BNav_EC2/DepthDuration/v2_depth_duration_MTurk/v2_DepthDuration_HTML.html#62,62,1366,625,1366,768,8-21-2022,6-52-59,16,depth_duration_stimuli/002748_2014-06-22_19-07-22_094959634447_rgbf000078-resize_1/002748_2014-06-22_19-07-22_094959634447_rgbf000078-resize_1-target.png,125,4.6705,200,2704,134,meters,jsons/VE125_randls_63_rotated.json,1279894,2508747,33,Man
16,612169,DepthScenes,duration_manipulation_targetAtFixation,jsons/VE125_randls_63_rotated.json,http://54.235.29.9/FacialAge/BNav_EC2/DepthDuration/v2_depth_duration_MTurk/v2_DepthDuration_HTML.html#62,62,1366,625,1366,768,8-21-2022,6-52-59,17,depth_duration_stimuli/001584_2014-06-20_11-07-43_260595134347_rgbf000002-resize_1/001584_2014-06-20_11-07-43_260595134347_rgbf000002-resize_1-target.png,125,3.53,200,2674,117,meters,jsons/VE125_randls_63_rotated.json,1279894,2508747,33,Man
17,612169,DepthScenes,duration_manipulation_targetAtFixation,jsons/VE125_randls_63_rotated.json,http://54.235.29.9/FacialAge/BNav_EC2/DepthDuration/v2_depth_duration_MTurk/v2_DepthDuration_HTML.html#62,62,1366,625,1366,768,8-21-2022,6-52-59,18,depth_duration_stimuli/003621_2014-05-23_18-06-08_094959634447_rgbf000101-resize_1/003621_2014-05-23_18-06-08_094959634447_rgbf000101-resize_1-target.png,125,3.9835,100,2777,124,meters,jsons/VE125_randls_63_rotated.json,1279894,2508747,33,Man
18,612169,DepthScenes,duration_manipulation_targetAtFixation,jsons/VE125_randls_63_rotated.json,http://54.235.29.9/FacialAge/BNav_EC2/DepthDuration/v2_depth_duration_MTurk/v2_DepthDuration_HTML.html#62,62,1366,625,1366,768,8-21-2022,6-52-59,19,depth_duration_stimuli/001498_2014-06-19_17-45-14_260595134347_rgbf000129-resize_4/001498_2014-06-19_17-45-14_260595134347_rgbf000129-resize-original.jpg,125,1.4075,0,2576,127,meters,jsons/VE125_randls_63_rotated.json,1279894,2508747,33,Man
19,612169,DepthScenes,duration_manipulation_targetAtFixation,jsons/VE125_randls_63_rotated.json,http://54.235.29.9/FacialAge/BNav_EC2/DepthDuration/v2_depth_duration_MTurk/v2_DepthDuration_HTML.html#62,62,1366,625,1366,768,8-21-2022,6-52-59,20,depth_duration_stimuli/001447_2014-06-19_17-00-32_260595134347_rgbf000082-resize_5/001447_2014-06-19_17-00-32_260595134347_rgbf000082-resize_5-target.png,125,4.13775,100,3289,128,meters,jsons/VE125_randls_63_rotated.json,1279894,2508747,33,Man
20,612169,DepthScenes,duration_manipulation_targetAtFixation,jsons/VE125_randls_63_rotated.json,http://54.235.29.9/FacialAge/BNav_EC2/DepthDuration/v2_depth_duration_MTurk/v2_DepthDuration_HTML.html#62,62,1366,625,1366,768,8-21-2022,6-52-59,21,depth_duration_stimuli/000447_2014-06-08_16-15-46_260595134347_rgbf000130-resize_1/000447_2014-06-08_16-15-46_260595134347_rgbf000130-resize_1-target.png,125,4.479,150,3183,122,meters,jsons/VE125_randls_63_rotated.json,1279894,2508747,33,Man
21,612169,DepthScenes,duration_manipulation_targetAtFixation,jsons/VE125_randls_63_rotated.json,http://54.235.29.9/FacialAge/BNav_EC2/DepthDuration/v2_depth_duration_MTurk/v2_DepthDuration_HTML.html#62,62,1366,625,1366,768,8-21-2022,6-52-59,22,depth_duration_stimuli/001136_2014-06-17_15-19-41_260595134347_rgbf000076-resize_3/001136_2014-06-17_15-19-41_260595134347_rgbf000076-resize_3-target.png,125,1.8655,200,2713,129,meters,jsons/VE125_randls_63_rotated.json,1279894,2508747,33,Man
22,612169,DepthScenes,duration_manipulation_targetAtFixation,jsons/VE125_randls_63_rotated.json,http://54.235.29.9/FacialAge/BNav_EC2/DepthDuration/v2_depth_duration_MTurk/v2_DepthDuration_HTML.html#62,62,1366,625,1366,768,8-21-2022,6-52-59,23,depth_duration_stimuli/001164_2014-06-17_15-35-46_260595134347_rgbf000085-resize_3/001164_2014-06-17_15-35-46_260595134347_rgbf000085-resize_3-target.png,125,2.354,120,27969,118,meters,jsons/VE125_randls_63_rotated.json,1279894,2508747,33,Man
23,612169,DepthScenes,duration_manipulation_targetAtFixation,jsons/VE125_randls_63_rotated.json,http://54.235.29.9/FacialAge/BNav_EC2/DepthDuration/v2_depth_duration_MTurk/v2_DepthDuration_HTML.html#62,62,1366,625,1366,768,8-21-2022,6-52-59,24,depth_duration_stimuli/002467_2014-06-28_20-38-07_260595134347_rgbf000026-resize_2/002467_2014-06-28_20-38-07_260595134347_rgbf000026-resize_2-target.png,125,4.742,100,3682,129,meters,jsons/VE125_randls_63_rotated.json,1279894,2508747,33,Man
24,612169,DepthScenes,duration_manipulation_targetAtFixation,jsons/VE125_randls_63_rotated.json,http://54.235.29.9/FacialAge/BNav_EC2/DepthDuration/v2_depth_duration_MTurk/v2_DepthDuration_HTML.html#62,62,1366,625,1366,768,8-21-2022,6-52-59,25,depth_duration_stimuli/002570_2014-06-24_13-59-54_094959634447_rgbf000059-resize_0/002570_2014-06-24_13-59-54_094959634447_rgbf000059-resize_0-target.png,125,4.037,130,3729,122,meters,jsons/VE125_randls_63_rotated.json,1279894,2508747,33,Man
25,612169,DepthScenes,duration_manipulation_targetAtFixation,jsons/VE125_randls_63_rotated.json,http://54.235.29.9/FacialAge/BNav_EC2/DepthDuration/v2_depth_duration_MTurk/v2_DepthDuration_HTML.html#62,62,1366,625,1366,768,8-21-2022,6-52-59,26,depth_duration_stimuli/002209_2014-06-28_18-36-10_260595134347_rgbf000051-resize_1/002209_2014-06-28_18-36-10_260595134347_rgbf000051-resize_1-target.png,125,2.057,200,3784,125,meters,jsons/VE125_randls_63_rotated.json,1279894,2508747,33,Man
26,612169,DepthScenes,duration_manipulation_targetAtFixation,jsons/VE125_randls_63_rotated.json,http://54.235.29.9/FacialAge/BNav_EC2/DepthDuration/v2_depth_duration_MTurk/v2_DepthDuration_HTML.html#62,62,1366,625,1366,768,8-21-2022,6-52-59,27,depth_duration_stimuli/002763_2014-06-22_19-13-10_094959634447_rgbf000075-resize_4/002763_2014-06-22_19-13-10_094959634447_rgbf000075-resize_4-target.png,125,1.68375,100,3361,125,meters,jsons/VE125_randls_63_rotated.json,1279894,2508747,33,Man
27,612169,DepthScenes,duration_manipulation_targetAtFixation,jsons/VE125_randls_63_rotated.json,http://54.235.29.9/FacialAge/BNav_EC2/DepthDuration/v2_depth_duration_MTurk/v2_DepthDuration_HTML.html#62,62,1366,625,1366,768,8-21-2022,6-52-59,28,depth_duration_stimuli/001214_2014-06-17_16-13-55_260595134347_rgbf000111-resize_0/001214_2014-06-17_16-13-55_260595134347_rgbf000111-resize_0-target.png,125,2.6505,100,2579,127,meters,jsons/VE125_randls_63_rotated.json,1279894,2508747,33,Man
28,612169,DepthScenes,duration_manipulation_targetAtFixation,jsons/VE125_randls_63_rotated.json,http://54.235.29.9/FacialAge/BNav_EC2/DepthDuration/v2_depth_duration_MTurk/v2_DepthDuration_HTML.html#62,62,1366,625,1366,768,8-21-2022,6-52-59,29,depth_duration_stimuli/000810_2014-06-08_17-20-01_260595134347_rgbf000105-resize_0/000810_2014-06-08_17-20-01_260595134347_rgbf000105-resize_0-target.png,125,1.4865,120,3417,114,meters,jsons/VE125_randls_63_rotated.json,1279894,2508747,33,Man
29,612169,DepthScenes,duration_manipulation_targetAtFixation,jsons/VE125_randls_63_rotated.json,http://54.235.29.9/FacialAge/BNav_EC2/DepthDuration/v2_depth_duration_MTurk/v2_DepthDuration_HTML.html#62,62,1366,625,1366,768,8-21-2022,6-52-59,30,depth_duration_stimuli/002072_2014-06-24_21-48-06_260595134347_rgbf000115-resize_0/002072_2014-06-24_21-48-06_260595134347_rgbf000115-resize-original.jpg,125,4.702,35,4051,121,meters,jsons/VE125_randls_63_rotated.json,1279894,2508747,33,Man
30,612169,DepthScenes,duration_manipulation_targetAtFixation,jsons/VE125_randls_63_rotated.json,http://54.235.29.9/FacialAge/BNav_EC2/DepthDuration/v2_depth_duration_MTurk/v2_DepthDuration_HTML.html#62,62,1366,625,1366,768,8-21-2022,6-52-59,31,depth_duration_stimuli/002414_2014-06-28_20-24-58_260595134347_rgbf000067-resize_4/002414_2014-06-28_20-24-58_260595134347_rgbf000067-resize_4-target.png,125,4.363,50,28915,123,meters,jsons/VE125_randls_63_rotated.json,1279894,2508747,33,Man
31,612169,DepthScenes,duration_manipulation_targetAtFixation,jsons/VE125_randls_63_rotated.json,http://54.235.29.9/FacialAge/BNav_EC2/DepthDuration/v2_depth_duration_MTurk/v2_DepthDuration_HTML.html#62,62,1366,625,1366,768,8-21-2022,6-52-59,32,depth_duration_stimuli/000773_2014-06-08_22-24-54_260595134347_rgbf000093-resize_1/000773_2014-06-08_22-24-54_260595134347_rgbf000093-resize_1-target.png,125,4.973,50,3793,128,meters,jsons/VE125_randls_63_rotated.json,1279894,2508747,33,Man
32,612169,DepthScenes,duration_manipulation_targetAtFixation,jsons/VE125_randls_63_rotated.json,http://54.235.29.9/FacialAge/BNav_EC2/DepthDuration/v2_depth_duration_MTurk/v2_DepthDuration_HTML.html#62,62,1366,625,1366,768,8-21-2022,6-52-59,33,depth_duration_stimuli/003423_2014-05-21_10-23-26_094959634447_rgbf002665-resize_2/003423_2014-05-21_10-23-26_094959634447_rgbf002665-resize_2-target.png,125,3.2575,80,3425,129,meters,jsons/VE125_randls_63_rotated.json,1279894,2508747,33,Man
33,612169,DepthScenes,duration_manipulation_targetAtFixation,jsons/VE125_randls_63_rotated.json,http://54.235.29.9/FacialAge/BNav_EC2/DepthDuration/v2_depth_duration_MTurk/v2_DepthDuration_HTML.html#62,62,1366,625,1366,768,8-21-2022,6-52-59,34,depth_duration_stimuli/002905_2014-06-03_18-04-43_094959634447_rgbf000151-resize_2/002905_2014-06-03_18-04-43_094959634447_rgbf000151-resize_2-target.png,125,2.0295,40,5253,108,meters,jsons/VE125_randls_63_rotated.json,1279894,2508747,33,Man
34,612169,DepthScenes,duration_manipulation_targetAtFixation,jsons/VE125_randls_63_rotated.json,http://54.235.29.9/FacialAge/BNav_EC2/DepthDuration/v2_depth_duration_MTurk/v2_DepthDuration_HTML.html#62,62,1366,625,1366,768,8-21-2022,6-52-59,35,depth_duration_stimuli/000691_2014-06-08_13-08-50_260595134347_rgbf000132-resize_3/000691_2014-06-08_13-08-50_260595134347_rgbf000132-resize_3-target.png,125,4.1530000000000005,50,3155,125,meters,jsons/VE125_randls_63_rotated.json,1279894,2508747,33,Man
35,612169,DepthScenes,duration_manipulation_targetAtFixation,jsons/VE125_randls_63_rotated.json,http://54.235.29.9/FacialAge/BNav_EC2/DepthDuration/v2_depth_duration_MTurk/v2_DepthDuration_HTML.html#62,62,1366,625,1366,768,8-21-2022,6-52-59,36,depth_duration_stimuli/002213_2014-06-28_18-37-58_260595134347_rgbf000055-resize_1/002213_2014-06-28_18-37-58_260595134347_rgbf000055-resize_1-target.png,125,3.62,100,3310,123,meters,jsons/VE125_randls_63_rotated.json,1279894,2508747,33,Man
36,612169,DepthScenes,duration_manipulation_targetAtFixation,jsons/VE125_randls_63_rotated.json,http://54.235.29.9/FacialAge/BNav_EC2/DepthDuration/v2_depth_duration_MTurk/v2_DepthDuration_HTML.html#62,62,1366,625,1366,768,8-21-2022,6-52-59,37,depth_duration_stimuli/003083_2014-06-15_15-21-03_094959634447_rgbf000063-resize_1/003083_2014-06-15_15-21-03_094959634447_rgbf000063-resize_1-target.png,125,4.1405,100,2903,120,meters,jsons/VE125_randls_63_rotated.json,1279894,2508747,33,Man
37,612169,DepthScenes,duration_manipulation_targetAtFixation,jsons/VE125_randls_63_rotated.json,http://54.235.29.9/FacialAge/BNav_EC2/DepthDuration/v2_depth_duration_MTurk/v2_DepthDuration_HTML.html#62,62,1366,625,1366,768,8-21-2022,6-52-59,38,depth_duration_stimuli/000486_2014-06-09_20-47-20_260595134347_rgbf000143-resize_2/000486_2014-06-09_20-47-20_260595134347_rgbf000143-resize_2-target.png,125,4.8325,120,2466,125,meters,jsons/VE125_randls_63_rotated.json,1279894,2508747,33,Man
38,612169,DepthScenes,duration_manipulation_targetAtFixation,jsons/VE125_randls_63_rotated.json,http://54.235.29.9/FacialAge/BNav_EC2/DepthDuration/v2_depth_duration_MTurk/v2_DepthDuration_HTML.html#62,62,1366,625,1366,768,8-21-2022,6-52-59,39,depth_duration_stimuli/001617_2014-06-20_11-35-32_260595134347_rgbf000066-resize_1/001617_2014-06-20_11-35-32_260595134347_rgbf000066-resize_1-target.png,125,3.7910000000000004,130,26787,123,meters,jsons/VE125_randls_63_rotated.json,1279894,2508747,33,Man
39,612169,DepthScenes,duration_manipulation_targetAtFixation,jsons/VE125_randls_63_rotated.json,http://54.235.29.9/FacialAge/BNav_EC2/DepthDuration/v2_depth_duration_MTurk/v2_DepthDuration_HTML.html#62,62,1366,625,1366,768,8-21-2022,6-52-59,40,depth_duration_stimuli/001806_2014-06-26_20-50-20_260595134347_rgbf000091-resize_1/001806_2014-06-26_20-50-20_260595134347_rgbf000091-resize_1-target.png,125,2.7305,199,4041,123,meters,jsons/VE125_randls_63_rotated.json,1279894,2508747,33,Man
40,612169,DepthScenes,duration_manipulation_targetAtFixation,jsons/VE125_randls_63_rotated.json,http://54.235.29.9/FacialAge/BNav_EC2/DepthDuration/v2_depth_duration_MTurk/v2_DepthDuration_HTML.html#62,62,1366,625,1366,768,8-21-2022,6-52-59,41,depth_duration_stimuli/000866_2014-06-09_20-45-42_260595134347_rgbf000139-resize_1/000866_2014-06-09_20-45-42_260595134347_rgbf000139-resize_1-target.png,125,3.2155,50,3036,123,meters,jsons/VE125_randls_63_rotated.json,1279894,2508747,33,Man
41,612169,DepthScenes,duration_manipulation_targetAtFixation,jsons/VE125_randls_63_rotated.json,http://54.235.29.9/FacialAge/BNav_EC2/DepthDuration/v2_depth_duration_MTurk/v2_DepthDuration_HTML.html#62,62,1366,625,1366,768,8-21-2022,6-52-59,42,depth_duration_stimuli/002989_2014-06-15_12-25-03_094959634447_rgbf000150-resize_3/002989_2014-06-15_12-25-03_094959634447_rgbf000150-resize_3-target.png,125,4.1975,100,2944,124,meters,jsons/VE125_randls_63_rotated.json,1279894,2508747,33,Man
42,612169,DepthScenes,duration_manipulation_targetAtFixation,jsons/VE125_randls_63_rotated.json,http://54.235.29.9/FacialAge/BNav_EC2/DepthDuration/v2_depth_duration_MTurk/v2_DepthDuration_HTML.html#62,62,1366,625,1366,768,8-21-2022,6-52-59,43,depth_duration_stimuli/000927_2014-06-09_16-32-30_260595134347_rgbf000123-resize_3/000927_2014-06-09_16-32-30_260595134347_rgbf000123-resize_3-target.png,125,2.6785,0,9242,116,meters,jsons/VE125_randls_63_rotated.json,1279894,2508747,33,Man
43,612169,DepthScenes,duration_manipulation_targetAtFixation,jsons/VE125_randls_63_rotated.json,http://54.235.29.9/FacialAge/BNav_EC2/DepthDuration/v2_depth_duration_MTurk/v2_DepthDuration_HTML.html#62,62,1366,625,1366,768,8-21-2022,6-52-59,44,depth_duration_stimuli/001110_2014-06-15_17-25-28_260595134347_rgbf000150-resize_1/001110_2014-06-15_17-25-28_260595134347_rgbf000150-resize_1-target.png,125,1.7115,190,24021,128,meters,jsons/VE125_randls_63_rotated.json,1279894,2508747,33,Man
44,612169,DepthScenes,duration_manipulation_targetAtFixation,jsons/VE125_randls_63_rotated.json,http://54.235.29.9/FacialAge/BNav_EC2/DepthDuration/v2_depth_duration_MTurk/v2_DepthDuration_HTML.html#62,62,1366,625,1366,768,8-21-2022,6-52-59,45,depth_duration_stimuli/001100_2014-06-15_17-46-26_260595134347_rgbf000225-resize_2/001100_2014-06-15_17-46-26_260595134347_rgbf000225-resize_2-target.png,125,2.24,120,5911,128,meters,jsons/VE125_randls_63_rotated.json,1279894,2508747,33,Man
45,612169,DepthScenes,duration_manipulation_targetAtFixation,jsons/VE125_randls_63_rotated.json,http://54.235.29.9/FacialAge/BNav_EC2/DepthDuration/v2_depth_duration_MTurk/v2_DepthDuration_HTML.html#62,62,1366,625,1366,768,8-21-2022,6-52-59,46,depth_duration_stimuli/002784_2014-06-22_19-26-30_094959634447_rgbf000083-resize_3/002784_2014-06-22_19-26-30_094959634447_rgbf000083-resize_3-target.png,125,1.8046666666667,100,4613,113,meters,jsons/VE125_randls_63_rotated.json,1279894,2508747,33,Man
46,612169,DepthScenes,duration_manipulation_targetAtFixation,jsons/VE125_randls_63_rotated.json,http://54.235.29.9/FacialAge/BNav_EC2/DepthDuration/v2_depth_duration_MTurk/v2_DepthDuration_HTML.html#62,62,1366,625,1366,768,8-21-2022,6-52-59,47,depth_duration_stimuli/001032_2014-06-08_13-23-17_260595134347_rgbf000021-resize_3/001032_2014-06-08_13-23-17_260595134347_rgbf000021-resize_3-target.png,125,3.2725,150,4120,122,meters,jsons/VE125_randls_63_rotated.json,1279894,2508747,33,Man
47,612169,DepthScenes,duration_manipulation_targetAtFixation,jsons/VE125_randls_63_rotated.json,http://54.235.29.9/FacialAge/BNav_EC2/DepthDuration/v2_depth_duration_MTurk/v2_DepthDuration_HTML.html#62,62,1366,625,1366,768,8-21-2022,6-52-59,48,depth_duration_stimuli/001059_2014-06-08_21-53-27_260595134347_rgbf000061-resize_4/001059_2014-06-08_21-53-27_260595134347_rgbf000061-resize_4-target.png,125,2.4185,100,3164,137,meters,jsons/VE125_randls_63_rotated.json,1279894,2508747,33,Man
48,612169,DepthScenes,duration_manipulation_targetAtFixation,jsons/VE125_randls_63_rotated.json,http://54.235.29.9/FacialAge/BNav_EC2/DepthDuration/v2_depth_duration_MTurk/v2_DepthDuration_HTML.html#62,62,1366,625,1366,768,8-21-2022,6-52-59,49,depth_duration_stimuli/001170_2014-06-17_15-43-44_260595134347_rgbf000096-resize_6/001170_2014-06-17_15-43-44_260595134347_rgbf000096-resize-original.jpg,125,1.1909999999999998,0,4351,125,meters,jsons/VE125_randls_63_rotated.json,1279894,2508747,33,Man
49,612169,DepthScenes,duration_manipulation_targetAtFixation,jsons/VE125_randls_63_rotated.json,http://54.235.29.9/FacialAge/BNav_EC2/DepthDuration/v2_depth_duration_MTurk/v2_DepthDuration_HTML.html#62,62,1366,625,1366,768,8-21-2022,6-52-59,50,depth_duration_stimuli/001235_2014-06-17_16-37-36_260595134347_rgbf000084-resize_4/001235_2014-06-17_16-37-36_260595134347_rgbf000084-resize_4-target.png,125,3.6605,120,22370,90,meters,jsons/VE125_randls_63_rotated.json,1279894,2508747,33,Man
50,612169,DepthScenes,duration_manipulation_targetAtFixation,jsons/VE125_randls_63_rotated.json,http://54.235.29.9/FacialAge/BNav_EC2/DepthDuration/v2_depth_duration_MTurk/v2_DepthDuration_HTML.html#62,62,1366,625,1366,768,8-21-2022,6-52-59,51,depth_duration_stimuli/000788_2014-06-08_22-34-36_260595134347_rgbf000131-resize_1/000788_2014-06-08_22-34-36_260595134347_rgbf000131-resize_1-target.png,125,3.359,100,4011,122,meters,jsons/VE125_randls_63_rotated.json,1279894,2508747,33,Man
51,612169,DepthScenes,duration_manipulation_targetAtFixation,jsons/VE125_randls_63_rotated.json,http://54.235.29.9/FacialAge/BNav_EC2/DepthDuration/v2_depth_duration_MTurk/v2_DepthDuration_HTML.html#62,62,1366,625,1366,768,8-21-2022,6-52-59,52,depth_duration_stimuli/001516_2014-06-20_16-25-09_260595134347_rgbf000076-resize_2/001516_2014-06-20_16-25-09_260595134347_rgbf000076-resize_2-target.png,125,1.7445,120,3728,122,meters,jsons/VE125_randls_63_rotated.json,1279894,2508747,33,Man
52,612169,DepthScenes,duration_manipulation_targetAtFixation,jsons/VE125_randls_63_rotated.json,http://54.235.29.9/FacialAge/BNav_EC2/DepthDuration/v2_depth_duration_MTurk/v2_DepthDuration_HTML.html#62,62,1366,625,1366,768,8-21-2022,6-52-59,53,depth_duration_stimuli/002118_2014-06-25_20-32-08_260595134347_rgbf000078-resize_1/002118_2014-06-25_20-32-08_260595134347_rgbf000078-resize_1-target.png,125,2.6460000000000004,150,3790,117,meters,jsons/VE125_randls_63_rotated.json,1279894,2508747,33,Man
53,612169,DepthScenes,duration_manipulation_targetAtFixation,jsons/VE125_randls_63_rotated.json,http://54.235.29.9/FacialAge/BNav_EC2/DepthDuration/v2_depth_duration_MTurk/v2_DepthDuration_HTML.html#62,62,1366,625,1366,768,8-21-2022,6-52-59,54,depth_duration_stimuli/000854_2014-06-09_19-43-13_260595134347_rgbf000066-resize_0/000854_2014-06-09_19-43-13_260595134347_rgbf000066-resize_0-target.png,125,3.068,100,3679,118,meters,jsons/VE125_randls_63_rotated.json,1279894,2508747,33,Man
54,612169,DepthScenes,duration_manipulation_targetAtFixation,jsons/VE125_randls_63_rotated.json,http://54.235.29.9/FacialAge/BNav_EC2/DepthDuration/v2_depth_duration_MTurk/v2_DepthDuration_HTML.html#62,62,1366,625,1366,768,8-21-2022,6-52-59,55,depth_duration_stimuli/000758_2014-06-08_22-05-08_260595134347_rgbf000085-resize_0/000758_2014-06-08_22-05-08_260595134347_rgbf000085-resize_0-target.png,125,3.3810000000000002,120,95037,115,meters,jsons/VE125_randls_63_rotated.json,1279894,2508747,33,Man
55,612169,DepthScenes,duration_manipulation_targetAtFixation,jsons/VE125_randls_63_rotated.json,http://54.235.29.9/FacialAge/BNav_EC2/DepthDuration/v2_depth_duration_MTurk/v2_DepthDuration_HTML.html#62,62,1366,625,1366,768,8-21-2022,6-52-59,56,depth_duration_stimuli/000137_2014-05-20_17-04-49_260595134347_rgbf000120-resize_1/000137_2014-05-20_17-04-49_260595134347_rgbf000120-resize_1-target.png,125,3.786,100,3570,140,meters,jsons/VE125_randls_63_rotated.json,1279894,2508747,33,Man
56,612169,DepthScenes,duration_manipulation_targetAtFixation,jsons/VE125_randls_63_rotated.json,http://54.235.29.9/FacialAge/BNav_EC2/DepthDuration/v2_depth_duration_MTurk/v2_DepthDuration_HTML.html#62,62,1366,625,1366,768,8-21-2022,6-52-59,57,depth_duration_stimuli/000736_2014-06-08_18-24-15_260595134347_rgbf000206-resize_3/000736_2014-06-08_18-24-15_260595134347_rgbf000206-resize_3-target.png,125,3.515,120,2685,123,meters,jsons/VE125_randls_63_rotated.json,1279894,2508747,33,Man
57,612169,DepthScenes,duration_manipulation_targetAtFixation,jsons/VE125_randls_63_rotated.json,http://54.235.29.9/FacialAge/BNav_EC2/DepthDuration/v2_depth_duration_MTurk/v2_DepthDuration_HTML.html#62,62,1366,625,1366,768,8-21-2022,6-52-59,58,depth_duration_stimuli/001571_2014-06-20_17-21-32_260595134347_rgbf000089-resize_1/001571_2014-06-20_17-21-32_260595134347_rgbf000089-resize_1-target.png,125,1.86,130,3908,122,meters,jsons/VE125_randls_63_rotated.json,1279894,2508747,33,Man
58,612169,DepthScenes,duration_manipulation_targetAtFixation,jsons/VE125_randls_63_rotated.json,http://54.235.29.9/FacialAge/BNav_EC2/DepthDuration/v2_depth_duration_MTurk/v2_DepthDuration_HTML.html#62,62,1366,625,1366,768,8-21-2022,6-52-59,59,depth_duration_stimuli/002272_2014-06-28_18-53-56_260595134347_rgbf000067-resize_2/002272_2014-06-28_18-53-56_260595134347_rgbf000067-resize_2-target.png,125,1.138,100,3252,128,meters,jsons/VE125_randls_63_rotated.json,1279894,2508747,33,Man
59,612169,DepthScenes,duration_manipulation_targetAtFixation,jsons/VE125_randls_63_rotated.json,http://54.235.29.9/FacialAge/BNav_EC2/DepthDuration/v2_depth_duration_MTurk/v2_DepthDuration_HTML.html#62,62,1366,625,1366,768,8-21-2022,6-52-59,60,depth_duration_stimuli/002660_2014-06-13_15-44-18_094959634447_rgbf001878-resize_2/002660_2014-06-13_15-44-18_094959634447_rgbf001878-resize_2-target.png,125,3.576,100,51488,134,meters,jsons/VE125_randls_63_rotated.json,1279894,2508747,33,Man
60,612169,DepthScenes,duration_manipulation_targetAtFixation,jsons/VE125_randls_63_rotated.json,http://54.235.29.9/FacialAge/BNav_EC2/DepthDuration/v2_depth_duration_MTurk/v2_DepthDuration_HTML.html#62,62,1366,625,1366,768,8-21-2022,6-52-59,61,depth_duration_stimuli/002153_2014-06-25_21-27-18_260595134347_rgbf000038-resize_5/002153_2014-06-25_21-27-18_260595134347_rgbf000038-resize_5-target.png,125,2.505,200,3631,118,meters,jsons/VE125_randls_63_rotated.json,1279894,2508747,33,Man
61,612169,DepthScenes,duration_manipulation_targetAtFixation,jsons/VE125_randls_63_rotated.json,http://54.235.29.9/FacialAge/BNav_EC2/DepthDuration/v2_depth_duration_MTurk/v2_DepthDuration_HTML.html#62,62,1366,625,1366,768,8-21-2022,6-52-59,62,depth_duration_stimuli/000103_2014-05-14_22-01-17_260595134347_rgbf000152-resize_5/000103_2014-05-14_22-01-17_260595134347_rgbf000152-resize_5-target.png,125,1.993,200,2648,114,meters,jsons/VE125_randls_63_rotated.json,1279894,2508747,33,Man
62,612169,DepthScenes,duration_manipulation_targetAtFixation,jsons/VE125_randls_63_rotated.json,http://54.235.29.9/FacialAge/BNav_EC2/DepthDuration/v2_depth_duration_MTurk/v2_DepthDuration_HTML.html#62,62,1366,625,1366,768,8-21-2022,6-52-59,63,depth_duration_stimuli/001555_2014-06-20_17-12-10_260595134347_rgbf000065-resize_4/001555_2014-06-20_17-12-10_260595134347_rgbf000065-resize_4-target.png,125,1.633,100,2703,129,meters,jsons/VE125_randls_63_rotated.json,1279894,2508747,33,Man
63,612169,DepthScenes,duration_manipulation_targetAtFixation,jsons/VE125_randls_63_rotated.json,http://54.235.29.9/FacialAge/BNav_EC2/DepthDuration/v2_depth_duration_MTurk/v2_DepthDuration_HTML.html#62,62,1366,625,1366,768,8-21-2022,6-52-59,64,depth_duration_stimuli/000502_2014-06-08_23-02-32_260595134347_rgbf000063-resize_4/000502_2014-06-08_23-02-32_260595134347_rgbf000063-resize_4-target.png,125,2.431,100,10876,125,meters,jsons/VE125_randls_63_rotated.json,1279894,2508747,33,Man
64,612169,DepthScenes,duration_manipulation_targetAtFixation,jsons/VE125_randls_63_rotated.json,http://54.235.29.9/FacialAge/BNav_EC2/DepthDuration/v2_depth_duration_MTurk/v2_DepthDuration_HTML.html#62,62,1366,625,1366,768,8-21-2022,6-52-59,65,depth_duration_stimuli/001199_2014-06-17_16-03-48_260595134347_rgbf000077-resize_0/001199_2014-06-17_16-03-48_260595134347_rgbf000077-resize_0-target.png,125,3.4375,120,4067,124,meters,jsons/VE125_randls_63_rotated.json,1279894,2508747,33,Man
65,612169,DepthScenes,duration_manipulation_targetAtFixation,jsons/VE125_randls_63_rotated.json,http://54.235.29.9/FacialAge/BNav_EC2/DepthDuration/v2_depth_duration_MTurk/v2_DepthDuration_HTML.html#62,62,1366,625,1366,768,8-21-2022,6-52-59,66,depth_duration_stimuli/001540_2014-06-20_17-01-05_260595134347_rgbf000086-resize_2/001540_2014-06-20_17-01-05_260595134347_rgbf000086-resize-original.jpg,125,1.459,0,4013,123,meters,jsons/VE125_randls_63_rotated.json,1279894,2508747,33,Man
66,612169,DepthScenes,duration_manipulation_targetAtFixation,jsons/VE125_randls_63_rotated.json,http://54.235.29.9/FacialAge/BNav_EC2/DepthDuration/v2_depth_duration_MTurk/v2_DepthDuration_HTML.html#62,62,1366,625,1366,768,8-21-2022,6-52-59,67,depth_duration_stimuli/000556_2014-06-09_22-42-56_260595134347_rgbf000214-resize_1/000556_2014-06-09_22-42-56_260595134347_rgbf000214-resize_1-target.png,125,4.8415,120,3415,121,meters,jsons/VE125_randls_63_rotated.json,1279894,2508747,33,Man
67,612169,DepthScenes,duration_manipulation_targetAtFixation,jsons/VE125_randls_63_rotated.json,http://54.235.29.9/FacialAge/BNav_EC2/DepthDuration/v2_depth_duration_MTurk/v2_DepthDuration_HTML.html#62,62,1366,625,1366,768,8-21-2022,6-52-59,68,depth_duration_stimuli/001158_2014-06-17_15-32-16_260595134347_rgbf000138-resize_2/001158_2014-06-17_15-32-16_260595134347_rgbf000138-resize_2-target.png,125,4.5315,130,25524,124,meters,jsons/VE125_randls_63_rotated.json,1279894,2508747,33,Man
68,612169,DepthScenes,duration_manipulation_targetAtFixation,jsons/VE125_randls_63_rotated.json,http://54.235.29.9/FacialAge/BNav_EC2/DepthDuration/v2_depth_duration_MTurk/v2_DepthDuration_HTML.html#62,62,1366,625,1366,768,8-21-2022,6-52-59,69,depth_duration_stimuli/000709_2014-06-08_13-51-55_260595134347_rgbf000068-resize_3/000709_2014-06-08_13-51-55_260595134347_rgbf000068-resize_3-target.png,125,1.8030000000000002,40,4414,126,meters,jsons/VE125_randls_63_rotated.json,1279894,2508747,33,Man
69,612169,DepthScenes,duration_manipulation_targetAtFixation,jsons/VE125_randls_63_rotated.json,http://54.235.29.9/FacialAge/BNav_EC2/DepthDuration/v2_depth_duration_MTurk/v2_DepthDuration_HTML.html#62,62,1366,625,1366,768,8-21-2022,6-52-59,70,depth_duration_stimuli/002057_2014-06-24_21-00-13_260595134347_rgbf000120-resize_1/002057_2014-06-24_21-00-13_260595134347_rgbf000120-resize_1-target.png,125,2.967,50,2983,123,meters,jsons/VE125_randls_63_rotated.json,1279894,2508747,33,Man
70,612169,DepthScenes,duration_manipulation_targetAtFixation,jsons/VE125_randls_63_rotated.json,http://54.235.29.9/FacialAge/BNav_EC2/DepthDuration/v2_depth_duration_MTurk/v2_DepthDuration_HTML.html#62,62,1366,625,1366,768,8-21-2022,6-52-59,71,depth_duration_stimuli/002545_2014-06-24_13-38-53_094959634447_rgbf000080-resize_4/002545_2014-06-24_13-38-53_094959634447_rgbf000080-resize_4-target.png,125,1.9205,30,2599,125,meters,jsons/VE125_randls_63_rotated.json,1279894,2508747,33,Man
71,612169,DepthScenes,duration_manipulation_targetAtFixation,jsons/VE125_randls_63_rotated.json,http://54.235.29.9/FacialAge/BNav_EC2/DepthDuration/v2_depth_duration_MTurk/v2_DepthDuration_HTML.html#62,62,1366,625,1366,768,8-21-2022,6-52-59,72,depth_duration_stimuli/001092_2014-06-15_17-34-58_260595134347_rgbf000171-resize_3/001092_2014-06-15_17-34-58_260595134347_rgbf000171-resize_3-target.png,125,2.6935,60,2780,117,meters,jsons/VE125_randls_63_rotated.json,1279894,2508747,33,Man
72,612169,DepthScenes,duration_manipulation_targetAtFixation,jsons/VE125_randls_63_rotated.json,http://54.235.29.9/FacialAge/BNav_EC2/DepthDuration/v2_depth_duration_MTurk/v2_DepthDuration_HTML.html#62,62,1366,625,1366,768,8-21-2022,6-52-59,73,depth_duration_stimuli/002344_2014-06-28_20-06-29_260595134347_rgbf000030-resize_1/002344_2014-06-28_20-06-29_260595134347_rgbf000030-resize_1-target.png,125,1.5795,20,2674,120,meters,jsons/VE125_randls_63_rotated.json,1279894,2508747,33,Man
73,612169,DepthScenes,duration_manipulation_targetAtFixation,jsons/VE125_randls_63_rotated.json,http://54.235.29.9/FacialAge/BNav_EC2/DepthDuration/v2_depth_duration_MTurk/v2_DepthDuration_HTML.html#62,62,1366,625,1366,768,8-21-2022,6-52-59,74,depth_duration_stimuli/002725_2014-06-22_11-47-51_094959634447_rgbf000070-resize_1/002725_2014-06-22_11-47-51_094959634447_rgbf000070-resize_1-target.png,125,2.195,100,2864,130,meters,jsons/VE125_randls_63_rotated.json,1279894,2508747,33,Man
74,612169,DepthScenes,duration_manipulation_targetAtFixation,jsons/VE125_randls_63_rotated.json,http://54.235.29.9/FacialAge/BNav_EC2/DepthDuration/v2_depth_duration_MTurk/v2_DepthDuration_HTML.html#62,62,1366,625,1366,768,8-21-2022,6-52-59,75,depth_duration_stimuli/002323_2014-06-28_20-01-54_260595134347_rgbf000051-resize_4/002323_2014-06-28_20-01-54_260595134347_rgbf000051-resize_4-target.png,125,3.7310000000000003,100,2724,124,meters,jsons/VE125_randls_63_rotated.json,1279894,2508747,33,Man
75,612169,DepthScenes,duration_manipulation_targetAtFixation,jsons/VE125_randls_63_rotated.json,http://54.235.29.9/FacialAge/BNav_EC2/DepthDuration/v2_depth_duration_MTurk/v2_DepthDuration_HTML.html#62,62,1366,625,1366,768,8-21-2022,6-52-59,76,depth_duration_stimuli/000917_2014-06-09_22-45-29_260595134347_rgbf000149-resize_3/000917_2014-06-09_22-45-29_260595134347_rgbf000149-resize_3-target.png,125,4.1865,120,2448,134,meters,jsons/VE125_randls_63_rotated.json,1279894,2508747,33,Man
76,612169,DepthScenes,duration_manipulation_targetAtFixation,jsons/VE125_randls_63_rotated.json,http://54.235.29.9/FacialAge/BNav_EC2/DepthDuration/v2_depth_duration_MTurk/v2_DepthDuration_HTML.html#62,62,1366,625,1366,768,8-21-2022,6-52-59,77,depth_duration_stimuli/001828_2014-06-26_21-40-03_260595134347_rgbf000024-resize_0/001828_2014-06-26_21-40-03_260595134347_rgbf000024-resize_0-target.png,125,4.8260000000000005,100,77865,129,meters,jsons/VE125_randls_63_rotated.json,1279894,2508747,33,Man
77,612169,DepthScenes,duration_manipulation_targetAtFixation,jsons/VE125_randls_63_rotated.json,http://54.235.29.9/FacialAge/BNav_EC2/DepthDuration/v2_depth_duration_MTurk/v2_DepthDuration_HTML.html#62,62,1366,625,1366,768,8-21-2022,6-52-59,78,depth_duration_stimuli/000009_2014-05-26_14-32-05_260595134347_rgbf000034-resize_3/000009_2014-05-26_14-32-05_260595134347_rgbf000034-resize_3-target.png,125,3.8715,30,4549,123,meters,jsons/VE125_randls_63_rotated.json,1279894,2508747,33,Man
78,612169,DepthScenes,duration_manipulation_targetAtFixation,jsons/VE125_randls_63_rotated.json,http://54.235.29.9/FacialAge/BNav_EC2/DepthDuration/v2_depth_duration_MTurk/v2_DepthDuration_HTML.html#62,62,1366,625,1366,768,8-21-2022,6-52-59,79,depth_duration_stimuli/003495_2014-05-21_16-01-51_094959634447_rgbf000100-resize_3/003495_2014-05-21_16-01-51_094959634447_rgbf000100-resize_3-target.png,125,1.6255,40,2527,122,meters,jsons/VE125_randls_63_rotated.json,1279894,2508747,33,Man
79,612169,DepthScenes,duration_manipulation_targetAtFixation,jsons/VE125_randls_63_rotated.json,http://54.235.29.9/FacialAge/BNav_EC2/DepthDuration/v2_depth_duration_MTurk/v2_DepthDuration_HTML.html#62,62,1366,625,1366,768,8-21-2022,6-52-59,80,depth_duration_stimuli/001244_2014-06-17_16-47-45_260595134347_rgbf000030-resize_4/001244_2014-06-17_16-47-45_260595134347_rgbf000030-resize_4-target.png,125,2.0425,50,2291,124,meters,jsons/VE125_randls_63_rotated.json,1279894,2508747,33,Man
80,612169,DepthScenes,duration_manipulation_targetAtFixation,jsons/VE125_randls_63_rotated.json,http://54.235.29.9/FacialAge/BNav_EC2/DepthDuration/v2_depth_duration_MTurk/v2_DepthDuration_HTML.html#62,62,1366,625,1366,768,8-21-2022,6-52-59,81,depth_duration_stimuli/000549_2014-06-08_22-10-24_260595134347_rgbf000247-resize_3/000549_2014-06-08_22-10-24_260595134347_rgbf000247-resize_3-target.png,125,1.841,40,2258,124,meters,jsons/VE125_randls_63_rotated.json,1279894,2508747,33,Man
81,612169,DepthScenes,duration_manipulation_targetAtFixation,jsons/VE125_randls_63_rotated.json,http://54.235.29.9/FacialAge/BNav_EC2/DepthDuration/v2_depth_duration_MTurk/v2_DepthDuration_HTML.html#62,62,1366,625,1366,768,8-21-2022,6-52-59,82,depth_duration_stimuli/001055_2014-06-08_18-45-35_260595134347_rgbf000111-resize_4/001055_2014-06-08_18-45-35_260595134347_rgbf000111-resize_4-target.png,125,2.4290000000000003,100,2518,136,meters,jsons/VE125_randls_63_rotated.json,1279894,2508747,33,Man
82,612169,DepthScenes,duration_manipulation_targetAtFixation,jsons/VE125_randls_63_rotated.json,http://54.235.29.9/FacialAge/BNav_EC2/DepthDuration/v2_depth_duration_MTurk/v2_DepthDuration_HTML.html#62,62,1366,625,1366,768,8-21-2022,6-52-59,83,depth_duration_stimuli/000635_2014-06-08_16-38-42_260595134347_rgbf000106-resize_1/000635_2014-06-08_16-38-42_260595134347_rgbf000106-resize_1-target.png,125,2.074,80,21109,111,meters,jsons/VE125_randls_63_rotated.json,1279894,2508747,33,Man
83,612169,DepthScenes,duration_manipulation_targetAtFixation,jsons/VE125_randls_63_rotated.json,http://54.235.29.9/FacialAge/BNav_EC2/DepthDuration/v2_depth_duration_MTurk/v2_DepthDuration_HTML.html#62,62,1366,625,1366,768,8-21-2022,6-52-59,84,depth_duration_stimuli/002279_2014-06-28_18-55-32_260595134347_rgbf000040-resize_5/002279_2014-06-28_18-55-32_260595134347_rgbf000040-resize_5-target.png,125,1.5043333333333,20,4954,113,meters,jsons/VE125_randls_63_rotated.json,1279894,2508747,33,Man
84,612169,DepthScenes,duration_manipulation_targetAtFixation,jsons/VE125_randls_63_rotated.json,http://54.235.29.9/FacialAge/BNav_EC2/DepthDuration/v2_depth_duration_MTurk/v2_DepthDuration_HTML.html#62,62,1366,625,1366,768,8-21-2022,6-52-59,85,depth_duration_stimuli/000409_2014-06-04_19-23-33_260595134347_rgbf000067-resize_0/000409_2014-06-04_19-23-33_260595134347_rgbf000067-resize_0-target.png,125,3.7335,100,4748,139,meters,jsons/VE125_randls_63_rotated.json,1279894,2508747,33,Man
85,612169,DepthScenes,duration_manipulation_targetAtFixation,jsons/VE125_randls_63_rotated.json,http://54.235.29.9/FacialAge/BNav_EC2/DepthDuration/v2_depth_duration_MTurk/v2_DepthDuration_HTML.html#62,62,1366,625,1366,768,8-21-2022,6-52-59,86,depth_duration_stimuli/002663_2014-06-13_15-50-26_094959634447_rgbf000075-resize_1/002663_2014-06-13_15-50-26_094959634447_rgbf000075-resize_1-target.png,125,4.7495,100,2285,123,meters,jsons/VE125_randls_63_rotated.json,1279894,2508747,33,Man
86,612169,DepthScenes,duration_manipulation_targetAtFixation,jsons/VE125_randls_63_rotated.json,http://54.235.29.9/FacialAge/BNav_EC2/DepthDuration/v2_depth_duration_MTurk/v2_DepthDuration_HTML.html#62,62,1366,625,1366,768,8-21-2022,6-52-59,87,depth_duration_stimuli/002953_2014-06-08_17-32-18_094959634447_rgbf000059-resize_5/002953_2014-06-08_17-32-18_094959634447_rgbf000059-resize_5-target.png,125,1.551,60,3635,120,meters,jsons/VE125_randls_63_rotated.json,1279894,2508747,33,Man
87,612169,DepthScenes,duration_manipulation_targetAtFixation,jsons/VE125_randls_63_rotated.json,http://54.235.29.9/FacialAge/BNav_EC2/DepthDuration/v2_depth_duration_MTurk/v2_DepthDuration_HTML.html#62,62,1366,625,1366,768,8-21-2022,6-52-59,88,depth_duration_stimuli/000878_2014-06-08_22-52-45_260595134347_rgbf000045-resize_2/000878_2014-06-08_22-52-45_260595134347_rgbf000045-resize_2-target.png,125,2.092,50,2344,118,meters,jsons/VE125_randls_63_rotated.json,1279894,2508747,33,Man
88,612169,DepthScenes,duration_manipulation_targetAtFixation,jsons/VE125_randls_63_rotated.json,http://54.235.29.9/FacialAge/BNav_EC2/DepthDuration/v2_depth_duration_MTurk/v2_DepthDuration_HTML.html#62,62,1366,625,1366,768,8-21-2022,6-52-59,89,depth_duration_stimuli/002678_2014-06-13_16-15-32_094959634447_rgbf000151-resize_6/002678_2014-06-13_16-15-32_094959634447_rgbf000151-resize_6-target.png,125,2.1830000000000003,30,2742,129,meters,jsons/VE125_randls_63_rotated.json,1279894,2508747,33,Man
89,612169,DepthScenes,duration_manipulation_targetAtFixation,jsons/VE125_randls_63_rotated.json,http://54.235.29.9/FacialAge/BNav_EC2/DepthDuration/v2_depth_duration_MTurk/v2_DepthDuration_HTML.html#62,62,1366,625,1366,768,8-21-2022,6-52-59,90,depth_duration_stimuli/000368_2014-06-09_15-53-01_260595134347_rgbf000155-resize_2/000368_2014-06-09_15-53-01_260595134347_rgbf000155-resize_2-target.png,125,2.4859999999999998,90,3313,132,meters,jsons/VE125_randls_63_rotated.json,1279894,2508747,33,Man
90,612169,DepthScenes,duration_manipulation_targetAtFixation,jsons/VE125_randls_63_rotated.json,http://54.235.29.9/FacialAge/BNav_EC2/DepthDuration/v2_depth_duration_MTurk/v2_DepthDuration_HTML.html#62,62,1366,625,1366,768,8-21-2022,6-52-59,91,depth_duration_stimuli/001132_2014-06-17_14-48-54_260595134347_rgbf000100-resize_2/001132_2014-06-17_14-48-54_260595134347_rgbf000100-resize_2-target.png,125,3.753,120,2545,124,meters,jsons/VE125_randls_63_rotated.json,1279894,2508747,33,Man
91,612169,DepthScenes,duration_manipulation_targetAtFixation,jsons/VE125_randls_63_rotated.json,http://54.235.29.9/FacialAge/BNav_EC2/DepthDuration/v2_depth_duration_MTurk/v2_DepthDuration_HTML.html#62,62,1366,625,1366,768,8-21-2022,6-52-59,92,depth_duration_stimuli/001133_2014-06-17_14-49-16_260595134347_rgbf000100-resize_0/001133_2014-06-17_14-49-16_260595134347_rgbf000100-resize_0-target.png,125,4.2115,200,2349,117,meters,jsons/VE125_randls_63_rotated.json,1279894,2508747,33,Man
92,612169,DepthScenes,duration_manipulation_targetAtFixation,jsons/VE125_randls_63_rotated.json,http://54.235.29.9/FacialAge/BNav_EC2/DepthDuration/v2_depth_duration_MTurk/v2_DepthDuration_HTML.html#62,62,1366,625,1366,768,8-21-2022,6-52-59,93,depth_duration_stimuli/003490_2014-05-21_15-50-11_094959634447_rgbf000101-resize_3/003490_2014-05-21_15-50-11_094959634447_rgbf000101-resize_3-target.png,125,3.6445,120,2360,128,meters,jsons/VE125_randls_63_rotated.json,1279894,2508747,33,Man
93,612169,DepthScenes,duration_manipulation_targetAtFixation,jsons/VE125_randls_63_rotated.json,http://54.235.29.9/FacialAge/BNav_EC2/DepthDuration/v2_depth_duration_MTurk/v2_DepthDuration_HTML.html#62,62,1366,625,1366,768,8-21-2022,6-52-59,94,depth_duration_stimuli/001175_2014-06-17_15-45-55_260595134347_rgbf000129-resize_4/001175_2014-06-17_15-45-55_260595134347_rgbf000129-resize_4-target.png,125,4.255,100,2791,127,meters,jsons/VE125_randls_63_rotated.json,1279894,2508747,33,Man
94,612169,DepthScenes,duration_manipulation_targetAtFixation,jsons/VE125_randls_63_rotated.json,http://54.235.29.9/FacialAge/BNav_EC2/DepthDuration/v2_depth_duration_MTurk/v2_DepthDuration_HTML.html#62,62,1366,625,1366,768,8-21-2022,6-52-59,95,depth_duration_stimuli/000943_2014-06-09_19-31-07_260595134347_rgbf000128-resize_1/000943_2014-06-09_19-31-07_260595134347_rgbf000128-resize_1-target.png,125,1.9765,60,29222,124,meters,jsons/VE125_randls_63_rotated.json,1279894,2508747,33,Man
95,612169,DepthScenes,duration_manipulation_targetAtFixation,jsons/VE125_randls_63_rotated.json,http://54.235.29.9/FacialAge/BNav_EC2/DepthDuration/v2_depth_duration_MTurk/v2_DepthDuration_HTML.html#62,62,1366,625,1366,768,8-21-2022,6-52-59,96,depth_duration_stimuli/003070_2014-06-15_14-58-27_094959634447_rgbf000150-resize_3/003070_2014-06-15_14-58-27_094959634447_rgbf000150-resize_3-target.png,125,2.9415,90,4005,120,meters,jsons/VE125_randls_63_rotated.json,1279894,2508747,33,Man
96,612169,DepthScenes,duration_manipulation_targetAtFixation,jsons/VE125_randls_63_rotated.json,http://54.235.29.9/FacialAge/BNav_EC2/DepthDuration/v2_depth_duration_MTurk/v2_DepthDuration_HTML.html#62,62,1366,625,1366,768,8-21-2022,6-52-59,97,depth_duration_stimuli/002103_2014-06-25_20-00-40_260595134347_rgbf000049-resize_0/002103_2014-06-25_20-00-40_260595134347_rgbf000049-resize_0-target.png,125,4.105,40,2982,136,meters,jsons/VE125_randls_63_rotated.json,1279894,2508747,33,Man
97,612169,DepthScenes,duration_manipulation_targetAtFixation,jsons/VE125_randls_63_rotated.json,http://54.235.29.9/FacialAge/BNav_EC2/DepthDuration/v2_depth_duration_MTurk/v2_DepthDuration_HTML.html#62,62,1366,625,1366,768,8-21-2022,6-52-59,98,depth_duration_stimuli/002039_2014-06-24_20-22-38_260595134347_rgbf000084-resize_1/002039_2014-06-24_20-22-38_260595134347_rgbf000084-resize_1-target.png,125,4.408,90,2846,128,meters,jsons/VE125_randls_63_rotated.json,1279894,2508747,33,Man
98,612169,DepthScenes,duration_manipulation_targetAtFixation,jsons/VE125_randls_63_rotated.json,http://54.235.29.9/FacialAge/BNav_EC2/DepthDuration/v2_depth_duration_MTurk/v2_DepthDuration_HTML.html#62,62,1366,625,1366,768,8-21-2022,6-52-59,99,depth_duration_stimuli/001222_2014-06-17_16-24-06_260595134347_rgbf000073-resize_0/001222_2014-06-17_16-24-06_260595134347_rgbf000073-resize-original.jpg,125,1.4385,0,5916,135,meters,jsons/VE125_randls_63_rotated.json,1279894,2508747,33,Man
99,612169,DepthScenes,duration_manipulation_targetAtFixation,jsons/VE125_randls_63_rotated.json,http://54.235.29.9/FacialAge/BNav_EC2/DepthDuration/v2_depth_duration_MTurk/v2_DepthDuration_HTML.html#62,62,1366,625,1366,768,8-21-2022,6-52-59,100,depth_duration_stimuli/000191_2014-05-12_17-07-38_260595134347_rgbf000199-resize_0/000191_2014-05-12_17-07-38_260595134347_rgbf000199-resize_0-target.png,125,3.7995,100,21022,120,meters,jsons/VE125_randls_63_rotated.json,1279894,2508747,33,Man
100,612169,DepthScenes,duration_manipulation_targetAtFixation,jsons/VE125_randls_63_rotated.json,http://54.235.29.9/FacialAge/BNav_EC2/DepthDuration/v2_depth_duration_MTurk/v2_DepthDuration_HTML.html#62,62,1366,625,1366,768,8-21-2022,6-52-59,101,depth_duration_stimuli/000493_2014-06-09_21-01-18_260595134347_rgbf000196-resize_3/000493_2014-06-09_21-01-18_260595134347_rgbf000196-resize_3-target.png,125,3.44,60,3057,139,meters,jsons/VE125_randls_63_rotated.json,1279894,2508747,33,Man
101,612169,DepthScenes,duration_manipulation_targetAtFixation,jsons/VE125_randls_63_rotated.json,http://54.235.29.9/FacialAge/BNav_EC2/DepthDuration/v2_depth_duration_MTurk/v2_DepthDuration_HTML.html#62,62,1366,625,1366,768,8-21-2022,6-52-59,102,depth_duration_stimuli/003081_2014-06-15_15-19-16_094959634447_rgbf000150-resize_1/003081_2014-06-15_15-19-16_094959634447_rgbf000150-resize_1-target.png,125,3.9125,80,3147,114,meters,jsons/VE125_randls_63_rotated.json,1279894,2508747,33,Man
102,612169,DepthScenes,duration_manipulation_targetAtFixation,jsons/VE125_randls_63_rotated.json,http://54.235.29.9/FacialAge/BNav_EC2/DepthDuration/v2_depth_duration_MTurk/v2_DepthDuration_HTML.html#62,62,1366,625,1366,768,8-21-2022,6-52-59,103,depth_duration_stimuli/001417_2014-06-19_16-25-36_260595134347_rgbf000115-resize_5/001417_2014-06-19_16-25-36_260595134347_rgbf000115-resize_5-target.png,125,4.6255,90,2372,135,meters,jsons/VE125_randls_63_rotated.json,1279894,2508747,33,Man
103,612169,DepthScenes,duration_manipulation_targetAtFixation,jsons/VE125_randls_63_rotated.json,http://54.235.29.9/FacialAge/BNav_EC2/DepthDuration/v2_depth_duration_MTurk/v2_DepthDuration_HTML.html#62,62,1366,625,1366,768,8-21-2022,6-52-59,104,depth_duration_stimuli/002657_2014-06-13_15-29-54_094959634447_rgbf000150-resize_1/002657_2014-06-13_15-29-54_094959634447_rgbf000150-resize_1-target.png,125,4.919,90,2751,115,meters,jsons/VE125_randls_63_rotated.json,1279894,2508747,33,Man
104,612169,DepthScenes,duration_manipulation_targetAtFixation,jsons/VE125_randls_63_rotated.json,http://54.235.29.9/FacialAge/BNav_EC2/DepthDuration/v2_depth_duration_MTurk/v2_DepthDuration_HTML.html#62,62,1366,625,1366,768,8-21-2022,6-52-59,105,depth_duration_stimuli/002375_2014-06-28_20-13-44_260595134347_rgbf000032-resize_1/002375_2014-06-28_20-13-44_260595134347_rgbf000032-resize_1-target.png,125,4.0175,80,2116,123,meters,jsons/VE125_randls_63_rotated.json,1279894,2508747,33,Man
105,612169,DepthScenes,duration_manipulation_targetAtFixation,jsons/VE125_randls_63_rotated.json,http://54.235.29.9/FacialAge/BNav_EC2/DepthDuration/v2_depth_duration_MTurk/v2_DepthDuration_HTML.html#62,62,1366,625,1366,768,8-21-2022,6-52-59,106,depth_duration_stimuli/002758_2014-06-22_19-11-20_094959634447_rgbf000128-resize_1/002758_2014-06-22_19-11-20_094959634447_rgbf000128-resize_1-target.png,125,2.555,70,2677,115,meters,jsons/VE125_randls_63_rotated.json,1279894,2508747,33,Man
106,612169,DepthScenes,duration_manipulation_targetAtFixation,jsons/VE125_randls_63_rotated.json,http://54.235.29.9/FacialAge/BNav_EC2/DepthDuration/v2_depth_duration_MTurk/v2_DepthDuration_HTML.html#62,62,1366,625,1366,768,8-21-2022,6-52-59,107,depth_duration_stimuli/002630_2014-06-24_14-47-50_094959634447_rgbf000055-resize_1/002630_2014-06-24_14-47-50_094959634447_rgbf000055-resize_1-target.png,125,3.0095,90,2710,109,meters,jsons/VE125_randls_63_rotated.json,1279894,2508747,33,Man
107,612169,DepthScenes,duration_manipulation_targetAtFixation,jsons/VE125_randls_63_rotated.json,http://54.235.29.9/FacialAge/BNav_EC2/DepthDuration/v2_depth_duration_MTurk/v2_DepthDuration_HTML.html#62,62,1366,625,1366,768,8-21-2022,6-52-59,108,depth_duration_stimuli/000665_2014-06-09_20-42-35_260595134347_rgbf000110-resize_1/000665_2014-06-09_20-42-35_260595134347_rgbf000110-resize_1-target.png,125,3.057,90,32444,117,meters,jsons/VE125_randls_63_rotated.json,1279894,2508747,33,Man
108,612169,DepthScenes,duration_manipulation_targetAtFixation,jsons/VE125_randls_63_rotated.json,http://54.235.29.9/FacialAge/BNav_EC2/DepthDuration/v2_depth_duration_MTurk/v2_DepthDuration_HTML.html#62,62,1366,625,1366,768,8-21-2022,6-52-59,109,depth_duration_stimuli/001150_2014-06-17_15-27-34_260595134347_rgbf000108-resize_2/001150_2014-06-17_15-27-34_260595134347_rgbf000108-resize_2-target.png,125,4.0325,40,3910,129,meters,jsons/VE125_randls_63_rotated.json,1279894,2508747,33,Man
109,612169,DepthScenes,duration_manipulation_targetAtFixation,jsons/VE125_randls_63_rotated.json,http://54.235.29.9/FacialAge/BNav_EC2/DepthDuration/v2_depth_duration_MTurk/v2_DepthDuration_HTML.html#62,62,1366,625,1366,768,8-21-2022,6-52-59,110,depth_duration_stimuli/002425_2014-06-28_20-27-29_260595134347_rgbf000031-resize_8/002425_2014-06-28_20-27-29_260595134347_rgbf000031-resize_8-target.png,125,3.8960000000000004,60,2868,126,meters,jsons/VE125_randls_63_rotated.json,1279894,2508747,33,Man
110,612169,DepthScenes,duration_manipulation_targetAtFixation,jsons/VE125_randls_63_rotated.json,http://54.235.29.9/FacialAge/BNav_EC2/DepthDuration/v2_depth_duration_MTurk/v2_DepthDuration_HTML.html#62,62,1366,625,1366,768,8-21-2022,6-52-59,111,depth_duration_stimuli/000642_2014-06-08_16-59-25_260595134347_rgbf000098-resize_2/000642_2014-06-08_16-59-25_260595134347_rgbf000098-resize_2-target.png,125,2.8815,80,2706,139,meters,jsons/VE125_randls_63_rotated.json,1279894,2508747,33,Man
111,612169,DepthScenes,duration_manipulation_targetAtFixation,jsons/VE125_randls_63_rotated.json,http://54.235.29.9/FacialAge/BNav_EC2/DepthDuration/v2_depth_duration_MTurk/v2_DepthDuration_HTML.html#62,62,1366,625,1366,768,8-21-2022,6-52-59,112,depth_duration_stimuli/002444_2014-06-28_20-32-08_260595134347_rgbf000027-resize_0/002444_2014-06-28_20-32-08_260595134347_rgbf000027-resize_0-target.png,125,4.388999999999999,100,27739,127,meters,jsons/VE125_randls_63_rotated.json,1279894,2508747,33,Man
112,612169,DepthScenes,duration_manipulation_targetAtFixation,jsons/VE125_randls_63_rotated.json,http://54.235.29.9/FacialAge/BNav_EC2/DepthDuration/v2_depth_duration_MTurk/v2_DepthDuration_HTML.html#62,62,1366,625,1366,768,8-21-2022,6-52-59,113,depth_duration_stimuli/000436_2014-06-09_22-25-11_260595134347_rgbf000137-resize_1/000436_2014-06-09_22-25-11_260595134347_rgbf000137-resize_1-target.png,125,4.0705,100,3683,130,meters,jsons/VE125_randls_63_rotated.json,1279894,2508747,33,Man
113,612169,DepthScenes,duration_manipulation_targetAtFixation,jsons/VE125_randls_63_rotated.json,http://54.235.29.9/FacialAge/BNav_EC2/DepthDuration/v2_depth_duration_MTurk/v2_DepthDuration_HTML.html#62,62,1366,625,1366,768,8-21-2022,6-52-59,114,depth_duration_stimuli/001392_2014-06-19_16-07-59_260595134347_rgbf000046-resize_1/001392_2014-06-19_16-07-59_260595134347_rgbf000046-resize_1-target.png,125,4.135,20,3759,114,meters,jsons/VE125_randls_63_rotated.json,1279894,2508747,33,Man
114,612169,DepthScenes,duration_manipulation_targetAtFixation,jsons/VE125_randls_63_rotated.json,http://54.235.29.9/FacialAge/BNav_EC2/DepthDuration/v2_depth_duration_MTurk/v2_DepthDuration_HTML.html#62,62,1366,625,1366,768,8-21-2022,6-52-59,115,depth_duration_stimuli/001570_2014-06-20_17-21-09_260595134347_rgbf000135-resize_4/001570_2014-06-20_17-21-09_260595134347_rgbf000135-resize_4-target.png,125,4.467,40,2384,138,meters,jsons/VE125_randls_63_rotated.json,1279894,2508747,33,Man
115,612169,DepthScenes,duration_manipulation_targetAtFixation,jsons/VE125_randls_63_rotated.json,http://54.235.29.9/FacialAge/BNav_EC2/DepthDuration/v2_depth_duration_MTurk/v2_DepthDuration_HTML.html#62,62,1366,625,1366,768,8-21-2022,6-52-59,116,depth_duration_stimuli/001815_2014-06-26_20-52-55_260595134347_rgbf000020-resize_0/001815_2014-06-26_20-52-55_260595134347_rgbf000020-resize_0-target.png,125,3.3865,0,4842,138,meters,jsons/VE125_randls_63_rotated.json,1279894,2508747,33,Man
116,612169,DepthScenes,duration_manipulation_targetAtFixation,jsons/VE125_randls_63_rotated.json,http://54.235.29.9/FacialAge/BNav_EC2/DepthDuration/v2_depth_duration_MTurk/v2_DepthDuration_HTML.html#62,62,1366,625,1366,768,8-21-2022,6-52-59,117,depth_duration_stimuli/001808_2014-06-26_20-50-58_260595134347_rgbf000029-resize_1/001808_2014-06-26_20-50-58_260595134347_rgbf000029-resize_1-target.png,125,4.249,100,2885,118,meters,jsons/VE125_randls_63_rotated.json,1279894,2508747,33,Man
117,612169,DepthScenes,duration_manipulation_targetAtFixation,jsons/VE125_randls_63_rotated.json,http://54.235.29.9/FacialAge/BNav_EC2/DepthDuration/v2_depth_duration_MTurk/v2_DepthDuration_HTML.html#62,62,1366,625,1366,768,8-21-2022,6-52-59,118,depth_duration_stimuli/002750_2014-06-22_19-08-03_094959634447_rgbf000094-resize_4/002750_2014-06-22_19-08-03_094959634447_rgbf000094-resize_4-target.png,125,2.354,80,2701,116,meters,jsons/VE125_randls_63_rotated.json,1279894,2508747,33,Man
118,612169,DepthScenes,duration_manipulation_targetAtFixation,jsons/VE125_randls_63_rotated.json,http://54.235.29.9/FacialAge/BNav_EC2/DepthDuration/v2_depth_duration_MTurk/v2_DepthDuration_HTML.html#62,62,1366,625,1366,768,8-21-2022,6-52-59,119,depth_duration_stimuli/002549_2014-06-24_13-41-39_094959634447_rgbf000022-resize_3/002549_2014-06-24_13-41-39_094959634447_rgbf000022-resize_3-target.png,125,1.476,60,3165,136,meters,jsons/VE125_randls_63_rotated.json,1279894,2508747,33,Man
119,612169,DepthScenes,duration_manipulation_targetAtFixation,jsons/VE125_randls_63_rotated.json,http://54.235.29.9/FacialAge/BNav_EC2/DepthDuration/v2_depth_duration_MTurk/v2_DepthDuration_HTML.html#62,62,1366,625,1366,768,8-21-2022,6-52-59,120,depth_duration_stimuli/000787_2014-06-08_22-33-53_260595134347_rgbf000175-resize_1/000787_2014-06-08_22-33-53_260595134347_rgbf000175-resize-original.jpg,125,4.784,0,2192,123,meters,jsons/VE125_randls_63_rotated.json,1279894,2508747,33,Man
120,612169,DepthScenes,duration_manipulation_targetAtFixation,jsons/VE125_randls_63_rotated.json,http://54.235.29.9/FacialAge/BNav_EC2/DepthDuration/v2_depth_duration_MTurk/v2_DepthDuration_HTML.html#62,62,1366,625,1366,768,8-21-2022,6-52-59,121,depth_duration_stimuli/003048_2014-06-15_13-49-43_094959634447_rgbf000150-resize_1/003048_2014-06-15_13-49-43_094959634447_rgbf000150-resize_1-target.png,125,4.0035,70,22910,124,meters,jsons/VE125_randls_63_rotated.json,1279894,2508747,33,Man
121,612169,DepthScenes,duration_manipulation_targetAtFixation,jsons/VE125_randls_63_rotated.json,http://54.235.29.9/FacialAge/BNav_EC2/DepthDuration/v2_depth_duration_MTurk/v2_DepthDuration_HTML.html#62,62,1366,625,1366,768,8-21-2022,6-52-59,122,depth_duration_stimuli/002043_2014-06-24_20-29-38_260595134347_rgbf000039-resize_4/002043_2014-06-24_20-29-38_260595134347_rgbf000039-resize_4-target.png,125,2.8435,100,4695,119,meters,jsons/VE125_randls_63_rotated.json,1279894,2508747,33,Man
122,612169,DepthScenes,duration_manipulation_targetAtFixation,jsons/VE125_randls_63_rotated.json,http://54.235.29.9/FacialAge/BNav_EC2/DepthDuration/v2_depth_duration_MTurk/v2_DepthDuration_HTML.html#62,62,1366,625,1366,768,8-21-2022,6-52-59,123,depth_duration_stimuli/001650_2014-06-20_12-09-00_260595134347_rgbf000087-resize_3/001650_2014-06-20_12-09-00_260595134347_rgbf000087-resize_3-target.png,125,1.9505,40,4004,131,meters,jsons/VE125_randls_63_rotated.json,1279894,2508747,33,Man
123,612169,DepthScenes,duration_manipulation_targetAtFixation,jsons/VE125_randls_63_rotated.json,http://54.235.29.9/FacialAge/BNav_EC2/DepthDuration/v2_depth_duration_MTurk/v2_DepthDuration_HTML.html#62,62,1366,625,1366,768,8-21-2022,6-52-59,124,depth_duration_stimuli/000682_2014-06-08_23-14-58_260595134347_rgbf000041-resize_5/000682_2014-06-08_23-14-58_260595134347_rgbf000041-resize_5-target.png,125,2.7239999999999998,0,5538,123,meters,jsons/VE125_randls_63_rotated.json,1279894,2508747,33,Man
124,612169,DepthScenes,duration_manipulation_targetAtFixation,jsons/VE125_randls_63_rotated.json,http://54.235.29.9/FacialAge/BNav_EC2/DepthDuration/v2_depth_duration_MTurk/v2_DepthDuration_HTML.html#62,62,1366,625,1366,768,8-21-2022,6-52-59,125,depth_duration_stimuli/001094_2014-06-15_17-36-00_260595134347_rgbf000205-resize_0/001094_2014-06-15_17-36-00_260595134347_rgbf000205-resize_0-target.png,125,4.2175,40,6489,125,meters,jsons/VE125_randls_63_rotated.json,1279894,2508747,33,Man
125,612169,DepthScenes,duration_manipulation_targetAtFixation,jsons/VE125_randls_63_rotated.json,http://54.235.29.9/FacialAge/BNav_EC2/DepthDuration/v2_depth_duration_MTurk/v2_DepthDuration_HTML.html#62,62,1366,625,1366,768,8-21-2022,6-52-59,126,depth_duration_stimuli/000692_2014-06-08_13-09-42_260595134347_rgbf000199-resize_2/000692_2014-06-08_13-09-42_260595134347_rgbf000199-resize_2-target.png,125,3.661,50,3074,110,meters,jsons/VE125_randls_63_rotated.json,1279894,2508747,33,Man
126,612169,DepthScenes,duration_manipulation_targetAtFixation,jsons/VE125_randls_63_rotated.json,http://54.235.29.9/FacialAge/BNav_EC2/DepthDuration/v2_depth_duration_MTurk/v2_DepthDuration_HTML.html#62,62,1366,625,1366,768,8-21-2022,6-52-59,127,depth_duration_stimuli/002875_2014-06-01_15-19-00_094959634447_rgbf000151-resize_1/002875_2014-06-01_15-19-00_094959634447_rgbf000151-resize_1-target.png,125,1.9675,60,21384,111,meters,jsons/VE125_randls_63_rotated.json,1279894,2508747,33,Man
127,612169,DepthScenes,duration_manipulation_targetAtFixation,jsons/VE125_randls_63_rotated.json,http://54.235.29.9/FacialAge/BNav_EC2/DepthDuration/v2_depth_duration_MTurk/v2_DepthDuration_HTML.html#62,62,1366,625,1366,768,8-21-2022,6-52-59,128,depth_duration_stimuli/001011_2014-06-08_23-18-54_260595134347_rgbf000044-resize_4/001011_2014-06-08_23-18-54_260595134347_rgbf000044-resize_4-target.png,125,2.4730000000000003,90,4121,113,meters,jsons/VE125_randls_63_rotated.json,1279894,2508747,33,Man
128,612169,DepthScenes,duration_manipulation_targetAtFixation,jsons/VE125_randls_63_rotated.json,http://54.235.29.9/FacialAge/BNav_EC2/DepthDuration/v2_depth_duration_MTurk/v2_DepthDuration_HTML.html#62,62,1366,625,1366,768,8-21-2022,6-52-59,129,depth_duration_stimuli/000742_2014-06-08_18-48-09_260595134347_rgbf000164-resize_4/000742_2014-06-08_18-48-09_260595134347_rgbf000164-resize_4-target.png,125,4.632,80,3387,125,meters,jsons/VE125_randls_63_rotated.json,1279894,2508747,33,Man
129,612169,DepthScenes,duration_manipulation_targetAtFixation,jsons/VE125_randls_63_rotated.json,http://54.235.29.9/FacialAge/BNav_EC2/DepthDuration/v2_depth_duration_MTurk/v2_DepthDuration_HTML.html#62,62,1366,625,1366,768,8-21-2022,6-52-59,130,depth_duration_stimuli/001066_2014-06-08_22-03-20_260595134347_rgbf000066-resize_4/001066_2014-06-08_22-03-20_260595134347_rgbf000066-resize_4-target.png,125,4.2330000000000005,80,2877,126,meters,jsons/VE125_randls_63_rotated.json,1279894,2508747,33,Man
130,612169,DepthScenes,duration_manipulation_targetAtFixation,jsons/VE125_randls_63_rotated.json,http://54.235.29.9/FacialAge/BNav_EC2/DepthDuration/v2_depth_duration_MTurk/v2_DepthDuration_HTML.html#62,62,1366,625,1366,768,8-21-2022,6-52-59,131,depth_duration_stimuli/002949_2014-06-26_15-57-42_094959634447_rgbf000079-resize_1/002949_2014-06-26_15-57-42_094959634447_rgbf000079-resize_1-target.png,125,1.8915,60,3284,133,meters,jsons/VE125_randls_63_rotated.json,1279894,2508747,33,Man
131,612169,DepthScenes,duration_manipulation_targetAtFixation,jsons/VE125_randls_63_rotated.json,http://54.235.29.9/FacialAge/BNav_EC2/DepthDuration/v2_depth_duration_MTurk/v2_DepthDuration_HTML.html#62,62,1366,625,1366,768,8-21-2022,6-52-59,132,depth_duration_stimuli/000522_2014-06-08_13-35-06_260595134347_rgbf000244-resize_1/000522_2014-06-08_13-35-06_260595134347_rgbf000244-resize_1-target.png,125,2.3715,50,2819,124,meters,jsons/VE125_randls_63_rotated.json,1279894,2508747,33,Man
132,612169,DepthScenes,duration_manipulation_targetAtFixation,jsons/VE125_randls_63_rotated.json,http://54.235.29.9/FacialAge/BNav_EC2/DepthDuration/v2_depth_duration_MTurk/v2_DepthDuration_HTML.html#62,62,1366,625,1366,768,8-21-2022,6-52-59,133,depth_duration_stimuli/002199_2014-06-28_18-33-56_260595134347_rgbf000074-resize_0/002199_2014-06-28_18-33-56_260595134347_rgbf000074-resize_0-target.png,125,1.996,40,24603,112,meters,jsons/VE125_randls_63_rotated.json,1279894,2508747,33,Man
133,612169,DepthScenes,duration_manipulation_targetAtFixation,jsons/VE125_randls_63_rotated.json,http://54.235.29.9/FacialAge/BNav_EC2/DepthDuration/v2_depth_duration_MTurk/v2_DepthDuration_HTML.html#62,62,1366,625,1366,768,8-21-2022,6-52-59,134,depth_duration_stimuli/001056_2014-06-08_18-46-44_260595134347_rgbf000068-resize_0/001056_2014-06-08_18-46-44_260595134347_rgbf000068-resize_0-target.png,125,2.6625,70,3130,115,meters,jsons/VE125_randls_63_rotated.json,1279894,2508747,33,Man
134,612169,DepthScenes,duration_manipulation_targetAtFixation,jsons/VE125_randls_63_rotated.json,http://54.235.29.9/FacialAge/BNav_EC2/DepthDuration/v2_depth_duration_MTurk/v2_DepthDuration_HTML.html#62,62,1366,625,1366,768,8-21-2022,6-52-59,135,depth_duration_stimuli/000375_2014-06-08_11-17-29_260595134347_rgbf000133-resize_2/000375_2014-06-08_11-17-29_260595134347_rgbf000133-resize-original.jpg,125,4.718,0,2920,126,meters,jsons/VE125_randls_63_rotated.json,1279894,2508747,33,Man
135,612169,DepthScenes,duration_manipulation_targetAtFixation,jsons/VE125_randls_63_rotated.json,http://54.235.29.9/FacialAge/BNav_EC2/DepthDuration/v2_depth_duration_MTurk/v2_DepthDuration_HTML.html#62,62,1366,625,1366,768,8-21-2022,6-52-59,136,depth_duration_stimuli/002637_2014-06-24_14-51-13_094959634447_rgbf000066-resize_4/002637_2014-06-24_14-51-13_094959634447_rgbf000066-resize_4-target.png,125,1.9955,60,2338,130,meters,jsons/VE125_randls_63_rotated.json,1279894,2508747,33,Man
136,612169,DepthScenes,duration_manipulation_targetAtFixation,jsons/VE125_randls_63_rotated.json,http://54.235.29.9/FacialAge/BNav_EC2/DepthDuration/v2_depth_duration_MTurk/v2_DepthDuration_HTML.html#62,62,1366,625,1366,768,8-21-2022,6-52-59,137,depth_duration_stimuli/003534_2014-05-22_15-06-10_094959634447_rgbf000102-resize_4/003534_2014-05-22_15-06-10_094959634447_rgbf000102-resize_4-target.png,125,1.426,30,2616,131,meters,jsons/VE125_randls_63_rotated.json,1279894,2508747,33,Man
137,612169,DepthScenes,duration_manipulation_targetAtFixation,jsons/VE125_randls_63_rotated.json,http://54.235.29.9/FacialAge/BNav_EC2/DepthDuration/v2_depth_duration_MTurk/v2_DepthDuration_HTML.html#62,62,1366,625,1366,768,8-21-2022,6-52-59,138,depth_duration_stimuli/000749_2014-06-08_21-55-06_260595134347_rgbf000070-resize_2/000749_2014-06-08_21-55-06_260595134347_rgbf000070-resize_2-target.png,125,2.331,50,2434,131,meters,jsons/VE125_randls_63_rotated.json,1279894,2508747,33,Man
138,612169,DepthScenes,duration_manipulation_targetAtFixation,jsons/VE125_randls_63_rotated.json,http://54.235.29.9/FacialAge/BNav_EC2/DepthDuration/v2_depth_duration_MTurk/v2_DepthDuration_HTML.html#62,62,1366,625,1366,768,8-21-2022,6-52-59,139,depth_duration_stimuli/002788_2014-06-22_19-36-03_094959634447_rgbf000088-resize_2/002788_2014-06-22_19-36-03_094959634447_rgbf000088-resize_2-target.png,125,1.6465,0,2529,127,meters,jsons/VE125_randls_63_rotated.json,1279894,2508747,33,Man
139,612169,DepthScenes,duration_manipulation_targetAtFixation,jsons/VE125_randls_63_rotated.json,http://54.235.29.9/FacialAge/BNav_EC2/DepthDuration/v2_depth_duration_MTurk/v2_DepthDuration_HTML.html#62,62,1366,625,1366,768,8-21-2022,6-52-59,140,depth_duration_stimuli/002340_2014-06-28_20-05-46_260595134347_rgbf000113-resize_0/002340_2014-06-28_20-05-46_260595134347_rgbf000113-resize_0-target.png,125,2.4735,40,4518,127,meters,jsons/VE125_randls_63_rotated.json,1279894,2508747,33,Man
140,612169,DepthScenes,duration_manipulation_targetAtFixation,jsons/VE125_randls_63_rotated.json,http://54.235.29.9/FacialAge/BNav_EC2/DepthDuration/v2_depth_duration_MTurk/v2_DepthDuration_HTML.html#62,62,1366,625,1366,768,8-21-2022,6-52-59,141,depth_duration_stimuli/001016_2014-06-09_16-16-10_260595134347_rgbf000112-resize_5/001016_2014-06-09_16-16-10_260595134347_rgbf000112-resize_5-target.png,125,1.6565,50,2224,113,meters,jsons/VE125_randls_63_rotated.json,1279894,2508747,33,Man
141,612169,DepthScenes,duration_manipulation_targetAtFixation,jsons/VE125_randls_63_rotated.json,http://54.235.29.9/FacialAge/BNav_EC2/DepthDuration/v2_depth_duration_MTurk/v2_DepthDuration_HTML.html#62,62,1366,625,1366,768,8-21-2022,6-52-59,142,depth_duration_stimuli/001450_2014-06-19_17-02-03_260595134347_rgbf000203-resize_4/001450_2014-06-19_17-02-03_260595134347_rgbf000203-resize_4-target.png,125,4.0106666666667,40,3369,124,meters,jsons/VE125_randls_63_rotated.json,1279894,2508747,33,Man
142,612169,DepthScenes,duration_manipulation_targetAtFixation,jsons/VE125_randls_63_rotated.json,http://54.235.29.9/FacialAge/BNav_EC2/DepthDuration/v2_depth_duration_MTurk/v2_DepthDuration_HTML.html#62,62,1366,625,1366,768,8-21-2022,6-52-59,143,depth_duration_stimuli/001449_2014-06-19_17-01-27_260595134347_rgbf000116-resize_2/001449_2014-06-19_17-01-27_260595134347_rgbf000116-resize_2-target.png,125,3.452,70,4525,124,meters,jsons/VE125_randls_63_rotated.json,1279894,2508747,33,Man
143,612169,DepthScenes,duration_manipulation_targetAtFixation,jsons/VE125_randls_63_rotated.json,http://54.235.29.9/FacialAge/BNav_EC2/DepthDuration/v2_depth_duration_MTurk/v2_DepthDuration_HTML.html#62,62,1366,625,1366,768,8-21-2022,6-52-59,144,depth_duration_stimuli/003079_2014-06-15_15-18-20_094959634447_rgbf000152-resize_8/003079_2014-06-15_15-18-20_094959634447_rgbf000152-resize_8-target.png,125,2.8775,80,27614,132,meters,jsons/VE125_randls_63_rotated.json,1279894,2508747,33,Man
144,612169,DepthScenes,duration_manipulation_targetAtFixation,jsons/VE125_randls_63_rotated.json,http://54.235.29.9/FacialAge/BNav_EC2/DepthDuration/v2_depth_duration_MTurk/v2_DepthDuration_HTML.html#62,62,1366,625,1366,768,8-21-2022,6-52-59,145,depth_duration_stimuli/000506_2014-06-08_23-21-00_260595134347_rgbf000070-resize_7/000506_2014-06-08_23-21-00_260595134347_rgbf000070-resize_7-target.png,125,4.0585,60,5448,124,meters,jsons/VE125_randls_63_rotated.json,1279894,2508747,33,Man
145,612169,DepthScenes,duration_manipulation_targetAtFixation,jsons/VE125_randls_63_rotated.json,http://54.235.29.9/FacialAge/BNav_EC2/DepthDuration/v2_depth_duration_MTurk/v2_DepthDuration_HTML.html#62,62,1366,625,1366,768,8-21-2022,6-52-59,146,depth_duration_stimuli/002136_2014-06-25_21-18-03_260595134347_rgbf000109-resize_3/002136_2014-06-25_21-18-03_260595134347_rgbf000109-resize_3-target.png,125,1.9569999999999999,50,2830,114,meters,jsons/VE125_randls_63_rotated.json,1279894,2508747,33,Man
146,612169,DepthScenes,duration_manipulation_targetAtFixation,jsons/VE125_randls_63_rotated.json,http://54.235.29.9/FacialAge/BNav_EC2/DepthDuration/v2_depth_duration_MTurk/v2_DepthDuration_HTML.html#62,62,1366,625,1366,768,8-21-2022,6-52-59,147,depth_duration_stimuli/002964_2014-06-08_17-46-11_094959634447_rgbf000091-resize_4/002964_2014-06-08_17-46-11_094959634447_rgbf000091-resize_4-target.png,125,1.6909999999999998,40,2463,126,meters,jsons/VE125_randls_63_rotated.json,1279894,2508747,33,Man
147,612169,DepthScenes,duration_manipulation_targetAtFixation,jsons/VE125_randls_63_rotated.json,http://54.235.29.9/FacialAge/BNav_EC2/DepthDuration/v2_depth_duration_MTurk/v2_DepthDuration_HTML.html#62,62,1366,625,1366,768,8-21-2022,6-52-59,148,depth_duration_stimuli/000483_2014-06-09_20-41-45_260595134347_rgbf000116-resize_4/000483_2014-06-09_20-41-45_260595134347_rgbf000116-resize_4-target.png,125,1.337,30,2883,119,meters,jsons/VE125_randls_63_rotated.json,1279894,2508747,33,Man
148,612169,DepthScenes,duration_manipulation_targetAtFixation,jsons/VE125_randls_63_rotated.json,http://54.235.29.9/FacialAge/BNav_EC2/DepthDuration/v2_depth_duration_MTurk/v2_DepthDuration_HTML.html#62,62,1366,625,1366,768,8-21-2022,6-52-59,149,depth_duration_stimuli/000469_2014-06-09_19-42-10_260595134347_rgbf000081-resize_1/000469_2014-06-09_19-42-10_260595134347_rgbf000081-resize_1-target.png,125,1.652,50,2450,124,meters,jsons/VE125_randls_63_rotated.json,1279894,2508747,33,Man
149,612169,DepthScenes,duration_manipulation_targetAtFixation,jsons/VE125_randls_63_rotated.json,http://54.235.29.9/FacialAge/BNav_EC2/DepthDuration/v2_depth_duration_MTurk/v2_DepthDuration_HTML.html#62,62,1366,625,1366,768,8-21-2022,6-52-59,150,depth_duration_stimuli/000457_2014-06-08_16-52-43_260595134347_rgbf000199-resize_1/000457_2014-06-08_16-52-43_260595134347_rgbf000199-resize_1-target.png,125,3.6489999999999996,60,2294,138,meters,jsons/VE125_randls_63_rotated.json,1279894,2508747,33,Man
150,612169,DepthScenes,duration_manipulation_targetAtFixation,jsons/VE125_randls_63_rotated.json,http://54.235.29.9/FacialAge/BNav_EC2/DepthDuration/v2_depth_duration_MTurk/v2_DepthDuration_HTML.html#62,62,1366,625,1366,768,8-21-2022,6-52-59,151,depth_duration_stimuli/000929_2014-06-09_16-33-19_260595134347_rgbf000139-resize_0/000929_2014-06-09_16-33-19_260595134347_rgbf000139-resize_0-target.png,125,2.8680000000000003,40,17404,117,meters,jsons/VE125_randls_63_rotated.json,1279894,2508747,33,Man
151,612169,DepthScenes,duration_manipulation_targetAtFixation,jsons/VE125_randls_63_rotated.json,http://54.235.29.9/FacialAge/BNav_EC2/DepthDuration/v2_depth_duration_MTurk/v2_DepthDuration_HTML.html#62,62,1366,625,1366,768,8-21-2022,6-52-59,152,depth_duration_stimuli/000569_2014-06-09_22-51-47_260595134347_rgbf000141-resize_3/000569_2014-06-09_22-51-47_260595134347_rgbf000141-resize-original.jpg,125,4.512,20,7233,119,meters,jsons/VE125_randls_63_rotated.json,1279894,2508747,33,Man
152,612169,DepthScenes,duration_manipulation_targetAtFixation,jsons/VE125_randls_63_rotated.json,http://54.235.29.9/FacialAge/BNav_EC2/DepthDuration/v2_depth_duration_MTurk/v2_DepthDuration_HTML.html#62,62,1366,625,1366,768,8-21-2022,6-52-59,153,depth_duration_stimuli/002568_2014-06-24_13-59-21_094959634447_rgbf000062-resize_4/002568_2014-06-24_13-59-21_094959634447_rgbf000062-resize_4-target.png,125,3.015,50,4002,137,meters,jsons/VE125_randls_63_rotated.json,1279894,2508747,33,Man
153,612169,DepthScenes,duration_manipulation_targetAtFixation,jsons/VE125_randls_63_rotated.json,http://54.235.29.9/FacialAge/BNav_EC2/DepthDuration/v2_depth_duration_MTurk/v2_DepthDuration_HTML.html#62,62,1366,625,1366,768,8-21-2022,6-52-59,154,depth_duration_stimuli/003492_2014-05-21_15-50-55_094959634447_rgbf000828-resize_1/003492_2014-05-21_15-50-55_094959634447_rgbf000828-resize_1-target.png,125,4.06875,60,2295,136,meters,jsons/VE125_randls_63_rotated.json,1279894,2508747,33,Man
154,612169,DepthScenes,duration_manipulation_targetAtFixation,jsons/VE125_randls_63_rotated.json,http://54.235.29.9/FacialAge/BNav_EC2/DepthDuration/v2_depth_duration_MTurk/v2_DepthDuration_HTML.html#62,62,1366,625,1366,768,8-21-2022,6-52-59,155,depth_duration_stimuli/000677_2014-06-08_23-10-32_260595134347_rgbf000158-resize_6/000677_2014-06-08_23-10-32_260595134347_rgbf000158-resize_6-target.png,125,3.556,40,2244,110,meters,jsons/VE125_randls_63_rotated.json,1279894,2508747,33,Man
155,612169,DepthScenes,duration_manipulation_targetAtFixation,jsons/VE125_randls_63_rotated.json,http://54.235.29.9/FacialAge/BNav_EC2/DepthDuration/v2_depth_duration_MTurk/v2_DepthDuration_HTML.html#62,62,1366,625,1366,768,8-21-2022,6-52-59,156,depth_duration_stimuli/001029_2014-06-08_13-17-57_260595134347_rgbf000065-resize_1/001029_2014-06-08_13-17-57_260595134347_rgbf000065-resize_1-target.png,125,3.0835,50,2742,130,meters,jsons/VE125_randls_63_rotated.json,1279894,2508747,33,Man
156,612169,DepthScenes,duration_manipulation_targetAtFixation,jsons/VE125_randls_63_rotated.json,http://54.235.29.9/FacialAge/BNav_EC2/DepthDuration/v2_depth_duration_MTurk/v2_DepthDuration_HTML.html#62,62,1366,625,1366,768,8-21-2022,6-52-59,157,depth_duration_stimuli/001052_2014-06-08_18-24-54_260595134347_rgbf000130-resize_1/001052_2014-06-08_18-24-54_260595134347_rgbf000130-resize_1-target.png,125,4.1045,0,2525,121,meters,jsons/VE125_randls_63_rotated.json,1279894,2508747,33,Man
157,612169,DepthScenes,duration_manipulation_targetAtFixation,jsons/VE125_randls_63_rotated.json,http://54.235.29.9/FacialAge/BNav_EC2/DepthDuration/v2_depth_duration_MTurk/v2_DepthDuration_HTML.html#62,62,1366,625,1366,768,8-21-2022,6-52-59,158,depth_duration_stimuli/002988_2014-06-15_12-24-20_094959634447_rgbf000150-resize_1/002988_2014-06-15_12-24-20_094959634447_rgbf000150-resize_1-target.png,125,4.7669999999999995,0,2456,124,meters,jsons/VE125_randls_63_rotated.json,1279894,2508747,33,Man
158,612169,DepthScenes,duration_manipulation_targetAtFixation,jsons/VE125_randls_63_rotated.json,http://54.235.29.9/FacialAge/BNav_EC2/DepthDuration/v2_depth_duration_MTurk/v2_DepthDuration_HTML.html#62,62,1366,625,1366,768,8-21-2022,6-52-59,159,depth_duration_stimuli/000780_2014-06-08_22-28-29_260595134347_rgbf000126-resize_1/000780_2014-06-08_22-28-29_260595134347_rgbf000126-resize_1-target.png,125,3.3825,60,5640,126,meters,jsons/VE125_randls_63_rotated.json,1279894,2508747,33,Man
159,612169,DepthScenes,duration_manipulation_targetAtFixation,jsons/VE125_randls_63_rotated.json,http://54.235.29.9/FacialAge/BNav_EC2/DepthDuration/v2_depth_duration_MTurk/v2_DepthDuration_HTML.html#62,62,1366,625,1366,768,8-21-2022,6-52-59,160,depth_duration_stimuli/002445_2014-06-28_20-32-16_260595134347_rgbf000029-resize_4/002445_2014-06-28_20-32-16_260595134347_rgbf000029-resize_4-target.png,125,2.5315,40,2462,124,meters,jsons/VE125_randls_63_rotated.json,1279894,2508747,33,Man
160,612169,DepthScenes,duration_manipulation_targetAtFixation,jsons/VE125_randls_63_rotated.json,http://54.235.29.9/FacialAge/BNav_EC2/DepthDuration/v2_depth_duration_MTurk/v2_DepthDuration_HTML.html#62,62,1366,625,1366,768,8-21-2022,6-52-59,161,depth_duration_stimuli/000734_2014-06-08_17-39-11_260595134347_rgbf000128-resize_2/000734_2014-06-08_17-39-11_260595134347_rgbf000128-resize_2-target.png,125,4.098,50,22785,130,meters,jsons/VE125_randls_63_rotated.json,1279894,2508747,33,Man
161,612169,DepthScenes,duration_manipulation_targetAtFixation,jsons/VE125_randls_63_rotated.json,http://54.235.29.9/FacialAge/BNav_EC2/DepthDuration/v2_depth_duration_MTurk/v2_DepthDuration_HTML.html#62,62,1366,625,1366,768,8-21-2022,6-52-59,162,depth_duration_stimuli/000739_2014-06-08_18-45-58_260595134347_rgbf000068-resize_1/000739_2014-06-08_18-45-58_260595134347_rgbf000068-resize_1-target.png,125,3.534,50,4074,129,meters,jsons/VE125_randls_63_rotated.json,1279894,2508747,33,Man
162,612169,DepthScenes,duration_manipulation_targetAtFixation,jsons/VE125_randls_63_rotated.json,http://54.235.29.9/FacialAge/BNav_EC2/DepthDuration/v2_depth_duration_MTurk/v2_DepthDuration_HTML.html#62,62,1366,625,1366,768,8-21-2022,6-52-59,163,depth_duration_stimuli/002639_2014-06-24_14-51-37_094959634447_rgbf000074-resize_4/002639_2014-06-24_14-51-37_094959634447_rgbf000074-resize_4-target.png,125,4.0375,50,3837,138,meters,jsons/VE125_randls_63_rotated.json,1279894,2508747,33,Man
163,612169,DepthScenes,duration_manipulation_targetAtFixation,jsons/VE125_randls_63_rotated.json,http://54.235.29.9/FacialAge/BNav_EC2/DepthDuration/v2_depth_duration_MTurk/v2_DepthDuration_HTML.html#62,62,1366,625,1366,768,8-21-2022,6-52-59,164,depth_duration_stimuli/003292_2014-05-14_21-53-49_094959634447_rgbf000100-resize_2/003292_2014-05-14_21-53-49_094959634447_rgbf000100-resize_2-target.png,125,3.4815,30,2499,115,meters,jsons/VE125_randls_63_rotated.json,1279894,2508747,33,Man
