,subjID,experimentName,versionName,sequenceName,url,selected_row,windowWidth,windowHeight,screenWidth,screenHeight,startDate,startTime,trial,stimulus,duration,actual_depth,depth_estimate,trial_RT,log_sceneDuration,unitSelection,seq_filepath,experimentTime,totalTime,age,gender
0,613671,DepthScenes,duration_manipulation_targetAtFixation,jsons/v1_VE1000_randls_61_rotated.json,http://54.235.29.9/FacialAge/BNav_EC2/DepthDuration/v2_depth_duration_MTurk/v2_DepthDuration_HTML.html#249,249,1280,720,1280,720,8-29-2022,14-51-36,1,depth_duration_stimuli/000734_2014-06-08_17-39-11_260595134347_rgbf000128-resize_2/000734_2014-06-08_17-39-11_260595134347_rgbf000128-resize_2-target.png,1000,4.098,4,3346,999,feet,jsons/v1_VE1000_randls_61_rotated.json,947890,1028356,38,Woman
1,613671,DepthScenes,duration_manipulation_targetAtFixation,jsons/v1_VE1000_randls_61_rotated.json,http://54.235.29.9/FacialAge/BNav_EC2/DepthDuration/v2_depth_duration_MTurk/v2_DepthDuration_HTML.html#249,249,1280,720,1280,720,8-29-2022,14-51-36,2,depth_duration_stimuli/000739_2014-06-08_18-45-58_260595134347_rgbf000068-resize_1/000739_2014-06-08_18-45-58_260595134347_rgbf000068-resize_1-target.png,1000,3.534,7,3388,994,feet,jsons/v1_VE1000_randls_61_rotated.json,947890,1028356,38,Woman
2,613671,DepthScenes,duration_manipulation_targetAtFixation,jsons/v1_VE1000_randls_61_rotated.json,http://54.235.29.9/FacialAge/BNav_EC2/DepthDuration/v2_depth_duration_MTurk/v2_DepthDuration_HTML.html#249,249,1280,720,1280,720,8-29-2022,14-51-36,3,depth_duration_stimuli/000191_2014-05-12_17-07-38_260595134347_rgbf000199-resize_0/000191_2014-05-12_17-07-38_260595134347_rgbf000199-resize_0-target.png,1000,3.7995,10,3694,994,feet,jsons/v1_VE1000_randls_61_rotated.json,947890,1028356,38,Woman
3,613671,DepthScenes,duration_manipulation_targetAtFixation,jsons/v1_VE1000_randls_61_rotated.json,http://54.235.29.9/FacialAge/BNav_EC2/DepthDuration/v2_depth_duration_MTurk/v2_DepthDuration_HTML.html#249,249,1280,720,1280,720,8-29-2022,14-51-36,4,depth_duration_stimuli/000493_2014-06-09_21-01-18_260595134347_rgbf000196-resize_3/000493_2014-06-09_21-01-18_260595134347_rgbf000196-resize_3-target.png,1000,3.44,8,3097,999,feet,jsons/v1_VE1000_randls_61_rotated.json,947890,1028356,38,Woman
4,613671,DepthScenes,duration_manipulation_targetAtFixation,jsons/v1_VE1000_randls_61_rotated.json,http://54.235.29.9/FacialAge/BNav_EC2/DepthDuration/v2_depth_duration_MTurk/v2_DepthDuration_HTML.html#249,249,1280,720,1280,720,8-29-2022,14-51-36,5,depth_duration_stimuli/002660_2014-06-13_15-44-18_094959634447_rgbf001878-resize_2/002660_2014-06-13_15-44-18_094959634447_rgbf001878-resize_2-target.png,1000,3.576,9,3438,996,feet,jsons/v1_VE1000_randls_61_rotated.json,947890,1028356,38,Woman
5,613671,DepthScenes,duration_manipulation_targetAtFixation,jsons/v1_VE1000_randls_61_rotated.json,http://54.235.29.9/FacialAge/BNav_EC2/DepthDuration/v2_depth_duration_MTurk/v2_DepthDuration_HTML.html#249,249,1280,720,1280,720,8-29-2022,14-51-36,6,depth_duration_stimuli/002153_2014-06-25_21-27-18_260595134347_rgbf000038-resize_5/002153_2014-06-25_21-27-18_260595134347_rgbf000038-resize_5-target.png,1000,2.505,5,3458,990,feet,jsons/v1_VE1000_randls_61_rotated.json,947890,1028356,38,Woman
6,613671,DepthScenes,duration_manipulation_targetAtFixation,jsons/v1_VE1000_randls_61_rotated.json,http://54.235.29.9/FacialAge/BNav_EC2/DepthDuration/v2_depth_duration_MTurk/v2_DepthDuration_HTML.html#249,249,1280,720,1280,720,8-29-2022,14-51-36,7,depth_duration_stimuli/000635_2014-06-08_16-38-42_260595134347_rgbf000106-resize_1/000635_2014-06-08_16-38-42_260595134347_rgbf000106-resize_1-target.png,1000,2.074,8,3544,985,feet,jsons/v1_VE1000_randls_61_rotated.json,947890,1028356,38,Woman
7,613671,DepthScenes,duration_manipulation_targetAtFixation,jsons/v1_VE1000_randls_61_rotated.json,http://54.235.29.9/FacialAge/BNav_EC2/DepthDuration/v2_depth_duration_MTurk/v2_DepthDuration_HTML.html#249,249,1280,720,1280,720,8-29-2022,14-51-36,8,depth_duration_stimuli/002279_2014-06-28_18-55-32_260595134347_rgbf000040-resize_5/002279_2014-06-28_18-55-32_260595134347_rgbf000040-resize_5-target.png,1000,1.5043333333333,2,2857,1004,feet,jsons/v1_VE1000_randls_61_rotated.json,947890,1028356,38,Woman
8,613671,DepthScenes,duration_manipulation_targetAtFixation,jsons/v1_VE1000_randls_61_rotated.json,http://54.235.29.9/FacialAge/BNav_EC2/DepthDuration/v2_depth_duration_MTurk/v2_DepthDuration_HTML.html#249,249,1280,720,1280,720,8-29-2022,14-51-36,9,depth_duration_stimuli/002545_2014-06-24_13-38-53_094959634447_rgbf000080-resize_4/002545_2014-06-24_13-38-53_094959634447_rgbf000080-resize_4-target.png,1000,1.9205,4,3146,1000,feet,jsons/v1_VE1000_randls_61_rotated.json,947890,1028356,38,Woman
9,613671,DepthScenes,duration_manipulation_targetAtFixation,jsons/v1_VE1000_randls_61_rotated.json,http://54.235.29.9/FacialAge/BNav_EC2/DepthDuration/v2_depth_duration_MTurk/v2_DepthDuration_HTML.html#249,249,1280,720,1280,720,8-29-2022,14-51-36,10,depth_duration_stimuli/001092_2014-06-15_17-34-58_260595134347_rgbf000171-resize_3/001092_2014-06-15_17-34-58_260595134347_rgbf000171-resize_3-target.png,1000,2.6935,4,3015,1001,feet,jsons/v1_VE1000_randls_61_rotated.json,947890,1028356,38,Woman
10,613671,DepthScenes,duration_manipulation_targetAtFixation,jsons/v1_VE1000_randls_61_rotated.json,http://54.235.29.9/FacialAge/BNav_EC2/DepthDuration/v2_depth_duration_MTurk/v2_DepthDuration_HTML.html#249,249,1280,720,1280,720,8-29-2022,14-51-36,11,depth_duration_stimuli/000502_2014-06-08_23-02-32_260595134347_rgbf000063-resize_4/000502_2014-06-08_23-02-32_260595134347_rgbf000063-resize_4-target.png,1000,2.431,5,3044,986,feet,jsons/v1_VE1000_randls_61_rotated.json,947890,1028356,38,Woman
11,613671,DepthScenes,duration_manipulation_targetAtFixation,jsons/v1_VE1000_randls_61_rotated.json,http://54.235.29.9/FacialAge/BNav_EC2/DepthDuration/v2_depth_duration_MTurk/v2_DepthDuration_HTML.html#249,249,1280,720,1280,720,8-29-2022,14-51-36,12,depth_duration_stimuli/001199_2014-06-17_16-03-48_260595134347_rgbf000077-resize_0/001199_2014-06-17_16-03-48_260595134347_rgbf000077-resize_0-target.png,1000,3.4375,9,3562,1004,feet,jsons/v1_VE1000_randls_61_rotated.json,947890,1028356,38,Woman
12,613671,DepthScenes,duration_manipulation_targetAtFixation,jsons/v1_VE1000_randls_61_rotated.json,http://54.235.29.9/FacialAge/BNav_EC2/DepthDuration/v2_depth_duration_MTurk/v2_DepthDuration_HTML.html#249,249,1280,720,1280,720,8-29-2022,14-51-36,13,depth_duration_stimuli/000677_2014-06-08_23-10-32_260595134347_rgbf000158-resize_6/000677_2014-06-08_23-10-32_260595134347_rgbf000158-resize_6-target.png,1000,3.556,6,3583,999,feet,jsons/v1_VE1000_randls_61_rotated.json,947890,1028356,38,Woman
13,613671,DepthScenes,duration_manipulation_targetAtFixation,jsons/v1_VE1000_randls_61_rotated.json,http://54.235.29.9/FacialAge/BNav_EC2/DepthDuration/v2_depth_duration_MTurk/v2_DepthDuration_HTML.html#249,249,1280,720,1280,720,8-29-2022,14-51-36,14,depth_duration_stimuli/001029_2014-06-08_13-17-57_260595134347_rgbf000065-resize_1/001029_2014-06-08_13-17-57_260595134347_rgbf000065-resize_1-target.png,1000,3.0835,5,3373,993,feet,jsons/v1_VE1000_randls_61_rotated.json,947890,1028356,38,Woman
14,613671,DepthScenes,duration_manipulation_targetAtFixation,jsons/v1_VE1000_randls_61_rotated.json,http://54.235.29.9/FacialAge/BNav_EC2/DepthDuration/v2_depth_duration_MTurk/v2_DepthDuration_HTML.html#249,249,1280,720,1280,720,8-29-2022,14-51-36,15,depth_duration_stimuli/002103_2014-06-25_20-00-40_260595134347_rgbf000049-resize_0/002103_2014-06-25_20-00-40_260595134347_rgbf000049-resize_0-target.png,1000,4.105,9,4079,996,feet,jsons/v1_VE1000_randls_61_rotated.json,947890,1028356,38,Woman
15,613671,DepthScenes,duration_manipulation_targetAtFixation,jsons/v1_VE1000_randls_61_rotated.json,http://54.235.29.9/FacialAge/BNav_EC2/DepthDuration/v2_depth_duration_MTurk/v2_DepthDuration_HTML.html#249,249,1280,720,1280,720,8-29-2022,14-51-36,16,depth_duration_stimuli/002039_2014-06-24_20-22-38_260595134347_rgbf000084-resize_1/002039_2014-06-24_20-22-38_260595134347_rgbf000084-resize_1-target.png,1000,4.408,4,4227,1001,feet,jsons/v1_VE1000_randls_61_rotated.json,947890,1028356,38,Woman
16,613671,DepthScenes,duration_manipulation_targetAtFixation,jsons/v1_VE1000_randls_61_rotated.json,http://54.235.29.9/FacialAge/BNav_EC2/DepthDuration/v2_depth_duration_MTurk/v2_DepthDuration_HTML.html#249,249,1280,720,1280,720,8-29-2022,14-51-36,17,depth_duration_stimuli/002136_2014-06-25_21-18-03_260595134347_rgbf000109-resize_3/002136_2014-06-25_21-18-03_260595134347_rgbf000109-resize_3-target.png,1000,1.9569999999999999,5,4815,997,feet,jsons/v1_VE1000_randls_61_rotated.json,947890,1028356,38,Woman
17,613671,DepthScenes,duration_manipulation_targetAtFixation,jsons/v1_VE1000_randls_61_rotated.json,http://54.235.29.9/FacialAge/BNav_EC2/DepthDuration/v2_depth_duration_MTurk/v2_DepthDuration_HTML.html#249,249,1280,720,1280,720,8-29-2022,14-51-36,18,depth_duration_stimuli/002964_2014-06-08_17-46-11_094959634447_rgbf000091-resize_4/002964_2014-06-08_17-46-11_094959634447_rgbf000091-resize_4-target.png,1000,1.6909999999999998,3,3026,992,feet,jsons/v1_VE1000_randls_61_rotated.json,947890,1028356,38,Woman
18,613671,DepthScenes,duration_manipulation_targetAtFixation,jsons/v1_VE1000_randls_61_rotated.json,http://54.235.29.9/FacialAge/BNav_EC2/DepthDuration/v2_depth_duration_MTurk/v2_DepthDuration_HTML.html#249,249,1280,720,1280,720,8-29-2022,14-51-36,19,depth_duration_stimuli/001498_2014-06-19_17-45-14_260595134347_rgbf000129-resize_4/001498_2014-06-19_17-45-14_260595134347_rgbf000129-resize-original.jpg,1000,1.4075,0,3056,1003,feet,jsons/v1_VE1000_randls_61_rotated.json,947890,1028356,38,Woman
19,613671,DepthScenes,duration_manipulation_targetAtFixation,jsons/v1_VE1000_randls_61_rotated.json,http://54.235.29.9/FacialAge/BNav_EC2/DepthDuration/v2_depth_duration_MTurk/v2_DepthDuration_HTML.html#249,249,1280,720,1280,720,8-29-2022,14-51-36,20,depth_duration_stimuli/000943_2014-06-09_19-31-07_260595134347_rgbf000128-resize_1/000943_2014-06-09_19-31-07_260595134347_rgbf000128-resize_1-target.png,1000,1.9765,4,2775,989,feet,jsons/v1_VE1000_randls_61_rotated.json,947890,1028356,38,Woman
20,613671,DepthScenes,duration_manipulation_targetAtFixation,jsons/v1_VE1000_randls_61_rotated.json,http://54.235.29.9/FacialAge/BNav_EC2/DepthDuration/v2_depth_duration_MTurk/v2_DepthDuration_HTML.html#249,249,1280,720,1280,720,8-29-2022,14-51-36,21,depth_duration_stimuli/003070_2014-06-15_14-58-27_094959634447_rgbf000150-resize_3/003070_2014-06-15_14-58-27_094959634447_rgbf000150-resize_3-target.png,1000,2.9415,8,15537,990,feet,jsons/v1_VE1000_randls_61_rotated.json,947890,1028356,38,Woman
21,613671,DepthScenes,duration_manipulation_targetAtFixation,jsons/v1_VE1000_randls_61_rotated.json,http://54.235.29.9/FacialAge/BNav_EC2/DepthDuration/v2_depth_duration_MTurk/v2_DepthDuration_HTML.html#249,249,1280,720,1280,720,8-29-2022,14-51-36,22,depth_duration_stimuli/001032_2014-06-08_13-23-17_260595134347_rgbf000021-resize_3/001032_2014-06-08_13-23-17_260595134347_rgbf000021-resize_3-target.png,1000,3.2725,6,2818,1000,feet,jsons/v1_VE1000_randls_61_rotated.json,947890,1028356,38,Woman
22,613671,DepthScenes,duration_manipulation_targetAtFixation,jsons/v1_VE1000_randls_61_rotated.json,http://54.235.29.9/FacialAge/BNav_EC2/DepthDuration/v2_depth_duration_MTurk/v2_DepthDuration_HTML.html#249,249,1280,720,1280,720,8-29-2022,14-51-36,23,depth_duration_stimuli/001059_2014-06-08_21-53-27_260595134347_rgbf000061-resize_4/001059_2014-06-08_21-53-27_260595134347_rgbf000061-resize_4-target.png,1000,2.4185,5,2738,991,feet,jsons/v1_VE1000_randls_61_rotated.json,947890,1028356,38,Woman
23,613671,DepthScenes,duration_manipulation_targetAtFixation,jsons/v1_VE1000_randls_61_rotated.json,http://54.235.29.9/FacialAge/BNav_EC2/DepthDuration/v2_depth_duration_MTurk/v2_DepthDuration_HTML.html#249,249,1280,720,1280,720,8-29-2022,14-51-36,24,depth_duration_stimuli/003010_2014-06-15_12-54-35_094959634447_rgbf000112-resize_0/003010_2014-06-15_12-54-35_094959634447_rgbf000112-resize_0-target.png,1000,3.1185,6,4626,1004,feet,jsons/v1_VE1000_randls_61_rotated.json,947890,1028356,38,Woman
24,613671,DepthScenes,duration_manipulation_targetAtFixation,jsons/v1_VE1000_randls_61_rotated.json,http://54.235.29.9/FacialAge/BNav_EC2/DepthDuration/v2_depth_duration_MTurk/v2_DepthDuration_HTML.html#249,249,1280,720,1280,720,8-29-2022,14-51-36,25,depth_duration_stimuli/001810_2014-06-26_20-51-35_260595134347_rgbf000040-resize_3/001810_2014-06-26_20-51-35_260595134347_rgbf000040-resize_3-target.png,1000,2.2525,4,3169,990,feet,jsons/v1_VE1000_randls_61_rotated.json,947890,1028356,38,Woman
25,613671,DepthScenes,duration_manipulation_targetAtFixation,jsons/v1_VE1000_randls_61_rotated.json,http://54.235.29.9/FacialAge/BNav_EC2/DepthDuration/v2_depth_duration_MTurk/v2_DepthDuration_HTML.html#249,249,1280,720,1280,720,8-29-2022,14-51-36,26,depth_duration_stimuli/001214_2014-06-17_16-13-55_260595134347_rgbf000111-resize_0/001214_2014-06-17_16-13-55_260595134347_rgbf000111-resize_0-target.png,1000,2.6505,4,2939,1000,feet,jsons/v1_VE1000_randls_61_rotated.json,947890,1028356,38,Woman
26,613671,DepthScenes,duration_manipulation_targetAtFixation,jsons/v1_VE1000_randls_61_rotated.json,http://54.235.29.9/FacialAge/BNav_EC2/DepthDuration/v2_depth_duration_MTurk/v2_DepthDuration_HTML.html#249,249,1280,720,1280,720,8-29-2022,14-51-36,27,depth_duration_stimuli/000810_2014-06-08_17-20-01_260595134347_rgbf000105-resize_0/000810_2014-06-08_17-20-01_260595134347_rgbf000105-resize_0-target.png,1000,1.4865,6,2778,999,feet,jsons/v1_VE1000_randls_61_rotated.json,947890,1028356,38,Woman
27,613671,DepthScenes,duration_manipulation_targetAtFixation,jsons/v1_VE1000_randls_61_rotated.json,http://54.235.29.9/FacialAge/BNav_EC2/DepthDuration/v2_depth_duration_MTurk/v2_DepthDuration_HTML.html#249,249,1280,720,1280,720,8-29-2022,14-51-36,28,depth_duration_stimuli/002340_2014-06-28_20-05-46_260595134347_rgbf000113-resize_0/002340_2014-06-28_20-05-46_260595134347_rgbf000113-resize_0-target.png,1000,2.4735,8,10234,999,feet,jsons/v1_VE1000_randls_61_rotated.json,947890,1028356,38,Woman
28,613671,DepthScenes,duration_manipulation_targetAtFixation,jsons/v1_VE1000_randls_61_rotated.json,http://54.235.29.9/FacialAge/BNav_EC2/DepthDuration/v2_depth_duration_MTurk/v2_DepthDuration_HTML.html#249,249,1280,720,1280,720,8-29-2022,14-51-36,29,depth_duration_stimuli/001016_2014-06-09_16-16-10_260595134347_rgbf000112-resize_5/001016_2014-06-09_16-16-10_260595134347_rgbf000112-resize_5-target.png,1000,1.6565,6,3578,990,feet,jsons/v1_VE1000_randls_61_rotated.json,947890,1028356,38,Woman
29,613671,DepthScenes,duration_manipulation_targetAtFixation,jsons/v1_VE1000_randls_61_rotated.json,http://54.235.29.9/FacialAge/BNav_EC2/DepthDuration/v2_depth_duration_MTurk/v2_DepthDuration_HTML.html#249,249,1280,720,1280,720,8-29-2022,14-51-36,30,depth_duration_stimuli/002072_2014-06-24_21-48-06_260595134347_rgbf000115-resize_0/002072_2014-06-24_21-48-06_260595134347_rgbf000115-resize-original.jpg,1000,4.702,0,2927,999,feet,jsons/v1_VE1000_randls_61_rotated.json,947890,1028356,38,Woman
30,613671,DepthScenes,duration_manipulation_targetAtFixation,jsons/v1_VE1000_randls_61_rotated.json,http://54.235.29.9/FacialAge/BNav_EC2/DepthDuration/v2_depth_duration_MTurk/v2_DepthDuration_HTML.html#249,249,1280,720,1280,720,8-29-2022,14-51-36,31,depth_duration_stimuli/002805_2014-06-22_19-54-03_094959634447_rgbf000079-resize_1/002805_2014-06-22_19-54-03_094959634447_rgbf000079-resize_1-target.png,1000,3.1439999999999997,10,18181,998,feet,jsons/v1_VE1000_randls_61_rotated.json,947890,1028356,38,Woman
31,613671,DepthScenes,duration_manipulation_targetAtFixation,jsons/v1_VE1000_randls_61_rotated.json,http://54.235.29.9/FacialAge/BNav_EC2/DepthDuration/v2_depth_duration_MTurk/v2_DepthDuration_HTML.html#249,249,1280,720,1280,720,8-29-2022,14-51-36,32,depth_duration_stimuli/000906_2014-06-08_13-35-43_260595134347_rgbf000155-resize_1/000906_2014-06-08_13-35-43_260595134347_rgbf000155-resize_1-target.png,1000,2.8489999999999998,8,3090,987,feet,jsons/v1_VE1000_randls_61_rotated.json,947890,1028356,38,Woman
32,613671,DepthScenes,duration_manipulation_targetAtFixation,jsons/v1_VE1000_randls_61_rotated.json,http://54.235.29.9/FacialAge/BNav_EC2/DepthDuration/v2_depth_duration_MTurk/v2_DepthDuration_HTML.html#249,249,1280,720,1280,720,8-29-2022,14-51-36,33,depth_duration_stimuli/001571_2014-06-20_17-21-32_260595134347_rgbf000089-resize_1/001571_2014-06-20_17-21-32_260595134347_rgbf000089-resize_1-target.png,1000,1.86,4,3940,987,feet,jsons/v1_VE1000_randls_61_rotated.json,947890,1028356,38,Woman
33,613671,DepthScenes,duration_manipulation_targetAtFixation,jsons/v1_VE1000_randls_61_rotated.json,http://54.235.29.9/FacialAge/BNav_EC2/DepthDuration/v2_depth_duration_MTurk/v2_DepthDuration_HTML.html#249,249,1280,720,1280,720,8-29-2022,14-51-36,34,depth_duration_stimuli/002272_2014-06-28_18-53-56_260595134347_rgbf000067-resize_2/002272_2014-06-28_18-53-56_260595134347_rgbf000067-resize_2-target.png,1000,1.138,3,2929,989,feet,jsons/v1_VE1000_randls_61_rotated.json,947890,1028356,38,Woman
34,613671,DepthScenes,duration_manipulation_targetAtFixation,jsons/v1_VE1000_randls_61_rotated.json,http://54.235.29.9/FacialAge/BNav_EC2/DepthDuration/v2_depth_duration_MTurk/v2_DepthDuration_HTML.html#249,249,1280,720,1280,720,8-29-2022,14-51-36,35,depth_duration_stimuli/000483_2014-06-09_20-41-45_260595134347_rgbf000116-resize_4/000483_2014-06-09_20-41-45_260595134347_rgbf000116-resize_4-target.png,1000,1.337,2,2743,995,feet,jsons/v1_VE1000_randls_61_rotated.json,947890,1028356,38,Woman
35,613671,DepthScenes,duration_manipulation_targetAtFixation,jsons/v1_VE1000_randls_61_rotated.json,http://54.235.29.9/FacialAge/BNav_EC2/DepthDuration/v2_depth_duration_MTurk/v2_DepthDuration_HTML.html#249,249,1280,720,1280,720,8-29-2022,14-51-36,36,depth_duration_stimuli/000469_2014-06-09_19-42-10_260595134347_rgbf000081-resize_1/000469_2014-06-09_19-42-10_260595134347_rgbf000081-resize_1-target.png,1000,1.652,4,3116,999,feet,jsons/v1_VE1000_randls_61_rotated.json,947890,1028356,38,Woman
36,613671,DepthScenes,duration_manipulation_targetAtFixation,jsons/v1_VE1000_randls_61_rotated.json,http://54.235.29.9/FacialAge/BNav_EC2/DepthDuration/v2_depth_duration_MTurk/v2_DepthDuration_HTML.html#249,249,1280,720,1280,720,8-29-2022,14-51-36,37,depth_duration_stimuli/000556_2014-06-09_22-42-56_260595134347_rgbf000214-resize_1/000556_2014-06-09_22-42-56_260595134347_rgbf000214-resize_1-target.png,1000,4.8415,10,3260,1010,feet,jsons/v1_VE1000_randls_61_rotated.json,947890,1028356,38,Woman
37,613671,DepthScenes,duration_manipulation_targetAtFixation,jsons/v1_VE1000_randls_61_rotated.json,http://54.235.29.9/FacialAge/BNav_EC2/DepthDuration/v2_depth_duration_MTurk/v2_DepthDuration_HTML.html#249,249,1280,720,1280,720,8-29-2022,14-51-36,38,depth_duration_stimuli/001158_2014-06-17_15-32-16_260595134347_rgbf000138-resize_2/001158_2014-06-17_15-32-16_260595134347_rgbf000138-resize_2-target.png,1000,4.5315,12,2920,999,feet,jsons/v1_VE1000_randls_61_rotated.json,947890,1028356,38,Woman
38,613671,DepthScenes,duration_manipulation_targetAtFixation,jsons/v1_VE1000_randls_61_rotated.json,http://54.235.29.9/FacialAge/BNav_EC2/DepthDuration/v2_depth_duration_MTurk/v2_DepthDuration_HTML.html#249,249,1280,720,1280,720,8-29-2022,14-51-36,39,depth_duration_stimuli/003587_2014-05-23_16-48-02_094959634447_rgbf002384-resize_2/003587_2014-05-23_16-48-02_094959634447_rgbf002384-resize_2-target.png,1000,1.357,1,2489,999,feet,jsons/v1_VE1000_randls_61_rotated.json,947890,1028356,38,Woman
39,613671,DepthScenes,duration_manipulation_targetAtFixation,jsons/v1_VE1000_randls_61_rotated.json,http://54.235.29.9/FacialAge/BNav_EC2/DepthDuration/v2_depth_duration_MTurk/v2_DepthDuration_HTML.html#249,249,1280,720,1280,720,8-29-2022,14-51-36,40,depth_duration_stimuli/001167_2014-06-17_15-38-07_260595134347_rgbf000108-resize_0/001167_2014-06-17_15-38-07_260595134347_rgbf000108-resize_0-target.png,1000,1.8505,3,2637,986,feet,jsons/v1_VE1000_randls_61_rotated.json,947890,1028356,38,Woman
40,613671,DepthScenes,duration_manipulation_targetAtFixation,jsons/v1_VE1000_randls_61_rotated.json,http://54.235.29.9/FacialAge/BNav_EC2/DepthDuration/v2_depth_duration_MTurk/v2_DepthDuration_HTML.html#249,249,1280,720,1280,720,8-29-2022,14-51-36,41,depth_duration_stimuli/002639_2014-06-24_14-51-37_094959634447_rgbf000074-resize_4/002639_2014-06-24_14-51-37_094959634447_rgbf000074-resize_4-target.png,1000,4.0375,8,18592,991,feet,jsons/v1_VE1000_randls_61_rotated.json,947890,1028356,38,Woman
41,613671,DepthScenes,duration_manipulation_targetAtFixation,jsons/v1_VE1000_randls_61_rotated.json,http://54.235.29.9/FacialAge/BNav_EC2/DepthDuration/v2_depth_duration_MTurk/v2_DepthDuration_HTML.html#249,249,1280,720,1280,720,8-29-2022,14-51-36,42,depth_duration_stimuli/003292_2014-05-14_21-53-49_094959634447_rgbf000100-resize_2/003292_2014-05-14_21-53-49_094959634447_rgbf000100-resize_2-target.png,1000,3.4815,8,2996,1003,feet,jsons/v1_VE1000_randls_61_rotated.json,947890,1028356,38,Woman
42,613671,DepthScenes,duration_manipulation_targetAtFixation,jsons/v1_VE1000_randls_61_rotated.json,http://54.235.29.9/FacialAge/BNav_EC2/DepthDuration/v2_depth_duration_MTurk/v2_DepthDuration_HTML.html#249,249,1280,720,1280,720,8-29-2022,14-51-36,43,depth_duration_stimuli/001132_2014-06-17_14-48-54_260595134347_rgbf000100-resize_2/001132_2014-06-17_14-48-54_260595134347_rgbf000100-resize_2-target.png,1000,3.753,10,3258,999,feet,jsons/v1_VE1000_randls_61_rotated.json,947890,1028356,38,Woman
43,613671,DepthScenes,duration_manipulation_targetAtFixation,jsons/v1_VE1000_randls_61_rotated.json,http://54.235.29.9/FacialAge/BNav_EC2/DepthDuration/v2_depth_duration_MTurk/v2_DepthDuration_HTML.html#249,249,1280,720,1280,720,8-29-2022,14-51-36,44,depth_duration_stimuli/001133_2014-06-17_14-49-16_260595134347_rgbf000100-resize_0/001133_2014-06-17_14-49-16_260595134347_rgbf000100-resize_0-target.png,1000,4.2115,9,2913,989,feet,jsons/v1_VE1000_randls_61_rotated.json,947890,1028356,38,Woman
44,613671,DepthScenes,duration_manipulation_targetAtFixation,jsons/v1_VE1000_randls_61_rotated.json,http://54.235.29.9/FacialAge/BNav_EC2/DepthDuration/v2_depth_duration_MTurk/v2_DepthDuration_HTML.html#249,249,1280,720,1280,720,8-29-2022,14-51-36,45,depth_duration_stimuli/001828_2014-06-26_21-40-03_260595134347_rgbf000024-resize_0/001828_2014-06-26_21-40-03_260595134347_rgbf000024-resize_0-target.png,1000,4.8260000000000005,14,2907,984,feet,jsons/v1_VE1000_randls_61_rotated.json,947890,1028356,38,Woman
45,613671,DepthScenes,duration_manipulation_targetAtFixation,jsons/v1_VE1000_randls_61_rotated.json,http://54.235.29.9/FacialAge/BNav_EC2/DepthDuration/v2_depth_duration_MTurk/v2_DepthDuration_HTML.html#249,249,1280,720,1280,720,8-29-2022,14-51-36,46,depth_duration_stimuli/000009_2014-05-26_14-32-05_260595134347_rgbf000034-resize_3/000009_2014-05-26_14-32-05_260595134347_rgbf000034-resize_3-target.png,1000,3.8715,12,2762,990,feet,jsons/v1_VE1000_randls_61_rotated.json,947890,1028356,38,Woman
46,613671,DepthScenes,duration_manipulation_targetAtFixation,jsons/v1_VE1000_randls_61_rotated.json,http://54.235.29.9/FacialAge/BNav_EC2/DepthDuration/v2_depth_duration_MTurk/v2_DepthDuration_HTML.html#249,249,1280,720,1280,720,8-29-2022,14-51-36,47,depth_duration_stimuli/001136_2014-06-17_15-19-41_260595134347_rgbf000076-resize_3/001136_2014-06-17_15-19-41_260595134347_rgbf000076-resize_3-target.png,1000,1.8655,4,4833,1000,feet,jsons/v1_VE1000_randls_61_rotated.json,947890,1028356,38,Woman
47,613671,DepthScenes,duration_manipulation_targetAtFixation,jsons/v1_VE1000_randls_61_rotated.json,http://54.235.29.9/FacialAge/BNav_EC2/DepthDuration/v2_depth_duration_MTurk/v2_DepthDuration_HTML.html#249,249,1280,720,1280,720,8-29-2022,14-51-36,48,depth_duration_stimuli/001164_2014-06-17_15-35-46_260595134347_rgbf000085-resize_3/001164_2014-06-17_15-35-46_260595134347_rgbf000085-resize_3-target.png,1000,2.354,4,2966,994,feet,jsons/v1_VE1000_randls_61_rotated.json,947890,1028356,38,Woman
48,613671,DepthScenes,duration_manipulation_targetAtFixation,jsons/v1_VE1000_randls_61_rotated.json,http://54.235.29.9/FacialAge/BNav_EC2/DepthDuration/v2_depth_duration_MTurk/v2_DepthDuration_HTML.html#249,249,1280,720,1280,720,8-29-2022,14-51-36,49,depth_duration_stimuli/001170_2014-06-17_15-43-44_260595134347_rgbf000096-resize_6/001170_2014-06-17_15-43-44_260595134347_rgbf000096-resize-original.jpg,1000,1.1909999999999998,0,3047,1000,feet,jsons/v1_VE1000_randls_61_rotated.json,947890,1028356,38,Woman
49,613671,DepthScenes,duration_manipulation_targetAtFixation,jsons/v1_VE1000_randls_61_rotated.json,http://54.235.29.9/FacialAge/BNav_EC2/DepthDuration/v2_depth_duration_MTurk/v2_DepthDuration_HTML.html#249,249,1280,720,1280,720,8-29-2022,14-51-36,50,depth_duration_stimuli/002953_2014-06-08_17-32-18_094959634447_rgbf000059-resize_5/002953_2014-06-08_17-32-18_094959634447_rgbf000059-resize_5-target.png,1000,1.551,3,2666,999,feet,jsons/v1_VE1000_randls_61_rotated.json,947890,1028356,38,Woman
50,613671,DepthScenes,duration_manipulation_targetAtFixation,jsons/v1_VE1000_randls_61_rotated.json,http://54.235.29.9/FacialAge/BNav_EC2/DepthDuration/v2_depth_duration_MTurk/v2_DepthDuration_HTML.html#249,249,1280,720,1280,720,8-29-2022,14-51-36,51,depth_duration_stimuli/000878_2014-06-08_22-52-45_260595134347_rgbf000045-resize_2/000878_2014-06-08_22-52-45_260595134347_rgbf000045-resize_2-target.png,1000,2.092,6,8177,997,feet,jsons/v1_VE1000_randls_61_rotated.json,947890,1028356,38,Woman
51,613671,DepthScenes,duration_manipulation_targetAtFixation,jsons/v1_VE1000_randls_61_rotated.json,http://54.235.29.9/FacialAge/BNav_EC2/DepthDuration/v2_depth_duration_MTurk/v2_DepthDuration_HTML.html#249,249,1280,720,1280,720,8-29-2022,14-51-36,52,depth_duration_stimuli/001584_2014-06-20_11-07-43_260595134347_rgbf000002-resize_1/001584_2014-06-20_11-07-43_260595134347_rgbf000002-resize_1-target.png,1000,3.53,6,3313,991,feet,jsons/v1_VE1000_randls_61_rotated.json,947890,1028356,38,Woman
52,613671,DepthScenes,duration_manipulation_targetAtFixation,jsons/v1_VE1000_randls_61_rotated.json,http://54.235.29.9/FacialAge/BNav_EC2/DepthDuration/v2_depth_duration_MTurk/v2_DepthDuration_HTML.html#249,249,1280,720,1280,720,8-29-2022,14-51-36,53,depth_duration_stimuli/003621_2014-05-23_18-06-08_094959634447_rgbf000101-resize_1/003621_2014-05-23_18-06-08_094959634447_rgbf000101-resize_1-target.png,1000,3.9835,10,4426,999,feet,jsons/v1_VE1000_randls_61_rotated.json,947890,1028356,38,Woman
53,613671,DepthScenes,duration_manipulation_targetAtFixation,jsons/v1_VE1000_randls_61_rotated.json,http://54.235.29.9/FacialAge/BNav_EC2/DepthDuration/v2_depth_duration_MTurk/v2_DepthDuration_HTML.html#249,249,1280,720,1280,720,8-29-2022,14-51-36,54,depth_duration_stimuli/002678_2014-06-13_16-15-32_094959634447_rgbf000151-resize_6/002678_2014-06-13_16-15-32_094959634447_rgbf000151-resize_6-target.png,1000,2.1830000000000003,4,2925,993,feet,jsons/v1_VE1000_randls_61_rotated.json,947890,1028356,38,Woman
54,613671,DepthScenes,duration_manipulation_targetAtFixation,jsons/v1_VE1000_randls_61_rotated.json,http://54.235.29.9/FacialAge/BNav_EC2/DepthDuration/v2_depth_duration_MTurk/v2_DepthDuration_HTML.html#249,249,1280,720,1280,720,8-29-2022,14-51-36,55,depth_duration_stimuli/000368_2014-06-09_15-53-01_260595134347_rgbf000155-resize_2/000368_2014-06-09_15-53-01_260595134347_rgbf000155-resize_2-target.png,1000,2.4859999999999998,3,21522,1004,feet,jsons/v1_VE1000_randls_61_rotated.json,947890,1028356,38,Woman
55,613671,DepthScenes,duration_manipulation_targetAtFixation,jsons/v1_VE1000_randls_61_rotated.json,http://54.235.29.9/FacialAge/BNav_EC2/DepthDuration/v2_depth_duration_MTurk/v2_DepthDuration_HTML.html#249,249,1280,720,1280,720,8-29-2022,14-51-36,56,depth_duration_stimuli/002323_2014-06-28_20-01-54_260595134347_rgbf000051-resize_4/002323_2014-06-28_20-01-54_260595134347_rgbf000051-resize_4-target.png,1000,3.7310000000000003,12,2947,994,feet,jsons/v1_VE1000_randls_61_rotated.json,947890,1028356,38,Woman
56,613671,DepthScenes,duration_manipulation_targetAtFixation,jsons/v1_VE1000_randls_61_rotated.json,http://54.235.29.9/FacialAge/BNav_EC2/DepthDuration/v2_depth_duration_MTurk/v2_DepthDuration_HTML.html#249,249,1280,720,1280,720,8-29-2022,14-51-36,57,depth_duration_stimuli/000917_2014-06-09_22-45-29_260595134347_rgbf000149-resize_3/000917_2014-06-09_22-45-29_260595134347_rgbf000149-resize_3-target.png,1000,4.1865,11,3073,1011,feet,jsons/v1_VE1000_randls_61_rotated.json,947890,1028356,38,Woman
57,613671,DepthScenes,duration_manipulation_targetAtFixation,jsons/v1_VE1000_randls_61_rotated.json,http://54.235.29.9/FacialAge/BNav_EC2/DepthDuration/v2_depth_duration_MTurk/v2_DepthDuration_HTML.html#249,249,1280,720,1280,720,8-29-2022,14-51-36,58,depth_duration_stimuli/002995_2014-06-15_12-31-26_094959634447_rgbf000150-resize_1/002995_2014-06-15_12-31-26_094959634447_rgbf000150-resize_1-target.png,1000,3.8360000000000003,11,2577,993,feet,jsons/v1_VE1000_randls_61_rotated.json,947890,1028356,38,Woman
58,613671,DepthScenes,duration_manipulation_targetAtFixation,jsons/v1_VE1000_randls_61_rotated.json,http://54.235.29.9/FacialAge/BNav_EC2/DepthDuration/v2_depth_duration_MTurk/v2_DepthDuration_HTML.html#249,249,1280,720,1280,720,8-29-2022,14-51-36,59,depth_duration_stimuli/002748_2014-06-22_19-07-22_094959634447_rgbf000078-resize_1/002748_2014-06-22_19-07-22_094959634447_rgbf000078-resize_1-target.png,1000,4.6705,14,3855,1007,feet,jsons/v1_VE1000_randls_61_rotated.json,947890,1028356,38,Woman
59,613671,DepthScenes,duration_manipulation_targetAtFixation,jsons/v1_VE1000_randls_61_rotated.json,http://54.235.29.9/FacialAge/BNav_EC2/DepthDuration/v2_depth_duration_MTurk/v2_DepthDuration_HTML.html#249,249,1280,720,1280,720,8-29-2022,14-51-36,60,depth_duration_stimuli/003129_2014-05-12_10-48-10_094959634447_rgbf000100-resize_0/003129_2014-05-12_10-48-10_094959634447_rgbf000100-resize_0-target.png,1000,4.9305,10,3387,999,feet,jsons/v1_VE1000_randls_61_rotated.json,947890,1028356,38,Woman
60,613671,DepthScenes,duration_manipulation_targetAtFixation,jsons/v1_VE1000_randls_61_rotated.json,http://54.235.29.9/FacialAge/BNav_EC2/DepthDuration/v2_depth_duration_MTurk/v2_DepthDuration_HTML.html#249,249,1280,720,1280,720,8-29-2022,14-51-36,61,depth_duration_stimuli/000414_2014-06-04_19-49-13_260595134347_rgbf000044-resize_0/000414_2014-06-04_19-49-13_260595134347_rgbf000044-resize_0-target.png,1000,4.329,12,2832,1001,feet,jsons/v1_VE1000_randls_61_rotated.json,947890,1028356,38,Woman
61,613671,DepthScenes,duration_manipulation_targetAtFixation,jsons/v1_VE1000_randls_61_rotated.json,http://54.235.29.9/FacialAge/BNav_EC2/DepthDuration/v2_depth_duration_MTurk/v2_DepthDuration_HTML.html#249,249,1280,720,1280,720,8-29-2022,14-51-36,62,depth_duration_stimuli/003048_2014-06-15_13-49-43_094959634447_rgbf000150-resize_1/003048_2014-06-15_13-49-43_094959634447_rgbf000150-resize_1-target.png,1000,4.0035,10,3182,994,feet,jsons/v1_VE1000_randls_61_rotated.json,947890,1028356,38,Woman
62,613671,DepthScenes,duration_manipulation_targetAtFixation,jsons/v1_VE1000_randls_61_rotated.json,http://54.235.29.9/FacialAge/BNav_EC2/DepthDuration/v2_depth_duration_MTurk/v2_DepthDuration_HTML.html#249,249,1280,720,1280,720,8-29-2022,14-51-36,63,depth_duration_stimuli/002043_2014-06-24_20-29-38_260595134347_rgbf000039-resize_4/002043_2014-06-24_20-29-38_260595134347_rgbf000039-resize_4-target.png,1000,2.8435,8,2920,990,feet,jsons/v1_VE1000_randls_61_rotated.json,947890,1028356,38,Woman
63,613671,DepthScenes,duration_manipulation_targetAtFixation,jsons/v1_VE1000_randls_61_rotated.json,http://54.235.29.9/FacialAge/BNav_EC2/DepthDuration/v2_depth_duration_MTurk/v2_DepthDuration_HTML.html#249,249,1280,720,1280,720,8-29-2022,14-51-36,64,depth_duration_stimuli/000409_2014-06-04_19-23-33_260595134347_rgbf000067-resize_0/000409_2014-06-04_19-23-33_260595134347_rgbf000067-resize_0-target.png,1000,3.7335,9,23023,1007,feet,jsons/v1_VE1000_randls_61_rotated.json,947890,1028356,38,Woman
64,613671,DepthScenes,duration_manipulation_targetAtFixation,jsons/v1_VE1000_randls_61_rotated.json,http://54.235.29.9/FacialAge/BNav_EC2/DepthDuration/v2_depth_duration_MTurk/v2_DepthDuration_HTML.html#249,249,1280,720,1280,720,8-29-2022,14-51-36,65,depth_duration_stimuli/002663_2014-06-13_15-50-26_094959634447_rgbf000075-resize_1/002663_2014-06-13_15-50-26_094959634447_rgbf000075-resize_1-target.png,1000,4.7495,11,2822,1007,feet,jsons/v1_VE1000_randls_61_rotated.json,947890,1028356,38,Woman
65,613671,DepthScenes,duration_manipulation_targetAtFixation,jsons/v1_VE1000_randls_61_rotated.json,http://54.235.29.9/FacialAge/BNav_EC2/DepthDuration/v2_depth_duration_MTurk/v2_DepthDuration_HTML.html#249,249,1280,720,1280,720,8-29-2022,14-51-36,66,depth_duration_stimuli/001540_2014-06-20_17-01-05_260595134347_rgbf000086-resize_2/001540_2014-06-20_17-01-05_260595134347_rgbf000086-resize-original.jpg,1000,1.459,0,3112,1003,feet,jsons/v1_VE1000_randls_61_rotated.json,947890,1028356,38,Woman
66,613671,DepthScenes,duration_manipulation_targetAtFixation,jsons/v1_VE1000_randls_61_rotated.json,http://54.235.29.9/FacialAge/BNav_EC2/DepthDuration/v2_depth_duration_MTurk/v2_DepthDuration_HTML.html#249,249,1280,720,1280,720,8-29-2022,14-51-36,67,depth_duration_stimuli/003081_2014-06-15_15-19-16_094959634447_rgbf000150-resize_1/003081_2014-06-15_15-19-16_094959634447_rgbf000150-resize_1-target.png,1000,3.9125,10,3668,985,feet,jsons/v1_VE1000_randls_61_rotated.json,947890,1028356,38,Woman
67,613671,DepthScenes,duration_manipulation_targetAtFixation,jsons/v1_VE1000_randls_61_rotated.json,http://54.235.29.9/FacialAge/BNav_EC2/DepthDuration/v2_depth_duration_MTurk/v2_DepthDuration_HTML.html#249,249,1280,720,1280,720,8-29-2022,14-51-36,68,depth_duration_stimuli/001417_2014-06-19_16-25-36_260595134347_rgbf000115-resize_5/001417_2014-06-19_16-25-36_260595134347_rgbf000115-resize_5-target.png,1000,4.6255,9,3074,1004,feet,jsons/v1_VE1000_randls_61_rotated.json,947890,1028356,38,Woman
68,613671,DepthScenes,duration_manipulation_targetAtFixation,jsons/v1_VE1000_randls_61_rotated.json,http://54.235.29.9/FacialAge/BNav_EC2/DepthDuration/v2_depth_duration_MTurk/v2_DepthDuration_HTML.html#249,249,1280,720,1280,720,8-29-2022,14-51-36,69,depth_duration_stimuli/003338_2014-05-20_11-01-23_094959634447_rgbf000051-resize_6/003338_2014-05-20_11-01-23_094959634447_rgbf000051-resize_6-target.png,1000,1.693,3,3773,1017,feet,jsons/v1_VE1000_randls_61_rotated.json,947890,1028356,38,Woman
69,613671,DepthScenes,duration_manipulation_targetAtFixation,jsons/v1_VE1000_randls_61_rotated.json,http://54.235.29.9/FacialAge/BNav_EC2/DepthDuration/v2_depth_duration_MTurk/v2_DepthDuration_HTML.html#249,249,1280,720,1280,720,8-29-2022,14-51-36,70,depth_duration_stimuli/002509_2014-06-24_13-19-22_094959634447_rgbf000077-resize_0/002509_2014-06-24_13-19-22_094959634447_rgbf000077-resize_0-target.png,1000,1.3065,2,2907,1008,feet,jsons/v1_VE1000_randls_61_rotated.json,947890,1028356,38,Woman
70,613671,DepthScenes,duration_manipulation_targetAtFixation,jsons/v1_VE1000_randls_61_rotated.json,http://54.235.29.9/FacialAge/BNav_EC2/DepthDuration/v2_depth_duration_MTurk/v2_DepthDuration_HTML.html#249,249,1280,720,1280,720,8-29-2022,14-51-36,71,depth_duration_stimuli/000137_2014-05-20_17-04-49_260595134347_rgbf000120-resize_1/000137_2014-05-20_17-04-49_260595134347_rgbf000120-resize_1-target.png,1000,3.786,8,3187,1000,feet,jsons/v1_VE1000_randls_61_rotated.json,947890,1028356,38,Woman
71,613671,DepthScenes,duration_manipulation_targetAtFixation,jsons/v1_VE1000_randls_61_rotated.json,http://54.235.29.9/FacialAge/BNav_EC2/DepthDuration/v2_depth_duration_MTurk/v2_DepthDuration_HTML.html#249,249,1280,720,1280,720,8-29-2022,14-51-36,72,depth_duration_stimuli/000736_2014-06-08_18-24-15_260595134347_rgbf000206-resize_3/000736_2014-06-08_18-24-15_260595134347_rgbf000206-resize_3-target.png,1000,3.515,7,4094,995,feet,jsons/v1_VE1000_randls_61_rotated.json,947890,1028356,38,Woman
72,613671,DepthScenes,duration_manipulation_targetAtFixation,jsons/v1_VE1000_randls_61_rotated.json,http://54.235.29.9/FacialAge/BNav_EC2/DepthDuration/v2_depth_duration_MTurk/v2_DepthDuration_HTML.html#249,249,1280,720,1280,720,8-29-2022,14-51-36,73,depth_duration_stimuli/001617_2014-06-20_11-35-32_260595134347_rgbf000066-resize_1/001617_2014-06-20_11-35-32_260595134347_rgbf000066-resize_1-target.png,1000,3.7910000000000004,9,69320,998,feet,jsons/v1_VE1000_randls_61_rotated.json,947890,1028356,38,Woman
73,613671,DepthScenes,duration_manipulation_targetAtFixation,jsons/v1_VE1000_randls_61_rotated.json,http://54.235.29.9/FacialAge/BNav_EC2/DepthDuration/v2_depth_duration_MTurk/v2_DepthDuration_HTML.html#249,249,1280,720,1280,720,8-29-2022,14-51-36,74,depth_duration_stimuli/001806_2014-06-26_20-50-20_260595134347_rgbf000091-resize_1/001806_2014-06-26_20-50-20_260595134347_rgbf000091-resize_1-target.png,1000,2.7305,4,3071,995,feet,jsons/v1_VE1000_randls_61_rotated.json,947890,1028356,38,Woman
74,613671,DepthScenes,duration_manipulation_targetAtFixation,jsons/v1_VE1000_randls_61_rotated.json,http://54.235.29.9/FacialAge/BNav_EC2/DepthDuration/v2_depth_duration_MTurk/v2_DepthDuration_HTML.html#249,249,1280,720,1280,720,8-29-2022,14-51-36,75,depth_duration_stimuli/000866_2014-06-09_20-45-42_260595134347_rgbf000139-resize_1/000866_2014-06-09_20-45-42_260595134347_rgbf000139-resize_1-target.png,1000,3.2155,7,3353,998,feet,jsons/v1_VE1000_randls_61_rotated.json,947890,1028356,38,Woman
75,613671,DepthScenes,duration_manipulation_targetAtFixation,jsons/v1_VE1000_randls_61_rotated.json,http://54.235.29.9/FacialAge/BNav_EC2/DepthDuration/v2_depth_duration_MTurk/v2_DepthDuration_HTML.html#249,249,1280,720,1280,720,8-29-2022,14-51-36,76,depth_duration_stimuli/002989_2014-06-15_12-25-03_094959634447_rgbf000150-resize_3/002989_2014-06-15_12-25-03_094959634447_rgbf000150-resize_3-target.png,1000,4.1975,8,3259,999,feet,jsons/v1_VE1000_randls_61_rotated.json,947890,1028356,38,Woman
76,613671,DepthScenes,duration_manipulation_targetAtFixation,jsons/v1_VE1000_randls_61_rotated.json,http://54.235.29.9/FacialAge/BNav_EC2/DepthDuration/v2_depth_duration_MTurk/v2_DepthDuration_HTML.html#249,249,1280,720,1280,720,8-29-2022,14-51-36,77,depth_duration_stimuli/000103_2014-05-14_22-01-17_260595134347_rgbf000152-resize_5/000103_2014-05-14_22-01-17_260595134347_rgbf000152-resize_5-target.png,1000,1.993,4,2984,985,feet,jsons/v1_VE1000_randls_61_rotated.json,947890,1028356,38,Woman
77,613671,DepthScenes,duration_manipulation_targetAtFixation,jsons/v1_VE1000_randls_61_rotated.json,http://54.235.29.9/FacialAge/BNav_EC2/DepthDuration/v2_depth_duration_MTurk/v2_DepthDuration_HTML.html#249,249,1280,720,1280,720,8-29-2022,14-51-36,78,depth_duration_stimuli/001555_2014-06-20_17-12-10_260595134347_rgbf000065-resize_4/001555_2014-06-20_17-12-10_260595134347_rgbf000065-resize_4-target.png,1000,1.633,2,2793,997,feet,jsons/v1_VE1000_randls_61_rotated.json,947890,1028356,38,Woman
78,613671,DepthScenes,duration_manipulation_targetAtFixation,jsons/v1_VE1000_randls_61_rotated.json,http://54.235.29.9/FacialAge/BNav_EC2/DepthDuration/v2_depth_duration_MTurk/v2_DepthDuration_HTML.html#249,249,1280,720,1280,720,8-29-2022,14-51-36,79,depth_duration_stimuli/000457_2014-06-08_16-52-43_260595134347_rgbf000199-resize_1/000457_2014-06-08_16-52-43_260595134347_rgbf000199-resize_1-target.png,1000,3.6489999999999996,7,3189,1010,feet,jsons/v1_VE1000_randls_61_rotated.json,947890,1028356,38,Woman
79,613671,DepthScenes,duration_manipulation_targetAtFixation,jsons/v1_VE1000_randls_61_rotated.json,http://54.235.29.9/FacialAge/BNav_EC2/DepthDuration/v2_depth_duration_MTurk/v2_DepthDuration_HTML.html#249,249,1280,720,1280,720,8-29-2022,14-51-36,80,depth_duration_stimuli/000929_2014-06-09_16-33-19_260595134347_rgbf000139-resize_0/000929_2014-06-09_16-33-19_260595134347_rgbf000139-resize_0-target.png,1000,2.8680000000000003,4,2952,999,feet,jsons/v1_VE1000_randls_61_rotated.json,947890,1028356,38,Woman
80,613671,DepthScenes,duration_manipulation_targetAtFixation,jsons/v1_VE1000_randls_61_rotated.json,http://54.235.29.9/FacialAge/BNav_EC2/DepthDuration/v2_depth_duration_MTurk/v2_DepthDuration_HTML.html#249,249,1280,720,1280,720,8-29-2022,14-51-36,81,depth_duration_stimuli/002949_2014-06-26_15-57-42_094959634447_rgbf000079-resize_1/002949_2014-06-26_15-57-42_094959634447_rgbf000079-resize_1-target.png,1000,1.8915,6,3234,995,feet,jsons/v1_VE1000_randls_61_rotated.json,947890,1028356,38,Woman
81,613671,DepthScenes,duration_manipulation_targetAtFixation,jsons/v1_VE1000_randls_61_rotated.json,http://54.235.29.9/FacialAge/BNav_EC2/DepthDuration/v2_depth_duration_MTurk/v2_DepthDuration_HTML.html#249,249,1280,720,1280,720,8-29-2022,14-51-36,82,depth_duration_stimuli/000522_2014-06-08_13-35-06_260595134347_rgbf000244-resize_1/000522_2014-06-08_13-35-06_260595134347_rgbf000244-resize_1-target.png,1000,2.3715,3,2741,985,feet,jsons/v1_VE1000_randls_61_rotated.json,947890,1028356,38,Woman
82,613671,DepthScenes,duration_manipulation_targetAtFixation,jsons/v1_VE1000_randls_61_rotated.json,http://54.235.29.9/FacialAge/BNav_EC2/DepthDuration/v2_depth_duration_MTurk/v2_DepthDuration_HTML.html#249,249,1280,720,1280,720,8-29-2022,14-51-36,83,depth_duration_stimuli/000665_2014-06-09_20-42-35_260595134347_rgbf000110-resize_1/000665_2014-06-09_20-42-35_260595134347_rgbf000110-resize_1-target.png,1000,3.057,8,3024,999,feet,jsons/v1_VE1000_randls_61_rotated.json,947890,1028356,38,Woman
83,613671,DepthScenes,duration_manipulation_targetAtFixation,jsons/v1_VE1000_randls_61_rotated.json,http://54.235.29.9/FacialAge/BNav_EC2/DepthDuration/v2_depth_duration_MTurk/v2_DepthDuration_HTML.html#249,249,1280,720,1280,720,8-29-2022,14-51-36,84,depth_duration_stimuli/001150_2014-06-17_15-27-34_260595134347_rgbf000108-resize_2/001150_2014-06-17_15-27-34_260595134347_rgbf000108-resize_2-target.png,1000,4.0325,8,3385,989,feet,jsons/v1_VE1000_randls_61_rotated.json,947890,1028356,38,Woman
84,613671,DepthScenes,duration_manipulation_targetAtFixation,jsons/v1_VE1000_randls_61_rotated.json,http://54.235.29.9/FacialAge/BNav_EC2/DepthDuration/v2_depth_duration_MTurk/v2_DepthDuration_HTML.html#249,249,1280,720,1280,720,8-29-2022,14-51-36,85,depth_duration_stimuli/000109_2014-05-14_23-41-52_260595134347_rgbf000035-resize_9/000109_2014-05-14_23-41-52_260595134347_rgbf000035-resize_9-target.png,1000,1.3545,4,50632,992,feet,jsons/v1_VE1000_randls_61_rotated.json,947890,1028356,38,Woman
85,613671,DepthScenes,duration_manipulation_targetAtFixation,jsons/v1_VE1000_randls_61_rotated.json,http://54.235.29.9/FacialAge/BNav_EC2/DepthDuration/v2_depth_duration_MTurk/v2_DepthDuration_HTML.html#249,249,1280,720,1280,720,8-29-2022,14-51-36,86,depth_duration_stimuli/000470_2014-06-09_19-42-40_260595134347_rgbf000094-resize_1/000470_2014-06-09_19-42-40_260595134347_rgbf000094-resize_1-target.png,1000,1.831,3,3115,996,feet,jsons/v1_VE1000_randls_61_rotated.json,947890,1028356,38,Woman
86,613671,DepthScenes,duration_manipulation_targetAtFixation,jsons/v1_VE1000_randls_61_rotated.json,http://54.235.29.9/FacialAge/BNav_EC2/DepthDuration/v2_depth_duration_MTurk/v2_DepthDuration_HTML.html#249,249,1280,720,1280,720,8-29-2022,14-51-36,87,depth_duration_stimuli/001235_2014-06-17_16-37-36_260595134347_rgbf000084-resize_4/001235_2014-06-17_16-37-36_260595134347_rgbf000084-resize_4-target.png,1000,3.6605,5,5112,988,feet,jsons/v1_VE1000_randls_61_rotated.json,947890,1028356,38,Woman
87,613671,DepthScenes,duration_manipulation_targetAtFixation,jsons/v1_VE1000_randls_61_rotated.json,http://54.235.29.9/FacialAge/BNav_EC2/DepthDuration/v2_depth_duration_MTurk/v2_DepthDuration_HTML.html#249,249,1280,720,1280,720,8-29-2022,14-51-36,88,depth_duration_stimuli/000788_2014-06-08_22-34-36_260595134347_rgbf000131-resize_1/000788_2014-06-08_22-34-36_260595134347_rgbf000131-resize_1-target.png,1000,3.359,8,4289,996,feet,jsons/v1_VE1000_randls_61_rotated.json,947890,1028356,38,Woman
88,613671,DepthScenes,duration_manipulation_targetAtFixation,jsons/v1_VE1000_randls_61_rotated.json,http://54.235.29.9/FacialAge/BNav_EC2/DepthDuration/v2_depth_duration_MTurk/v2_DepthDuration_HTML.html#249,249,1280,720,1280,720,8-29-2022,14-51-36,89,depth_duration_stimuli/001815_2014-06-26_20-52-55_260595134347_rgbf000020-resize_0/001815_2014-06-26_20-52-55_260595134347_rgbf000020-resize_0-target.png,1000,3.3865,7,3091,1000,feet,jsons/v1_VE1000_randls_61_rotated.json,947890,1028356,38,Woman
89,613671,DepthScenes,duration_manipulation_targetAtFixation,jsons/v1_VE1000_randls_61_rotated.json,http://54.235.29.9/FacialAge/BNav_EC2/DepthDuration/v2_depth_duration_MTurk/v2_DepthDuration_HTML.html#249,249,1280,720,1280,720,8-29-2022,14-51-36,90,depth_duration_stimuli/001808_2014-06-26_20-50-58_260595134347_rgbf000029-resize_1/001808_2014-06-26_20-50-58_260595134347_rgbf000029-resize_1-target.png,1000,4.249,8,53218,1009,feet,jsons/v1_VE1000_randls_61_rotated.json,947890,1028356,38,Woman
90,613671,DepthScenes,duration_manipulation_targetAtFixation,jsons/v1_VE1000_randls_61_rotated.json,http://54.235.29.9/FacialAge/BNav_EC2/DepthDuration/v2_depth_duration_MTurk/v2_DepthDuration_HTML.html#249,249,1280,720,1280,720,8-29-2022,14-51-36,91,depth_duration_stimuli/002209_2014-06-28_18-36-10_260595134347_rgbf000051-resize_1/002209_2014-06-28_18-36-10_260595134347_rgbf000051-resize_1-target.png,1000,2.057,4,2966,986,feet,jsons/v1_VE1000_randls_61_rotated.json,947890,1028356,38,Woman
91,613671,DepthScenes,duration_manipulation_targetAtFixation,jsons/v1_VE1000_randls_61_rotated.json,http://54.235.29.9/FacialAge/BNav_EC2/DepthDuration/v2_depth_duration_MTurk/v2_DepthDuration_HTML.html#249,249,1280,720,1280,720,8-29-2022,14-51-36,92,depth_duration_stimuli/002763_2014-06-22_19-13-10_094959634447_rgbf000075-resize_4/002763_2014-06-22_19-13-10_094959634447_rgbf000075-resize_4-target.png,1000,1.68375,5,2921,1005,feet,jsons/v1_VE1000_randls_61_rotated.json,947890,1028356,38,Woman
92,613671,DepthScenes,duration_manipulation_targetAtFixation,jsons/v1_VE1000_randls_61_rotated.json,http://54.235.29.9/FacialAge/BNav_EC2/DepthDuration/v2_depth_duration_MTurk/v2_DepthDuration_HTML.html#249,249,1280,720,1280,720,8-29-2022,14-51-36,93,depth_duration_stimuli/002568_2014-06-24_13-59-21_094959634447_rgbf000062-resize_4/002568_2014-06-24_13-59-21_094959634447_rgbf000062-resize_4-target.png,1000,3.015,7,2873,1003,feet,jsons/v1_VE1000_randls_61_rotated.json,947890,1028356,38,Woman
93,613671,DepthScenes,duration_manipulation_targetAtFixation,jsons/v1_VE1000_randls_61_rotated.json,http://54.235.29.9/FacialAge/BNav_EC2/DepthDuration/v2_depth_duration_MTurk/v2_DepthDuration_HTML.html#249,249,1280,720,1280,720,8-29-2022,14-51-36,94,depth_duration_stimuli/003492_2014-05-21_15-50-55_094959634447_rgbf000828-resize_1/003492_2014-05-21_15-50-55_094959634447_rgbf000828-resize_1-target.png,1000,4.06875,12,2874,992,feet,jsons/v1_VE1000_randls_61_rotated.json,947890,1028356,38,Woman
94,613671,DepthScenes,duration_manipulation_targetAtFixation,jsons/v1_VE1000_randls_61_rotated.json,http://54.235.29.9/FacialAge/BNav_EC2/DepthDuration/v2_depth_duration_MTurk/v2_DepthDuration_HTML.html#249,249,1280,720,1280,720,8-29-2022,14-51-36,95,depth_duration_stimuli/002657_2014-06-13_15-29-54_094959634447_rgbf000150-resize_1/002657_2014-06-13_15-29-54_094959634447_rgbf000150-resize_1-target.png,1000,4.919,9,2840,997,feet,jsons/v1_VE1000_randls_61_rotated.json,947890,1028356,38,Woman
95,613671,DepthScenes,duration_manipulation_targetAtFixation,jsons/v1_VE1000_randls_61_rotated.json,http://54.235.29.9/FacialAge/BNav_EC2/DepthDuration/v2_depth_duration_MTurk/v2_DepthDuration_HTML.html#249,249,1280,720,1280,720,8-29-2022,14-51-36,96,depth_duration_stimuli/002375_2014-06-28_20-13-44_260595134347_rgbf000032-resize_1/002375_2014-06-28_20-13-44_260595134347_rgbf000032-resize_1-target.png,1000,4.0175,6,3011,1011,feet,jsons/v1_VE1000_randls_61_rotated.json,947890,1028356,38,Woman
96,613671,DepthScenes,duration_manipulation_targetAtFixation,jsons/v1_VE1000_randls_61_rotated.json,http://54.235.29.9/FacialAge/BNav_EC2/DepthDuration/v2_depth_duration_MTurk/v2_DepthDuration_HTML.html#249,249,1280,720,1280,720,8-29-2022,14-51-36,97,depth_duration_stimuli/002758_2014-06-22_19-11-20_094959634447_rgbf000128-resize_1/002758_2014-06-22_19-11-20_094959634447_rgbf000128-resize_1-target.png,1000,2.555,7,3907,1006,feet,jsons/v1_VE1000_randls_61_rotated.json,947890,1028356,38,Woman
97,613671,DepthScenes,duration_manipulation_targetAtFixation,jsons/v1_VE1000_randls_61_rotated.json,http://54.235.29.9/FacialAge/BNav_EC2/DepthDuration/v2_depth_duration_MTurk/v2_DepthDuration_HTML.html#249,249,1280,720,1280,720,8-29-2022,14-51-36,98,depth_duration_stimuli/002630_2014-06-24_14-47-50_094959634447_rgbf000055-resize_1/002630_2014-06-24_14-47-50_094959634447_rgbf000055-resize_1-target.png,1000,3.0095,9,5024,988,feet,jsons/v1_VE1000_randls_61_rotated.json,947890,1028356,38,Woman
98,613671,DepthScenes,duration_manipulation_targetAtFixation,jsons/v1_VE1000_randls_61_rotated.json,http://54.235.29.9/FacialAge/BNav_EC2/DepthDuration/v2_depth_duration_MTurk/v2_DepthDuration_HTML.html#249,249,1280,720,1280,720,8-29-2022,14-51-36,99,depth_duration_stimuli/001222_2014-06-17_16-24-06_260595134347_rgbf000073-resize_0/001222_2014-06-17_16-24-06_260595134347_rgbf000073-resize-original.jpg,1000,1.4385,0,7370,990,feet,jsons/v1_VE1000_randls_61_rotated.json,947890,1028356,38,Woman
99,613671,DepthScenes,duration_manipulation_targetAtFixation,jsons/v1_VE1000_randls_61_rotated.json,http://54.235.29.9/FacialAge/BNav_EC2/DepthDuration/v2_depth_duration_MTurk/v2_DepthDuration_HTML.html#249,249,1280,720,1280,720,8-29-2022,14-51-36,100,depth_duration_stimuli/001100_2014-06-15_17-46-26_260595134347_rgbf000225-resize_2/001100_2014-06-15_17-46-26_260595134347_rgbf000225-resize_2-target.png,1000,2.24,4,3173,994,feet,jsons/v1_VE1000_randls_61_rotated.json,947890,1028356,38,Woman
100,613671,DepthScenes,duration_manipulation_targetAtFixation,jsons/v1_VE1000_randls_61_rotated.json,http://54.235.29.9/FacialAge/BNav_EC2/DepthDuration/v2_depth_duration_MTurk/v2_DepthDuration_HTML.html#249,249,1280,720,1280,720,8-29-2022,14-51-36,101,depth_duration_stimuli/002784_2014-06-22_19-26-30_094959634447_rgbf000083-resize_3/002784_2014-06-22_19-26-30_094959634447_rgbf000083-resize_3-target.png,1000,1.8046666666667,4,3283,1001,feet,jsons/v1_VE1000_randls_61_rotated.json,947890,1028356,38,Woman
101,613671,DepthScenes,duration_manipulation_targetAtFixation,jsons/v1_VE1000_randls_61_rotated.json,http://54.235.29.9/FacialAge/BNav_EC2/DepthDuration/v2_depth_duration_MTurk/v2_DepthDuration_HTML.html#249,249,1280,720,1280,720,8-29-2022,14-51-36,102,depth_duration_stimuli/000709_2014-06-08_13-51-55_260595134347_rgbf000068-resize_3/000709_2014-06-08_13-51-55_260595134347_rgbf000068-resize_3-target.png,1000,1.8030000000000002,4,2994,999,feet,jsons/v1_VE1000_randls_61_rotated.json,947890,1028356,38,Woman
102,613671,DepthScenes,duration_manipulation_targetAtFixation,jsons/v1_VE1000_randls_61_rotated.json,http://54.235.29.9/FacialAge/BNav_EC2/DepthDuration/v2_depth_duration_MTurk/v2_DepthDuration_HTML.html#249,249,1280,720,1280,720,8-29-2022,14-51-36,103,depth_duration_stimuli/002057_2014-06-24_21-00-13_260595134347_rgbf000120-resize_1/002057_2014-06-24_21-00-13_260595134347_rgbf000120-resize_1-target.png,1000,2.967,7,38970,1010,feet,jsons/v1_VE1000_randls_61_rotated.json,947890,1028356,38,Woman
103,613671,DepthScenes,duration_manipulation_targetAtFixation,jsons/v1_VE1000_randls_61_rotated.json,http://54.235.29.9/FacialAge/BNav_EC2/DepthDuration/v2_depth_duration_MTurk/v2_DepthDuration_HTML.html#249,249,1280,720,1280,720,8-29-2022,14-51-36,104,depth_duration_stimuli/002199_2014-06-28_18-33-56_260595134347_rgbf000074-resize_0/002199_2014-06-28_18-33-56_260595134347_rgbf000074-resize_0-target.png,1000,1.996,3,3403,993,feet,jsons/v1_VE1000_randls_61_rotated.json,947890,1028356,38,Woman
104,613671,DepthScenes,duration_manipulation_targetAtFixation,jsons/v1_VE1000_randls_61_rotated.json,http://54.235.29.9/FacialAge/BNav_EC2/DepthDuration/v2_depth_duration_MTurk/v2_DepthDuration_HTML.html#249,249,1280,720,1280,720,8-29-2022,14-51-36,105,depth_duration_stimuli/001056_2014-06-08_18-46-44_260595134347_rgbf000068-resize_0/001056_2014-06-08_18-46-44_260595134347_rgbf000068-resize_0-target.png,1000,2.6625,7,3274,999,feet,jsons/v1_VE1000_randls_61_rotated.json,947890,1028356,38,Woman
105,613671,DepthScenes,duration_manipulation_targetAtFixation,jsons/v1_VE1000_randls_61_rotated.json,http://54.235.29.9/FacialAge/BNav_EC2/DepthDuration/v2_depth_duration_MTurk/v2_DepthDuration_HTML.html#249,249,1280,720,1280,720,8-29-2022,14-51-36,106,depth_duration_stimuli/000927_2014-06-09_16-32-30_260595134347_rgbf000123-resize_3/000927_2014-06-09_16-32-30_260595134347_rgbf000123-resize_3-target.png,1000,2.6785,6,2902,987,feet,jsons/v1_VE1000_randls_61_rotated.json,947890,1028356,38,Woman
106,613671,DepthScenes,duration_manipulation_targetAtFixation,jsons/v1_VE1000_randls_61_rotated.json,http://54.235.29.9/FacialAge/BNav_EC2/DepthDuration/v2_depth_duration_MTurk/v2_DepthDuration_HTML.html#249,249,1280,720,1280,720,8-29-2022,14-51-36,107,depth_duration_stimuli/001110_2014-06-15_17-25-28_260595134347_rgbf000150-resize_1/001110_2014-06-15_17-25-28_260595134347_rgbf000150-resize_1-target.png,1000,1.7115,5,2939,1000,feet,jsons/v1_VE1000_randls_61_rotated.json,947890,1028356,38,Woman
107,613671,DepthScenes,duration_manipulation_targetAtFixation,jsons/v1_VE1000_randls_61_rotated.json,http://54.235.29.9/FacialAge/BNav_EC2/DepthDuration/v2_depth_duration_MTurk/v2_DepthDuration_HTML.html#249,249,1280,720,1280,720,8-29-2022,14-51-36,108,depth_duration_stimuli/002425_2014-06-28_20-27-29_260595134347_rgbf000031-resize_8/002425_2014-06-28_20-27-29_260595134347_rgbf000031-resize_8-target.png,1000,3.8960000000000004,10,3248,988,feet,jsons/v1_VE1000_randls_61_rotated.json,947890,1028356,38,Woman
108,613671,DepthScenes,duration_manipulation_targetAtFixation,jsons/v1_VE1000_randls_61_rotated.json,http://54.235.29.9/FacialAge/BNav_EC2/DepthDuration/v2_depth_duration_MTurk/v2_DepthDuration_HTML.html#249,249,1280,720,1280,720,8-29-2022,14-51-36,109,depth_duration_stimuli/000642_2014-06-08_16-59-25_260595134347_rgbf000098-resize_2/000642_2014-06-08_16-59-25_260595134347_rgbf000098-resize_2-target.png,1000,2.8815,5,2939,1001,feet,jsons/v1_VE1000_randls_61_rotated.json,947890,1028356,38,Woman
109,613671,DepthScenes,duration_manipulation_targetAtFixation,jsons/v1_VE1000_randls_61_rotated.json,http://54.235.29.9/FacialAge/BNav_EC2/DepthDuration/v2_depth_duration_MTurk/v2_DepthDuration_HTML.html#249,249,1280,720,1280,720,8-29-2022,14-51-36,110,depth_duration_stimuli/003079_2014-06-15_15-18-20_094959634447_rgbf000152-resize_8/003079_2014-06-15_15-18-20_094959634447_rgbf000152-resize_8-target.png,1000,2.8775,9,2959,987,feet,jsons/v1_VE1000_randls_61_rotated.json,947890,1028356,38,Woman
110,613671,DepthScenes,duration_manipulation_targetAtFixation,jsons/v1_VE1000_randls_61_rotated.json,http://54.235.29.9/FacialAge/BNav_EC2/DepthDuration/v2_depth_duration_MTurk/v2_DepthDuration_HTML.html#249,249,1280,720,1280,720,8-29-2022,14-51-36,111,depth_duration_stimuli/000506_2014-06-08_23-21-00_260595134347_rgbf000070-resize_7/000506_2014-06-08_23-21-00_260595134347_rgbf000070-resize_7-target.png,1000,4.0585,5,3802,998,feet,jsons/v1_VE1000_randls_61_rotated.json,947890,1028356,38,Woman
111,613671,DepthScenes,duration_manipulation_targetAtFixation,jsons/v1_VE1000_randls_61_rotated.json,http://54.235.29.9/FacialAge/BNav_EC2/DepthDuration/v2_depth_duration_MTurk/v2_DepthDuration_HTML.html#249,249,1280,720,1280,720,8-29-2022,14-51-36,112,depth_duration_stimuli/002414_2014-06-28_20-24-58_260595134347_rgbf000067-resize_4/002414_2014-06-28_20-24-58_260595134347_rgbf000067-resize_4-target.png,1000,4.363,10,3298,1007,feet,jsons/v1_VE1000_randls_61_rotated.json,947890,1028356,38,Woman
112,613671,DepthScenes,duration_manipulation_targetAtFixation,jsons/v1_VE1000_randls_61_rotated.json,http://54.235.29.9/FacialAge/BNav_EC2/DepthDuration/v2_depth_duration_MTurk/v2_DepthDuration_HTML.html#249,249,1280,720,1280,720,8-29-2022,14-51-36,113,depth_duration_stimuli/000773_2014-06-08_22-24-54_260595134347_rgbf000093-resize_1/000773_2014-06-08_22-24-54_260595134347_rgbf000093-resize_1-target.png,1000,4.973,9,3217,990,feet,jsons/v1_VE1000_randls_61_rotated.json,947890,1028356,38,Woman
113,613671,DepthScenes,duration_manipulation_targetAtFixation,jsons/v1_VE1000_randls_61_rotated.json,http://54.235.29.9/FacialAge/BNav_EC2/DepthDuration/v2_depth_duration_MTurk/v2_DepthDuration_HTML.html#249,249,1280,720,1280,720,8-29-2022,14-51-36,114,depth_duration_stimuli/003083_2014-06-15_15-21-03_094959634447_rgbf000063-resize_1/003083_2014-06-15_15-21-03_094959634447_rgbf000063-resize_1-target.png,1000,4.1405,10,3378,998,feet,jsons/v1_VE1000_randls_61_rotated.json,947890,1028356,38,Woman
114,613671,DepthScenes,duration_manipulation_targetAtFixation,jsons/v1_VE1000_randls_61_rotated.json,http://54.235.29.9/FacialAge/BNav_EC2/DepthDuration/v2_depth_duration_MTurk/v2_DepthDuration_HTML.html#249,249,1280,720,1280,720,8-29-2022,14-51-36,115,depth_duration_stimuli/000486_2014-06-09_20-47-20_260595134347_rgbf000143-resize_2/000486_2014-06-09_20-47-20_260595134347_rgbf000143-resize_2-target.png,1000,4.8325,7,3171,991,feet,jsons/v1_VE1000_randls_61_rotated.json,947890,1028356,38,Woman
115,613671,DepthScenes,duration_manipulation_targetAtFixation,jsons/v1_VE1000_randls_61_rotated.json,http://54.235.29.9/FacialAge/BNav_EC2/DepthDuration/v2_depth_duration_MTurk/v2_DepthDuration_HTML.html#249,249,1280,720,1280,720,8-29-2022,14-51-36,116,depth_duration_stimuli/002637_2014-06-24_14-51-13_094959634447_rgbf000066-resize_4/002637_2014-06-24_14-51-13_094959634447_rgbf000066-resize_4-target.png,1000,1.9955,6,3682,1009,feet,jsons/v1_VE1000_randls_61_rotated.json,947890,1028356,38,Woman
116,613671,DepthScenes,duration_manipulation_targetAtFixation,jsons/v1_VE1000_randls_61_rotated.json,http://54.235.29.9/FacialAge/BNav_EC2/DepthDuration/v2_depth_duration_MTurk/v2_DepthDuration_HTML.html#249,249,1280,720,1280,720,8-29-2022,14-51-36,117,depth_duration_stimuli/003534_2014-05-22_15-06-10_094959634447_rgbf000102-resize_4/003534_2014-05-22_15-06-10_094959634447_rgbf000102-resize_4-target.png,1000,1.426,3,2976,989,feet,jsons/v1_VE1000_randls_61_rotated.json,947890,1028356,38,Woman
117,613671,DepthScenes,duration_manipulation_targetAtFixation,jsons/v1_VE1000_randls_61_rotated.json,http://54.235.29.9/FacialAge/BNav_EC2/DepthDuration/v2_depth_duration_MTurk/v2_DepthDuration_HTML.html#249,249,1280,720,1280,720,8-29-2022,14-51-36,118,depth_duration_stimuli/002467_2014-06-28_20-38-07_260595134347_rgbf000026-resize_2/002467_2014-06-28_20-38-07_260595134347_rgbf000026-resize_2-target.png,1000,4.742,12,3416,998,feet,jsons/v1_VE1000_randls_61_rotated.json,947890,1028356,38,Woman
118,613671,DepthScenes,duration_manipulation_targetAtFixation,jsons/v1_VE1000_randls_61_rotated.json,http://54.235.29.9/FacialAge/BNav_EC2/DepthDuration/v2_depth_duration_MTurk/v2_DepthDuration_HTML.html#249,249,1280,720,1280,720,8-29-2022,14-51-36,119,depth_duration_stimuli/002570_2014-06-24_13-59-54_094959634447_rgbf000059-resize_0/002570_2014-06-24_13-59-54_094959634447_rgbf000059-resize_0-target.png,1000,4.037,8,3338,999,feet,jsons/v1_VE1000_randls_61_rotated.json,947890,1028356,38,Woman
119,613671,DepthScenes,duration_manipulation_targetAtFixation,jsons/v1_VE1000_randls_61_rotated.json,http://54.235.29.9/FacialAge/BNav_EC2/DepthDuration/v2_depth_duration_MTurk/v2_DepthDuration_HTML.html#249,249,1280,720,1280,720,8-29-2022,14-51-36,120,depth_duration_stimuli/000787_2014-06-08_22-33-53_260595134347_rgbf000175-resize_1/000787_2014-06-08_22-33-53_260595134347_rgbf000175-resize-original.jpg,1000,4.784,0,2800,999,feet,jsons/v1_VE1000_randls_61_rotated.json,947890,1028356,38,Woman
120,613671,DepthScenes,duration_manipulation_targetAtFixation,jsons/v1_VE1000_randls_61_rotated.json,http://54.235.29.9/FacialAge/BNav_EC2/DepthDuration/v2_depth_duration_MTurk/v2_DepthDuration_HTML.html#249,249,1280,720,1280,720,8-29-2022,14-51-36,121,depth_duration_stimuli/000549_2014-06-08_22-10-24_260595134347_rgbf000247-resize_3/000549_2014-06-08_22-10-24_260595134347_rgbf000247-resize_3-target.png,1000,1.841,3,2607,1008,feet,jsons/v1_VE1000_randls_61_rotated.json,947890,1028356,38,Woman
121,613671,DepthScenes,duration_manipulation_targetAtFixation,jsons/v1_VE1000_randls_61_rotated.json,http://54.235.29.9/FacialAge/BNav_EC2/DepthDuration/v2_depth_duration_MTurk/v2_DepthDuration_HTML.html#249,249,1280,720,1280,720,8-29-2022,14-51-36,122,depth_duration_stimuli/001055_2014-06-08_18-45-35_260595134347_rgbf000111-resize_4/001055_2014-06-08_18-45-35_260595134347_rgbf000111-resize_4-target.png,1000,2.4290000000000003,10,3017,991,feet,jsons/v1_VE1000_randls_61_rotated.json,947890,1028356,38,Woman
122,613671,DepthScenes,duration_manipulation_targetAtFixation,jsons/v1_VE1000_randls_61_rotated.json,http://54.235.29.9/FacialAge/BNav_EC2/DepthDuration/v2_depth_duration_MTurk/v2_DepthDuration_HTML.html#249,249,1280,720,1280,720,8-29-2022,14-51-36,123,depth_duration_stimuli/000780_2014-06-08_22-28-29_260595134347_rgbf000126-resize_1/000780_2014-06-08_22-28-29_260595134347_rgbf000126-resize_1-target.png,1000,3.3825,8,2954,1001,feet,jsons/v1_VE1000_randls_61_rotated.json,947890,1028356,38,Woman
123,613671,DepthScenes,duration_manipulation_targetAtFixation,jsons/v1_VE1000_randls_61_rotated.json,http://54.235.29.9/FacialAge/BNav_EC2/DepthDuration/v2_depth_duration_MTurk/v2_DepthDuration_HTML.html#249,249,1280,720,1280,720,8-29-2022,14-51-36,124,depth_duration_stimuli/002445_2014-06-28_20-32-16_260595134347_rgbf000029-resize_4/002445_2014-06-28_20-32-16_260595134347_rgbf000029-resize_4-target.png,1000,2.5315,5,10290,995,feet,jsons/v1_VE1000_randls_61_rotated.json,947890,1028356,38,Woman
124,613671,DepthScenes,duration_manipulation_targetAtFixation,jsons/v1_VE1000_randls_61_rotated.json,http://54.235.29.9/FacialAge/BNav_EC2/DepthDuration/v2_depth_duration_MTurk/v2_DepthDuration_HTML.html#249,249,1280,720,1280,720,8-29-2022,14-51-36,125,depth_duration_stimuli/000749_2014-06-08_21-55-06_260595134347_rgbf000070-resize_2/000749_2014-06-08_21-55-06_260595134347_rgbf000070-resize_2-target.png,1000,2.331,7,3591,997,feet,jsons/v1_VE1000_randls_61_rotated.json,947890,1028356,38,Woman
125,613671,DepthScenes,duration_manipulation_targetAtFixation,jsons/v1_VE1000_randls_61_rotated.json,http://54.235.29.9/FacialAge/BNav_EC2/DepthDuration/v2_depth_duration_MTurk/v2_DepthDuration_HTML.html#249,249,1280,720,1280,720,8-29-2022,14-51-36,126,depth_duration_stimuli/002788_2014-06-22_19-36-03_094959634447_rgbf000088-resize_2/002788_2014-06-22_19-36-03_094959634447_rgbf000088-resize_2-target.png,1000,1.6465,9,3055,984,feet,jsons/v1_VE1000_randls_61_rotated.json,947890,1028356,38,Woman
126,613671,DepthScenes,duration_manipulation_targetAtFixation,jsons/v1_VE1000_randls_61_rotated.json,http://54.235.29.9/FacialAge/BNav_EC2/DepthDuration/v2_depth_duration_MTurk/v2_DepthDuration_HTML.html#249,249,1280,720,1280,720,8-29-2022,14-51-36,127,depth_duration_stimuli/001516_2014-06-20_16-25-09_260595134347_rgbf000076-resize_2/001516_2014-06-20_16-25-09_260595134347_rgbf000076-resize_2-target.png,1000,1.7445,6,2726,985,feet,jsons/v1_VE1000_randls_61_rotated.json,947890,1028356,38,Woman
127,613671,DepthScenes,duration_manipulation_targetAtFixation,jsons/v1_VE1000_randls_61_rotated.json,http://54.235.29.9/FacialAge/BNav_EC2/DepthDuration/v2_depth_duration_MTurk/v2_DepthDuration_HTML.html#249,249,1280,720,1280,720,8-29-2022,14-51-36,128,depth_duration_stimuli/002118_2014-06-25_20-32-08_260595134347_rgbf000078-resize_1/002118_2014-06-25_20-32-08_260595134347_rgbf000078-resize_1-target.png,1000,2.6460000000000004,5,2748,993,feet,jsons/v1_VE1000_randls_61_rotated.json,947890,1028356,38,Woman
128,613671,DepthScenes,duration_manipulation_targetAtFixation,jsons/v1_VE1000_randls_61_rotated.json,http://54.235.29.9/FacialAge/BNav_EC2/DepthDuration/v2_depth_duration_MTurk/v2_DepthDuration_HTML.html#249,249,1280,720,1280,720,8-29-2022,14-51-36,129,depth_duration_stimuli/002750_2014-06-22_19-08-03_094959634447_rgbf000094-resize_4/002750_2014-06-22_19-08-03_094959634447_rgbf000094-resize_4-target.png,1000,2.354,8,4339,1000,feet,jsons/v1_VE1000_randls_61_rotated.json,947890,1028356,38,Woman
129,613671,DepthScenes,duration_manipulation_targetAtFixation,jsons/v1_VE1000_randls_61_rotated.json,http://54.235.29.9/FacialAge/BNav_EC2/DepthDuration/v2_depth_duration_MTurk/v2_DepthDuration_HTML.html#249,249,1280,720,1280,720,8-29-2022,14-51-36,130,depth_duration_stimuli/002549_2014-06-24_13-41-39_094959634447_rgbf000022-resize_3/002549_2014-06-24_13-41-39_094959634447_rgbf000022-resize_3-target.png,1000,1.476,4,4008,997,feet,jsons/v1_VE1000_randls_61_rotated.json,947890,1028356,38,Woman
130,613671,DepthScenes,duration_manipulation_targetAtFixation,jsons/v1_VE1000_randls_61_rotated.json,http://54.235.29.9/FacialAge/BNav_EC2/DepthDuration/v2_depth_duration_MTurk/v2_DepthDuration_HTML.html#249,249,1280,720,1280,720,8-29-2022,14-51-36,131,depth_duration_stimuli/001052_2014-06-08_18-24-54_260595134347_rgbf000130-resize_1/001052_2014-06-08_18-24-54_260595134347_rgbf000130-resize_1-target.png,1000,4.1045,10,3333,993,feet,jsons/v1_VE1000_randls_61_rotated.json,947890,1028356,38,Woman
131,613671,DepthScenes,duration_manipulation_targetAtFixation,jsons/v1_VE1000_randls_61_rotated.json,http://54.235.29.9/FacialAge/BNav_EC2/DepthDuration/v2_depth_duration_MTurk/v2_DepthDuration_HTML.html#249,249,1280,720,1280,720,8-29-2022,14-51-36,132,depth_duration_stimuli/002988_2014-06-15_12-24-20_094959634447_rgbf000150-resize_1/002988_2014-06-15_12-24-20_094959634447_rgbf000150-resize_1-target.png,1000,4.7669999999999995,12,2867,1013,feet,jsons/v1_VE1000_randls_61_rotated.json,947890,1028356,38,Woman
132,613671,DepthScenes,duration_manipulation_targetAtFixation,jsons/v1_VE1000_randls_61_rotated.json,http://54.235.29.9/FacialAge/BNav_EC2/DepthDuration/v2_depth_duration_MTurk/v2_DepthDuration_HTML.html#249,249,1280,720,1280,720,8-29-2022,14-51-36,133,depth_duration_stimuli/002875_2014-06-01_15-19-00_094959634447_rgbf000151-resize_1/002875_2014-06-01_15-19-00_094959634447_rgbf000151-resize_1-target.png,1000,1.9675,4,2971,992,feet,jsons/v1_VE1000_randls_61_rotated.json,947890,1028356,38,Woman
133,613671,DepthScenes,duration_manipulation_targetAtFixation,jsons/v1_VE1000_randls_61_rotated.json,http://54.235.29.9/FacialAge/BNav_EC2/DepthDuration/v2_depth_duration_MTurk/v2_DepthDuration_HTML.html#249,249,1280,720,1280,720,8-29-2022,14-51-36,134,depth_duration_stimuli/001011_2014-06-08_23-18-54_260595134347_rgbf000044-resize_4/001011_2014-06-08_23-18-54_260595134347_rgbf000044-resize_4-target.png,1000,2.4730000000000003,8,4662,1007,feet,jsons/v1_VE1000_randls_61_rotated.json,947890,1028356,38,Woman
134,613671,DepthScenes,duration_manipulation_targetAtFixation,jsons/v1_VE1000_randls_61_rotated.json,http://54.235.29.9/FacialAge/BNav_EC2/DepthDuration/v2_depth_duration_MTurk/v2_DepthDuration_HTML.html#249,249,1280,720,1280,720,8-29-2022,14-51-36,135,depth_duration_stimuli/000375_2014-06-08_11-17-29_260595134347_rgbf000133-resize_2/000375_2014-06-08_11-17-29_260595134347_rgbf000133-resize-original.jpg,1000,4.718,0,3022,1009,feet,jsons/v1_VE1000_randls_61_rotated.json,947890,1028356,38,Woman
135,613671,DepthScenes,duration_manipulation_targetAtFixation,jsons/v1_VE1000_randls_61_rotated.json,http://54.235.29.9/FacialAge/BNav_EC2/DepthDuration/v2_depth_duration_MTurk/v2_DepthDuration_HTML.html#249,249,1280,720,1280,720,8-29-2022,14-51-36,136,depth_duration_stimuli/003490_2014-05-21_15-50-11_094959634447_rgbf000101-resize_3/003490_2014-05-21_15-50-11_094959634447_rgbf000101-resize_3-target.png,1000,3.6445,12,2906,1007,feet,jsons/v1_VE1000_randls_61_rotated.json,947890,1028356,38,Woman
136,613671,DepthScenes,duration_manipulation_targetAtFixation,jsons/v1_VE1000_randls_61_rotated.json,http://54.235.29.9/FacialAge/BNav_EC2/DepthDuration/v2_depth_duration_MTurk/v2_DepthDuration_HTML.html#249,249,1280,720,1280,720,8-29-2022,14-51-36,137,depth_duration_stimuli/001175_2014-06-17_15-45-55_260595134347_rgbf000129-resize_4/001175_2014-06-17_15-45-55_260595134347_rgbf000129-resize_4-target.png,1000,4.255,14,3032,1013,feet,jsons/v1_VE1000_randls_61_rotated.json,947890,1028356,38,Woman
137,613671,DepthScenes,duration_manipulation_targetAtFixation,jsons/v1_VE1000_randls_61_rotated.json,http://54.235.29.9/FacialAge/BNav_EC2/DepthDuration/v2_depth_duration_MTurk/v2_DepthDuration_HTML.html#249,249,1280,720,1280,720,8-29-2022,14-51-36,138,depth_duration_stimuli/001650_2014-06-20_12-09-00_260595134347_rgbf000087-resize_3/001650_2014-06-20_12-09-00_260595134347_rgbf000087-resize_3-target.png,1000,1.9505,2,2860,992,feet,jsons/v1_VE1000_randls_61_rotated.json,947890,1028356,38,Woman
138,613671,DepthScenes,duration_manipulation_targetAtFixation,jsons/v1_VE1000_randls_61_rotated.json,http://54.235.29.9/FacialAge/BNav_EC2/DepthDuration/v2_depth_duration_MTurk/v2_DepthDuration_HTML.html#249,249,1280,720,1280,720,8-29-2022,14-51-36,139,depth_duration_stimuli/000682_2014-06-08_23-14-58_260595134347_rgbf000041-resize_5/000682_2014-06-08_23-14-58_260595134347_rgbf000041-resize_5-target.png,1000,2.7239999999999998,10,3465,1006,feet,jsons/v1_VE1000_randls_61_rotated.json,947890,1028356,38,Woman
139,613671,DepthScenes,duration_manipulation_targetAtFixation,jsons/v1_VE1000_randls_61_rotated.json,http://54.235.29.9/FacialAge/BNav_EC2/DepthDuration/v2_depth_duration_MTurk/v2_DepthDuration_HTML.html#249,249,1280,720,1280,720,8-29-2022,14-51-36,140,depth_duration_stimuli/001392_2014-06-19_16-07-59_260595134347_rgbf000046-resize_1/001392_2014-06-19_16-07-59_260595134347_rgbf000046-resize_1-target.png,1000,4.135,11,2390,995,feet,jsons/v1_VE1000_randls_61_rotated.json,947890,1028356,38,Woman
140,613671,DepthScenes,duration_manipulation_targetAtFixation,jsons/v1_VE1000_randls_61_rotated.json,http://54.235.29.9/FacialAge/BNav_EC2/DepthDuration/v2_depth_duration_MTurk/v2_DepthDuration_HTML.html#249,249,1280,720,1280,720,8-29-2022,14-51-36,141,depth_duration_stimuli/001570_2014-06-20_17-21-09_260595134347_rgbf000135-resize_4/001570_2014-06-20_17-21-09_260595134347_rgbf000135-resize_4-target.png,1000,4.467,12,2812,985,feet,jsons/v1_VE1000_randls_61_rotated.json,947890,1028356,38,Woman
141,613671,DepthScenes,duration_manipulation_targetAtFixation,jsons/v1_VE1000_randls_61_rotated.json,http://54.235.29.9/FacialAge/BNav_EC2/DepthDuration/v2_depth_duration_MTurk/v2_DepthDuration_HTML.html#249,249,1280,720,1280,720,8-29-2022,14-51-36,142,depth_duration_stimuli/000854_2014-06-09_19-43-13_260595134347_rgbf000066-resize_0/000854_2014-06-09_19-43-13_260595134347_rgbf000066-resize_0-target.png,1000,3.068,6,4778,999,feet,jsons/v1_VE1000_randls_61_rotated.json,947890,1028356,38,Woman
142,613671,DepthScenes,duration_manipulation_targetAtFixation,jsons/v1_VE1000_randls_61_rotated.json,http://54.235.29.9/FacialAge/BNav_EC2/DepthDuration/v2_depth_duration_MTurk/v2_DepthDuration_HTML.html#249,249,1280,720,1280,720,8-29-2022,14-51-36,143,depth_duration_stimuli/000758_2014-06-08_22-05-08_260595134347_rgbf000085-resize_0/000758_2014-06-08_22-05-08_260595134347_rgbf000085-resize_0-target.png,1000,3.3810000000000002,8,4300,992,feet,jsons/v1_VE1000_randls_61_rotated.json,947890,1028356,38,Woman
143,613671,DepthScenes,duration_manipulation_targetAtFixation,jsons/v1_VE1000_randls_61_rotated.json,http://54.235.29.9/FacialAge/BNav_EC2/DepthDuration/v2_depth_duration_MTurk/v2_DepthDuration_HTML.html#249,249,1280,720,1280,720,8-29-2022,14-51-36,144,depth_duration_stimuli/002444_2014-06-28_20-32-08_260595134347_rgbf000027-resize_0/002444_2014-06-28_20-32-08_260595134347_rgbf000027-resize_0-target.png,1000,4.388999999999999,13,18569,1001,feet,jsons/v1_VE1000_randls_61_rotated.json,947890,1028356,38,Woman
144,613671,DepthScenes,duration_manipulation_targetAtFixation,jsons/v1_VE1000_randls_61_rotated.json,http://54.235.29.9/FacialAge/BNav_EC2/DepthDuration/v2_depth_duration_MTurk/v2_DepthDuration_HTML.html#249,249,1280,720,1280,720,8-29-2022,14-51-36,145,depth_duration_stimuli/000436_2014-06-09_22-25-11_260595134347_rgbf000137-resize_1/000436_2014-06-09_22-25-11_260595134347_rgbf000137-resize_1-target.png,1000,4.0705,15,3066,999,feet,jsons/v1_VE1000_randls_61_rotated.json,947890,1028356,38,Woman
145,613671,DepthScenes,duration_manipulation_targetAtFixation,jsons/v1_VE1000_randls_61_rotated.json,http://54.235.29.9/FacialAge/BNav_EC2/DepthDuration/v2_depth_duration_MTurk/v2_DepthDuration_HTML.html#249,249,1280,720,1280,720,8-29-2022,14-51-36,146,depth_duration_stimuli/000691_2014-06-08_13-08-50_260595134347_rgbf000132-resize_3/000691_2014-06-08_13-08-50_260595134347_rgbf000132-resize_3-target.png,1000,4.1530000000000005,9,3255,1004,feet,jsons/v1_VE1000_randls_61_rotated.json,947890,1028356,38,Woman
146,613671,DepthScenes,duration_manipulation_targetAtFixation,jsons/v1_VE1000_randls_61_rotated.json,http://54.235.29.9/FacialAge/BNav_EC2/DepthDuration/v2_depth_duration_MTurk/v2_DepthDuration_HTML.html#249,249,1280,720,1280,720,8-29-2022,14-51-36,147,depth_duration_stimuli/002213_2014-06-28_18-37-58_260595134347_rgbf000055-resize_1/002213_2014-06-28_18-37-58_260595134347_rgbf000055-resize_1-target.png,1000,3.62,3,4523,1004,feet,jsons/v1_VE1000_randls_61_rotated.json,947890,1028356,38,Woman
147,613671,DepthScenes,duration_manipulation_targetAtFixation,jsons/v1_VE1000_randls_61_rotated.json,http://54.235.29.9/FacialAge/BNav_EC2/DepthDuration/v2_depth_duration_MTurk/v2_DepthDuration_HTML.html#249,249,1280,720,1280,720,8-29-2022,14-51-36,148,depth_duration_stimuli/002344_2014-06-28_20-06-29_260595134347_rgbf000030-resize_1/002344_2014-06-28_20-06-29_260595134347_rgbf000030-resize_1-target.png,1000,1.5795,2,2750,995,feet,jsons/v1_VE1000_randls_61_rotated.json,947890,1028356,38,Woman
148,613671,DepthScenes,duration_manipulation_targetAtFixation,jsons/v1_VE1000_randls_61_rotated.json,http://54.235.29.9/FacialAge/BNav_EC2/DepthDuration/v2_depth_duration_MTurk/v2_DepthDuration_HTML.html#249,249,1280,720,1280,720,8-29-2022,14-51-36,149,depth_duration_stimuli/002725_2014-06-22_11-47-51_094959634447_rgbf000070-resize_1/002725_2014-06-22_11-47-51_094959634447_rgbf000070-resize_1-target.png,1000,2.195,7,3331,1000,feet,jsons/v1_VE1000_randls_61_rotated.json,947890,1028356,38,Woman
149,613671,DepthScenes,duration_manipulation_targetAtFixation,jsons/v1_VE1000_randls_61_rotated.json,http://54.235.29.9/FacialAge/BNav_EC2/DepthDuration/v2_depth_duration_MTurk/v2_DepthDuration_HTML.html#249,249,1280,720,1280,720,8-29-2022,14-51-36,150,depth_duration_stimuli/001450_2014-06-19_17-02-03_260595134347_rgbf000203-resize_4/001450_2014-06-19_17-02-03_260595134347_rgbf000203-resize_4-target.png,1000,4.0106666666667,12,2426,991,feet,jsons/v1_VE1000_randls_61_rotated.json,947890,1028356,38,Woman
150,613671,DepthScenes,duration_manipulation_targetAtFixation,jsons/v1_VE1000_randls_61_rotated.json,http://54.235.29.9/FacialAge/BNav_EC2/DepthDuration/v2_depth_duration_MTurk/v2_DepthDuration_HTML.html#249,249,1280,720,1280,720,8-29-2022,14-51-36,151,depth_duration_stimuli/001449_2014-06-19_17-01-27_260595134347_rgbf000116-resize_2/001449_2014-06-19_17-01-27_260595134347_rgbf000116-resize_2-target.png,1000,3.452,9,3113,991,feet,jsons/v1_VE1000_randls_61_rotated.json,947890,1028356,38,Woman
151,613671,DepthScenes,duration_manipulation_targetAtFixation,jsons/v1_VE1000_randls_61_rotated.json,http://54.235.29.9/FacialAge/BNav_EC2/DepthDuration/v2_depth_duration_MTurk/v2_DepthDuration_HTML.html#249,249,1280,720,1280,720,8-29-2022,14-51-36,152,depth_duration_stimuli/000569_2014-06-09_22-51-47_260595134347_rgbf000141-resize_3/000569_2014-06-09_22-51-47_260595134347_rgbf000141-resize-original.jpg,1000,4.512,0,3029,986,feet,jsons/v1_VE1000_randls_61_rotated.json,947890,1028356,38,Woman
152,613671,DepthScenes,duration_manipulation_targetAtFixation,jsons/v1_VE1000_randls_61_rotated.json,http://54.235.29.9/FacialAge/BNav_EC2/DepthDuration/v2_depth_duration_MTurk/v2_DepthDuration_HTML.html#249,249,1280,720,1280,720,8-29-2022,14-51-36,153,depth_duration_stimuli/003228_2014-05-14_13-42-35_094959634447_rgbf000101-resize_1/003228_2014-05-14_13-42-35_094959634447_rgbf000101-resize_1-target.png,1000,1.9680000000000002,4,4856,997,feet,jsons/v1_VE1000_randls_61_rotated.json,947890,1028356,38,Woman
153,613671,DepthScenes,duration_manipulation_targetAtFixation,jsons/v1_VE1000_randls_61_rotated.json,http://54.235.29.9/FacialAge/BNav_EC2/DepthDuration/v2_depth_duration_MTurk/v2_DepthDuration_HTML.html#249,249,1280,720,1280,720,8-29-2022,14-51-36,154,depth_duration_stimuli/002600_2014-06-24_14-27-04_094959634447_rgbf000074-resize_2/002600_2014-06-24_14-27-04_094959634447_rgbf000074-resize_2-target.png,1000,2.7575,7,11391,998,feet,jsons/v1_VE1000_randls_61_rotated.json,947890,1028356,38,Woman
154,613671,DepthScenes,duration_manipulation_targetAtFixation,jsons/v1_VE1000_randls_61_rotated.json,http://54.235.29.9/FacialAge/BNav_EC2/DepthDuration/v2_depth_duration_MTurk/v2_DepthDuration_HTML.html#249,249,1280,720,1280,720,8-29-2022,14-51-36,155,depth_duration_stimuli/001094_2014-06-15_17-36-00_260595134347_rgbf000205-resize_0/001094_2014-06-15_17-36-00_260595134347_rgbf000205-resize_0-target.png,1000,4.2175,10,3335,989,feet,jsons/v1_VE1000_randls_61_rotated.json,947890,1028356,38,Woman
155,613671,DepthScenes,duration_manipulation_targetAtFixation,jsons/v1_VE1000_randls_61_rotated.json,http://54.235.29.9/FacialAge/BNav_EC2/DepthDuration/v2_depth_duration_MTurk/v2_DepthDuration_HTML.html#249,249,1280,720,1280,720,8-29-2022,14-51-36,156,depth_duration_stimuli/000692_2014-06-08_13-09-42_260595134347_rgbf000199-resize_2/000692_2014-06-08_13-09-42_260595134347_rgbf000199-resize_2-target.png,1000,3.661,12,7132,999,feet,jsons/v1_VE1000_randls_61_rotated.json,947890,1028356,38,Woman
156,613671,DepthScenes,duration_manipulation_targetAtFixation,jsons/v1_VE1000_randls_61_rotated.json,http://54.235.29.9/FacialAge/BNav_EC2/DepthDuration/v2_depth_duration_MTurk/v2_DepthDuration_HTML.html#249,249,1280,720,1280,720,8-29-2022,14-51-36,157,depth_duration_stimuli/003423_2014-05-21_10-23-26_094959634447_rgbf002665-resize_2/003423_2014-05-21_10-23-26_094959634447_rgbf002665-resize_2-target.png,1000,3.2575,12,2552,997,feet,jsons/v1_VE1000_randls_61_rotated.json,947890,1028356,38,Woman
157,613671,DepthScenes,duration_manipulation_targetAtFixation,jsons/v1_VE1000_randls_61_rotated.json,http://54.235.29.9/FacialAge/BNav_EC2/DepthDuration/v2_depth_duration_MTurk/v2_DepthDuration_HTML.html#249,249,1280,720,1280,720,8-29-2022,14-51-36,158,depth_duration_stimuli/002905_2014-06-03_18-04-43_094959634447_rgbf000151-resize_2/002905_2014-06-03_18-04-43_094959634447_rgbf000151-resize_2-target.png,1000,2.0295,6,2869,1007,feet,jsons/v1_VE1000_randls_61_rotated.json,947890,1028356,38,Woman
158,613671,DepthScenes,duration_manipulation_targetAtFixation,jsons/v1_VE1000_randls_61_rotated.json,http://54.235.29.9/FacialAge/BNav_EC2/DepthDuration/v2_depth_duration_MTurk/v2_DepthDuration_HTML.html#249,249,1280,720,1280,720,8-29-2022,14-51-36,159,depth_duration_stimuli/000742_2014-06-08_18-48-09_260595134347_rgbf000164-resize_4/000742_2014-06-08_18-48-09_260595134347_rgbf000164-resize_4-target.png,1000,4.632,11,2611,1000,feet,jsons/v1_VE1000_randls_61_rotated.json,947890,1028356,38,Woman
159,613671,DepthScenes,duration_manipulation_targetAtFixation,jsons/v1_VE1000_randls_61_rotated.json,http://54.235.29.9/FacialAge/BNav_EC2/DepthDuration/v2_depth_duration_MTurk/v2_DepthDuration_HTML.html#249,249,1280,720,1280,720,8-29-2022,14-51-36,160,depth_duration_stimuli/001066_2014-06-08_22-03-20_260595134347_rgbf000066-resize_4/001066_2014-06-08_22-03-20_260595134347_rgbf000066-resize_4-target.png,1000,4.2330000000000005,9,3276,992,feet,jsons/v1_VE1000_randls_61_rotated.json,947890,1028356,38,Woman
160,613671,DepthScenes,duration_manipulation_targetAtFixation,jsons/v1_VE1000_randls_61_rotated.json,http://54.235.29.9/FacialAge/BNav_EC2/DepthDuration/v2_depth_duration_MTurk/v2_DepthDuration_HTML.html#249,249,1280,720,1280,720,8-29-2022,14-51-36,161,depth_duration_stimuli/003495_2014-05-21_16-01-51_094959634447_rgbf000100-resize_3/003495_2014-05-21_16-01-51_094959634447_rgbf000100-resize_3-target.png,1000,1.6255,4,2704,1013,feet,jsons/v1_VE1000_randls_61_rotated.json,947890,1028356,38,Woman
161,613671,DepthScenes,duration_manipulation_targetAtFixation,jsons/v1_VE1000_randls_61_rotated.json,http://54.235.29.9/FacialAge/BNav_EC2/DepthDuration/v2_depth_duration_MTurk/v2_DepthDuration_HTML.html#249,249,1280,720,1280,720,8-29-2022,14-51-36,162,depth_duration_stimuli/001244_2014-06-17_16-47-45_260595134347_rgbf000030-resize_4/001244_2014-06-17_16-47-45_260595134347_rgbf000030-resize_4-target.png,1000,2.0425,6,3255,988,feet,jsons/v1_VE1000_randls_61_rotated.json,947890,1028356,38,Woman
162,613671,DepthScenes,duration_manipulation_targetAtFixation,jsons/v1_VE1000_randls_61_rotated.json,http://54.235.29.9/FacialAge/BNav_EC2/DepthDuration/v2_depth_duration_MTurk/v2_DepthDuration_HTML.html#249,249,1280,720,1280,720,8-29-2022,14-51-36,163,depth_duration_stimuli/001447_2014-06-19_17-00-32_260595134347_rgbf000082-resize_5/001447_2014-06-19_17-00-32_260595134347_rgbf000082-resize_5-target.png,1000,4.13775,8,4147,1001,feet,jsons/v1_VE1000_randls_61_rotated.json,947890,1028356,38,Woman
163,613671,DepthScenes,duration_manipulation_targetAtFixation,jsons/v1_VE1000_randls_61_rotated.json,http://54.235.29.9/FacialAge/BNav_EC2/DepthDuration/v2_depth_duration_MTurk/v2_DepthDuration_HTML.html#249,249,1280,720,1280,720,8-29-2022,14-51-36,164,depth_duration_stimuli/000447_2014-06-08_16-15-46_260595134347_rgbf000130-resize_1/000447_2014-06-08_16-15-46_260595134347_rgbf000130-resize_1-target.png,1000,4.479,10,3204,993,feet,jsons/v1_VE1000_randls_61_rotated.json,947890,1028356,38,Woman
