,subjID,experimentName,versionName,sequenceName,url,selected_row,windowWidth,windowHeight,screenWidth,screenHeight,startDate,startTime,trial,stimulus,duration,actual_depth,depth_estimate,trial_RT,log_sceneDuration,unitSelection,seq_filepath,experimentTime,totalTime,age,gender
0,614598,DepthScenes,duration_manipulation_targetAtFixation,jsons/v1_VE250_randls_71.json,http://54.235.29.9/FacialAge/BNav_EC2/DepthDuration/v2_depth_duration_MTurk/v2_DepthDuration_HTML.html#94,94,1280,800,1280,800,8-20-2022,8-57-15,1,depth_duration_stimuli/002549_2014-06-24_13-41-39_094959634447_rgbf000022-resize_3/002549_2014-06-24_13-41-39_094959634447_rgbf000022-resize_3-target.png,250,1.476,4.0,6392,249,feet,jsons/v1_VE250_randls_71.json,1590991,2158196,57,Woman
1,614598,DepthScenes,duration_manipulation_targetAtFixation,jsons/v1_VE250_randls_71.json,http://54.235.29.9/FacialAge/BNav_EC2/DepthDuration/v2_depth_duration_MTurk/v2_DepthDuration_HTML.html#94,94,1280,800,1280,800,8-20-2022,8-57-15,2,depth_duration_stimuli/002750_2014-06-22_19-08-03_094959634447_rgbf000094-resize_4/002750_2014-06-22_19-08-03_094959634447_rgbf000094-resize_4-target.png,250,2.354,5.0,9599,249,feet,jsons/v1_VE250_randls_71.json,1590991,2158196,57,Woman
2,614598,DepthScenes,duration_manipulation_targetAtFixation,jsons/v1_VE250_randls_71.json,http://54.235.29.9/FacialAge/BNav_EC2/DepthDuration/v2_depth_duration_MTurk/v2_DepthDuration_HTML.html#94,94,1280,800,1280,800,8-20-2022,8-57-15,3,depth_duration_stimuli/000917_2014-06-09_22-45-29_260595134347_rgbf000149-resize_3/000917_2014-06-09_22-45-29_260595134347_rgbf000149-resize_3-target.png,250,4.1865,9.0,8356,248,feet,jsons/v1_VE250_randls_71.json,1590991,2158196,57,Woman
3,614598,DepthScenes,duration_manipulation_targetAtFixation,jsons/v1_VE250_randls_71.json,http://54.235.29.9/FacialAge/BNav_EC2/DepthDuration/v2_depth_duration_MTurk/v2_DepthDuration_HTML.html#94,94,1280,800,1280,800,8-20-2022,8-57-15,4,depth_duration_stimuli/002323_2014-06-28_20-01-54_260595134347_rgbf000051-resize_4/002323_2014-06-28_20-01-54_260595134347_rgbf000051-resize_4-target.png,250,3.7310000000000003,10.0,14857,249,feet,jsons/v1_VE250_randls_71.json,1590991,2158196,57,Woman
4,614598,DepthScenes,duration_manipulation_targetAtFixation,jsons/v1_VE250_randls_71.json,http://54.235.29.9/FacialAge/BNav_EC2/DepthDuration/v2_depth_duration_MTurk/v2_DepthDuration_HTML.html#94,94,1280,800,1280,800,8-20-2022,8-57-15,5,depth_duration_stimuli/001150_2014-06-17_15-27-34_260595134347_rgbf000108-resize_2/001150_2014-06-17_15-27-34_260595134347_rgbf000108-resize_2-target.png,250,4.0325,5.0,7346,248,feet,jsons/v1_VE250_randls_71.json,1590991,2158196,57,Woman
5,614598,DepthScenes,duration_manipulation_targetAtFixation,jsons/v1_VE250_randls_71.json,http://54.235.29.9/FacialAge/BNav_EC2/DepthDuration/v2_depth_duration_MTurk/v2_DepthDuration_HTML.html#94,94,1280,800,1280,800,8-20-2022,8-57-15,6,depth_duration_stimuli/000665_2014-06-09_20-42-35_260595134347_rgbf000110-resize_1/000665_2014-06-09_20-42-35_260595134347_rgbf000110-resize_1-target.png,250,3.057,2.0,6909,250,feet,jsons/v1_VE250_randls_71.json,1590991,2158196,57,Woman
6,614598,DepthScenes,duration_manipulation_targetAtFixation,jsons/v1_VE250_randls_71.json,http://54.235.29.9/FacialAge/BNav_EC2/DepthDuration/v2_depth_duration_MTurk/v2_DepthDuration_HTML.html#94,94,1280,800,1280,800,8-20-2022,8-57-15,7,depth_duration_stimuli/003621_2014-05-23_18-06-08_094959634447_rgbf000101-resize_1/003621_2014-05-23_18-06-08_094959634447_rgbf000101-resize_1-target.png,250,3.9835,4.0,6301,247,feet,jsons/v1_VE250_randls_71.json,1590991,2158196,57,Woman
7,614598,DepthScenes,duration_manipulation_targetAtFixation,jsons/v1_VE250_randls_71.json,http://54.235.29.9/FacialAge/BNav_EC2/DepthDuration/v2_depth_duration_MTurk/v2_DepthDuration_HTML.html#94,94,1280,800,1280,800,8-20-2022,8-57-15,8,depth_duration_stimuli/001584_2014-06-20_11-07-43_260595134347_rgbf000002-resize_1/001584_2014-06-20_11-07-43_260595134347_rgbf000002-resize_1-target.png,250,3.53,5.0,10183,250,feet,jsons/v1_VE250_randls_71.json,1590991,2158196,57,Woman
8,614598,DepthScenes,duration_manipulation_targetAtFixation,jsons/v1_VE250_randls_71.json,http://54.235.29.9/FacialAge/BNav_EC2/DepthDuration/v2_depth_duration_MTurk/v2_DepthDuration_HTML.html#94,94,1280,800,1280,800,8-20-2022,8-57-15,9,depth_duration_stimuli/001092_2014-06-15_17-34-58_260595134347_rgbf000171-resize_3/001092_2014-06-15_17-34-58_260595134347_rgbf000171-resize_3-target.png,250,2.6935,1.5,11257,247,feet,jsons/v1_VE250_randls_71.json,1590991,2158196,57,Woman
9,614598,DepthScenes,duration_manipulation_targetAtFixation,jsons/v1_VE250_randls_71.json,http://54.235.29.9/FacialAge/BNav_EC2/DepthDuration/v2_depth_duration_MTurk/v2_DepthDuration_HTML.html#94,94,1280,800,1280,800,8-20-2022,8-57-15,10,depth_duration_stimuli/002545_2014-06-24_13-38-53_094959634447_rgbf000080-resize_4/002545_2014-06-24_13-38-53_094959634447_rgbf000080-resize_4-target.png,250,1.9205,4.5,11337,249,feet,jsons/v1_VE250_randls_71.json,1590991,2158196,57,Woman
10,614598,DepthScenes,duration_manipulation_targetAtFixation,jsons/v1_VE250_randls_71.json,http://54.235.29.9/FacialAge/BNav_EC2/DepthDuration/v2_depth_duration_MTurk/v2_DepthDuration_HTML.html#94,94,1280,800,1280,800,8-20-2022,8-57-15,11,depth_duration_stimuli/002039_2014-06-24_20-22-38_260595134347_rgbf000084-resize_1/002039_2014-06-24_20-22-38_260595134347_rgbf000084-resize_1-target.png,250,4.408,6.0,12064,247,feet,jsons/v1_VE250_randls_71.json,1590991,2158196,57,Woman
11,614598,DepthScenes,duration_manipulation_targetAtFixation,jsons/v1_VE250_randls_71.json,http://54.235.29.9/FacialAge/BNav_EC2/DepthDuration/v2_depth_duration_MTurk/v2_DepthDuration_HTML.html#94,94,1280,800,1280,800,8-20-2022,8-57-15,12,depth_duration_stimuli/002103_2014-06-25_20-00-40_260595134347_rgbf000049-resize_0/002103_2014-06-25_20-00-40_260595134347_rgbf000049-resize_0-target.png,250,4.105,7.0,11938,246,feet,jsons/v1_VE250_randls_71.json,1590991,2158196,57,Woman
12,614598,DepthScenes,duration_manipulation_targetAtFixation,jsons/v1_VE250_randls_71.json,http://54.235.29.9/FacialAge/BNav_EC2/DepthDuration/v2_depth_duration_MTurk/v2_DepthDuration_HTML.html#94,94,1280,800,1280,800,8-20-2022,8-57-15,13,depth_duration_stimuli/000569_2014-06-09_22-51-47_260595134347_rgbf000141-resize_3/000569_2014-06-09_22-51-47_260595134347_rgbf000141-resize-original.jpg,250,4.512,0.0,5117,246,feet,jsons/v1_VE250_randls_71.json,1590991,2158196,57,Woman
13,614598,DepthScenes,duration_manipulation_targetAtFixation,jsons/v1_VE250_randls_71.json,http://54.235.29.9/FacialAge/BNav_EC2/DepthDuration/v2_depth_duration_MTurk/v2_DepthDuration_HTML.html#94,94,1280,800,1280,800,8-20-2022,8-57-15,14,depth_duration_stimuli/000739_2014-06-08_18-45-58_260595134347_rgbf000068-resize_1/000739_2014-06-08_18-45-58_260595134347_rgbf000068-resize_1-target.png,250,3.534,6.0,8634,249,feet,jsons/v1_VE250_randls_71.json,1590991,2158196,57,Woman
14,614598,DepthScenes,duration_manipulation_targetAtFixation,jsons/v1_VE250_randls_71.json,http://54.235.29.9/FacialAge/BNav_EC2/DepthDuration/v2_depth_duration_MTurk/v2_DepthDuration_HTML.html#94,94,1280,800,1280,800,8-20-2022,8-57-15,15,depth_duration_stimuli/000734_2014-06-08_17-39-11_260595134347_rgbf000128-resize_2/000734_2014-06-08_17-39-11_260595134347_rgbf000128-resize_2-target.png,250,4.098,9.0,10618,250,feet,jsons/v1_VE250_randls_71.json,1590991,2158196,57,Woman
15,614598,DepthScenes,duration_manipulation_targetAtFixation,jsons/v1_VE250_randls_71.json,http://54.235.29.9/FacialAge/BNav_EC2/DepthDuration/v2_depth_duration_MTurk/v2_DepthDuration_HTML.html#94,94,1280,800,1280,800,8-20-2022,8-57-15,16,depth_duration_stimuli/000758_2014-06-08_22-05-08_260595134347_rgbf000085-resize_0/000758_2014-06-08_22-05-08_260595134347_rgbf000085-resize_0-target.png,250,3.3810000000000002,6.0,12685,250,feet,jsons/v1_VE250_randls_71.json,1590991,2158196,57,Woman
16,614598,DepthScenes,duration_manipulation_targetAtFixation,jsons/v1_VE250_randls_71.json,http://54.235.29.9/FacialAge/BNav_EC2/DepthDuration/v2_depth_duration_MTurk/v2_DepthDuration_HTML.html#94,94,1280,800,1280,800,8-20-2022,8-57-15,17,depth_duration_stimuli/000854_2014-06-09_19-43-13_260595134347_rgbf000066-resize_0/000854_2014-06-09_19-43-13_260595134347_rgbf000066-resize_0-target.png,250,3.068,1.5,11390,252,feet,jsons/v1_VE250_randls_71.json,1590991,2158196,57,Woman
17,614598,DepthScenes,duration_manipulation_targetAtFixation,jsons/v1_VE250_randls_71.json,http://54.235.29.9/FacialAge/BNav_EC2/DepthDuration/v2_depth_duration_MTurk/v2_DepthDuration_HTML.html#94,94,1280,800,1280,800,8-20-2022,8-57-15,18,depth_duration_stimuli/001555_2014-06-20_17-12-10_260595134347_rgbf000065-resize_4/001555_2014-06-20_17-12-10_260595134347_rgbf000065-resize_4-target.png,250,1.633,0.6,8668,250,feet,jsons/v1_VE250_randls_71.json,1590991,2158196,57,Woman
18,614598,DepthScenes,duration_manipulation_targetAtFixation,jsons/v1_VE250_randls_71.json,http://54.235.29.9/FacialAge/BNav_EC2/DepthDuration/v2_depth_duration_MTurk/v2_DepthDuration_HTML.html#94,94,1280,800,1280,800,8-20-2022,8-57-15,19,depth_duration_stimuli/000103_2014-05-14_22-01-17_260595134347_rgbf000152-resize_5/000103_2014-05-14_22-01-17_260595134347_rgbf000152-resize_5-target.png,250,1.993,7.0,10606,250,feet,jsons/v1_VE250_randls_71.json,1590991,2158196,57,Woman
19,614598,DepthScenes,duration_manipulation_targetAtFixation,jsons/v1_VE250_randls_71.json,http://54.235.29.9/FacialAge/BNav_EC2/DepthDuration/v2_depth_duration_MTurk/v2_DepthDuration_HTML.html#94,94,1280,800,1280,800,8-20-2022,8-57-15,20,depth_duration_stimuli/002763_2014-06-22_19-13-10_094959634447_rgbf000075-resize_4/002763_2014-06-22_19-13-10_094959634447_rgbf000075-resize_4-target.png,250,1.68375,4.0,8255,255,feet,jsons/v1_VE250_randls_71.json,1590991,2158196,57,Woman
20,614598,DepthScenes,duration_manipulation_targetAtFixation,jsons/v1_VE250_randls_71.json,http://54.235.29.9/FacialAge/BNav_EC2/DepthDuration/v2_depth_duration_MTurk/v2_DepthDuration_HTML.html#94,94,1280,800,1280,800,8-20-2022,8-57-15,21,depth_duration_stimuli/002209_2014-06-28_18-36-10_260595134347_rgbf000051-resize_1/002209_2014-06-28_18-36-10_260595134347_rgbf000051-resize_1-target.png,250,2.057,3.0,7310,250,feet,jsons/v1_VE250_randls_71.json,1590991,2158196,57,Woman
21,614598,DepthScenes,duration_manipulation_targetAtFixation,jsons/v1_VE250_randls_71.json,http://54.235.29.9/FacialAge/BNav_EC2/DepthDuration/v2_depth_duration_MTurk/v2_DepthDuration_HTML.html#94,94,1280,800,1280,800,8-20-2022,8-57-15,22,depth_duration_stimuli/000469_2014-06-09_19-42-10_260595134347_rgbf000081-resize_1/000469_2014-06-09_19-42-10_260595134347_rgbf000081-resize_1-target.png,250,1.652,1.5,10976,247,feet,jsons/v1_VE250_randls_71.json,1590991,2158196,57,Woman
22,614598,DepthScenes,duration_manipulation_targetAtFixation,jsons/v1_VE250_randls_71.json,http://54.235.29.9/FacialAge/BNav_EC2/DepthDuration/v2_depth_duration_MTurk/v2_DepthDuration_HTML.html#94,94,1280,800,1280,800,8-20-2022,8-57-15,23,depth_duration_stimuli/000483_2014-06-09_20-41-45_260595134347_rgbf000116-resize_4/000483_2014-06-09_20-41-45_260595134347_rgbf000116-resize_4-target.png,250,1.337,1.0,6543,255,feet,jsons/v1_VE250_randls_71.json,1590991,2158196,57,Woman
23,614598,DepthScenes,duration_manipulation_targetAtFixation,jsons/v1_VE250_randls_71.json,http://54.235.29.9/FacialAge/BNav_EC2/DepthDuration/v2_depth_duration_MTurk/v2_DepthDuration_HTML.html#94,94,1280,800,1280,800,8-20-2022,8-57-15,24,depth_duration_stimuli/003534_2014-05-22_15-06-10_094959634447_rgbf000102-resize_4/003534_2014-05-22_15-06-10_094959634447_rgbf000102-resize_4-target.png,250,1.426,0.6,8873,249,feet,jsons/v1_VE250_randls_71.json,1590991,2158196,57,Woman
24,614598,DepthScenes,duration_manipulation_targetAtFixation,jsons/v1_VE250_randls_71.json,http://54.235.29.9/FacialAge/BNav_EC2/DepthDuration/v2_depth_duration_MTurk/v2_DepthDuration_HTML.html#94,94,1280,800,1280,800,8-20-2022,8-57-15,25,depth_duration_stimuli/002637_2014-06-24_14-51-13_094959634447_rgbf000066-resize_4/002637_2014-06-24_14-51-13_094959634447_rgbf000066-resize_4-target.png,250,1.9955,4.0,13886,252,feet,jsons/v1_VE250_randls_71.json,1590991,2158196,57,Woman
25,614598,DepthScenes,duration_manipulation_targetAtFixation,jsons/v1_VE250_randls_71.json,http://54.235.29.9/FacialAge/BNav_EC2/DepthDuration/v2_depth_duration_MTurk/v2_DepthDuration_HTML.html#94,94,1280,800,1280,800,8-20-2022,8-57-15,26,depth_duration_stimuli/001056_2014-06-08_18-46-44_260595134347_rgbf000068-resize_0/001056_2014-06-08_18-46-44_260595134347_rgbf000068-resize_0-target.png,250,2.6625,5.0,11695,250,feet,jsons/v1_VE250_randls_71.json,1590991,2158196,57,Woman
26,614598,DepthScenes,duration_manipulation_targetAtFixation,jsons/v1_VE250_randls_71.json,http://54.235.29.9/FacialAge/BNav_EC2/DepthDuration/v2_depth_duration_MTurk/v2_DepthDuration_HTML.html#94,94,1280,800,1280,800,8-20-2022,8-57-15,27,depth_duration_stimuli/002199_2014-06-28_18-33-56_260595134347_rgbf000074-resize_0/002199_2014-06-28_18-33-56_260595134347_rgbf000074-resize_0-target.png,250,1.996,2.5,7309,251,feet,jsons/v1_VE250_randls_71.json,1590991,2158196,57,Woman
27,614598,DepthScenes,duration_manipulation_targetAtFixation,jsons/v1_VE250_randls_71.json,http://54.235.29.9/FacialAge/BNav_EC2/DepthDuration/v2_depth_duration_MTurk/v2_DepthDuration_HTML.html#94,94,1280,800,1280,800,8-20-2022,8-57-15,28,depth_duration_stimuli/002989_2014-06-15_12-25-03_094959634447_rgbf000150-resize_3/002989_2014-06-15_12-25-03_094959634447_rgbf000150-resize_3-target.png,250,4.1975,12.0,6758,251,feet,jsons/v1_VE250_randls_71.json,1590991,2158196,57,Woman
28,614598,DepthScenes,duration_manipulation_targetAtFixation,jsons/v1_VE250_randls_71.json,http://54.235.29.9/FacialAge/BNav_EC2/DepthDuration/v2_depth_duration_MTurk/v2_DepthDuration_HTML.html#94,94,1280,800,1280,800,8-20-2022,8-57-15,29,depth_duration_stimuli/000866_2014-06-09_20-45-42_260595134347_rgbf000139-resize_1/000866_2014-06-09_20-45-42_260595134347_rgbf000139-resize_1-target.png,250,3.2155,7.0,11463,251,feet,jsons/v1_VE250_randls_71.json,1590991,2158196,57,Woman
29,614598,DepthScenes,duration_manipulation_targetAtFixation,jsons/v1_VE250_randls_71.json,http://54.235.29.9/FacialAge/BNav_EC2/DepthDuration/v2_depth_duration_MTurk/v2_DepthDuration_HTML.html#94,94,1280,800,1280,800,8-20-2022,8-57-15,30,depth_duration_stimuli/000375_2014-06-08_11-17-29_260595134347_rgbf000133-resize_2/000375_2014-06-08_11-17-29_260595134347_rgbf000133-resize-original.jpg,250,4.718,0.0,4850,250,feet,jsons/v1_VE250_randls_71.json,1590991,2158196,57,Woman
30,614598,DepthScenes,duration_manipulation_targetAtFixation,jsons/v1_VE250_randls_71.json,http://54.235.29.9/FacialAge/BNav_EC2/DepthDuration/v2_depth_duration_MTurk/v2_DepthDuration_HTML.html#94,94,1280,800,1280,800,8-20-2022,8-57-15,31,depth_duration_stimuli/002272_2014-06-28_18-53-56_260595134347_rgbf000067-resize_2/002272_2014-06-28_18-53-56_260595134347_rgbf000067-resize_2-target.png,250,1.138,3.0,8550,250,feet,jsons/v1_VE250_randls_71.json,1590991,2158196,57,Woman
31,614598,DepthScenes,duration_manipulation_targetAtFixation,jsons/v1_VE250_randls_71.json,http://54.235.29.9/FacialAge/BNav_EC2/DepthDuration/v2_depth_duration_MTurk/v2_DepthDuration_HTML.html#94,94,1280,800,1280,800,8-20-2022,8-57-15,32,depth_duration_stimuli/001571_2014-06-20_17-21-32_260595134347_rgbf000089-resize_1/001571_2014-06-20_17-21-32_260595134347_rgbf000089-resize_1-target.png,250,1.86,2.5,15193,250,feet,jsons/v1_VE250_randls_71.json,1590991,2158196,57,Woman
32,614598,DepthScenes,duration_manipulation_targetAtFixation,jsons/v1_VE250_randls_71.json,http://54.235.29.9/FacialAge/BNav_EC2/DepthDuration/v2_depth_duration_MTurk/v2_DepthDuration_HTML.html#94,94,1280,800,1280,800,8-20-2022,8-57-15,33,depth_duration_stimuli/002748_2014-06-22_19-07-22_094959634447_rgbf000078-resize_1/002748_2014-06-22_19-07-22_094959634447_rgbf000078-resize_1-target.png,250,4.6705,14.0,15144,252,feet,jsons/v1_VE250_randls_71.json,1590991,2158196,57,Woman
33,614598,DepthScenes,duration_manipulation_targetAtFixation,jsons/v1_VE250_randls_71.json,http://54.235.29.9/FacialAge/BNav_EC2/DepthDuration/v2_depth_duration_MTurk/v2_DepthDuration_HTML.html#94,94,1280,800,1280,800,8-20-2022,8-57-15,34,depth_duration_stimuli/002995_2014-06-15_12-31-26_094959634447_rgbf000150-resize_1/002995_2014-06-15_12-31-26_094959634447_rgbf000150-resize_1-target.png,250,3.8360000000000003,5.0,9539,251,feet,jsons/v1_VE250_randls_71.json,1590991,2158196,57,Woman
34,614598,DepthScenes,duration_manipulation_targetAtFixation,jsons/v1_VE250_randls_71.json,http://54.235.29.9/FacialAge/BNav_EC2/DepthDuration/v2_depth_duration_MTurk/v2_DepthDuration_HTML.html#94,94,1280,800,1280,800,8-20-2022,8-57-15,35,depth_duration_stimuli/000436_2014-06-09_22-25-11_260595134347_rgbf000137-resize_1/000436_2014-06-09_22-25-11_260595134347_rgbf000137-resize_1-target.png,250,4.0705,8.0,14721,249,feet,jsons/v1_VE250_randls_71.json,1590991,2158196,57,Woman
35,614598,DepthScenes,duration_manipulation_targetAtFixation,jsons/v1_VE250_randls_71.json,http://54.235.29.9/FacialAge/BNav_EC2/DepthDuration/v2_depth_duration_MTurk/v2_DepthDuration_HTML.html#94,94,1280,800,1280,800,8-20-2022,8-57-15,36,depth_duration_stimuli/002444_2014-06-28_20-32-08_260595134347_rgbf000027-resize_0/002444_2014-06-28_20-32-08_260595134347_rgbf000027-resize_0-target.png,250,4.388999999999999,10.0,15546,251,feet,jsons/v1_VE250_randls_71.json,1590991,2158196,57,Woman
36,614598,DepthScenes,duration_manipulation_targetAtFixation,jsons/v1_VE250_randls_71.json,http://54.235.29.9/FacialAge/BNav_EC2/DepthDuration/v2_depth_duration_MTurk/v2_DepthDuration_HTML.html#94,94,1280,800,1280,800,8-20-2022,8-57-15,37,depth_duration_stimuli/001133_2014-06-17_14-49-16_260595134347_rgbf000100-resize_0/001133_2014-06-17_14-49-16_260595134347_rgbf000100-resize_0-target.png,250,4.2115,7.0,13786,247,feet,jsons/v1_VE250_randls_71.json,1590991,2158196,57,Woman
37,614598,DepthScenes,duration_manipulation_targetAtFixation,jsons/v1_VE250_randls_71.json,http://54.235.29.9/FacialAge/BNav_EC2/DepthDuration/v2_depth_duration_MTurk/v2_DepthDuration_HTML.html#94,94,1280,800,1280,800,8-20-2022,8-57-15,38,depth_duration_stimuli/001132_2014-06-17_14-48-54_260595134347_rgbf000100-resize_2/001132_2014-06-17_14-48-54_260595134347_rgbf000100-resize_2-target.png,250,3.753,4.0,12465,247,feet,jsons/v1_VE250_randls_71.json,1590991,2158196,57,Woman
38,614598,DepthScenes,duration_manipulation_targetAtFixation,jsons/v1_VE250_randls_71.json,http://54.235.29.9/FacialAge/BNav_EC2/DepthDuration/v2_depth_duration_MTurk/v2_DepthDuration_HTML.html#94,94,1280,800,1280,800,8-20-2022,8-57-15,39,depth_duration_stimuli/000929_2014-06-09_16-33-19_260595134347_rgbf000139-resize_0/000929_2014-06-09_16-33-19_260595134347_rgbf000139-resize_0-target.png,250,2.8680000000000003,3.0,7525,250,feet,jsons/v1_VE250_randls_71.json,1590991,2158196,57,Woman
39,614598,DepthScenes,duration_manipulation_targetAtFixation,jsons/v1_VE250_randls_71.json,http://54.235.29.9/FacialAge/BNav_EC2/DepthDuration/v2_depth_duration_MTurk/v2_DepthDuration_HTML.html#94,94,1280,800,1280,800,8-20-2022,8-57-15,40,depth_duration_stimuli/000457_2014-06-08_16-52-43_260595134347_rgbf000199-resize_1/000457_2014-06-08_16-52-43_260595134347_rgbf000199-resize_1-target.png,250,3.6489999999999996,4.0,6544,246,feet,jsons/v1_VE250_randls_71.json,1590991,2158196,57,Woman
40,614598,DepthScenes,duration_manipulation_targetAtFixation,jsons/v1_VE250_randls_71.json,http://54.235.29.9/FacialAge/BNav_EC2/DepthDuration/v2_depth_duration_MTurk/v2_DepthDuration_HTML.html#94,94,1280,800,1280,800,8-20-2022,8-57-15,41,depth_duration_stimuli/002118_2014-06-25_20-32-08_260595134347_rgbf000078-resize_1/002118_2014-06-25_20-32-08_260595134347_rgbf000078-resize_1-target.png,250,2.6460000000000004,2.0,11847,259,feet,jsons/v1_VE250_randls_71.json,1590991,2158196,57,Woman
41,614598,DepthScenes,duration_manipulation_targetAtFixation,jsons/v1_VE250_randls_71.json,http://54.235.29.9/FacialAge/BNav_EC2/DepthDuration/v2_depth_duration_MTurk/v2_DepthDuration_HTML.html#94,94,1280,800,1280,800,8-20-2022,8-57-15,42,depth_duration_stimuli/001516_2014-06-20_16-25-09_260595134347_rgbf000076-resize_2/001516_2014-06-20_16-25-09_260595134347_rgbf000076-resize_2-target.png,250,1.7445,3.5,11587,251,feet,jsons/v1_VE250_randls_71.json,1590991,2158196,57,Woman
42,614598,DepthScenes,duration_manipulation_targetAtFixation,jsons/v1_VE250_randls_71.json,http://54.235.29.9/FacialAge/BNav_EC2/DepthDuration/v2_depth_duration_MTurk/v2_DepthDuration_HTML.html#94,94,1280,800,1280,800,8-20-2022,8-57-15,43,depth_duration_stimuli/003492_2014-05-21_15-50-55_094959634447_rgbf000828-resize_1/003492_2014-05-21_15-50-55_094959634447_rgbf000828-resize_1-target.png,250,4.06875,5.0,9560,248,feet,jsons/v1_VE250_randls_71.json,1590991,2158196,57,Woman
43,614598,DepthScenes,duration_manipulation_targetAtFixation,jsons/v1_VE250_randls_71.json,http://54.235.29.9/FacialAge/BNav_EC2/DepthDuration/v2_depth_duration_MTurk/v2_DepthDuration_HTML.html#94,94,1280,800,1280,800,8-20-2022,8-57-15,44,depth_duration_stimuli/002568_2014-06-24_13-59-21_094959634447_rgbf000062-resize_4/002568_2014-06-24_13-59-21_094959634447_rgbf000062-resize_4-target.png,250,3.015,3.5,10319,249,feet,jsons/v1_VE250_randls_71.json,1590991,2158196,57,Woman
44,614598,DepthScenes,duration_manipulation_targetAtFixation,jsons/v1_VE250_randls_71.json,http://54.235.29.9/FacialAge/BNav_EC2/DepthDuration/v2_depth_duration_MTurk/v2_DepthDuration_HTML.html#94,94,1280,800,1280,800,8-20-2022,8-57-15,45,depth_duration_stimuli/000787_2014-06-08_22-33-53_260595134347_rgbf000175-resize_1/000787_2014-06-08_22-33-53_260595134347_rgbf000175-resize-original.jpg,250,4.784,0.0,4582,250,feet,jsons/v1_VE250_randls_71.json,1590991,2158196,57,Woman
45,614598,DepthScenes,duration_manipulation_targetAtFixation,jsons/v1_VE250_randls_71.json,http://54.235.29.9/FacialAge/BNav_EC2/DepthDuration/v2_depth_duration_MTurk/v2_DepthDuration_HTML.html#94,94,1280,800,1280,800,8-20-2022,8-57-15,46,depth_duration_stimuli/001011_2014-06-08_23-18-54_260595134347_rgbf000044-resize_4/001011_2014-06-08_23-18-54_260595134347_rgbf000044-resize_4-target.png,250,2.4730000000000003,6.0,10058,251,feet,jsons/v1_VE250_randls_71.json,1590991,2158196,57,Woman
46,614598,DepthScenes,duration_manipulation_targetAtFixation,jsons/v1_VE250_randls_71.json,http://54.235.29.9/FacialAge/BNav_EC2/DepthDuration/v2_depth_duration_MTurk/v2_DepthDuration_HTML.html#94,94,1280,800,1280,800,8-20-2022,8-57-15,47,depth_duration_stimuli/002875_2014-06-01_15-19-00_094959634447_rgbf000151-resize_1/002875_2014-06-01_15-19-00_094959634447_rgbf000151-resize_1-target.png,250,1.9675,7.0,12857,249,feet,jsons/v1_VE250_randls_71.json,1590991,2158196,57,Woman
47,614598,DepthScenes,duration_manipulation_targetAtFixation,jsons/v1_VE250_randls_71.json,http://54.235.29.9/FacialAge/BNav_EC2/DepthDuration/v2_depth_duration_MTurk/v2_DepthDuration_HTML.html#94,94,1280,800,1280,800,8-20-2022,8-57-15,48,depth_duration_stimuli/003070_2014-06-15_14-58-27_094959634447_rgbf000150-resize_3/003070_2014-06-15_14-58-27_094959634447_rgbf000150-resize_3-target.png,250,2.9415,4.0,10213,249,feet,jsons/v1_VE250_randls_71.json,1590991,2158196,57,Woman
48,614598,DepthScenes,duration_manipulation_targetAtFixation,jsons/v1_VE250_randls_71.json,http://54.235.29.9/FacialAge/BNav_EC2/DepthDuration/v2_depth_duration_MTurk/v2_DepthDuration_HTML.html#94,94,1280,800,1280,800,8-20-2022,8-57-15,49,depth_duration_stimuli/000943_2014-06-09_19-31-07_260595134347_rgbf000128-resize_1/000943_2014-06-09_19-31-07_260595134347_rgbf000128-resize_1-target.png,250,1.9765,3.0,6077,247,feet,jsons/v1_VE250_randls_71.json,1590991,2158196,57,Woman
49,614598,DepthScenes,duration_manipulation_targetAtFixation,jsons/v1_VE250_randls_71.json,http://54.235.29.9/FacialAge/BNav_EC2/DepthDuration/v2_depth_duration_MTurk/v2_DepthDuration_HTML.html#94,94,1280,800,1280,800,8-20-2022,8-57-15,50,depth_duration_stimuli/000009_2014-05-26_14-32-05_260595134347_rgbf000034-resize_3/000009_2014-05-26_14-32-05_260595134347_rgbf000034-resize_3-target.png,250,3.8715,7.0,9142,251,feet,jsons/v1_VE250_randls_71.json,1590991,2158196,57,Woman
50,614598,DepthScenes,duration_manipulation_targetAtFixation,jsons/v1_VE250_randls_71.json,http://54.235.29.9/FacialAge/BNav_EC2/DepthDuration/v2_depth_duration_MTurk/v2_DepthDuration_HTML.html#94,94,1280,800,1280,800,8-20-2022,8-57-15,51,depth_duration_stimuli/001828_2014-06-26_21-40-03_260595134347_rgbf000024-resize_0/001828_2014-06-26_21-40-03_260595134347_rgbf000024-resize_0-target.png,250,4.8260000000000005,4.0,9896,251,feet,jsons/v1_VE250_randls_71.json,1590991,2158196,57,Woman
51,614598,DepthScenes,duration_manipulation_targetAtFixation,jsons/v1_VE250_randls_71.json,http://54.235.29.9/FacialAge/BNav_EC2/DepthDuration/v2_depth_duration_MTurk/v2_DepthDuration_HTML.html#94,94,1280,800,1280,800,8-20-2022,8-57-15,52,depth_duration_stimuli/001158_2014-06-17_15-32-16_260595134347_rgbf000138-resize_2/001158_2014-06-17_15-32-16_260595134347_rgbf000138-resize_2-target.png,250,4.5315,3.0,10641,253,feet,jsons/v1_VE250_randls_71.json,1590991,2158196,57,Woman
52,614598,DepthScenes,duration_manipulation_targetAtFixation,jsons/v1_VE250_randls_71.json,http://54.235.29.9/FacialAge/BNav_EC2/DepthDuration/v2_depth_duration_MTurk/v2_DepthDuration_HTML.html#94,94,1280,800,1280,800,8-20-2022,8-57-15,53,depth_duration_stimuli/000556_2014-06-09_22-42-56_260595134347_rgbf000214-resize_1/000556_2014-06-09_22-42-56_260595134347_rgbf000214-resize_1-target.png,250,4.8415,2.0,5819,250,feet,jsons/v1_VE250_randls_71.json,1590991,2158196,57,Woman
53,614598,DepthScenes,duration_manipulation_targetAtFixation,jsons/v1_VE250_randls_71.json,http://54.235.29.9/FacialAge/BNav_EC2/DepthDuration/v2_depth_duration_MTurk/v2_DepthDuration_HTML.html#94,94,1280,800,1280,800,8-20-2022,8-57-15,54,depth_duration_stimuli/002153_2014-06-25_21-27-18_260595134347_rgbf000038-resize_5/002153_2014-06-25_21-27-18_260595134347_rgbf000038-resize_5-target.png,250,2.505,1.5,6329,249,feet,jsons/v1_VE250_randls_71.json,1590991,2158196,57,Woman
54,614598,DepthScenes,duration_manipulation_targetAtFixation,jsons/v1_VE250_randls_71.json,http://54.235.29.9/FacialAge/BNav_EC2/DepthDuration/v2_depth_duration_MTurk/v2_DepthDuration_HTML.html#94,94,1280,800,1280,800,8-20-2022,8-57-15,55,depth_duration_stimuli/002660_2014-06-13_15-44-18_094959634447_rgbf001878-resize_2/002660_2014-06-13_15-44-18_094959634447_rgbf001878-resize_2-target.png,250,3.576,2.5,12177,248,feet,jsons/v1_VE250_randls_71.json,1590991,2158196,57,Woman
55,614598,DepthScenes,duration_manipulation_targetAtFixation,jsons/v1_VE250_randls_71.json,http://54.235.29.9/FacialAge/BNav_EC2/DepthDuration/v2_depth_duration_MTurk/v2_DepthDuration_HTML.html#94,94,1280,800,1280,800,8-20-2022,8-57-15,56,depth_duration_stimuli/002375_2014-06-28_20-13-44_260595134347_rgbf000032-resize_1/002375_2014-06-28_20-13-44_260595134347_rgbf000032-resize_1-target.png,250,4.0175,2.0,8968,253,feet,jsons/v1_VE250_randls_71.json,1590991,2158196,57,Woman
56,614598,DepthScenes,duration_manipulation_targetAtFixation,jsons/v1_VE250_randls_71.json,http://54.235.29.9/FacialAge/BNav_EC2/DepthDuration/v2_depth_duration_MTurk/v2_DepthDuration_HTML.html#94,94,1280,800,1280,800,8-20-2022,8-57-15,57,depth_duration_stimuli/002657_2014-06-13_15-29-54_094959634447_rgbf000150-resize_1/002657_2014-06-13_15-29-54_094959634447_rgbf000150-resize_1-target.png,250,4.919,3.0,6219,250,feet,jsons/v1_VE250_randls_71.json,1590991,2158196,57,Woman
57,614598,DepthScenes,duration_manipulation_targetAtFixation,jsons/v1_VE250_randls_71.json,http://54.235.29.9/FacialAge/BNav_EC2/DepthDuration/v2_depth_duration_MTurk/v2_DepthDuration_HTML.html#94,94,1280,800,1280,800,8-20-2022,8-57-15,58,depth_duration_stimuli/001810_2014-06-26_20-51-35_260595134347_rgbf000040-resize_3/001810_2014-06-26_20-51-35_260595134347_rgbf000040-resize_3-target.png,250,2.2525,3.5,18786,252,feet,jsons/v1_VE250_randls_71.json,1590991,2158196,57,Woman
58,614598,DepthScenes,duration_manipulation_targetAtFixation,jsons/v1_VE250_randls_71.json,http://54.235.29.9/FacialAge/BNav_EC2/DepthDuration/v2_depth_duration_MTurk/v2_DepthDuration_HTML.html#94,94,1280,800,1280,800,8-20-2022,8-57-15,59,depth_duration_stimuli/003010_2014-06-15_12-54-35_094959634447_rgbf000112-resize_0/003010_2014-06-15_12-54-35_094959634447_rgbf000112-resize_0-target.png,250,3.1185,10.0,9883,247,feet,jsons/v1_VE250_randls_71.json,1590991,2158196,57,Woman
59,614598,DepthScenes,duration_manipulation_targetAtFixation,jsons/v1_VE250_randls_71.json,http://54.235.29.9/FacialAge/BNav_EC2/DepthDuration/v2_depth_duration_MTurk/v2_DepthDuration_HTML.html#94,94,1280,800,1280,800,8-20-2022,8-57-15,60,depth_duration_stimuli/000788_2014-06-08_22-34-36_260595134347_rgbf000131-resize_1/000788_2014-06-08_22-34-36_260595134347_rgbf000131-resize_1-target.png,250,3.359,3.0,11961,250,feet,jsons/v1_VE250_randls_71.json,1590991,2158196,57,Woman
60,614598,DepthScenes,duration_manipulation_targetAtFixation,jsons/v1_VE250_randls_71.json,http://54.235.29.9/FacialAge/BNav_EC2/DepthDuration/v2_depth_duration_MTurk/v2_DepthDuration_HTML.html#94,94,1280,800,1280,800,8-20-2022,8-57-15,61,depth_duration_stimuli/001235_2014-06-17_16-37-36_260595134347_rgbf000084-resize_4/001235_2014-06-17_16-37-36_260595134347_rgbf000084-resize_4-target.png,250,3.6605,5.0,9295,251,feet,jsons/v1_VE250_randls_71.json,1590991,2158196,57,Woman
61,614598,DepthScenes,duration_manipulation_targetAtFixation,jsons/v1_VE250_randls_71.json,http://54.235.29.9/FacialAge/BNav_EC2/DepthDuration/v2_depth_duration_MTurk/v2_DepthDuration_HTML.html#94,94,1280,800,1280,800,8-20-2022,8-57-15,62,depth_duration_stimuli/003292_2014-05-14_21-53-49_094959634447_rgbf000100-resize_2/003292_2014-05-14_21-53-49_094959634447_rgbf000100-resize_2-target.png,250,3.4815,4.0,5402,248,feet,jsons/v1_VE250_randls_71.json,1590991,2158196,57,Woman
62,614598,DepthScenes,duration_manipulation_targetAtFixation,jsons/v1_VE250_randls_71.json,http://54.235.29.9/FacialAge/BNav_EC2/DepthDuration/v2_depth_duration_MTurk/v2_DepthDuration_HTML.html#94,94,1280,800,1280,800,8-20-2022,8-57-15,63,depth_duration_stimuli/002639_2014-06-24_14-51-37_094959634447_rgbf000074-resize_4/002639_2014-06-24_14-51-37_094959634447_rgbf000074-resize_4-target.png,250,4.0375,6.0,20156,248,feet,jsons/v1_VE250_randls_71.json,1590991,2158196,57,Woman
63,614598,DepthScenes,duration_manipulation_targetAtFixation,jsons/v1_VE250_randls_71.json,http://54.235.29.9/FacialAge/BNav_EC2/DepthDuration/v2_depth_duration_MTurk/v2_DepthDuration_HTML.html#94,94,1280,800,1280,800,8-20-2022,8-57-15,64,depth_duration_stimuli/002630_2014-06-24_14-47-50_094959634447_rgbf000055-resize_1/002630_2014-06-24_14-47-50_094959634447_rgbf000055-resize_1-target.png,250,3.0095,6.0,12513,250,feet,jsons/v1_VE250_randls_71.json,1590991,2158196,57,Woman
64,614598,DepthScenes,duration_manipulation_targetAtFixation,jsons/v1_VE250_randls_71.json,http://54.235.29.9/FacialAge/BNav_EC2/DepthDuration/v2_depth_duration_MTurk/v2_DepthDuration_HTML.html#94,94,1280,800,1280,800,8-20-2022,8-57-15,65,depth_duration_stimuli/002758_2014-06-22_19-11-20_094959634447_rgbf000128-resize_1/002758_2014-06-22_19-11-20_094959634447_rgbf000128-resize_1-target.png,250,2.555,2.5,8769,254,feet,jsons/v1_VE250_randls_71.json,1590991,2158196,57,Woman
65,614598,DepthScenes,duration_manipulation_targetAtFixation,jsons/v1_VE250_randls_71.json,http://54.235.29.9/FacialAge/BNav_EC2/DepthDuration/v2_depth_duration_MTurk/v2_DepthDuration_HTML.html#94,94,1280,800,1280,800,8-20-2022,8-57-15,66,depth_duration_stimuli/001222_2014-06-17_16-24-06_260595134347_rgbf000073-resize_0/001222_2014-06-17_16-24-06_260595134347_rgbf000073-resize-original.jpg,250,1.4385,0.0,4125,249,feet,jsons/v1_VE250_randls_71.json,1590991,2158196,57,Woman
66,614598,DepthScenes,duration_manipulation_targetAtFixation,jsons/v1_VE250_randls_71.json,http://54.235.29.9/FacialAge/BNav_EC2/DepthDuration/v2_depth_duration_MTurk/v2_DepthDuration_HTML.html#94,94,1280,800,1280,800,8-20-2022,8-57-15,67,depth_duration_stimuli/000486_2014-06-09_20-47-20_260595134347_rgbf000143-resize_2/000486_2014-06-09_20-47-20_260595134347_rgbf000143-resize_2-target.png,250,4.8325,3.5,11689,255,feet,jsons/v1_VE250_randls_71.json,1590991,2158196,57,Woman
67,614598,DepthScenes,duration_manipulation_targetAtFixation,jsons/v1_VE250_randls_71.json,http://54.235.29.9/FacialAge/BNav_EC2/DepthDuration/v2_depth_duration_MTurk/v2_DepthDuration_HTML.html#94,94,1280,800,1280,800,8-20-2022,8-57-15,68,depth_duration_stimuli/003083_2014-06-15_15-21-03_094959634447_rgbf000063-resize_1/003083_2014-06-15_15-21-03_094959634447_rgbf000063-resize_1-target.png,250,4.1405,8.0,9152,250,feet,jsons/v1_VE250_randls_71.json,1590991,2158196,57,Woman
68,614598,DepthScenes,duration_manipulation_targetAtFixation,jsons/v1_VE250_randls_71.json,http://54.235.29.9/FacialAge/BNav_EC2/DepthDuration/v2_depth_duration_MTurk/v2_DepthDuration_HTML.html#94,94,1280,800,1280,800,8-20-2022,8-57-15,69,depth_duration_stimuli/001164_2014-06-17_15-35-46_260595134347_rgbf000085-resize_3/001164_2014-06-17_15-35-46_260595134347_rgbf000085-resize_3-target.png,250,2.354,4.0,10281,250,feet,jsons/v1_VE250_randls_71.json,1590991,2158196,57,Woman
69,614598,DepthScenes,duration_manipulation_targetAtFixation,jsons/v1_VE250_randls_71.json,http://54.235.29.9/FacialAge/BNav_EC2/DepthDuration/v2_depth_duration_MTurk/v2_DepthDuration_HTML.html#94,94,1280,800,1280,800,8-20-2022,8-57-15,70,depth_duration_stimuli/001136_2014-06-17_15-19-41_260595134347_rgbf000076-resize_3/001136_2014-06-17_15-19-41_260595134347_rgbf000076-resize_3-target.png,250,1.8655,5.0,13751,252,feet,jsons/v1_VE250_randls_71.json,1590991,2158196,57,Woman
70,614598,DepthScenes,duration_manipulation_targetAtFixation,jsons/v1_VE250_randls_71.json,http://54.235.29.9/FacialAge/BNav_EC2/DepthDuration/v2_depth_duration_MTurk/v2_DepthDuration_HTML.html#94,94,1280,800,1280,800,8-20-2022,8-57-15,71,depth_duration_stimuli/001016_2014-06-09_16-16-10_260595134347_rgbf000112-resize_5/001016_2014-06-09_16-16-10_260595134347_rgbf000112-resize_5-target.png,250,1.6565,3.5,8030,251,feet,jsons/v1_VE250_randls_71.json,1590991,2158196,57,Woman
71,614598,DepthScenes,duration_manipulation_targetAtFixation,jsons/v1_VE250_randls_71.json,http://54.235.29.9/FacialAge/BNav_EC2/DepthDuration/v2_depth_duration_MTurk/v2_DepthDuration_HTML.html#94,94,1280,800,1280,800,8-20-2022,8-57-15,72,depth_duration_stimuli/002340_2014-06-28_20-05-46_260595134347_rgbf000113-resize_0/002340_2014-06-28_20-05-46_260595134347_rgbf000113-resize_0-target.png,250,2.4735,7.0,5849,248,feet,jsons/v1_VE250_randls_71.json,1590991,2158196,57,Woman
72,614598,DepthScenes,duration_manipulation_targetAtFixation,jsons/v1_VE250_randls_71.json,http://54.235.29.9/FacialAge/BNav_EC2/DepthDuration/v2_depth_duration_MTurk/v2_DepthDuration_HTML.html#94,94,1280,800,1280,800,8-20-2022,8-57-15,73,depth_duration_stimuli/001244_2014-06-17_16-47-45_260595134347_rgbf000030-resize_4/001244_2014-06-17_16-47-45_260595134347_rgbf000030-resize_4-target.png,250,2.0425,5.0,16729,250,feet,jsons/v1_VE250_randls_71.json,1590991,2158196,57,Woman
73,614598,DepthScenes,duration_manipulation_targetAtFixation,jsons/v1_VE250_randls_71.json,http://54.235.29.9/FacialAge/BNav_EC2/DepthDuration/v2_depth_duration_MTurk/v2_DepthDuration_HTML.html#94,94,1280,800,1280,800,8-20-2022,8-57-15,74,depth_duration_stimuli/003495_2014-05-21_16-01-51_094959634447_rgbf000100-resize_3/003495_2014-05-21_16-01-51_094959634447_rgbf000100-resize_3-target.png,250,1.6255,3.0,5216,254,feet,jsons/v1_VE250_randls_71.json,1590991,2158196,57,Woman
74,614598,DepthScenes,duration_manipulation_targetAtFixation,jsons/v1_VE250_randls_71.json,http://54.235.29.9/FacialAge/BNav_EC2/DepthDuration/v2_depth_duration_MTurk/v2_DepthDuration_HTML.html#94,94,1280,800,1280,800,8-20-2022,8-57-15,75,depth_duration_stimuli/000470_2014-06-09_19-42-40_260595134347_rgbf000094-resize_1/000470_2014-06-09_19-42-40_260595134347_rgbf000094-resize_1-target.png,250,1.831,2.0,6928,247,feet,jsons/v1_VE250_randls_71.json,1590991,2158196,57,Woman
75,614598,DepthScenes,duration_manipulation_targetAtFixation,jsons/v1_VE250_randls_71.json,http://54.235.29.9/FacialAge/BNav_EC2/DepthDuration/v2_depth_duration_MTurk/v2_DepthDuration_HTML.html#94,94,1280,800,1280,800,8-20-2022,8-57-15,76,depth_duration_stimuli/000109_2014-05-14_23-41-52_260595134347_rgbf000035-resize_9/000109_2014-05-14_23-41-52_260595134347_rgbf000035-resize_9-target.png,250,1.3545,1.5,7631,250,feet,jsons/v1_VE250_randls_71.json,1590991,2158196,57,Woman
76,614598,DepthScenes,duration_manipulation_targetAtFixation,jsons/v1_VE250_randls_71.json,http://54.235.29.9/FacialAge/BNav_EC2/DepthDuration/v2_depth_duration_MTurk/v2_DepthDuration_HTML.html#94,94,1280,800,1280,800,8-20-2022,8-57-15,77,depth_duration_stimuli/001110_2014-06-15_17-25-28_260595134347_rgbf000150-resize_1/001110_2014-06-15_17-25-28_260595134347_rgbf000150-resize_1-target.png,250,1.7115,3.0,10071,248,feet,jsons/v1_VE250_randls_71.json,1590991,2158196,57,Woman
77,614598,DepthScenes,duration_manipulation_targetAtFixation,jsons/v1_VE250_randls_71.json,http://54.235.29.9/FacialAge/BNav_EC2/DepthDuration/v2_depth_duration_MTurk/v2_DepthDuration_HTML.html#94,94,1280,800,1280,800,8-20-2022,8-57-15,78,depth_duration_stimuli/000927_2014-06-09_16-32-30_260595134347_rgbf000123-resize_3/000927_2014-06-09_16-32-30_260595134347_rgbf000123-resize_3-target.png,250,2.6785,4.5,6456,252,feet,jsons/v1_VE250_randls_71.json,1590991,2158196,57,Woman
78,614598,DepthScenes,duration_manipulation_targetAtFixation,jsons/v1_VE250_randls_71.json,http://54.235.29.9/FacialAge/BNav_EC2/DepthDuration/v2_depth_duration_MTurk/v2_DepthDuration_HTML.html#94,94,1280,800,1280,800,8-20-2022,8-57-15,79,depth_duration_stimuli/001175_2014-06-17_15-45-55_260595134347_rgbf000129-resize_4/001175_2014-06-17_15-45-55_260595134347_rgbf000129-resize_4-target.png,250,4.255,15.0,11235,248,feet,jsons/v1_VE250_randls_71.json,1590991,2158196,57,Woman
79,614598,DepthScenes,duration_manipulation_targetAtFixation,jsons/v1_VE250_randls_71.json,http://54.235.29.9/FacialAge/BNav_EC2/DepthDuration/v2_depth_duration_MTurk/v2_DepthDuration_HTML.html#94,94,1280,800,1280,800,8-20-2022,8-57-15,80,depth_duration_stimuli/003490_2014-05-21_15-50-11_094959634447_rgbf000101-resize_3/003490_2014-05-21_15-50-11_094959634447_rgbf000101-resize_3-target.png,250,3.6445,6.0,14390,253,feet,jsons/v1_VE250_randls_71.json,1590991,2158196,57,Woman
80,614598,DepthScenes,duration_manipulation_targetAtFixation,jsons/v1_VE250_randls_71.json,http://54.235.29.9/FacialAge/BNav_EC2/DepthDuration/v2_depth_duration_MTurk/v2_DepthDuration_HTML.html#94,94,1280,800,1280,800,8-20-2022,8-57-15,81,depth_duration_stimuli/000522_2014-06-08_13-35-06_260595134347_rgbf000244-resize_1/000522_2014-06-08_13-35-06_260595134347_rgbf000244-resize_1-target.png,250,2.3715,3.0,8207,247,feet,jsons/v1_VE250_randls_71.json,1590991,2158196,57,Woman
81,614598,DepthScenes,duration_manipulation_targetAtFixation,jsons/v1_VE250_randls_71.json,http://54.235.29.9/FacialAge/BNav_EC2/DepthDuration/v2_depth_duration_MTurk/v2_DepthDuration_HTML.html#94,94,1280,800,1280,800,8-20-2022,8-57-15,82,depth_duration_stimuli/002949_2014-06-26_15-57-42_094959634447_rgbf000079-resize_1/002949_2014-06-26_15-57-42_094959634447_rgbf000079-resize_1-target.png,250,1.8915,2.0,5783,245,feet,jsons/v1_VE250_randls_71.json,1590991,2158196,57,Woman
82,614598,DepthScenes,duration_manipulation_targetAtFixation,jsons/v1_VE250_randls_71.json,http://54.235.29.9/FacialAge/BNav_EC2/DepthDuration/v2_depth_duration_MTurk/v2_DepthDuration_HTML.html#94,94,1280,800,1280,800,8-20-2022,8-57-15,83,depth_duration_stimuli/001449_2014-06-19_17-01-27_260595134347_rgbf000116-resize_2/001449_2014-06-19_17-01-27_260595134347_rgbf000116-resize_2-target.png,250,3.452,4.0,5626,255,feet,jsons/v1_VE250_randls_71.json,1590991,2158196,57,Woman
83,614598,DepthScenes,duration_manipulation_targetAtFixation,jsons/v1_VE250_randls_71.json,http://54.235.29.9/FacialAge/BNav_EC2/DepthDuration/v2_depth_duration_MTurk/v2_DepthDuration_HTML.html#94,94,1280,800,1280,800,8-20-2022,8-57-15,84,depth_duration_stimuli/001450_2014-06-19_17-02-03_260595134347_rgbf000203-resize_4/001450_2014-06-19_17-02-03_260595134347_rgbf000203-resize_4-target.png,250,4.0106666666667,7.0,6124,253,feet,jsons/v1_VE250_randls_71.json,1590991,2158196,57,Woman
84,614598,DepthScenes,duration_manipulation_targetAtFixation,jsons/v1_VE250_randls_71.json,http://54.235.29.9/FacialAge/BNav_EC2/DepthDuration/v2_depth_duration_MTurk/v2_DepthDuration_HTML.html#94,94,1280,800,1280,800,8-20-2022,8-57-15,85,depth_duration_stimuli/000414_2014-06-04_19-49-13_260595134347_rgbf000044-resize_0/000414_2014-06-04_19-49-13_260595134347_rgbf000044-resize_0-target.png,250,4.329,8.0,9529,250,feet,jsons/v1_VE250_randls_71.json,1590991,2158196,57,Woman
85,614598,DepthScenes,duration_manipulation_targetAtFixation,jsons/v1_VE250_randls_71.json,http://54.235.29.9/FacialAge/BNav_EC2/DepthDuration/v2_depth_duration_MTurk/v2_DepthDuration_HTML.html#94,94,1280,800,1280,800,8-20-2022,8-57-15,86,depth_duration_stimuli/003129_2014-05-12_10-48-10_094959634447_rgbf000100-resize_0/003129_2014-05-12_10-48-10_094959634447_rgbf000100-resize_0-target.png,250,4.9305,9.0,9155,255,feet,jsons/v1_VE250_randls_71.json,1590991,2158196,57,Woman
86,614598,DepthScenes,duration_manipulation_targetAtFixation,jsons/v1_VE250_randls_71.json,http://54.235.29.9/FacialAge/BNav_EC2/DepthDuration/v2_depth_duration_MTurk/v2_DepthDuration_HTML.html#94,94,1280,800,1280,800,8-20-2022,8-57-15,87,depth_duration_stimuli/001199_2014-06-17_16-03-48_260595134347_rgbf000077-resize_0/001199_2014-06-17_16-03-48_260595134347_rgbf000077-resize_0-target.png,250,3.4375,6.0,8309,249,feet,jsons/v1_VE250_randls_71.json,1590991,2158196,57,Woman
87,614598,DepthScenes,duration_manipulation_targetAtFixation,jsons/v1_VE250_randls_71.json,http://54.235.29.9/FacialAge/BNav_EC2/DepthDuration/v2_depth_duration_MTurk/v2_DepthDuration_HTML.html#94,94,1280,800,1280,800,8-20-2022,8-57-15,88,depth_duration_stimuli/000502_2014-06-08_23-02-32_260595134347_rgbf000063-resize_4/000502_2014-06-08_23-02-32_260595134347_rgbf000063-resize_4-target.png,250,2.431,3.0,6722,249,feet,jsons/v1_VE250_randls_71.json,1590991,2158196,57,Woman
88,614598,DepthScenes,duration_manipulation_targetAtFixation,jsons/v1_VE250_randls_71.json,http://54.235.29.9/FacialAge/BNav_EC2/DepthDuration/v2_depth_duration_MTurk/v2_DepthDuration_HTML.html#94,94,1280,800,1280,800,8-20-2022,8-57-15,89,depth_duration_stimuli/001417_2014-06-19_16-25-36_260595134347_rgbf000115-resize_5/001417_2014-06-19_16-25-36_260595134347_rgbf000115-resize_5-target.png,250,4.6255,2.0,18097,253,feet,jsons/v1_VE250_randls_71.json,1590991,2158196,57,Woman
89,614598,DepthScenes,duration_manipulation_targetAtFixation,jsons/v1_VE250_randls_71.json,http://54.235.29.9/FacialAge/BNav_EC2/DepthDuration/v2_depth_duration_MTurk/v2_DepthDuration_HTML.html#94,94,1280,800,1280,800,8-20-2022,8-57-15,90,depth_duration_stimuli/003081_2014-06-15_15-19-16_094959634447_rgbf000150-resize_1/003081_2014-06-15_15-19-16_094959634447_rgbf000150-resize_1-target.png,250,3.9125,4.5,6380,251,feet,jsons/v1_VE250_randls_71.json,1590991,2158196,57,Woman
90,614598,DepthScenes,duration_manipulation_targetAtFixation,jsons/v1_VE250_randls_71.json,http://54.235.29.9/FacialAge/BNav_EC2/DepthDuration/v2_depth_duration_MTurk/v2_DepthDuration_HTML.html#94,94,1280,800,1280,800,8-20-2022,8-57-15,91,depth_duration_stimuli/000773_2014-06-08_22-24-54_260595134347_rgbf000093-resize_1/000773_2014-06-08_22-24-54_260595134347_rgbf000093-resize_1-target.png,250,4.973,5.0,14466,246,feet,jsons/v1_VE250_randls_71.json,1590991,2158196,57,Woman
91,614598,DepthScenes,duration_manipulation_targetAtFixation,jsons/v1_VE250_randls_71.json,http://54.235.29.9/FacialAge/BNav_EC2/DepthDuration/v2_depth_duration_MTurk/v2_DepthDuration_HTML.html#94,94,1280,800,1280,800,8-20-2022,8-57-15,92,depth_duration_stimuli/002414_2014-06-28_20-24-58_260595134347_rgbf000067-resize_4/002414_2014-06-28_20-24-58_260595134347_rgbf000067-resize_4-target.png,250,4.363,8.0,10691,249,feet,jsons/v1_VE250_randls_71.json,1590991,2158196,57,Woman
92,614598,DepthScenes,duration_manipulation_targetAtFixation,jsons/v1_VE250_randls_71.json,http://54.235.29.9/FacialAge/BNav_EC2/DepthDuration/v2_depth_duration_MTurk/v2_DepthDuration_HTML.html#94,94,1280,800,1280,800,8-20-2022,8-57-15,93,depth_duration_stimuli/001059_2014-06-08_21-53-27_260595134347_rgbf000061-resize_4/001059_2014-06-08_21-53-27_260595134347_rgbf000061-resize_4-target.png,250,2.4185,3.0,5732,247,feet,jsons/v1_VE250_randls_71.json,1590991,2158196,57,Woman
93,614598,DepthScenes,duration_manipulation_targetAtFixation,jsons/v1_VE250_randls_71.json,http://54.235.29.9/FacialAge/BNav_EC2/DepthDuration/v2_depth_duration_MTurk/v2_DepthDuration_HTML.html#94,94,1280,800,1280,800,8-20-2022,8-57-15,94,depth_duration_stimuli/001032_2014-06-08_13-23-17_260595134347_rgbf000021-resize_3/001032_2014-06-08_13-23-17_260595134347_rgbf000021-resize_3-target.png,250,3.2725,1.0,6568,252,feet,jsons/v1_VE250_randls_71.json,1590991,2158196,57,Woman
94,614598,DepthScenes,duration_manipulation_targetAtFixation,jsons/v1_VE250_randls_71.json,http://54.235.29.9/FacialAge/BNav_EC2/DepthDuration/v2_depth_duration_MTurk/v2_DepthDuration_HTML.html#94,94,1280,800,1280,800,8-20-2022,8-57-15,95,depth_duration_stimuli/002784_2014-06-22_19-26-30_094959634447_rgbf000083-resize_3/002784_2014-06-22_19-26-30_094959634447_rgbf000083-resize_3-target.png,250,1.8046666666667,1.5,9056,247,feet,jsons/v1_VE250_randls_71.json,1590991,2158196,57,Woman
95,614598,DepthScenes,duration_manipulation_targetAtFixation,jsons/v1_VE250_randls_71.json,http://54.235.29.9/FacialAge/BNav_EC2/DepthDuration/v2_depth_duration_MTurk/v2_DepthDuration_HTML.html#94,94,1280,800,1280,800,8-20-2022,8-57-15,96,depth_duration_stimuli/001100_2014-06-15_17-46-26_260595134347_rgbf000225-resize_2/001100_2014-06-15_17-46-26_260595134347_rgbf000225-resize_2-target.png,250,2.24,2.0,7101,250,feet,jsons/v1_VE250_randls_71.json,1590991,2158196,57,Woman
96,614598,DepthScenes,duration_manipulation_targetAtFixation,jsons/v1_VE250_randls_71.json,http://54.235.29.9/FacialAge/BNav_EC2/DepthDuration/v2_depth_duration_MTurk/v2_DepthDuration_HTML.html#94,94,1280,800,1280,800,8-20-2022,8-57-15,97,depth_duration_stimuli/000736_2014-06-08_18-24-15_260595134347_rgbf000206-resize_3/000736_2014-06-08_18-24-15_260595134347_rgbf000206-resize_3-target.png,250,3.515,3.0,5094,254,feet,jsons/v1_VE250_randls_71.json,1590991,2158196,57,Woman
97,614598,DepthScenes,duration_manipulation_targetAtFixation,jsons/v1_VE250_randls_71.json,http://54.235.29.9/FacialAge/BNav_EC2/DepthDuration/v2_depth_duration_MTurk/v2_DepthDuration_HTML.html#94,94,1280,800,1280,800,8-20-2022,8-57-15,98,depth_duration_stimuli/000137_2014-05-20_17-04-49_260595134347_rgbf000120-resize_1/000137_2014-05-20_17-04-49_260595134347_rgbf000120-resize_1-target.png,250,3.786,4.0,7812,249,feet,jsons/v1_VE250_randls_71.json,1590991,2158196,57,Woman
98,614598,DepthScenes,duration_manipulation_targetAtFixation,jsons/v1_VE250_randls_71.json,http://54.235.29.9/FacialAge/BNav_EC2/DepthDuration/v2_depth_duration_MTurk/v2_DepthDuration_HTML.html#94,94,1280,800,1280,800,8-20-2022,8-57-15,99,depth_duration_stimuli/001540_2014-06-20_17-01-05_260595134347_rgbf000086-resize_2/001540_2014-06-20_17-01-05_260595134347_rgbf000086-resize-original.jpg,250,1.459,0.0,4767,249,feet,jsons/v1_VE250_randls_71.json,1590991,2158196,57,Woman
99,614598,DepthScenes,duration_manipulation_targetAtFixation,jsons/v1_VE250_randls_71.json,http://54.235.29.9/FacialAge/BNav_EC2/DepthDuration/v2_depth_duration_MTurk/v2_DepthDuration_HTML.html#94,94,1280,800,1280,800,8-20-2022,8-57-15,100,depth_duration_stimuli/002213_2014-06-28_18-37-58_260595134347_rgbf000055-resize_1/002213_2014-06-28_18-37-58_260595134347_rgbf000055-resize_1-target.png,250,3.62,9.0,7279,249,feet,jsons/v1_VE250_randls_71.json,1590991,2158196,57,Woman
100,614598,DepthScenes,duration_manipulation_targetAtFixation,jsons/v1_VE250_randls_71.json,http://54.235.29.9/FacialAge/BNav_EC2/DepthDuration/v2_depth_duration_MTurk/v2_DepthDuration_HTML.html#94,94,1280,800,1280,800,8-20-2022,8-57-15,101,depth_duration_stimuli/000691_2014-06-08_13-08-50_260595134347_rgbf000132-resize_3/000691_2014-06-08_13-08-50_260595134347_rgbf000132-resize_3-target.png,250,4.1530000000000005,3.0,10513,251,feet,jsons/v1_VE250_randls_71.json,1590991,2158196,57,Woman
101,614598,DepthScenes,duration_manipulation_targetAtFixation,jsons/v1_VE250_randls_71.json,http://54.235.29.9/FacialAge/BNav_EC2/DepthDuration/v2_depth_duration_MTurk/v2_DepthDuration_HTML.html#94,94,1280,800,1280,800,8-20-2022,8-57-15,102,depth_duration_stimuli/000493_2014-06-09_21-01-18_260595134347_rgbf000196-resize_3/000493_2014-06-09_21-01-18_260595134347_rgbf000196-resize_3-target.png,250,3.44,4.0,7024,251,feet,jsons/v1_VE250_randls_71.json,1590991,2158196,57,Woman
102,614598,DepthScenes,duration_manipulation_targetAtFixation,jsons/v1_VE250_randls_71.json,http://54.235.29.9/FacialAge/BNav_EC2/DepthDuration/v2_depth_duration_MTurk/v2_DepthDuration_HTML.html#94,94,1280,800,1280,800,8-20-2022,8-57-15,103,depth_duration_stimuli/000191_2014-05-12_17-07-38_260595134347_rgbf000199-resize_0/000191_2014-05-12_17-07-38_260595134347_rgbf000199-resize_0-target.png,250,3.7995,7.5,12331,250,feet,jsons/v1_VE250_randls_71.json,1590991,2158196,57,Woman
103,614598,DepthScenes,duration_manipulation_targetAtFixation,jsons/v1_VE250_randls_71.json,http://54.235.29.9/FacialAge/BNav_EC2/DepthDuration/v2_depth_duration_MTurk/v2_DepthDuration_HTML.html#94,94,1280,800,1280,800,8-20-2022,8-57-15,104,depth_duration_stimuli/002509_2014-06-24_13-19-22_094959634447_rgbf000077-resize_0/002509_2014-06-24_13-19-22_094959634447_rgbf000077-resize_0-target.png,250,1.3065,3.0,5367,249,feet,jsons/v1_VE250_randls_71.json,1590991,2158196,57,Woman
104,614598,DepthScenes,duration_manipulation_targetAtFixation,jsons/v1_VE250_randls_71.json,http://54.235.29.9/FacialAge/BNav_EC2/DepthDuration/v2_depth_duration_MTurk/v2_DepthDuration_HTML.html#94,94,1280,800,1280,800,8-20-2022,8-57-15,105,depth_duration_stimuli/003338_2014-05-20_11-01-23_094959634447_rgbf000051-resize_6/003338_2014-05-20_11-01-23_094959634447_rgbf000051-resize_6-target.png,250,1.693,2.0,9340,249,feet,jsons/v1_VE250_randls_71.json,1590991,2158196,57,Woman
105,614598,DepthScenes,duration_manipulation_targetAtFixation,jsons/v1_VE250_randls_71.json,http://54.235.29.9/FacialAge/BNav_EC2/DepthDuration/v2_depth_duration_MTurk/v2_DepthDuration_HTML.html#94,94,1280,800,1280,800,8-20-2022,8-57-15,106,depth_duration_stimuli/002279_2014-06-28_18-55-32_260595134347_rgbf000040-resize_5/002279_2014-06-28_18-55-32_260595134347_rgbf000040-resize_5-target.png,250,1.5043333333333,1.75,7951,253,feet,jsons/v1_VE250_randls_71.json,1590991,2158196,57,Woman
106,614598,DepthScenes,duration_manipulation_targetAtFixation,jsons/v1_VE250_randls_71.json,http://54.235.29.9/FacialAge/BNav_EC2/DepthDuration/v2_depth_duration_MTurk/v2_DepthDuration_HTML.html#94,94,1280,800,1280,800,8-20-2022,8-57-15,107,depth_duration_stimuli/000635_2014-06-08_16-38-42_260595134347_rgbf000106-resize_1/000635_2014-06-08_16-38-42_260595134347_rgbf000106-resize_1-target.png,250,2.074,4.5,6712,252,feet,jsons/v1_VE250_randls_71.json,1590991,2158196,57,Woman
107,614598,DepthScenes,duration_manipulation_targetAtFixation,jsons/v1_VE250_randls_71.json,http://54.235.29.9/FacialAge/BNav_EC2/DepthDuration/v2_depth_duration_MTurk/v2_DepthDuration_HTML.html#94,94,1280,800,1280,800,8-20-2022,8-57-15,108,depth_duration_stimuli/002570_2014-06-24_13-59-54_094959634447_rgbf000059-resize_0/002570_2014-06-24_13-59-54_094959634447_rgbf000059-resize_0-target.png,250,4.037,5.0,9182,249,feet,jsons/v1_VE250_randls_71.json,1590991,2158196,57,Woman
108,614598,DepthScenes,duration_manipulation_targetAtFixation,jsons/v1_VE250_randls_71.json,http://54.235.29.9/FacialAge/BNav_EC2/DepthDuration/v2_depth_duration_MTurk/v2_DepthDuration_HTML.html#94,94,1280,800,1280,800,8-20-2022,8-57-15,109,depth_duration_stimuli/002467_2014-06-28_20-38-07_260595134347_rgbf000026-resize_2/002467_2014-06-28_20-38-07_260595134347_rgbf000026-resize_2-target.png,250,4.742,10.0,12230,250,feet,jsons/v1_VE250_randls_71.json,1590991,2158196,57,Woman
109,614598,DepthScenes,duration_manipulation_targetAtFixation,jsons/v1_VE250_randls_71.json,http://54.235.29.9/FacialAge/BNav_EC2/DepthDuration/v2_depth_duration_MTurk/v2_DepthDuration_HTML.html#94,94,1280,800,1280,800,8-20-2022,8-57-15,110,depth_duration_stimuli/002964_2014-06-08_17-46-11_094959634447_rgbf000091-resize_4/002964_2014-06-08_17-46-11_094959634447_rgbf000091-resize_4-target.png,250,1.6909999999999998,1.0,7260,252,feet,jsons/v1_VE250_randls_71.json,1590991,2158196,57,Woman
110,614598,DepthScenes,duration_manipulation_targetAtFixation,jsons/v1_VE250_randls_71.json,http://54.235.29.9/FacialAge/BNav_EC2/DepthDuration/v2_depth_duration_MTurk/v2_DepthDuration_HTML.html#94,94,1280,800,1280,800,8-20-2022,8-57-15,111,depth_duration_stimuli/002136_2014-06-25_21-18-03_260595134347_rgbf000109-resize_3/002136_2014-06-25_21-18-03_260595134347_rgbf000109-resize_3-target.png,250,1.9569999999999999,3.0,11031,255,feet,jsons/v1_VE250_randls_71.json,1590991,2158196,57,Woman
111,614598,DepthScenes,duration_manipulation_targetAtFixation,jsons/v1_VE250_randls_71.json,http://54.235.29.9/FacialAge/BNav_EC2/DepthDuration/v2_depth_duration_MTurk/v2_DepthDuration_HTML.html#94,94,1280,800,1280,800,8-20-2022,8-57-15,112,depth_duration_stimuli/000506_2014-06-08_23-21-00_260595134347_rgbf000070-resize_7/000506_2014-06-08_23-21-00_260595134347_rgbf000070-resize_7-target.png,250,4.0585,9.0,10614,252,feet,jsons/v1_VE250_randls_71.json,1590991,2158196,57,Woman
112,614598,DepthScenes,duration_manipulation_targetAtFixation,jsons/v1_VE250_randls_71.json,http://54.235.29.9/FacialAge/BNav_EC2/DepthDuration/v2_depth_duration_MTurk/v2_DepthDuration_HTML.html#94,94,1280,800,1280,800,8-20-2022,8-57-15,113,depth_duration_stimuli/003079_2014-06-15_15-18-20_094959634447_rgbf000152-resize_8/003079_2014-06-15_15-18-20_094959634447_rgbf000152-resize_8-target.png,250,2.8775,8.0,17236,251,feet,jsons/v1_VE250_randls_71.json,1590991,2158196,57,Woman
113,614598,DepthScenes,duration_manipulation_targetAtFixation,jsons/v1_VE250_randls_71.json,http://54.235.29.9/FacialAge/BNav_EC2/DepthDuration/v2_depth_duration_MTurk/v2_DepthDuration_HTML.html#94,94,1280,800,1280,800,8-20-2022,8-57-15,114,depth_duration_stimuli/000642_2014-06-08_16-59-25_260595134347_rgbf000098-resize_2/000642_2014-06-08_16-59-25_260595134347_rgbf000098-resize_2-target.png,250,2.8815,4.0,5638,252,feet,jsons/v1_VE250_randls_71.json,1590991,2158196,57,Woman
114,614598,DepthScenes,duration_manipulation_targetAtFixation,jsons/v1_VE250_randls_71.json,http://54.235.29.9/FacialAge/BNav_EC2/DepthDuration/v2_depth_duration_MTurk/v2_DepthDuration_HTML.html#94,94,1280,800,1280,800,8-20-2022,8-57-15,115,depth_duration_stimuli/002425_2014-06-28_20-27-29_260595134347_rgbf000031-resize_8/002425_2014-06-28_20-27-29_260595134347_rgbf000031-resize_8-target.png,250,3.8960000000000004,3.0,13872,251,feet,jsons/v1_VE250_randls_71.json,1590991,2158196,57,Woman
115,614598,DepthScenes,duration_manipulation_targetAtFixation,jsons/v1_VE250_randls_71.json,http://54.235.29.9/FacialAge/BNav_EC2/DepthDuration/v2_depth_duration_MTurk/v2_DepthDuration_HTML.html#94,94,1280,800,1280,800,8-20-2022,8-57-15,116,depth_duration_stimuli/001170_2014-06-17_15-43-44_260595134347_rgbf000096-resize_6/001170_2014-06-17_15-43-44_260595134347_rgbf000096-resize-original.jpg,250,1.1909999999999998,0.0,4456,241,feet,jsons/v1_VE250_randls_71.json,1590991,2158196,57,Woman
116,614598,DepthScenes,duration_manipulation_targetAtFixation,jsons/v1_VE250_randls_71.json,http://54.235.29.9/FacialAge/BNav_EC2/DepthDuration/v2_depth_duration_MTurk/v2_DepthDuration_HTML.html#94,94,1280,800,1280,800,8-20-2022,8-57-15,117,depth_duration_stimuli/000447_2014-06-08_16-15-46_260595134347_rgbf000130-resize_1/000447_2014-06-08_16-15-46_260595134347_rgbf000130-resize_1-target.png,250,4.479,5.0,5646,253,feet,jsons/v1_VE250_randls_71.json,1590991,2158196,57,Woman
117,614598,DepthScenes,duration_manipulation_targetAtFixation,jsons/v1_VE250_randls_71.json,http://54.235.29.9/FacialAge/BNav_EC2/DepthDuration/v2_depth_duration_MTurk/v2_DepthDuration_HTML.html#94,94,1280,800,1280,800,8-20-2022,8-57-15,118,depth_duration_stimuli/001447_2014-06-19_17-00-32_260595134347_rgbf000082-resize_5/001447_2014-06-19_17-00-32_260595134347_rgbf000082-resize_5-target.png,250,4.13775,4.0,8739,253,feet,jsons/v1_VE250_randls_71.json,1590991,2158196,57,Woman
118,614598,DepthScenes,duration_manipulation_targetAtFixation,jsons/v1_VE250_randls_71.json,http://54.235.29.9/FacialAge/BNav_EC2/DepthDuration/v2_depth_duration_MTurk/v2_DepthDuration_HTML.html#94,94,1280,800,1280,800,8-20-2022,8-57-15,119,depth_duration_stimuli/001055_2014-06-08_18-45-35_260595134347_rgbf000111-resize_4/001055_2014-06-08_18-45-35_260595134347_rgbf000111-resize_4-target.png,250,2.4290000000000003,3.0,13418,258,feet,jsons/v1_VE250_randls_71.json,1590991,2158196,57,Woman
119,614598,DepthScenes,duration_manipulation_targetAtFixation,jsons/v1_VE250_randls_71.json,http://54.235.29.9/FacialAge/BNav_EC2/DepthDuration/v2_depth_duration_MTurk/v2_DepthDuration_HTML.html#94,94,1280,800,1280,800,8-20-2022,8-57-15,120,depth_duration_stimuli/000549_2014-06-08_22-10-24_260595134347_rgbf000247-resize_3/000549_2014-06-08_22-10-24_260595134347_rgbf000247-resize_3-target.png,250,1.841,1.5,6866,250,feet,jsons/v1_VE250_randls_71.json,1590991,2158196,57,Woman
120,614598,DepthScenes,duration_manipulation_targetAtFixation,jsons/v1_VE250_randls_71.json,http://54.235.29.9/FacialAge/BNav_EC2/DepthDuration/v2_depth_duration_MTurk/v2_DepthDuration_HTML.html#94,94,1280,800,1280,800,8-20-2022,8-57-15,121,depth_duration_stimuli/000878_2014-06-08_22-52-45_260595134347_rgbf000045-resize_2/000878_2014-06-08_22-52-45_260595134347_rgbf000045-resize_2-target.png,250,2.092,4.0,16030,251,feet,jsons/v1_VE250_randls_71.json,1590991,2158196,57,Woman
121,614598,DepthScenes,duration_manipulation_targetAtFixation,jsons/v1_VE250_randls_71.json,http://54.235.29.9/FacialAge/BNav_EC2/DepthDuration/v2_depth_duration_MTurk/v2_DepthDuration_HTML.html#94,94,1280,800,1280,800,8-20-2022,8-57-15,122,depth_duration_stimuli/002953_2014-06-08_17-32-18_094959634447_rgbf000059-resize_5/002953_2014-06-08_17-32-18_094959634447_rgbf000059-resize_5-target.png,250,1.551,3.0,17549,250,feet,jsons/v1_VE250_randls_71.json,1590991,2158196,57,Woman
122,614598,DepthScenes,duration_manipulation_targetAtFixation,jsons/v1_VE250_randls_71.json,http://54.235.29.9/FacialAge/BNav_EC2/DepthDuration/v2_depth_duration_MTurk/v2_DepthDuration_HTML.html#94,94,1280,800,1280,800,8-20-2022,8-57-15,123,depth_duration_stimuli/000368_2014-06-09_15-53-01_260595134347_rgbf000155-resize_2/000368_2014-06-09_15-53-01_260595134347_rgbf000155-resize_2-target.png,250,2.4859999999999998,1.5,6593,251,feet,jsons/v1_VE250_randls_71.json,1590991,2158196,57,Woman
123,614598,DepthScenes,duration_manipulation_targetAtFixation,jsons/v1_VE250_randls_71.json,http://54.235.29.9/FacialAge/BNav_EC2/DepthDuration/v2_depth_duration_MTurk/v2_DepthDuration_HTML.html#94,94,1280,800,1280,800,8-20-2022,8-57-15,124,depth_duration_stimuli/002678_2014-06-13_16-15-32_094959634447_rgbf000151-resize_6/002678_2014-06-13_16-15-32_094959634447_rgbf000151-resize_6-target.png,250,2.1830000000000003,8.0,5027,247,feet,jsons/v1_VE250_randls_71.json,1590991,2158196,57,Woman
124,614598,DepthScenes,duration_manipulation_targetAtFixation,jsons/v1_VE250_randls_71.json,http://54.235.29.9/FacialAge/BNav_EC2/DepthDuration/v2_depth_duration_MTurk/v2_DepthDuration_HTML.html#94,94,1280,800,1280,800,8-20-2022,8-57-15,125,depth_duration_stimuli/001570_2014-06-20_17-21-09_260595134347_rgbf000135-resize_4/001570_2014-06-20_17-21-09_260595134347_rgbf000135-resize_4-target.png,250,4.467,9.0,8906,250,feet,jsons/v1_VE250_randls_71.json,1590991,2158196,57,Woman
125,614598,DepthScenes,duration_manipulation_targetAtFixation,jsons/v1_VE250_randls_71.json,http://54.235.29.9/FacialAge/BNav_EC2/DepthDuration/v2_depth_duration_MTurk/v2_DepthDuration_HTML.html#94,94,1280,800,1280,800,8-20-2022,8-57-15,126,depth_duration_stimuli/001392_2014-06-19_16-07-59_260595134347_rgbf000046-resize_1/001392_2014-06-19_16-07-59_260595134347_rgbf000046-resize_1-target.png,250,4.135,15.0,10340,247,feet,jsons/v1_VE250_randls_71.json,1590991,2158196,57,Woman
126,614598,DepthScenes,duration_manipulation_targetAtFixation,jsons/v1_VE250_randls_71.json,http://54.235.29.9/FacialAge/BNav_EC2/DepthDuration/v2_depth_duration_MTurk/v2_DepthDuration_HTML.html#94,94,1280,800,1280,800,8-20-2022,8-57-15,127,depth_duration_stimuli/001066_2014-06-08_22-03-20_260595134347_rgbf000066-resize_4/001066_2014-06-08_22-03-20_260595134347_rgbf000066-resize_4-target.png,250,4.2330000000000005,12.0,9066,248,feet,jsons/v1_VE250_randls_71.json,1590991,2158196,57,Woman
127,614598,DepthScenes,duration_manipulation_targetAtFixation,jsons/v1_VE250_randls_71.json,http://54.235.29.9/FacialAge/BNav_EC2/DepthDuration/v2_depth_duration_MTurk/v2_DepthDuration_HTML.html#94,94,1280,800,1280,800,8-20-2022,8-57-15,128,depth_duration_stimuli/000742_2014-06-08_18-48-09_260595134347_rgbf000164-resize_4/000742_2014-06-08_18-48-09_260595134347_rgbf000164-resize_4-target.png,250,4.632,7.0,7134,249,feet,jsons/v1_VE250_randls_71.json,1590991,2158196,57,Woman
128,614598,DepthScenes,duration_manipulation_targetAtFixation,jsons/v1_VE250_randls_71.json,http://54.235.29.9/FacialAge/BNav_EC2/DepthDuration/v2_depth_duration_MTurk/v2_DepthDuration_HTML.html#94,94,1280,800,1280,800,8-20-2022,8-57-15,129,depth_duration_stimuli/000682_2014-06-08_23-14-58_260595134347_rgbf000041-resize_5/000682_2014-06-08_23-14-58_260595134347_rgbf000041-resize_5-target.png,250,2.7239999999999998,2.5,12009,252,feet,jsons/v1_VE250_randls_71.json,1590991,2158196,57,Woman
129,614598,DepthScenes,duration_manipulation_targetAtFixation,jsons/v1_VE250_randls_71.json,http://54.235.29.9/FacialAge/BNav_EC2/DepthDuration/v2_depth_duration_MTurk/v2_DepthDuration_HTML.html#94,94,1280,800,1280,800,8-20-2022,8-57-15,130,depth_duration_stimuli/001650_2014-06-20_12-09-00_260595134347_rgbf000087-resize_3/001650_2014-06-20_12-09-00_260595134347_rgbf000087-resize_3-target.png,250,1.9505,1.5,8691,250,feet,jsons/v1_VE250_randls_71.json,1590991,2158196,57,Woman
130,614598,DepthScenes,duration_manipulation_targetAtFixation,jsons/v1_VE250_randls_71.json,http://54.235.29.9/FacialAge/BNav_EC2/DepthDuration/v2_depth_duration_MTurk/v2_DepthDuration_HTML.html#94,94,1280,800,1280,800,8-20-2022,8-57-15,131,depth_duration_stimuli/001167_2014-06-17_15-38-07_260595134347_rgbf000108-resize_0/001167_2014-06-17_15-38-07_260595134347_rgbf000108-resize_0-target.png,250,1.8505,2.0,8182,250,feet,jsons/v1_VE250_randls_71.json,1590991,2158196,57,Woman
131,614598,DepthScenes,duration_manipulation_targetAtFixation,jsons/v1_VE250_randls_71.json,http://54.235.29.9/FacialAge/BNav_EC2/DepthDuration/v2_depth_duration_MTurk/v2_DepthDuration_HTML.html#94,94,1280,800,1280,800,8-20-2022,8-57-15,132,depth_duration_stimuli/003587_2014-05-23_16-48-02_094959634447_rgbf002384-resize_2/003587_2014-05-23_16-48-02_094959634447_rgbf002384-resize_2-target.png,250,1.357,1.5,10217,253,feet,jsons/v1_VE250_randls_71.json,1590991,2158196,57,Woman
132,614598,DepthScenes,duration_manipulation_targetAtFixation,jsons/v1_VE250_randls_71.json,http://54.235.29.9/FacialAge/BNav_EC2/DepthDuration/v2_depth_duration_MTurk/v2_DepthDuration_HTML.html#94,94,1280,800,1280,800,8-20-2022,8-57-15,133,depth_duration_stimuli/000810_2014-06-08_17-20-01_260595134347_rgbf000105-resize_0/000810_2014-06-08_17-20-01_260595134347_rgbf000105-resize_0-target.png,250,1.4865,1.0,7212,250,feet,jsons/v1_VE250_randls_71.json,1590991,2158196,57,Woman
133,614598,DepthScenes,duration_manipulation_targetAtFixation,jsons/v1_VE250_randls_71.json,http://54.235.29.9/FacialAge/BNav_EC2/DepthDuration/v2_depth_duration_MTurk/v2_DepthDuration_HTML.html#94,94,1280,800,1280,800,8-20-2022,8-57-15,134,depth_duration_stimuli/001214_2014-06-17_16-13-55_260595134347_rgbf000111-resize_0/001214_2014-06-17_16-13-55_260595134347_rgbf000111-resize_0-target.png,250,2.6505,1.5,10977,246,feet,jsons/v1_VE250_randls_71.json,1590991,2158196,57,Woman
134,614598,DepthScenes,duration_manipulation_targetAtFixation,jsons/v1_VE250_randls_71.json,http://54.235.29.9/FacialAge/BNav_EC2/DepthDuration/v2_depth_duration_MTurk/v2_DepthDuration_HTML.html#94,94,1280,800,1280,800,8-20-2022,8-57-15,135,depth_duration_stimuli/002072_2014-06-24_21-48-06_260595134347_rgbf000115-resize_0/002072_2014-06-24_21-48-06_260595134347_rgbf000115-resize-original.jpg,250,4.702,0.0,3764,255,feet,jsons/v1_VE250_randls_71.json,1590991,2158196,57,Woman
135,614598,DepthScenes,duration_manipulation_targetAtFixation,jsons/v1_VE250_randls_71.json,http://54.235.29.9/FacialAge/BNav_EC2/DepthDuration/v2_depth_duration_MTurk/v2_DepthDuration_HTML.html#94,94,1280,800,1280,800,8-20-2022,8-57-15,136,depth_duration_stimuli/001806_2014-06-26_20-50-20_260595134347_rgbf000091-resize_1/001806_2014-06-26_20-50-20_260595134347_rgbf000091-resize_1-target.png,250,2.7305,3.5,10482,250,feet,jsons/v1_VE250_randls_71.json,1590991,2158196,57,Woman
136,614598,DepthScenes,duration_manipulation_targetAtFixation,jsons/v1_VE250_randls_71.json,http://54.235.29.9/FacialAge/BNav_EC2/DepthDuration/v2_depth_duration_MTurk/v2_DepthDuration_HTML.html#94,94,1280,800,1280,800,8-20-2022,8-57-15,137,depth_duration_stimuli/001617_2014-06-20_11-35-32_260595134347_rgbf000066-resize_1/001617_2014-06-20_11-35-32_260595134347_rgbf000066-resize_1-target.png,250,3.7910000000000004,7.0,6301,251,feet,jsons/v1_VE250_randls_71.json,1590991,2158196,57,Woman
137,614598,DepthScenes,duration_manipulation_targetAtFixation,jsons/v1_VE250_randls_71.json,http://54.235.29.9/FacialAge/BNav_EC2/DepthDuration/v2_depth_duration_MTurk/v2_DepthDuration_HTML.html#94,94,1280,800,1280,800,8-20-2022,8-57-15,138,depth_duration_stimuli/002788_2014-06-22_19-36-03_094959634447_rgbf000088-resize_2/002788_2014-06-22_19-36-03_094959634447_rgbf000088-resize_2-target.png,250,1.6465,4.0,10172,246,feet,jsons/v1_VE250_randls_71.json,1590991,2158196,57,Woman
138,614598,DepthScenes,duration_manipulation_targetAtFixation,jsons/v1_VE250_randls_71.json,http://54.235.29.9/FacialAge/BNav_EC2/DepthDuration/v2_depth_duration_MTurk/v2_DepthDuration_HTML.html#94,94,1280,800,1280,800,8-20-2022,8-57-15,139,depth_duration_stimuli/000749_2014-06-08_21-55-06_260595134347_rgbf000070-resize_2/000749_2014-06-08_21-55-06_260595134347_rgbf000070-resize_2-target.png,250,2.331,3.0,10561,254,feet,jsons/v1_VE250_randls_71.json,1590991,2158196,57,Woman
139,614598,DepthScenes,duration_manipulation_targetAtFixation,jsons/v1_VE250_randls_71.json,http://54.235.29.9/FacialAge/BNav_EC2/DepthDuration/v2_depth_duration_MTurk/v2_DepthDuration_HTML.html#94,94,1280,800,1280,800,8-20-2022,8-57-15,140,depth_duration_stimuli/002663_2014-06-13_15-50-26_094959634447_rgbf000075-resize_1/002663_2014-06-13_15-50-26_094959634447_rgbf000075-resize_1-target.png,250,4.7495,5.0,8095,249,feet,jsons/v1_VE250_randls_71.json,1590991,2158196,57,Woman
140,614598,DepthScenes,duration_manipulation_targetAtFixation,jsons/v1_VE250_randls_71.json,http://54.235.29.9/FacialAge/BNav_EC2/DepthDuration/v2_depth_duration_MTurk/v2_DepthDuration_HTML.html#94,94,1280,800,1280,800,8-20-2022,8-57-15,141,depth_duration_stimuli/000409_2014-06-04_19-23-33_260595134347_rgbf000067-resize_0/000409_2014-06-04_19-23-33_260595134347_rgbf000067-resize_0-target.png,250,3.7335,2.5,7553,251,feet,jsons/v1_VE250_randls_71.json,1590991,2158196,57,Woman
141,614598,DepthScenes,duration_manipulation_targetAtFixation,jsons/v1_VE250_randls_71.json,http://54.235.29.9/FacialAge/BNav_EC2/DepthDuration/v2_depth_duration_MTurk/v2_DepthDuration_HTML.html#94,94,1280,800,1280,800,8-20-2022,8-57-15,142,depth_duration_stimuli/000692_2014-06-08_13-09-42_260595134347_rgbf000199-resize_2/000692_2014-06-08_13-09-42_260595134347_rgbf000199-resize_2-target.png,250,3.661,6.0,4453,250,feet,jsons/v1_VE250_randls_71.json,1590991,2158196,57,Woman
142,614598,DepthScenes,duration_manipulation_targetAtFixation,jsons/v1_VE250_randls_71.json,http://54.235.29.9/FacialAge/BNav_EC2/DepthDuration/v2_depth_duration_MTurk/v2_DepthDuration_HTML.html#94,94,1280,800,1280,800,8-20-2022,8-57-15,143,depth_duration_stimuli/001094_2014-06-15_17-36-00_260595134347_rgbf000205-resize_0/001094_2014-06-15_17-36-00_260595134347_rgbf000205-resize_0-target.png,250,4.2175,3.0,8623,254,feet,jsons/v1_VE250_randls_71.json,1590991,2158196,57,Woman
143,614598,DepthScenes,duration_manipulation_targetAtFixation,jsons/v1_VE250_randls_71.json,http://54.235.29.9/FacialAge/BNav_EC2/DepthDuration/v2_depth_duration_MTurk/v2_DepthDuration_HTML.html#94,94,1280,800,1280,800,8-20-2022,8-57-15,144,depth_duration_stimuli/002905_2014-06-03_18-04-43_094959634447_rgbf000151-resize_2/002905_2014-06-03_18-04-43_094959634447_rgbf000151-resize_2-target.png,250,2.0295,2.0,8635,250,feet,jsons/v1_VE250_randls_71.json,1590991,2158196,57,Woman
144,614598,DepthScenes,duration_manipulation_targetAtFixation,jsons/v1_VE250_randls_71.json,http://54.235.29.9/FacialAge/BNav_EC2/DepthDuration/v2_depth_duration_MTurk/v2_DepthDuration_HTML.html#94,94,1280,800,1280,800,8-20-2022,8-57-15,145,depth_duration_stimuli/003423_2014-05-21_10-23-26_094959634447_rgbf002665-resize_2/003423_2014-05-21_10-23-26_094959634447_rgbf002665-resize_2-target.png,250,3.2575,1.0,7866,250,feet,jsons/v1_VE250_randls_71.json,1590991,2158196,57,Woman
145,614598,DepthScenes,duration_manipulation_targetAtFixation,jsons/v1_VE250_randls_71.json,http://54.235.29.9/FacialAge/BNav_EC2/DepthDuration/v2_depth_duration_MTurk/v2_DepthDuration_HTML.html#94,94,1280,800,1280,800,8-20-2022,8-57-15,146,depth_duration_stimuli/001498_2014-06-19_17-45-14_260595134347_rgbf000129-resize_4/001498_2014-06-19_17-45-14_260595134347_rgbf000129-resize-original.jpg,250,1.4075,0.0,3771,250,feet,jsons/v1_VE250_randls_71.json,1590991,2158196,57,Woman
146,614598,DepthScenes,duration_manipulation_targetAtFixation,jsons/v1_VE250_randls_71.json,http://54.235.29.9/FacialAge/BNav_EC2/DepthDuration/v2_depth_duration_MTurk/v2_DepthDuration_HTML.html#94,94,1280,800,1280,800,8-20-2022,8-57-15,147,depth_duration_stimuli/001808_2014-06-26_20-50-58_260595134347_rgbf000029-resize_1/001808_2014-06-26_20-50-58_260595134347_rgbf000029-resize_1-target.png,250,4.249,8.0,4677,249,feet,jsons/v1_VE250_randls_71.json,1590991,2158196,57,Woman
147,614598,DepthScenes,duration_manipulation_targetAtFixation,jsons/v1_VE250_randls_71.json,http://54.235.29.9/FacialAge/BNav_EC2/DepthDuration/v2_depth_duration_MTurk/v2_DepthDuration_HTML.html#94,94,1280,800,1280,800,8-20-2022,8-57-15,148,depth_duration_stimuli/001815_2014-06-26_20-52-55_260595134347_rgbf000020-resize_0/001815_2014-06-26_20-52-55_260595134347_rgbf000020-resize_0-target.png,250,3.3865,9.0,5667,250,feet,jsons/v1_VE250_randls_71.json,1590991,2158196,57,Woman
148,614598,DepthScenes,duration_manipulation_targetAtFixation,jsons/v1_VE250_randls_71.json,http://54.235.29.9/FacialAge/BNav_EC2/DepthDuration/v2_depth_duration_MTurk/v2_DepthDuration_HTML.html#94,94,1280,800,1280,800,8-20-2022,8-57-15,149,depth_duration_stimuli/002057_2014-06-24_21-00-13_260595134347_rgbf000120-resize_1/002057_2014-06-24_21-00-13_260595134347_rgbf000120-resize_1-target.png,250,2.967,6.0,5626,250,feet,jsons/v1_VE250_randls_71.json,1590991,2158196,57,Woman
149,614598,DepthScenes,duration_manipulation_targetAtFixation,jsons/v1_VE250_randls_71.json,http://54.235.29.9/FacialAge/BNav_EC2/DepthDuration/v2_depth_duration_MTurk/v2_DepthDuration_HTML.html#94,94,1280,800,1280,800,8-20-2022,8-57-15,150,depth_duration_stimuli/000709_2014-06-08_13-51-55_260595134347_rgbf000068-resize_3/000709_2014-06-08_13-51-55_260595134347_rgbf000068-resize_3-target.png,250,1.8030000000000002,5.0,5119,246,feet,jsons/v1_VE250_randls_71.json,1590991,2158196,57,Woman
150,614598,DepthScenes,duration_manipulation_targetAtFixation,jsons/v1_VE250_randls_71.json,http://54.235.29.9/FacialAge/BNav_EC2/DepthDuration/v2_depth_duration_MTurk/v2_DepthDuration_HTML.html#94,94,1280,800,1280,800,8-20-2022,8-57-15,151,depth_duration_stimuli/002725_2014-06-22_11-47-51_094959634447_rgbf000070-resize_1/002725_2014-06-22_11-47-51_094959634447_rgbf000070-resize_1-target.png,250,2.195,3.0,9467,251,feet,jsons/v1_VE250_randls_71.json,1590991,2158196,57,Woman
151,614598,DepthScenes,duration_manipulation_targetAtFixation,jsons/v1_VE250_randls_71.json,http://54.235.29.9/FacialAge/BNav_EC2/DepthDuration/v2_depth_duration_MTurk/v2_DepthDuration_HTML.html#94,94,1280,800,1280,800,8-20-2022,8-57-15,152,depth_duration_stimuli/002344_2014-06-28_20-06-29_260595134347_rgbf000030-resize_1/002344_2014-06-28_20-06-29_260595134347_rgbf000030-resize_1-target.png,250,1.5795,1.5,10950,254,feet,jsons/v1_VE250_randls_71.json,1590991,2158196,57,Woman
152,614598,DepthScenes,duration_manipulation_targetAtFixation,jsons/v1_VE250_randls_71.json,http://54.235.29.9/FacialAge/BNav_EC2/DepthDuration/v2_depth_duration_MTurk/v2_DepthDuration_HTML.html#94,94,1280,800,1280,800,8-20-2022,8-57-15,153,depth_duration_stimuli/002043_2014-06-24_20-29-38_260595134347_rgbf000039-resize_4/002043_2014-06-24_20-29-38_260595134347_rgbf000039-resize_4-target.png,250,2.8435,3.0,5215,250,feet,jsons/v1_VE250_randls_71.json,1590991,2158196,57,Woman
153,614598,DepthScenes,duration_manipulation_targetAtFixation,jsons/v1_VE250_randls_71.json,http://54.235.29.9/FacialAge/BNav_EC2/DepthDuration/v2_depth_duration_MTurk/v2_DepthDuration_HTML.html#94,94,1280,800,1280,800,8-20-2022,8-57-15,154,depth_duration_stimuli/003048_2014-06-15_13-49-43_094959634447_rgbf000150-resize_1/003048_2014-06-15_13-49-43_094959634447_rgbf000150-resize_1-target.png,250,4.0035,4.5,6861,255,feet,jsons/v1_VE250_randls_71.json,1590991,2158196,57,Woman
154,614598,DepthScenes,duration_manipulation_targetAtFixation,jsons/v1_VE250_randls_71.json,http://54.235.29.9/FacialAge/BNav_EC2/DepthDuration/v2_depth_duration_MTurk/v2_DepthDuration_HTML.html#94,94,1280,800,1280,800,8-20-2022,8-57-15,155,depth_duration_stimuli/002445_2014-06-28_20-32-16_260595134347_rgbf000029-resize_4/002445_2014-06-28_20-32-16_260595134347_rgbf000029-resize_4-target.png,250,2.5315,2.5,8600,253,feet,jsons/v1_VE250_randls_71.json,1590991,2158196,57,Woman
155,614598,DepthScenes,duration_manipulation_targetAtFixation,jsons/v1_VE250_randls_71.json,http://54.235.29.9/FacialAge/BNav_EC2/DepthDuration/v2_depth_duration_MTurk/v2_DepthDuration_HTML.html#94,94,1280,800,1280,800,8-20-2022,8-57-15,156,depth_duration_stimuli/000780_2014-06-08_22-28-29_260595134347_rgbf000126-resize_1/000780_2014-06-08_22-28-29_260595134347_rgbf000126-resize_1-target.png,250,3.3825,4.5,6992,247,feet,jsons/v1_VE250_randls_71.json,1590991,2158196,57,Woman
156,614598,DepthScenes,duration_manipulation_targetAtFixation,jsons/v1_VE250_randls_71.json,http://54.235.29.9/FacialAge/BNav_EC2/DepthDuration/v2_depth_duration_MTurk/v2_DepthDuration_HTML.html#94,94,1280,800,1280,800,8-20-2022,8-57-15,157,depth_duration_stimuli/001029_2014-06-08_13-17-57_260595134347_rgbf000065-resize_1/001029_2014-06-08_13-17-57_260595134347_rgbf000065-resize_1-target.png,250,3.0835,4.0,6812,251,feet,jsons/v1_VE250_randls_71.json,1590991,2158196,57,Woman
157,614598,DepthScenes,duration_manipulation_targetAtFixation,jsons/v1_VE250_randls_71.json,http://54.235.29.9/FacialAge/BNav_EC2/DepthDuration/v2_depth_duration_MTurk/v2_DepthDuration_HTML.html#94,94,1280,800,1280,800,8-20-2022,8-57-15,158,depth_duration_stimuli/000677_2014-06-08_23-10-32_260595134347_rgbf000158-resize_6/000677_2014-06-08_23-10-32_260595134347_rgbf000158-resize_6-target.png,250,3.556,3.5,7244,253,feet,jsons/v1_VE250_randls_71.json,1590991,2158196,57,Woman
158,614598,DepthScenes,duration_manipulation_targetAtFixation,jsons/v1_VE250_randls_71.json,http://54.235.29.9/FacialAge/BNav_EC2/DepthDuration/v2_depth_duration_MTurk/v2_DepthDuration_HTML.html#94,94,1280,800,1280,800,8-20-2022,8-57-15,159,depth_duration_stimuli/002988_2014-06-15_12-24-20_094959634447_rgbf000150-resize_1/002988_2014-06-15_12-24-20_094959634447_rgbf000150-resize_1-target.png,250,4.7669999999999995,9.0,4006,255,feet,jsons/v1_VE250_randls_71.json,1590991,2158196,57,Woman
159,614598,DepthScenes,duration_manipulation_targetAtFixation,jsons/v1_VE250_randls_71.json,http://54.235.29.9/FacialAge/BNav_EC2/DepthDuration/v2_depth_duration_MTurk/v2_DepthDuration_HTML.html#94,94,1280,800,1280,800,8-20-2022,8-57-15,160,depth_duration_stimuli/001052_2014-06-08_18-24-54_260595134347_rgbf000130-resize_1/001052_2014-06-08_18-24-54_260595134347_rgbf000130-resize_1-target.png,250,4.1045,9.0,22620,248,feet,jsons/v1_VE250_randls_71.json,1590991,2158196,57,Woman
160,614598,DepthScenes,duration_manipulation_targetAtFixation,jsons/v1_VE250_randls_71.json,http://54.235.29.9/FacialAge/BNav_EC2/DepthDuration/v2_depth_duration_MTurk/v2_DepthDuration_HTML.html#94,94,1280,800,1280,800,8-20-2022,8-57-15,161,depth_duration_stimuli/000906_2014-06-08_13-35-43_260595134347_rgbf000155-resize_1/000906_2014-06-08_13-35-43_260595134347_rgbf000155-resize_1-target.png,250,2.8489999999999998,3.0,7163,254,feet,jsons/v1_VE250_randls_71.json,1590991,2158196,57,Woman
161,614598,DepthScenes,duration_manipulation_targetAtFixation,jsons/v1_VE250_randls_71.json,http://54.235.29.9/FacialAge/BNav_EC2/DepthDuration/v2_depth_duration_MTurk/v2_DepthDuration_HTML.html#94,94,1280,800,1280,800,8-20-2022,8-57-15,162,depth_duration_stimuli/002805_2014-06-22_19-54-03_094959634447_rgbf000079-resize_1/002805_2014-06-22_19-54-03_094959634447_rgbf000079-resize_1-target.png,250,3.1439999999999997,4.5,7098,251,feet,jsons/v1_VE250_randls_71.json,1590991,2158196,57,Woman
162,614598,DepthScenes,duration_manipulation_targetAtFixation,jsons/v1_VE250_randls_71.json,http://54.235.29.9/FacialAge/BNav_EC2/DepthDuration/v2_depth_duration_MTurk/v2_DepthDuration_HTML.html#94,94,1280,800,1280,800,8-20-2022,8-57-15,163,depth_duration_stimuli/002600_2014-06-24_14-27-04_094959634447_rgbf000074-resize_2/002600_2014-06-24_14-27-04_094959634447_rgbf000074-resize_2-target.png,250,2.7575,1.5,8422,251,feet,jsons/v1_VE250_randls_71.json,1590991,2158196,57,Woman
163,614598,DepthScenes,duration_manipulation_targetAtFixation,jsons/v1_VE250_randls_71.json,http://54.235.29.9/FacialAge/BNav_EC2/DepthDuration/v2_depth_duration_MTurk/v2_DepthDuration_HTML.html#94,94,1280,800,1280,800,8-20-2022,8-57-15,164,depth_duration_stimuli/003228_2014-05-14_13-42-35_094959634447_rgbf000101-resize_1/003228_2014-05-14_13-42-35_094959634447_rgbf000101-resize_1-target.png,250,1.9680000000000002,2.0,4244,248,feet,jsons/v1_VE250_randls_71.json,1590991,2158196,57,Woman
