,subjID,experimentName,versionName,sequenceName,url,selected_row,windowWidth,windowHeight,screenWidth,screenHeight,startDate,startTime,trial,stimulus,duration,actual_depth,depth_estimate,trial_RT,log_sceneDuration,unitSelection,seq_filepath,experimentTime,totalTime,age,gender
0,614634,DepthScenes,duration_manipulation_targetAtFixation,jsons/v1_VE1000_randls_69.json,http://54.235.29.9/FacialAge/BNav_EC2/DepthDuration/v2_depth_duration_MTurk/v2_DepthDuration_HTML.html#108,108,1366,768,1366,768,8-22-2022,8-33-14,1,depth_duration_stimuli/000878_2014-06-08_22-52-45_260595134347_rgbf000045-resize_2/000878_2014-06-08_22-52-45_260595134347_rgbf000045-resize_2-target.png,1000,2.092,3,3664,1005,feet,jsons/v1_VE1000_randls_69.json,773141,1067589,31,Woman
1,614634,DepthScenes,duration_manipulation_targetAtFixation,jsons/v1_VE1000_randls_69.json,http://54.235.29.9/FacialAge/BNav_EC2/DepthDuration/v2_depth_duration_MTurk/v2_DepthDuration_HTML.html#108,108,1366,768,1366,768,8-22-2022,8-33-14,2,depth_duration_stimuli/002953_2014-06-08_17-32-18_094959634447_rgbf000059-resize_5/002953_2014-06-08_17-32-18_094959634447_rgbf000059-resize_5-target.png,1000,1.551,1,3524,988,feet,jsons/v1_VE1000_randls_69.json,773141,1067589,31,Woman
2,614634,DepthScenes,duration_manipulation_targetAtFixation,jsons/v1_VE1000_randls_69.json,http://54.235.29.9/FacialAge/BNav_EC2/DepthDuration/v2_depth_duration_MTurk/v2_DepthDuration_HTML.html#108,108,1366,768,1366,768,8-22-2022,8-33-14,3,depth_duration_stimuli/002549_2014-06-24_13-41-39_094959634447_rgbf000022-resize_3/002549_2014-06-24_13-41-39_094959634447_rgbf000022-resize_3-target.png,1000,1.476,1,4231,1001,feet,jsons/v1_VE1000_randls_69.json,773141,1067589,31,Woman
3,614634,DepthScenes,duration_manipulation_targetAtFixation,jsons/v1_VE1000_randls_69.json,http://54.235.29.9/FacialAge/BNav_EC2/DepthDuration/v2_depth_duration_MTurk/v2_DepthDuration_HTML.html#108,108,1366,768,1366,768,8-22-2022,8-33-14,4,depth_duration_stimuli/002750_2014-06-22_19-08-03_094959634447_rgbf000094-resize_4/002750_2014-06-22_19-08-03_094959634447_rgbf000094-resize_4-target.png,1000,2.354,4,4037,999,feet,jsons/v1_VE1000_randls_69.json,773141,1067589,31,Woman
4,614634,DepthScenes,duration_manipulation_targetAtFixation,jsons/v1_VE1000_randls_69.json,http://54.235.29.9/FacialAge/BNav_EC2/DepthDuration/v2_depth_duration_MTurk/v2_DepthDuration_HTML.html#108,108,1366,768,1366,768,8-22-2022,8-33-14,5,depth_duration_stimuli/001011_2014-06-08_23-18-54_260595134347_rgbf000044-resize_4/001011_2014-06-08_23-18-54_260595134347_rgbf000044-resize_4-target.png,1000,2.4730000000000003,4,3755,977,feet,jsons/v1_VE1000_randls_69.json,773141,1067589,31,Woman
5,614634,DepthScenes,duration_manipulation_targetAtFixation,jsons/v1_VE1000_randls_69.json,http://54.235.29.9/FacialAge/BNav_EC2/DepthDuration/v2_depth_duration_MTurk/v2_DepthDuration_HTML.html#108,108,1366,768,1366,768,8-22-2022,8-33-14,6,depth_duration_stimuli/002875_2014-06-01_15-19-00_094959634447_rgbf000151-resize_1/002875_2014-06-01_15-19-00_094959634447_rgbf000151-resize_1-target.png,1000,1.9675,2,3437,1000,feet,jsons/v1_VE1000_randls_69.json,773141,1067589,31,Woman
6,614634,DepthScenes,duration_manipulation_targetAtFixation,jsons/v1_VE1000_randls_69.json,http://54.235.29.9/FacialAge/BNav_EC2/DepthDuration/v2_depth_duration_MTurk/v2_DepthDuration_HTML.html#108,108,1366,768,1366,768,8-22-2022,8-33-14,7,depth_duration_stimuli/001092_2014-06-15_17-34-58_260595134347_rgbf000171-resize_3/001092_2014-06-15_17-34-58_260595134347_rgbf000171-resize_3-target.png,1000,2.6935,3,3384,998,feet,jsons/v1_VE1000_randls_69.json,773141,1067589,31,Woman
7,614634,DepthScenes,duration_manipulation_targetAtFixation,jsons/v1_VE1000_randls_69.json,http://54.235.29.9/FacialAge/BNav_EC2/DepthDuration/v2_depth_duration_MTurk/v2_DepthDuration_HTML.html#108,108,1366,768,1366,768,8-22-2022,8-33-14,8,depth_duration_stimuli/002545_2014-06-24_13-38-53_094959634447_rgbf000080-resize_4/002545_2014-06-24_13-38-53_094959634447_rgbf000080-resize_4-target.png,1000,1.9205,4,3640,1001,feet,jsons/v1_VE1000_randls_69.json,773141,1067589,31,Woman
8,614634,DepthScenes,duration_manipulation_targetAtFixation,jsons/v1_VE1000_randls_69.json,http://54.235.29.9/FacialAge/BNav_EC2/DepthDuration/v2_depth_duration_MTurk/v2_DepthDuration_HTML.html#108,108,1366,768,1366,768,8-22-2022,8-33-14,9,depth_duration_stimuli/001808_2014-06-26_20-50-58_260595134347_rgbf000029-resize_1/001808_2014-06-26_20-50-58_260595134347_rgbf000029-resize_1-target.png,1000,4.249,6,4144,999,feet,jsons/v1_VE1000_randls_69.json,773141,1067589,31,Woman
9,614634,DepthScenes,duration_manipulation_targetAtFixation,jsons/v1_VE1000_randls_69.json,http://54.235.29.9/FacialAge/BNav_EC2/DepthDuration/v2_depth_duration_MTurk/v2_DepthDuration_HTML.html#108,108,1366,768,1366,768,8-22-2022,8-33-14,10,depth_duration_stimuli/001815_2014-06-26_20-52-55_260595134347_rgbf000020-resize_0/001815_2014-06-26_20-52-55_260595134347_rgbf000020-resize_0-target.png,1000,3.3865,4,3569,1000,feet,jsons/v1_VE1000_randls_69.json,773141,1067589,31,Woman
10,614634,DepthScenes,duration_manipulation_targetAtFixation,jsons/v1_VE1000_randls_69.json,http://54.235.29.9/FacialAge/BNav_EC2/DepthDuration/v2_depth_duration_MTurk/v2_DepthDuration_HTML.html#108,108,1366,768,1366,768,8-22-2022,8-33-14,11,depth_duration_stimuli/000009_2014-05-26_14-32-05_260595134347_rgbf000034-resize_3/000009_2014-05-26_14-32-05_260595134347_rgbf000034-resize_3-target.png,1000,3.8715,7,4619,999,feet,jsons/v1_VE1000_randls_69.json,773141,1067589,31,Woman
11,614634,DepthScenes,duration_manipulation_targetAtFixation,jsons/v1_VE1000_randls_69.json,http://54.235.29.9/FacialAge/BNav_EC2/DepthDuration/v2_depth_duration_MTurk/v2_DepthDuration_HTML.html#108,108,1366,768,1366,768,8-22-2022,8-33-14,12,depth_duration_stimuli/001828_2014-06-26_21-40-03_260595134347_rgbf000024-resize_0/001828_2014-06-26_21-40-03_260595134347_rgbf000024-resize_0-target.png,1000,4.8260000000000005,7,4630,986,feet,jsons/v1_VE1000_randls_69.json,773141,1067589,31,Woman
12,614634,DepthScenes,duration_manipulation_targetAtFixation,jsons/v1_VE1000_randls_69.json,http://54.235.29.9/FacialAge/BNav_EC2/DepthDuration/v2_depth_duration_MTurk/v2_DepthDuration_HTML.html#108,108,1366,768,1366,768,8-22-2022,8-33-14,13,depth_duration_stimuli/000569_2014-06-09_22-51-47_260595134347_rgbf000141-resize_3/000569_2014-06-09_22-51-47_260595134347_rgbf000141-resize-original.jpg,1000,4.512,0,4068,995,feet,jsons/v1_VE1000_randls_69.json,773141,1067589,31,Woman
13,614634,DepthScenes,duration_manipulation_targetAtFixation,jsons/v1_VE1000_randls_69.json,http://54.235.29.9/FacialAge/BNav_EC2/DepthDuration/v2_depth_duration_MTurk/v2_DepthDuration_HTML.html#108,108,1366,768,1366,768,8-22-2022,8-33-14,14,depth_duration_stimuli/000917_2014-06-09_22-45-29_260595134347_rgbf000149-resize_3/000917_2014-06-09_22-45-29_260595134347_rgbf000149-resize_3-target.png,1000,4.1865,5,3864,1011,feet,jsons/v1_VE1000_randls_69.json,773141,1067589,31,Woman
14,614634,DepthScenes,duration_manipulation_targetAtFixation,jsons/v1_VE1000_randls_69.json,http://54.235.29.9/FacialAge/BNav_EC2/DepthDuration/v2_depth_duration_MTurk/v2_DepthDuration_HTML.html#108,108,1366,768,1366,768,8-22-2022,8-33-14,15,depth_duration_stimuli/002323_2014-06-28_20-01-54_260595134347_rgbf000051-resize_4/002323_2014-06-28_20-01-54_260595134347_rgbf000051-resize_4-target.png,1000,3.7310000000000003,5,3859,985,feet,jsons/v1_VE1000_randls_69.json,773141,1067589,31,Woman
15,614634,DepthScenes,duration_manipulation_targetAtFixation,jsons/v1_VE1000_randls_69.json,http://54.235.29.9/FacialAge/BNav_EC2/DepthDuration/v2_depth_duration_MTurk/v2_DepthDuration_HTML.html#108,108,1366,768,1366,768,8-22-2022,8-33-14,16,depth_duration_stimuli/001806_2014-06-26_20-50-20_260595134347_rgbf000091-resize_1/001806_2014-06-26_20-50-20_260595134347_rgbf000091-resize_1-target.png,1000,2.7305,3,3625,989,feet,jsons/v1_VE1000_randls_69.json,773141,1067589,31,Woman
16,614634,DepthScenes,duration_manipulation_targetAtFixation,jsons/v1_VE1000_randls_69.json,http://54.235.29.9/FacialAge/BNav_EC2/DepthDuration/v2_depth_duration_MTurk/v2_DepthDuration_HTML.html#108,108,1366,768,1366,768,8-22-2022,8-33-14,17,depth_duration_stimuli/001617_2014-06-20_11-35-32_260595134347_rgbf000066-resize_1/001617_2014-06-20_11-35-32_260595134347_rgbf000066-resize_1-target.png,1000,3.7910000000000004,5,3761,1003,feet,jsons/v1_VE1000_randls_69.json,773141,1067589,31,Woman
17,614634,DepthScenes,duration_manipulation_targetAtFixation,jsons/v1_VE1000_randls_69.json,http://54.235.29.9/FacialAge/BNav_EC2/DepthDuration/v2_depth_duration_MTurk/v2_DepthDuration_HTML.html#108,108,1366,768,1366,768,8-22-2022,8-33-14,18,depth_duration_stimuli/002279_2014-06-28_18-55-32_260595134347_rgbf000040-resize_5/002279_2014-06-28_18-55-32_260595134347_rgbf000040-resize_5-target.png,1000,1.5043333333333,2,3758,987,feet,jsons/v1_VE1000_randls_69.json,773141,1067589,31,Woman
18,614634,DepthScenes,duration_manipulation_targetAtFixation,jsons/v1_VE1000_randls_69.json,http://54.235.29.9/FacialAge/BNav_EC2/DepthDuration/v2_depth_duration_MTurk/v2_DepthDuration_HTML.html#108,108,1366,768,1366,768,8-22-2022,8-33-14,19,depth_duration_stimuli/000635_2014-06-08_16-38-42_260595134347_rgbf000106-resize_1/000635_2014-06-08_16-38-42_260595134347_rgbf000106-resize_1-target.png,1000,2.074,4,4378,998,feet,jsons/v1_VE1000_randls_69.json,773141,1067589,31,Woman
19,614634,DepthScenes,duration_manipulation_targetAtFixation,jsons/v1_VE1000_randls_69.json,http://54.235.29.9/FacialAge/BNav_EC2/DepthDuration/v2_depth_duration_MTurk/v2_DepthDuration_HTML.html#108,108,1366,768,1366,768,8-22-2022,8-33-14,20,depth_duration_stimuli/001555_2014-06-20_17-12-10_260595134347_rgbf000065-resize_4/001555_2014-06-20_17-12-10_260595134347_rgbf000065-resize_4-target.png,1000,1.633,1,4136,1007,feet,jsons/v1_VE1000_randls_69.json,773141,1067589,31,Woman
20,614634,DepthScenes,duration_manipulation_targetAtFixation,jsons/v1_VE1000_randls_69.json,http://54.235.29.9/FacialAge/BNav_EC2/DepthDuration/v2_depth_duration_MTurk/v2_DepthDuration_HTML.html#108,108,1366,768,1366,768,8-22-2022,8-33-14,21,depth_duration_stimuli/000103_2014-05-14_22-01-17_260595134347_rgbf000152-resize_5/000103_2014-05-14_22-01-17_260595134347_rgbf000152-resize_5-target.png,1000,1.993,3,3773,989,feet,jsons/v1_VE1000_randls_69.json,773141,1067589,31,Woman
21,614634,DepthScenes,duration_manipulation_targetAtFixation,jsons/v1_VE1000_randls_69.json,http://54.235.29.9/FacialAge/BNav_EC2/DepthDuration/v2_depth_duration_MTurk/v2_DepthDuration_HTML.html#108,108,1366,768,1366,768,8-22-2022,8-33-14,22,depth_duration_stimuli/002748_2014-06-22_19-07-22_094959634447_rgbf000078-resize_1/002748_2014-06-22_19-07-22_094959634447_rgbf000078-resize_1-target.png,1000,4.6705,8,4316,988,feet,jsons/v1_VE1000_randls_69.json,773141,1067589,31,Woman
22,614634,DepthScenes,duration_manipulation_targetAtFixation,jsons/v1_VE1000_randls_69.json,http://54.235.29.9/FacialAge/BNav_EC2/DepthDuration/v2_depth_duration_MTurk/v2_DepthDuration_HTML.html#108,108,1366,768,1366,768,8-22-2022,8-33-14,23,depth_duration_stimuli/002995_2014-06-15_12-31-26_094959634447_rgbf000150-resize_1/002995_2014-06-15_12-31-26_094959634447_rgbf000150-resize_1-target.png,1000,3.8360000000000003,7,4072,986,feet,jsons/v1_VE1000_randls_69.json,773141,1067589,31,Woman
23,614634,DepthScenes,duration_manipulation_targetAtFixation,jsons/v1_VE1000_randls_69.json,http://54.235.29.9/FacialAge/BNav_EC2/DepthDuration/v2_depth_duration_MTurk/v2_DepthDuration_HTML.html#108,108,1366,768,1366,768,8-22-2022,8-33-14,24,depth_duration_stimuli/002118_2014-06-25_20-32-08_260595134347_rgbf000078-resize_1/002118_2014-06-25_20-32-08_260595134347_rgbf000078-resize_1-target.png,1000,2.6460000000000004,3,4389,1013,feet,jsons/v1_VE1000_randls_69.json,773141,1067589,31,Woman
24,614634,DepthScenes,duration_manipulation_targetAtFixation,jsons/v1_VE1000_randls_69.json,http://54.235.29.9/FacialAge/BNav_EC2/DepthDuration/v2_depth_duration_MTurk/v2_DepthDuration_HTML.html#108,108,1366,768,1366,768,8-22-2022,8-33-14,25,depth_duration_stimuli/001516_2014-06-20_16-25-09_260595134347_rgbf000076-resize_2/001516_2014-06-20_16-25-09_260595134347_rgbf000076-resize_2-target.png,1000,1.7445,3,3829,1010,feet,jsons/v1_VE1000_randls_69.json,773141,1067589,31,Woman
25,614634,DepthScenes,duration_manipulation_targetAtFixation,jsons/v1_VE1000_randls_69.json,http://54.235.29.9/FacialAge/BNav_EC2/DepthDuration/v2_depth_duration_MTurk/v2_DepthDuration_HTML.html#108,108,1366,768,1366,768,8-22-2022,8-33-14,26,depth_duration_stimuli/001110_2014-06-15_17-25-28_260595134347_rgbf000150-resize_1/001110_2014-06-15_17-25-28_260595134347_rgbf000150-resize_1-target.png,1000,1.7115,3,3902,1001,feet,jsons/v1_VE1000_randls_69.json,773141,1067589,31,Woman
26,614634,DepthScenes,duration_manipulation_targetAtFixation,jsons/v1_VE1000_randls_69.json,http://54.235.29.9/FacialAge/BNav_EC2/DepthDuration/v2_depth_duration_MTurk/v2_DepthDuration_HTML.html#108,108,1366,768,1366,768,8-22-2022,8-33-14,27,depth_duration_stimuli/000927_2014-06-09_16-32-30_260595134347_rgbf000123-resize_3/000927_2014-06-09_16-32-30_260595134347_rgbf000123-resize_3-target.png,1000,2.6785,4,3917,986,feet,jsons/v1_VE1000_randls_69.json,773141,1067589,31,Woman
27,614634,DepthScenes,duration_manipulation_targetAtFixation,jsons/v1_VE1000_randls_69.json,http://54.235.29.9/FacialAge/BNav_EC2/DepthDuration/v2_depth_duration_MTurk/v2_DepthDuration_HTML.html#108,108,1366,768,1366,768,8-22-2022,8-33-14,28,depth_duration_stimuli/002153_2014-06-25_21-27-18_260595134347_rgbf000038-resize_5/002153_2014-06-25_21-27-18_260595134347_rgbf000038-resize_5-target.png,1000,2.505,3,5579,1005,feet,jsons/v1_VE1000_randls_69.json,773141,1067589,31,Woman
28,614634,DepthScenes,duration_manipulation_targetAtFixation,jsons/v1_VE1000_randls_69.json,http://54.235.29.9/FacialAge/BNav_EC2/DepthDuration/v2_depth_duration_MTurk/v2_DepthDuration_HTML.html#108,108,1366,768,1366,768,8-22-2022,8-33-14,29,depth_duration_stimuli/002660_2014-06-13_15-44-18_094959634447_rgbf001878-resize_2/002660_2014-06-13_15-44-18_094959634447_rgbf001878-resize_2-target.png,1000,3.576,5,3584,999,feet,jsons/v1_VE1000_randls_69.json,773141,1067589,31,Woman
29,614634,DepthScenes,duration_manipulation_targetAtFixation,jsons/v1_VE1000_randls_69.json,http://54.235.29.9/FacialAge/BNav_EC2/DepthDuration/v2_depth_duration_MTurk/v2_DepthDuration_HTML.html#108,108,1366,768,1366,768,8-22-2022,8-33-14,30,depth_duration_stimuli/000375_2014-06-08_11-17-29_260595134347_rgbf000133-resize_2/000375_2014-06-08_11-17-29_260595134347_rgbf000133-resize-original.jpg,1000,4.718,0,3949,1003,feet,jsons/v1_VE1000_randls_69.json,773141,1067589,31,Woman
30,614634,DepthScenes,duration_manipulation_targetAtFixation,jsons/v1_VE1000_randls_69.json,http://54.235.29.9/FacialAge/BNav_EC2/DepthDuration/v2_depth_duration_MTurk/v2_DepthDuration_HTML.html#108,108,1366,768,1366,768,8-22-2022,8-33-14,31,depth_duration_stimuli/002964_2014-06-08_17-46-11_094959634447_rgbf000091-resize_4/002964_2014-06-08_17-46-11_094959634447_rgbf000091-resize_4-target.png,1000,1.6909999999999998,2,3494,1011,feet,jsons/v1_VE1000_randls_69.json,773141,1067589,31,Woman
31,614634,DepthScenes,duration_manipulation_targetAtFixation,jsons/v1_VE1000_randls_69.json,http://54.235.29.9/FacialAge/BNav_EC2/DepthDuration/v2_depth_duration_MTurk/v2_DepthDuration_HTML.html#108,108,1366,768,1366,768,8-22-2022,8-33-14,32,depth_duration_stimuli/002136_2014-06-25_21-18-03_260595134347_rgbf000109-resize_3/002136_2014-06-25_21-18-03_260595134347_rgbf000109-resize_3-target.png,1000,1.9569999999999999,2,3837,1009,feet,jsons/v1_VE1000_randls_69.json,773141,1067589,31,Woman
32,614634,DepthScenes,duration_manipulation_targetAtFixation,jsons/v1_VE1000_randls_69.json,http://54.235.29.9/FacialAge/BNav_EC2/DepthDuration/v2_depth_duration_MTurk/v2_DepthDuration_HTML.html#108,108,1366,768,1366,768,8-22-2022,8-33-14,33,depth_duration_stimuli/001244_2014-06-17_16-47-45_260595134347_rgbf000030-resize_4/001244_2014-06-17_16-47-45_260595134347_rgbf000030-resize_4-target.png,1000,2.0425,2,3450,981,feet,jsons/v1_VE1000_randls_69.json,773141,1067589,31,Woman
33,614634,DepthScenes,duration_manipulation_targetAtFixation,jsons/v1_VE1000_randls_69.json,http://54.235.29.9/FacialAge/BNav_EC2/DepthDuration/v2_depth_duration_MTurk/v2_DepthDuration_HTML.html#108,108,1366,768,1366,768,8-22-2022,8-33-14,34,depth_duration_stimuli/003495_2014-05-21_16-01-51_094959634447_rgbf000100-resize_3/003495_2014-05-21_16-01-51_094959634447_rgbf000100-resize_3-target.png,1000,1.6255,2,3504,1002,feet,jsons/v1_VE1000_randls_69.json,773141,1067589,31,Woman
34,614634,DepthScenes,duration_manipulation_targetAtFixation,jsons/v1_VE1000_randls_69.json,http://54.235.29.9/FacialAge/BNav_EC2/DepthDuration/v2_depth_duration_MTurk/v2_DepthDuration_HTML.html#108,108,1366,768,1366,768,8-22-2022,8-33-14,35,depth_duration_stimuli/002988_2014-06-15_12-24-20_094959634447_rgbf000150-resize_1/002988_2014-06-15_12-24-20_094959634447_rgbf000150-resize_1-target.png,1000,4.7669999999999995,8,5299,1001,feet,jsons/v1_VE1000_randls_69.json,773141,1067589,31,Woman
35,614634,DepthScenes,duration_manipulation_targetAtFixation,jsons/v1_VE1000_randls_69.json,http://54.235.29.9/FacialAge/BNav_EC2/DepthDuration/v2_depth_duration_MTurk/v2_DepthDuration_HTML.html#108,108,1366,768,1366,768,8-22-2022,8-33-14,36,depth_duration_stimuli/001052_2014-06-08_18-24-54_260595134347_rgbf000130-resize_1/001052_2014-06-08_18-24-54_260595134347_rgbf000130-resize_1-target.png,1000,4.1045,8,5473,1000,feet,jsons/v1_VE1000_randls_69.json,773141,1067589,31,Woman
36,614634,DepthScenes,duration_manipulation_targetAtFixation,jsons/v1_VE1000_randls_69.json,http://54.235.29.9/FacialAge/BNav_EC2/DepthDuration/v2_depth_duration_MTurk/v2_DepthDuration_HTML.html#108,108,1366,768,1366,768,8-22-2022,8-33-14,37,depth_duration_stimuli/002989_2014-06-15_12-25-03_094959634447_rgbf000150-resize_3/002989_2014-06-15_12-25-03_094959634447_rgbf000150-resize_3-target.png,1000,4.1975,7,3837,1000,feet,jsons/v1_VE1000_randls_69.json,773141,1067589,31,Woman
37,614634,DepthScenes,duration_manipulation_targetAtFixation,jsons/v1_VE1000_randls_69.json,http://54.235.29.9/FacialAge/BNav_EC2/DepthDuration/v2_depth_duration_MTurk/v2_DepthDuration_HTML.html#108,108,1366,768,1366,768,8-22-2022,8-33-14,38,depth_duration_stimuli/000866_2014-06-09_20-45-42_260595134347_rgbf000139-resize_1/000866_2014-06-09_20-45-42_260595134347_rgbf000139-resize_1-target.png,1000,3.2155,4,4078,986,feet,jsons/v1_VE1000_randls_69.json,773141,1067589,31,Woman
38,614634,DepthScenes,duration_manipulation_targetAtFixation,jsons/v1_VE1000_randls_69.json,http://54.235.29.9/FacialAge/BNav_EC2/DepthDuration/v2_depth_duration_MTurk/v2_DepthDuration_HTML.html#108,108,1366,768,1366,768,8-22-2022,8-33-14,39,depth_duration_stimuli/002272_2014-06-28_18-53-56_260595134347_rgbf000067-resize_2/002272_2014-06-28_18-53-56_260595134347_rgbf000067-resize_2-target.png,1000,1.138,2,3555,996,feet,jsons/v1_VE1000_randls_69.json,773141,1067589,31,Woman
39,614634,DepthScenes,duration_manipulation_targetAtFixation,jsons/v1_VE1000_randls_69.json,http://54.235.29.9/FacialAge/BNav_EC2/DepthDuration/v2_depth_duration_MTurk/v2_DepthDuration_HTML.html#108,108,1366,768,1366,768,8-22-2022,8-33-14,40,depth_duration_stimuli/001571_2014-06-20_17-21-32_260595134347_rgbf000089-resize_1/001571_2014-06-20_17-21-32_260595134347_rgbf000089-resize_1-target.png,1000,1.86,2,3607,991,feet,jsons/v1_VE1000_randls_69.json,773141,1067589,31,Woman
40,614634,DepthScenes,duration_manipulation_targetAtFixation,jsons/v1_VE1000_randls_69.json,http://54.235.29.9/FacialAge/BNav_EC2/DepthDuration/v2_depth_duration_MTurk/v2_DepthDuration_HTML.html#108,108,1366,768,1366,768,8-22-2022,8-33-14,41,depth_duration_stimuli/000906_2014-06-08_13-35-43_260595134347_rgbf000155-resize_1/000906_2014-06-08_13-35-43_260595134347_rgbf000155-resize_1-target.png,1000,2.8489999999999998,4,5840,995,feet,jsons/v1_VE1000_randls_69.json,773141,1067589,31,Woman
41,614634,DepthScenes,duration_manipulation_targetAtFixation,jsons/v1_VE1000_randls_69.json,http://54.235.29.9/FacialAge/BNav_EC2/DepthDuration/v2_depth_duration_MTurk/v2_DepthDuration_HTML.html#108,108,1366,768,1366,768,8-22-2022,8-33-14,42,depth_duration_stimuli/002805_2014-06-22_19-54-03_094959634447_rgbf000079-resize_1/002805_2014-06-22_19-54-03_094959634447_rgbf000079-resize_1-target.png,1000,3.1439999999999997,5,3711,1008,feet,jsons/v1_VE1000_randls_69.json,773141,1067589,31,Woman
42,614634,DepthScenes,duration_manipulation_targetAtFixation,jsons/v1_VE1000_randls_69.json,http://54.235.29.9/FacialAge/BNav_EC2/DepthDuration/v2_depth_duration_MTurk/v2_DepthDuration_HTML.html#108,108,1366,768,1366,768,8-22-2022,8-33-14,43,depth_duration_stimuli/000486_2014-06-09_20-47-20_260595134347_rgbf000143-resize_2/000486_2014-06-09_20-47-20_260595134347_rgbf000143-resize_2-target.png,1000,4.8325,4,3800,995,feet,jsons/v1_VE1000_randls_69.json,773141,1067589,31,Woman
43,614634,DepthScenes,duration_manipulation_targetAtFixation,jsons/v1_VE1000_randls_69.json,http://54.235.29.9/FacialAge/BNav_EC2/DepthDuration/v2_depth_duration_MTurk/v2_DepthDuration_HTML.html#108,108,1366,768,1366,768,8-22-2022,8-33-14,44,depth_duration_stimuli/003083_2014-06-15_15-21-03_094959634447_rgbf000063-resize_1/003083_2014-06-15_15-21-03_094959634447_rgbf000063-resize_1-target.png,1000,4.1405,5,3917,989,feet,jsons/v1_VE1000_randls_69.json,773141,1067589,31,Woman
44,614634,DepthScenes,duration_manipulation_targetAtFixation,jsons/v1_VE1000_randls_69.json,http://54.235.29.9/FacialAge/BNav_EC2/DepthDuration/v2_depth_duration_MTurk/v2_DepthDuration_HTML.html#108,108,1366,768,1366,768,8-22-2022,8-33-14,45,depth_duration_stimuli/000787_2014-06-08_22-33-53_260595134347_rgbf000175-resize_1/000787_2014-06-08_22-33-53_260595134347_rgbf000175-resize-original.jpg,1000,4.784,0,3756,994,feet,jsons/v1_VE1000_randls_69.json,773141,1067589,31,Woman
45,614634,DepthScenes,duration_manipulation_targetAtFixation,jsons/v1_VE1000_randls_69.json,http://54.235.29.9/FacialAge/BNav_EC2/DepthDuration/v2_depth_duration_MTurk/v2_DepthDuration_HTML.html#108,108,1366,768,1366,768,8-22-2022,8-33-14,46,depth_duration_stimuli/002630_2014-06-24_14-47-50_094959634447_rgbf000055-resize_1/002630_2014-06-24_14-47-50_094959634447_rgbf000055-resize_1-target.png,1000,3.0095,5,3560,999,feet,jsons/v1_VE1000_randls_69.json,773141,1067589,31,Woman
46,614634,DepthScenes,duration_manipulation_targetAtFixation,jsons/v1_VE1000_randls_69.json,http://54.235.29.9/FacialAge/BNav_EC2/DepthDuration/v2_depth_duration_MTurk/v2_DepthDuration_HTML.html#108,108,1366,768,1366,768,8-22-2022,8-33-14,47,depth_duration_stimuli/002758_2014-06-22_19-11-20_094959634447_rgbf000128-resize_1/002758_2014-06-22_19-11-20_094959634447_rgbf000128-resize_1-target.png,1000,2.555,3,4115,1000,feet,jsons/v1_VE1000_randls_69.json,773141,1067589,31,Woman
47,614634,DepthScenes,duration_manipulation_targetAtFixation,jsons/v1_VE1000_randls_69.json,http://54.235.29.9/FacialAge/BNav_EC2/DepthDuration/v2_depth_duration_MTurk/v2_DepthDuration_HTML.html#108,108,1366,768,1366,768,8-22-2022,8-33-14,48,depth_duration_stimuli/000692_2014-06-08_13-09-42_260595134347_rgbf000199-resize_2/000692_2014-06-08_13-09-42_260595134347_rgbf000199-resize_2-target.png,1000,3.661,7,4967,990,feet,jsons/v1_VE1000_randls_69.json,773141,1067589,31,Woman
48,614634,DepthScenes,duration_manipulation_targetAtFixation,jsons/v1_VE1000_randls_69.json,http://54.235.29.9/FacialAge/BNav_EC2/DepthDuration/v2_depth_duration_MTurk/v2_DepthDuration_HTML.html#108,108,1366,768,1366,768,8-22-2022,8-33-14,49,depth_duration_stimuli/001094_2014-06-15_17-36-00_260595134347_rgbf000205-resize_0/001094_2014-06-15_17-36-00_260595134347_rgbf000205-resize_0-target.png,1000,4.2175,5,4111,1005,feet,jsons/v1_VE1000_randls_69.json,773141,1067589,31,Woman
49,614634,DepthScenes,duration_manipulation_targetAtFixation,jsons/v1_VE1000_randls_69.json,http://54.235.29.9/FacialAge/BNav_EC2/DepthDuration/v2_depth_duration_MTurk/v2_DepthDuration_HTML.html#108,108,1366,768,1366,768,8-22-2022,8-33-14,50,depth_duration_stimuli/002784_2014-06-22_19-26-30_094959634447_rgbf000083-resize_3/002784_2014-06-22_19-26-30_094959634447_rgbf000083-resize_3-target.png,1000,1.8046666666667,2,3963,993,feet,jsons/v1_VE1000_randls_69.json,773141,1067589,31,Woman
50,614634,DepthScenes,duration_manipulation_targetAtFixation,jsons/v1_VE1000_randls_69.json,http://54.235.29.9/FacialAge/BNav_EC2/DepthDuration/v2_depth_duration_MTurk/v2_DepthDuration_HTML.html#108,108,1366,768,1366,768,8-22-2022,8-33-14,51,depth_duration_stimuli/001100_2014-06-15_17-46-26_260595134347_rgbf000225-resize_2/001100_2014-06-15_17-46-26_260595134347_rgbf000225-resize_2-target.png,1000,2.24,2,4643,994,feet,jsons/v1_VE1000_randls_69.json,773141,1067589,31,Woman
51,614634,DepthScenes,duration_manipulation_targetAtFixation,jsons/v1_VE1000_randls_69.json,http://54.235.29.9/FacialAge/BNav_EC2/DepthDuration/v2_depth_duration_MTurk/v2_DepthDuration_HTML.html#108,108,1366,768,1366,768,8-22-2022,8-33-14,52,depth_duration_stimuli/002570_2014-06-24_13-59-54_094959634447_rgbf000059-resize_0/002570_2014-06-24_13-59-54_094959634447_rgbf000059-resize_0-target.png,1000,4.037,4,4670,997,feet,jsons/v1_VE1000_randls_69.json,773141,1067589,31,Woman
52,614634,DepthScenes,duration_manipulation_targetAtFixation,jsons/v1_VE1000_randls_69.json,http://54.235.29.9/FacialAge/BNav_EC2/DepthDuration/v2_depth_duration_MTurk/v2_DepthDuration_HTML.html#108,108,1366,768,1366,768,8-22-2022,8-33-14,53,depth_duration_stimuli/002467_2014-06-28_20-38-07_260595134347_rgbf000026-resize_2/002467_2014-06-28_20-38-07_260595134347_rgbf000026-resize_2-target.png,1000,4.742,5,6997,998,feet,jsons/v1_VE1000_randls_69.json,773141,1067589,31,Woman
53,614634,DepthScenes,duration_manipulation_targetAtFixation,jsons/v1_VE1000_randls_69.json,http://54.235.29.9/FacialAge/BNav_EC2/DepthDuration/v2_depth_duration_MTurk/v2_DepthDuration_HTML.html#108,108,1366,768,1366,768,8-22-2022,8-33-14,54,depth_duration_stimuli/003070_2014-06-15_14-58-27_094959634447_rgbf000150-resize_3/003070_2014-06-15_14-58-27_094959634447_rgbf000150-resize_3-target.png,1000,2.9415,6,4641,999,feet,jsons/v1_VE1000_randls_69.json,773141,1067589,31,Woman
54,614634,DepthScenes,duration_manipulation_targetAtFixation,jsons/v1_VE1000_randls_69.json,http://54.235.29.9/FacialAge/BNav_EC2/DepthDuration/v2_depth_duration_MTurk/v2_DepthDuration_HTML.html#108,108,1366,768,1366,768,8-22-2022,8-33-14,55,depth_duration_stimuli/000943_2014-06-09_19-31-07_260595134347_rgbf000128-resize_1/000943_2014-06-09_19-31-07_260595134347_rgbf000128-resize_1-target.png,1000,1.9765,3,4229,996,feet,jsons/v1_VE1000_randls_69.json,773141,1067589,31,Woman
55,614634,DepthScenes,duration_manipulation_targetAtFixation,jsons/v1_VE1000_randls_69.json,http://54.235.29.9/FacialAge/BNav_EC2/DepthDuration/v2_depth_duration_MTurk/v2_DepthDuration_HTML.html#108,108,1366,768,1366,768,8-22-2022,8-33-14,56,depth_duration_stimuli/003621_2014-05-23_18-06-08_094959634447_rgbf000101-resize_1/003621_2014-05-23_18-06-08_094959634447_rgbf000101-resize_1-target.png,1000,3.9835,5,3695,1003,feet,jsons/v1_VE1000_randls_69.json,773141,1067589,31,Woman
56,614634,DepthScenes,duration_manipulation_targetAtFixation,jsons/v1_VE1000_randls_69.json,http://54.235.29.9/FacialAge/BNav_EC2/DepthDuration/v2_depth_duration_MTurk/v2_DepthDuration_HTML.html#108,108,1366,768,1366,768,8-22-2022,8-33-14,57,depth_duration_stimuli/001584_2014-06-20_11-07-43_260595134347_rgbf000002-resize_1/001584_2014-06-20_11-07-43_260595134347_rgbf000002-resize_1-target.png,1000,3.53,4,4168,1009,feet,jsons/v1_VE1000_randls_69.json,773141,1067589,31,Woman
57,614634,DepthScenes,duration_manipulation_targetAtFixation,jsons/v1_VE1000_randls_69.json,http://54.235.29.9/FacialAge/BNav_EC2/DepthDuration/v2_depth_duration_MTurk/v2_DepthDuration_HTML.html#108,108,1366,768,1366,768,8-22-2022,8-33-14,58,depth_duration_stimuli/001029_2014-06-08_13-17-57_260595134347_rgbf000065-resize_1/001029_2014-06-08_13-17-57_260595134347_rgbf000065-resize_1-target.png,1000,3.0835,3,4278,1000,feet,jsons/v1_VE1000_randls_69.json,773141,1067589,31,Woman
58,614634,DepthScenes,duration_manipulation_targetAtFixation,jsons/v1_VE1000_randls_69.json,http://54.235.29.9/FacialAge/BNav_EC2/DepthDuration/v2_depth_duration_MTurk/v2_DepthDuration_HTML.html#108,108,1366,768,1366,768,8-22-2022,8-33-14,59,depth_duration_stimuli/000677_2014-06-08_23-10-32_260595134347_rgbf000158-resize_6/000677_2014-06-08_23-10-32_260595134347_rgbf000158-resize_6-target.png,1000,3.556,5,4258,1015,feet,jsons/v1_VE1000_randls_69.json,773141,1067589,31,Woman
59,614634,DepthScenes,duration_manipulation_targetAtFixation,jsons/v1_VE1000_randls_69.json,http://54.235.29.9/FacialAge/BNav_EC2/DepthDuration/v2_depth_duration_MTurk/v2_DepthDuration_HTML.html#108,108,1366,768,1366,768,8-22-2022,8-33-14,60,depth_duration_stimuli/001066_2014-06-08_22-03-20_260595134347_rgbf000066-resize_4/001066_2014-06-08_22-03-20_260595134347_rgbf000066-resize_4-target.png,1000,4.2330000000000005,6,6403,1005,feet,jsons/v1_VE1000_randls_69.json,773141,1067589,31,Woman
60,614634,DepthScenes,duration_manipulation_targetAtFixation,jsons/v1_VE1000_randls_69.json,http://54.235.29.9/FacialAge/BNav_EC2/DepthDuration/v2_depth_duration_MTurk/v2_DepthDuration_HTML.html#108,108,1366,768,1366,768,8-22-2022,8-33-14,61,depth_duration_stimuli/000742_2014-06-08_18-48-09_260595134347_rgbf000164-resize_4/000742_2014-06-08_18-48-09_260595134347_rgbf000164-resize_4-target.png,1000,4.632,5,4044,999,feet,jsons/v1_VE1000_randls_69.json,773141,1067589,31,Woman
61,614634,DepthScenes,duration_manipulation_targetAtFixation,jsons/v1_VE1000_randls_69.json,http://54.235.29.9/FacialAge/BNav_EC2/DepthDuration/v2_depth_duration_MTurk/v2_DepthDuration_HTML.html#108,108,1366,768,1366,768,8-22-2022,8-33-14,62,depth_duration_stimuli/000493_2014-06-09_21-01-18_260595134347_rgbf000196-resize_3/000493_2014-06-09_21-01-18_260595134347_rgbf000196-resize_3-target.png,1000,3.44,4,3581,988,feet,jsons/v1_VE1000_randls_69.json,773141,1067589,31,Woman
62,614634,DepthScenes,duration_manipulation_targetAtFixation,jsons/v1_VE1000_randls_69.json,http://54.235.29.9/FacialAge/BNav_EC2/DepthDuration/v2_depth_duration_MTurk/v2_DepthDuration_HTML.html#108,108,1366,768,1366,768,8-22-2022,8-33-14,63,depth_duration_stimuli/000191_2014-05-12_17-07-38_260595134347_rgbf000199-resize_0/000191_2014-05-12_17-07-38_260595134347_rgbf000199-resize_0-target.png,1000,3.7995,5,3943,1014,feet,jsons/v1_VE1000_randls_69.json,773141,1067589,31,Woman
63,614634,DepthScenes,duration_manipulation_targetAtFixation,jsons/v1_VE1000_randls_69.json,http://54.235.29.9/FacialAge/BNav_EC2/DepthDuration/v2_depth_duration_MTurk/v2_DepthDuration_HTML.html#108,108,1366,768,1366,768,8-22-2022,8-33-14,64,depth_duration_stimuli/000788_2014-06-08_22-34-36_260595134347_rgbf000131-resize_1/000788_2014-06-08_22-34-36_260595134347_rgbf000131-resize_1-target.png,1000,3.359,4,3799,999,feet,jsons/v1_VE1000_randls_69.json,773141,1067589,31,Woman
64,614634,DepthScenes,duration_manipulation_targetAtFixation,jsons/v1_VE1000_randls_69.json,http://54.235.29.9/FacialAge/BNav_EC2/DepthDuration/v2_depth_duration_MTurk/v2_DepthDuration_HTML.html#108,108,1366,768,1366,768,8-22-2022,8-33-14,65,depth_duration_stimuli/001235_2014-06-17_16-37-36_260595134347_rgbf000084-resize_4/001235_2014-06-17_16-37-36_260595134347_rgbf000084-resize_4-target.png,1000,3.6605,4,5499,1001,feet,jsons/v1_VE1000_randls_69.json,773141,1067589,31,Woman
65,614634,DepthScenes,duration_manipulation_targetAtFixation,jsons/v1_VE1000_randls_69.json,http://54.235.29.9/FacialAge/BNav_EC2/DepthDuration/v2_depth_duration_MTurk/v2_DepthDuration_HTML.html#108,108,1366,768,1366,768,8-22-2022,8-33-14,66,depth_duration_stimuli/001222_2014-06-17_16-24-06_260595134347_rgbf000073-resize_0/001222_2014-06-17_16-24-06_260595134347_rgbf000073-resize-original.jpg,1000,1.4385,0,4238,996,feet,jsons/v1_VE1000_randls_69.json,773141,1067589,31,Woman
66,614634,DepthScenes,duration_manipulation_targetAtFixation,jsons/v1_VE1000_randls_69.json,http://54.235.29.9/FacialAge/BNav_EC2/DepthDuration/v2_depth_duration_MTurk/v2_DepthDuration_HTML.html#108,108,1366,768,1366,768,8-22-2022,8-33-14,67,depth_duration_stimuli/000522_2014-06-08_13-35-06_260595134347_rgbf000244-resize_1/000522_2014-06-08_13-35-06_260595134347_rgbf000244-resize_1-target.png,1000,2.3715,1,3726,989,feet,jsons/v1_VE1000_randls_69.json,773141,1067589,31,Woman
67,614634,DepthScenes,duration_manipulation_targetAtFixation,jsons/v1_VE1000_randls_69.json,http://54.235.29.9/FacialAge/BNav_EC2/DepthDuration/v2_depth_duration_MTurk/v2_DepthDuration_HTML.html#108,108,1366,768,1366,768,8-22-2022,8-33-14,68,depth_duration_stimuli/002949_2014-06-26_15-57-42_094959634447_rgbf000079-resize_1/002949_2014-06-26_15-57-42_094959634447_rgbf000079-resize_1-target.png,1000,1.8915,2,3752,1001,feet,jsons/v1_VE1000_randls_69.json,773141,1067589,31,Woman
68,614634,DepthScenes,duration_manipulation_targetAtFixation,jsons/v1_VE1000_randls_69.json,http://54.235.29.9/FacialAge/BNav_EC2/DepthDuration/v2_depth_duration_MTurk/v2_DepthDuration_HTML.html#108,108,1366,768,1366,768,8-22-2022,8-33-14,69,depth_duration_stimuli/002057_2014-06-24_21-00-13_260595134347_rgbf000120-resize_1/002057_2014-06-24_21-00-13_260595134347_rgbf000120-resize_1-target.png,1000,2.967,5,3984,1004,feet,jsons/v1_VE1000_randls_69.json,773141,1067589,31,Woman
69,614634,DepthScenes,duration_manipulation_targetAtFixation,jsons/v1_VE1000_randls_69.json,http://54.235.29.9/FacialAge/BNav_EC2/DepthDuration/v2_depth_duration_MTurk/v2_DepthDuration_HTML.html#108,108,1366,768,1366,768,8-22-2022,8-33-14,70,depth_duration_stimuli/000709_2014-06-08_13-51-55_260595134347_rgbf000068-resize_3/000709_2014-06-08_13-51-55_260595134347_rgbf000068-resize_3-target.png,1000,1.8030000000000002,2,4731,1014,feet,jsons/v1_VE1000_randls_69.json,773141,1067589,31,Woman
70,614634,DepthScenes,duration_manipulation_targetAtFixation,jsons/v1_VE1000_randls_69.json,http://54.235.29.9/FacialAge/BNav_EC2/DepthDuration/v2_depth_duration_MTurk/v2_DepthDuration_HTML.html#108,108,1366,768,1366,768,8-22-2022,8-33-14,71,depth_duration_stimuli/001449_2014-06-19_17-01-27_260595134347_rgbf000116-resize_2/001449_2014-06-19_17-01-27_260595134347_rgbf000116-resize_2-target.png,1000,3.452,5,3528,1008,feet,jsons/v1_VE1000_randls_69.json,773141,1067589,31,Woman
71,614634,DepthScenes,duration_manipulation_targetAtFixation,jsons/v1_VE1000_randls_69.json,http://54.235.29.9/FacialAge/BNav_EC2/DepthDuration/v2_depth_duration_MTurk/v2_DepthDuration_HTML.html#108,108,1366,768,1366,768,8-22-2022,8-33-14,72,depth_duration_stimuli/001450_2014-06-19_17-02-03_260595134347_rgbf000203-resize_4/001450_2014-06-19_17-02-03_260595134347_rgbf000203-resize_4-target.png,1000,4.0106666666667,6,3608,1011,feet,jsons/v1_VE1000_randls_69.json,773141,1067589,31,Woman
72,614634,DepthScenes,duration_manipulation_targetAtFixation,jsons/v1_VE1000_randls_69.json,http://54.235.29.9/FacialAge/BNav_EC2/DepthDuration/v2_depth_duration_MTurk/v2_DepthDuration_HTML.html#108,108,1366,768,1366,768,8-22-2022,8-33-14,73,depth_duration_stimuli/000642_2014-06-08_16-59-25_260595134347_rgbf000098-resize_2/000642_2014-06-08_16-59-25_260595134347_rgbf000098-resize_2-target.png,1000,2.8815,4,3603,1010,feet,jsons/v1_VE1000_randls_69.json,773141,1067589,31,Woman
73,614634,DepthScenes,duration_manipulation_targetAtFixation,jsons/v1_VE1000_randls_69.json,http://54.235.29.9/FacialAge/BNav_EC2/DepthDuration/v2_depth_duration_MTurk/v2_DepthDuration_HTML.html#108,108,1366,768,1366,768,8-22-2022,8-33-14,74,depth_duration_stimuli/002425_2014-06-28_20-27-29_260595134347_rgbf000031-resize_8/002425_2014-06-28_20-27-29_260595134347_rgbf000031-resize_8-target.png,1000,3.8960000000000004,5,3553,999,feet,jsons/v1_VE1000_randls_69.json,773141,1067589,31,Woman
74,614634,DepthScenes,duration_manipulation_targetAtFixation,jsons/v1_VE1000_randls_69.json,http://54.235.29.9/FacialAge/BNav_EC2/DepthDuration/v2_depth_duration_MTurk/v2_DepthDuration_HTML.html#108,108,1366,768,1366,768,8-22-2022,8-33-14,75,depth_duration_stimuli/002375_2014-06-28_20-13-44_260595134347_rgbf000032-resize_1/002375_2014-06-28_20-13-44_260595134347_rgbf000032-resize_1-target.png,1000,4.0175,4,3536,1009,feet,jsons/v1_VE1000_randls_69.json,773141,1067589,31,Woman
75,614634,DepthScenes,duration_manipulation_targetAtFixation,jsons/v1_VE1000_randls_69.json,http://54.235.29.9/FacialAge/BNav_EC2/DepthDuration/v2_depth_duration_MTurk/v2_DepthDuration_HTML.html#108,108,1366,768,1366,768,8-22-2022,8-33-14,76,depth_duration_stimuli/002657_2014-06-13_15-29-54_094959634447_rgbf000150-resize_1/002657_2014-06-13_15-29-54_094959634447_rgbf000150-resize_1-target.png,1000,4.919,4,4256,999,feet,jsons/v1_VE1000_randls_69.json,773141,1067589,31,Woman
76,614634,DepthScenes,duration_manipulation_targetAtFixation,jsons/v1_VE1000_randls_69.json,http://54.235.29.9/FacialAge/BNav_EC2/DepthDuration/v2_depth_duration_MTurk/v2_DepthDuration_HTML.html#108,108,1366,768,1366,768,8-22-2022,8-33-14,77,depth_duration_stimuli/001175_2014-06-17_15-45-55_260595134347_rgbf000129-resize_4/001175_2014-06-17_15-45-55_260595134347_rgbf000129-resize_4-target.png,1000,4.255,5,4208,1010,feet,jsons/v1_VE1000_randls_69.json,773141,1067589,31,Woman
77,614634,DepthScenes,duration_manipulation_targetAtFixation,jsons/v1_VE1000_randls_69.json,http://54.235.29.9/FacialAge/BNav_EC2/DepthDuration/v2_depth_duration_MTurk/v2_DepthDuration_HTML.html#108,108,1366,768,1366,768,8-22-2022,8-33-14,78,depth_duration_stimuli/003490_2014-05-21_15-50-11_094959634447_rgbf000101-resize_3/003490_2014-05-21_15-50-11_094959634447_rgbf000101-resize_3-target.png,1000,3.6445,5,3661,1000,feet,jsons/v1_VE1000_randls_69.json,773141,1067589,31,Woman
78,614634,DepthScenes,duration_manipulation_targetAtFixation,jsons/v1_VE1000_randls_69.json,http://54.235.29.9/FacialAge/BNav_EC2/DepthDuration/v2_depth_duration_MTurk/v2_DepthDuration_HTML.html#108,108,1366,768,1366,768,8-22-2022,8-33-14,79,depth_duration_stimuli/001056_2014-06-08_18-46-44_260595134347_rgbf000068-resize_0/001056_2014-06-08_18-46-44_260595134347_rgbf000068-resize_0-target.png,1000,2.6625,4,3731,1014,feet,jsons/v1_VE1000_randls_69.json,773141,1067589,31,Woman
79,614634,DepthScenes,duration_manipulation_targetAtFixation,jsons/v1_VE1000_randls_69.json,http://54.235.29.9/FacialAge/BNav_EC2/DepthDuration/v2_depth_duration_MTurk/v2_DepthDuration_HTML.html#108,108,1366,768,1366,768,8-22-2022,8-33-14,80,depth_duration_stimuli/002199_2014-06-28_18-33-56_260595134347_rgbf000074-resize_0/002199_2014-06-28_18-33-56_260595134347_rgbf000074-resize_0-target.png,1000,1.996,1,3448,996,feet,jsons/v1_VE1000_randls_69.json,773141,1067589,31,Woman
80,614634,DepthScenes,duration_manipulation_targetAtFixation,jsons/v1_VE1000_randls_69.json,http://54.235.29.9/FacialAge/BNav_EC2/DepthDuration/v2_depth_duration_MTurk/v2_DepthDuration_HTML.html#108,108,1366,768,1366,768,8-22-2022,8-33-14,81,depth_duration_stimuli/000739_2014-06-08_18-45-58_260595134347_rgbf000068-resize_1/000739_2014-06-08_18-45-58_260595134347_rgbf000068-resize_1-target.png,1000,3.534,4,3462,987,feet,jsons/v1_VE1000_randls_69.json,773141,1067589,31,Woman
81,614634,DepthScenes,duration_manipulation_targetAtFixation,jsons/v1_VE1000_randls_69.json,http://54.235.29.9/FacialAge/BNav_EC2/DepthDuration/v2_depth_duration_MTurk/v2_DepthDuration_HTML.html#108,108,1366,768,1366,768,8-22-2022,8-33-14,82,depth_duration_stimuli/000734_2014-06-08_17-39-11_260595134347_rgbf000128-resize_2/000734_2014-06-08_17-39-11_260595134347_rgbf000128-resize_2-target.png,1000,4.098,4,4072,1007,feet,jsons/v1_VE1000_randls_69.json,773141,1067589,31,Woman
82,614634,DepthScenes,duration_manipulation_targetAtFixation,jsons/v1_VE1000_randls_69.json,http://54.235.29.9/FacialAge/BNav_EC2/DepthDuration/v2_depth_duration_MTurk/v2_DepthDuration_HTML.html#108,108,1366,768,1366,768,8-22-2022,8-33-14,83,depth_duration_stimuli/001059_2014-06-08_21-53-27_260595134347_rgbf000061-resize_4/001059_2014-06-08_21-53-27_260595134347_rgbf000061-resize_4-target.png,1000,2.4185,3,3545,1013,feet,jsons/v1_VE1000_randls_69.json,773141,1067589,31,Woman
83,614634,DepthScenes,duration_manipulation_targetAtFixation,jsons/v1_VE1000_randls_69.json,http://54.235.29.9/FacialAge/BNav_EC2/DepthDuration/v2_depth_duration_MTurk/v2_DepthDuration_HTML.html#108,108,1366,768,1366,768,8-22-2022,8-33-14,84,depth_duration_stimuli/001032_2014-06-08_13-23-17_260595134347_rgbf000021-resize_3/001032_2014-06-08_13-23-17_260595134347_rgbf000021-resize_3-target.png,1000,3.2725,3,3248,1007,feet,jsons/v1_VE1000_randls_69.json,773141,1067589,31,Woman
84,614634,DepthScenes,duration_manipulation_targetAtFixation,jsons/v1_VE1000_randls_69.json,http://54.235.29.9/FacialAge/BNav_EC2/DepthDuration/v2_depth_duration_MTurk/v2_DepthDuration_HTML.html#108,108,1366,768,1366,768,8-22-2022,8-33-14,85,depth_duration_stimuli/002763_2014-06-22_19-13-10_094959634447_rgbf000075-resize_4/002763_2014-06-22_19-13-10_094959634447_rgbf000075-resize_4-target.png,1000,1.68375,2,3661,991,feet,jsons/v1_VE1000_randls_69.json,773141,1067589,31,Woman
85,614634,DepthScenes,duration_manipulation_targetAtFixation,jsons/v1_VE1000_randls_69.json,http://54.235.29.9/FacialAge/BNav_EC2/DepthDuration/v2_depth_duration_MTurk/v2_DepthDuration_HTML.html#108,108,1366,768,1366,768,8-22-2022,8-33-14,86,depth_duration_stimuli/002209_2014-06-28_18-36-10_260595134347_rgbf000051-resize_1/002209_2014-06-28_18-36-10_260595134347_rgbf000051-resize_1-target.png,1000,2.057,3,4127,1006,feet,jsons/v1_VE1000_randls_69.json,773141,1067589,31,Woman
86,614634,DepthScenes,duration_manipulation_targetAtFixation,jsons/v1_VE1000_randls_69.json,http://54.235.29.9/FacialAge/BNav_EC2/DepthDuration/v2_depth_duration_MTurk/v2_DepthDuration_HTML.html#108,108,1366,768,1366,768,8-22-2022,8-33-14,87,depth_duration_stimuli/001055_2014-06-08_18-45-35_260595134347_rgbf000111-resize_4/001055_2014-06-08_18-45-35_260595134347_rgbf000111-resize_4-target.png,1000,2.4290000000000003,6,4337,1002,feet,jsons/v1_VE1000_randls_69.json,773141,1067589,31,Woman
87,614634,DepthScenes,duration_manipulation_targetAtFixation,jsons/v1_VE1000_randls_69.json,http://54.235.29.9/FacialAge/BNav_EC2/DepthDuration/v2_depth_duration_MTurk/v2_DepthDuration_HTML.html#108,108,1366,768,1366,768,8-22-2022,8-33-14,88,depth_duration_stimuli/000549_2014-06-08_22-10-24_260595134347_rgbf000247-resize_3/000549_2014-06-08_22-10-24_260595134347_rgbf000247-resize_3-target.png,1000,1.841,2,3574,1002,feet,jsons/v1_VE1000_randls_69.json,773141,1067589,31,Woman
88,614634,DepthScenes,duration_manipulation_targetAtFixation,jsons/v1_VE1000_randls_69.json,http://54.235.29.9/FacialAge/BNav_EC2/DepthDuration/v2_depth_duration_MTurk/v2_DepthDuration_HTML.html#108,108,1366,768,1366,768,8-22-2022,8-33-14,89,depth_duration_stimuli/000682_2014-06-08_23-14-58_260595134347_rgbf000041-resize_5/000682_2014-06-08_23-14-58_260595134347_rgbf000041-resize_5-target.png,1000,2.7239999999999998,4,3695,1005,feet,jsons/v1_VE1000_randls_69.json,773141,1067589,31,Woman
89,614634,DepthScenes,duration_manipulation_targetAtFixation,jsons/v1_VE1000_randls_69.json,http://54.235.29.9/FacialAge/BNav_EC2/DepthDuration/v2_depth_duration_MTurk/v2_DepthDuration_HTML.html#108,108,1366,768,1366,768,8-22-2022,8-33-14,90,depth_duration_stimuli/001650_2014-06-20_12-09-00_260595134347_rgbf000087-resize_3/001650_2014-06-20_12-09-00_260595134347_rgbf000087-resize_3-target.png,1000,1.9505,1,4672,990,feet,jsons/v1_VE1000_randls_69.json,773141,1067589,31,Woman
90,614634,DepthScenes,duration_manipulation_targetAtFixation,jsons/v1_VE1000_randls_69.json,http://54.235.29.9/FacialAge/BNav_EC2/DepthDuration/v2_depth_duration_MTurk/v2_DepthDuration_HTML.html#108,108,1366,768,1366,768,8-22-2022,8-33-14,91,depth_duration_stimuli/001164_2014-06-17_15-35-46_260595134347_rgbf000085-resize_3/001164_2014-06-17_15-35-46_260595134347_rgbf000085-resize_3-target.png,1000,2.354,3,4557,1005,feet,jsons/v1_VE1000_randls_69.json,773141,1067589,31,Woman
91,614634,DepthScenes,duration_manipulation_targetAtFixation,jsons/v1_VE1000_randls_69.json,http://54.235.29.9/FacialAge/BNav_EC2/DepthDuration/v2_depth_duration_MTurk/v2_DepthDuration_HTML.html#108,108,1366,768,1366,768,8-22-2022,8-33-14,92,depth_duration_stimuli/001136_2014-06-17_15-19-41_260595134347_rgbf000076-resize_3/001136_2014-06-17_15-19-41_260595134347_rgbf000076-resize_3-target.png,1000,1.8655,2,3301,1012,feet,jsons/v1_VE1000_randls_69.json,773141,1067589,31,Woman
92,614634,DepthScenes,duration_manipulation_targetAtFixation,jsons/v1_VE1000_randls_69.json,http://54.235.29.9/FacialAge/BNav_EC2/DepthDuration/v2_depth_duration_MTurk/v2_DepthDuration_HTML.html#108,108,1366,768,1366,768,8-22-2022,8-33-14,93,depth_duration_stimuli/000436_2014-06-09_22-25-11_260595134347_rgbf000137-resize_1/000436_2014-06-09_22-25-11_260595134347_rgbf000137-resize_1-target.png,1000,4.0705,7,4481,999,feet,jsons/v1_VE1000_randls_69.json,773141,1067589,31,Woman
93,614634,DepthScenes,duration_manipulation_targetAtFixation,jsons/v1_VE1000_randls_69.json,http://54.235.29.9/FacialAge/BNav_EC2/DepthDuration/v2_depth_duration_MTurk/v2_DepthDuration_HTML.html#108,108,1366,768,1366,768,8-22-2022,8-33-14,94,depth_duration_stimuli/002444_2014-06-28_20-32-08_260595134347_rgbf000027-resize_0/002444_2014-06-28_20-32-08_260595134347_rgbf000027-resize_0-target.png,1000,4.388999999999999,6,4264,999,feet,jsons/v1_VE1000_randls_69.json,773141,1067589,31,Woman
94,614634,DepthScenes,duration_manipulation_targetAtFixation,jsons/v1_VE1000_randls_69.json,http://54.235.29.9/FacialAge/BNav_EC2/DepthDuration/v2_depth_duration_MTurk/v2_DepthDuration_HTML.html#108,108,1366,768,1366,768,8-22-2022,8-33-14,95,depth_duration_stimuli/000470_2014-06-09_19-42-40_260595134347_rgbf000094-resize_1/000470_2014-06-09_19-42-40_260595134347_rgbf000094-resize_1-target.png,1000,1.831,2,3923,987,feet,jsons/v1_VE1000_randls_69.json,773141,1067589,31,Woman
95,614634,DepthScenes,duration_manipulation_targetAtFixation,jsons/v1_VE1000_randls_69.json,http://54.235.29.9/FacialAge/BNav_EC2/DepthDuration/v2_depth_duration_MTurk/v2_DepthDuration_HTML.html#108,108,1366,768,1366,768,8-22-2022,8-33-14,96,depth_duration_stimuli/000109_2014-05-14_23-41-52_260595134347_rgbf000035-resize_9/000109_2014-05-14_23-41-52_260595134347_rgbf000035-resize_9-target.png,1000,1.3545,2,3883,986,feet,jsons/v1_VE1000_randls_69.json,773141,1067589,31,Woman
96,614634,DepthScenes,duration_manipulation_targetAtFixation,jsons/v1_VE1000_randls_69.json,http://54.235.29.9/FacialAge/BNav_EC2/DepthDuration/v2_depth_duration_MTurk/v2_DepthDuration_HTML.html#108,108,1366,768,1366,768,8-22-2022,8-33-14,97,depth_duration_stimuli/000758_2014-06-08_22-05-08_260595134347_rgbf000085-resize_0/000758_2014-06-08_22-05-08_260595134347_rgbf000085-resize_0-target.png,1000,3.3810000000000002,4,4182,988,feet,jsons/v1_VE1000_randls_69.json,773141,1067589,31,Woman
97,614634,DepthScenes,duration_manipulation_targetAtFixation,jsons/v1_VE1000_randls_69.json,http://54.235.29.9/FacialAge/BNav_EC2/DepthDuration/v2_depth_duration_MTurk/v2_DepthDuration_HTML.html#108,108,1366,768,1366,768,8-22-2022,8-33-14,98,depth_duration_stimuli/000854_2014-06-09_19-43-13_260595134347_rgbf000066-resize_0/000854_2014-06-09_19-43-13_260595134347_rgbf000066-resize_0-target.png,1000,3.068,2,3816,998,feet,jsons/v1_VE1000_randls_69.json,773141,1067589,31,Woman
98,614634,DepthScenes,duration_manipulation_targetAtFixation,jsons/v1_VE1000_randls_69.json,http://54.235.29.9/FacialAge/BNav_EC2/DepthDuration/v2_depth_duration_MTurk/v2_DepthDuration_HTML.html#108,108,1366,768,1366,768,8-22-2022,8-33-14,99,depth_duration_stimuli/001540_2014-06-20_17-01-05_260595134347_rgbf000086-resize_2/001540_2014-06-20_17-01-05_260595134347_rgbf000086-resize-original.jpg,1000,1.459,0,3881,1004,feet,jsons/v1_VE1000_randls_69.json,773141,1067589,31,Woman
99,614634,DepthScenes,duration_manipulation_targetAtFixation,jsons/v1_VE1000_randls_69.json,http://54.235.29.9/FacialAge/BNav_EC2/DepthDuration/v2_depth_duration_MTurk/v2_DepthDuration_HTML.html#108,108,1366,768,1366,768,8-22-2022,8-33-14,100,depth_duration_stimuli/003492_2014-05-21_15-50-55_094959634447_rgbf000828-resize_1/003492_2014-05-21_15-50-55_094959634447_rgbf000828-resize_1-target.png,1000,4.06875,6,4104,1021,feet,jsons/v1_VE1000_randls_69.json,773141,1067589,31,Woman
100,614634,DepthScenes,duration_manipulation_targetAtFixation,jsons/v1_VE1000_randls_69.json,http://54.235.29.9/FacialAge/BNav_EC2/DepthDuration/v2_depth_duration_MTurk/v2_DepthDuration_HTML.html#108,108,1366,768,1366,768,8-22-2022,8-33-14,101,depth_duration_stimuli/002568_2014-06-24_13-59-21_094959634447_rgbf000062-resize_4/002568_2014-06-24_13-59-21_094959634447_rgbf000062-resize_4-target.png,1000,3.015,4,4523,1027,feet,jsons/v1_VE1000_randls_69.json,773141,1067589,31,Woman
101,614634,DepthScenes,duration_manipulation_targetAtFixation,jsons/v1_VE1000_randls_69.json,http://54.235.29.9/FacialAge/BNav_EC2/DepthDuration/v2_depth_duration_MTurk/v2_DepthDuration_HTML.html#108,108,1366,768,1366,768,8-22-2022,8-33-14,102,depth_duration_stimuli/001810_2014-06-26_20-51-35_260595134347_rgbf000040-resize_3/001810_2014-06-26_20-51-35_260595134347_rgbf000040-resize_3-target.png,1000,2.2525,2,3560,1011,feet,jsons/v1_VE1000_randls_69.json,773141,1067589,31,Woman
102,614634,DepthScenes,duration_manipulation_targetAtFixation,jsons/v1_VE1000_randls_69.json,http://54.235.29.9/FacialAge/BNav_EC2/DepthDuration/v2_depth_duration_MTurk/v2_DepthDuration_HTML.html#108,108,1366,768,1366,768,8-22-2022,8-33-14,103,depth_duration_stimuli/003010_2014-06-15_12-54-35_094959634447_rgbf000112-resize_0/003010_2014-06-15_12-54-35_094959634447_rgbf000112-resize_0-target.png,1000,3.1185,6,3896,998,feet,jsons/v1_VE1000_randls_69.json,773141,1067589,31,Woman
103,614634,DepthScenes,duration_manipulation_targetAtFixation,jsons/v1_VE1000_randls_69.json,http://54.235.29.9/FacialAge/BNav_EC2/DepthDuration/v2_depth_duration_MTurk/v2_DepthDuration_HTML.html#108,108,1366,768,1366,768,8-22-2022,8-33-14,104,depth_duration_stimuli/001158_2014-06-17_15-32-16_260595134347_rgbf000138-resize_2/001158_2014-06-17_15-32-16_260595134347_rgbf000138-resize_2-target.png,1000,4.5315,7,4617,1006,feet,jsons/v1_VE1000_randls_69.json,773141,1067589,31,Woman
104,614634,DepthScenes,duration_manipulation_targetAtFixation,jsons/v1_VE1000_randls_69.json,http://54.235.29.9/FacialAge/BNav_EC2/DepthDuration/v2_depth_duration_MTurk/v2_DepthDuration_HTML.html#108,108,1366,768,1366,768,8-22-2022,8-33-14,105,depth_duration_stimuli/000556_2014-06-09_22-42-56_260595134347_rgbf000214-resize_1/000556_2014-06-09_22-42-56_260595134347_rgbf000214-resize_1-target.png,1000,4.8415,7,3794,999,feet,jsons/v1_VE1000_randls_69.json,773141,1067589,31,Woman
105,614634,DepthScenes,duration_manipulation_targetAtFixation,jsons/v1_VE1000_randls_69.json,http://54.235.29.9/FacialAge/BNav_EC2/DepthDuration/v2_depth_duration_MTurk/v2_DepthDuration_HTML.html#108,108,1366,768,1366,768,8-22-2022,8-33-14,106,depth_duration_stimuli/000810_2014-06-08_17-20-01_260595134347_rgbf000105-resize_0/000810_2014-06-08_17-20-01_260595134347_rgbf000105-resize_0-target.png,1000,1.4865,4,6253,992,feet,jsons/v1_VE1000_randls_69.json,773141,1067589,31,Woman
106,614634,DepthScenes,duration_manipulation_targetAtFixation,jsons/v1_VE1000_randls_69.json,http://54.235.29.9/FacialAge/BNav_EC2/DepthDuration/v2_depth_duration_MTurk/v2_DepthDuration_HTML.html#108,108,1366,768,1366,768,8-22-2022,8-33-14,107,depth_duration_stimuli/001214_2014-06-17_16-13-55_260595134347_rgbf000111-resize_0/001214_2014-06-17_16-13-55_260595134347_rgbf000111-resize_0-target.png,1000,2.6505,3,3841,1012,feet,jsons/v1_VE1000_randls_69.json,773141,1067589,31,Woman
107,614634,DepthScenes,duration_manipulation_targetAtFixation,jsons/v1_VE1000_randls_69.json,http://54.235.29.9/FacialAge/BNav_EC2/DepthDuration/v2_depth_duration_MTurk/v2_DepthDuration_HTML.html#108,108,1366,768,1366,768,8-22-2022,8-33-14,108,depth_duration_stimuli/002600_2014-06-24_14-27-04_094959634447_rgbf000074-resize_2/002600_2014-06-24_14-27-04_094959634447_rgbf000074-resize_2-target.png,1000,2.7575,3,3523,996,feet,jsons/v1_VE1000_randls_69.json,773141,1067589,31,Woman
108,614634,DepthScenes,duration_manipulation_targetAtFixation,jsons/v1_VE1000_randls_69.json,http://54.235.29.9/FacialAge/BNav_EC2/DepthDuration/v2_depth_duration_MTurk/v2_DepthDuration_HTML.html#108,108,1366,768,1366,768,8-22-2022,8-33-14,109,depth_duration_stimuli/003228_2014-05-14_13-42-35_094959634447_rgbf000101-resize_1/003228_2014-05-14_13-42-35_094959634447_rgbf000101-resize_1-target.png,1000,1.9680000000000002,2,3393,1019,feet,jsons/v1_VE1000_randls_69.json,773141,1067589,31,Woman
109,614634,DepthScenes,duration_manipulation_targetAtFixation,jsons/v1_VE1000_randls_69.json,http://54.235.29.9/FacialAge/BNav_EC2/DepthDuration/v2_depth_duration_MTurk/v2_DepthDuration_HTML.html#108,108,1366,768,1366,768,8-22-2022,8-33-14,110,depth_duration_stimuli/001570_2014-06-20_17-21-09_260595134347_rgbf000135-resize_4/001570_2014-06-20_17-21-09_260595134347_rgbf000135-resize_4-target.png,1000,4.467,6,7510,1002,feet,jsons/v1_VE1000_randls_69.json,773141,1067589,31,Woman
110,614634,DepthScenes,duration_manipulation_targetAtFixation,jsons/v1_VE1000_randls_69.json,http://54.235.29.9/FacialAge/BNav_EC2/DepthDuration/v2_depth_duration_MTurk/v2_DepthDuration_HTML.html#108,108,1366,768,1366,768,8-22-2022,8-33-14,111,depth_duration_stimuli/001392_2014-06-19_16-07-59_260595134347_rgbf000046-resize_1/001392_2014-06-19_16-07-59_260595134347_rgbf000046-resize_1-target.png,1000,4.135,5,3787,1000,feet,jsons/v1_VE1000_randls_69.json,773141,1067589,31,Woman
111,614634,DepthScenes,duration_manipulation_targetAtFixation,jsons/v1_VE1000_randls_69.json,http://54.235.29.9/FacialAge/BNav_EC2/DepthDuration/v2_depth_duration_MTurk/v2_DepthDuration_HTML.html#108,108,1366,768,1366,768,8-22-2022,8-33-14,112,depth_duration_stimuli/000368_2014-06-09_15-53-01_260595134347_rgbf000155-resize_2/000368_2014-06-09_15-53-01_260595134347_rgbf000155-resize_2-target.png,1000,2.4859999999999998,3,5146,999,feet,jsons/v1_VE1000_randls_69.json,773141,1067589,31,Woman
112,614634,DepthScenes,duration_manipulation_targetAtFixation,jsons/v1_VE1000_randls_69.json,http://54.235.29.9/FacialAge/BNav_EC2/DepthDuration/v2_depth_duration_MTurk/v2_DepthDuration_HTML.html#108,108,1366,768,1366,768,8-22-2022,8-33-14,113,depth_duration_stimuli/002678_2014-06-13_16-15-32_094959634447_rgbf000151-resize_6/002678_2014-06-13_16-15-32_094959634447_rgbf000151-resize_6-target.png,1000,2.1830000000000003,5,4819,999,feet,jsons/v1_VE1000_randls_69.json,773141,1067589,31,Woman
113,614634,DepthScenes,duration_manipulation_targetAtFixation,jsons/v1_VE1000_randls_69.json,http://54.235.29.9/FacialAge/BNav_EC2/DepthDuration/v2_depth_duration_MTurk/v2_DepthDuration_HTML.html#108,108,1366,768,1366,768,8-22-2022,8-33-14,114,depth_duration_stimuli/001150_2014-06-17_15-27-34_260595134347_rgbf000108-resize_2/001150_2014-06-17_15-27-34_260595134347_rgbf000108-resize_2-target.png,1000,4.0325,5,4048,1002,feet,jsons/v1_VE1000_randls_69.json,773141,1067589,31,Woman
114,614634,DepthScenes,duration_manipulation_targetAtFixation,jsons/v1_VE1000_randls_69.json,http://54.235.29.9/FacialAge/BNav_EC2/DepthDuration/v2_depth_duration_MTurk/v2_DepthDuration_HTML.html#108,108,1366,768,1366,768,8-22-2022,8-33-14,115,depth_duration_stimuli/000665_2014-06-09_20-42-35_260595134347_rgbf000110-resize_1/000665_2014-06-09_20-42-35_260595134347_rgbf000110-resize_1-target.png,1000,3.057,4,3661,1000,feet,jsons/v1_VE1000_randls_69.json,773141,1067589,31,Woman
115,614634,DepthScenes,duration_manipulation_targetAtFixation,jsons/v1_VE1000_randls_69.json,http://54.235.29.9/FacialAge/BNav_EC2/DepthDuration/v2_depth_duration_MTurk/v2_DepthDuration_HTML.html#108,108,1366,768,1366,768,8-22-2022,8-33-14,116,depth_duration_stimuli/001170_2014-06-17_15-43-44_260595134347_rgbf000096-resize_6/001170_2014-06-17_15-43-44_260595134347_rgbf000096-resize-original.jpg,1000,1.1909999999999998,0,3974,993,feet,jsons/v1_VE1000_randls_69.json,773141,1067589,31,Woman
116,614634,DepthScenes,duration_manipulation_targetAtFixation,jsons/v1_VE1000_randls_69.json,http://54.235.29.9/FacialAge/BNav_EC2/DepthDuration/v2_depth_duration_MTurk/v2_DepthDuration_HTML.html#108,108,1366,768,1366,768,8-22-2022,8-33-14,117,depth_duration_stimuli/002725_2014-06-22_11-47-51_094959634447_rgbf000070-resize_1/002725_2014-06-22_11-47-51_094959634447_rgbf000070-resize_1-target.png,1000,2.195,3,3960,1000,feet,jsons/v1_VE1000_randls_69.json,773141,1067589,31,Woman
117,614634,DepthScenes,duration_manipulation_targetAtFixation,jsons/v1_VE1000_randls_69.json,http://54.235.29.9/FacialAge/BNav_EC2/DepthDuration/v2_depth_duration_MTurk/v2_DepthDuration_HTML.html#108,108,1366,768,1366,768,8-22-2022,8-33-14,118,depth_duration_stimuli/002344_2014-06-28_20-06-29_260595134347_rgbf000030-resize_1/002344_2014-06-28_20-06-29_260595134347_rgbf000030-resize_1-target.png,1000,1.5795,1,3849,994,feet,jsons/v1_VE1000_randls_69.json,773141,1067589,31,Woman
118,614634,DepthScenes,duration_manipulation_targetAtFixation,jsons/v1_VE1000_randls_69.json,http://54.235.29.9/FacialAge/BNav_EC2/DepthDuration/v2_depth_duration_MTurk/v2_DepthDuration_HTML.html#108,108,1366,768,1366,768,8-22-2022,8-33-14,119,depth_duration_stimuli/002509_2014-06-24_13-19-22_094959634447_rgbf000077-resize_0/002509_2014-06-24_13-19-22_094959634447_rgbf000077-resize_0-target.png,1000,1.3065,1,3978,1000,feet,jsons/v1_VE1000_randls_69.json,773141,1067589,31,Woman
119,614634,DepthScenes,duration_manipulation_targetAtFixation,jsons/v1_VE1000_randls_69.json,http://54.235.29.9/FacialAge/BNav_EC2/DepthDuration/v2_depth_duration_MTurk/v2_DepthDuration_HTML.html#108,108,1366,768,1366,768,8-22-2022,8-33-14,120,depth_duration_stimuli/003338_2014-05-20_11-01-23_094959634447_rgbf000051-resize_6/003338_2014-05-20_11-01-23_094959634447_rgbf000051-resize_6-target.png,1000,1.693,2,3736,1001,feet,jsons/v1_VE1000_randls_69.json,773141,1067589,31,Woman
120,614634,DepthScenes,duration_manipulation_targetAtFixation,jsons/v1_VE1000_randls_69.json,http://54.235.29.9/FacialAge/BNav_EC2/DepthDuration/v2_depth_duration_MTurk/v2_DepthDuration_HTML.html#108,108,1366,768,1366,768,8-22-2022,8-33-14,121,depth_duration_stimuli/002039_2014-06-24_20-22-38_260595134347_rgbf000084-resize_1/002039_2014-06-24_20-22-38_260595134347_rgbf000084-resize_1-target.png,1000,4.408,6,4190,997,feet,jsons/v1_VE1000_randls_69.json,773141,1067589,31,Woman
121,614634,DepthScenes,duration_manipulation_targetAtFixation,jsons/v1_VE1000_randls_69.json,http://54.235.29.9/FacialAge/BNav_EC2/DepthDuration/v2_depth_duration_MTurk/v2_DepthDuration_HTML.html#108,108,1366,768,1366,768,8-22-2022,8-33-14,122,depth_duration_stimuli/002103_2014-06-25_20-00-40_260595134347_rgbf000049-resize_0/002103_2014-06-25_20-00-40_260595134347_rgbf000049-resize_0-target.png,1000,4.105,6,4662,1001,feet,jsons/v1_VE1000_randls_69.json,773141,1067589,31,Woman
122,614634,DepthScenes,duration_manipulation_targetAtFixation,jsons/v1_VE1000_randls_69.json,http://54.235.29.9/FacialAge/BNav_EC2/DepthDuration/v2_depth_duration_MTurk/v2_DepthDuration_HTML.html#108,108,1366,768,1366,768,8-22-2022,8-33-14,123,depth_duration_stimuli/000929_2014-06-09_16-33-19_260595134347_rgbf000139-resize_0/000929_2014-06-09_16-33-19_260595134347_rgbf000139-resize_0-target.png,1000,2.8680000000000003,4,3946,1009,feet,jsons/v1_VE1000_randls_69.json,773141,1067589,31,Woman
123,614634,DepthScenes,duration_manipulation_targetAtFixation,jsons/v1_VE1000_randls_69.json,http://54.235.29.9/FacialAge/BNav_EC2/DepthDuration/v2_depth_duration_MTurk/v2_DepthDuration_HTML.html#108,108,1366,768,1366,768,8-22-2022,8-33-14,124,depth_duration_stimuli/000457_2014-06-08_16-52-43_260595134347_rgbf000199-resize_1/000457_2014-06-08_16-52-43_260595134347_rgbf000199-resize_1-target.png,1000,3.6489999999999996,5,8174,999,feet,jsons/v1_VE1000_randls_69.json,773141,1067589,31,Woman
124,614634,DepthScenes,duration_manipulation_targetAtFixation,jsons/v1_VE1000_randls_69.json,http://54.235.29.9/FacialAge/BNav_EC2/DepthDuration/v2_depth_duration_MTurk/v2_DepthDuration_HTML.html#108,108,1366,768,1366,768,8-22-2022,8-33-14,125,depth_duration_stimuli/000506_2014-06-08_23-21-00_260595134347_rgbf000070-resize_7/000506_2014-06-08_23-21-00_260595134347_rgbf000070-resize_7-target.png,1000,4.0585,4,3845,1000,feet,jsons/v1_VE1000_randls_69.json,773141,1067589,31,Woman
125,614634,DepthScenes,duration_manipulation_targetAtFixation,jsons/v1_VE1000_randls_69.json,http://54.235.29.9/FacialAge/BNav_EC2/DepthDuration/v2_depth_duration_MTurk/v2_DepthDuration_HTML.html#108,108,1366,768,1366,768,8-22-2022,8-33-14,126,depth_duration_stimuli/003079_2014-06-15_15-18-20_094959634447_rgbf000152-resize_8/003079_2014-06-15_15-18-20_094959634447_rgbf000152-resize_8-target.png,1000,2.8775,5,4242,984,feet,jsons/v1_VE1000_randls_69.json,773141,1067589,31,Woman
126,614634,DepthScenes,duration_manipulation_targetAtFixation,jsons/v1_VE1000_randls_69.json,http://54.235.29.9/FacialAge/BNav_EC2/DepthDuration/v2_depth_duration_MTurk/v2_DepthDuration_HTML.html#108,108,1366,768,1366,768,8-22-2022,8-33-14,127,depth_duration_stimuli/000469_2014-06-09_19-42-10_260595134347_rgbf000081-resize_1/000469_2014-06-09_19-42-10_260595134347_rgbf000081-resize_1-target.png,1000,1.652,3,5399,1002,feet,jsons/v1_VE1000_randls_69.json,773141,1067589,31,Woman
127,614634,DepthScenes,duration_manipulation_targetAtFixation,jsons/v1_VE1000_randls_69.json,http://54.235.29.9/FacialAge/BNav_EC2/DepthDuration/v2_depth_duration_MTurk/v2_DepthDuration_HTML.html#108,108,1366,768,1366,768,8-22-2022,8-33-14,128,depth_duration_stimuli/000483_2014-06-09_20-41-45_260595134347_rgbf000116-resize_4/000483_2014-06-09_20-41-45_260595134347_rgbf000116-resize_4-target.png,1000,1.337,1,4043,1000,feet,jsons/v1_VE1000_randls_69.json,773141,1067589,31,Woman
128,614634,DepthScenes,duration_manipulation_targetAtFixation,jsons/v1_VE1000_randls_69.json,http://54.235.29.9/FacialAge/BNav_EC2/DepthDuration/v2_depth_duration_MTurk/v2_DepthDuration_HTML.html#108,108,1366,768,1366,768,8-22-2022,8-33-14,129,depth_duration_stimuli/000773_2014-06-08_22-24-54_260595134347_rgbf000093-resize_1/000773_2014-06-08_22-24-54_260595134347_rgbf000093-resize_1-target.png,1000,4.973,5,4171,990,feet,jsons/v1_VE1000_randls_69.json,773141,1067589,31,Woman
129,614634,DepthScenes,duration_manipulation_targetAtFixation,jsons/v1_VE1000_randls_69.json,http://54.235.29.9/FacialAge/BNav_EC2/DepthDuration/v2_depth_duration_MTurk/v2_DepthDuration_HTML.html#108,108,1366,768,1366,768,8-22-2022,8-33-14,130,depth_duration_stimuli/002414_2014-06-28_20-24-58_260595134347_rgbf000067-resize_4/002414_2014-06-28_20-24-58_260595134347_rgbf000067-resize_4-target.png,1000,4.363,6,4804,1002,feet,jsons/v1_VE1000_randls_69.json,773141,1067589,31,Woman
130,614634,DepthScenes,duration_manipulation_targetAtFixation,jsons/v1_VE1000_randls_69.json,http://54.235.29.9/FacialAge/BNav_EC2/DepthDuration/v2_depth_duration_MTurk/v2_DepthDuration_HTML.html#108,108,1366,768,1366,768,8-22-2022,8-33-14,131,depth_duration_stimuli/001016_2014-06-09_16-16-10_260595134347_rgbf000112-resize_5/001016_2014-06-09_16-16-10_260595134347_rgbf000112-resize_5-target.png,1000,1.6565,3,3865,1000,feet,jsons/v1_VE1000_randls_69.json,773141,1067589,31,Woman
131,614634,DepthScenes,duration_manipulation_targetAtFixation,jsons/v1_VE1000_randls_69.json,http://54.235.29.9/FacialAge/BNav_EC2/DepthDuration/v2_depth_duration_MTurk/v2_DepthDuration_HTML.html#108,108,1366,768,1366,768,8-22-2022,8-33-14,132,depth_duration_stimuli/002340_2014-06-28_20-05-46_260595134347_rgbf000113-resize_0/002340_2014-06-28_20-05-46_260595134347_rgbf000113-resize_0-target.png,1000,2.4735,5,4787,999,feet,jsons/v1_VE1000_randls_69.json,773141,1067589,31,Woman
132,614634,DepthScenes,duration_manipulation_targetAtFixation,jsons/v1_VE1000_randls_69.json,http://54.235.29.9/FacialAge/BNav_EC2/DepthDuration/v2_depth_duration_MTurk/v2_DepthDuration_HTML.html#108,108,1366,768,1366,768,8-22-2022,8-33-14,133,depth_duration_stimuli/002905_2014-06-03_18-04-43_094959634447_rgbf000151-resize_2/002905_2014-06-03_18-04-43_094959634447_rgbf000151-resize_2-target.png,1000,2.0295,3,4056,1000,feet,jsons/v1_VE1000_randls_69.json,773141,1067589,31,Woman
133,614634,DepthScenes,duration_manipulation_targetAtFixation,jsons/v1_VE1000_randls_69.json,http://54.235.29.9/FacialAge/BNav_EC2/DepthDuration/v2_depth_duration_MTurk/v2_DepthDuration_HTML.html#108,108,1366,768,1366,768,8-22-2022,8-33-14,134,depth_duration_stimuli/003423_2014-05-21_10-23-26_094959634447_rgbf002665-resize_2/003423_2014-05-21_10-23-26_094959634447_rgbf002665-resize_2-target.png,1000,3.2575,5,4684,995,feet,jsons/v1_VE1000_randls_69.json,773141,1067589,31,Woman
134,614634,DepthScenes,duration_manipulation_targetAtFixation,jsons/v1_VE1000_randls_69.json,http://54.235.29.9/FacialAge/BNav_EC2/DepthDuration/v2_depth_duration_MTurk/v2_DepthDuration_HTML.html#108,108,1366,768,1366,768,8-22-2022,8-33-14,135,depth_duration_stimuli/002072_2014-06-24_21-48-06_260595134347_rgbf000115-resize_0/002072_2014-06-24_21-48-06_260595134347_rgbf000115-resize-original.jpg,1000,4.702,0,4143,982,feet,jsons/v1_VE1000_randls_69.json,773141,1067589,31,Woman
135,614634,DepthScenes,duration_manipulation_targetAtFixation,jsons/v1_VE1000_randls_69.json,http://54.235.29.9/FacialAge/BNav_EC2/DepthDuration/v2_depth_duration_MTurk/v2_DepthDuration_HTML.html#108,108,1366,768,1366,768,8-22-2022,8-33-14,136,depth_duration_stimuli/001417_2014-06-19_16-25-36_260595134347_rgbf000115-resize_5/001417_2014-06-19_16-25-36_260595134347_rgbf000115-resize_5-target.png,1000,4.6255,5,3529,1000,feet,jsons/v1_VE1000_randls_69.json,773141,1067589,31,Woman
136,614634,DepthScenes,duration_manipulation_targetAtFixation,jsons/v1_VE1000_randls_69.json,http://54.235.29.9/FacialAge/BNav_EC2/DepthDuration/v2_depth_duration_MTurk/v2_DepthDuration_HTML.html#108,108,1366,768,1366,768,8-22-2022,8-33-14,137,depth_duration_stimuli/003081_2014-06-15_15-19-16_094959634447_rgbf000150-resize_1/003081_2014-06-15_15-19-16_094959634447_rgbf000150-resize_1-target.png,1000,3.9125,6,4353,1009,feet,jsons/v1_VE1000_randls_69.json,773141,1067589,31,Woman
137,614634,DepthScenes,duration_manipulation_targetAtFixation,jsons/v1_VE1000_randls_69.json,http://54.235.29.9/FacialAge/BNav_EC2/DepthDuration/v2_depth_duration_MTurk/v2_DepthDuration_HTML.html#108,108,1366,768,1366,768,8-22-2022,8-33-14,138,depth_duration_stimuli/001133_2014-06-17_14-49-16_260595134347_rgbf000100-resize_0/001133_2014-06-17_14-49-16_260595134347_rgbf000100-resize_0-target.png,1000,4.2115,5,3569,999,feet,jsons/v1_VE1000_randls_69.json,773141,1067589,31,Woman
138,614634,DepthScenes,duration_manipulation_targetAtFixation,jsons/v1_VE1000_randls_69.json,http://54.235.29.9/FacialAge/BNav_EC2/DepthDuration/v2_depth_duration_MTurk/v2_DepthDuration_HTML.html#108,108,1366,768,1366,768,8-22-2022,8-33-14,139,depth_duration_stimuli/001132_2014-06-17_14-48-54_260595134347_rgbf000100-resize_2/001132_2014-06-17_14-48-54_260595134347_rgbf000100-resize_2-target.png,1000,3.753,6,4858,1007,feet,jsons/v1_VE1000_randls_69.json,773141,1067589,31,Woman
139,614634,DepthScenes,duration_manipulation_targetAtFixation,jsons/v1_VE1000_randls_69.json,http://54.235.29.9/FacialAge/BNav_EC2/DepthDuration/v2_depth_duration_MTurk/v2_DepthDuration_HTML.html#108,108,1366,768,1366,768,8-22-2022,8-33-14,140,depth_duration_stimuli/003292_2014-05-14_21-53-49_094959634447_rgbf000100-resize_2/003292_2014-05-14_21-53-49_094959634447_rgbf000100-resize_2-target.png,1000,3.4815,4,3724,1001,feet,jsons/v1_VE1000_randls_69.json,773141,1067589,31,Woman
140,614634,DepthScenes,duration_manipulation_targetAtFixation,jsons/v1_VE1000_randls_69.json,http://54.235.29.9/FacialAge/BNav_EC2/DepthDuration/v2_depth_duration_MTurk/v2_DepthDuration_HTML.html#108,108,1366,768,1366,768,8-22-2022,8-33-14,141,depth_duration_stimuli/002639_2014-06-24_14-51-37_094959634447_rgbf000074-resize_4/002639_2014-06-24_14-51-37_094959634447_rgbf000074-resize_4-target.png,1000,4.0375,6,4475,1004,feet,jsons/v1_VE1000_randls_69.json,773141,1067589,31,Woman
141,614634,DepthScenes,duration_manipulation_targetAtFixation,jsons/v1_VE1000_randls_69.json,http://54.235.29.9/FacialAge/BNav_EC2/DepthDuration/v2_depth_duration_MTurk/v2_DepthDuration_HTML.html#108,108,1366,768,1366,768,8-22-2022,8-33-14,142,depth_duration_stimuli/000736_2014-06-08_18-24-15_260595134347_rgbf000206-resize_3/000736_2014-06-08_18-24-15_260595134347_rgbf000206-resize_3-target.png,1000,3.515,6,4725,1006,feet,jsons/v1_VE1000_randls_69.json,773141,1067589,31,Woman
142,614634,DepthScenes,duration_manipulation_targetAtFixation,jsons/v1_VE1000_randls_69.json,http://54.235.29.9/FacialAge/BNav_EC2/DepthDuration/v2_depth_duration_MTurk/v2_DepthDuration_HTML.html#108,108,1366,768,1366,768,8-22-2022,8-33-14,143,depth_duration_stimuli/000137_2014-05-20_17-04-49_260595134347_rgbf000120-resize_1/000137_2014-05-20_17-04-49_260595134347_rgbf000120-resize_1-target.png,1000,3.786,5,5834,1013,feet,jsons/v1_VE1000_randls_69.json,773141,1067589,31,Woman
143,614634,DepthScenes,duration_manipulation_targetAtFixation,jsons/v1_VE1000_randls_69.json,http://54.235.29.9/FacialAge/BNav_EC2/DepthDuration/v2_depth_duration_MTurk/v2_DepthDuration_HTML.html#108,108,1366,768,1366,768,8-22-2022,8-33-14,144,depth_duration_stimuli/002043_2014-06-24_20-29-38_260595134347_rgbf000039-resize_4/002043_2014-06-24_20-29-38_260595134347_rgbf000039-resize_4-target.png,1000,2.8435,6,6127,985,feet,jsons/v1_VE1000_randls_69.json,773141,1067589,31,Woman
144,614634,DepthScenes,duration_manipulation_targetAtFixation,jsons/v1_VE1000_randls_69.json,http://54.235.29.9/FacialAge/BNav_EC2/DepthDuration/v2_depth_duration_MTurk/v2_DepthDuration_HTML.html#108,108,1366,768,1366,768,8-22-2022,8-33-14,145,depth_duration_stimuli/003048_2014-06-15_13-49-43_094959634447_rgbf000150-resize_1/003048_2014-06-15_13-49-43_094959634447_rgbf000150-resize_1-target.png,1000,4.0035,6,4594,1001,feet,jsons/v1_VE1000_randls_69.json,773141,1067589,31,Woman
145,614634,DepthScenes,duration_manipulation_targetAtFixation,jsons/v1_VE1000_randls_69.json,http://54.235.29.9/FacialAge/BNav_EC2/DepthDuration/v2_depth_duration_MTurk/v2_DepthDuration_HTML.html#108,108,1366,768,1366,768,8-22-2022,8-33-14,146,depth_duration_stimuli/001498_2014-06-19_17-45-14_260595134347_rgbf000129-resize_4/001498_2014-06-19_17-45-14_260595134347_rgbf000129-resize-original.jpg,1000,1.4075,4,4543,994,feet,jsons/v1_VE1000_randls_69.json,773141,1067589,31,Woman
146,614634,DepthScenes,duration_manipulation_targetAtFixation,jsons/v1_VE1000_randls_69.json,http://54.235.29.9/FacialAge/BNav_EC2/DepthDuration/v2_depth_duration_MTurk/v2_DepthDuration_HTML.html#108,108,1366,768,1366,768,8-22-2022,8-33-14,147,depth_duration_stimuli/002788_2014-06-22_19-36-03_094959634447_rgbf000088-resize_2/002788_2014-06-22_19-36-03_094959634447_rgbf000088-resize_2-target.png,1000,1.6465,5,4682,976,feet,jsons/v1_VE1000_randls_69.json,773141,1067589,31,Woman
147,614634,DepthScenes,duration_manipulation_targetAtFixation,jsons/v1_VE1000_randls_69.json,http://54.235.29.9/FacialAge/BNav_EC2/DepthDuration/v2_depth_duration_MTurk/v2_DepthDuration_HTML.html#108,108,1366,768,1366,768,8-22-2022,8-33-14,148,depth_duration_stimuli/000749_2014-06-08_21-55-06_260595134347_rgbf000070-resize_2/000749_2014-06-08_21-55-06_260595134347_rgbf000070-resize_2-target.png,1000,2.331,5,5802,1005,feet,jsons/v1_VE1000_randls_69.json,773141,1067589,31,Woman
148,614634,DepthScenes,duration_manipulation_targetAtFixation,jsons/v1_VE1000_randls_69.json,http://54.235.29.9/FacialAge/BNav_EC2/DepthDuration/v2_depth_duration_MTurk/v2_DepthDuration_HTML.html#108,108,1366,768,1366,768,8-22-2022,8-33-14,149,depth_duration_stimuli/002663_2014-06-13_15-50-26_094959634447_rgbf000075-resize_1/002663_2014-06-13_15-50-26_094959634447_rgbf000075-resize_1-target.png,1000,4.7495,8,3495,999,feet,jsons/v1_VE1000_randls_69.json,773141,1067589,31,Woman
149,614634,DepthScenes,duration_manipulation_targetAtFixation,jsons/v1_VE1000_randls_69.json,http://54.235.29.9/FacialAge/BNav_EC2/DepthDuration/v2_depth_duration_MTurk/v2_DepthDuration_HTML.html#108,108,1366,768,1366,768,8-22-2022,8-33-14,150,depth_duration_stimuli/000409_2014-06-04_19-23-33_260595134347_rgbf000067-resize_0/000409_2014-06-04_19-23-33_260595134347_rgbf000067-resize_0-target.png,1000,3.7335,5,3647,1013,feet,jsons/v1_VE1000_randls_69.json,773141,1067589,31,Woman
150,614634,DepthScenes,duration_manipulation_targetAtFixation,jsons/v1_VE1000_randls_69.json,http://54.235.29.9/FacialAge/BNav_EC2/DepthDuration/v2_depth_duration_MTurk/v2_DepthDuration_HTML.html#108,108,1366,768,1366,768,8-22-2022,8-33-14,151,depth_duration_stimuli/003534_2014-05-22_15-06-10_094959634447_rgbf000102-resize_4/003534_2014-05-22_15-06-10_094959634447_rgbf000102-resize_4-target.png,1000,1.426,1,3890,1010,feet,jsons/v1_VE1000_randls_69.json,773141,1067589,31,Woman
151,614634,DepthScenes,duration_manipulation_targetAtFixation,jsons/v1_VE1000_randls_69.json,http://54.235.29.9/FacialAge/BNav_EC2/DepthDuration/v2_depth_duration_MTurk/v2_DepthDuration_HTML.html#108,108,1366,768,1366,768,8-22-2022,8-33-14,152,depth_duration_stimuli/002637_2014-06-24_14-51-13_094959634447_rgbf000066-resize_4/002637_2014-06-24_14-51-13_094959634447_rgbf000066-resize_4-target.png,1000,1.9955,3,3639,1010,feet,jsons/v1_VE1000_randls_69.json,773141,1067589,31,Woman
152,614634,DepthScenes,duration_manipulation_targetAtFixation,jsons/v1_VE1000_randls_69.json,http://54.235.29.9/FacialAge/BNav_EC2/DepthDuration/v2_depth_duration_MTurk/v2_DepthDuration_HTML.html#108,108,1366,768,1366,768,8-22-2022,8-33-14,153,depth_duration_stimuli/001167_2014-06-17_15-38-07_260595134347_rgbf000108-resize_0/001167_2014-06-17_15-38-07_260595134347_rgbf000108-resize_0-target.png,1000,1.8505,2,3817,1014,feet,jsons/v1_VE1000_randls_69.json,773141,1067589,31,Woman
153,614634,DepthScenes,duration_manipulation_targetAtFixation,jsons/v1_VE1000_randls_69.json,http://54.235.29.9/FacialAge/BNav_EC2/DepthDuration/v2_depth_duration_MTurk/v2_DepthDuration_HTML.html#108,108,1366,768,1366,768,8-22-2022,8-33-14,154,depth_duration_stimuli/003587_2014-05-23_16-48-02_094959634447_rgbf002384-resize_2/003587_2014-05-23_16-48-02_094959634447_rgbf002384-resize_2-target.png,1000,1.357,1,3520,1006,feet,jsons/v1_VE1000_randls_69.json,773141,1067589,31,Woman
154,614634,DepthScenes,duration_manipulation_targetAtFixation,jsons/v1_VE1000_randls_69.json,http://54.235.29.9/FacialAge/BNav_EC2/DepthDuration/v2_depth_duration_MTurk/v2_DepthDuration_HTML.html#108,108,1366,768,1366,768,8-22-2022,8-33-14,155,depth_duration_stimuli/000414_2014-06-04_19-49-13_260595134347_rgbf000044-resize_0/000414_2014-06-04_19-49-13_260595134347_rgbf000044-resize_0-target.png,1000,4.329,7,4327,1006,feet,jsons/v1_VE1000_randls_69.json,773141,1067589,31,Woman
155,614634,DepthScenes,duration_manipulation_targetAtFixation,jsons/v1_VE1000_randls_69.json,http://54.235.29.9/FacialAge/BNav_EC2/DepthDuration/v2_depth_duration_MTurk/v2_DepthDuration_HTML.html#108,108,1366,768,1366,768,8-22-2022,8-33-14,156,depth_duration_stimuli/003129_2014-05-12_10-48-10_094959634447_rgbf000100-resize_0/003129_2014-05-12_10-48-10_094959634447_rgbf000100-resize_0-target.png,1000,4.9305,7,4058,1004,feet,jsons/v1_VE1000_randls_69.json,773141,1067589,31,Woman
156,614634,DepthScenes,duration_manipulation_targetAtFixation,jsons/v1_VE1000_randls_69.json,http://54.235.29.9/FacialAge/BNav_EC2/DepthDuration/v2_depth_duration_MTurk/v2_DepthDuration_HTML.html#108,108,1366,768,1366,768,8-22-2022,8-33-14,157,depth_duration_stimuli/001199_2014-06-17_16-03-48_260595134347_rgbf000077-resize_0/001199_2014-06-17_16-03-48_260595134347_rgbf000077-resize_0-target.png,1000,3.4375,6,5450,1000,feet,jsons/v1_VE1000_randls_69.json,773141,1067589,31,Woman
157,614634,DepthScenes,duration_manipulation_targetAtFixation,jsons/v1_VE1000_randls_69.json,http://54.235.29.9/FacialAge/BNav_EC2/DepthDuration/v2_depth_duration_MTurk/v2_DepthDuration_HTML.html#108,108,1366,768,1366,768,8-22-2022,8-33-14,158,depth_duration_stimuli/000502_2014-06-08_23-02-32_260595134347_rgbf000063-resize_4/000502_2014-06-08_23-02-32_260595134347_rgbf000063-resize_4-target.png,1000,2.431,3,4202,999,feet,jsons/v1_VE1000_randls_69.json,773141,1067589,31,Woman
158,614634,DepthScenes,duration_manipulation_targetAtFixation,jsons/v1_VE1000_randls_69.json,http://54.235.29.9/FacialAge/BNav_EC2/DepthDuration/v2_depth_duration_MTurk/v2_DepthDuration_HTML.html#108,108,1366,768,1366,768,8-22-2022,8-33-14,159,depth_duration_stimuli/000447_2014-06-08_16-15-46_260595134347_rgbf000130-resize_1/000447_2014-06-08_16-15-46_260595134347_rgbf000130-resize_1-target.png,1000,4.479,7,3977,991,feet,jsons/v1_VE1000_randls_69.json,773141,1067589,31,Woman
159,614634,DepthScenes,duration_manipulation_targetAtFixation,jsons/v1_VE1000_randls_69.json,http://54.235.29.9/FacialAge/BNav_EC2/DepthDuration/v2_depth_duration_MTurk/v2_DepthDuration_HTML.html#108,108,1366,768,1366,768,8-22-2022,8-33-14,160,depth_duration_stimuli/001447_2014-06-19_17-00-32_260595134347_rgbf000082-resize_5/001447_2014-06-19_17-00-32_260595134347_rgbf000082-resize_5-target.png,1000,4.13775,3,4078,1002,feet,jsons/v1_VE1000_randls_69.json,773141,1067589,31,Woman
160,614634,DepthScenes,duration_manipulation_targetAtFixation,jsons/v1_VE1000_randls_69.json,http://54.235.29.9/FacialAge/BNav_EC2/DepthDuration/v2_depth_duration_MTurk/v2_DepthDuration_HTML.html#108,108,1366,768,1366,768,8-22-2022,8-33-14,161,depth_duration_stimuli/002213_2014-06-28_18-37-58_260595134347_rgbf000055-resize_1/002213_2014-06-28_18-37-58_260595134347_rgbf000055-resize_1-target.png,1000,3.62,7,4028,1001,feet,jsons/v1_VE1000_randls_69.json,773141,1067589,31,Woman
161,614634,DepthScenes,duration_manipulation_targetAtFixation,jsons/v1_VE1000_randls_69.json,http://54.235.29.9/FacialAge/BNav_EC2/DepthDuration/v2_depth_duration_MTurk/v2_DepthDuration_HTML.html#108,108,1366,768,1366,768,8-22-2022,8-33-14,162,depth_duration_stimuli/000691_2014-06-08_13-08-50_260595134347_rgbf000132-resize_3/000691_2014-06-08_13-08-50_260595134347_rgbf000132-resize_3-target.png,1000,4.1530000000000005,7,6444,1001,feet,jsons/v1_VE1000_randls_69.json,773141,1067589,31,Woman
162,614634,DepthScenes,duration_manipulation_targetAtFixation,jsons/v1_VE1000_randls_69.json,http://54.235.29.9/FacialAge/BNav_EC2/DepthDuration/v2_depth_duration_MTurk/v2_DepthDuration_HTML.html#108,108,1366,768,1366,768,8-22-2022,8-33-14,163,depth_duration_stimuli/002445_2014-06-28_20-32-16_260595134347_rgbf000029-resize_4/002445_2014-06-28_20-32-16_260595134347_rgbf000029-resize_4-target.png,1000,2.5315,4,5637,1000,feet,jsons/v1_VE1000_randls_69.json,773141,1067589,31,Woman
163,614634,DepthScenes,duration_manipulation_targetAtFixation,jsons/v1_VE1000_randls_69.json,http://54.235.29.9/FacialAge/BNav_EC2/DepthDuration/v2_depth_duration_MTurk/v2_DepthDuration_HTML.html#108,108,1366,768,1366,768,8-22-2022,8-33-14,164,depth_duration_stimuli/000780_2014-06-08_22-28-29_260595134347_rgbf000126-resize_1/000780_2014-06-08_22-28-29_260595134347_rgbf000126-resize_1-target.png,1000,3.3825,6,3765,1000,feet,jsons/v1_VE1000_randls_69.json,773141,1067589,31,Woman
