,subjID,experimentName,versionName,sequenceName,url,selected_row,windowWidth,windowHeight,screenWidth,screenHeight,startDate,startTime,trial,stimulus,duration,actual_depth,depth_estimate,trial_RT,log_sceneDuration,unitSelection,seq_filepath,experimentTime,totalTime,age,gender
0,617019,DepthScenes,duration_manipulation_targetAtFixation,jsons/v1_VE250_randls_16.json,http://54.235.29.9/FacialAge/BNav_EC2/DepthDuration/v2_depth_duration_MTurk/v2_DepthDuration_HTML.html#129,129,1280,601,1280,720,8-20-2022,9-38-38,1,depth_duration_stimuli/002748_2014-06-22_19-07-22_094959634447_rgbf000078-resize_1/002748_2014-06-22_19-07-22_094959634447_rgbf000078-resize_1-target.png,250,4.6705,12,5598,242,feet,jsons/v1_VE250_randls_16.json,738975,1134496,36,Man
1,617019,DepthScenes,duration_manipulation_targetAtFixation,jsons/v1_VE250_randls_16.json,http://54.235.29.9/FacialAge/BNav_EC2/DepthDuration/v2_depth_duration_MTurk/v2_DepthDuration_HTML.html#129,129,1280,601,1280,720,8-20-2022,9-38-38,2,depth_duration_stimuli/002995_2014-06-15_12-31-26_094959634447_rgbf000150-resize_1/002995_2014-06-15_12-31-26_094959634447_rgbf000150-resize_1-target.png,250,3.8360000000000003,10,4768,241,feet,jsons/v1_VE250_randls_16.json,738975,1134496,36,Man
2,617019,DepthScenes,duration_manipulation_targetAtFixation,jsons/v1_VE250_randls_16.json,http://54.235.29.9/FacialAge/BNav_EC2/DepthDuration/v2_depth_duration_MTurk/v2_DepthDuration_HTML.html#129,129,1280,601,1280,720,8-20-2022,9-38-38,3,depth_duration_stimuli/002663_2014-06-13_15-50-26_094959634447_rgbf000075-resize_1/002663_2014-06-13_15-50-26_094959634447_rgbf000075-resize_1-target.png,250,4.7495,12,2790,254,feet,jsons/v1_VE250_randls_16.json,738975,1134496,36,Man
3,617019,DepthScenes,duration_manipulation_targetAtFixation,jsons/v1_VE250_randls_16.json,http://54.235.29.9/FacialAge/BNav_EC2/DepthDuration/v2_depth_duration_MTurk/v2_DepthDuration_HTML.html#129,129,1280,601,1280,720,8-20-2022,9-38-38,4,depth_duration_stimuli/000409_2014-06-04_19-23-33_260595134347_rgbf000067-resize_0/000409_2014-06-04_19-23-33_260595134347_rgbf000067-resize_0-target.png,250,3.7335,8,3457,256,feet,jsons/v1_VE250_randls_16.json,738975,1134496,36,Man
4,617019,DepthScenes,duration_manipulation_targetAtFixation,jsons/v1_VE250_randls_16.json,http://54.235.29.9/FacialAge/BNav_EC2/DepthDuration/v2_depth_duration_MTurk/v2_DepthDuration_HTML.html#129,129,1280,601,1280,720,8-20-2022,9-38-38,5,depth_duration_stimuli/000758_2014-06-08_22-05-08_260595134347_rgbf000085-resize_0/000758_2014-06-08_22-05-08_260595134347_rgbf000085-resize_0-target.png,250,3.3810000000000002,10,3928,252,feet,jsons/v1_VE250_randls_16.json,738975,1134496,36,Man
5,617019,DepthScenes,duration_manipulation_targetAtFixation,jsons/v1_VE250_randls_16.json,http://54.235.29.9/FacialAge/BNav_EC2/DepthDuration/v2_depth_duration_MTurk/v2_DepthDuration_HTML.html#129,129,1280,601,1280,720,8-20-2022,9-38-38,6,depth_duration_stimuli/000854_2014-06-09_19-43-13_260595134347_rgbf000066-resize_0/000854_2014-06-09_19-43-13_260595134347_rgbf000066-resize_0-target.png,250,3.068,4,9740,243,feet,jsons/v1_VE250_randls_16.json,738975,1134496,36,Man
6,617019,DepthScenes,duration_manipulation_targetAtFixation,jsons/v1_VE250_randls_16.json,http://54.235.29.9/FacialAge/BNav_EC2/DepthDuration/v2_depth_duration_MTurk/v2_DepthDuration_HTML.html#129,129,1280,601,1280,720,8-20-2022,9-38-38,7,depth_duration_stimuli/000009_2014-05-26_14-32-05_260595134347_rgbf000034-resize_3/000009_2014-05-26_14-32-05_260595134347_rgbf000034-resize_3-target.png,250,3.8715,12,4247,241,feet,jsons/v1_VE250_randls_16.json,738975,1134496,36,Man
7,617019,DepthScenes,duration_manipulation_targetAtFixation,jsons/v1_VE250_randls_16.json,http://54.235.29.9/FacialAge/BNav_EC2/DepthDuration/v2_depth_duration_MTurk/v2_DepthDuration_HTML.html#129,129,1280,601,1280,720,8-20-2022,9-38-38,8,depth_duration_stimuli/001828_2014-06-26_21-40-03_260595134347_rgbf000024-resize_0/001828_2014-06-26_21-40-03_260595134347_rgbf000024-resize_0-target.png,250,4.8260000000000005,12,2631,244,feet,jsons/v1_VE250_randls_16.json,738975,1134496,36,Man
8,617019,DepthScenes,duration_manipulation_targetAtFixation,jsons/v1_VE250_randls_16.json,http://54.235.29.9/FacialAge/BNav_EC2/DepthDuration/v2_depth_duration_MTurk/v2_DepthDuration_HTML.html#129,129,1280,601,1280,720,8-20-2022,9-38-38,9,depth_duration_stimuli/002213_2014-06-28_18-37-58_260595134347_rgbf000055-resize_1/002213_2014-06-28_18-37-58_260595134347_rgbf000055-resize_1-target.png,250,3.62,12,3073,251,feet,jsons/v1_VE250_randls_16.json,738975,1134496,36,Man
9,617019,DepthScenes,duration_manipulation_targetAtFixation,jsons/v1_VE250_randls_16.json,http://54.235.29.9/FacialAge/BNav_EC2/DepthDuration/v2_depth_duration_MTurk/v2_DepthDuration_HTML.html#129,129,1280,601,1280,720,8-20-2022,9-38-38,10,depth_duration_stimuli/000691_2014-06-08_13-08-50_260595134347_rgbf000132-resize_3/000691_2014-06-08_13-08-50_260595134347_rgbf000132-resize_3-target.png,250,4.1530000000000005,9,4032,244,feet,jsons/v1_VE250_randls_16.json,738975,1134496,36,Man
10,617019,DepthScenes,duration_manipulation_targetAtFixation,jsons/v1_VE250_randls_16.json,http://54.235.29.9/FacialAge/BNav_EC2/DepthDuration/v2_depth_duration_MTurk/v2_DepthDuration_HTML.html#129,129,1280,601,1280,720,8-20-2022,9-38-38,11,depth_duration_stimuli/000506_2014-06-08_23-21-00_260595134347_rgbf000070-resize_7/000506_2014-06-08_23-21-00_260595134347_rgbf000070-resize_7-target.png,250,4.0585,9,3310,254,feet,jsons/v1_VE250_randls_16.json,738975,1134496,36,Man
11,617019,DepthScenes,duration_manipulation_targetAtFixation,jsons/v1_VE250_randls_16.json,http://54.235.29.9/FacialAge/BNav_EC2/DepthDuration/v2_depth_duration_MTurk/v2_DepthDuration_HTML.html#129,129,1280,601,1280,720,8-20-2022,9-38-38,12,depth_duration_stimuli/003079_2014-06-15_15-18-20_094959634447_rgbf000152-resize_8/003079_2014-06-15_15-18-20_094959634447_rgbf000152-resize_8-target.png,250,2.8775,11,3518,263,feet,jsons/v1_VE250_randls_16.json,738975,1134496,36,Man
12,617019,DepthScenes,duration_manipulation_targetAtFixation,jsons/v1_VE250_randls_16.json,http://54.235.29.9/FacialAge/BNav_EC2/DepthDuration/v2_depth_duration_MTurk/v2_DepthDuration_HTML.html#129,129,1280,601,1280,720,8-20-2022,9-38-38,13,depth_duration_stimuli/000569_2014-06-09_22-51-47_260595134347_rgbf000141-resize_3/000569_2014-06-09_22-51-47_260595134347_rgbf000141-resize-original.jpg,250,4.512,0,4422,241,feet,jsons/v1_VE250_randls_16.json,738975,1134496,36,Man
13,617019,DepthScenes,duration_manipulation_targetAtFixation,jsons/v1_VE250_randls_16.json,http://54.235.29.9/FacialAge/BNav_EC2/DepthDuration/v2_depth_duration_MTurk/v2_DepthDuration_HTML.html#129,129,1280,601,1280,720,8-20-2022,9-38-38,14,depth_duration_stimuli/001110_2014-06-15_17-25-28_260595134347_rgbf000150-resize_1/001110_2014-06-15_17-25-28_260595134347_rgbf000150-resize_1-target.png,250,1.7115,7,14916,232,feet,jsons/v1_VE250_randls_16.json,738975,1134496,36,Man
14,617019,DepthScenes,duration_manipulation_targetAtFixation,jsons/v1_VE250_randls_16.json,http://54.235.29.9/FacialAge/BNav_EC2/DepthDuration/v2_depth_duration_MTurk/v2_DepthDuration_HTML.html#129,129,1280,601,1280,720,8-20-2022,9-38-38,15,depth_duration_stimuli/000927_2014-06-09_16-32-30_260595134347_rgbf000123-resize_3/000927_2014-06-09_16-32-30_260595134347_rgbf000123-resize_3-target.png,250,2.6785,8,4847,254,feet,jsons/v1_VE250_randls_16.json,738975,1134496,36,Man
15,617019,DepthScenes,duration_manipulation_targetAtFixation,jsons/v1_VE250_randls_16.json,http://54.235.29.9/FacialAge/BNav_EC2/DepthDuration/v2_depth_duration_MTurk/v2_DepthDuration_HTML.html#129,129,1280,601,1280,720,8-20-2022,9-38-38,16,depth_duration_stimuli/001810_2014-06-26_20-51-35_260595134347_rgbf000040-resize_3/001810_2014-06-26_20-51-35_260595134347_rgbf000040-resize_3-target.png,250,2.2525,5,8076,262,feet,jsons/v1_VE250_randls_16.json,738975,1134496,36,Man
16,617019,DepthScenes,duration_manipulation_targetAtFixation,jsons/v1_VE250_randls_16.json,http://54.235.29.9/FacialAge/BNav_EC2/DepthDuration/v2_depth_duration_MTurk/v2_DepthDuration_HTML.html#129,129,1280,601,1280,720,8-20-2022,9-38-38,17,depth_duration_stimuli/003010_2014-06-15_12-54-35_094959634447_rgbf000112-resize_0/003010_2014-06-15_12-54-35_094959634447_rgbf000112-resize_0-target.png,250,3.1185,11,7734,260,feet,jsons/v1_VE250_randls_16.json,738975,1134496,36,Man
17,617019,DepthScenes,duration_manipulation_targetAtFixation,jsons/v1_VE250_randls_16.json,http://54.235.29.9/FacialAge/BNav_EC2/DepthDuration/v2_depth_duration_MTurk/v2_DepthDuration_HTML.html#129,129,1280,601,1280,720,8-20-2022,9-38-38,18,depth_duration_stimuli/000642_2014-06-08_16-59-25_260595134347_rgbf000098-resize_2/000642_2014-06-08_16-59-25_260595134347_rgbf000098-resize_2-target.png,250,2.8815,8,3383,242,feet,jsons/v1_VE250_randls_16.json,738975,1134496,36,Man
18,617019,DepthScenes,duration_manipulation_targetAtFixation,jsons/v1_VE250_randls_16.json,http://54.235.29.9/FacialAge/BNav_EC2/DepthDuration/v2_depth_duration_MTurk/v2_DepthDuration_HTML.html#129,129,1280,601,1280,720,8-20-2022,9-38-38,19,depth_duration_stimuli/002425_2014-06-28_20-27-29_260595134347_rgbf000031-resize_8/002425_2014-06-28_20-27-29_260595134347_rgbf000031-resize_8-target.png,250,3.8960000000000004,11,3551,261,feet,jsons/v1_VE250_randls_16.json,738975,1134496,36,Man
19,617019,DepthScenes,duration_manipulation_targetAtFixation,jsons/v1_VE250_randls_16.json,http://54.235.29.9/FacialAge/BNav_EC2/DepthDuration/v2_depth_duration_MTurk/v2_DepthDuration_HTML.html#129,129,1280,601,1280,720,8-20-2022,9-38-38,20,depth_duration_stimuli/000469_2014-06-09_19-42-10_260595134347_rgbf000081-resize_1/000469_2014-06-09_19-42-10_260595134347_rgbf000081-resize_1-target.png,250,1.652,5,4843,253,feet,jsons/v1_VE250_randls_16.json,738975,1134496,36,Man
20,617019,DepthScenes,duration_manipulation_targetAtFixation,jsons/v1_VE250_randls_16.json,http://54.235.29.9/FacialAge/BNav_EC2/DepthDuration/v2_depth_duration_MTurk/v2_DepthDuration_HTML.html#129,129,1280,601,1280,720,8-20-2022,9-38-38,21,depth_duration_stimuli/000483_2014-06-09_20-41-45_260595134347_rgbf000116-resize_4/000483_2014-06-09_20-41-45_260595134347_rgbf000116-resize_4-target.png,250,1.337,4,2832,240,feet,jsons/v1_VE250_randls_16.json,738975,1134496,36,Man
21,617019,DepthScenes,duration_manipulation_targetAtFixation,jsons/v1_VE250_randls_16.json,http://54.235.29.9/FacialAge/BNav_EC2/DepthDuration/v2_depth_duration_MTurk/v2_DepthDuration_HTML.html#129,129,1280,601,1280,720,8-20-2022,9-38-38,22,depth_duration_stimuli/001150_2014-06-17_15-27-34_260595134347_rgbf000108-resize_2/001150_2014-06-17_15-27-34_260595134347_rgbf000108-resize_2-target.png,250,4.0325,11,3869,244,feet,jsons/v1_VE250_randls_16.json,738975,1134496,36,Man
22,617019,DepthScenes,duration_manipulation_targetAtFixation,jsons/v1_VE250_randls_16.json,http://54.235.29.9/FacialAge/BNav_EC2/DepthDuration/v2_depth_duration_MTurk/v2_DepthDuration_HTML.html#129,129,1280,601,1280,720,8-20-2022,9-38-38,23,depth_duration_stimuli/000665_2014-06-09_20-42-35_260595134347_rgbf000110-resize_1/000665_2014-06-09_20-42-35_260595134347_rgbf000110-resize_1-target.png,250,3.057,8,3318,256,feet,jsons/v1_VE250_randls_16.json,738975,1134496,36,Man
23,617019,DepthScenes,duration_manipulation_targetAtFixation,jsons/v1_VE250_randls_16.json,http://54.235.29.9/FacialAge/BNav_EC2/DepthDuration/v2_depth_duration_MTurk/v2_DepthDuration_HTML.html#129,129,1280,601,1280,720,8-20-2022,9-38-38,24,depth_duration_stimuli/001555_2014-06-20_17-12-10_260595134347_rgbf000065-resize_4/001555_2014-06-20_17-12-10_260595134347_rgbf000065-resize_4-target.png,250,1.633,5,6023,243,feet,jsons/v1_VE250_randls_16.json,738975,1134496,36,Man
24,617019,DepthScenes,duration_manipulation_targetAtFixation,jsons/v1_VE250_randls_16.json,http://54.235.29.9/FacialAge/BNav_EC2/DepthDuration/v2_depth_duration_MTurk/v2_DepthDuration_HTML.html#129,129,1280,601,1280,720,8-20-2022,9-38-38,25,depth_duration_stimuli/000103_2014-05-14_22-01-17_260595134347_rgbf000152-resize_5/000103_2014-05-14_22-01-17_260595134347_rgbf000152-resize_5-target.png,250,1.993,7,5805,259,feet,jsons/v1_VE250_randls_16.json,738975,1134496,36,Man
25,617019,DepthScenes,duration_manipulation_targetAtFixation,jsons/v1_VE250_randls_16.json,http://54.235.29.9/FacialAge/BNav_EC2/DepthDuration/v2_depth_duration_MTurk/v2_DepthDuration_HTML.html#129,129,1280,601,1280,720,8-20-2022,9-38-38,26,depth_duration_stimuli/001016_2014-06-09_16-16-10_260595134347_rgbf000112-resize_5/001016_2014-06-09_16-16-10_260595134347_rgbf000112-resize_5-target.png,250,1.6565,5,3310,243,feet,jsons/v1_VE250_randls_16.json,738975,1134496,36,Man
26,617019,DepthScenes,duration_manipulation_targetAtFixation,jsons/v1_VE250_randls_16.json,http://54.235.29.9/FacialAge/BNav_EC2/DepthDuration/v2_depth_duration_MTurk/v2_DepthDuration_HTML.html#129,129,1280,601,1280,720,8-20-2022,9-38-38,27,depth_duration_stimuli/002340_2014-06-28_20-05-46_260595134347_rgbf000113-resize_0/002340_2014-06-28_20-05-46_260595134347_rgbf000113-resize_0-target.png,250,2.4735,8,3197,252,feet,jsons/v1_VE250_randls_16.json,738975,1134496,36,Man
27,617019,DepthScenes,duration_manipulation_targetAtFixation,jsons/v1_VE250_randls_16.json,http://54.235.29.9/FacialAge/BNav_EC2/DepthDuration/v2_depth_duration_MTurk/v2_DepthDuration_HTML.html#129,129,1280,601,1280,720,8-20-2022,9-38-38,28,depth_duration_stimuli/000736_2014-06-08_18-24-15_260595134347_rgbf000206-resize_3/000736_2014-06-08_18-24-15_260595134347_rgbf000206-resize_3-target.png,250,3.515,6,2502,252,feet,jsons/v1_VE250_randls_16.json,738975,1134496,36,Man
28,617019,DepthScenes,duration_manipulation_targetAtFixation,jsons/v1_VE250_randls_16.json,http://54.235.29.9/FacialAge/BNav_EC2/DepthDuration/v2_depth_duration_MTurk/v2_DepthDuration_HTML.html#129,129,1280,601,1280,720,8-20-2022,9-38-38,29,depth_duration_stimuli/000137_2014-05-20_17-04-49_260595134347_rgbf000120-resize_1/000137_2014-05-20_17-04-49_260595134347_rgbf000120-resize_1-target.png,250,3.786,8,2544,248,feet,jsons/v1_VE250_randls_16.json,738975,1134496,36,Man
29,617019,DepthScenes,duration_manipulation_targetAtFixation,jsons/v1_VE250_randls_16.json,http://54.235.29.9/FacialAge/BNav_EC2/DepthDuration/v2_depth_duration_MTurk/v2_DepthDuration_HTML.html#129,129,1280,601,1280,720,8-20-2022,9-38-38,30,depth_duration_stimuli/000375_2014-06-08_11-17-29_260595134347_rgbf000133-resize_2/000375_2014-06-08_11-17-29_260595134347_rgbf000133-resize-original.jpg,250,4.718,0,2419,255,feet,jsons/v1_VE250_randls_16.json,738975,1134496,36,Man
30,617019,DepthScenes,duration_manipulation_targetAtFixation,jsons/v1_VE250_randls_16.json,http://54.235.29.9/FacialAge/BNav_EC2/DepthDuration/v2_depth_duration_MTurk/v2_DepthDuration_HTML.html#129,129,1280,601,1280,720,8-20-2022,9-38-38,31,depth_duration_stimuli/002570_2014-06-24_13-59-54_094959634447_rgbf000059-resize_0/002570_2014-06-24_13-59-54_094959634447_rgbf000059-resize_0-target.png,250,4.037,9,2408,246,feet,jsons/v1_VE250_randls_16.json,738975,1134496,36,Man
31,617019,DepthScenes,duration_manipulation_targetAtFixation,jsons/v1_VE250_randls_16.json,http://54.235.29.9/FacialAge/BNav_EC2/DepthDuration/v2_depth_duration_MTurk/v2_DepthDuration_HTML.html#129,129,1280,601,1280,720,8-20-2022,9-38-38,32,depth_duration_stimuli/002467_2014-06-28_20-38-07_260595134347_rgbf000026-resize_2/002467_2014-06-28_20-38-07_260595134347_rgbf000026-resize_2-target.png,250,4.742,11,3450,254,feet,jsons/v1_VE250_randls_16.json,738975,1134496,36,Man
32,617019,DepthScenes,duration_manipulation_targetAtFixation,jsons/v1_VE250_randls_16.json,http://54.235.29.9/FacialAge/BNav_EC2/DepthDuration/v2_depth_duration_MTurk/v2_DepthDuration_HTML.html#129,129,1280,601,1280,720,8-20-2022,9-38-38,33,depth_duration_stimuli/001133_2014-06-17_14-49-16_260595134347_rgbf000100-resize_0/001133_2014-06-17_14-49-16_260595134347_rgbf000100-resize_0-target.png,250,4.2115,9,2761,252,feet,jsons/v1_VE250_randls_16.json,738975,1134496,36,Man
33,617019,DepthScenes,duration_manipulation_targetAtFixation,jsons/v1_VE250_randls_16.json,http://54.235.29.9/FacialAge/BNav_EC2/DepthDuration/v2_depth_duration_MTurk/v2_DepthDuration_HTML.html#129,129,1280,601,1280,720,8-20-2022,9-38-38,34,depth_duration_stimuli/001132_2014-06-17_14-48-54_260595134347_rgbf000100-resize_2/001132_2014-06-17_14-48-54_260595134347_rgbf000100-resize_2-target.png,250,3.753,9,2247,249,feet,jsons/v1_VE250_randls_16.json,738975,1134496,36,Man
34,617019,DepthScenes,duration_manipulation_targetAtFixation,jsons/v1_VE250_randls_16.json,http://54.235.29.9/FacialAge/BNav_EC2/DepthDuration/v2_depth_duration_MTurk/v2_DepthDuration_HTML.html#129,129,1280,601,1280,720,8-20-2022,9-38-38,35,depth_duration_stimuli/002272_2014-06-28_18-53-56_260595134347_rgbf000067-resize_2/002272_2014-06-28_18-53-56_260595134347_rgbf000067-resize_2-target.png,250,1.138,7,4688,247,feet,jsons/v1_VE250_randls_16.json,738975,1134496,36,Man
35,617019,DepthScenes,duration_manipulation_targetAtFixation,jsons/v1_VE250_randls_16.json,http://54.235.29.9/FacialAge/BNav_EC2/DepthDuration/v2_depth_duration_MTurk/v2_DepthDuration_HTML.html#129,129,1280,601,1280,720,8-20-2022,9-38-38,36,depth_duration_stimuli/001571_2014-06-20_17-21-32_260595134347_rgbf000089-resize_1/001571_2014-06-20_17-21-32_260595134347_rgbf000089-resize_1-target.png,250,1.86,6,20514,240,feet,jsons/v1_VE250_randls_16.json,738975,1134496,36,Man
36,617019,DepthScenes,duration_manipulation_targetAtFixation,jsons/v1_VE250_randls_16.json,http://54.235.29.9/FacialAge/BNav_EC2/DepthDuration/v2_depth_duration_MTurk/v2_DepthDuration_HTML.html#129,129,1280,601,1280,720,8-20-2022,9-38-38,37,depth_duration_stimuli/001449_2014-06-19_17-01-27_260595134347_rgbf000116-resize_2/001449_2014-06-19_17-01-27_260595134347_rgbf000116-resize_2-target.png,250,3.452,8,3253,248,feet,jsons/v1_VE250_randls_16.json,738975,1134496,36,Man
37,617019,DepthScenes,duration_manipulation_targetAtFixation,jsons/v1_VE250_randls_16.json,http://54.235.29.9/FacialAge/BNav_EC2/DepthDuration/v2_depth_duration_MTurk/v2_DepthDuration_HTML.html#129,129,1280,601,1280,720,8-20-2022,9-38-38,38,depth_duration_stimuli/001450_2014-06-19_17-02-03_260595134347_rgbf000203-resize_4/001450_2014-06-19_17-02-03_260595134347_rgbf000203-resize_4-target.png,250,4.0106666666667,9,2615,252,feet,jsons/v1_VE250_randls_16.json,738975,1134496,36,Man
38,617019,DepthScenes,duration_manipulation_targetAtFixation,jsons/v1_VE250_randls_16.json,http://54.235.29.9/FacialAge/BNav_EC2/DepthDuration/v2_depth_duration_MTurk/v2_DepthDuration_HTML.html#129,129,1280,601,1280,720,8-20-2022,9-38-38,39,depth_duration_stimuli/001059_2014-06-08_21-53-27_260595134347_rgbf000061-resize_4/001059_2014-06-08_21-53-27_260595134347_rgbf000061-resize_4-target.png,250,2.4185,5,2383,248,feet,jsons/v1_VE250_randls_16.json,738975,1134496,36,Man
39,617019,DepthScenes,duration_manipulation_targetAtFixation,jsons/v1_VE250_randls_16.json,http://54.235.29.9/FacialAge/BNav_EC2/DepthDuration/v2_depth_duration_MTurk/v2_DepthDuration_HTML.html#129,129,1280,601,1280,720,8-20-2022,9-38-38,40,depth_duration_stimuli/001032_2014-06-08_13-23-17_260595134347_rgbf000021-resize_3/001032_2014-06-08_13-23-17_260595134347_rgbf000021-resize_3-target.png,250,3.2725,6,4889,255,feet,jsons/v1_VE250_randls_16.json,738975,1134496,36,Man
40,617019,DepthScenes,duration_manipulation_targetAtFixation,jsons/v1_VE250_randls_16.json,http://54.235.29.9/FacialAge/BNav_EC2/DepthDuration/v2_depth_duration_MTurk/v2_DepthDuration_HTML.html#129,129,1280,601,1280,720,8-20-2022,9-38-38,41,depth_duration_stimuli/002788_2014-06-22_19-36-03_094959634447_rgbf000088-resize_2/002788_2014-06-22_19-36-03_094959634447_rgbf000088-resize_2-target.png,250,1.6465,7,2534,261,feet,jsons/v1_VE250_randls_16.json,738975,1134496,36,Man
41,617019,DepthScenes,duration_manipulation_targetAtFixation,jsons/v1_VE250_randls_16.json,http://54.235.29.9/FacialAge/BNav_EC2/DepthDuration/v2_depth_duration_MTurk/v2_DepthDuration_HTML.html#129,129,1280,601,1280,720,8-20-2022,9-38-38,42,depth_duration_stimuli/000749_2014-06-08_21-55-06_260595134347_rgbf000070-resize_2/000749_2014-06-08_21-55-06_260595134347_rgbf000070-resize_2-target.png,250,2.331,7,2395,250,feet,jsons/v1_VE250_randls_16.json,738975,1134496,36,Man
42,617019,DepthScenes,duration_manipulation_targetAtFixation,jsons/v1_VE250_randls_16.json,http://54.235.29.9/FacialAge/BNav_EC2/DepthDuration/v2_depth_duration_MTurk/v2_DepthDuration_HTML.html#129,129,1280,601,1280,720,8-20-2022,9-38-38,43,depth_duration_stimuli/002375_2014-06-28_20-13-44_260595134347_rgbf000032-resize_1/002375_2014-06-28_20-13-44_260595134347_rgbf000032-resize_1-target.png,250,4.0175,7,2377,245,feet,jsons/v1_VE250_randls_16.json,738975,1134496,36,Man
43,617019,DepthScenes,duration_manipulation_targetAtFixation,jsons/v1_VE250_randls_16.json,http://54.235.29.9/FacialAge/BNav_EC2/DepthDuration/v2_depth_duration_MTurk/v2_DepthDuration_HTML.html#129,129,1280,601,1280,720,8-20-2022,9-38-38,44,depth_duration_stimuli/002657_2014-06-13_15-29-54_094959634447_rgbf000150-resize_1/002657_2014-06-13_15-29-54_094959634447_rgbf000150-resize_1-target.png,250,4.919,8,2532,243,feet,jsons/v1_VE250_randls_16.json,738975,1134496,36,Man
44,617019,DepthScenes,duration_manipulation_targetAtFixation,jsons/v1_VE250_randls_16.json,http://54.235.29.9/FacialAge/BNav_EC2/DepthDuration/v2_depth_duration_MTurk/v2_DepthDuration_HTML.html#129,129,1280,601,1280,720,8-20-2022,9-38-38,45,depth_duration_stimuli/000787_2014-06-08_22-33-53_260595134347_rgbf000175-resize_1/000787_2014-06-08_22-33-53_260595134347_rgbf000175-resize-original.jpg,250,4.784,0,2620,241,feet,jsons/v1_VE250_randls_16.json,738975,1134496,36,Man
45,617019,DepthScenes,duration_manipulation_targetAtFixation,jsons/v1_VE250_randls_16.json,http://54.235.29.9/FacialAge/BNav_EC2/DepthDuration/v2_depth_duration_MTurk/v2_DepthDuration_HTML.html#129,129,1280,601,1280,720,8-20-2022,9-38-38,46,depth_duration_stimuli/001029_2014-06-08_13-17-57_260595134347_rgbf000065-resize_1/001029_2014-06-08_13-17-57_260595134347_rgbf000065-resize_1-target.png,250,3.0835,6,2460,250,feet,jsons/v1_VE250_randls_16.json,738975,1134496,36,Man
46,617019,DepthScenes,duration_manipulation_targetAtFixation,jsons/v1_VE250_randls_16.json,http://54.235.29.9/FacialAge/BNav_EC2/DepthDuration/v2_depth_duration_MTurk/v2_DepthDuration_HTML.html#129,129,1280,601,1280,720,8-20-2022,9-38-38,47,depth_duration_stimuli/000677_2014-06-08_23-10-32_260595134347_rgbf000158-resize_6/000677_2014-06-08_23-10-32_260595134347_rgbf000158-resize_6-target.png,250,3.556,6,2588,248,feet,jsons/v1_VE250_randls_16.json,738975,1134496,36,Man
47,617019,DepthScenes,duration_manipulation_targetAtFixation,jsons/v1_VE250_randls_16.json,http://54.235.29.9/FacialAge/BNav_EC2/DepthDuration/v2_depth_duration_MTurk/v2_DepthDuration_HTML.html#129,129,1280,601,1280,720,8-20-2022,9-38-38,48,depth_duration_stimuli/000810_2014-06-08_17-20-01_260595134347_rgbf000105-resize_0/000810_2014-06-08_17-20-01_260595134347_rgbf000105-resize_0-target.png,250,1.4865,5,2497,247,feet,jsons/v1_VE250_randls_16.json,738975,1134496,36,Man
48,617019,DepthScenes,duration_manipulation_targetAtFixation,jsons/v1_VE250_randls_16.json,http://54.235.29.9/FacialAge/BNav_EC2/DepthDuration/v2_depth_duration_MTurk/v2_DepthDuration_HTML.html#129,129,1280,601,1280,720,8-20-2022,9-38-38,49,depth_duration_stimuli/001214_2014-06-17_16-13-55_260595134347_rgbf000111-resize_0/001214_2014-06-17_16-13-55_260595134347_rgbf000111-resize_0-target.png,250,2.6505,4,2893,242,feet,jsons/v1_VE250_randls_16.json,738975,1134496,36,Man
49,617019,DepthScenes,duration_manipulation_targetAtFixation,jsons/v1_VE250_randls_16.json,http://54.235.29.9/FacialAge/BNav_EC2/DepthDuration/v2_depth_duration_MTurk/v2_DepthDuration_HTML.html#129,129,1280,601,1280,720,8-20-2022,9-38-38,50,depth_duration_stimuli/003292_2014-05-14_21-53-49_094959634447_rgbf000100-resize_2/003292_2014-05-14_21-53-49_094959634447_rgbf000100-resize_2-target.png,250,3.4815,6,3034,247,feet,jsons/v1_VE250_randls_16.json,738975,1134496,36,Man
50,617019,DepthScenes,duration_manipulation_targetAtFixation,jsons/v1_VE250_randls_16.json,http://54.235.29.9/FacialAge/BNav_EC2/DepthDuration/v2_depth_duration_MTurk/v2_DepthDuration_HTML.html#129,129,1280,601,1280,720,8-20-2022,9-38-38,51,depth_duration_stimuli/002639_2014-06-24_14-51-37_094959634447_rgbf000074-resize_4/002639_2014-06-24_14-51-37_094959634447_rgbf000074-resize_4-target.png,250,4.0375,7,2455,246,feet,jsons/v1_VE250_randls_16.json,738975,1134496,36,Man
51,617019,DepthScenes,duration_manipulation_targetAtFixation,jsons/v1_VE250_randls_16.json,http://54.235.29.9/FacialAge/BNav_EC2/DepthDuration/v2_depth_duration_MTurk/v2_DepthDuration_HTML.html#129,129,1280,601,1280,720,8-20-2022,9-38-38,52,depth_duration_stimuli/002763_2014-06-22_19-13-10_094959634447_rgbf000075-resize_4/002763_2014-06-22_19-13-10_094959634447_rgbf000075-resize_4-target.png,250,1.68375,6,2781,249,feet,jsons/v1_VE250_randls_16.json,738975,1134496,36,Man
52,617019,DepthScenes,duration_manipulation_targetAtFixation,jsons/v1_VE250_randls_16.json,http://54.235.29.9/FacialAge/BNav_EC2/DepthDuration/v2_depth_duration_MTurk/v2_DepthDuration_HTML.html#129,129,1280,601,1280,720,8-20-2022,9-38-38,53,depth_duration_stimuli/002209_2014-06-28_18-36-10_260595134347_rgbf000051-resize_1/002209_2014-06-28_18-36-10_260595134347_rgbf000051-resize_1-target.png,250,2.057,5,2736,241,feet,jsons/v1_VE250_randls_16.json,738975,1134496,36,Man
53,617019,DepthScenes,duration_manipulation_targetAtFixation,jsons/v1_VE250_randls_16.json,http://54.235.29.9/FacialAge/BNav_EC2/DepthDuration/v2_depth_duration_MTurk/v2_DepthDuration_HTML.html#129,129,1280,601,1280,720,8-20-2022,9-38-38,54,depth_duration_stimuli/001808_2014-06-26_20-50-58_260595134347_rgbf000029-resize_1/001808_2014-06-26_20-50-58_260595134347_rgbf000029-resize_1-target.png,250,4.249,9,3849,249,feet,jsons/v1_VE250_randls_16.json,738975,1134496,36,Man
54,617019,DepthScenes,duration_manipulation_targetAtFixation,jsons/v1_VE250_randls_16.json,http://54.235.29.9/FacialAge/BNav_EC2/DepthDuration/v2_depth_duration_MTurk/v2_DepthDuration_HTML.html#129,129,1280,601,1280,720,8-20-2022,9-38-38,55,depth_duration_stimuli/001815_2014-06-26_20-52-55_260595134347_rgbf000020-resize_0/001815_2014-06-26_20-52-55_260595134347_rgbf000020-resize_0-target.png,250,3.3865,9,2564,247,feet,jsons/v1_VE250_randls_16.json,738975,1134496,36,Man
55,617019,DepthScenes,duration_manipulation_targetAtFixation,jsons/v1_VE250_randls_16.json,http://54.235.29.9/FacialAge/BNav_EC2/DepthDuration/v2_depth_duration_MTurk/v2_DepthDuration_HTML.html#129,129,1280,601,1280,720,8-20-2022,9-38-38,56,depth_duration_stimuli/002057_2014-06-24_21-00-13_260595134347_rgbf000120-resize_1/002057_2014-06-24_21-00-13_260595134347_rgbf000120-resize_1-target.png,250,2.967,7,2810,251,feet,jsons/v1_VE250_randls_16.json,738975,1134496,36,Man
56,617019,DepthScenes,duration_manipulation_targetAtFixation,jsons/v1_VE250_randls_16.json,http://54.235.29.9/FacialAge/BNav_EC2/DepthDuration/v2_depth_duration_MTurk/v2_DepthDuration_HTML.html#129,129,1280,601,1280,720,8-20-2022,9-38-38,57,depth_duration_stimuli/000709_2014-06-08_13-51-55_260595134347_rgbf000068-resize_3/000709_2014-06-08_13-51-55_260595134347_rgbf000068-resize_3-target.png,250,1.8030000000000002,6,2341,252,feet,jsons/v1_VE250_randls_16.json,738975,1134496,36,Man
57,617019,DepthScenes,duration_manipulation_targetAtFixation,jsons/v1_VE250_randls_16.json,http://54.235.29.9/FacialAge/BNav_EC2/DepthDuration/v2_depth_duration_MTurk/v2_DepthDuration_HTML.html#129,129,1280,601,1280,720,8-20-2022,9-38-38,58,depth_duration_stimuli/000917_2014-06-09_22-45-29_260595134347_rgbf000149-resize_3/000917_2014-06-09_22-45-29_260595134347_rgbf000149-resize_3-target.png,250,4.1865,8,2165,256,feet,jsons/v1_VE250_randls_16.json,738975,1134496,36,Man
58,617019,DepthScenes,duration_manipulation_targetAtFixation,jsons/v1_VE250_randls_16.json,http://54.235.29.9/FacialAge/BNav_EC2/DepthDuration/v2_depth_duration_MTurk/v2_DepthDuration_HTML.html#129,129,1280,601,1280,720,8-20-2022,9-38-38,59,depth_duration_stimuli/002323_2014-06-28_20-01-54_260595134347_rgbf000051-resize_4/002323_2014-06-28_20-01-54_260595134347_rgbf000051-resize_4-target.png,250,3.7310000000000003,9,3442,254,feet,jsons/v1_VE250_randls_16.json,738975,1134496,36,Man
59,617019,DepthScenes,duration_manipulation_targetAtFixation,jsons/v1_VE250_randls_16.json,http://54.235.29.9/FacialAge/BNav_EC2/DepthDuration/v2_depth_duration_MTurk/v2_DepthDuration_HTML.html#129,129,1280,601,1280,720,8-20-2022,9-38-38,60,depth_duration_stimuli/001175_2014-06-17_15-45-55_260595134347_rgbf000129-resize_4/001175_2014-06-17_15-45-55_260595134347_rgbf000129-resize_4-target.png,250,4.255,11,3684,256,feet,jsons/v1_VE250_randls_16.json,738975,1134496,36,Man
60,617019,DepthScenes,duration_manipulation_targetAtFixation,jsons/v1_VE250_randls_16.json,http://54.235.29.9/FacialAge/BNav_EC2/DepthDuration/v2_depth_duration_MTurk/v2_DepthDuration_HTML.html#129,129,1280,601,1280,720,8-20-2022,9-38-38,61,depth_duration_stimuli/003490_2014-05-21_15-50-11_094959634447_rgbf000101-resize_3/003490_2014-05-21_15-50-11_094959634447_rgbf000101-resize_3-target.png,250,3.6445,6,26019,261,feet,jsons/v1_VE250_randls_16.json,738975,1134496,36,Man
61,617019,DepthScenes,duration_manipulation_targetAtFixation,jsons/v1_VE250_randls_16.json,http://54.235.29.9/FacialAge/BNav_EC2/DepthDuration/v2_depth_duration_MTurk/v2_DepthDuration_HTML.html#129,129,1280,601,1280,720,8-20-2022,9-38-38,62,depth_duration_stimuli/000436_2014-06-09_22-25-11_260595134347_rgbf000137-resize_1/000436_2014-06-09_22-25-11_260595134347_rgbf000137-resize_1-target.png,250,4.0705,8,2709,261,feet,jsons/v1_VE250_randls_16.json,738975,1134496,36,Man
62,617019,DepthScenes,duration_manipulation_targetAtFixation,jsons/v1_VE250_randls_16.json,http://54.235.29.9/FacialAge/BNav_EC2/DepthDuration/v2_depth_duration_MTurk/v2_DepthDuration_HTML.html#129,129,1280,601,1280,720,8-20-2022,9-38-38,63,depth_duration_stimuli/002444_2014-06-28_20-32-08_260595134347_rgbf000027-resize_0/002444_2014-06-28_20-32-08_260595134347_rgbf000027-resize_0-target.png,250,4.388999999999999,8,2674,257,feet,jsons/v1_VE250_randls_16.json,738975,1134496,36,Man
63,617019,DepthScenes,duration_manipulation_targetAtFixation,jsons/v1_VE250_randls_16.json,http://54.235.29.9/FacialAge/BNav_EC2/DepthDuration/v2_depth_duration_MTurk/v2_DepthDuration_HTML.html#129,129,1280,601,1280,720,8-20-2022,9-38-38,64,depth_duration_stimuli/003070_2014-06-15_14-58-27_094959634447_rgbf000150-resize_3/003070_2014-06-15_14-58-27_094959634447_rgbf000150-resize_3-target.png,250,2.9415,7,2732,253,feet,jsons/v1_VE250_randls_16.json,738975,1134496,36,Man
64,617019,DepthScenes,duration_manipulation_targetAtFixation,jsons/v1_VE250_randls_16.json,http://54.235.29.9/FacialAge/BNav_EC2/DepthDuration/v2_depth_duration_MTurk/v2_DepthDuration_HTML.html#129,129,1280,601,1280,720,8-20-2022,9-38-38,65,depth_duration_stimuli/000943_2014-06-09_19-31-07_260595134347_rgbf000128-resize_1/000943_2014-06-09_19-31-07_260595134347_rgbf000128-resize_1-target.png,250,1.9765,6,2889,257,feet,jsons/v1_VE250_randls_16.json,738975,1134496,36,Man
65,617019,DepthScenes,duration_manipulation_targetAtFixation,jsons/v1_VE250_randls_16.json,http://54.235.29.9/FacialAge/BNav_EC2/DepthDuration/v2_depth_duration_MTurk/v2_DepthDuration_HTML.html#129,129,1280,601,1280,720,8-20-2022,9-38-38,66,depth_duration_stimuli/001222_2014-06-17_16-24-06_260595134347_rgbf000073-resize_0/001222_2014-06-17_16-24-06_260595134347_rgbf000073-resize-original.jpg,250,1.4385,0,2727,247,feet,jsons/v1_VE250_randls_16.json,738975,1134496,36,Man
66,617019,DepthScenes,duration_manipulation_targetAtFixation,jsons/v1_VE250_randls_16.json,http://54.235.29.9/FacialAge/BNav_EC2/DepthDuration/v2_depth_duration_MTurk/v2_DepthDuration_HTML.html#129,129,1280,601,1280,720,8-20-2022,9-38-38,67,depth_duration_stimuli/001164_2014-06-17_15-35-46_260595134347_rgbf000085-resize_3/001164_2014-06-17_15-35-46_260595134347_rgbf000085-resize_3-target.png,250,2.354,5,3019,259,feet,jsons/v1_VE250_randls_16.json,738975,1134496,36,Man
67,617019,DepthScenes,duration_manipulation_targetAtFixation,jsons/v1_VE250_randls_16.json,http://54.235.29.9/FacialAge/BNav_EC2/DepthDuration/v2_depth_duration_MTurk/v2_DepthDuration_HTML.html#129,129,1280,601,1280,720,8-20-2022,9-38-38,68,depth_duration_stimuli/001136_2014-06-17_15-19-41_260595134347_rgbf000076-resize_3/001136_2014-06-17_15-19-41_260595134347_rgbf000076-resize_3-target.png,250,1.8655,0,2651,258,feet,jsons/v1_VE250_randls_16.json,738975,1134496,36,Man
68,617019,DepthScenes,duration_manipulation_targetAtFixation,jsons/v1_VE250_randls_16.json,http://54.235.29.9/FacialAge/BNav_EC2/DepthDuration/v2_depth_duration_MTurk/v2_DepthDuration_HTML.html#129,129,1280,601,1280,720,8-20-2022,9-38-38,69,depth_duration_stimuli/000414_2014-06-04_19-49-13_260595134347_rgbf000044-resize_0/000414_2014-06-04_19-49-13_260595134347_rgbf000044-resize_0-target.png,250,4.329,9,2684,262,feet,jsons/v1_VE250_randls_16.json,738975,1134496,36,Man
69,617019,DepthScenes,duration_manipulation_targetAtFixation,jsons/v1_VE250_randls_16.json,http://54.235.29.9/FacialAge/BNav_EC2/DepthDuration/v2_depth_duration_MTurk/v2_DepthDuration_HTML.html#129,129,1280,601,1280,720,8-20-2022,9-38-38,70,depth_duration_stimuli/003129_2014-05-12_10-48-10_094959634447_rgbf000100-resize_0/003129_2014-05-12_10-48-10_094959634447_rgbf000100-resize_0-target.png,250,4.9305,11,3089,254,feet,jsons/v1_VE250_randls_16.json,738975,1134496,36,Man
70,617019,DepthScenes,duration_manipulation_targetAtFixation,jsons/v1_VE250_randls_16.json,http://54.235.29.9/FacialAge/BNav_EC2/DepthDuration/v2_depth_duration_MTurk/v2_DepthDuration_HTML.html#129,129,1280,601,1280,720,8-20-2022,9-38-38,71,depth_duration_stimuli/001158_2014-06-17_15-32-16_260595134347_rgbf000138-resize_2/001158_2014-06-17_15-32-16_260595134347_rgbf000138-resize_2-target.png,250,4.5315,12,3410,262,feet,jsons/v1_VE250_randls_16.json,738975,1134496,36,Man
71,617019,DepthScenes,duration_manipulation_targetAtFixation,jsons/v1_VE250_randls_16.json,http://54.235.29.9/FacialAge/BNav_EC2/DepthDuration/v2_depth_duration_MTurk/v2_DepthDuration_HTML.html#129,129,1280,601,1280,720,8-20-2022,9-38-38,72,depth_duration_stimuli/000556_2014-06-09_22-42-56_260595134347_rgbf000214-resize_1/000556_2014-06-09_22-42-56_260595134347_rgbf000214-resize_1-target.png,250,4.8415,12,3567,256,feet,jsons/v1_VE250_randls_16.json,738975,1134496,36,Man
72,617019,DepthScenes,duration_manipulation_targetAtFixation,jsons/v1_VE250_randls_16.json,http://54.235.29.9/FacialAge/BNav_EC2/DepthDuration/v2_depth_duration_MTurk/v2_DepthDuration_HTML.html#129,129,1280,601,1280,720,8-20-2022,9-38-38,73,depth_duration_stimuli/001167_2014-06-17_15-38-07_260595134347_rgbf000108-resize_0/001167_2014-06-17_15-38-07_260595134347_rgbf000108-resize_0-target.png,250,1.8505,4,2792,256,feet,jsons/v1_VE250_randls_16.json,738975,1134496,36,Man
73,617019,DepthScenes,duration_manipulation_targetAtFixation,jsons/v1_VE250_randls_16.json,http://54.235.29.9/FacialAge/BNav_EC2/DepthDuration/v2_depth_duration_MTurk/v2_DepthDuration_HTML.html#129,129,1280,601,1280,720,8-20-2022,9-38-38,74,depth_duration_stimuli/003587_2014-05-23_16-48-02_094959634447_rgbf002384-resize_2/003587_2014-05-23_16-48-02_094959634447_rgbf002384-resize_2-target.png,250,1.357,4,2835,249,feet,jsons/v1_VE250_randls_16.json,738975,1134496,36,Man
74,617019,DepthScenes,duration_manipulation_targetAtFixation,jsons/v1_VE250_randls_16.json,http://54.235.29.9/FacialAge/BNav_EC2/DepthDuration/v2_depth_duration_MTurk/v2_DepthDuration_HTML.html#129,129,1280,601,1280,720,8-20-2022,9-38-38,75,depth_duration_stimuli/000522_2014-06-08_13-35-06_260595134347_rgbf000244-resize_1/000522_2014-06-08_13-35-06_260595134347_rgbf000244-resize_1-target.png,250,2.3715,4,2866,259,feet,jsons/v1_VE250_randls_16.json,738975,1134496,36,Man
75,617019,DepthScenes,duration_manipulation_targetAtFixation,jsons/v1_VE250_randls_16.json,http://54.235.29.9/FacialAge/BNav_EC2/DepthDuration/v2_depth_duration_MTurk/v2_DepthDuration_HTML.html#129,129,1280,601,1280,720,8-20-2022,9-38-38,76,depth_duration_stimuli/002949_2014-06-26_15-57-42_094959634447_rgbf000079-resize_1/002949_2014-06-26_15-57-42_094959634447_rgbf000079-resize_1-target.png,250,1.8915,4,3633,248,feet,jsons/v1_VE250_randls_16.json,738975,1134496,36,Man
76,617019,DepthScenes,duration_manipulation_targetAtFixation,jsons/v1_VE250_randls_16.json,http://54.235.29.9/FacialAge/BNav_EC2/DepthDuration/v2_depth_duration_MTurk/v2_DepthDuration_HTML.html#129,129,1280,601,1280,720,8-20-2022,9-38-38,77,depth_duration_stimuli/000493_2014-06-09_21-01-18_260595134347_rgbf000196-resize_3/000493_2014-06-09_21-01-18_260595134347_rgbf000196-resize_3-target.png,250,3.44,7,2980,250,feet,jsons/v1_VE250_randls_16.json,738975,1134496,36,Man
77,617019,DepthScenes,duration_manipulation_targetAtFixation,jsons/v1_VE250_randls_16.json,http://54.235.29.9/FacialAge/BNav_EC2/DepthDuration/v2_depth_duration_MTurk/v2_DepthDuration_HTML.html#129,129,1280,601,1280,720,8-20-2022,9-38-38,78,depth_duration_stimuli/000191_2014-05-12_17-07-38_260595134347_rgbf000199-resize_0/000191_2014-05-12_17-07-38_260595134347_rgbf000199-resize_0-target.png,250,3.7995,9,3149,242,feet,jsons/v1_VE250_randls_16.json,738975,1134496,36,Man
78,617019,DepthScenes,duration_manipulation_targetAtFixation,jsons/v1_VE250_randls_16.json,http://54.235.29.9/FacialAge/BNav_EC2/DepthDuration/v2_depth_duration_MTurk/v2_DepthDuration_HTML.html#129,129,1280,601,1280,720,8-20-2022,9-38-38,79,depth_duration_stimuli/000878_2014-06-08_22-52-45_260595134347_rgbf000045-resize_2/000878_2014-06-08_22-52-45_260595134347_rgbf000045-resize_2-target.png,250,2.092,6,2764,253,feet,jsons/v1_VE250_randls_16.json,738975,1134496,36,Man
79,617019,DepthScenes,duration_manipulation_targetAtFixation,jsons/v1_VE250_randls_16.json,http://54.235.29.9/FacialAge/BNav_EC2/DepthDuration/v2_depth_duration_MTurk/v2_DepthDuration_HTML.html#129,129,1280,601,1280,720,8-20-2022,9-38-38,80,depth_duration_stimuli/002953_2014-06-08_17-32-18_094959634447_rgbf000059-resize_5/002953_2014-06-08_17-32-18_094959634447_rgbf000059-resize_5-target.png,250,1.551,5,3211,248,feet,jsons/v1_VE250_randls_16.json,738975,1134496,36,Man
80,617019,DepthScenes,duration_manipulation_targetAtFixation,jsons/v1_VE250_randls_16.json,http://54.235.29.9/FacialAge/BNav_EC2/DepthDuration/v2_depth_duration_MTurk/v2_DepthDuration_HTML.html#129,129,1280,601,1280,720,8-20-2022,9-38-38,81,depth_duration_stimuli/003492_2014-05-21_15-50-55_094959634447_rgbf000828-resize_1/003492_2014-05-21_15-50-55_094959634447_rgbf000828-resize_1-target.png,250,4.06875,8,2745,243,feet,jsons/v1_VE250_randls_16.json,738975,1134496,36,Man
81,617019,DepthScenes,duration_manipulation_targetAtFixation,jsons/v1_VE250_randls_16.json,http://54.235.29.9/FacialAge/BNav_EC2/DepthDuration/v2_depth_duration_MTurk/v2_DepthDuration_HTML.html#129,129,1280,601,1280,720,8-20-2022,9-38-38,82,depth_duration_stimuli/002568_2014-06-24_13-59-21_094959634447_rgbf000062-resize_4/002568_2014-06-24_13-59-21_094959634447_rgbf000062-resize_4-target.png,250,3.015,0,3432,238,feet,jsons/v1_VE250_randls_16.json,738975,1134496,36,Man
82,617019,DepthScenes,duration_manipulation_targetAtFixation,jsons/v1_VE250_randls_16.json,http://54.235.29.9/FacialAge/BNav_EC2/DepthDuration/v2_depth_duration_MTurk/v2_DepthDuration_HTML.html#129,129,1280,601,1280,720,8-20-2022,9-38-38,83,depth_duration_stimuli/000682_2014-06-08_23-14-58_260595134347_rgbf000041-resize_5/000682_2014-06-08_23-14-58_260595134347_rgbf000041-resize_5-target.png,250,2.7239999999999998,6,4152,254,feet,jsons/v1_VE250_randls_16.json,738975,1134496,36,Man
83,617019,DepthScenes,duration_manipulation_targetAtFixation,jsons/v1_VE250_randls_16.json,http://54.235.29.9/FacialAge/BNav_EC2/DepthDuration/v2_depth_duration_MTurk/v2_DepthDuration_HTML.html#129,129,1280,601,1280,720,8-20-2022,9-38-38,84,depth_duration_stimuli/001650_2014-06-20_12-09-00_260595134347_rgbf000087-resize_3/001650_2014-06-20_12-09-00_260595134347_rgbf000087-resize_3-target.png,250,1.9505,5,2873,257,feet,jsons/v1_VE250_randls_16.json,738975,1134496,36,Man
84,617019,DepthScenes,duration_manipulation_targetAtFixation,jsons/v1_VE250_randls_16.json,http://54.235.29.9/FacialAge/BNav_EC2/DepthDuration/v2_depth_duration_MTurk/v2_DepthDuration_HTML.html#129,129,1280,601,1280,720,8-20-2022,9-38-38,85,depth_duration_stimuli/001570_2014-06-20_17-21-09_260595134347_rgbf000135-resize_4/001570_2014-06-20_17-21-09_260595134347_rgbf000135-resize_4-target.png,250,4.467,8,2896,248,feet,jsons/v1_VE250_randls_16.json,738975,1134496,36,Man
85,617019,DepthScenes,duration_manipulation_targetAtFixation,jsons/v1_VE250_randls_16.json,http://54.235.29.9/FacialAge/BNav_EC2/DepthDuration/v2_depth_duration_MTurk/v2_DepthDuration_HTML.html#129,129,1280,601,1280,720,8-20-2022,9-38-38,86,depth_duration_stimuli/001392_2014-06-19_16-07-59_260595134347_rgbf000046-resize_1/001392_2014-06-19_16-07-59_260595134347_rgbf000046-resize_1-target.png,250,4.135,8,3146,238,feet,jsons/v1_VE250_randls_16.json,738975,1134496,36,Man
86,617019,DepthScenes,duration_manipulation_targetAtFixation,jsons/v1_VE250_randls_16.json,http://54.235.29.9/FacialAge/BNav_EC2/DepthDuration/v2_depth_duration_MTurk/v2_DepthDuration_HTML.html#129,129,1280,601,1280,720,8-20-2022,9-38-38,87,depth_duration_stimuli/000447_2014-06-08_16-15-46_260595134347_rgbf000130-resize_1/000447_2014-06-08_16-15-46_260595134347_rgbf000130-resize_1-target.png,250,4.479,9,11344,258,feet,jsons/v1_VE250_randls_16.json,738975,1134496,36,Man
87,617019,DepthScenes,duration_manipulation_targetAtFixation,jsons/v1_VE250_randls_16.json,http://54.235.29.9/FacialAge/BNav_EC2/DepthDuration/v2_depth_duration_MTurk/v2_DepthDuration_HTML.html#129,129,1280,601,1280,720,8-20-2022,9-38-38,88,depth_duration_stimuli/001447_2014-06-19_17-00-32_260595134347_rgbf000082-resize_5/001447_2014-06-19_17-00-32_260595134347_rgbf000082-resize_5-target.png,250,4.13775,7,2658,241,feet,jsons/v1_VE250_randls_16.json,738975,1134496,36,Man
88,617019,DepthScenes,duration_manipulation_targetAtFixation,jsons/v1_VE250_randls_16.json,http://54.235.29.9/FacialAge/BNav_EC2/DepthDuration/v2_depth_duration_MTurk/v2_DepthDuration_HTML.html#129,129,1280,601,1280,720,8-20-2022,9-38-38,89,depth_duration_stimuli/001199_2014-06-17_16-03-48_260595134347_rgbf000077-resize_0/001199_2014-06-17_16-03-48_260595134347_rgbf000077-resize_0-target.png,250,3.4375,8,7431,245,feet,jsons/v1_VE250_randls_16.json,738975,1134496,36,Man
89,617019,DepthScenes,duration_manipulation_targetAtFixation,jsons/v1_VE250_randls_16.json,http://54.235.29.9/FacialAge/BNav_EC2/DepthDuration/v2_depth_duration_MTurk/v2_DepthDuration_HTML.html#129,129,1280,601,1280,720,8-20-2022,9-38-38,90,depth_duration_stimuli/000502_2014-06-08_23-02-32_260595134347_rgbf000063-resize_4/000502_2014-06-08_23-02-32_260595134347_rgbf000063-resize_4-target.png,250,2.431,6,3602,244,feet,jsons/v1_VE250_randls_16.json,738975,1134496,36,Man
90,617019,DepthScenes,duration_manipulation_targetAtFixation,jsons/v1_VE250_randls_16.json,http://54.235.29.9/FacialAge/BNav_EC2/DepthDuration/v2_depth_duration_MTurk/v2_DepthDuration_HTML.html#129,129,1280,601,1280,720,8-20-2022,9-38-38,91,depth_duration_stimuli/000368_2014-06-09_15-53-01_260595134347_rgbf000155-resize_2/000368_2014-06-09_15-53-01_260595134347_rgbf000155-resize_2-target.png,250,2.4859999999999998,5,2813,263,feet,jsons/v1_VE250_randls_16.json,738975,1134496,36,Man
91,617019,DepthScenes,duration_manipulation_targetAtFixation,jsons/v1_VE250_randls_16.json,http://54.235.29.9/FacialAge/BNav_EC2/DepthDuration/v2_depth_duration_MTurk/v2_DepthDuration_HTML.html#129,129,1280,601,1280,720,8-20-2022,9-38-38,92,depth_duration_stimuli/002678_2014-06-13_16-15-32_094959634447_rgbf000151-resize_6/002678_2014-06-13_16-15-32_094959634447_rgbf000151-resize_6-target.png,250,2.1830000000000003,8,2597,245,feet,jsons/v1_VE250_randls_16.json,738975,1134496,36,Man
92,617019,DepthScenes,duration_manipulation_targetAtFixation,jsons/v1_VE250_randls_16.json,http://54.235.29.9/FacialAge/BNav_EC2/DepthDuration/v2_depth_duration_MTurk/v2_DepthDuration_HTML.html#129,129,1280,601,1280,720,8-20-2022,9-38-38,93,depth_duration_stimuli/001244_2014-06-17_16-47-45_260595134347_rgbf000030-resize_4/001244_2014-06-17_16-47-45_260595134347_rgbf000030-resize_4-target.png,250,2.0425,7,2751,259,feet,jsons/v1_VE250_randls_16.json,738975,1134496,36,Man
93,617019,DepthScenes,duration_manipulation_targetAtFixation,jsons/v1_VE250_randls_16.json,http://54.235.29.9/FacialAge/BNav_EC2/DepthDuration/v2_depth_duration_MTurk/v2_DepthDuration_HTML.html#129,129,1280,601,1280,720,8-20-2022,9-38-38,94,depth_duration_stimuli/003495_2014-05-21_16-01-51_094959634447_rgbf000100-resize_3/003495_2014-05-21_16-01-51_094959634447_rgbf000100-resize_3-target.png,250,1.6255,7,4218,249,feet,jsons/v1_VE250_randls_16.json,738975,1134496,36,Man
94,617019,DepthScenes,duration_manipulation_targetAtFixation,jsons/v1_VE250_randls_16.json,http://54.235.29.9/FacialAge/BNav_EC2/DepthDuration/v2_depth_duration_MTurk/v2_DepthDuration_HTML.html#129,129,1280,601,1280,720,8-20-2022,9-38-38,95,depth_duration_stimuli/002039_2014-06-24_20-22-38_260595134347_rgbf000084-resize_1/002039_2014-06-24_20-22-38_260595134347_rgbf000084-resize_1-target.png,250,4.408,8,19848,268,feet,jsons/v1_VE250_randls_16.json,738975,1134496,36,Man
95,617019,DepthScenes,duration_manipulation_targetAtFixation,jsons/v1_VE250_randls_16.json,http://54.235.29.9/FacialAge/BNav_EC2/DepthDuration/v2_depth_duration_MTurk/v2_DepthDuration_HTML.html#129,129,1280,601,1280,720,8-20-2022,9-38-38,96,depth_duration_stimuli/002103_2014-06-25_20-00-40_260595134347_rgbf000049-resize_0/002103_2014-06-25_20-00-40_260595134347_rgbf000049-resize_0-target.png,250,4.105,8,2612,252,feet,jsons/v1_VE250_randls_16.json,738975,1134496,36,Man
96,617019,DepthScenes,duration_manipulation_targetAtFixation,jsons/v1_VE250_randls_16.json,http://54.235.29.9/FacialAge/BNav_EC2/DepthDuration/v2_depth_duration_MTurk/v2_DepthDuration_HTML.html#129,129,1280,601,1280,720,8-20-2022,9-38-38,97,depth_duration_stimuli/002988_2014-06-15_12-24-20_094959634447_rgbf000150-resize_1/002988_2014-06-15_12-24-20_094959634447_rgbf000150-resize_1-target.png,250,4.7669999999999995,9,2447,251,feet,jsons/v1_VE250_randls_16.json,738975,1134496,36,Man
97,617019,DepthScenes,duration_manipulation_targetAtFixation,jsons/v1_VE250_randls_16.json,http://54.235.29.9/FacialAge/BNav_EC2/DepthDuration/v2_depth_duration_MTurk/v2_DepthDuration_HTML.html#129,129,1280,601,1280,720,8-20-2022,9-38-38,98,depth_duration_stimuli/001052_2014-06-08_18-24-54_260595134347_rgbf000130-resize_1/001052_2014-06-08_18-24-54_260595134347_rgbf000130-resize_1-target.png,250,4.1045,8,2869,247,feet,jsons/v1_VE250_randls_16.json,738975,1134496,36,Man
98,617019,DepthScenes,duration_manipulation_targetAtFixation,jsons/v1_VE250_randls_16.json,http://54.235.29.9/FacialAge/BNav_EC2/DepthDuration/v2_depth_duration_MTurk/v2_DepthDuration_HTML.html#129,129,1280,601,1280,720,8-20-2022,9-38-38,99,depth_duration_stimuli/001540_2014-06-20_17-01-05_260595134347_rgbf000086-resize_2/001540_2014-06-20_17-01-05_260595134347_rgbf000086-resize-original.jpg,250,1.459,0,2705,254,feet,jsons/v1_VE250_randls_16.json,738975,1134496,36,Man
99,617019,DepthScenes,duration_manipulation_targetAtFixation,jsons/v1_VE250_randls_16.json,http://54.235.29.9/FacialAge/BNav_EC2/DepthDuration/v2_depth_duration_MTurk/v2_DepthDuration_HTML.html#129,129,1280,601,1280,720,8-20-2022,9-38-38,100,depth_duration_stimuli/000470_2014-06-09_19-42-40_260595134347_rgbf000094-resize_1/000470_2014-06-09_19-42-40_260595134347_rgbf000094-resize_1-target.png,250,1.831,8,9459,244,feet,jsons/v1_VE250_randls_16.json,738975,1134496,36,Man
100,617019,DepthScenes,duration_manipulation_targetAtFixation,jsons/v1_VE250_randls_16.json,http://54.235.29.9/FacialAge/BNav_EC2/DepthDuration/v2_depth_duration_MTurk/v2_DepthDuration_HTML.html#129,129,1280,601,1280,720,8-20-2022,9-38-38,101,depth_duration_stimuli/000109_2014-05-14_23-41-52_260595134347_rgbf000035-resize_9/000109_2014-05-14_23-41-52_260595134347_rgbf000035-resize_9-target.png,250,1.3545,5,2713,257,feet,jsons/v1_VE250_randls_16.json,738975,1134496,36,Man
101,617019,DepthScenes,duration_manipulation_targetAtFixation,jsons/v1_VE250_randls_16.json,http://54.235.29.9/FacialAge/BNav_EC2/DepthDuration/v2_depth_duration_MTurk/v2_DepthDuration_HTML.html#129,129,1280,601,1280,720,8-20-2022,9-38-38,102,depth_duration_stimuli/001806_2014-06-26_20-50-20_260595134347_rgbf000091-resize_1/001806_2014-06-26_20-50-20_260595134347_rgbf000091-resize_1-target.png,250,2.7305,7,3263,245,feet,jsons/v1_VE250_randls_16.json,738975,1134496,36,Man
102,617019,DepthScenes,duration_manipulation_targetAtFixation,jsons/v1_VE250_randls_16.json,http://54.235.29.9/FacialAge/BNav_EC2/DepthDuration/v2_depth_duration_MTurk/v2_DepthDuration_HTML.html#129,129,1280,601,1280,720,8-20-2022,9-38-38,103,depth_duration_stimuli/001617_2014-06-20_11-35-32_260595134347_rgbf000066-resize_1/001617_2014-06-20_11-35-32_260595134347_rgbf000066-resize_1-target.png,250,3.7910000000000004,8,6976,250,feet,jsons/v1_VE250_randls_16.json,738975,1134496,36,Man
103,617019,DepthScenes,duration_manipulation_targetAtFixation,jsons/v1_VE250_randls_16.json,http://54.235.29.9/FacialAge/BNav_EC2/DepthDuration/v2_depth_duration_MTurk/v2_DepthDuration_HTML.html#129,129,1280,601,1280,720,8-20-2022,9-38-38,104,depth_duration_stimuli/000929_2014-06-09_16-33-19_260595134347_rgbf000139-resize_0/000929_2014-06-09_16-33-19_260595134347_rgbf000139-resize_0-target.png,250,2.8680000000000003,7,2961,253,feet,jsons/v1_VE250_randls_16.json,738975,1134496,36,Man
104,617019,DepthScenes,duration_manipulation_targetAtFixation,jsons/v1_VE250_randls_16.json,http://54.235.29.9/FacialAge/BNav_EC2/DepthDuration/v2_depth_duration_MTurk/v2_DepthDuration_HTML.html#129,129,1280,601,1280,720,8-20-2022,9-38-38,105,depth_duration_stimuli/000457_2014-06-08_16-52-43_260595134347_rgbf000199-resize_1/000457_2014-06-08_16-52-43_260595134347_rgbf000199-resize_1-target.png,250,3.6489999999999996,8,3016,238,feet,jsons/v1_VE250_randls_16.json,738975,1134496,36,Man
105,617019,DepthScenes,duration_manipulation_targetAtFixation,jsons/v1_VE250_randls_16.json,http://54.235.29.9/FacialAge/BNav_EC2/DepthDuration/v2_depth_duration_MTurk/v2_DepthDuration_HTML.html#129,129,1280,601,1280,720,8-20-2022,9-38-38,106,depth_duration_stimuli/002989_2014-06-15_12-25-03_094959634447_rgbf000150-resize_3/002989_2014-06-15_12-25-03_094959634447_rgbf000150-resize_3-target.png,250,4.1975,8,2572,247,feet,jsons/v1_VE250_randls_16.json,738975,1134496,36,Man
106,617019,DepthScenes,duration_manipulation_targetAtFixation,jsons/v1_VE250_randls_16.json,http://54.235.29.9/FacialAge/BNav_EC2/DepthDuration/v2_depth_duration_MTurk/v2_DepthDuration_HTML.html#129,129,1280,601,1280,720,8-20-2022,9-38-38,107,depth_duration_stimuli/000866_2014-06-09_20-45-42_260595134347_rgbf000139-resize_1/000866_2014-06-09_20-45-42_260595134347_rgbf000139-resize_1-target.png,250,3.2155,7,2877,243,feet,jsons/v1_VE250_randls_16.json,738975,1134496,36,Man
107,617019,DepthScenes,duration_manipulation_targetAtFixation,jsons/v1_VE250_randls_16.json,http://54.235.29.9/FacialAge/BNav_EC2/DepthDuration/v2_depth_duration_MTurk/v2_DepthDuration_HTML.html#129,129,1280,601,1280,720,8-20-2022,9-38-38,108,depth_duration_stimuli/002279_2014-06-28_18-55-32_260595134347_rgbf000040-resize_5/002279_2014-06-28_18-55-32_260595134347_rgbf000040-resize_5-target.png,250,1.5043333333333,5,2997,257,feet,jsons/v1_VE250_randls_16.json,738975,1134496,36,Man
108,617019,DepthScenes,duration_manipulation_targetAtFixation,jsons/v1_VE250_randls_16.json,http://54.235.29.9/FacialAge/BNav_EC2/DepthDuration/v2_depth_duration_MTurk/v2_DepthDuration_HTML.html#129,129,1280,601,1280,720,8-20-2022,9-38-38,109,depth_duration_stimuli/000635_2014-06-08_16-38-42_260595134347_rgbf000106-resize_1/000635_2014-06-08_16-38-42_260595134347_rgbf000106-resize_1-target.png,250,2.074,6,3690,248,feet,jsons/v1_VE250_randls_16.json,738975,1134496,36,Man
109,617019,DepthScenes,duration_manipulation_targetAtFixation,jsons/v1_VE250_randls_16.json,http://54.235.29.9/FacialAge/BNav_EC2/DepthDuration/v2_depth_duration_MTurk/v2_DepthDuration_HTML.html#129,129,1280,601,1280,720,8-20-2022,9-38-38,110,depth_duration_stimuli/000739_2014-06-08_18-45-58_260595134347_rgbf000068-resize_1/000739_2014-06-08_18-45-58_260595134347_rgbf000068-resize_1-target.png,250,3.534,7,3196,246,feet,jsons/v1_VE250_randls_16.json,738975,1134496,36,Man
110,617019,DepthScenes,duration_manipulation_targetAtFixation,jsons/v1_VE250_randls_16.json,http://54.235.29.9/FacialAge/BNav_EC2/DepthDuration/v2_depth_duration_MTurk/v2_DepthDuration_HTML.html#129,129,1280,601,1280,720,8-20-2022,9-38-38,111,depth_duration_stimuli/000734_2014-06-08_17-39-11_260595134347_rgbf000128-resize_2/000734_2014-06-08_17-39-11_260595134347_rgbf000128-resize_2-target.png,250,4.098,8,2491,253,feet,jsons/v1_VE250_randls_16.json,738975,1134496,36,Man
111,617019,DepthScenes,duration_manipulation_targetAtFixation,jsons/v1_VE250_randls_16.json,http://54.235.29.9/FacialAge/BNav_EC2/DepthDuration/v2_depth_duration_MTurk/v2_DepthDuration_HTML.html#129,129,1280,601,1280,720,8-20-2022,9-38-38,112,depth_duration_stimuli/002043_2014-06-24_20-29-38_260595134347_rgbf000039-resize_4/002043_2014-06-24_20-29-38_260595134347_rgbf000039-resize_4-target.png,250,2.8435,6,2649,255,feet,jsons/v1_VE250_randls_16.json,738975,1134496,36,Man
112,617019,DepthScenes,duration_manipulation_targetAtFixation,jsons/v1_VE250_randls_16.json,http://54.235.29.9/FacialAge/BNav_EC2/DepthDuration/v2_depth_duration_MTurk/v2_DepthDuration_HTML.html#129,129,1280,601,1280,720,8-20-2022,9-38-38,113,depth_duration_stimuli/003048_2014-06-15_13-49-43_094959634447_rgbf000150-resize_1/003048_2014-06-15_13-49-43_094959634447_rgbf000150-resize_1-target.png,250,4.0035,9,2387,267,feet,jsons/v1_VE250_randls_16.json,738975,1134496,36,Man
113,617019,DepthScenes,duration_manipulation_targetAtFixation,jsons/v1_VE250_randls_16.json,http://54.235.29.9/FacialAge/BNav_EC2/DepthDuration/v2_depth_duration_MTurk/v2_DepthDuration_HTML.html#129,129,1280,601,1280,720,8-20-2022,9-38-38,114,depth_duration_stimuli/003534_2014-05-22_15-06-10_094959634447_rgbf000102-resize_4/003534_2014-05-22_15-06-10_094959634447_rgbf000102-resize_4-target.png,250,1.426,9,8858,253,feet,jsons/v1_VE250_randls_16.json,738975,1134496,36,Man
114,617019,DepthScenes,duration_manipulation_targetAtFixation,jsons/v1_VE250_randls_16.json,http://54.235.29.9/FacialAge/BNav_EC2/DepthDuration/v2_depth_duration_MTurk/v2_DepthDuration_HTML.html#129,129,1280,601,1280,720,8-20-2022,9-38-38,115,depth_duration_stimuli/002637_2014-06-24_14-51-13_094959634447_rgbf000066-resize_4/002637_2014-06-24_14-51-13_094959634447_rgbf000066-resize_4-target.png,250,1.9955,7,2711,253,feet,jsons/v1_VE250_randls_16.json,738975,1134496,36,Man
115,617019,DepthScenes,duration_manipulation_targetAtFixation,jsons/v1_VE250_randls_16.json,http://54.235.29.9/FacialAge/BNav_EC2/DepthDuration/v2_depth_duration_MTurk/v2_DepthDuration_HTML.html#129,129,1280,601,1280,720,8-20-2022,9-38-38,116,depth_duration_stimuli/001170_2014-06-17_15-43-44_260595134347_rgbf000096-resize_6/001170_2014-06-17_15-43-44_260595134347_rgbf000096-resize-original.jpg,250,1.1909999999999998,0,2526,256,feet,jsons/v1_VE250_randls_16.json,738975,1134496,36,Man
116,617019,DepthScenes,duration_manipulation_targetAtFixation,jsons/v1_VE250_randls_16.json,http://54.235.29.9/FacialAge/BNav_EC2/DepthDuration/v2_depth_duration_MTurk/v2_DepthDuration_HTML.html#129,129,1280,601,1280,720,8-20-2022,9-38-38,117,depth_duration_stimuli/002153_2014-06-25_21-27-18_260595134347_rgbf000038-resize_5/002153_2014-06-25_21-27-18_260595134347_rgbf000038-resize_5-target.png,250,2.505,8,2653,268,feet,jsons/v1_VE250_randls_16.json,738975,1134496,36,Man
117,617019,DepthScenes,duration_manipulation_targetAtFixation,jsons/v1_VE250_randls_16.json,http://54.235.29.9/FacialAge/BNav_EC2/DepthDuration/v2_depth_duration_MTurk/v2_DepthDuration_HTML.html#129,129,1280,601,1280,720,8-20-2022,9-38-38,118,depth_duration_stimuli/002660_2014-06-13_15-44-18_094959634447_rgbf001878-resize_2/002660_2014-06-13_15-44-18_094959634447_rgbf001878-resize_2-target.png,250,3.576,9,2490,252,feet,jsons/v1_VE250_randls_16.json,738975,1134496,36,Man
118,617019,DepthScenes,duration_manipulation_targetAtFixation,jsons/v1_VE250_randls_16.json,http://54.235.29.9/FacialAge/BNav_EC2/DepthDuration/v2_depth_duration_MTurk/v2_DepthDuration_HTML.html#129,129,1280,601,1280,720,8-20-2022,9-38-38,119,depth_duration_stimuli/001066_2014-06-08_22-03-20_260595134347_rgbf000066-resize_4/001066_2014-06-08_22-03-20_260595134347_rgbf000066-resize_4-target.png,250,4.2330000000000005,11,3079,233,feet,jsons/v1_VE250_randls_16.json,738975,1134496,36,Man
119,617019,DepthScenes,duration_manipulation_targetAtFixation,jsons/v1_VE250_randls_16.json,http://54.235.29.9/FacialAge/BNav_EC2/DepthDuration/v2_depth_duration_MTurk/v2_DepthDuration_HTML.html#129,129,1280,601,1280,720,8-20-2022,9-38-38,120,depth_duration_stimuli/000742_2014-06-08_18-48-09_260595134347_rgbf000164-resize_4/000742_2014-06-08_18-48-09_260595134347_rgbf000164-resize_4-target.png,250,4.632,11,4170,243,feet,jsons/v1_VE250_randls_16.json,738975,1134496,36,Man
120,617019,DepthScenes,duration_manipulation_targetAtFixation,jsons/v1_VE250_randls_16.json,http://54.235.29.9/FacialAge/BNav_EC2/DepthDuration/v2_depth_duration_MTurk/v2_DepthDuration_HTML.html#129,129,1280,601,1280,720,8-20-2022,9-38-38,121,depth_duration_stimuli/001092_2014-06-15_17-34-58_260595134347_rgbf000171-resize_3/001092_2014-06-15_17-34-58_260595134347_rgbf000171-resize_3-target.png,250,2.6935,5,3592,255,feet,jsons/v1_VE250_randls_16.json,738975,1134496,36,Man
121,617019,DepthScenes,duration_manipulation_targetAtFixation,jsons/v1_VE250_randls_16.json,http://54.235.29.9/FacialAge/BNav_EC2/DepthDuration/v2_depth_duration_MTurk/v2_DepthDuration_HTML.html#129,129,1280,601,1280,720,8-20-2022,9-38-38,122,depth_duration_stimuli/002545_2014-06-24_13-38-53_094959634447_rgbf000080-resize_4/002545_2014-06-24_13-38-53_094959634447_rgbf000080-resize_4-target.png,250,1.9205,6,3569,234,feet,jsons/v1_VE250_randls_16.json,738975,1134496,36,Man
122,617019,DepthScenes,duration_manipulation_targetAtFixation,jsons/v1_VE250_randls_16.json,http://54.235.29.9/FacialAge/BNav_EC2/DepthDuration/v2_depth_duration_MTurk/v2_DepthDuration_HTML.html#129,129,1280,601,1280,720,8-20-2022,9-38-38,123,depth_duration_stimuli/002964_2014-06-08_17-46-11_094959634447_rgbf000091-resize_4/002964_2014-06-08_17-46-11_094959634447_rgbf000091-resize_4-target.png,250,1.6909999999999998,6,4388,249,feet,jsons/v1_VE250_randls_16.json,738975,1134496,36,Man
123,617019,DepthScenes,duration_manipulation_targetAtFixation,jsons/v1_VE250_randls_16.json,http://54.235.29.9/FacialAge/BNav_EC2/DepthDuration/v2_depth_duration_MTurk/v2_DepthDuration_HTML.html#129,129,1280,601,1280,720,8-20-2022,9-38-38,124,depth_duration_stimuli/002136_2014-06-25_21-18-03_260595134347_rgbf000109-resize_3/002136_2014-06-25_21-18-03_260595134347_rgbf000109-resize_3-target.png,250,1.9569999999999999,6,2551,251,feet,jsons/v1_VE250_randls_16.json,738975,1134496,36,Man
124,617019,DepthScenes,duration_manipulation_targetAtFixation,jsons/v1_VE250_randls_16.json,http://54.235.29.9/FacialAge/BNav_EC2/DepthDuration/v2_depth_duration_MTurk/v2_DepthDuration_HTML.html#129,129,1280,601,1280,720,8-20-2022,9-38-38,125,depth_duration_stimuli/001055_2014-06-08_18-45-35_260595134347_rgbf000111-resize_4/001055_2014-06-08_18-45-35_260595134347_rgbf000111-resize_4-target.png,250,2.4290000000000003,12,3658,255,feet,jsons/v1_VE250_randls_16.json,738975,1134496,36,Man
125,617019,DepthScenes,duration_manipulation_targetAtFixation,jsons/v1_VE250_randls_16.json,http://54.235.29.9/FacialAge/BNav_EC2/DepthDuration/v2_depth_duration_MTurk/v2_DepthDuration_HTML.html#129,129,1280,601,1280,720,8-20-2022,9-38-38,126,depth_duration_stimuli/000549_2014-06-08_22-10-24_260595134347_rgbf000247-resize_3/000549_2014-06-08_22-10-24_260595134347_rgbf000247-resize_3-target.png,250,1.841,6,4941,234,feet,jsons/v1_VE250_randls_16.json,738975,1134496,36,Man
126,617019,DepthScenes,duration_manipulation_targetAtFixation,jsons/v1_VE250_randls_16.json,http://54.235.29.9/FacialAge/BNav_EC2/DepthDuration/v2_depth_duration_MTurk/v2_DepthDuration_HTML.html#129,129,1280,601,1280,720,8-20-2022,9-38-38,127,depth_duration_stimuli/001011_2014-06-08_23-18-54_260595134347_rgbf000044-resize_4/001011_2014-06-08_23-18-54_260595134347_rgbf000044-resize_4-target.png,250,2.4730000000000003,9,2613,258,feet,jsons/v1_VE250_randls_16.json,738975,1134496,36,Man
127,617019,DepthScenes,duration_manipulation_targetAtFixation,jsons/v1_VE250_randls_16.json,http://54.235.29.9/FacialAge/BNav_EC2/DepthDuration/v2_depth_duration_MTurk/v2_DepthDuration_HTML.html#129,129,1280,601,1280,720,8-20-2022,9-38-38,128,depth_duration_stimuli/002875_2014-06-01_15-19-00_094959634447_rgbf000151-resize_1/002875_2014-06-01_15-19-00_094959634447_rgbf000151-resize_1-target.png,250,1.9675,5,46664,259,feet,jsons/v1_VE250_randls_16.json,738975,1134496,36,Man
128,617019,DepthScenes,duration_manipulation_targetAtFixation,jsons/v1_VE250_randls_16.json,http://54.235.29.9/FacialAge/BNav_EC2/DepthDuration/v2_depth_duration_MTurk/v2_DepthDuration_HTML.html#129,129,1280,601,1280,720,8-20-2022,9-38-38,129,depth_duration_stimuli/002784_2014-06-22_19-26-30_094959634447_rgbf000083-resize_3/002784_2014-06-22_19-26-30_094959634447_rgbf000083-resize_3-target.png,250,1.8046666666667,5,1943,263,feet,jsons/v1_VE250_randls_16.json,738975,1134496,36,Man
129,617019,DepthScenes,duration_manipulation_targetAtFixation,jsons/v1_VE250_randls_16.json,http://54.235.29.9/FacialAge/BNav_EC2/DepthDuration/v2_depth_duration_MTurk/v2_DepthDuration_HTML.html#129,129,1280,601,1280,720,8-20-2022,9-38-38,130,depth_duration_stimuli/001100_2014-06-15_17-46-26_260595134347_rgbf000225-resize_2/001100_2014-06-15_17-46-26_260595134347_rgbf000225-resize_2-target.png,250,2.24,6,2257,256,feet,jsons/v1_VE250_randls_16.json,738975,1134496,36,Man
130,617019,DepthScenes,duration_manipulation_targetAtFixation,jsons/v1_VE250_randls_16.json,http://54.235.29.9/FacialAge/BNav_EC2/DepthDuration/v2_depth_duration_MTurk/v2_DepthDuration_HTML.html#129,129,1280,601,1280,720,8-20-2022,9-38-38,131,depth_duration_stimuli/001056_2014-06-08_18-46-44_260595134347_rgbf000068-resize_0/001056_2014-06-08_18-46-44_260595134347_rgbf000068-resize_0-target.png,250,2.6625,0,2340,245,feet,jsons/v1_VE250_randls_16.json,738975,1134496,36,Man
131,617019,DepthScenes,duration_manipulation_targetAtFixation,jsons/v1_VE250_randls_16.json,http://54.235.29.9/FacialAge/BNav_EC2/DepthDuration/v2_depth_duration_MTurk/v2_DepthDuration_HTML.html#129,129,1280,601,1280,720,8-20-2022,9-38-38,132,depth_duration_stimuli/002199_2014-06-28_18-33-56_260595134347_rgbf000074-resize_0/002199_2014-06-28_18-33-56_260595134347_rgbf000074-resize_0-target.png,250,1.996,6,3997,264,feet,jsons/v1_VE250_randls_16.json,738975,1134496,36,Man
132,617019,DepthScenes,duration_manipulation_targetAtFixation,jsons/v1_VE250_randls_16.json,http://54.235.29.9/FacialAge/BNav_EC2/DepthDuration/v2_depth_duration_MTurk/v2_DepthDuration_HTML.html#129,129,1280,601,1280,720,8-20-2022,9-38-38,133,depth_duration_stimuli/002509_2014-06-24_13-19-22_094959634447_rgbf000077-resize_0/002509_2014-06-24_13-19-22_094959634447_rgbf000077-resize_0-target.png,250,1.3065,5,2013,258,feet,jsons/v1_VE250_randls_16.json,738975,1134496,36,Man
133,617019,DepthScenes,duration_manipulation_targetAtFixation,jsons/v1_VE250_randls_16.json,http://54.235.29.9/FacialAge/BNav_EC2/DepthDuration/v2_depth_duration_MTurk/v2_DepthDuration_HTML.html#129,129,1280,601,1280,720,8-20-2022,9-38-38,134,depth_duration_stimuli/003338_2014-05-20_11-01-23_094959634447_rgbf000051-resize_6/003338_2014-05-20_11-01-23_094959634447_rgbf000051-resize_6-target.png,250,1.693,5,1726,248,feet,jsons/v1_VE250_randls_16.json,738975,1134496,36,Man
134,617019,DepthScenes,duration_manipulation_targetAtFixation,jsons/v1_VE250_randls_16.json,http://54.235.29.9/FacialAge/BNav_EC2/DepthDuration/v2_depth_duration_MTurk/v2_DepthDuration_HTML.html#129,129,1280,601,1280,720,8-20-2022,9-38-38,135,depth_duration_stimuli/002072_2014-06-24_21-48-06_260595134347_rgbf000115-resize_0/002072_2014-06-24_21-48-06_260595134347_rgbf000115-resize-original.jpg,250,4.702,0,2210,249,feet,jsons/v1_VE250_randls_16.json,738975,1134496,36,Man
135,617019,DepthScenes,duration_manipulation_targetAtFixation,jsons/v1_VE250_randls_16.json,http://54.235.29.9/FacialAge/BNav_EC2/DepthDuration/v2_depth_duration_MTurk/v2_DepthDuration_HTML.html#129,129,1280,601,1280,720,8-20-2022,9-38-38,136,depth_duration_stimuli/002630_2014-06-24_14-47-50_094959634447_rgbf000055-resize_1/002630_2014-06-24_14-47-50_094959634447_rgbf000055-resize_1-target.png,250,3.0095,11,2645,245,feet,jsons/v1_VE250_randls_16.json,738975,1134496,36,Man
136,617019,DepthScenes,duration_manipulation_targetAtFixation,jsons/v1_VE250_randls_16.json,http://54.235.29.9/FacialAge/BNav_EC2/DepthDuration/v2_depth_duration_MTurk/v2_DepthDuration_HTML.html#129,129,1280,601,1280,720,8-20-2022,9-38-38,137,depth_duration_stimuli/002758_2014-06-22_19-11-20_094959634447_rgbf000128-resize_1/002758_2014-06-22_19-11-20_094959634447_rgbf000128-resize_1-target.png,250,2.555,7,5772,244,feet,jsons/v1_VE250_randls_16.json,738975,1134496,36,Man
137,617019,DepthScenes,duration_manipulation_targetAtFixation,jsons/v1_VE250_randls_16.json,http://54.235.29.9/FacialAge/BNav_EC2/DepthDuration/v2_depth_duration_MTurk/v2_DepthDuration_HTML.html#129,129,1280,601,1280,720,8-20-2022,9-38-38,138,depth_duration_stimuli/000906_2014-06-08_13-35-43_260595134347_rgbf000155-resize_1/000906_2014-06-08_13-35-43_260595134347_rgbf000155-resize_1-target.png,250,2.8489999999999998,11,2707,237,feet,jsons/v1_VE250_randls_16.json,738975,1134496,36,Man
138,617019,DepthScenes,duration_manipulation_targetAtFixation,jsons/v1_VE250_randls_16.json,http://54.235.29.9/FacialAge/BNav_EC2/DepthDuration/v2_depth_duration_MTurk/v2_DepthDuration_HTML.html#129,129,1280,601,1280,720,8-20-2022,9-38-38,139,depth_duration_stimuli/002805_2014-06-22_19-54-03_094959634447_rgbf000079-resize_1/002805_2014-06-22_19-54-03_094959634447_rgbf000079-resize_1-target.png,250,3.1439999999999997,12,2081,248,feet,jsons/v1_VE250_randls_16.json,738975,1134496,36,Man
139,617019,DepthScenes,duration_manipulation_targetAtFixation,jsons/v1_VE250_randls_16.json,http://54.235.29.9/FacialAge/BNav_EC2/DepthDuration/v2_depth_duration_MTurk/v2_DepthDuration_HTML.html#129,129,1280,601,1280,720,8-20-2022,9-38-38,140,depth_duration_stimuli/002118_2014-06-25_20-32-08_260595134347_rgbf000078-resize_1/002118_2014-06-25_20-32-08_260595134347_rgbf000078-resize_1-target.png,250,2.6460000000000004,7,2734,244,feet,jsons/v1_VE250_randls_16.json,738975,1134496,36,Man
140,617019,DepthScenes,duration_manipulation_targetAtFixation,jsons/v1_VE250_randls_16.json,http://54.235.29.9/FacialAge/BNav_EC2/DepthDuration/v2_depth_duration_MTurk/v2_DepthDuration_HTML.html#129,129,1280,601,1280,720,8-20-2022,9-38-38,141,depth_duration_stimuli/001516_2014-06-20_16-25-09_260595134347_rgbf000076-resize_2/001516_2014-06-20_16-25-09_260595134347_rgbf000076-resize_2-target.png,250,1.7445,7,2399,251,feet,jsons/v1_VE250_randls_16.json,738975,1134496,36,Man
141,617019,DepthScenes,duration_manipulation_targetAtFixation,jsons/v1_VE250_randls_16.json,http://54.235.29.9/FacialAge/BNav_EC2/DepthDuration/v2_depth_duration_MTurk/v2_DepthDuration_HTML.html#129,129,1280,601,1280,720,8-20-2022,9-38-38,142,depth_duration_stimuli/002600_2014-06-24_14-27-04_094959634447_rgbf000074-resize_2/002600_2014-06-24_14-27-04_094959634447_rgbf000074-resize_2-target.png,250,2.7575,9,2199,256,feet,jsons/v1_VE250_randls_16.json,738975,1134496,36,Man
142,617019,DepthScenes,duration_manipulation_targetAtFixation,jsons/v1_VE250_randls_16.json,http://54.235.29.9/FacialAge/BNav_EC2/DepthDuration/v2_depth_duration_MTurk/v2_DepthDuration_HTML.html#129,129,1280,601,1280,720,8-20-2022,9-38-38,143,depth_duration_stimuli/003228_2014-05-14_13-42-35_094959634447_rgbf000101-resize_1/003228_2014-05-14_13-42-35_094959634447_rgbf000101-resize_1-target.png,250,1.9680000000000002,7,2542,246,feet,jsons/v1_VE250_randls_16.json,738975,1134496,36,Man
143,617019,DepthScenes,duration_manipulation_targetAtFixation,jsons/v1_VE250_randls_16.json,http://54.235.29.9/FacialAge/BNav_EC2/DepthDuration/v2_depth_duration_MTurk/v2_DepthDuration_HTML.html#129,129,1280,601,1280,720,8-20-2022,9-38-38,144,depth_duration_stimuli/000788_2014-06-08_22-34-36_260595134347_rgbf000131-resize_1/000788_2014-06-08_22-34-36_260595134347_rgbf000131-resize_1-target.png,250,3.359,8,2421,263,feet,jsons/v1_VE250_randls_16.json,738975,1134496,36,Man
144,617019,DepthScenes,duration_manipulation_targetAtFixation,jsons/v1_VE250_randls_16.json,http://54.235.29.9/FacialAge/BNav_EC2/DepthDuration/v2_depth_duration_MTurk/v2_DepthDuration_HTML.html#129,129,1280,601,1280,720,8-20-2022,9-38-38,145,depth_duration_stimuli/001235_2014-06-17_16-37-36_260595134347_rgbf000084-resize_4/001235_2014-06-17_16-37-36_260595134347_rgbf000084-resize_4-target.png,250,3.6605,9,2471,243,feet,jsons/v1_VE250_randls_16.json,738975,1134496,36,Man
145,617019,DepthScenes,duration_manipulation_targetAtFixation,jsons/v1_VE250_randls_16.json,http://54.235.29.9/FacialAge/BNav_EC2/DepthDuration/v2_depth_duration_MTurk/v2_DepthDuration_HTML.html#129,129,1280,601,1280,720,8-20-2022,9-38-38,146,depth_duration_stimuli/001498_2014-06-19_17-45-14_260595134347_rgbf000129-resize_4/001498_2014-06-19_17-45-14_260595134347_rgbf000129-resize-original.jpg,250,1.4075,8,3108,254,feet,jsons/v1_VE250_randls_16.json,738975,1134496,36,Man
146,617019,DepthScenes,duration_manipulation_targetAtFixation,jsons/v1_VE250_randls_16.json,http://54.235.29.9/FacialAge/BNav_EC2/DepthDuration/v2_depth_duration_MTurk/v2_DepthDuration_HTML.html#129,129,1280,601,1280,720,8-20-2022,9-38-38,147,depth_duration_stimuli/001417_2014-06-19_16-25-36_260595134347_rgbf000115-resize_5/001417_2014-06-19_16-25-36_260595134347_rgbf000115-resize_5-target.png,250,4.6255,9,1838,259,feet,jsons/v1_VE250_randls_16.json,738975,1134496,36,Man
147,617019,DepthScenes,duration_manipulation_targetAtFixation,jsons/v1_VE250_randls_16.json,http://54.235.29.9/FacialAge/BNav_EC2/DepthDuration/v2_depth_duration_MTurk/v2_DepthDuration_HTML.html#129,129,1280,601,1280,720,8-20-2022,9-38-38,148,depth_duration_stimuli/003081_2014-06-15_15-19-16_094959634447_rgbf000150-resize_1/003081_2014-06-15_15-19-16_094959634447_rgbf000150-resize_1-target.png,250,3.9125,10,2725,250,feet,jsons/v1_VE250_randls_16.json,738975,1134496,36,Man
148,617019,DepthScenes,duration_manipulation_targetAtFixation,jsons/v1_VE250_randls_16.json,http://54.235.29.9/FacialAge/BNav_EC2/DepthDuration/v2_depth_duration_MTurk/v2_DepthDuration_HTML.html#129,129,1280,601,1280,720,8-20-2022,9-38-38,149,depth_duration_stimuli/002905_2014-06-03_18-04-43_094959634447_rgbf000151-resize_2/002905_2014-06-03_18-04-43_094959634447_rgbf000151-resize_2-target.png,250,2.0295,6,2512,245,feet,jsons/v1_VE250_randls_16.json,738975,1134496,36,Man
149,617019,DepthScenes,duration_manipulation_targetAtFixation,jsons/v1_VE250_randls_16.json,http://54.235.29.9/FacialAge/BNav_EC2/DepthDuration/v2_depth_duration_MTurk/v2_DepthDuration_HTML.html#129,129,1280,601,1280,720,8-20-2022,9-38-38,150,depth_duration_stimuli/003423_2014-05-21_10-23-26_094959634447_rgbf002665-resize_2/003423_2014-05-21_10-23-26_094959634447_rgbf002665-resize_2-target.png,250,3.2575,9,2631,256,feet,jsons/v1_VE250_randls_16.json,738975,1134496,36,Man
150,617019,DepthScenes,duration_manipulation_targetAtFixation,jsons/v1_VE250_randls_16.json,http://54.235.29.9/FacialAge/BNav_EC2/DepthDuration/v2_depth_duration_MTurk/v2_DepthDuration_HTML.html#129,129,1280,601,1280,720,8-20-2022,9-38-38,151,depth_duration_stimuli/000692_2014-06-08_13-09-42_260595134347_rgbf000199-resize_2/000692_2014-06-08_13-09-42_260595134347_rgbf000199-resize_2-target.png,250,3.661,13,2669,249,feet,jsons/v1_VE250_randls_16.json,738975,1134496,36,Man
151,617019,DepthScenes,duration_manipulation_targetAtFixation,jsons/v1_VE250_randls_16.json,http://54.235.29.9/FacialAge/BNav_EC2/DepthDuration/v2_depth_duration_MTurk/v2_DepthDuration_HTML.html#129,129,1280,601,1280,720,8-20-2022,9-38-38,152,depth_duration_stimuli/001094_2014-06-15_17-36-00_260595134347_rgbf000205-resize_0/001094_2014-06-15_17-36-00_260595134347_rgbf000205-resize_0-target.png,250,4.2175,11,2156,243,feet,jsons/v1_VE250_randls_16.json,738975,1134496,36,Man
152,617019,DepthScenes,duration_manipulation_targetAtFixation,jsons/v1_VE250_randls_16.json,http://54.235.29.9/FacialAge/BNav_EC2/DepthDuration/v2_depth_duration_MTurk/v2_DepthDuration_HTML.html#129,129,1280,601,1280,720,8-20-2022,9-38-38,153,depth_duration_stimuli/002445_2014-06-28_20-32-16_260595134347_rgbf000029-resize_4/002445_2014-06-28_20-32-16_260595134347_rgbf000029-resize_4-target.png,250,2.5315,5,3472,250,feet,jsons/v1_VE250_randls_16.json,738975,1134496,36,Man
153,617019,DepthScenes,duration_manipulation_targetAtFixation,jsons/v1_VE250_randls_16.json,http://54.235.29.9/FacialAge/BNav_EC2/DepthDuration/v2_depth_duration_MTurk/v2_DepthDuration_HTML.html#129,129,1280,601,1280,720,8-20-2022,9-38-38,154,depth_duration_stimuli/000780_2014-06-08_22-28-29_260595134347_rgbf000126-resize_1/000780_2014-06-08_22-28-29_260595134347_rgbf000126-resize_1-target.png,250,3.3825,11,2473,243,feet,jsons/v1_VE250_randls_16.json,738975,1134496,36,Man
154,617019,DepthScenes,duration_manipulation_targetAtFixation,jsons/v1_VE250_randls_16.json,http://54.235.29.9/FacialAge/BNav_EC2/DepthDuration/v2_depth_duration_MTurk/v2_DepthDuration_HTML.html#129,129,1280,601,1280,720,8-20-2022,9-38-38,155,depth_duration_stimuli/000773_2014-06-08_22-24-54_260595134347_rgbf000093-resize_1/000773_2014-06-08_22-24-54_260595134347_rgbf000093-resize_1-target.png,250,4.973,13,2633,249,feet,jsons/v1_VE250_randls_16.json,738975,1134496,36,Man
155,617019,DepthScenes,duration_manipulation_targetAtFixation,jsons/v1_VE250_randls_16.json,http://54.235.29.9/FacialAge/BNav_EC2/DepthDuration/v2_depth_duration_MTurk/v2_DepthDuration_HTML.html#129,129,1280,601,1280,720,8-20-2022,9-38-38,156,depth_duration_stimuli/002414_2014-06-28_20-24-58_260595134347_rgbf000067-resize_4/002414_2014-06-28_20-24-58_260595134347_rgbf000067-resize_4-target.png,250,4.363,12,2902,247,feet,jsons/v1_VE250_randls_16.json,738975,1134496,36,Man
156,617019,DepthScenes,duration_manipulation_targetAtFixation,jsons/v1_VE250_randls_16.json,http://54.235.29.9/FacialAge/BNav_EC2/DepthDuration/v2_depth_duration_MTurk/v2_DepthDuration_HTML.html#129,129,1280,601,1280,720,8-20-2022,9-38-38,157,depth_duration_stimuli/000486_2014-06-09_20-47-20_260595134347_rgbf000143-resize_2/000486_2014-06-09_20-47-20_260595134347_rgbf000143-resize_2-target.png,250,4.8325,12,2351,247,feet,jsons/v1_VE250_randls_16.json,738975,1134496,36,Man
157,617019,DepthScenes,duration_manipulation_targetAtFixation,jsons/v1_VE250_randls_16.json,http://54.235.29.9/FacialAge/BNav_EC2/DepthDuration/v2_depth_duration_MTurk/v2_DepthDuration_HTML.html#129,129,1280,601,1280,720,8-20-2022,9-38-38,158,depth_duration_stimuli/003083_2014-06-15_15-21-03_094959634447_rgbf000063-resize_1/003083_2014-06-15_15-21-03_094959634447_rgbf000063-resize_1-target.png,250,4.1405,12,2385,249,feet,jsons/v1_VE250_randls_16.json,738975,1134496,36,Man
158,617019,DepthScenes,duration_manipulation_targetAtFixation,jsons/v1_VE250_randls_16.json,http://54.235.29.9/FacialAge/BNav_EC2/DepthDuration/v2_depth_duration_MTurk/v2_DepthDuration_HTML.html#129,129,1280,601,1280,720,8-20-2022,9-38-38,159,depth_duration_stimuli/002549_2014-06-24_13-41-39_094959634447_rgbf000022-resize_3/002549_2014-06-24_13-41-39_094959634447_rgbf000022-resize_3-target.png,250,1.476,6,2469,257,feet,jsons/v1_VE250_randls_16.json,738975,1134496,36,Man
159,617019,DepthScenes,duration_manipulation_targetAtFixation,jsons/v1_VE250_randls_16.json,http://54.235.29.9/FacialAge/BNav_EC2/DepthDuration/v2_depth_duration_MTurk/v2_DepthDuration_HTML.html#129,129,1280,601,1280,720,8-20-2022,9-38-38,160,depth_duration_stimuli/002750_2014-06-22_19-08-03_094959634447_rgbf000094-resize_4/002750_2014-06-22_19-08-03_094959634447_rgbf000094-resize_4-target.png,250,2.354,6,2234,239,feet,jsons/v1_VE250_randls_16.json,738975,1134496,36,Man
160,617019,DepthScenes,duration_manipulation_targetAtFixation,jsons/v1_VE250_randls_16.json,http://54.235.29.9/FacialAge/BNav_EC2/DepthDuration/v2_depth_duration_MTurk/v2_DepthDuration_HTML.html#129,129,1280,601,1280,720,8-20-2022,9-38-38,161,depth_duration_stimuli/003621_2014-05-23_18-06-08_094959634447_rgbf000101-resize_1/003621_2014-05-23_18-06-08_094959634447_rgbf000101-resize_1-target.png,250,3.9835,8,2567,257,feet,jsons/v1_VE250_randls_16.json,738975,1134496,36,Man
161,617019,DepthScenes,duration_manipulation_targetAtFixation,jsons/v1_VE250_randls_16.json,http://54.235.29.9/FacialAge/BNav_EC2/DepthDuration/v2_depth_duration_MTurk/v2_DepthDuration_HTML.html#129,129,1280,601,1280,720,8-20-2022,9-38-38,162,depth_duration_stimuli/001584_2014-06-20_11-07-43_260595134347_rgbf000002-resize_1/001584_2014-06-20_11-07-43_260595134347_rgbf000002-resize_1-target.png,250,3.53,9,2390,244,feet,jsons/v1_VE250_randls_16.json,738975,1134496,36,Man
162,617019,DepthScenes,duration_manipulation_targetAtFixation,jsons/v1_VE250_randls_16.json,http://54.235.29.9/FacialAge/BNav_EC2/DepthDuration/v2_depth_duration_MTurk/v2_DepthDuration_HTML.html#129,129,1280,601,1280,720,8-20-2022,9-38-38,163,depth_duration_stimuli/002725_2014-06-22_11-47-51_094959634447_rgbf000070-resize_1/002725_2014-06-22_11-47-51_094959634447_rgbf000070-resize_1-target.png,250,2.195,7,3110,248,feet,jsons/v1_VE250_randls_16.json,738975,1134496,36,Man
163,617019,DepthScenes,duration_manipulation_targetAtFixation,jsons/v1_VE250_randls_16.json,http://54.235.29.9/FacialAge/BNav_EC2/DepthDuration/v2_depth_duration_MTurk/v2_DepthDuration_HTML.html#129,129,1280,601,1280,720,8-20-2022,9-38-38,164,depth_duration_stimuli/002344_2014-06-28_20-06-29_260595134347_rgbf000030-resize_1/002344_2014-06-28_20-06-29_260595134347_rgbf000030-resize_1-target.png,250,1.5795,5,2545,253,feet,jsons/v1_VE250_randls_16.json,738975,1134496,36,Man
