,subjID,experimentName,versionName,sequenceName,url,selected_row,windowWidth,windowHeight,screenWidth,screenHeight,startDate,startTime,trial,stimulus,duration,actual_depth,depth_estimate,trial_RT,log_sceneDuration,unitSelection,seq_filepath,experimentTime,totalTime,age,gender
0,618256,DepthScenes,duration_manipulation_targetAtFixation,jsons/VE125_randls_12_rotated.json,http://54.235.29.9/FacialAge/BNav_EC2/DepthDuration/v2_depth_duration_MTurk/v2_DepthDuration_HTML.html#226,226,1873,961,1920,1080,8-30-2022,8-5-24,1,depth_duration_stimuli/001235_2014-06-17_16-37-36_260595134347_rgbf000084-resize_4/001235_2014-06-17_16-37-36_260595134347_rgbf000084-resize_4-target.png,125,3.6605,0,3508,125,feet,jsons/VE125_randls_12_rotated.json,635054,821854,55,Woman
1,618256,DepthScenes,duration_manipulation_targetAtFixation,jsons/VE125_randls_12_rotated.json,http://54.235.29.9/FacialAge/BNav_EC2/DepthDuration/v2_depth_duration_MTurk/v2_DepthDuration_HTML.html#226,226,1873,961,1920,1080,8-30-2022,8-5-24,2,depth_duration_stimuli/000788_2014-06-08_22-34-36_260595134347_rgbf000131-resize_1/000788_2014-06-08_22-34-36_260595134347_rgbf000131-resize_1-target.png,125,3.359,0,3220,109,feet,jsons/VE125_randls_12_rotated.json,635054,821854,55,Woman
2,618256,DepthScenes,duration_manipulation_targetAtFixation,jsons/VE125_randls_12_rotated.json,http://54.235.29.9/FacialAge/BNav_EC2/DepthDuration/v2_depth_duration_MTurk/v2_DepthDuration_HTML.html#226,226,1873,961,1920,1080,8-30-2022,8-5-24,3,depth_duration_stimuli/000927_2014-06-09_16-32-30_260595134347_rgbf000123-resize_3/000927_2014-06-09_16-32-30_260595134347_rgbf000123-resize_3-target.png,125,2.6785,5,4564,134,feet,jsons/VE125_randls_12_rotated.json,635054,821854,55,Woman
3,618256,DepthScenes,duration_manipulation_targetAtFixation,jsons/VE125_randls_12_rotated.json,http://54.235.29.9/FacialAge/BNav_EC2/DepthDuration/v2_depth_duration_MTurk/v2_DepthDuration_HTML.html#226,226,1873,961,1920,1080,8-30-2022,8-5-24,4,depth_duration_stimuli/001110_2014-06-15_17-25-28_260595134347_rgbf000150-resize_1/001110_2014-06-15_17-25-28_260595134347_rgbf000150-resize_1-target.png,125,1.7115,6,5417,132,feet,jsons/VE125_randls_12_rotated.json,635054,821854,55,Woman
4,618256,DepthScenes,duration_manipulation_targetAtFixation,jsons/VE125_randls_12_rotated.json,http://54.235.29.9/FacialAge/BNav_EC2/DepthDuration/v2_depth_duration_MTurk/v2_DepthDuration_HTML.html#226,226,1873,961,1920,1080,8-30-2022,8-5-24,5,depth_duration_stimuli/000483_2014-06-09_20-41-45_260595134347_rgbf000116-resize_4/000483_2014-06-09_20-41-45_260595134347_rgbf000116-resize_4-target.png,125,1.337,2,4404,127,feet,jsons/VE125_randls_12_rotated.json,635054,821854,55,Woman
5,618256,DepthScenes,duration_manipulation_targetAtFixation,jsons/VE125_randls_12_rotated.json,http://54.235.29.9/FacialAge/BNav_EC2/DepthDuration/v2_depth_duration_MTurk/v2_DepthDuration_HTML.html#226,226,1873,961,1920,1080,8-30-2022,8-5-24,6,depth_duration_stimuli/000469_2014-06-09_19-42-10_260595134347_rgbf000081-resize_1/000469_2014-06-09_19-42-10_260595134347_rgbf000081-resize_1-target.png,125,1.652,3,3931,130,feet,jsons/VE125_randls_12_rotated.json,635054,821854,55,Woman
6,618256,DepthScenes,duration_manipulation_targetAtFixation,jsons/VE125_randls_12_rotated.json,http://54.235.29.9/FacialAge/BNav_EC2/DepthDuration/v2_depth_duration_MTurk/v2_DepthDuration_HTML.html#226,226,1873,961,1920,1080,8-30-2022,8-5-24,7,depth_duration_stimuli/001815_2014-06-26_20-52-55_260595134347_rgbf000020-resize_0/001815_2014-06-26_20-52-55_260595134347_rgbf000020-resize_0-target.png,125,3.3865,6,3386,127,feet,jsons/VE125_randls_12_rotated.json,635054,821854,55,Woman
7,618256,DepthScenes,duration_manipulation_targetAtFixation,jsons/VE125_randls_12_rotated.json,http://54.235.29.9/FacialAge/BNav_EC2/DepthDuration/v2_depth_duration_MTurk/v2_DepthDuration_HTML.html#226,226,1873,961,1920,1080,8-30-2022,8-5-24,8,depth_duration_stimuli/001808_2014-06-26_20-50-58_260595134347_rgbf000029-resize_1/001808_2014-06-26_20-50-58_260595134347_rgbf000029-resize_1-target.png,125,4.249,8,3659,124,feet,jsons/VE125_randls_12_rotated.json,635054,821854,55,Woman
8,618256,DepthScenes,duration_manipulation_targetAtFixation,jsons/VE125_randls_12_rotated.json,http://54.235.29.9/FacialAge/BNav_EC2/DepthDuration/v2_depth_duration_MTurk/v2_DepthDuration_HTML.html#226,226,1873,961,1920,1080,8-30-2022,8-5-24,9,depth_duration_stimuli/000734_2014-06-08_17-39-11_260595134347_rgbf000128-resize_2/000734_2014-06-08_17-39-11_260595134347_rgbf000128-resize_2-target.png,125,4.098,6,4714,115,feet,jsons/VE125_randls_12_rotated.json,635054,821854,55,Woman
9,618256,DepthScenes,duration_manipulation_targetAtFixation,jsons/VE125_randls_12_rotated.json,http://54.235.29.9/FacialAge/BNav_EC2/DepthDuration/v2_depth_duration_MTurk/v2_DepthDuration_HTML.html#226,226,1873,961,1920,1080,8-30-2022,8-5-24,10,depth_duration_stimuli/000739_2014-06-08_18-45-58_260595134347_rgbf000068-resize_1/000739_2014-06-08_18-45-58_260595134347_rgbf000068-resize_1-target.png,125,3.534,5,4497,116,feet,jsons/VE125_randls_12_rotated.json,635054,821854,55,Woman
10,618256,DepthScenes,duration_manipulation_targetAtFixation,jsons/VE125_randls_12_rotated.json,http://54.235.29.9/FacialAge/BNav_EC2/DepthDuration/v2_depth_duration_MTurk/v2_DepthDuration_HTML.html#226,226,1873,961,1920,1080,8-30-2022,8-5-24,11,depth_duration_stimuli/001032_2014-06-08_13-23-17_260595134347_rgbf000021-resize_3/001032_2014-06-08_13-23-17_260595134347_rgbf000021-resize_3-target.png,125,3.2725,4,3946,127,feet,jsons/VE125_randls_12_rotated.json,635054,821854,55,Woman
11,618256,DepthScenes,duration_manipulation_targetAtFixation,jsons/VE125_randls_12_rotated.json,http://54.235.29.9/FacialAge/BNav_EC2/DepthDuration/v2_depth_duration_MTurk/v2_DepthDuration_HTML.html#226,226,1873,961,1920,1080,8-30-2022,8-5-24,12,depth_duration_stimuli/001059_2014-06-08_21-53-27_260595134347_rgbf000061-resize_4/001059_2014-06-08_21-53-27_260595134347_rgbf000061-resize_4-target.png,125,2.4185,4,3134,124,feet,jsons/VE125_randls_12_rotated.json,635054,821854,55,Woman
12,618256,DepthScenes,duration_manipulation_targetAtFixation,jsons/VE125_randls_12_rotated.json,http://54.235.29.9/FacialAge/BNav_EC2/DepthDuration/v2_depth_duration_MTurk/v2_DepthDuration_HTML.html#226,226,1873,961,1920,1080,8-30-2022,8-5-24,13,depth_duration_stimuli/001447_2014-06-19_17-00-32_260595134347_rgbf000082-resize_5/001447_2014-06-19_17-00-32_260595134347_rgbf000082-resize_5-target.png,125,4.13775,3,5627,129,feet,jsons/VE125_randls_12_rotated.json,635054,821854,55,Woman
13,618256,DepthScenes,duration_manipulation_targetAtFixation,jsons/VE125_randls_12_rotated.json,http://54.235.29.9/FacialAge/BNav_EC2/DepthDuration/v2_depth_duration_MTurk/v2_DepthDuration_HTML.html#226,226,1873,961,1920,1080,8-30-2022,8-5-24,14,depth_duration_stimuli/000447_2014-06-08_16-15-46_260595134347_rgbf000130-resize_1/000447_2014-06-08_16-15-46_260595134347_rgbf000130-resize_1-target.png,125,4.479,6,3735,122,feet,jsons/VE125_randls_12_rotated.json,635054,821854,55,Woman
14,618256,DepthScenes,duration_manipulation_targetAtFixation,jsons/VE125_randls_12_rotated.json,http://54.235.29.9/FacialAge/BNav_EC2/DepthDuration/v2_depth_duration_MTurk/v2_DepthDuration_HTML.html#226,226,1873,961,1920,1080,8-30-2022,8-5-24,15,depth_duration_stimuli/000556_2014-06-09_22-42-56_260595134347_rgbf000214-resize_1/000556_2014-06-09_22-42-56_260595134347_rgbf000214-resize_1-target.png,125,4.8415,8,3382,123,feet,jsons/VE125_randls_12_rotated.json,635054,821854,55,Woman
15,618256,DepthScenes,duration_manipulation_targetAtFixation,jsons/VE125_randls_12_rotated.json,http://54.235.29.9/FacialAge/BNav_EC2/DepthDuration/v2_depth_duration_MTurk/v2_DepthDuration_HTML.html#226,226,1873,961,1920,1080,8-30-2022,8-5-24,16,depth_duration_stimuli/001158_2014-06-17_15-32-16_260595134347_rgbf000138-resize_2/001158_2014-06-17_15-32-16_260595134347_rgbf000138-resize_2-target.png,125,4.5315,6,3289,132,feet,jsons/VE125_randls_12_rotated.json,635054,821854,55,Woman
16,618256,DepthScenes,duration_manipulation_targetAtFixation,jsons/VE125_randls_12_rotated.json,http://54.235.29.9/FacialAge/BNav_EC2/DepthDuration/v2_depth_duration_MTurk/v2_DepthDuration_HTML.html#226,226,1873,961,1920,1080,8-30-2022,8-5-24,17,depth_duration_stimuli/000457_2014-06-08_16-52-43_260595134347_rgbf000199-resize_1/000457_2014-06-08_16-52-43_260595134347_rgbf000199-resize_1-target.png,125,3.6489999999999996,5,6040,114,feet,jsons/VE125_randls_12_rotated.json,635054,821854,55,Woman
17,618256,DepthScenes,duration_manipulation_targetAtFixation,jsons/VE125_randls_12_rotated.json,http://54.235.29.9/FacialAge/BNav_EC2/DepthDuration/v2_depth_duration_MTurk/v2_DepthDuration_HTML.html#226,226,1873,961,1920,1080,8-30-2022,8-5-24,18,depth_duration_stimuli/000929_2014-06-09_16-33-19_260595134347_rgbf000139-resize_0/000929_2014-06-09_16-33-19_260595134347_rgbf000139-resize_0-target.png,125,2.8680000000000003,4,4846,135,feet,jsons/VE125_randls_12_rotated.json,635054,821854,55,Woman
18,618256,DepthScenes,duration_manipulation_targetAtFixation,jsons/VE125_randls_12_rotated.json,http://54.235.29.9/FacialAge/BNav_EC2/DepthDuration/v2_depth_duration_MTurk/v2_DepthDuration_HTML.html#226,226,1873,961,1920,1080,8-30-2022,8-5-24,19,depth_duration_stimuli/001498_2014-06-19_17-45-14_260595134347_rgbf000129-resize_4/001498_2014-06-19_17-45-14_260595134347_rgbf000129-resize-original.jpg,125,1.4075,0,2789,132,feet,jsons/VE125_randls_12_rotated.json,635054,821854,55,Woman
19,618256,DepthScenes,duration_manipulation_targetAtFixation,jsons/VE125_randls_12_rotated.json,http://54.235.29.9/FacialAge/BNav_EC2/DepthDuration/v2_depth_duration_MTurk/v2_DepthDuration_HTML.html#226,226,1873,961,1920,1080,8-30-2022,8-5-24,20,depth_duration_stimuli/002425_2014-06-28_20-27-29_260595134347_rgbf000031-resize_8/002425_2014-06-28_20-27-29_260595134347_rgbf000031-resize_8-target.png,125,3.8960000000000004,8,3465,117,feet,jsons/VE125_randls_12_rotated.json,635054,821854,55,Woman
20,618256,DepthScenes,duration_manipulation_targetAtFixation,jsons/VE125_randls_12_rotated.json,http://54.235.29.9/FacialAge/BNav_EC2/DepthDuration/v2_depth_duration_MTurk/v2_DepthDuration_HTML.html#226,226,1873,961,1920,1080,8-30-2022,8-5-24,21,depth_duration_stimuli/000642_2014-06-08_16-59-25_260595134347_rgbf000098-resize_2/000642_2014-06-08_16-59-25_260595134347_rgbf000098-resize_2-target.png,125,2.8815,4,3273,119,feet,jsons/VE125_randls_12_rotated.json,635054,821854,55,Woman
21,618256,DepthScenes,duration_manipulation_targetAtFixation,jsons/VE125_randls_12_rotated.json,http://54.235.29.9/FacialAge/BNav_EC2/DepthDuration/v2_depth_duration_MTurk/v2_DepthDuration_HTML.html#226,226,1873,961,1920,1080,8-30-2022,8-5-24,22,depth_duration_stimuli/000780_2014-06-08_22-28-29_260595134347_rgbf000126-resize_1/000780_2014-06-08_22-28-29_260595134347_rgbf000126-resize_1-target.png,125,3.3825,8,3499,122,feet,jsons/VE125_randls_12_rotated.json,635054,821854,55,Woman
22,618256,DepthScenes,duration_manipulation_targetAtFixation,jsons/VE125_randls_12_rotated.json,http://54.235.29.9/FacialAge/BNav_EC2/DepthDuration/v2_depth_duration_MTurk/v2_DepthDuration_HTML.html#226,226,1873,961,1920,1080,8-30-2022,8-5-24,23,depth_duration_stimuli/002445_2014-06-28_20-32-16_260595134347_rgbf000029-resize_4/002445_2014-06-28_20-32-16_260595134347_rgbf000029-resize_4-target.png,125,2.5315,4,4586,135,feet,jsons/VE125_randls_12_rotated.json,635054,821854,55,Woman
23,618256,DepthScenes,duration_manipulation_targetAtFixation,jsons/VE125_randls_12_rotated.json,http://54.235.29.9/FacialAge/BNav_EC2/DepthDuration/v2_depth_duration_MTurk/v2_DepthDuration_HTML.html#226,226,1873,961,1920,1080,8-30-2022,8-5-24,24,depth_duration_stimuli/001571_2014-06-20_17-21-32_260595134347_rgbf000089-resize_1/001571_2014-06-20_17-21-32_260595134347_rgbf000089-resize_1-target.png,125,1.86,3,3027,113,feet,jsons/VE125_randls_12_rotated.json,635054,821854,55,Woman
24,618256,DepthScenes,duration_manipulation_targetAtFixation,jsons/VE125_randls_12_rotated.json,http://54.235.29.9/FacialAge/BNav_EC2/DepthDuration/v2_depth_duration_MTurk/v2_DepthDuration_HTML.html#226,226,1873,961,1920,1080,8-30-2022,8-5-24,25,depth_duration_stimuli/002272_2014-06-28_18-53-56_260595134347_rgbf000067-resize_2/002272_2014-06-28_18-53-56_260595134347_rgbf000067-resize_2-target.png,125,1.138,3,3323,119,feet,jsons/VE125_randls_12_rotated.json,635054,821854,55,Woman
25,618256,DepthScenes,duration_manipulation_targetAtFixation,jsons/VE125_randls_12_rotated.json,http://54.235.29.9/FacialAge/BNav_EC2/DepthDuration/v2_depth_duration_MTurk/v2_DepthDuration_HTML.html#226,226,1873,961,1920,1080,8-30-2022,8-5-24,26,depth_duration_stimuli/000502_2014-06-08_23-02-32_260595134347_rgbf000063-resize_4/000502_2014-06-08_23-02-32_260595134347_rgbf000063-resize_4-target.png,125,2.431,4,3757,120,feet,jsons/VE125_randls_12_rotated.json,635054,821854,55,Woman
26,618256,DepthScenes,duration_manipulation_targetAtFixation,jsons/VE125_randls_12_rotated.json,http://54.235.29.9/FacialAge/BNav_EC2/DepthDuration/v2_depth_duration_MTurk/v2_DepthDuration_HTML.html#226,226,1873,961,1920,1080,8-30-2022,8-5-24,27,depth_duration_stimuli/001199_2014-06-17_16-03-48_260595134347_rgbf000077-resize_0/001199_2014-06-17_16-03-48_260595134347_rgbf000077-resize_0-target.png,125,3.4375,6,3049,127,feet,jsons/VE125_randls_12_rotated.json,635054,821854,55,Woman
27,618256,DepthScenes,duration_manipulation_targetAtFixation,jsons/VE125_randls_12_rotated.json,http://54.235.29.9/FacialAge/BNav_EC2/DepthDuration/v2_depth_duration_MTurk/v2_DepthDuration_HTML.html#226,226,1873,961,1920,1080,8-30-2022,8-5-24,28,depth_duration_stimuli/000943_2014-06-09_19-31-07_260595134347_rgbf000128-resize_1/000943_2014-06-09_19-31-07_260595134347_rgbf000128-resize_1-target.png,125,1.9765,4,7543,133,feet,jsons/VE125_randls_12_rotated.json,635054,821854,55,Woman
28,618256,DepthScenes,duration_manipulation_targetAtFixation,jsons/VE125_randls_12_rotated.json,http://54.235.29.9/FacialAge/BNav_EC2/DepthDuration/v2_depth_duration_MTurk/v2_DepthDuration_HTML.html#226,226,1873,961,1920,1080,8-30-2022,8-5-24,29,depth_duration_stimuli/003070_2014-06-15_14-58-27_094959634447_rgbf000150-resize_3/003070_2014-06-15_14-58-27_094959634447_rgbf000150-resize_3-target.png,125,2.9415,5,2904,133,feet,jsons/VE125_randls_12_rotated.json,635054,821854,55,Woman
29,618256,DepthScenes,duration_manipulation_targetAtFixation,jsons/VE125_randls_12_rotated.json,http://54.235.29.9/FacialAge/BNav_EC2/DepthDuration/v2_depth_duration_MTurk/v2_DepthDuration_HTML.html#226,226,1873,961,1920,1080,8-30-2022,8-5-24,30,depth_duration_stimuli/002072_2014-06-24_21-48-06_260595134347_rgbf000115-resize_0/002072_2014-06-24_21-48-06_260595134347_rgbf000115-resize-original.jpg,125,4.702,0,2868,121,feet,jsons/VE125_randls_12_rotated.json,635054,821854,55,Woman
30,618256,DepthScenes,duration_manipulation_targetAtFixation,jsons/VE125_randls_12_rotated.json,http://54.235.29.9/FacialAge/BNav_EC2/DepthDuration/v2_depth_duration_MTurk/v2_DepthDuration_HTML.html#226,226,1873,961,1920,1080,8-30-2022,8-5-24,31,depth_duration_stimuli/001828_2014-06-26_21-40-03_260595134347_rgbf000024-resize_0/001828_2014-06-26_21-40-03_260595134347_rgbf000024-resize_0-target.png,125,4.8260000000000005,5,2732,128,feet,jsons/VE125_randls_12_rotated.json,635054,821854,55,Woman
31,618256,DepthScenes,duration_manipulation_targetAtFixation,jsons/VE125_randls_12_rotated.json,http://54.235.29.9/FacialAge/BNav_EC2/DepthDuration/v2_depth_duration_MTurk/v2_DepthDuration_HTML.html#226,226,1873,961,1920,1080,8-30-2022,8-5-24,32,depth_duration_stimuli/000009_2014-05-26_14-32-05_260595134347_rgbf000034-resize_3/000009_2014-05-26_14-32-05_260595134347_rgbf000034-resize_3-target.png,125,3.8715,8,2894,134,feet,jsons/VE125_randls_12_rotated.json,635054,821854,55,Woman
32,618256,DepthScenes,duration_manipulation_targetAtFixation,jsons/VE125_randls_12_rotated.json,http://54.235.29.9/FacialAge/BNav_EC2/DepthDuration/v2_depth_duration_MTurk/v2_DepthDuration_HTML.html#226,226,1873,961,1920,1080,8-30-2022,8-5-24,33,depth_duration_stimuli/003228_2014-05-14_13-42-35_094959634447_rgbf000101-resize_1/003228_2014-05-14_13-42-35_094959634447_rgbf000101-resize_1-target.png,125,1.9680000000000002,3,3451,119,feet,jsons/VE125_randls_12_rotated.json,635054,821854,55,Woman
33,618256,DepthScenes,duration_manipulation_targetAtFixation,jsons/VE125_randls_12_rotated.json,http://54.235.29.9/FacialAge/BNav_EC2/DepthDuration/v2_depth_duration_MTurk/v2_DepthDuration_HTML.html#226,226,1873,961,1920,1080,8-30-2022,8-5-24,34,depth_duration_stimuli/002600_2014-06-24_14-27-04_094959634447_rgbf000074-resize_2/002600_2014-06-24_14-27-04_094959634447_rgbf000074-resize_2-target.png,125,2.7575,5,3170,121,feet,jsons/VE125_randls_12_rotated.json,635054,821854,55,Woman
34,618256,DepthScenes,duration_manipulation_targetAtFixation,jsons/VE125_randls_12_rotated.json,http://54.235.29.9/FacialAge/BNav_EC2/DepthDuration/v2_depth_duration_MTurk/v2_DepthDuration_HTML.html#226,226,1873,961,1920,1080,8-30-2022,8-5-24,35,depth_duration_stimuli/002949_2014-06-26_15-57-42_094959634447_rgbf000079-resize_1/002949_2014-06-26_15-57-42_094959634447_rgbf000079-resize_1-target.png,125,1.8915,3,3876,132,feet,jsons/VE125_randls_12_rotated.json,635054,821854,55,Woman
35,618256,DepthScenes,duration_manipulation_targetAtFixation,jsons/VE125_randls_12_rotated.json,http://54.235.29.9/FacialAge/BNav_EC2/DepthDuration/v2_depth_duration_MTurk/v2_DepthDuration_HTML.html#226,226,1873,961,1920,1080,8-30-2022,8-5-24,36,depth_duration_stimuli/000522_2014-06-08_13-35-06_260595134347_rgbf000244-resize_1/000522_2014-06-08_13-35-06_260595134347_rgbf000244-resize_1-target.png,125,2.3715,2,3371,134,feet,jsons/VE125_randls_12_rotated.json,635054,821854,55,Woman
36,618256,DepthScenes,duration_manipulation_targetAtFixation,jsons/VE125_randls_12_rotated.json,http://54.235.29.9/FacialAge/BNav_EC2/DepthDuration/v2_depth_duration_MTurk/v2_DepthDuration_HTML.html#226,226,1873,961,1920,1080,8-30-2022,8-5-24,37,depth_duration_stimuli/001584_2014-06-20_11-07-43_260595134347_rgbf000002-resize_1/001584_2014-06-20_11-07-43_260595134347_rgbf000002-resize_1-target.png,125,3.53,6,3710,120,feet,jsons/VE125_randls_12_rotated.json,635054,821854,55,Woman
37,618256,DepthScenes,duration_manipulation_targetAtFixation,jsons/VE125_randls_12_rotated.json,http://54.235.29.9/FacialAge/BNav_EC2/DepthDuration/v2_depth_duration_MTurk/v2_DepthDuration_HTML.html#226,226,1873,961,1920,1080,8-30-2022,8-5-24,38,depth_duration_stimuli/003621_2014-05-23_18-06-08_094959634447_rgbf000101-resize_1/003621_2014-05-23_18-06-08_094959634447_rgbf000101-resize_1-target.png,125,3.9835,5,3241,116,feet,jsons/VE125_randls_12_rotated.json,635054,821854,55,Woman
38,618256,DepthScenes,duration_manipulation_targetAtFixation,jsons/VE125_randls_12_rotated.json,http://54.235.29.9/FacialAge/BNav_EC2/DepthDuration/v2_depth_duration_MTurk/v2_DepthDuration_HTML.html#226,226,1873,961,1920,1080,8-30-2022,8-5-24,39,depth_duration_stimuli/001132_2014-06-17_14-48-54_260595134347_rgbf000100-resize_2/001132_2014-06-17_14-48-54_260595134347_rgbf000100-resize_2-target.png,125,3.753,8,3478,135,feet,jsons/VE125_randls_12_rotated.json,635054,821854,55,Woman
39,618256,DepthScenes,duration_manipulation_targetAtFixation,jsons/VE125_randls_12_rotated.json,http://54.235.29.9/FacialAge/BNav_EC2/DepthDuration/v2_depth_duration_MTurk/v2_DepthDuration_HTML.html#226,226,1873,961,1920,1080,8-30-2022,8-5-24,40,depth_duration_stimuli/001133_2014-06-17_14-49-16_260595134347_rgbf000100-resize_0/001133_2014-06-17_14-49-16_260595134347_rgbf000100-resize_0-target.png,125,4.2115,6,3544,127,feet,jsons/VE125_randls_12_rotated.json,635054,821854,55,Woman
40,618256,DepthScenes,duration_manipulation_targetAtFixation,jsons/VE125_randls_12_rotated.json,http://54.235.29.9/FacialAge/BNav_EC2/DepthDuration/v2_depth_duration_MTurk/v2_DepthDuration_HTML.html#226,226,1873,961,1920,1080,8-30-2022,8-5-24,41,depth_duration_stimuli/003490_2014-05-21_15-50-11_094959634447_rgbf000101-resize_3/003490_2014-05-21_15-50-11_094959634447_rgbf000101-resize_3-target.png,125,3.6445,0,4122,135,feet,jsons/VE125_randls_12_rotated.json,635054,821854,55,Woman
41,618256,DepthScenes,duration_manipulation_targetAtFixation,jsons/VE125_randls_12_rotated.json,http://54.235.29.9/FacialAge/BNav_EC2/DepthDuration/v2_depth_duration_MTurk/v2_DepthDuration_HTML.html#226,226,1873,961,1920,1080,8-30-2022,8-5-24,42,depth_duration_stimuli/001175_2014-06-17_15-45-55_260595134347_rgbf000129-resize_4/001175_2014-06-17_15-45-55_260595134347_rgbf000129-resize_4-target.png,125,4.255,10,5100,116,feet,jsons/VE125_randls_12_rotated.json,635054,821854,55,Woman
42,618256,DepthScenes,duration_manipulation_targetAtFixation,jsons/VE125_randls_12_rotated.json,http://54.235.29.9/FacialAge/BNav_EC2/DepthDuration/v2_depth_duration_MTurk/v2_DepthDuration_HTML.html#226,226,1873,961,1920,1080,8-30-2022,8-5-24,43,depth_duration_stimuli/001516_2014-06-20_16-25-09_260595134347_rgbf000076-resize_2/001516_2014-06-20_16-25-09_260595134347_rgbf000076-resize_2-target.png,125,1.7445,4,4287,115,feet,jsons/VE125_randls_12_rotated.json,635054,821854,55,Woman
43,618256,DepthScenes,duration_manipulation_targetAtFixation,jsons/VE125_randls_12_rotated.json,http://54.235.29.9/FacialAge/BNav_EC2/DepthDuration/v2_depth_duration_MTurk/v2_DepthDuration_HTML.html#226,226,1873,961,1920,1080,8-30-2022,8-5-24,44,depth_duration_stimuli/002118_2014-06-25_20-32-08_260595134347_rgbf000078-resize_1/002118_2014-06-25_20-32-08_260595134347_rgbf000078-resize_1-target.png,125,2.6460000000000004,6,3383,120,feet,jsons/VE125_randls_12_rotated.json,635054,821854,55,Woman
44,618256,DepthScenes,duration_manipulation_targetAtFixation,jsons/VE125_randls_12_rotated.json,http://54.235.29.9/FacialAge/BNav_EC2/DepthDuration/v2_depth_duration_MTurk/v2_DepthDuration_HTML.html#226,226,1873,961,1920,1080,8-30-2022,8-5-24,45,depth_duration_stimuli/002758_2014-06-22_19-11-20_094959634447_rgbf000128-resize_1/002758_2014-06-22_19-11-20_094959634447_rgbf000128-resize_1-target.png,125,2.555,5,3335,120,feet,jsons/VE125_randls_12_rotated.json,635054,821854,55,Woman
45,618256,DepthScenes,duration_manipulation_targetAtFixation,jsons/VE125_randls_12_rotated.json,http://54.235.29.9/FacialAge/BNav_EC2/DepthDuration/v2_depth_duration_MTurk/v2_DepthDuration_HTML.html#226,226,1873,961,1920,1080,8-30-2022,8-5-24,46,depth_duration_stimuli/002630_2014-06-24_14-47-50_094959634447_rgbf000055-resize_1/002630_2014-06-24_14-47-50_094959634447_rgbf000055-resize_1-target.png,125,3.0095,0,2622,132,feet,jsons/VE125_randls_12_rotated.json,635054,821854,55,Woman
46,618256,DepthScenes,duration_manipulation_targetAtFixation,jsons/VE125_randls_12_rotated.json,http://54.235.29.9/FacialAge/BNav_EC2/DepthDuration/v2_depth_duration_MTurk/v2_DepthDuration_HTML.html#226,226,1873,961,1920,1080,8-30-2022,8-5-24,47,depth_duration_stimuli/000137_2014-05-20_17-04-49_260595134347_rgbf000120-resize_1/000137_2014-05-20_17-04-49_260595134347_rgbf000120-resize_1-target.png,125,3.786,8,5479,136,feet,jsons/VE125_randls_12_rotated.json,635054,821854,55,Woman
47,618256,DepthScenes,duration_manipulation_targetAtFixation,jsons/VE125_randls_12_rotated.json,http://54.235.29.9/FacialAge/BNav_EC2/DepthDuration/v2_depth_duration_MTurk/v2_DepthDuration_HTML.html#226,226,1873,961,1920,1080,8-30-2022,8-5-24,48,depth_duration_stimuli/000736_2014-06-08_18-24-15_260595134347_rgbf000206-resize_3/000736_2014-06-08_18-24-15_260595134347_rgbf000206-resize_3-target.png,125,3.515,5,3017,134,feet,jsons/VE125_randls_12_rotated.json,635054,821854,55,Woman
48,618256,DepthScenes,duration_manipulation_targetAtFixation,jsons/VE125_randls_12_rotated.json,http://54.235.29.9/FacialAge/BNav_EC2/DepthDuration/v2_depth_duration_MTurk/v2_DepthDuration_HTML.html#226,226,1873,961,1920,1080,8-30-2022,8-5-24,49,depth_duration_stimuli/001170_2014-06-17_15-43-44_260595134347_rgbf000096-resize_6/001170_2014-06-17_15-43-44_260595134347_rgbf000096-resize-original.jpg,125,1.1909999999999998,0,1967,111,feet,jsons/VE125_randls_12_rotated.json,635054,821854,55,Woman
49,618256,DepthScenes,duration_manipulation_targetAtFixation,jsons/VE125_randls_12_rotated.json,http://54.235.29.9/FacialAge/BNav_EC2/DepthDuration/v2_depth_duration_MTurk/v2_DepthDuration_HTML.html#226,226,1873,961,1920,1080,8-30-2022,8-5-24,50,depth_duration_stimuli/003338_2014-05-20_11-01-23_094959634447_rgbf000051-resize_6/003338_2014-05-20_11-01-23_094959634447_rgbf000051-resize_6-target.png,125,1.693,3,4268,131,feet,jsons/VE125_randls_12_rotated.json,635054,821854,55,Woman
50,618256,DepthScenes,duration_manipulation_targetAtFixation,jsons/VE125_randls_12_rotated.json,http://54.235.29.9/FacialAge/BNav_EC2/DepthDuration/v2_depth_duration_MTurk/v2_DepthDuration_HTML.html#226,226,1873,961,1920,1080,8-30-2022,8-5-24,51,depth_duration_stimuli/002509_2014-06-24_13-19-22_094959634447_rgbf000077-resize_0/002509_2014-06-24_13-19-22_094959634447_rgbf000077-resize_0-target.png,125,1.3065,3,4677,128,feet,jsons/VE125_randls_12_rotated.json,635054,821854,55,Woman
51,618256,DepthScenes,duration_manipulation_targetAtFixation,jsons/VE125_randls_12_rotated.json,http://54.235.29.9/FacialAge/BNav_EC2/DepthDuration/v2_depth_duration_MTurk/v2_DepthDuration_HTML.html#226,226,1873,961,1920,1080,8-30-2022,8-5-24,52,depth_duration_stimuli/003423_2014-05-21_10-23-26_094959634447_rgbf002665-resize_2/003423_2014-05-21_10-23-26_094959634447_rgbf002665-resize_2-target.png,125,3.2575,8,3152,122,feet,jsons/VE125_randls_12_rotated.json,635054,821854,55,Woman
52,618256,DepthScenes,duration_manipulation_targetAtFixation,jsons/VE125_randls_12_rotated.json,http://54.235.29.9/FacialAge/BNav_EC2/DepthDuration/v2_depth_duration_MTurk/v2_DepthDuration_HTML.html#226,226,1873,961,1920,1080,8-30-2022,8-5-24,53,depth_duration_stimuli/002905_2014-06-03_18-04-43_094959634447_rgbf000151-resize_2/002905_2014-06-03_18-04-43_094959634447_rgbf000151-resize_2-target.png,125,2.0295,4,3379,129,feet,jsons/VE125_randls_12_rotated.json,635054,821854,55,Woman
53,618256,DepthScenes,duration_manipulation_targetAtFixation,jsons/VE125_randls_12_rotated.json,http://54.235.29.9/FacialAge/BNav_EC2/DepthDuration/v2_depth_duration_MTurk/v2_DepthDuration_HTML.html#226,226,1873,961,1920,1080,8-30-2022,8-5-24,54,depth_duration_stimuli/002657_2014-06-13_15-29-54_094959634447_rgbf000150-resize_1/002657_2014-06-13_15-29-54_094959634447_rgbf000150-resize_1-target.png,125,4.919,4,4323,118,feet,jsons/VE125_randls_12_rotated.json,635054,821854,55,Woman
54,618256,DepthScenes,duration_manipulation_targetAtFixation,jsons/VE125_randls_12_rotated.json,http://54.235.29.9/FacialAge/BNav_EC2/DepthDuration/v2_depth_duration_MTurk/v2_DepthDuration_HTML.html#226,226,1873,961,1920,1080,8-30-2022,8-5-24,55,depth_duration_stimuli/002375_2014-06-28_20-13-44_260595134347_rgbf000032-resize_1/002375_2014-06-28_20-13-44_260595134347_rgbf000032-resize_1-target.png,125,4.0175,6,3465,131,feet,jsons/VE125_randls_12_rotated.json,635054,821854,55,Woman
55,618256,DepthScenes,duration_manipulation_targetAtFixation,jsons/VE125_randls_12_rotated.json,http://54.235.29.9/FacialAge/BNav_EC2/DepthDuration/v2_depth_duration_MTurk/v2_DepthDuration_HTML.html#226,226,1873,961,1920,1080,8-30-2022,8-5-24,56,depth_duration_stimuli/002414_2014-06-28_20-24-58_260595134347_rgbf000067-resize_4/002414_2014-06-28_20-24-58_260595134347_rgbf000067-resize_4-target.png,125,4.363,8,3079,135,feet,jsons/VE125_randls_12_rotated.json,635054,821854,55,Woman
56,618256,DepthScenes,duration_manipulation_targetAtFixation,jsons/VE125_randls_12_rotated.json,http://54.235.29.9/FacialAge/BNav_EC2/DepthDuration/v2_depth_duration_MTurk/v2_DepthDuration_HTML.html#226,226,1873,961,1920,1080,8-30-2022,8-5-24,57,depth_duration_stimuli/000773_2014-06-08_22-24-54_260595134347_rgbf000093-resize_1/000773_2014-06-08_22-24-54_260595134347_rgbf000093-resize_1-target.png,125,4.973,0,2805,120,feet,jsons/VE125_randls_12_rotated.json,635054,821854,55,Woman
57,618256,DepthScenes,duration_manipulation_targetAtFixation,jsons/VE125_randls_12_rotated.json,http://54.235.29.9/FacialAge/BNav_EC2/DepthDuration/v2_depth_duration_MTurk/v2_DepthDuration_HTML.html#226,226,1873,961,1920,1080,8-30-2022,8-5-24,58,depth_duration_stimuli/001650_2014-06-20_12-09-00_260595134347_rgbf000087-resize_3/001650_2014-06-20_12-09-00_260595134347_rgbf000087-resize_3-target.png,125,1.9505,2,3426,127,feet,jsons/VE125_randls_12_rotated.json,635054,821854,55,Woman
58,618256,DepthScenes,duration_manipulation_targetAtFixation,jsons/VE125_randls_12_rotated.json,http://54.235.29.9/FacialAge/BNav_EC2/DepthDuration/v2_depth_duration_MTurk/v2_DepthDuration_HTML.html#226,226,1873,961,1920,1080,8-30-2022,8-5-24,59,depth_duration_stimuli/000682_2014-06-08_23-14-58_260595134347_rgbf000041-resize_5/000682_2014-06-08_23-14-58_260595134347_rgbf000041-resize_5-target.png,125,2.7239999999999998,3,2889,136,feet,jsons/VE125_randls_12_rotated.json,635054,821854,55,Woman
59,618256,DepthScenes,duration_manipulation_targetAtFixation,jsons/VE125_randls_12_rotated.json,http://54.235.29.9/FacialAge/BNav_EC2/DepthDuration/v2_depth_duration_MTurk/v2_DepthDuration_HTML.html#226,226,1873,961,1920,1080,8-30-2022,8-5-24,60,depth_duration_stimuli/000549_2014-06-08_22-10-24_260595134347_rgbf000247-resize_3/000549_2014-06-08_22-10-24_260595134347_rgbf000247-resize_3-target.png,125,1.841,3,3330,128,feet,jsons/VE125_randls_12_rotated.json,635054,821854,55,Woman
60,618256,DepthScenes,duration_manipulation_targetAtFixation,jsons/VE125_randls_12_rotated.json,http://54.235.29.9/FacialAge/BNav_EC2/DepthDuration/v2_depth_duration_MTurk/v2_DepthDuration_HTML.html#226,226,1873,961,1920,1080,8-30-2022,8-5-24,61,depth_duration_stimuli/001055_2014-06-08_18-45-35_260595134347_rgbf000111-resize_4/001055_2014-06-08_18-45-35_260595134347_rgbf000111-resize_4-target.png,125,2.4290000000000003,8,2941,131,feet,jsons/VE125_randls_12_rotated.json,635054,821854,55,Woman
61,618256,DepthScenes,duration_manipulation_targetAtFixation,jsons/VE125_randls_12_rotated.json,http://54.235.29.9/FacialAge/BNav_EC2/DepthDuration/v2_depth_duration_MTurk/v2_DepthDuration_HTML.html#226,226,1873,961,1920,1080,8-30-2022,8-5-24,62,depth_duration_stimuli/002467_2014-06-28_20-38-07_260595134347_rgbf000026-resize_2/002467_2014-06-28_20-38-07_260595134347_rgbf000026-resize_2-target.png,125,4.742,8,2675,122,feet,jsons/VE125_randls_12_rotated.json,635054,821854,55,Woman
62,618256,DepthScenes,duration_manipulation_targetAtFixation,jsons/VE125_randls_12_rotated.json,http://54.235.29.9/FacialAge/BNav_EC2/DepthDuration/v2_depth_duration_MTurk/v2_DepthDuration_HTML.html#226,226,1873,961,1920,1080,8-30-2022,8-5-24,63,depth_duration_stimuli/002570_2014-06-24_13-59-54_094959634447_rgbf000059-resize_0/002570_2014-06-24_13-59-54_094959634447_rgbf000059-resize_0-target.png,125,4.037,5,3487,126,feet,jsons/VE125_randls_12_rotated.json,635054,821854,55,Woman
63,618256,DepthScenes,duration_manipulation_targetAtFixation,jsons/VE125_randls_12_rotated.json,http://54.235.29.9/FacialAge/BNav_EC2/DepthDuration/v2_depth_duration_MTurk/v2_DepthDuration_HTML.html#226,226,1873,961,1920,1080,8-30-2022,8-5-24,64,depth_duration_stimuli/002995_2014-06-15_12-31-26_094959634447_rgbf000150-resize_1/002995_2014-06-15_12-31-26_094959634447_rgbf000150-resize_1-target.png,125,3.8360000000000003,10,4210,125,feet,jsons/VE125_randls_12_rotated.json,635054,821854,55,Woman
64,618256,DepthScenes,duration_manipulation_targetAtFixation,jsons/VE125_randls_12_rotated.json,http://54.235.29.9/FacialAge/BNav_EC2/DepthDuration/v2_depth_duration_MTurk/v2_DepthDuration_HTML.html#226,226,1873,961,1920,1080,8-30-2022,8-5-24,65,depth_duration_stimuli/002748_2014-06-22_19-07-22_094959634447_rgbf000078-resize_1/002748_2014-06-22_19-07-22_094959634447_rgbf000078-resize_1-target.png,125,4.6705,8,4803,129,feet,jsons/VE125_randls_12_rotated.json,635054,821854,55,Woman
65,618256,DepthScenes,duration_manipulation_targetAtFixation,jsons/VE125_randls_12_rotated.json,http://54.235.29.9/FacialAge/BNav_EC2/DepthDuration/v2_depth_duration_MTurk/v2_DepthDuration_HTML.html#226,226,1873,961,1920,1080,8-30-2022,8-5-24,66,depth_duration_stimuli/001540_2014-06-20_17-01-05_260595134347_rgbf000086-resize_2/001540_2014-06-20_17-01-05_260595134347_rgbf000086-resize-original.jpg,125,1.459,0,2954,122,feet,jsons/VE125_randls_12_rotated.json,635054,821854,55,Woman
66,618256,DepthScenes,duration_manipulation_targetAtFixation,jsons/VE125_randls_12_rotated.json,http://54.235.29.9/FacialAge/BNav_EC2/DepthDuration/v2_depth_duration_MTurk/v2_DepthDuration_HTML.html#226,226,1873,961,1920,1080,8-30-2022,8-5-24,67,depth_duration_stimuli/002209_2014-06-28_18-36-10_260595134347_rgbf000051-resize_1/002209_2014-06-28_18-36-10_260595134347_rgbf000051-resize_1-target.png,125,2.057,4,2945,119,feet,jsons/VE125_randls_12_rotated.json,635054,821854,55,Woman
67,618256,DepthScenes,duration_manipulation_targetAtFixation,jsons/VE125_randls_12_rotated.json,http://54.235.29.9/FacialAge/BNav_EC2/DepthDuration/v2_depth_duration_MTurk/v2_DepthDuration_HTML.html#226,226,1873,961,1920,1080,8-30-2022,8-5-24,68,depth_duration_stimuli/002763_2014-06-22_19-13-10_094959634447_rgbf000075-resize_4/002763_2014-06-22_19-13-10_094959634447_rgbf000075-resize_4-target.png,125,1.68375,4,2396,121,feet,jsons/VE125_randls_12_rotated.json,635054,821854,55,Woman
68,618256,DepthScenes,duration_manipulation_targetAtFixation,jsons/VE125_randls_12_rotated.json,http://54.235.29.9/FacialAge/BNav_EC2/DepthDuration/v2_depth_duration_MTurk/v2_DepthDuration_HTML.html#226,226,1873,961,1920,1080,8-30-2022,8-5-24,69,depth_duration_stimuli/002545_2014-06-24_13-38-53_094959634447_rgbf000080-resize_4/002545_2014-06-24_13-38-53_094959634447_rgbf000080-resize_4-target.png,125,1.9205,5,3390,120,feet,jsons/VE125_randls_12_rotated.json,635054,821854,55,Woman
69,618256,DepthScenes,duration_manipulation_targetAtFixation,jsons/VE125_randls_12_rotated.json,http://54.235.29.9/FacialAge/BNav_EC2/DepthDuration/v2_depth_duration_MTurk/v2_DepthDuration_HTML.html#226,226,1873,961,1920,1080,8-30-2022,8-5-24,70,depth_duration_stimuli/001092_2014-06-15_17-34-58_260595134347_rgbf000171-resize_3/001092_2014-06-15_17-34-58_260595134347_rgbf000171-resize_3-target.png,125,2.6935,4,3231,118,feet,jsons/VE125_randls_12_rotated.json,635054,821854,55,Woman
70,618256,DepthScenes,duration_manipulation_targetAtFixation,jsons/VE125_randls_12_rotated.json,http://54.235.29.9/FacialAge/BNav_EC2/DepthDuration/v2_depth_duration_MTurk/v2_DepthDuration_HTML.html#226,226,1873,961,1920,1080,8-30-2022,8-5-24,71,depth_duration_stimuli/002568_2014-06-24_13-59-21_094959634447_rgbf000062-resize_4/002568_2014-06-24_13-59-21_094959634447_rgbf000062-resize_4-target.png,125,3.015,6,3327,125,feet,jsons/VE125_randls_12_rotated.json,635054,821854,55,Woman
71,618256,DepthScenes,duration_manipulation_targetAtFixation,jsons/VE125_randls_12_rotated.json,http://54.235.29.9/FacialAge/BNav_EC2/DepthDuration/v2_depth_duration_MTurk/v2_DepthDuration_HTML.html#226,226,1873,961,1920,1080,8-30-2022,8-5-24,72,depth_duration_stimuli/003492_2014-05-21_15-50-55_094959634447_rgbf000828-resize_1/003492_2014-05-21_15-50-55_094959634447_rgbf000828-resize_1-target.png,125,4.06875,8,5195,123,feet,jsons/VE125_randls_12_rotated.json,635054,821854,55,Woman
72,618256,DepthScenes,duration_manipulation_targetAtFixation,jsons/VE125_randls_12_rotated.json,http://54.235.29.9/FacialAge/BNav_EC2/DepthDuration/v2_depth_duration_MTurk/v2_DepthDuration_HTML.html#226,226,1873,961,1920,1080,8-30-2022,8-5-24,73,depth_duration_stimuli/001450_2014-06-19_17-02-03_260595134347_rgbf000203-resize_4/001450_2014-06-19_17-02-03_260595134347_rgbf000203-resize_4-target.png,125,4.0106666666667,6,4245,129,feet,jsons/VE125_randls_12_rotated.json,635054,821854,55,Woman
73,618256,DepthScenes,duration_manipulation_targetAtFixation,jsons/VE125_randls_12_rotated.json,http://54.235.29.9/FacialAge/BNav_EC2/DepthDuration/v2_depth_duration_MTurk/v2_DepthDuration_HTML.html#226,226,1873,961,1920,1080,8-30-2022,8-5-24,74,depth_duration_stimuli/001449_2014-06-19_17-01-27_260595134347_rgbf000116-resize_2/001449_2014-06-19_17-01-27_260595134347_rgbf000116-resize_2-target.png,125,3.452,8,2931,119,feet,jsons/VE125_randls_12_rotated.json,635054,821854,55,Woman
74,618256,DepthScenes,duration_manipulation_targetAtFixation,jsons/VE125_randls_12_rotated.json,http://54.235.29.9/FacialAge/BNav_EC2/DepthDuration/v2_depth_duration_MTurk/v2_DepthDuration_HTML.html#226,226,1873,961,1920,1080,8-30-2022,8-5-24,75,depth_duration_stimuli/001100_2014-06-15_17-46-26_260595134347_rgbf000225-resize_2/001100_2014-06-15_17-46-26_260595134347_rgbf000225-resize_2-target.png,125,2.24,4,3356,129,feet,jsons/VE125_randls_12_rotated.json,635054,821854,55,Woman
75,618256,DepthScenes,duration_manipulation_targetAtFixation,jsons/VE125_randls_12_rotated.json,http://54.235.29.9/FacialAge/BNav_EC2/DepthDuration/v2_depth_duration_MTurk/v2_DepthDuration_HTML.html#226,226,1873,961,1920,1080,8-30-2022,8-5-24,76,depth_duration_stimuli/002784_2014-06-22_19-26-30_094959634447_rgbf000083-resize_3/002784_2014-06-22_19-26-30_094959634447_rgbf000083-resize_3-target.png,125,1.8046666666667,6,4385,136,feet,jsons/VE125_randls_12_rotated.json,635054,821854,55,Woman
76,618256,DepthScenes,duration_manipulation_targetAtFixation,jsons/VE125_randls_12_rotated.json,http://54.235.29.9/FacialAge/BNav_EC2/DepthDuration/v2_depth_duration_MTurk/v2_DepthDuration_HTML.html#226,226,1873,961,1920,1080,8-30-2022,8-5-24,77,depth_duration_stimuli/001052_2014-06-08_18-24-54_260595134347_rgbf000130-resize_1/001052_2014-06-08_18-24-54_260595134347_rgbf000130-resize_1-target.png,125,4.1045,0,2143,123,feet,jsons/VE125_randls_12_rotated.json,635054,821854,55,Woman
77,618256,DepthScenes,duration_manipulation_targetAtFixation,jsons/VE125_randls_12_rotated.json,http://54.235.29.9/FacialAge/BNav_EC2/DepthDuration/v2_depth_duration_MTurk/v2_DepthDuration_HTML.html#226,226,1873,961,1920,1080,8-30-2022,8-5-24,78,depth_duration_stimuli/002988_2014-06-15_12-24-20_094959634447_rgbf000150-resize_1/002988_2014-06-15_12-24-20_094959634447_rgbf000150-resize_1-target.png,125,4.7669999999999995,10,3614,122,feet,jsons/VE125_randls_12_rotated.json,635054,821854,55,Woman
78,618256,DepthScenes,duration_manipulation_targetAtFixation,jsons/VE125_randls_12_rotated.json,http://54.235.29.9/FacialAge/BNav_EC2/DepthDuration/v2_depth_duration_MTurk/v2_DepthDuration_HTML.html#226,226,1873,961,1920,1080,8-30-2022,8-5-24,79,depth_duration_stimuli/002639_2014-06-24_14-51-37_094959634447_rgbf000074-resize_4/002639_2014-06-24_14-51-37_094959634447_rgbf000074-resize_4-target.png,125,4.0375,8,3059,134,feet,jsons/VE125_randls_12_rotated.json,635054,821854,55,Woman
79,618256,DepthScenes,duration_manipulation_targetAtFixation,jsons/VE125_randls_12_rotated.json,http://54.235.29.9/FacialAge/BNav_EC2/DepthDuration/v2_depth_duration_MTurk/v2_DepthDuration_HTML.html#226,226,1873,961,1920,1080,8-30-2022,8-5-24,80,depth_duration_stimuli/003292_2014-05-14_21-53-49_094959634447_rgbf000100-resize_2/003292_2014-05-14_21-53-49_094959634447_rgbf000100-resize_2-target.png,125,3.4815,4,2976,118,feet,jsons/VE125_randls_12_rotated.json,635054,821854,55,Woman
80,618256,DepthScenes,duration_manipulation_targetAtFixation,jsons/VE125_randls_12_rotated.json,http://54.235.29.9/FacialAge/BNav_EC2/DepthDuration/v2_depth_duration_MTurk/v2_DepthDuration_HTML.html#226,226,1873,961,1920,1080,8-30-2022,8-5-24,81,depth_duration_stimuli/002199_2014-06-28_18-33-56_260595134347_rgbf000074-resize_0/002199_2014-06-28_18-33-56_260595134347_rgbf000074-resize_0-target.png,125,1.996,3,2341,132,feet,jsons/VE125_randls_12_rotated.json,635054,821854,55,Woman
81,618256,DepthScenes,duration_manipulation_targetAtFixation,jsons/VE125_randls_12_rotated.json,http://54.235.29.9/FacialAge/BNav_EC2/DepthDuration/v2_depth_duration_MTurk/v2_DepthDuration_HTML.html#226,226,1873,961,1920,1080,8-30-2022,8-5-24,82,depth_duration_stimuli/001056_2014-06-08_18-46-44_260595134347_rgbf000068-resize_0/001056_2014-06-08_18-46-44_260595134347_rgbf000068-resize_0-target.png,125,2.6625,6,2735,119,feet,jsons/VE125_randls_12_rotated.json,635054,821854,55,Woman
82,618256,DepthScenes,duration_manipulation_targetAtFixation,jsons/VE125_randls_12_rotated.json,http://54.235.29.9/FacialAge/BNav_EC2/DepthDuration/v2_depth_duration_MTurk/v2_DepthDuration_HTML.html#226,226,1873,961,1920,1080,8-30-2022,8-5-24,83,depth_duration_stimuli/000409_2014-06-04_19-23-33_260595134347_rgbf000067-resize_0/000409_2014-06-04_19-23-33_260595134347_rgbf000067-resize_0-target.png,125,3.7335,8,2855,129,feet,jsons/VE125_randls_12_rotated.json,635054,821854,55,Woman
83,618256,DepthScenes,duration_manipulation_targetAtFixation,jsons/VE125_randls_12_rotated.json,http://54.235.29.9/FacialAge/BNav_EC2/DepthDuration/v2_depth_duration_MTurk/v2_DepthDuration_HTML.html#226,226,1873,961,1920,1080,8-30-2022,8-5-24,84,depth_duration_stimuli/002663_2014-06-13_15-50-26_094959634447_rgbf000075-resize_1/002663_2014-06-13_15-50-26_094959634447_rgbf000075-resize_1-target.png,125,4.7495,10,3469,130,feet,jsons/VE125_randls_12_rotated.json,635054,821854,55,Woman
84,618256,DepthScenes,duration_manipulation_targetAtFixation,jsons/VE125_randls_12_rotated.json,http://54.235.29.9/FacialAge/BNav_EC2/DepthDuration/v2_depth_duration_MTurk/v2_DepthDuration_HTML.html#226,226,1873,961,1920,1080,8-30-2022,8-5-24,85,depth_duration_stimuli/000677_2014-06-08_23-10-32_260595134347_rgbf000158-resize_6/000677_2014-06-08_23-10-32_260595134347_rgbf000158-resize_6-target.png,125,3.556,6,2683,126,feet,jsons/VE125_randls_12_rotated.json,635054,821854,55,Woman
85,618256,DepthScenes,duration_manipulation_targetAtFixation,jsons/VE125_randls_12_rotated.json,http://54.235.29.9/FacialAge/BNav_EC2/DepthDuration/v2_depth_duration_MTurk/v2_DepthDuration_HTML.html#226,226,1873,961,1920,1080,8-30-2022,8-5-24,86,depth_duration_stimuli/001029_2014-06-08_13-17-57_260595134347_rgbf000065-resize_1/001029_2014-06-08_13-17-57_260595134347_rgbf000065-resize_1-target.png,125,3.0835,8,2999,118,feet,jsons/VE125_randls_12_rotated.json,635054,821854,55,Woman
86,618256,DepthScenes,duration_manipulation_targetAtFixation,jsons/VE125_randls_12_rotated.json,http://54.235.29.9/FacialAge/BNav_EC2/DepthDuration/v2_depth_duration_MTurk/v2_DepthDuration_HTML.html#226,226,1873,961,1920,1080,8-30-2022,8-5-24,87,depth_duration_stimuli/002344_2014-06-28_20-06-29_260595134347_rgbf000030-resize_1/002344_2014-06-28_20-06-29_260595134347_rgbf000030-resize_1-target.png,125,1.5795,3,3823,118,feet,jsons/VE125_randls_12_rotated.json,635054,821854,55,Woman
87,618256,DepthScenes,duration_manipulation_targetAtFixation,jsons/VE125_randls_12_rotated.json,http://54.235.29.9/FacialAge/BNav_EC2/DepthDuration/v2_depth_duration_MTurk/v2_DepthDuration_HTML.html#226,226,1873,961,1920,1080,8-30-2022,8-5-24,88,depth_duration_stimuli/002725_2014-06-22_11-47-51_094959634447_rgbf000070-resize_1/002725_2014-06-22_11-47-51_094959634447_rgbf000070-resize_1-target.png,125,2.195,8,3281,126,feet,jsons/VE125_randls_12_rotated.json,635054,821854,55,Woman
88,618256,DepthScenes,duration_manipulation_targetAtFixation,jsons/VE125_randls_12_rotated.json,http://54.235.29.9/FacialAge/BNav_EC2/DepthDuration/v2_depth_duration_MTurk/v2_DepthDuration_HTML.html#226,226,1873,961,1920,1080,8-30-2022,8-5-24,89,depth_duration_stimuli/003587_2014-05-23_16-48-02_094959634447_rgbf002384-resize_2/003587_2014-05-23_16-48-02_094959634447_rgbf002384-resize_2-target.png,125,1.357,2,7897,131,feet,jsons/VE125_randls_12_rotated.json,635054,821854,55,Woman
89,618256,DepthScenes,duration_manipulation_targetAtFixation,jsons/VE125_randls_12_rotated.json,http://54.235.29.9/FacialAge/BNav_EC2/DepthDuration/v2_depth_duration_MTurk/v2_DepthDuration_HTML.html#226,226,1873,961,1920,1080,8-30-2022,8-5-24,90,depth_duration_stimuli/001167_2014-06-17_15-38-07_260595134347_rgbf000108-resize_0/001167_2014-06-17_15-38-07_260595134347_rgbf000108-resize_0-target.png,125,1.8505,3,3449,132,feet,jsons/VE125_randls_12_rotated.json,635054,821854,55,Woman
90,618256,DepthScenes,duration_manipulation_targetAtFixation,jsons/VE125_randls_12_rotated.json,http://54.235.29.9/FacialAge/BNav_EC2/DepthDuration/v2_depth_duration_MTurk/v2_DepthDuration_HTML.html#226,226,1873,961,1920,1080,8-30-2022,8-5-24,91,depth_duration_stimuli/002750_2014-06-22_19-08-03_094959634447_rgbf000094-resize_4/002750_2014-06-22_19-08-03_094959634447_rgbf000094-resize_4-target.png,125,2.354,6,2690,127,feet,jsons/VE125_randls_12_rotated.json,635054,821854,55,Woman
91,618256,DepthScenes,duration_manipulation_targetAtFixation,jsons/VE125_randls_12_rotated.json,http://54.235.29.9/FacialAge/BNav_EC2/DepthDuration/v2_depth_duration_MTurk/v2_DepthDuration_HTML.html#226,226,1873,961,1920,1080,8-30-2022,8-5-24,92,depth_duration_stimuli/002549_2014-06-24_13-41-39_094959634447_rgbf000022-resize_3/002549_2014-06-24_13-41-39_094959634447_rgbf000022-resize_3-target.png,125,1.476,3,5042,135,feet,jsons/VE125_randls_12_rotated.json,635054,821854,55,Woman
92,618256,DepthScenes,duration_manipulation_targetAtFixation,jsons/VE125_randls_12_rotated.json,http://54.235.29.9/FacialAge/BNav_EC2/DepthDuration/v2_depth_duration_MTurk/v2_DepthDuration_HTML.html#226,226,1873,961,1920,1080,8-30-2022,8-5-24,93,depth_duration_stimuli/002678_2014-06-13_16-15-32_094959634447_rgbf000151-resize_6/002678_2014-06-13_16-15-32_094959634447_rgbf000151-resize_6-target.png,125,2.1830000000000003,5,2986,133,feet,jsons/VE125_randls_12_rotated.json,635054,821854,55,Woman
93,618256,DepthScenes,duration_manipulation_targetAtFixation,jsons/VE125_randls_12_rotated.json,http://54.235.29.9/FacialAge/BNav_EC2/DepthDuration/v2_depth_duration_MTurk/v2_DepthDuration_HTML.html#226,226,1873,961,1920,1080,8-30-2022,8-5-24,94,depth_duration_stimuli/000368_2014-06-09_15-53-01_260595134347_rgbf000155-resize_2/000368_2014-06-09_15-53-01_260595134347_rgbf000155-resize_2-target.png,125,2.4859999999999998,5,4468,129,feet,jsons/VE125_randls_12_rotated.json,635054,821854,55,Woman
94,618256,DepthScenes,duration_manipulation_targetAtFixation,jsons/VE125_randls_12_rotated.json,http://54.235.29.9/FacialAge/BNav_EC2/DepthDuration/v2_depth_duration_MTurk/v2_DepthDuration_HTML.html#226,226,1873,961,1920,1080,8-30-2022,8-5-24,95,depth_duration_stimuli/002875_2014-06-01_15-19-00_094959634447_rgbf000151-resize_1/002875_2014-06-01_15-19-00_094959634447_rgbf000151-resize_1-target.png,125,1.9675,6,5469,118,feet,jsons/VE125_randls_12_rotated.json,635054,821854,55,Woman
95,618256,DepthScenes,duration_manipulation_targetAtFixation,jsons/VE125_randls_12_rotated.json,http://54.235.29.9/FacialAge/BNav_EC2/DepthDuration/v2_depth_duration_MTurk/v2_DepthDuration_HTML.html#226,226,1873,961,1920,1080,8-30-2022,8-5-24,96,depth_duration_stimuli/001011_2014-06-08_23-18-54_260595134347_rgbf000044-resize_4/001011_2014-06-08_23-18-54_260595134347_rgbf000044-resize_4-target.png,125,2.4730000000000003,5,3544,127,feet,jsons/VE125_randls_12_rotated.json,635054,821854,55,Woman
96,618256,DepthScenes,duration_manipulation_targetAtFixation,jsons/VE125_randls_12_rotated.json,http://54.235.29.9/FacialAge/BNav_EC2/DepthDuration/v2_depth_duration_MTurk/v2_DepthDuration_HTML.html#226,226,1873,961,1920,1080,8-30-2022,8-5-24,97,depth_duration_stimuli/001392_2014-06-19_16-07-59_260595134347_rgbf000046-resize_1/001392_2014-06-19_16-07-59_260595134347_rgbf000046-resize_1-target.png,125,4.135,8,2559,133,feet,jsons/VE125_randls_12_rotated.json,635054,821854,55,Woman
97,618256,DepthScenes,duration_manipulation_targetAtFixation,jsons/VE125_randls_12_rotated.json,http://54.235.29.9/FacialAge/BNav_EC2/DepthDuration/v2_depth_duration_MTurk/v2_DepthDuration_HTML.html#226,226,1873,961,1920,1080,8-30-2022,8-5-24,98,depth_duration_stimuli/001570_2014-06-20_17-21-09_260595134347_rgbf000135-resize_4/001570_2014-06-20_17-21-09_260595134347_rgbf000135-resize_4-target.png,125,4.467,0,3914,126,feet,jsons/VE125_randls_12_rotated.json,635054,821854,55,Woman
98,618256,DepthScenes,duration_manipulation_targetAtFixation,jsons/VE125_randls_12_rotated.json,http://54.235.29.9/FacialAge/BNav_EC2/DepthDuration/v2_depth_duration_MTurk/v2_DepthDuration_HTML.html#226,226,1873,961,1920,1080,8-30-2022,8-5-24,99,depth_duration_stimuli/001222_2014-06-17_16-24-06_260595134347_rgbf000073-resize_0/001222_2014-06-17_16-24-06_260595134347_rgbf000073-resize-original.jpg,125,1.4385,0,2360,115,feet,jsons/VE125_randls_12_rotated.json,635054,821854,55,Woman
99,618256,DepthScenes,duration_manipulation_targetAtFixation,jsons/VE125_randls_12_rotated.json,http://54.235.29.9/FacialAge/BNav_EC2/DepthDuration/v2_depth_duration_MTurk/v2_DepthDuration_HTML.html#226,226,1873,961,1920,1080,8-30-2022,8-5-24,100,depth_duration_stimuli/002805_2014-06-22_19-54-03_094959634447_rgbf000079-resize_1/002805_2014-06-22_19-54-03_094959634447_rgbf000079-resize_1-target.png,125,3.1439999999999997,0,2798,113,feet,jsons/VE125_randls_12_rotated.json,635054,821854,55,Woman
100,618256,DepthScenes,duration_manipulation_targetAtFixation,jsons/VE125_randls_12_rotated.json,http://54.235.29.9/FacialAge/BNav_EC2/DepthDuration/v2_depth_duration_MTurk/v2_DepthDuration_HTML.html#226,226,1873,961,1920,1080,8-30-2022,8-5-24,101,depth_duration_stimuli/000906_2014-06-08_13-35-43_260595134347_rgbf000155-resize_1/000906_2014-06-08_13-35-43_260595134347_rgbf000155-resize_1-target.png,125,2.8489999999999998,5,4413,130,feet,jsons/VE125_randls_12_rotated.json,635054,821854,55,Woman
101,618256,DepthScenes,duration_manipulation_targetAtFixation,jsons/VE125_randls_12_rotated.json,http://54.235.29.9/FacialAge/BNav_EC2/DepthDuration/v2_depth_duration_MTurk/v2_DepthDuration_HTML.html#226,226,1873,961,1920,1080,8-30-2022,8-5-24,102,depth_duration_stimuli/000742_2014-06-08_18-48-09_260595134347_rgbf000164-resize_4/000742_2014-06-08_18-48-09_260595134347_rgbf000164-resize_4-target.png,125,4.632,0,2552,130,feet,jsons/VE125_randls_12_rotated.json,635054,821854,55,Woman
102,618256,DepthScenes,duration_manipulation_targetAtFixation,jsons/VE125_randls_12_rotated.json,http://54.235.29.9/FacialAge/BNav_EC2/DepthDuration/v2_depth_duration_MTurk/v2_DepthDuration_HTML.html#226,226,1873,961,1920,1080,8-30-2022,8-5-24,103,depth_duration_stimuli/001066_2014-06-08_22-03-20_260595134347_rgbf000066-resize_4/001066_2014-06-08_22-03-20_260595134347_rgbf000066-resize_4-target.png,125,4.2330000000000005,8,2591,123,feet,jsons/VE125_randls_12_rotated.json,635054,821854,55,Woman
103,618256,DepthScenes,duration_manipulation_targetAtFixation,jsons/VE125_randls_12_rotated.json,http://54.235.29.9/FacialAge/BNav_EC2/DepthDuration/v2_depth_duration_MTurk/v2_DepthDuration_HTML.html#226,226,1873,961,1920,1080,8-30-2022,8-5-24,104,depth_duration_stimuli/003081_2014-06-15_15-19-16_094959634447_rgbf000150-resize_1/003081_2014-06-15_15-19-16_094959634447_rgbf000150-resize_1-target.png,125,3.9125,8,2876,129,feet,jsons/VE125_randls_12_rotated.json,635054,821854,55,Woman
104,618256,DepthScenes,duration_manipulation_targetAtFixation,jsons/VE125_randls_12_rotated.json,http://54.235.29.9/FacialAge/BNav_EC2/DepthDuration/v2_depth_duration_MTurk/v2_DepthDuration_HTML.html#226,226,1873,961,1920,1080,8-30-2022,8-5-24,105,depth_duration_stimuli/001417_2014-06-19_16-25-36_260595134347_rgbf000115-resize_5/001417_2014-06-19_16-25-36_260595134347_rgbf000115-resize_5-target.png,125,4.6255,6,2535,127,feet,jsons/VE125_randls_12_rotated.json,635054,821854,55,Woman
105,618256,DepthScenes,duration_manipulation_targetAtFixation,jsons/VE125_randls_12_rotated.json,http://54.235.29.9/FacialAge/BNav_EC2/DepthDuration/v2_depth_duration_MTurk/v2_DepthDuration_HTML.html#226,226,1873,961,1920,1080,8-30-2022,8-5-24,106,depth_duration_stimuli/002637_2014-06-24_14-51-13_094959634447_rgbf000066-resize_4/002637_2014-06-24_14-51-13_094959634447_rgbf000066-resize_4-target.png,125,1.9955,6,2563,111,feet,jsons/VE125_randls_12_rotated.json,635054,821854,55,Woman
106,618256,DepthScenes,duration_manipulation_targetAtFixation,jsons/VE125_randls_12_rotated.json,http://54.235.29.9/FacialAge/BNav_EC2/DepthDuration/v2_depth_duration_MTurk/v2_DepthDuration_HTML.html#226,226,1873,961,1920,1080,8-30-2022,8-5-24,107,depth_duration_stimuli/003534_2014-05-22_15-06-10_094959634447_rgbf000102-resize_4/003534_2014-05-22_15-06-10_094959634447_rgbf000102-resize_4-target.png,125,1.426,4,3017,129,feet,jsons/VE125_randls_12_rotated.json,635054,821854,55,Woman
107,618256,DepthScenes,duration_manipulation_targetAtFixation,jsons/VE125_randls_12_rotated.json,http://54.235.29.9/FacialAge/BNav_EC2/DepthDuration/v2_depth_duration_MTurk/v2_DepthDuration_HTML.html#226,226,1873,961,1920,1080,8-30-2022,8-5-24,108,depth_duration_stimuli/001617_2014-06-20_11-35-32_260595134347_rgbf000066-resize_1/001617_2014-06-20_11-35-32_260595134347_rgbf000066-resize_1-target.png,125,3.7910000000000004,8,2731,134,feet,jsons/VE125_randls_12_rotated.json,635054,821854,55,Woman
108,618256,DepthScenes,duration_manipulation_targetAtFixation,jsons/VE125_randls_12_rotated.json,http://54.235.29.9/FacialAge/BNav_EC2/DepthDuration/v2_depth_duration_MTurk/v2_DepthDuration_HTML.html#226,226,1873,961,1920,1080,8-30-2022,8-5-24,109,depth_duration_stimuli/001806_2014-06-26_20-50-20_260595134347_rgbf000091-resize_1/001806_2014-06-26_20-50-20_260595134347_rgbf000091-resize_1-target.png,125,2.7305,4,2954,142,feet,jsons/VE125_randls_12_rotated.json,635054,821854,55,Woman
109,618256,DepthScenes,duration_manipulation_targetAtFixation,jsons/VE125_randls_12_rotated.json,http://54.235.29.9/FacialAge/BNav_EC2/DepthDuration/v2_depth_duration_MTurk/v2_DepthDuration_HTML.html#226,226,1873,961,1920,1080,8-30-2022,8-5-24,110,depth_duration_stimuli/002444_2014-06-28_20-32-08_260595134347_rgbf000027-resize_0/002444_2014-06-28_20-32-08_260595134347_rgbf000027-resize_0-target.png,125,4.388999999999999,8,5480,116,feet,jsons/VE125_randls_12_rotated.json,635054,821854,55,Woman
110,618256,DepthScenes,duration_manipulation_targetAtFixation,jsons/VE125_randls_12_rotated.json,http://54.235.29.9/FacialAge/BNav_EC2/DepthDuration/v2_depth_duration_MTurk/v2_DepthDuration_HTML.html#226,226,1873,961,1920,1080,8-30-2022,8-5-24,111,depth_duration_stimuli/000436_2014-06-09_22-25-11_260595134347_rgbf000137-resize_1/000436_2014-06-09_22-25-11_260595134347_rgbf000137-resize_1-target.png,125,4.0705,10,4936,136,feet,jsons/VE125_randls_12_rotated.json,635054,821854,55,Woman
111,618256,DepthScenes,duration_manipulation_targetAtFixation,jsons/VE125_randls_12_rotated.json,http://54.235.29.9/FacialAge/BNav_EC2/DepthDuration/v2_depth_duration_MTurk/v2_DepthDuration_HTML.html#226,226,1873,961,1920,1080,8-30-2022,8-5-24,112,depth_duration_stimuli/002136_2014-06-25_21-18-03_260595134347_rgbf000109-resize_3/002136_2014-06-25_21-18-03_260595134347_rgbf000109-resize_3-target.png,125,1.9569999999999999,0,2398,122,feet,jsons/VE125_randls_12_rotated.json,635054,821854,55,Woman
112,618256,DepthScenes,duration_manipulation_targetAtFixation,jsons/VE125_randls_12_rotated.json,http://54.235.29.9/FacialAge/BNav_EC2/DepthDuration/v2_depth_duration_MTurk/v2_DepthDuration_HTML.html#226,226,1873,961,1920,1080,8-30-2022,8-5-24,113,depth_duration_stimuli/002964_2014-06-08_17-46-11_094959634447_rgbf000091-resize_4/002964_2014-06-08_17-46-11_094959634447_rgbf000091-resize_4-target.png,125,1.6909999999999998,3,3336,134,feet,jsons/VE125_randls_12_rotated.json,635054,821854,55,Woman
113,618256,DepthScenes,duration_manipulation_targetAtFixation,jsons/VE125_randls_12_rotated.json,http://54.235.29.9/FacialAge/BNav_EC2/DepthDuration/v2_depth_duration_MTurk/v2_DepthDuration_HTML.html#226,226,1873,961,1920,1080,8-30-2022,8-5-24,114,depth_duration_stimuli/000866_2014-06-09_20-45-42_260595134347_rgbf000139-resize_1/000866_2014-06-09_20-45-42_260595134347_rgbf000139-resize_1-target.png,125,3.2155,6,2952,120,feet,jsons/VE125_randls_12_rotated.json,635054,821854,55,Woman
114,618256,DepthScenes,duration_manipulation_targetAtFixation,jsons/VE125_randls_12_rotated.json,http://54.235.29.9/FacialAge/BNav_EC2/DepthDuration/v2_depth_duration_MTurk/v2_DepthDuration_HTML.html#226,226,1873,961,1920,1080,8-30-2022,8-5-24,115,depth_duration_stimuli/002989_2014-06-15_12-25-03_094959634447_rgbf000150-resize_3/002989_2014-06-15_12-25-03_094959634447_rgbf000150-resize_3-target.png,125,4.1975,10,4783,132,feet,jsons/VE125_randls_12_rotated.json,635054,821854,55,Woman
115,618256,DepthScenes,duration_manipulation_targetAtFixation,jsons/VE125_randls_12_rotated.json,http://54.235.29.9/FacialAge/BNav_EC2/DepthDuration/v2_depth_duration_MTurk/v2_DepthDuration_HTML.html#226,226,1873,961,1920,1080,8-30-2022,8-5-24,116,depth_duration_stimuli/003129_2014-05-12_10-48-10_094959634447_rgbf000100-resize_0/003129_2014-05-12_10-48-10_094959634447_rgbf000100-resize_0-target.png,125,4.9305,8,3239,106,feet,jsons/VE125_randls_12_rotated.json,635054,821854,55,Woman
116,618256,DepthScenes,duration_manipulation_targetAtFixation,jsons/VE125_randls_12_rotated.json,http://54.235.29.9/FacialAge/BNav_EC2/DepthDuration/v2_depth_duration_MTurk/v2_DepthDuration_HTML.html#226,226,1873,961,1920,1080,8-30-2022,8-5-24,117,depth_duration_stimuli/000414_2014-06-04_19-49-13_260595134347_rgbf000044-resize_0/000414_2014-06-04_19-49-13_260595134347_rgbf000044-resize_0-target.png,125,4.329,10,3864,132,feet,jsons/VE125_randls_12_rotated.json,635054,821854,55,Woman
117,618256,DepthScenes,duration_manipulation_targetAtFixation,jsons/VE125_randls_12_rotated.json,http://54.235.29.9/FacialAge/BNav_EC2/DepthDuration/v2_depth_duration_MTurk/v2_DepthDuration_HTML.html#226,226,1873,961,1920,1080,8-30-2022,8-5-24,118,depth_duration_stimuli/000109_2014-05-14_23-41-52_260595134347_rgbf000035-resize_9/000109_2014-05-14_23-41-52_260595134347_rgbf000035-resize_9-target.png,125,1.3545,3,3548,122,feet,jsons/VE125_randls_12_rotated.json,635054,821854,55,Woman
118,618256,DepthScenes,duration_manipulation_targetAtFixation,jsons/VE125_randls_12_rotated.json,http://54.235.29.9/FacialAge/BNav_EC2/DepthDuration/v2_depth_duration_MTurk/v2_DepthDuration_HTML.html#226,226,1873,961,1920,1080,8-30-2022,8-5-24,119,depth_duration_stimuli/000470_2014-06-09_19-42-40_260595134347_rgbf000094-resize_1/000470_2014-06-09_19-42-40_260595134347_rgbf000094-resize_1-target.png,125,1.831,3,2694,125,feet,jsons/VE125_randls_12_rotated.json,635054,821854,55,Woman
119,618256,DepthScenes,duration_manipulation_targetAtFixation,jsons/VE125_randls_12_rotated.json,http://54.235.29.9/FacialAge/BNav_EC2/DepthDuration/v2_depth_duration_MTurk/v2_DepthDuration_HTML.html#226,226,1873,961,1920,1080,8-30-2022,8-5-24,120,depth_duration_stimuli/000787_2014-06-08_22-33-53_260595134347_rgbf000175-resize_1/000787_2014-06-08_22-33-53_260595134347_rgbf000175-resize-original.jpg,125,4.784,0,2461,119,feet,jsons/VE125_randls_12_rotated.json,635054,821854,55,Woman
120,618256,DepthScenes,duration_manipulation_targetAtFixation,jsons/VE125_randls_12_rotated.json,http://54.235.29.9/FacialAge/BNav_EC2/DepthDuration/v2_depth_duration_MTurk/v2_DepthDuration_HTML.html#226,226,1873,961,1920,1080,8-30-2022,8-5-24,121,depth_duration_stimuli/000854_2014-06-09_19-43-13_260595134347_rgbf000066-resize_0/000854_2014-06-09_19-43-13_260595134347_rgbf000066-resize_0-target.png,125,3.068,5,2912,109,feet,jsons/VE125_randls_12_rotated.json,635054,821854,55,Woman
121,618256,DepthScenes,duration_manipulation_targetAtFixation,jsons/VE125_randls_12_rotated.json,http://54.235.29.9/FacialAge/BNav_EC2/DepthDuration/v2_depth_duration_MTurk/v2_DepthDuration_HTML.html#226,226,1873,961,1920,1080,8-30-2022,8-5-24,122,depth_duration_stimuli/000758_2014-06-08_22-05-08_260595134347_rgbf000085-resize_0/000758_2014-06-08_22-05-08_260595134347_rgbf000085-resize_0-target.png,125,3.3810000000000002,6,2914,124,feet,jsons/VE125_randls_12_rotated.json,635054,821854,55,Woman
122,618256,DepthScenes,duration_manipulation_targetAtFixation,jsons/VE125_randls_12_rotated.json,http://54.235.29.9/FacialAge/BNav_EC2/DepthDuration/v2_depth_duration_MTurk/v2_DepthDuration_HTML.html#226,226,1873,961,1920,1080,8-30-2022,8-5-24,123,depth_duration_stimuli/002660_2014-06-13_15-44-18_094959634447_rgbf001878-resize_2/002660_2014-06-13_15-44-18_094959634447_rgbf001878-resize_2-target.png,125,3.576,0,2501,115,feet,jsons/VE125_randls_12_rotated.json,635054,821854,55,Woman
123,618256,DepthScenes,duration_manipulation_targetAtFixation,jsons/VE125_randls_12_rotated.json,http://54.235.29.9/FacialAge/BNav_EC2/DepthDuration/v2_depth_duration_MTurk/v2_DepthDuration_HTML.html#226,226,1873,961,1920,1080,8-30-2022,8-5-24,124,depth_duration_stimuli/002153_2014-06-25_21-27-18_260595134347_rgbf000038-resize_5/002153_2014-06-25_21-27-18_260595134347_rgbf000038-resize_5-target.png,125,2.505,3,3370,118,feet,jsons/VE125_randls_12_rotated.json,635054,821854,55,Woman
124,618256,DepthScenes,duration_manipulation_targetAtFixation,jsons/VE125_randls_12_rotated.json,http://54.235.29.9/FacialAge/BNav_EC2/DepthDuration/v2_depth_duration_MTurk/v2_DepthDuration_HTML.html#226,226,1873,961,1920,1080,8-30-2022,8-5-24,125,depth_duration_stimuli/000709_2014-06-08_13-51-55_260595134347_rgbf000068-resize_3/000709_2014-06-08_13-51-55_260595134347_rgbf000068-resize_3-target.png,125,1.8030000000000002,4,3014,114,feet,jsons/VE125_randls_12_rotated.json,635054,821854,55,Woman
125,618256,DepthScenes,duration_manipulation_targetAtFixation,jsons/VE125_randls_12_rotated.json,http://54.235.29.9/FacialAge/BNav_EC2/DepthDuration/v2_depth_duration_MTurk/v2_DepthDuration_HTML.html#226,226,1873,961,1920,1080,8-30-2022,8-5-24,126,depth_duration_stimuli/002057_2014-06-24_21-00-13_260595134347_rgbf000120-resize_1/002057_2014-06-24_21-00-13_260595134347_rgbf000120-resize_1-target.png,125,2.967,8,3280,136,feet,jsons/VE125_randls_12_rotated.json,635054,821854,55,Woman
126,618256,DepthScenes,duration_manipulation_targetAtFixation,jsons/VE125_randls_12_rotated.json,http://54.235.29.9/FacialAge/BNav_EC2/DepthDuration/v2_depth_duration_MTurk/v2_DepthDuration_HTML.html#226,226,1873,961,1920,1080,8-30-2022,8-5-24,127,depth_duration_stimuli/000191_2014-05-12_17-07-38_260595134347_rgbf000199-resize_0/000191_2014-05-12_17-07-38_260595134347_rgbf000199-resize_0-target.png,125,3.7995,10,3171,126,feet,jsons/VE125_randls_12_rotated.json,635054,821854,55,Woman
127,618256,DepthScenes,duration_manipulation_targetAtFixation,jsons/VE125_randls_12_rotated.json,http://54.235.29.9/FacialAge/BNav_EC2/DepthDuration/v2_depth_duration_MTurk/v2_DepthDuration_HTML.html#226,226,1873,961,1920,1080,8-30-2022,8-5-24,128,depth_duration_stimuli/000493_2014-06-09_21-01-18_260595134347_rgbf000196-resize_3/000493_2014-06-09_21-01-18_260595134347_rgbf000196-resize_3-target.png,125,3.44,8,3266,125,feet,jsons/VE125_randls_12_rotated.json,635054,821854,55,Woman
128,618256,DepthScenes,duration_manipulation_targetAtFixation,jsons/VE125_randls_12_rotated.json,http://54.235.29.9/FacialAge/BNav_EC2/DepthDuration/v2_depth_duration_MTurk/v2_DepthDuration_HTML.html#226,226,1873,961,1920,1080,8-30-2022,8-5-24,129,depth_duration_stimuli/002340_2014-06-28_20-05-46_260595134347_rgbf000113-resize_0/002340_2014-06-28_20-05-46_260595134347_rgbf000113-resize_0-target.png,125,2.4735,10,3370,132,feet,jsons/VE125_randls_12_rotated.json,635054,821854,55,Woman
129,618256,DepthScenes,duration_manipulation_targetAtFixation,jsons/VE125_randls_12_rotated.json,http://54.235.29.9/FacialAge/BNav_EC2/DepthDuration/v2_depth_duration_MTurk/v2_DepthDuration_HTML.html#226,226,1873,961,1920,1080,8-30-2022,8-5-24,130,depth_duration_stimuli/001016_2014-06-09_16-16-10_260595134347_rgbf000112-resize_5/001016_2014-06-09_16-16-10_260595134347_rgbf000112-resize_5-target.png,125,1.6565,4,2802,127,feet,jsons/VE125_randls_12_rotated.json,635054,821854,55,Woman
130,618256,DepthScenes,duration_manipulation_targetAtFixation,jsons/VE125_randls_12_rotated.json,http://54.235.29.9/FacialAge/BNav_EC2/DepthDuration/v2_depth_duration_MTurk/v2_DepthDuration_HTML.html#226,226,1873,961,1920,1080,8-30-2022,8-5-24,131,depth_duration_stimuli/000691_2014-06-08_13-08-50_260595134347_rgbf000132-resize_3/000691_2014-06-08_13-08-50_260595134347_rgbf000132-resize_3-target.png,125,4.1530000000000005,6,2923,120,feet,jsons/VE125_randls_12_rotated.json,635054,821854,55,Woman
131,618256,DepthScenes,duration_manipulation_targetAtFixation,jsons/VE125_randls_12_rotated.json,http://54.235.29.9/FacialAge/BNav_EC2/DepthDuration/v2_depth_duration_MTurk/v2_DepthDuration_HTML.html#226,226,1873,961,1920,1080,8-30-2022,8-5-24,132,depth_duration_stimuli/002213_2014-06-28_18-37-58_260595134347_rgbf000055-resize_1/002213_2014-06-28_18-37-58_260595134347_rgbf000055-resize_1-target.png,125,3.62,8,2649,116,feet,jsons/VE125_randls_12_rotated.json,635054,821854,55,Woman
132,618256,DepthScenes,duration_manipulation_targetAtFixation,jsons/VE125_randls_12_rotated.json,http://54.235.29.9/FacialAge/BNav_EC2/DepthDuration/v2_depth_duration_MTurk/v2_DepthDuration_HTML.html#226,226,1873,961,1920,1080,8-30-2022,8-5-24,133,depth_duration_stimuli/000103_2014-05-14_22-01-17_260595134347_rgbf000152-resize_5/000103_2014-05-14_22-01-17_260595134347_rgbf000152-resize_5-target.png,125,1.993,6,2813,132,feet,jsons/VE125_randls_12_rotated.json,635054,821854,55,Woman
133,618256,DepthScenes,duration_manipulation_targetAtFixation,jsons/VE125_randls_12_rotated.json,http://54.235.29.9/FacialAge/BNav_EC2/DepthDuration/v2_depth_duration_MTurk/v2_DepthDuration_HTML.html#226,226,1873,961,1920,1080,8-30-2022,8-5-24,134,depth_duration_stimuli/001555_2014-06-20_17-12-10_260595134347_rgbf000065-resize_4/001555_2014-06-20_17-12-10_260595134347_rgbf000065-resize_4-target.png,125,1.633,3,3772,130,feet,jsons/VE125_randls_12_rotated.json,635054,821854,55,Woman
134,618256,DepthScenes,duration_manipulation_targetAtFixation,jsons/VE125_randls_12_rotated.json,http://54.235.29.9/FacialAge/BNav_EC2/DepthDuration/v2_depth_duration_MTurk/v2_DepthDuration_HTML.html#226,226,1873,961,1920,1080,8-30-2022,8-5-24,135,depth_duration_stimuli/000375_2014-06-08_11-17-29_260595134347_rgbf000133-resize_2/000375_2014-06-08_11-17-29_260595134347_rgbf000133-resize-original.jpg,125,4.718,0,2409,131,feet,jsons/VE125_randls_12_rotated.json,635054,821854,55,Woman
135,618256,DepthScenes,duration_manipulation_targetAtFixation,jsons/VE125_randls_12_rotated.json,http://54.235.29.9/FacialAge/BNav_EC2/DepthDuration/v2_depth_duration_MTurk/v2_DepthDuration_HTML.html#226,226,1873,961,1920,1080,8-30-2022,8-5-24,136,depth_duration_stimuli/002103_2014-06-25_20-00-40_260595134347_rgbf000049-resize_0/002103_2014-06-25_20-00-40_260595134347_rgbf000049-resize_0-target.png,125,4.105,0,2005,123,feet,jsons/VE125_randls_12_rotated.json,635054,821854,55,Woman
136,618256,DepthScenes,duration_manipulation_targetAtFixation,jsons/VE125_randls_12_rotated.json,http://54.235.29.9/FacialAge/BNav_EC2/DepthDuration/v2_depth_duration_MTurk/v2_DepthDuration_HTML.html#226,226,1873,961,1920,1080,8-30-2022,8-5-24,137,depth_duration_stimuli/002039_2014-06-24_20-22-38_260595134347_rgbf000084-resize_1/002039_2014-06-24_20-22-38_260595134347_rgbf000084-resize_1-target.png,125,4.408,6,2724,129,feet,jsons/VE125_randls_12_rotated.json,635054,821854,55,Woman
137,618256,DepthScenes,duration_manipulation_targetAtFixation,jsons/VE125_randls_12_rotated.json,http://54.235.29.9/FacialAge/BNav_EC2/DepthDuration/v2_depth_duration_MTurk/v2_DepthDuration_HTML.html#226,226,1873,961,1920,1080,8-30-2022,8-5-24,138,depth_duration_stimuli/003079_2014-06-15_15-18-20_094959634447_rgbf000152-resize_8/003079_2014-06-15_15-18-20_094959634447_rgbf000152-resize_8-target.png,125,2.8775,8,2496,136,feet,jsons/VE125_randls_12_rotated.json,635054,821854,55,Woman
138,618256,DepthScenes,duration_manipulation_targetAtFixation,jsons/VE125_randls_12_rotated.json,http://54.235.29.9/FacialAge/BNav_EC2/DepthDuration/v2_depth_duration_MTurk/v2_DepthDuration_HTML.html#226,226,1873,961,1920,1080,8-30-2022,8-5-24,139,depth_duration_stimuli/000506_2014-06-08_23-21-00_260595134347_rgbf000070-resize_7/000506_2014-06-08_23-21-00_260595134347_rgbf000070-resize_7-target.png,125,4.0585,8,2185,118,feet,jsons/VE125_randls_12_rotated.json,635054,821854,55,Woman
139,618256,DepthScenes,duration_manipulation_targetAtFixation,jsons/VE125_randls_12_rotated.json,http://54.235.29.9/FacialAge/BNav_EC2/DepthDuration/v2_depth_duration_MTurk/v2_DepthDuration_HTML.html#226,226,1873,961,1920,1080,8-30-2022,8-5-24,140,depth_duration_stimuli/001214_2014-06-17_16-13-55_260595134347_rgbf000111-resize_0/001214_2014-06-17_16-13-55_260595134347_rgbf000111-resize_0-target.png,125,2.6505,5,2563,112,feet,jsons/VE125_randls_12_rotated.json,635054,821854,55,Woman
140,618256,DepthScenes,duration_manipulation_targetAtFixation,jsons/VE125_randls_12_rotated.json,http://54.235.29.9/FacialAge/BNav_EC2/DepthDuration/v2_depth_duration_MTurk/v2_DepthDuration_HTML.html#226,226,1873,961,1920,1080,8-30-2022,8-5-24,141,depth_duration_stimuli/000810_2014-06-08_17-20-01_260595134347_rgbf000105-resize_0/000810_2014-06-08_17-20-01_260595134347_rgbf000105-resize_0-target.png,125,1.4865,4,2617,124,feet,jsons/VE125_randls_12_rotated.json,635054,821854,55,Woman
141,618256,DepthScenes,duration_manipulation_targetAtFixation,jsons/VE125_randls_12_rotated.json,http://54.235.29.9/FacialAge/BNav_EC2/DepthDuration/v2_depth_duration_MTurk/v2_DepthDuration_HTML.html#226,226,1873,961,1920,1080,8-30-2022,8-5-24,142,depth_duration_stimuli/000635_2014-06-08_16-38-42_260595134347_rgbf000106-resize_1/000635_2014-06-08_16-38-42_260595134347_rgbf000106-resize_1-target.png,125,2.074,6,2574,122,feet,jsons/VE125_randls_12_rotated.json,635054,821854,55,Woman
142,618256,DepthScenes,duration_manipulation_targetAtFixation,jsons/VE125_randls_12_rotated.json,http://54.235.29.9/FacialAge/BNav_EC2/DepthDuration/v2_depth_duration_MTurk/v2_DepthDuration_HTML.html#226,226,1873,961,1920,1080,8-30-2022,8-5-24,143,depth_duration_stimuli/002279_2014-06-28_18-55-32_260595134347_rgbf000040-resize_5/002279_2014-06-28_18-55-32_260595134347_rgbf000040-resize_5-target.png,125,1.5043333333333,3,2586,135,feet,jsons/VE125_randls_12_rotated.json,635054,821854,55,Woman
143,618256,DepthScenes,duration_manipulation_targetAtFixation,jsons/VE125_randls_12_rotated.json,http://54.235.29.9/FacialAge/BNav_EC2/DepthDuration/v2_depth_duration_MTurk/v2_DepthDuration_HTML.html#226,226,1873,961,1920,1080,8-30-2022,8-5-24,144,depth_duration_stimuli/001094_2014-06-15_17-36-00_260595134347_rgbf000205-resize_0/001094_2014-06-15_17-36-00_260595134347_rgbf000205-resize_0-target.png,125,4.2175,0,2201,117,feet,jsons/VE125_randls_12_rotated.json,635054,821854,55,Woman
144,618256,DepthScenes,duration_manipulation_targetAtFixation,jsons/VE125_randls_12_rotated.json,http://54.235.29.9/FacialAge/BNav_EC2/DepthDuration/v2_depth_duration_MTurk/v2_DepthDuration_HTML.html#226,226,1873,961,1920,1080,8-30-2022,8-5-24,145,depth_duration_stimuli/000692_2014-06-08_13-09-42_260595134347_rgbf000199-resize_2/000692_2014-06-08_13-09-42_260595134347_rgbf000199-resize_2-target.png,125,3.661,0,2170,127,feet,jsons/VE125_randls_12_rotated.json,635054,821854,55,Woman
145,618256,DepthScenes,duration_manipulation_targetAtFixation,jsons/VE125_randls_12_rotated.json,http://54.235.29.9/FacialAge/BNav_EC2/DepthDuration/v2_depth_duration_MTurk/v2_DepthDuration_HTML.html#226,226,1873,961,1920,1080,8-30-2022,8-5-24,146,depth_duration_stimuli/003495_2014-05-21_16-01-51_094959634447_rgbf000100-resize_3/003495_2014-05-21_16-01-51_094959634447_rgbf000100-resize_3-target.png,125,1.6255,3,2542,136,feet,jsons/VE125_randls_12_rotated.json,635054,821854,55,Woman
146,618256,DepthScenes,duration_manipulation_targetAtFixation,jsons/VE125_randls_12_rotated.json,http://54.235.29.9/FacialAge/BNav_EC2/DepthDuration/v2_depth_duration_MTurk/v2_DepthDuration_HTML.html#226,226,1873,961,1920,1080,8-30-2022,8-5-24,147,depth_duration_stimuli/001244_2014-06-17_16-47-45_260595134347_rgbf000030-resize_4/001244_2014-06-17_16-47-45_260595134347_rgbf000030-resize_4-target.png,125,2.0425,5,2683,122,feet,jsons/VE125_randls_12_rotated.json,635054,821854,55,Woman
147,618256,DepthScenes,duration_manipulation_targetAtFixation,jsons/VE125_randls_12_rotated.json,http://54.235.29.9/FacialAge/BNav_EC2/DepthDuration/v2_depth_duration_MTurk/v2_DepthDuration_HTML.html#226,226,1873,961,1920,1080,8-30-2022,8-5-24,148,depth_duration_stimuli/003083_2014-06-15_15-21-03_094959634447_rgbf000063-resize_1/003083_2014-06-15_15-21-03_094959634447_rgbf000063-resize_1-target.png,125,4.1405,8,2739,120,feet,jsons/VE125_randls_12_rotated.json,635054,821854,55,Woman
148,618256,DepthScenes,duration_manipulation_targetAtFixation,jsons/VE125_randls_12_rotated.json,http://54.235.29.9/FacialAge/BNav_EC2/DepthDuration/v2_depth_duration_MTurk/v2_DepthDuration_HTML.html#226,226,1873,961,1920,1080,8-30-2022,8-5-24,149,depth_duration_stimuli/000486_2014-06-09_20-47-20_260595134347_rgbf000143-resize_2/000486_2014-06-09_20-47-20_260595134347_rgbf000143-resize_2-target.png,125,4.8325,6,2692,123,feet,jsons/VE125_randls_12_rotated.json,635054,821854,55,Woman
149,618256,DepthScenes,duration_manipulation_targetAtFixation,jsons/VE125_randls_12_rotated.json,http://54.235.29.9/FacialAge/BNav_EC2/DepthDuration/v2_depth_duration_MTurk/v2_DepthDuration_HTML.html#226,226,1873,961,1920,1080,8-30-2022,8-5-24,150,depth_duration_stimuli/002953_2014-06-08_17-32-18_094959634447_rgbf000059-resize_5/002953_2014-06-08_17-32-18_094959634447_rgbf000059-resize_5-target.png,125,1.551,4,3133,114,feet,jsons/VE125_randls_12_rotated.json,635054,821854,55,Woman
150,618256,DepthScenes,duration_manipulation_targetAtFixation,jsons/VE125_randls_12_rotated.json,http://54.235.29.9/FacialAge/BNav_EC2/DepthDuration/v2_depth_duration_MTurk/v2_DepthDuration_HTML.html#226,226,1873,961,1920,1080,8-30-2022,8-5-24,151,depth_duration_stimuli/000878_2014-06-08_22-52-45_260595134347_rgbf000045-resize_2/000878_2014-06-08_22-52-45_260595134347_rgbf000045-resize_2-target.png,125,2.092,6,2680,122,feet,jsons/VE125_randls_12_rotated.json,635054,821854,55,Woman
151,618256,DepthScenes,duration_manipulation_targetAtFixation,jsons/VE125_randls_12_rotated.json,http://54.235.29.9/FacialAge/BNav_EC2/DepthDuration/v2_depth_duration_MTurk/v2_DepthDuration_HTML.html#226,226,1873,961,1920,1080,8-30-2022,8-5-24,152,depth_duration_stimuli/000569_2014-06-09_22-51-47_260595134347_rgbf000141-resize_3/000569_2014-06-09_22-51-47_260595134347_rgbf000141-resize-original.jpg,125,4.512,0,2592,134,feet,jsons/VE125_randls_12_rotated.json,635054,821854,55,Woman
152,618256,DepthScenes,duration_manipulation_targetAtFixation,jsons/VE125_randls_12_rotated.json,http://54.235.29.9/FacialAge/BNav_EC2/DepthDuration/v2_depth_duration_MTurk/v2_DepthDuration_HTML.html#226,226,1873,961,1920,1080,8-30-2022,8-5-24,153,depth_duration_stimuli/002323_2014-06-28_20-01-54_260595134347_rgbf000051-resize_4/002323_2014-06-28_20-01-54_260595134347_rgbf000051-resize_4-target.png,125,3.7310000000000003,6,3012,127,feet,jsons/VE125_randls_12_rotated.json,635054,821854,55,Woman
153,618256,DepthScenes,duration_manipulation_targetAtFixation,jsons/VE125_randls_12_rotated.json,http://54.235.29.9/FacialAge/BNav_EC2/DepthDuration/v2_depth_duration_MTurk/v2_DepthDuration_HTML.html#226,226,1873,961,1920,1080,8-30-2022,8-5-24,154,depth_duration_stimuli/000917_2014-06-09_22-45-29_260595134347_rgbf000149-resize_3/000917_2014-06-09_22-45-29_260595134347_rgbf000149-resize_3-target.png,125,4.1865,8,2567,118,feet,jsons/VE125_randls_12_rotated.json,635054,821854,55,Woman
154,618256,DepthScenes,duration_manipulation_targetAtFixation,jsons/VE125_randls_12_rotated.json,http://54.235.29.9/FacialAge/BNav_EC2/DepthDuration/v2_depth_duration_MTurk/v2_DepthDuration_HTML.html#226,226,1873,961,1920,1080,8-30-2022,8-5-24,155,depth_duration_stimuli/003048_2014-06-15_13-49-43_094959634447_rgbf000150-resize_1/003048_2014-06-15_13-49-43_094959634447_rgbf000150-resize_1-target.png,125,4.0035,10,2915,131,feet,jsons/VE125_randls_12_rotated.json,635054,821854,55,Woman
155,618256,DepthScenes,duration_manipulation_targetAtFixation,jsons/VE125_randls_12_rotated.json,http://54.235.29.9/FacialAge/BNav_EC2/DepthDuration/v2_depth_duration_MTurk/v2_DepthDuration_HTML.html#226,226,1873,961,1920,1080,8-30-2022,8-5-24,156,depth_duration_stimuli/002043_2014-06-24_20-29-38_260595134347_rgbf000039-resize_4/002043_2014-06-24_20-29-38_260595134347_rgbf000039-resize_4-target.png,125,2.8435,6,2371,127,feet,jsons/VE125_randls_12_rotated.json,635054,821854,55,Woman
156,618256,DepthScenes,duration_manipulation_targetAtFixation,jsons/VE125_randls_12_rotated.json,http://54.235.29.9/FacialAge/BNav_EC2/DepthDuration/v2_depth_duration_MTurk/v2_DepthDuration_HTML.html#226,226,1873,961,1920,1080,8-30-2022,8-5-24,157,depth_duration_stimuli/000749_2014-06-08_21-55-06_260595134347_rgbf000070-resize_2/000749_2014-06-08_21-55-06_260595134347_rgbf000070-resize_2-target.png,125,2.331,4,2887,134,feet,jsons/VE125_randls_12_rotated.json,635054,821854,55,Woman
157,618256,DepthScenes,duration_manipulation_targetAtFixation,jsons/VE125_randls_12_rotated.json,http://54.235.29.9/FacialAge/BNav_EC2/DepthDuration/v2_depth_duration_MTurk/v2_DepthDuration_HTML.html#226,226,1873,961,1920,1080,8-30-2022,8-5-24,158,depth_duration_stimuli/002788_2014-06-22_19-36-03_094959634447_rgbf000088-resize_2/002788_2014-06-22_19-36-03_094959634447_rgbf000088-resize_2-target.png,125,1.6465,6,3127,121,feet,jsons/VE125_randls_12_rotated.json,635054,821854,55,Woman
158,618256,DepthScenes,duration_manipulation_targetAtFixation,jsons/VE125_randls_12_rotated.json,http://54.235.29.9/FacialAge/BNav_EC2/DepthDuration/v2_depth_duration_MTurk/v2_DepthDuration_HTML.html#226,226,1873,961,1920,1080,8-30-2022,8-5-24,159,depth_duration_stimuli/001136_2014-06-17_15-19-41_260595134347_rgbf000076-resize_3/001136_2014-06-17_15-19-41_260595134347_rgbf000076-resize_3-target.png,125,1.8655,5,2663,117,feet,jsons/VE125_randls_12_rotated.json,635054,821854,55,Woman
159,618256,DepthScenes,duration_manipulation_targetAtFixation,jsons/VE125_randls_12_rotated.json,http://54.235.29.9/FacialAge/BNav_EC2/DepthDuration/v2_depth_duration_MTurk/v2_DepthDuration_HTML.html#226,226,1873,961,1920,1080,8-30-2022,8-5-24,160,depth_duration_stimuli/001164_2014-06-17_15-35-46_260595134347_rgbf000085-resize_3/001164_2014-06-17_15-35-46_260595134347_rgbf000085-resize_3-target.png,125,2.354,6,3828,135,feet,jsons/VE125_randls_12_rotated.json,635054,821854,55,Woman
160,618256,DepthScenes,duration_manipulation_targetAtFixation,jsons/VE125_randls_12_rotated.json,http://54.235.29.9/FacialAge/BNav_EC2/DepthDuration/v2_depth_duration_MTurk/v2_DepthDuration_HTML.html#226,226,1873,961,1920,1080,8-30-2022,8-5-24,161,depth_duration_stimuli/003010_2014-06-15_12-54-35_094959634447_rgbf000112-resize_0/003010_2014-06-15_12-54-35_094959634447_rgbf000112-resize_0-target.png,125,3.1185,0,1931,132,feet,jsons/VE125_randls_12_rotated.json,635054,821854,55,Woman
161,618256,DepthScenes,duration_manipulation_targetAtFixation,jsons/VE125_randls_12_rotated.json,http://54.235.29.9/FacialAge/BNav_EC2/DepthDuration/v2_depth_duration_MTurk/v2_DepthDuration_HTML.html#226,226,1873,961,1920,1080,8-30-2022,8-5-24,162,depth_duration_stimuli/001810_2014-06-26_20-51-35_260595134347_rgbf000040-resize_3/001810_2014-06-26_20-51-35_260595134347_rgbf000040-resize_3-target.png,125,2.2525,5,2583,131,feet,jsons/VE125_randls_12_rotated.json,635054,821854,55,Woman
162,618256,DepthScenes,duration_manipulation_targetAtFixation,jsons/VE125_randls_12_rotated.json,http://54.235.29.9/FacialAge/BNav_EC2/DepthDuration/v2_depth_duration_MTurk/v2_DepthDuration_HTML.html#226,226,1873,961,1920,1080,8-30-2022,8-5-24,163,depth_duration_stimuli/000665_2014-06-09_20-42-35_260595134347_rgbf000110-resize_1/000665_2014-06-09_20-42-35_260595134347_rgbf000110-resize_1-target.png,125,3.057,5,2322,120,feet,jsons/VE125_randls_12_rotated.json,635054,821854,55,Woman
163,618256,DepthScenes,duration_manipulation_targetAtFixation,jsons/VE125_randls_12_rotated.json,http://54.235.29.9/FacialAge/BNav_EC2/DepthDuration/v2_depth_duration_MTurk/v2_DepthDuration_HTML.html#226,226,1873,961,1920,1080,8-30-2022,8-5-24,164,depth_duration_stimuli/001150_2014-06-17_15-27-34_260595134347_rgbf000108-resize_2/001150_2014-06-17_15-27-34_260595134347_rgbf000108-resize_2-target.png,125,4.0325,6,2748,133,feet,jsons/VE125_randls_12_rotated.json,635054,821854,55,Woman
