,subjID,experimentName,versionName,sequenceName,url,selected_row,windowWidth,windowHeight,screenWidth,screenHeight,startDate,startTime,trial,stimulus,duration,actual_depth,depth_estimate,trial_RT,log_sceneDuration,unitSelection,seq_filepath,experimentTime,totalTime,age,gender
0,621633,DepthScenes,duration_manipulation_targetAtFixation,jsons/v1_VE250_randls_70_rotated.json,http://54.235.29.9/FacialAge/BNav_EC2/DepthDuration/v2_depth_duration_MTurk/v2_DepthDuration_HTML.html#66,66,1024,625,1024,768,8-30-2022,6-55-39,1,depth_duration_stimuli/002953_2014-06-08_17-32-18_094959634447_rgbf000059-resize_5/002953_2014-06-08_17-32-18_094959634447_rgbf000059-resize_5-target.png,250,1.551,2,3512,136,meters,jsons/v1_VE250_randls_70_rotated.json,934216,1329366,30,Woman
1,621633,DepthScenes,duration_manipulation_targetAtFixation,jsons/v1_VE250_randls_70_rotated.json,http://54.235.29.9/FacialAge/BNav_EC2/DepthDuration/v2_depth_duration_MTurk/v2_DepthDuration_HTML.html#66,66,1024,625,1024,768,8-30-2022,6-55-39,2,depth_duration_stimuli/000878_2014-06-08_22-52-45_260595134347_rgbf000045-resize_2/000878_2014-06-08_22-52-45_260595134347_rgbf000045-resize_2-target.png,250,2.092,1,8496,252,meters,jsons/v1_VE250_randls_70_rotated.json,934216,1329366,30,Woman
2,621633,DepthScenes,duration_manipulation_targetAtFixation,jsons/v1_VE250_randls_70_rotated.json,http://54.235.29.9/FacialAge/BNav_EC2/DepthDuration/v2_depth_duration_MTurk/v2_DepthDuration_HTML.html#66,66,1024,625,1024,768,8-30-2022,6-55-39,3,depth_duration_stimuli/001100_2014-06-15_17-46-26_260595134347_rgbf000225-resize_2/001100_2014-06-15_17-46-26_260595134347_rgbf000225-resize_2-target.png,250,2.24,2,9308,279,meters,jsons/v1_VE250_randls_70_rotated.json,934216,1329366,30,Woman
3,621633,DepthScenes,duration_manipulation_targetAtFixation,jsons/v1_VE250_randls_70_rotated.json,http://54.235.29.9/FacialAge/BNav_EC2/DepthDuration/v2_depth_duration_MTurk/v2_DepthDuration_HTML.html#66,66,1024,625,1024,768,8-30-2022,6-55-39,4,depth_duration_stimuli/002784_2014-06-22_19-26-30_094959634447_rgbf000083-resize_3/002784_2014-06-22_19-26-30_094959634447_rgbf000083-resize_3-target.png,250,1.8046666666667,2,3628,240,meters,jsons/v1_VE250_randls_70_rotated.json,934216,1329366,30,Woman
4,621633,DepthScenes,duration_manipulation_targetAtFixation,jsons/v1_VE250_randls_70_rotated.json,http://54.235.29.9/FacialAge/BNav_EC2/DepthDuration/v2_depth_duration_MTurk/v2_DepthDuration_HTML.html#66,66,1024,625,1024,768,8-30-2022,6-55-39,5,depth_duration_stimuli/002444_2014-06-28_20-32-08_260595134347_rgbf000027-resize_0/002444_2014-06-28_20-32-08_260595134347_rgbf000027-resize_0-target.png,250,4.388999999999999,2,12936,232,meters,jsons/v1_VE250_randls_70_rotated.json,934216,1329366,30,Woman
5,621633,DepthScenes,duration_manipulation_targetAtFixation,jsons/v1_VE250_randls_70_rotated.json,http://54.235.29.9/FacialAge/BNav_EC2/DepthDuration/v2_depth_duration_MTurk/v2_DepthDuration_HTML.html#66,66,1024,625,1024,768,8-30-2022,6-55-39,6,depth_duration_stimuli/000436_2014-06-09_22-25-11_260595134347_rgbf000137-resize_1/000436_2014-06-09_22-25-11_260595134347_rgbf000137-resize_1-target.png,250,4.0705,2,5605,564,meters,jsons/v1_VE250_randls_70_rotated.json,934216,1329366,30,Woman
6,621633,DepthScenes,duration_manipulation_targetAtFixation,jsons/v1_VE250_randls_70_rotated.json,http://54.235.29.9/FacialAge/BNav_EC2/DepthDuration/v2_depth_duration_MTurk/v2_DepthDuration_HTML.html#66,66,1024,625,1024,768,8-30-2022,6-55-39,7,depth_duration_stimuli/001094_2014-06-15_17-36-00_260595134347_rgbf000205-resize_0/001094_2014-06-15_17-36-00_260595134347_rgbf000205-resize_0-target.png,250,4.2175,2,5509,267,meters,jsons/v1_VE250_randls_70_rotated.json,934216,1329366,30,Woman
7,621633,DepthScenes,duration_manipulation_targetAtFixation,jsons/v1_VE250_randls_70_rotated.json,http://54.235.29.9/FacialAge/BNav_EC2/DepthDuration/v2_depth_duration_MTurk/v2_DepthDuration_HTML.html#66,66,1024,625,1024,768,8-30-2022,6-55-39,8,depth_duration_stimuli/000692_2014-06-08_13-09-42_260595134347_rgbf000199-resize_2/000692_2014-06-08_13-09-42_260595134347_rgbf000199-resize_2-target.png,250,3.661,2,4618,232,meters,jsons/v1_VE250_randls_70_rotated.json,934216,1329366,30,Woman
8,621633,DepthScenes,duration_manipulation_targetAtFixation,jsons/v1_VE250_randls_70_rotated.json,http://54.235.29.9/FacialAge/BNav_EC2/DepthDuration/v2_depth_duration_MTurk/v2_DepthDuration_HTML.html#66,66,1024,625,1024,768,8-30-2022,6-55-39,9,depth_duration_stimuli/000103_2014-05-14_22-01-17_260595134347_rgbf000152-resize_5/000103_2014-05-14_22-01-17_260595134347_rgbf000152-resize_5-target.png,250,1.993,2,3575,262,meters,jsons/v1_VE250_randls_70_rotated.json,934216,1329366,30,Woman
9,621633,DepthScenes,duration_manipulation_targetAtFixation,jsons/v1_VE250_randls_70_rotated.json,http://54.235.29.9/FacialAge/BNav_EC2/DepthDuration/v2_depth_duration_MTurk/v2_DepthDuration_HTML.html#66,66,1024,625,1024,768,8-30-2022,6-55-39,10,depth_duration_stimuli/001555_2014-06-20_17-12-10_260595134347_rgbf000065-resize_4/001555_2014-06-20_17-12-10_260595134347_rgbf000065-resize_4-target.png,250,1.633,2,6093,248,meters,jsons/v1_VE250_randls_70_rotated.json,934216,1329366,30,Woman
10,621633,DepthScenes,duration_manipulation_targetAtFixation,jsons/v1_VE250_randls_70_rotated.json,http://54.235.29.9/FacialAge/BNav_EC2/DepthDuration/v2_depth_duration_MTurk/v2_DepthDuration_HTML.html#66,66,1024,625,1024,768,8-30-2022,6-55-39,11,depth_duration_stimuli/000943_2014-06-09_19-31-07_260595134347_rgbf000128-resize_1/000943_2014-06-09_19-31-07_260595134347_rgbf000128-resize_1-target.png,250,1.9765,1,2514,300,meters,jsons/v1_VE250_randls_70_rotated.json,934216,1329366,30,Woman
11,621633,DepthScenes,duration_manipulation_targetAtFixation,jsons/v1_VE250_randls_70_rotated.json,http://54.235.29.9/FacialAge/BNav_EC2/DepthDuration/v2_depth_duration_MTurk/v2_DepthDuration_HTML.html#66,66,1024,625,1024,768,8-30-2022,6-55-39,12,depth_duration_stimuli/003070_2014-06-15_14-58-27_094959634447_rgbf000150-resize_3/003070_2014-06-15_14-58-27_094959634447_rgbf000150-resize_3-target.png,250,2.9415,3,24114,273,meters,jsons/v1_VE250_randls_70_rotated.json,934216,1329366,30,Woman
12,621633,DepthScenes,duration_manipulation_targetAtFixation,jsons/v1_VE250_randls_70_rotated.json,http://54.235.29.9/FacialAge/BNav_EC2/DepthDuration/v2_depth_duration_MTurk/v2_DepthDuration_HTML.html#66,66,1024,625,1024,768,8-30-2022,6-55-39,13,depth_duration_stimuli/000137_2014-05-20_17-04-49_260595134347_rgbf000120-resize_1/000137_2014-05-20_17-04-49_260595134347_rgbf000120-resize_1-target.png,250,3.786,3,9579,403,meters,jsons/v1_VE250_randls_70_rotated.json,934216,1329366,30,Woman
13,621633,DepthScenes,duration_manipulation_targetAtFixation,jsons/v1_VE250_randls_70_rotated.json,http://54.235.29.9/FacialAge/BNav_EC2/DepthDuration/v2_depth_duration_MTurk/v2_DepthDuration_HTML.html#66,66,1024,625,1024,768,8-30-2022,6-55-39,14,depth_duration_stimuli/000736_2014-06-08_18-24-15_260595134347_rgbf000206-resize_3/000736_2014-06-08_18-24-15_260595134347_rgbf000206-resize_3-target.png,250,3.515,1,17594,290,meters,jsons/v1_VE250_randls_70_rotated.json,934216,1329366,30,Woman
14,621633,DepthScenes,duration_manipulation_targetAtFixation,jsons/v1_VE250_randls_70_rotated.json,http://54.235.29.9/FacialAge/BNav_EC2/DepthDuration/v2_depth_duration_MTurk/v2_DepthDuration_HTML.html#66,66,1024,625,1024,768,8-30-2022,6-55-39,15,depth_duration_stimuli/001214_2014-06-17_16-13-55_260595134347_rgbf000111-resize_0/001214_2014-06-17_16-13-55_260595134347_rgbf000111-resize_0-target.png,250,2.6505,3,5485,215,meters,jsons/v1_VE250_randls_70_rotated.json,934216,1329366,30,Woman
15,621633,DepthScenes,duration_manipulation_targetAtFixation,jsons/v1_VE250_randls_70_rotated.json,http://54.235.29.9/FacialAge/BNav_EC2/DepthDuration/v2_depth_duration_MTurk/v2_DepthDuration_HTML.html#66,66,1024,625,1024,768,8-30-2022,6-55-39,16,depth_duration_stimuli/000810_2014-06-08_17-20-01_260595134347_rgbf000105-resize_0/000810_2014-06-08_17-20-01_260595134347_rgbf000105-resize_0-target.png,250,1.4865,3,6749,283,meters,jsons/v1_VE250_randls_70_rotated.json,934216,1329366,30,Woman
16,621633,DepthScenes,duration_manipulation_targetAtFixation,jsons/v1_VE250_randls_70_rotated.json,http://54.235.29.9/FacialAge/BNav_EC2/DepthDuration/v2_depth_duration_MTurk/v2_DepthDuration_HTML.html#66,66,1024,625,1024,768,8-30-2022,6-55-39,17,depth_duration_stimuli/000854_2014-06-09_19-43-13_260595134347_rgbf000066-resize_0/000854_2014-06-09_19-43-13_260595134347_rgbf000066-resize_0-target.png,250,3.068,1,5134,364,meters,jsons/v1_VE250_randls_70_rotated.json,934216,1329366,30,Woman
17,621633,DepthScenes,duration_manipulation_targetAtFixation,jsons/v1_VE250_randls_70_rotated.json,http://54.235.29.9/FacialAge/BNav_EC2/DepthDuration/v2_depth_duration_MTurk/v2_DepthDuration_HTML.html#66,66,1024,625,1024,768,8-30-2022,6-55-39,18,depth_duration_stimuli/000758_2014-06-08_22-05-08_260595134347_rgbf000085-resize_0/000758_2014-06-08_22-05-08_260595134347_rgbf000085-resize_0-target.png,250,3.3810000000000002,3,5306,6,meters,jsons/v1_VE250_randls_70_rotated.json,934216,1329366,30,Woman
18,621633,DepthScenes,duration_manipulation_targetAtFixation,jsons/v1_VE250_randls_70_rotated.json,http://54.235.29.9/FacialAge/BNav_EC2/DepthDuration/v2_depth_duration_MTurk/v2_DepthDuration_HTML.html#66,66,1024,625,1024,768,8-30-2022,6-55-39,19,depth_duration_stimuli/001498_2014-06-19_17-45-14_260595134347_rgbf000129-resize_4/001498_2014-06-19_17-45-14_260595134347_rgbf000129-resize-original.jpg,250,1.4075,3,6892,249,meters,jsons/v1_VE250_randls_70_rotated.json,934216,1329366,30,Woman
19,621633,DepthScenes,duration_manipulation_targetAtFixation,jsons/v1_VE250_randls_70_rotated.json,http://54.235.29.9/FacialAge/BNav_EC2/DepthDuration/v2_depth_duration_MTurk/v2_DepthDuration_HTML.html#66,66,1024,625,1024,768,8-30-2022,6-55-39,20,depth_duration_stimuli/003587_2014-05-23_16-48-02_094959634447_rgbf002384-resize_2/003587_2014-05-23_16-48-02_094959634447_rgbf002384-resize_2-target.png,250,1.357,1,8490,259,meters,jsons/v1_VE250_randls_70_rotated.json,934216,1329366,30,Woman
20,621633,DepthScenes,duration_manipulation_targetAtFixation,jsons/v1_VE250_randls_70_rotated.json,http://54.235.29.9/FacialAge/BNav_EC2/DepthDuration/v2_depth_duration_MTurk/v2_DepthDuration_HTML.html#66,66,1024,625,1024,768,8-30-2022,6-55-39,21,depth_duration_stimuli/001167_2014-06-17_15-38-07_260595134347_rgbf000108-resize_0/001167_2014-06-17_15-38-07_260595134347_rgbf000108-resize_0-target.png,250,1.8505,1,5565,233,meters,jsons/v1_VE250_randls_70_rotated.json,934216,1329366,30,Woman
21,621633,DepthScenes,duration_manipulation_targetAtFixation,jsons/v1_VE250_randls_70_rotated.json,http://54.235.29.9/FacialAge/BNav_EC2/DepthDuration/v2_depth_duration_MTurk/v2_DepthDuration_HTML.html#66,66,1024,625,1024,768,8-30-2022,6-55-39,22,depth_duration_stimuli/000549_2014-06-08_22-10-24_260595134347_rgbf000247-resize_3/000549_2014-06-08_22-10-24_260595134347_rgbf000247-resize_3-target.png,250,1.841,1,20917,213,meters,jsons/v1_VE250_randls_70_rotated.json,934216,1329366,30,Woman
22,621633,DepthScenes,duration_manipulation_targetAtFixation,jsons/v1_VE250_randls_70_rotated.json,http://54.235.29.9/FacialAge/BNav_EC2/DepthDuration/v2_depth_duration_MTurk/v2_DepthDuration_HTML.html#66,66,1024,625,1024,768,8-30-2022,6-55-39,23,depth_duration_stimuli/001055_2014-06-08_18-45-35_260595134347_rgbf000111-resize_4/001055_2014-06-08_18-45-35_260595134347_rgbf000111-resize_4-target.png,250,2.4290000000000003,1,8642,127,meters,jsons/v1_VE250_randls_70_rotated.json,934216,1329366,30,Woman
23,621633,DepthScenes,duration_manipulation_targetAtFixation,jsons/v1_VE250_randls_70_rotated.json,http://54.235.29.9/FacialAge/BNav_EC2/DepthDuration/v2_depth_duration_MTurk/v2_DepthDuration_HTML.html#66,66,1024,625,1024,768,8-30-2022,6-55-39,24,depth_duration_stimuli/002660_2014-06-13_15-44-18_094959634447_rgbf001878-resize_2/002660_2014-06-13_15-44-18_094959634447_rgbf001878-resize_2-target.png,250,3.576,2,2836,218,meters,jsons/v1_VE250_randls_70_rotated.json,934216,1329366,30,Woman
24,621633,DepthScenes,duration_manipulation_targetAtFixation,jsons/v1_VE250_randls_70_rotated.json,http://54.235.29.9/FacialAge/BNav_EC2/DepthDuration/v2_depth_duration_MTurk/v2_DepthDuration_HTML.html#66,66,1024,625,1024,768,8-30-2022,6-55-39,25,depth_duration_stimuli/002153_2014-06-25_21-27-18_260595134347_rgbf000038-resize_5/002153_2014-06-25_21-27-18_260595134347_rgbf000038-resize_5-target.png,250,2.505,2,2381,246,meters,jsons/v1_VE250_randls_70_rotated.json,934216,1329366,30,Woman
25,621633,DepthScenes,duration_manipulation_targetAtFixation,jsons/v1_VE250_randls_70_rotated.json,http://54.235.29.9/FacialAge/BNav_EC2/DepthDuration/v2_depth_duration_MTurk/v2_DepthDuration_HTML.html#66,66,1024,625,1024,768,8-30-2022,6-55-39,26,depth_duration_stimuli/002467_2014-06-28_20-38-07_260595134347_rgbf000026-resize_2/002467_2014-06-28_20-38-07_260595134347_rgbf000026-resize_2-target.png,250,4.742,2,2539,251,meters,jsons/v1_VE250_randls_70_rotated.json,934216,1329366,30,Woman
26,621633,DepthScenes,duration_manipulation_targetAtFixation,jsons/v1_VE250_randls_70_rotated.json,http://54.235.29.9/FacialAge/BNav_EC2/DepthDuration/v2_depth_duration_MTurk/v2_DepthDuration_HTML.html#66,66,1024,625,1024,768,8-30-2022,6-55-39,27,depth_duration_stimuli/002570_2014-06-24_13-59-54_094959634447_rgbf000059-resize_0/002570_2014-06-24_13-59-54_094959634447_rgbf000059-resize_0-target.png,250,4.037,1,2357,347,meters,jsons/v1_VE250_randls_70_rotated.json,934216,1329366,30,Woman
27,621633,DepthScenes,duration_manipulation_targetAtFixation,jsons/v1_VE250_randls_70_rotated.json,http://54.235.29.9/FacialAge/BNav_EC2/DepthDuration/v2_depth_duration_MTurk/v2_DepthDuration_HTML.html#66,66,1024,625,1024,768,8-30-2022,6-55-39,28,depth_duration_stimuli/000780_2014-06-08_22-28-29_260595134347_rgbf000126-resize_1/000780_2014-06-08_22-28-29_260595134347_rgbf000126-resize_1-target.png,250,3.3825,3,3442,149,meters,jsons/v1_VE250_randls_70_rotated.json,934216,1329366,30,Woman
28,621633,DepthScenes,duration_manipulation_targetAtFixation,jsons/v1_VE250_randls_70_rotated.json,http://54.235.29.9/FacialAge/BNav_EC2/DepthDuration/v2_depth_duration_MTurk/v2_DepthDuration_HTML.html#66,66,1024,625,1024,768,8-30-2022,6-55-39,29,depth_duration_stimuli/002445_2014-06-28_20-32-16_260595134347_rgbf000029-resize_4/002445_2014-06-28_20-32-16_260595134347_rgbf000029-resize_4-target.png,250,2.5315,3,2736,222,meters,jsons/v1_VE250_randls_70_rotated.json,934216,1329366,30,Woman
29,621633,DepthScenes,duration_manipulation_targetAtFixation,jsons/v1_VE250_randls_70_rotated.json,http://54.235.29.9/FacialAge/BNav_EC2/DepthDuration/v2_depth_duration_MTurk/v2_DepthDuration_HTML.html#66,66,1024,625,1024,768,8-30-2022,6-55-39,30,depth_duration_stimuli/002072_2014-06-24_21-48-06_260595134347_rgbf000115-resize_0/002072_2014-06-24_21-48-06_260595134347_rgbf000115-resize-original.jpg,250,4.702,2,1825,0,meters,jsons/v1_VE250_randls_70_rotated.json,934216,1329366,30,Woman
30,621633,DepthScenes,duration_manipulation_targetAtFixation,jsons/v1_VE250_randls_70_rotated.json,http://54.235.29.9/FacialAge/BNav_EC2/DepthDuration/v2_depth_duration_MTurk/v2_DepthDuration_HTML.html#66,66,1024,625,1024,768,8-30-2022,6-55-39,31,depth_duration_stimuli/002639_2014-06-24_14-51-37_094959634447_rgbf000074-resize_4/002639_2014-06-24_14-51-37_094959634447_rgbf000074-resize_4-target.png,250,4.0375,1,2315,293,meters,jsons/v1_VE250_randls_70_rotated.json,934216,1329366,30,Woman
31,621633,DepthScenes,duration_manipulation_targetAtFixation,jsons/v1_VE250_randls_70_rotated.json,http://54.235.29.9/FacialAge/BNav_EC2/DepthDuration/v2_depth_duration_MTurk/v2_DepthDuration_HTML.html#66,66,1024,625,1024,768,8-30-2022,6-55-39,32,depth_duration_stimuli/003292_2014-05-14_21-53-49_094959634447_rgbf000100-resize_2/003292_2014-05-14_21-53-49_094959634447_rgbf000100-resize_2-target.png,250,3.4815,2,2217,234,meters,jsons/v1_VE250_randls_70_rotated.json,934216,1329366,30,Woman
32,621633,DepthScenes,duration_manipulation_targetAtFixation,jsons/v1_VE250_randls_70_rotated.json,http://54.235.29.9/FacialAge/BNav_EC2/DepthDuration/v2_depth_duration_MTurk/v2_DepthDuration_HTML.html#66,66,1024,625,1024,768,8-30-2022,6-55-39,33,depth_duration_stimuli/001032_2014-06-08_13-23-17_260595134347_rgbf000021-resize_3/001032_2014-06-08_13-23-17_260595134347_rgbf000021-resize_3-target.png,250,3.2725,1,2143,271,meters,jsons/v1_VE250_randls_70_rotated.json,934216,1329366,30,Woman
33,621633,DepthScenes,duration_manipulation_targetAtFixation,jsons/v1_VE250_randls_70_rotated.json,http://54.235.29.9/FacialAge/BNav_EC2/DepthDuration/v2_depth_duration_MTurk/v2_DepthDuration_HTML.html#66,66,1024,625,1024,768,8-30-2022,6-55-39,34,depth_duration_stimuli/001059_2014-06-08_21-53-27_260595134347_rgbf000061-resize_4/001059_2014-06-08_21-53-27_260595134347_rgbf000061-resize_4-target.png,250,2.4185,2,2520,241,meters,jsons/v1_VE250_randls_70_rotated.json,934216,1329366,30,Woman
34,621633,DepthScenes,duration_manipulation_targetAtFixation,jsons/v1_VE250_randls_70_rotated.json,http://54.235.29.9/FacialAge/BNav_EC2/DepthDuration/v2_depth_duration_MTurk/v2_DepthDuration_HTML.html#66,66,1024,625,1024,768,8-30-2022,6-55-39,35,depth_duration_stimuli/000109_2014-05-14_23-41-52_260595134347_rgbf000035-resize_9/000109_2014-05-14_23-41-52_260595134347_rgbf000035-resize_9-target.png,250,1.3545,1,2598,249,meters,jsons/v1_VE250_randls_70_rotated.json,934216,1329366,30,Woman
35,621633,DepthScenes,duration_manipulation_targetAtFixation,jsons/v1_VE250_randls_70_rotated.json,http://54.235.29.9/FacialAge/BNav_EC2/DepthDuration/v2_depth_duration_MTurk/v2_DepthDuration_HTML.html#66,66,1024,625,1024,768,8-30-2022,6-55-39,36,depth_duration_stimuli/000470_2014-06-09_19-42-40_260595134347_rgbf000094-resize_1/000470_2014-06-09_19-42-40_260595134347_rgbf000094-resize_1-target.png,250,1.831,2,2828,244,meters,jsons/v1_VE250_randls_70_rotated.json,934216,1329366,30,Woman
36,621633,DepthScenes,duration_manipulation_targetAtFixation,jsons/v1_VE250_randls_70_rotated.json,http://54.235.29.9/FacialAge/BNav_EC2/DepthDuration/v2_depth_duration_MTurk/v2_DepthDuration_HTML.html#66,66,1024,625,1024,768,8-30-2022,6-55-39,37,depth_duration_stimuli/002425_2014-06-28_20-27-29_260595134347_rgbf000031-resize_8/002425_2014-06-28_20-27-29_260595134347_rgbf000031-resize_8-target.png,250,3.8960000000000004,1,4541,267,meters,jsons/v1_VE250_randls_70_rotated.json,934216,1329366,30,Woman
37,621633,DepthScenes,duration_manipulation_targetAtFixation,jsons/v1_VE250_randls_70_rotated.json,http://54.235.29.9/FacialAge/BNav_EC2/DepthDuration/v2_depth_duration_MTurk/v2_DepthDuration_HTML.html#66,66,1024,625,1024,768,8-30-2022,6-55-39,38,depth_duration_stimuli/000642_2014-06-08_16-59-25_260595134347_rgbf000098-resize_2/000642_2014-06-08_16-59-25_260595134347_rgbf000098-resize_2-target.png,250,2.8815,0,3061,196,meters,jsons/v1_VE250_randls_70_rotated.json,934216,1329366,30,Woman
38,621633,DepthScenes,duration_manipulation_targetAtFixation,jsons/v1_VE250_randls_70_rotated.json,http://54.235.29.9/FacialAge/BNav_EC2/DepthDuration/v2_depth_duration_MTurk/v2_DepthDuration_HTML.html#66,66,1024,625,1024,768,8-30-2022,6-55-39,39,depth_duration_stimuli/002136_2014-06-25_21-18-03_260595134347_rgbf000109-resize_3/002136_2014-06-25_21-18-03_260595134347_rgbf000109-resize_3-target.png,250,1.9569999999999999,2,2456,286,meters,jsons/v1_VE250_randls_70_rotated.json,934216,1329366,30,Woman
39,621633,DepthScenes,duration_manipulation_targetAtFixation,jsons/v1_VE250_randls_70_rotated.json,http://54.235.29.9/FacialAge/BNav_EC2/DepthDuration/v2_depth_duration_MTurk/v2_DepthDuration_HTML.html#66,66,1024,625,1024,768,8-30-2022,6-55-39,40,depth_duration_stimuli/002964_2014-06-08_17-46-11_094959634447_rgbf000091-resize_4/002964_2014-06-08_17-46-11_094959634447_rgbf000091-resize_4-target.png,250,1.6909999999999998,2,2131,228,meters,jsons/v1_VE250_randls_70_rotated.json,934216,1329366,30,Woman
40,621633,DepthScenes,duration_manipulation_targetAtFixation,jsons/v1_VE250_randls_70_rotated.json,http://54.235.29.9/FacialAge/BNav_EC2/DepthDuration/v2_depth_duration_MTurk/v2_DepthDuration_HTML.html#66,66,1024,625,1024,768,8-30-2022,6-55-39,41,depth_duration_stimuli/002103_2014-06-25_20-00-40_260595134347_rgbf000049-resize_0/002103_2014-06-25_20-00-40_260595134347_rgbf000049-resize_0-target.png,250,4.105,1,2171,251,meters,jsons/v1_VE250_randls_70_rotated.json,934216,1329366,30,Woman
41,621633,DepthScenes,duration_manipulation_targetAtFixation,jsons/v1_VE250_randls_70_rotated.json,http://54.235.29.9/FacialAge/BNav_EC2/DepthDuration/v2_depth_duration_MTurk/v2_DepthDuration_HTML.html#66,66,1024,625,1024,768,8-30-2022,6-55-39,42,depth_duration_stimuli/002039_2014-06-24_20-22-38_260595134347_rgbf000084-resize_1/002039_2014-06-24_20-22-38_260595134347_rgbf000084-resize_1-target.png,250,4.408,0,2147,287,meters,jsons/v1_VE250_randls_70_rotated.json,934216,1329366,30,Woman
42,621633,DepthScenes,duration_manipulation_targetAtFixation,jsons/v1_VE250_randls_70_rotated.json,http://54.235.29.9/FacialAge/BNav_EC2/DepthDuration/v2_depth_duration_MTurk/v2_DepthDuration_HTML.html#66,66,1024,625,1024,768,8-30-2022,6-55-39,43,depth_duration_stimuli/000709_2014-06-08_13-51-55_260595134347_rgbf000068-resize_3/000709_2014-06-08_13-51-55_260595134347_rgbf000068-resize_3-target.png,250,1.8030000000000002,2,2155,246,meters,jsons/v1_VE250_randls_70_rotated.json,934216,1329366,30,Woman
43,621633,DepthScenes,duration_manipulation_targetAtFixation,jsons/v1_VE250_randls_70_rotated.json,http://54.235.29.9/FacialAge/BNav_EC2/DepthDuration/v2_depth_duration_MTurk/v2_DepthDuration_HTML.html#66,66,1024,625,1024,768,8-30-2022,6-55-39,44,depth_duration_stimuli/002057_2014-06-24_21-00-13_260595134347_rgbf000120-resize_1/002057_2014-06-24_21-00-13_260595134347_rgbf000120-resize_1-target.png,250,2.967,1,2277,232,meters,jsons/v1_VE250_randls_70_rotated.json,934216,1329366,30,Woman
44,621633,DepthScenes,duration_manipulation_targetAtFixation,jsons/v1_VE250_randls_70_rotated.json,http://54.235.29.9/FacialAge/BNav_EC2/DepthDuration/v2_depth_duration_MTurk/v2_DepthDuration_HTML.html#66,66,1024,625,1024,768,8-30-2022,6-55-39,45,depth_duration_stimuli/001516_2014-06-20_16-25-09_260595134347_rgbf000076-resize_2/001516_2014-06-20_16-25-09_260595134347_rgbf000076-resize_2-target.png,250,1.7445,3,2262,264,meters,jsons/v1_VE250_randls_70_rotated.json,934216,1329366,30,Woman
45,621633,DepthScenes,duration_manipulation_targetAtFixation,jsons/v1_VE250_randls_70_rotated.json,http://54.235.29.9/FacialAge/BNav_EC2/DepthDuration/v2_depth_duration_MTurk/v2_DepthDuration_HTML.html#66,66,1024,625,1024,768,8-30-2022,6-55-39,46,depth_duration_stimuli/002118_2014-06-25_20-32-08_260595134347_rgbf000078-resize_1/002118_2014-06-25_20-32-08_260595134347_rgbf000078-resize_1-target.png,250,2.6460000000000004,1,4288,302,meters,jsons/v1_VE250_randls_70_rotated.json,934216,1329366,30,Woman
46,621633,DepthScenes,duration_manipulation_targetAtFixation,jsons/v1_VE250_randls_70_rotated.json,http://54.235.29.9/FacialAge/BNav_EC2/DepthDuration/v2_depth_duration_MTurk/v2_DepthDuration_HTML.html#66,66,1024,625,1024,768,8-30-2022,6-55-39,47,depth_duration_stimuli/002199_2014-06-28_18-33-56_260595134347_rgbf000074-resize_0/002199_2014-06-28_18-33-56_260595134347_rgbf000074-resize_0-target.png,250,1.996,1,2275,16,meters,jsons/v1_VE250_randls_70_rotated.json,934216,1329366,30,Woman
47,621633,DepthScenes,duration_manipulation_targetAtFixation,jsons/v1_VE250_randls_70_rotated.json,http://54.235.29.9/FacialAge/BNav_EC2/DepthDuration/v2_depth_duration_MTurk/v2_DepthDuration_HTML.html#66,66,1024,625,1024,768,8-30-2022,6-55-39,48,depth_duration_stimuli/001056_2014-06-08_18-46-44_260595134347_rgbf000068-resize_0/001056_2014-06-08_18-46-44_260595134347_rgbf000068-resize_0-target.png,250,2.6625,2,2669,248,meters,jsons/v1_VE250_randls_70_rotated.json,934216,1329366,30,Woman
48,621633,DepthScenes,duration_manipulation_targetAtFixation,jsons/v1_VE250_randls_70_rotated.json,http://54.235.29.9/FacialAge/BNav_EC2/DepthDuration/v2_depth_duration_MTurk/v2_DepthDuration_HTML.html#66,66,1024,625,1024,768,8-30-2022,6-55-39,49,depth_duration_stimuli/001170_2014-06-17_15-43-44_260595134347_rgbf000096-resize_6/001170_2014-06-17_15-43-44_260595134347_rgbf000096-resize-original.jpg,250,1.1909999999999998,3,2484,236,meters,jsons/v1_VE250_randls_70_rotated.json,934216,1329366,30,Woman
49,621633,DepthScenes,duration_manipulation_targetAtFixation,jsons/v1_VE250_randls_70_rotated.json,http://54.235.29.9/FacialAge/BNav_EC2/DepthDuration/v2_depth_duration_MTurk/v2_DepthDuration_HTML.html#66,66,1024,625,1024,768,8-30-2022,6-55-39,50,depth_duration_stimuli/002340_2014-06-28_20-05-46_260595134347_rgbf000113-resize_0/002340_2014-06-28_20-05-46_260595134347_rgbf000113-resize_0-target.png,250,2.4735,3,2390,266,meters,jsons/v1_VE250_randls_70_rotated.json,934216,1329366,30,Woman
50,621633,DepthScenes,duration_manipulation_targetAtFixation,jsons/v1_VE250_randls_70_rotated.json,http://54.235.29.9/FacialAge/BNav_EC2/DepthDuration/v2_depth_duration_MTurk/v2_DepthDuration_HTML.html#66,66,1024,625,1024,768,8-30-2022,6-55-39,51,depth_duration_stimuli/001016_2014-06-09_16-16-10_260595134347_rgbf000112-resize_5/001016_2014-06-09_16-16-10_260595134347_rgbf000112-resize_5-target.png,250,1.6565,3,2334,226,meters,jsons/v1_VE250_randls_70_rotated.json,934216,1329366,30,Woman
51,621633,DepthScenes,duration_manipulation_targetAtFixation,jsons/v1_VE250_randls_70_rotated.json,http://54.235.29.9/FacialAge/BNav_EC2/DepthDuration/v2_depth_duration_MTurk/v2_DepthDuration_HTML.html#66,66,1024,625,1024,768,8-30-2022,6-55-39,52,depth_duration_stimuli/003010_2014-06-15_12-54-35_094959634447_rgbf000112-resize_0/003010_2014-06-15_12-54-35_094959634447_rgbf000112-resize_0-target.png,250,3.1185,2,4216,259,meters,jsons/v1_VE250_randls_70_rotated.json,934216,1329366,30,Woman
52,621633,DepthScenes,duration_manipulation_targetAtFixation,jsons/v1_VE250_randls_70_rotated.json,http://54.235.29.9/FacialAge/BNav_EC2/DepthDuration/v2_depth_duration_MTurk/v2_DepthDuration_HTML.html#66,66,1024,625,1024,768,8-30-2022,6-55-39,53,depth_duration_stimuli/001810_2014-06-26_20-51-35_260595134347_rgbf000040-resize_3/001810_2014-06-26_20-51-35_260595134347_rgbf000040-resize_3-target.png,250,2.2525,1,3331,250,meters,jsons/v1_VE250_randls_70_rotated.json,934216,1329366,30,Woman
53,621633,DepthScenes,duration_manipulation_targetAtFixation,jsons/v1_VE250_randls_70_rotated.json,http://54.235.29.9/FacialAge/BNav_EC2/DepthDuration/v2_depth_duration_MTurk/v2_DepthDuration_HTML.html#66,66,1024,625,1024,768,8-30-2022,6-55-39,54,depth_duration_stimuli/002805_2014-06-22_19-54-03_094959634447_rgbf000079-resize_1/002805_2014-06-22_19-54-03_094959634447_rgbf000079-resize_1-target.png,250,3.1439999999999997,2,4088,0,meters,jsons/v1_VE250_randls_70_rotated.json,934216,1329366,30,Woman
54,621633,DepthScenes,duration_manipulation_targetAtFixation,jsons/v1_VE250_randls_70_rotated.json,http://54.235.29.9/FacialAge/BNav_EC2/DepthDuration/v2_depth_duration_MTurk/v2_DepthDuration_HTML.html#66,66,1024,625,1024,768,8-30-2022,6-55-39,55,depth_duration_stimuli/000906_2014-06-08_13-35-43_260595134347_rgbf000155-resize_1/000906_2014-06-08_13-35-43_260595134347_rgbf000155-resize_1-target.png,250,2.8489999999999998,2,2468,283,meters,jsons/v1_VE250_randls_70_rotated.json,934216,1329366,30,Woman
55,621633,DepthScenes,duration_manipulation_targetAtFixation,jsons/v1_VE250_randls_70_rotated.json,http://54.235.29.9/FacialAge/BNav_EC2/DepthDuration/v2_depth_duration_MTurk/v2_DepthDuration_HTML.html#66,66,1024,625,1024,768,8-30-2022,6-55-39,56,depth_duration_stimuli/001828_2014-06-26_21-40-03_260595134347_rgbf000024-resize_0/001828_2014-06-26_21-40-03_260595134347_rgbf000024-resize_0-target.png,250,4.8260000000000005,1,3091,190,meters,jsons/v1_VE250_randls_70_rotated.json,934216,1329366,30,Woman
56,621633,DepthScenes,duration_manipulation_targetAtFixation,jsons/v1_VE250_randls_70_rotated.json,http://54.235.29.9/FacialAge/BNav_EC2/DepthDuration/v2_depth_duration_MTurk/v2_DepthDuration_HTML.html#66,66,1024,625,1024,768,8-30-2022,6-55-39,57,depth_duration_stimuli/000009_2014-05-26_14-32-05_260595134347_rgbf000034-resize_3/000009_2014-05-26_14-32-05_260595134347_rgbf000034-resize_3-target.png,250,3.8715,3,2958,252,meters,jsons/v1_VE250_randls_70_rotated.json,934216,1329366,30,Woman
57,621633,DepthScenes,duration_manipulation_targetAtFixation,jsons/v1_VE250_randls_70_rotated.json,http://54.235.29.9/FacialAge/BNav_EC2/DepthDuration/v2_depth_duration_MTurk/v2_DepthDuration_HTML.html#66,66,1024,625,1024,768,8-30-2022,6-55-39,58,depth_duration_stimuli/003048_2014-06-15_13-49-43_094959634447_rgbf000150-resize_1/003048_2014-06-15_13-49-43_094959634447_rgbf000150-resize_1-target.png,250,4.0035,1,2625,270,meters,jsons/v1_VE250_randls_70_rotated.json,934216,1329366,30,Woman
58,621633,DepthScenes,duration_manipulation_targetAtFixation,jsons/v1_VE250_randls_70_rotated.json,http://54.235.29.9/FacialAge/BNav_EC2/DepthDuration/v2_depth_duration_MTurk/v2_DepthDuration_HTML.html#66,66,1024,625,1024,768,8-30-2022,6-55-39,59,depth_duration_stimuli/002043_2014-06-24_20-29-38_260595134347_rgbf000039-resize_4/002043_2014-06-24_20-29-38_260595134347_rgbf000039-resize_4-target.png,250,2.8435,2,2184,281,meters,jsons/v1_VE250_randls_70_rotated.json,934216,1329366,30,Woman
59,621633,DepthScenes,duration_manipulation_targetAtFixation,jsons/v1_VE250_randls_70_rotated.json,http://54.235.29.9/FacialAge/BNav_EC2/DepthDuration/v2_depth_duration_MTurk/v2_DepthDuration_HTML.html#66,66,1024,625,1024,768,8-30-2022,6-55-39,60,depth_duration_stimuli/001571_2014-06-20_17-21-32_260595134347_rgbf000089-resize_1/001571_2014-06-20_17-21-32_260595134347_rgbf000089-resize_1-target.png,250,1.86,1,2667,268,meters,jsons/v1_VE250_randls_70_rotated.json,934216,1329366,30,Woman
60,621633,DepthScenes,duration_manipulation_targetAtFixation,jsons/v1_VE250_randls_70_rotated.json,http://54.235.29.9/FacialAge/BNav_EC2/DepthDuration/v2_depth_duration_MTurk/v2_DepthDuration_HTML.html#66,66,1024,625,1024,768,8-30-2022,6-55-39,61,depth_duration_stimuli/002272_2014-06-28_18-53-56_260595134347_rgbf000067-resize_2/002272_2014-06-28_18-53-56_260595134347_rgbf000067-resize_2-target.png,250,1.138,2,2225,239,meters,jsons/v1_VE250_randls_70_rotated.json,934216,1329366,30,Woman
61,621633,DepthScenes,duration_manipulation_targetAtFixation,jsons/v1_VE250_randls_70_rotated.json,http://54.235.29.9/FacialAge/BNav_EC2/DepthDuration/v2_depth_duration_MTurk/v2_DepthDuration_HTML.html#66,66,1024,625,1024,768,8-30-2022,6-55-39,62,depth_duration_stimuli/002657_2014-06-13_15-29-54_094959634447_rgbf000150-resize_1/002657_2014-06-13_15-29-54_094959634447_rgbf000150-resize_1-target.png,250,4.919,1,3323,342,meters,jsons/v1_VE250_randls_70_rotated.json,934216,1329366,30,Woman
62,621633,DepthScenes,duration_manipulation_targetAtFixation,jsons/v1_VE250_randls_70_rotated.json,http://54.235.29.9/FacialAge/BNav_EC2/DepthDuration/v2_depth_duration_MTurk/v2_DepthDuration_HTML.html#66,66,1024,625,1024,768,8-30-2022,6-55-39,63,depth_duration_stimuli/002375_2014-06-28_20-13-44_260595134347_rgbf000032-resize_1/002375_2014-06-28_20-13-44_260595134347_rgbf000032-resize_1-target.png,250,4.0175,2,3937,276,meters,jsons/v1_VE250_randls_70_rotated.json,934216,1329366,30,Woman
63,621633,DepthScenes,duration_manipulation_targetAtFixation,jsons/v1_VE250_randls_70_rotated.json,http://54.235.29.9/FacialAge/BNav_EC2/DepthDuration/v2_depth_duration_MTurk/v2_DepthDuration_HTML.html#66,66,1024,625,1024,768,8-30-2022,6-55-39,64,depth_duration_stimuli/003338_2014-05-20_11-01-23_094959634447_rgbf000051-resize_6/003338_2014-05-20_11-01-23_094959634447_rgbf000051-resize_6-target.png,250,1.693,1,3152,229,meters,jsons/v1_VE250_randls_70_rotated.json,934216,1329366,30,Woman
64,621633,DepthScenes,duration_manipulation_targetAtFixation,jsons/v1_VE250_randls_70_rotated.json,http://54.235.29.9/FacialAge/BNav_EC2/DepthDuration/v2_depth_duration_MTurk/v2_DepthDuration_HTML.html#66,66,1024,625,1024,768,8-30-2022,6-55-39,65,depth_duration_stimuli/002509_2014-06-24_13-19-22_094959634447_rgbf000077-resize_0/002509_2014-06-24_13-19-22_094959634447_rgbf000077-resize_0-target.png,250,1.3065,3,2440,235,meters,jsons/v1_VE250_randls_70_rotated.json,934216,1329366,30,Woman
65,621633,DepthScenes,duration_manipulation_targetAtFixation,jsons/v1_VE250_randls_70_rotated.json,http://54.235.29.9/FacialAge/BNav_EC2/DepthDuration/v2_depth_duration_MTurk/v2_DepthDuration_HTML.html#66,66,1024,625,1024,768,8-30-2022,6-55-39,66,depth_duration_stimuli/001540_2014-06-20_17-01-05_260595134347_rgbf000086-resize_2/001540_2014-06-20_17-01-05_260595134347_rgbf000086-resize-original.jpg,250,1.459,2,2675,304,meters,jsons/v1_VE250_randls_70_rotated.json,934216,1329366,30,Woman
66,621633,DepthScenes,duration_manipulation_targetAtFixation,jsons/v1_VE250_randls_70_rotated.json,http://54.235.29.9/FacialAge/BNav_EC2/DepthDuration/v2_depth_duration_MTurk/v2_DepthDuration_HTML.html#66,66,1024,625,1024,768,8-30-2022,6-55-39,67,depth_duration_stimuli/000483_2014-06-09_20-41-45_260595134347_rgbf000116-resize_4/000483_2014-06-09_20-41-45_260595134347_rgbf000116-resize_4-target.png,250,1.337,1,6892,4,meters,jsons/v1_VE250_randls_70_rotated.json,934216,1329366,30,Woman
67,621633,DepthScenes,duration_manipulation_targetAtFixation,jsons/v1_VE250_randls_70_rotated.json,http://54.235.29.9/FacialAge/BNav_EC2/DepthDuration/v2_depth_duration_MTurk/v2_DepthDuration_HTML.html#66,66,1024,625,1024,768,8-30-2022,6-55-39,68,depth_duration_stimuli/000469_2014-06-09_19-42-10_260595134347_rgbf000081-resize_1/000469_2014-06-09_19-42-10_260595134347_rgbf000081-resize_1-target.png,250,1.652,2,2349,301,meters,jsons/v1_VE250_randls_70_rotated.json,934216,1329366,30,Woman
68,621633,DepthScenes,duration_manipulation_targetAtFixation,jsons/v1_VE250_randls_70_rotated.json,http://54.235.29.9/FacialAge/BNav_EC2/DepthDuration/v2_depth_duration_MTurk/v2_DepthDuration_HTML.html#66,66,1024,625,1024,768,8-30-2022,6-55-39,69,depth_duration_stimuli/001450_2014-06-19_17-02-03_260595134347_rgbf000203-resize_4/001450_2014-06-19_17-02-03_260595134347_rgbf000203-resize_4-target.png,250,4.0106666666667,1,2635,267,meters,jsons/v1_VE250_randls_70_rotated.json,934216,1329366,30,Woman
69,621633,DepthScenes,duration_manipulation_targetAtFixation,jsons/v1_VE250_randls_70_rotated.json,http://54.235.29.9/FacialAge/BNav_EC2/DepthDuration/v2_depth_duration_MTurk/v2_DepthDuration_HTML.html#66,66,1024,625,1024,768,8-30-2022,6-55-39,70,depth_duration_stimuli/001449_2014-06-19_17-01-27_260595134347_rgbf000116-resize_2/001449_2014-06-19_17-01-27_260595134347_rgbf000116-resize_2-target.png,250,3.452,2,3805,205,meters,jsons/v1_VE250_randls_70_rotated.json,934216,1329366,30,Woman
70,621633,DepthScenes,duration_manipulation_targetAtFixation,jsons/v1_VE250_randls_70_rotated.json,http://54.235.29.9/FacialAge/BNav_EC2/DepthDuration/v2_depth_duration_MTurk/v2_DepthDuration_HTML.html#66,66,1024,625,1024,768,8-30-2022,6-55-39,71,depth_duration_stimuli/001447_2014-06-19_17-00-32_260595134347_rgbf000082-resize_5/001447_2014-06-19_17-00-32_260595134347_rgbf000082-resize_5-target.png,250,4.13775,2,3030,256,meters,jsons/v1_VE250_randls_70_rotated.json,934216,1329366,30,Woman
71,621633,DepthScenes,duration_manipulation_targetAtFixation,jsons/v1_VE250_randls_70_rotated.json,http://54.235.29.9/FacialAge/BNav_EC2/DepthDuration/v2_depth_duration_MTurk/v2_DepthDuration_HTML.html#66,66,1024,625,1024,768,8-30-2022,6-55-39,72,depth_duration_stimuli/000447_2014-06-08_16-15-46_260595134347_rgbf000130-resize_1/000447_2014-06-08_16-15-46_260595134347_rgbf000130-resize_1-target.png,250,4.479,3,2320,273,meters,jsons/v1_VE250_randls_70_rotated.json,934216,1329366,30,Woman
72,621633,DepthScenes,duration_manipulation_targetAtFixation,jsons/v1_VE250_randls_70_rotated.json,http://54.235.29.9/FacialAge/BNav_EC2/DepthDuration/v2_depth_duration_MTurk/v2_DepthDuration_HTML.html#66,66,1024,625,1024,768,8-30-2022,6-55-39,73,depth_duration_stimuli/003081_2014-06-15_15-19-16_094959634447_rgbf000150-resize_1/003081_2014-06-15_15-19-16_094959634447_rgbf000150-resize_1-target.png,250,3.9125,1,2536,238,meters,jsons/v1_VE250_randls_70_rotated.json,934216,1329366,30,Woman
73,621633,DepthScenes,duration_manipulation_targetAtFixation,jsons/v1_VE250_randls_70_rotated.json,http://54.235.29.9/FacialAge/BNav_EC2/DepthDuration/v2_depth_duration_MTurk/v2_DepthDuration_HTML.html#66,66,1024,625,1024,768,8-30-2022,6-55-39,74,depth_duration_stimuli/001417_2014-06-19_16-25-36_260595134347_rgbf000115-resize_5/001417_2014-06-19_16-25-36_260595134347_rgbf000115-resize_5-target.png,250,4.6255,2,2238,251,meters,jsons/v1_VE250_randls_70_rotated.json,934216,1329366,30,Woman
74,621633,DepthScenes,duration_manipulation_targetAtFixation,jsons/v1_VE250_randls_70_rotated.json,http://54.235.29.9/FacialAge/BNav_EC2/DepthDuration/v2_depth_duration_MTurk/v2_DepthDuration_HTML.html#66,66,1024,625,1024,768,8-30-2022,6-55-39,75,depth_duration_stimuli/002568_2014-06-24_13-59-21_094959634447_rgbf000062-resize_4/002568_2014-06-24_13-59-21_094959634447_rgbf000062-resize_4-target.png,250,3.015,2,2188,228,meters,jsons/v1_VE250_randls_70_rotated.json,934216,1329366,30,Woman
75,621633,DepthScenes,duration_manipulation_targetAtFixation,jsons/v1_VE250_randls_70_rotated.json,http://54.235.29.9/FacialAge/BNav_EC2/DepthDuration/v2_depth_duration_MTurk/v2_DepthDuration_HTML.html#66,66,1024,625,1024,768,8-30-2022,6-55-39,76,depth_duration_stimuli/003492_2014-05-21_15-50-55_094959634447_rgbf000828-resize_1/003492_2014-05-21_15-50-55_094959634447_rgbf000828-resize_1-target.png,250,4.06875,1,2517,259,meters,jsons/v1_VE250_randls_70_rotated.json,934216,1329366,30,Woman
76,621633,DepthScenes,duration_manipulation_targetAtFixation,jsons/v1_VE250_randls_70_rotated.json,http://54.235.29.9/FacialAge/BNav_EC2/DepthDuration/v2_depth_duration_MTurk/v2_DepthDuration_HTML.html#66,66,1024,625,1024,768,8-30-2022,6-55-39,77,depth_duration_stimuli/001136_2014-06-17_15-19-41_260595134347_rgbf000076-resize_3/001136_2014-06-17_15-19-41_260595134347_rgbf000076-resize_3-target.png,250,1.8655,3,2361,282,meters,jsons/v1_VE250_randls_70_rotated.json,934216,1329366,30,Woman
77,621633,DepthScenes,duration_manipulation_targetAtFixation,jsons/v1_VE250_randls_70_rotated.json,http://54.235.29.9/FacialAge/BNav_EC2/DepthDuration/v2_depth_duration_MTurk/v2_DepthDuration_HTML.html#66,66,1024,625,1024,768,8-30-2022,6-55-39,78,depth_duration_stimuli/001164_2014-06-17_15-35-46_260595134347_rgbf000085-resize_3/001164_2014-06-17_15-35-46_260595134347_rgbf000085-resize_3-target.png,250,2.354,2,2918,426,meters,jsons/v1_VE250_randls_70_rotated.json,934216,1329366,30,Woman
78,621633,DepthScenes,duration_manipulation_targetAtFixation,jsons/v1_VE250_randls_70_rotated.json,http://54.235.29.9/FacialAge/BNav_EC2/DepthDuration/v2_depth_duration_MTurk/v2_DepthDuration_HTML.html#66,66,1024,625,1024,768,8-30-2022,6-55-39,79,depth_duration_stimuli/003228_2014-05-14_13-42-35_094959634447_rgbf000101-resize_1/003228_2014-05-14_13-42-35_094959634447_rgbf000101-resize_1-target.png,250,1.9680000000000002,3,3517,614,meters,jsons/v1_VE250_randls_70_rotated.json,934216,1329366,30,Woman
79,621633,DepthScenes,duration_manipulation_targetAtFixation,jsons/v1_VE250_randls_70_rotated.json,http://54.235.29.9/FacialAge/BNav_EC2/DepthDuration/v2_depth_duration_MTurk/v2_DepthDuration_HTML.html#66,66,1024,625,1024,768,8-30-2022,6-55-39,80,depth_duration_stimuli/002600_2014-06-24_14-27-04_094959634447_rgbf000074-resize_2/002600_2014-06-24_14-27-04_094959634447_rgbf000074-resize_2-target.png,250,2.7575,3,3527,305,meters,jsons/v1_VE250_randls_70_rotated.json,934216,1329366,30,Woman
80,621633,DepthScenes,duration_manipulation_targetAtFixation,jsons/v1_VE250_randls_70_rotated.json,http://54.235.29.9/FacialAge/BNav_EC2/DepthDuration/v2_depth_duration_MTurk/v2_DepthDuration_HTML.html#66,66,1024,625,1024,768,8-30-2022,6-55-39,81,depth_duration_stimuli/001132_2014-06-17_14-48-54_260595134347_rgbf000100-resize_2/001132_2014-06-17_14-48-54_260595134347_rgbf000100-resize_2-target.png,250,3.753,3,6226,252,meters,jsons/v1_VE250_randls_70_rotated.json,934216,1329366,30,Woman
81,621633,DepthScenes,duration_manipulation_targetAtFixation,jsons/v1_VE250_randls_70_rotated.json,http://54.235.29.9/FacialAge/BNav_EC2/DepthDuration/v2_depth_duration_MTurk/v2_DepthDuration_HTML.html#66,66,1024,625,1024,768,8-30-2022,6-55-39,82,depth_duration_stimuli/001133_2014-06-17_14-49-16_260595134347_rgbf000100-resize_0/001133_2014-06-17_14-49-16_260595134347_rgbf000100-resize_0-target.png,250,4.2115,3,2684,405,meters,jsons/v1_VE250_randls_70_rotated.json,934216,1329366,30,Woman
82,621633,DepthScenes,duration_manipulation_targetAtFixation,jsons/v1_VE250_randls_70_rotated.json,http://54.235.29.9/FacialAge/BNav_EC2/DepthDuration/v2_depth_duration_MTurk/v2_DepthDuration_HTML.html#66,66,1024,625,1024,768,8-30-2022,6-55-39,83,depth_duration_stimuli/000191_2014-05-12_17-07-38_260595134347_rgbf000199-resize_0/000191_2014-05-12_17-07-38_260595134347_rgbf000199-resize_0-target.png,250,3.7995,3,2721,281,meters,jsons/v1_VE250_randls_70_rotated.json,934216,1329366,30,Woman
83,621633,DepthScenes,duration_manipulation_targetAtFixation,jsons/v1_VE250_randls_70_rotated.json,http://54.235.29.9/FacialAge/BNav_EC2/DepthDuration/v2_depth_duration_MTurk/v2_DepthDuration_HTML.html#66,66,1024,625,1024,768,8-30-2022,6-55-39,84,depth_duration_stimuli/000493_2014-06-09_21-01-18_260595134347_rgbf000196-resize_3/000493_2014-06-09_21-01-18_260595134347_rgbf000196-resize_3-target.png,250,3.44,3,7944,152,meters,jsons/v1_VE250_randls_70_rotated.json,934216,1329366,30,Woman
84,621633,DepthScenes,duration_manipulation_targetAtFixation,jsons/v1_VE250_randls_70_rotated.json,http://54.235.29.9/FacialAge/BNav_EC2/DepthDuration/v2_depth_duration_MTurk/v2_DepthDuration_HTML.html#66,66,1024,625,1024,768,8-30-2022,6-55-39,85,depth_duration_stimuli/000866_2014-06-09_20-45-42_260595134347_rgbf000139-resize_1/000866_2014-06-09_20-45-42_260595134347_rgbf000139-resize_1-target.png,250,3.2155,1,4217,253,meters,jsons/v1_VE250_randls_70_rotated.json,934216,1329366,30,Woman
85,621633,DepthScenes,duration_manipulation_targetAtFixation,jsons/v1_VE250_randls_70_rotated.json,http://54.235.29.9/FacialAge/BNav_EC2/DepthDuration/v2_depth_duration_MTurk/v2_DepthDuration_HTML.html#66,66,1024,625,1024,768,8-30-2022,6-55-39,86,depth_duration_stimuli/002989_2014-06-15_12-25-03_094959634447_rgbf000150-resize_3/002989_2014-06-15_12-25-03_094959634447_rgbf000150-resize_3-target.png,250,4.1975,3,9722,173,meters,jsons/v1_VE250_randls_70_rotated.json,934216,1329366,30,Woman
86,621633,DepthScenes,duration_manipulation_targetAtFixation,jsons/v1_VE250_randls_70_rotated.json,http://54.235.29.9/FacialAge/BNav_EC2/DepthDuration/v2_depth_duration_MTurk/v2_DepthDuration_HTML.html#66,66,1024,625,1024,768,8-30-2022,6-55-39,87,depth_duration_stimuli/000691_2014-06-08_13-08-50_260595134347_rgbf000132-resize_3/000691_2014-06-08_13-08-50_260595134347_rgbf000132-resize_3-target.png,250,4.1530000000000005,3,4314,287,meters,jsons/v1_VE250_randls_70_rotated.json,934216,1329366,30,Woman
87,621633,DepthScenes,duration_manipulation_targetAtFixation,jsons/v1_VE250_randls_70_rotated.json,http://54.235.29.9/FacialAge/BNav_EC2/DepthDuration/v2_depth_duration_MTurk/v2_DepthDuration_HTML.html#66,66,1024,625,1024,768,8-30-2022,6-55-39,88,depth_duration_stimuli/002213_2014-06-28_18-37-58_260595134347_rgbf000055-resize_1/002213_2014-06-28_18-37-58_260595134347_rgbf000055-resize_1-target.png,250,3.62,3,4745,222,meters,jsons/v1_VE250_randls_70_rotated.json,934216,1329366,30,Woman
88,621633,DepthScenes,duration_manipulation_targetAtFixation,jsons/v1_VE250_randls_70_rotated.json,http://54.235.29.9/FacialAge/BNav_EC2/DepthDuration/v2_depth_duration_MTurk/v2_DepthDuration_HTML.html#66,66,1024,625,1024,768,8-30-2022,6-55-39,89,depth_duration_stimuli/000927_2014-06-09_16-32-30_260595134347_rgbf000123-resize_3/000927_2014-06-09_16-32-30_260595134347_rgbf000123-resize_3-target.png,250,2.6785,2,4744,256,meters,jsons/v1_VE250_randls_70_rotated.json,934216,1329366,30,Woman
89,621633,DepthScenes,duration_manipulation_targetAtFixation,jsons/v1_VE250_randls_70_rotated.json,http://54.235.29.9/FacialAge/BNav_EC2/DepthDuration/v2_depth_duration_MTurk/v2_DepthDuration_HTML.html#66,66,1024,625,1024,768,8-30-2022,6-55-39,90,depth_duration_stimuli/001110_2014-06-15_17-25-28_260595134347_rgbf000150-resize_1/001110_2014-06-15_17-25-28_260595134347_rgbf000150-resize_1-target.png,250,1.7115,2,7356,275,meters,jsons/v1_VE250_randls_70_rotated.json,934216,1329366,30,Woman
90,621633,DepthScenes,duration_manipulation_targetAtFixation,jsons/v1_VE250_randls_70_rotated.json,http://54.235.29.9/FacialAge/BNav_EC2/DepthDuration/v2_depth_duration_MTurk/v2_DepthDuration_HTML.html#66,66,1024,625,1024,768,8-30-2022,6-55-39,91,depth_duration_stimuli/000665_2014-06-09_20-42-35_260595134347_rgbf000110-resize_1/000665_2014-06-09_20-42-35_260595134347_rgbf000110-resize_1-target.png,250,3.057,3,3907,253,meters,jsons/v1_VE250_randls_70_rotated.json,934216,1329366,30,Woman
91,621633,DepthScenes,duration_manipulation_targetAtFixation,jsons/v1_VE250_randls_70_rotated.json,http://54.235.29.9/FacialAge/BNav_EC2/DepthDuration/v2_depth_duration_MTurk/v2_DepthDuration_HTML.html#66,66,1024,625,1024,768,8-30-2022,6-55-39,92,depth_duration_stimuli/001150_2014-06-17_15-27-34_260595134347_rgbf000108-resize_2/001150_2014-06-17_15-27-34_260595134347_rgbf000108-resize_2-target.png,250,4.0325,2,4768,336,meters,jsons/v1_VE250_randls_70_rotated.json,934216,1329366,30,Woman
92,621633,DepthScenes,duration_manipulation_targetAtFixation,jsons/v1_VE250_randls_70_rotated.json,http://54.235.29.9/FacialAge/BNav_EC2/DepthDuration/v2_depth_duration_MTurk/v2_DepthDuration_HTML.html#66,66,1024,625,1024,768,8-30-2022,6-55-39,93,depth_duration_stimuli/000742_2014-06-08_18-48-09_260595134347_rgbf000164-resize_4/000742_2014-06-08_18-48-09_260595134347_rgbf000164-resize_4-target.png,250,4.632,3,2749,402,meters,jsons/v1_VE250_randls_70_rotated.json,934216,1329366,30,Woman
93,621633,DepthScenes,duration_manipulation_targetAtFixation,jsons/v1_VE250_randls_70_rotated.json,http://54.235.29.9/FacialAge/BNav_EC2/DepthDuration/v2_depth_duration_MTurk/v2_DepthDuration_HTML.html#66,66,1024,625,1024,768,8-30-2022,6-55-39,94,depth_duration_stimuli/001066_2014-06-08_22-03-20_260595134347_rgbf000066-resize_4/001066_2014-06-08_22-03-20_260595134347_rgbf000066-resize_4-target.png,250,4.2330000000000005,1,3412,249,meters,jsons/v1_VE250_randls_70_rotated.json,934216,1329366,30,Woman
94,621633,DepthScenes,duration_manipulation_targetAtFixation,jsons/v1_VE250_randls_70_rotated.json,http://54.235.29.9/FacialAge/BNav_EC2/DepthDuration/v2_depth_duration_MTurk/v2_DepthDuration_HTML.html#66,66,1024,625,1024,768,8-30-2022,6-55-39,95,depth_duration_stimuli/002545_2014-06-24_13-38-53_094959634447_rgbf000080-resize_4/002545_2014-06-24_13-38-53_094959634447_rgbf000080-resize_4-target.png,250,1.9205,2,2665,205,meters,jsons/v1_VE250_randls_70_rotated.json,934216,1329366,30,Woman
95,621633,DepthScenes,duration_manipulation_targetAtFixation,jsons/v1_VE250_randls_70_rotated.json,http://54.235.29.9/FacialAge/BNav_EC2/DepthDuration/v2_depth_duration_MTurk/v2_DepthDuration_HTML.html#66,66,1024,625,1024,768,8-30-2022,6-55-39,96,depth_duration_stimuli/001092_2014-06-15_17-34-58_260595134347_rgbf000171-resize_3/001092_2014-06-15_17-34-58_260595134347_rgbf000171-resize_3-target.png,250,2.6935,3,3326,267,meters,jsons/v1_VE250_randls_70_rotated.json,934216,1329366,30,Woman
96,621633,DepthScenes,duration_manipulation_targetAtFixation,jsons/v1_VE250_randls_70_rotated.json,http://54.235.29.9/FacialAge/BNav_EC2/DepthDuration/v2_depth_duration_MTurk/v2_DepthDuration_HTML.html#66,66,1024,625,1024,768,8-30-2022,6-55-39,97,depth_duration_stimuli/001235_2014-06-17_16-37-36_260595134347_rgbf000084-resize_4/001235_2014-06-17_16-37-36_260595134347_rgbf000084-resize_4-target.png,250,3.6605,3,3799,230,meters,jsons/v1_VE250_randls_70_rotated.json,934216,1329366,30,Woman
97,621633,DepthScenes,duration_manipulation_targetAtFixation,jsons/v1_VE250_randls_70_rotated.json,http://54.235.29.9/FacialAge/BNav_EC2/DepthDuration/v2_depth_duration_MTurk/v2_DepthDuration_HTML.html#66,66,1024,625,1024,768,8-30-2022,6-55-39,98,depth_duration_stimuli/000788_2014-06-08_22-34-36_260595134347_rgbf000131-resize_1/000788_2014-06-08_22-34-36_260595134347_rgbf000131-resize_1-target.png,250,3.359,3,36189,245,meters,jsons/v1_VE250_randls_70_rotated.json,934216,1329366,30,Woman
98,621633,DepthScenes,duration_manipulation_targetAtFixation,jsons/v1_VE250_randls_70_rotated.json,http://54.235.29.9/FacialAge/BNav_EC2/DepthDuration/v2_depth_duration_MTurk/v2_DepthDuration_HTML.html#66,66,1024,625,1024,768,8-30-2022,6-55-39,99,depth_duration_stimuli/001222_2014-06-17_16-24-06_260595134347_rgbf000073-resize_0/001222_2014-06-17_16-24-06_260595134347_rgbf000073-resize-original.jpg,250,1.4385,2,8211,0,meters,jsons/v1_VE250_randls_70_rotated.json,934216,1329366,30,Woman
99,621633,DepthScenes,duration_manipulation_targetAtFixation,jsons/v1_VE250_randls_70_rotated.json,http://54.235.29.9/FacialAge/BNav_EC2/DepthDuration/v2_depth_duration_MTurk/v2_DepthDuration_HTML.html#66,66,1024,625,1024,768,8-30-2022,6-55-39,100,depth_duration_stimuli/000409_2014-06-04_19-23-33_260595134347_rgbf000067-resize_0/000409_2014-06-04_19-23-33_260595134347_rgbf000067-resize_0-target.png,250,3.7335,3,2596,207,meters,jsons/v1_VE250_randls_70_rotated.json,934216,1329366,30,Woman
100,621633,DepthScenes,duration_manipulation_targetAtFixation,jsons/v1_VE250_randls_70_rotated.json,http://54.235.29.9/FacialAge/BNav_EC2/DepthDuration/v2_depth_duration_MTurk/v2_DepthDuration_HTML.html#66,66,1024,625,1024,768,8-30-2022,6-55-39,101,depth_duration_stimuli/002663_2014-06-13_15-50-26_094959634447_rgbf000075-resize_1/002663_2014-06-13_15-50-26_094959634447_rgbf000075-resize_1-target.png,250,4.7495,3,3287,250,meters,jsons/v1_VE250_randls_70_rotated.json,934216,1329366,30,Woman
101,621633,DepthScenes,duration_manipulation_targetAtFixation,jsons/v1_VE250_randls_70_rotated.json,http://54.235.29.9/FacialAge/BNav_EC2/DepthDuration/v2_depth_duration_MTurk/v2_DepthDuration_HTML.html#66,66,1024,625,1024,768,8-30-2022,6-55-39,102,depth_duration_stimuli/000677_2014-06-08_23-10-32_260595134347_rgbf000158-resize_6/000677_2014-06-08_23-10-32_260595134347_rgbf000158-resize_6-target.png,250,3.556,1,3859,234,meters,jsons/v1_VE250_randls_70_rotated.json,934216,1329366,30,Woman
102,621633,DepthScenes,duration_manipulation_targetAtFixation,jsons/v1_VE250_randls_70_rotated.json,http://54.235.29.9/FacialAge/BNav_EC2/DepthDuration/v2_depth_duration_MTurk/v2_DepthDuration_HTML.html#66,66,1024,625,1024,768,8-30-2022,6-55-39,103,depth_duration_stimuli/001029_2014-06-08_13-17-57_260595134347_rgbf000065-resize_1/001029_2014-06-08_13-17-57_260595134347_rgbf000065-resize_1-target.png,250,3.0835,2,2750,246,meters,jsons/v1_VE250_randls_70_rotated.json,934216,1329366,30,Woman
103,621633,DepthScenes,duration_manipulation_targetAtFixation,jsons/v1_VE250_randls_70_rotated.json,http://54.235.29.9/FacialAge/BNav_EC2/DepthDuration/v2_depth_duration_MTurk/v2_DepthDuration_HTML.html#66,66,1024,625,1024,768,8-30-2022,6-55-39,104,depth_duration_stimuli/000635_2014-06-08_16-38-42_260595134347_rgbf000106-resize_1/000635_2014-06-08_16-38-42_260595134347_rgbf000106-resize_1-target.png,250,2.074,3,2730,240,meters,jsons/v1_VE250_randls_70_rotated.json,934216,1329366,30,Woman
104,621633,DepthScenes,duration_manipulation_targetAtFixation,jsons/v1_VE250_randls_70_rotated.json,http://54.235.29.9/FacialAge/BNav_EC2/DepthDuration/v2_depth_duration_MTurk/v2_DepthDuration_HTML.html#66,66,1024,625,1024,768,8-30-2022,6-55-39,105,depth_duration_stimuli/002279_2014-06-28_18-55-32_260595134347_rgbf000040-resize_5/002279_2014-06-28_18-55-32_260595134347_rgbf000040-resize_5-target.png,250,1.5043333333333,3,5383,231,meters,jsons/v1_VE250_randls_70_rotated.json,934216,1329366,30,Woman
105,621633,DepthScenes,duration_manipulation_targetAtFixation,jsons/v1_VE250_randls_70_rotated.json,http://54.235.29.9/FacialAge/BNav_EC2/DepthDuration/v2_depth_duration_MTurk/v2_DepthDuration_HTML.html#66,66,1024,625,1024,768,8-30-2022,6-55-39,106,depth_duration_stimuli/001617_2014-06-20_11-35-32_260595134347_rgbf000066-resize_1/001617_2014-06-20_11-35-32_260595134347_rgbf000066-resize_1-target.png,250,3.7910000000000004,3,2930,348,meters,jsons/v1_VE250_randls_70_rotated.json,934216,1329366,30,Woman
106,621633,DepthScenes,duration_manipulation_targetAtFixation,jsons/v1_VE250_randls_70_rotated.json,http://54.235.29.9/FacialAge/BNav_EC2/DepthDuration/v2_depth_duration_MTurk/v2_DepthDuration_HTML.html#66,66,1024,625,1024,768,8-30-2022,6-55-39,107,depth_duration_stimuli/001806_2014-06-26_20-50-20_260595134347_rgbf000091-resize_1/001806_2014-06-26_20-50-20_260595134347_rgbf000091-resize_1-target.png,250,2.7305,3,3723,272,meters,jsons/v1_VE250_randls_70_rotated.json,934216,1329366,30,Woman
107,621633,DepthScenes,duration_manipulation_targetAtFixation,jsons/v1_VE250_randls_70_rotated.json,http://54.235.29.9/FacialAge/BNav_EC2/DepthDuration/v2_depth_duration_MTurk/v2_DepthDuration_HTML.html#66,66,1024,625,1024,768,8-30-2022,6-55-39,108,depth_duration_stimuli/003079_2014-06-15_15-18-20_094959634447_rgbf000152-resize_8/003079_2014-06-15_15-18-20_094959634447_rgbf000152-resize_8-target.png,250,2.8775,2,3246,83,meters,jsons/v1_VE250_randls_70_rotated.json,934216,1329366,30,Woman
108,621633,DepthScenes,duration_manipulation_targetAtFixation,jsons/v1_VE250_randls_70_rotated.json,http://54.235.29.9/FacialAge/BNav_EC2/DepthDuration/v2_depth_duration_MTurk/v2_DepthDuration_HTML.html#66,66,1024,625,1024,768,8-30-2022,6-55-39,109,depth_duration_stimuli/000506_2014-06-08_23-21-00_260595134347_rgbf000070-resize_7/000506_2014-06-08_23-21-00_260595134347_rgbf000070-resize_7-target.png,250,4.0585,2,3030,173,meters,jsons/v1_VE250_randls_70_rotated.json,934216,1329366,30,Woman
109,621633,DepthScenes,duration_manipulation_targetAtFixation,jsons/v1_VE250_randls_70_rotated.json,http://54.235.29.9/FacialAge/BNav_EC2/DepthDuration/v2_depth_duration_MTurk/v2_DepthDuration_HTML.html#66,66,1024,625,1024,768,8-30-2022,6-55-39,110,depth_duration_stimuli/002758_2014-06-22_19-11-20_094959634447_rgbf000128-resize_1/002758_2014-06-22_19-11-20_094959634447_rgbf000128-resize_1-target.png,250,2.555,2,3310,127,meters,jsons/v1_VE250_randls_70_rotated.json,934216,1329366,30,Woman
110,621633,DepthScenes,duration_manipulation_targetAtFixation,jsons/v1_VE250_randls_70_rotated.json,http://54.235.29.9/FacialAge/BNav_EC2/DepthDuration/v2_depth_duration_MTurk/v2_DepthDuration_HTML.html#66,66,1024,625,1024,768,8-30-2022,6-55-39,111,depth_duration_stimuli/002630_2014-06-24_14-47-50_094959634447_rgbf000055-resize_1/002630_2014-06-24_14-47-50_094959634447_rgbf000055-resize_1-target.png,250,3.0095,1,3799,181,meters,jsons/v1_VE250_randls_70_rotated.json,934216,1329366,30,Woman
111,621633,DepthScenes,duration_manipulation_targetAtFixation,jsons/v1_VE250_randls_70_rotated.json,http://54.235.29.9/FacialAge/BNav_EC2/DepthDuration/v2_depth_duration_MTurk/v2_DepthDuration_HTML.html#66,66,1024,625,1024,768,8-30-2022,6-55-39,112,depth_duration_stimuli/002949_2014-06-26_15-57-42_094959634447_rgbf000079-resize_1/002949_2014-06-26_15-57-42_094959634447_rgbf000079-resize_1-target.png,250,1.8915,3,5093,152,meters,jsons/v1_VE250_randls_70_rotated.json,934216,1329366,30,Woman
112,621633,DepthScenes,duration_manipulation_targetAtFixation,jsons/v1_VE250_randls_70_rotated.json,http://54.235.29.9/FacialAge/BNav_EC2/DepthDuration/v2_depth_duration_MTurk/v2_DepthDuration_HTML.html#66,66,1024,625,1024,768,8-30-2022,6-55-39,113,depth_duration_stimuli/000522_2014-06-08_13-35-06_260595134347_rgbf000244-resize_1/000522_2014-06-08_13-35-06_260595134347_rgbf000244-resize_1-target.png,250,2.3715,3,2516,175,meters,jsons/v1_VE250_randls_70_rotated.json,934216,1329366,30,Woman
113,621633,DepthScenes,duration_manipulation_targetAtFixation,jsons/v1_VE250_randls_70_rotated.json,http://54.235.29.9/FacialAge/BNav_EC2/DepthDuration/v2_depth_duration_MTurk/v2_DepthDuration_HTML.html#66,66,1024,625,1024,768,8-30-2022,6-55-39,114,depth_duration_stimuli/002637_2014-06-24_14-51-13_094959634447_rgbf000066-resize_4/002637_2014-06-24_14-51-13_094959634447_rgbf000066-resize_4-target.png,250,1.9955,2,2531,253,meters,jsons/v1_VE250_randls_70_rotated.json,934216,1329366,30,Woman
114,621633,DepthScenes,duration_manipulation_targetAtFixation,jsons/v1_VE250_randls_70_rotated.json,http://54.235.29.9/FacialAge/BNav_EC2/DepthDuration/v2_depth_duration_MTurk/v2_DepthDuration_HTML.html#66,66,1024,625,1024,768,8-30-2022,6-55-39,115,depth_duration_stimuli/003534_2014-05-22_15-06-10_094959634447_rgbf000102-resize_4/003534_2014-05-22_15-06-10_094959634447_rgbf000102-resize_4-target.png,250,1.426,2,5274,293,meters,jsons/v1_VE250_randls_70_rotated.json,934216,1329366,30,Woman
115,621633,DepthScenes,duration_manipulation_targetAtFixation,jsons/v1_VE250_randls_70_rotated.json,http://54.235.29.9/FacialAge/BNav_EC2/DepthDuration/v2_depth_duration_MTurk/v2_DepthDuration_HTML.html#66,66,1024,625,1024,768,8-30-2022,6-55-39,116,depth_duration_stimuli/002323_2014-06-28_20-01-54_260595134347_rgbf000051-resize_4/002323_2014-06-28_20-01-54_260595134347_rgbf000051-resize_4-target.png,250,3.7310000000000003,2,137769,478,meters,jsons/v1_VE250_randls_70_rotated.json,934216,1329366,30,Woman
116,621633,DepthScenes,duration_manipulation_targetAtFixation,jsons/v1_VE250_randls_70_rotated.json,http://54.235.29.9/FacialAge/BNav_EC2/DepthDuration/v2_depth_duration_MTurk/v2_DepthDuration_HTML.html#66,66,1024,625,1024,768,8-30-2022,6-55-39,117,depth_duration_stimuli/000917_2014-06-09_22-45-29_260595134347_rgbf000149-resize_3/000917_2014-06-09_22-45-29_260595134347_rgbf000149-resize_3-target.png,250,4.1865,2,3937,254,meters,jsons/v1_VE250_randls_70_rotated.json,934216,1329366,30,Woman
117,621633,DepthScenes,duration_manipulation_targetAtFixation,jsons/v1_VE250_randls_70_rotated.json,http://54.235.29.9/FacialAge/BNav_EC2/DepthDuration/v2_depth_duration_MTurk/v2_DepthDuration_HTML.html#66,66,1024,625,1024,768,8-30-2022,6-55-39,118,depth_duration_stimuli/003490_2014-05-21_15-50-11_094959634447_rgbf000101-resize_3/003490_2014-05-21_15-50-11_094959634447_rgbf000101-resize_3-target.png,250,3.6445,2,3311,247,meters,jsons/v1_VE250_randls_70_rotated.json,934216,1329366,30,Woman
118,621633,DepthScenes,duration_manipulation_targetAtFixation,jsons/v1_VE250_randls_70_rotated.json,http://54.235.29.9/FacialAge/BNav_EC2/DepthDuration/v2_depth_duration_MTurk/v2_DepthDuration_HTML.html#66,66,1024,625,1024,768,8-30-2022,6-55-39,119,depth_duration_stimuli/001175_2014-06-17_15-45-55_260595134347_rgbf000129-resize_4/001175_2014-06-17_15-45-55_260595134347_rgbf000129-resize_4-target.png,250,4.255,3,4133,236,meters,jsons/v1_VE250_randls_70_rotated.json,934216,1329366,30,Woman
119,621633,DepthScenes,duration_manipulation_targetAtFixation,jsons/v1_VE250_randls_70_rotated.json,http://54.235.29.9/FacialAge/BNav_EC2/DepthDuration/v2_depth_duration_MTurk/v2_DepthDuration_HTML.html#66,66,1024,625,1024,768,8-30-2022,6-55-39,120,depth_duration_stimuli/000787_2014-06-08_22-33-53_260595134347_rgbf000175-resize_1/000787_2014-06-08_22-33-53_260595134347_rgbf000175-resize-original.jpg,250,4.784,1,3645,224,meters,jsons/v1_VE250_randls_70_rotated.json,934216,1329366,30,Woman
120,621633,DepthScenes,duration_manipulation_targetAtFixation,jsons/v1_VE250_randls_70_rotated.json,http://54.235.29.9/FacialAge/BNav_EC2/DepthDuration/v2_depth_duration_MTurk/v2_DepthDuration_HTML.html#66,66,1024,625,1024,768,8-30-2022,6-55-39,121,depth_duration_stimuli/002750_2014-06-22_19-08-03_094959634447_rgbf000094-resize_4/002750_2014-06-22_19-08-03_094959634447_rgbf000094-resize_4-target.png,250,2.354,3,3095,233,meters,jsons/v1_VE250_randls_70_rotated.json,934216,1329366,30,Woman
121,621633,DepthScenes,duration_manipulation_targetAtFixation,jsons/v1_VE250_randls_70_rotated.json,http://54.235.29.9/FacialAge/BNav_EC2/DepthDuration/v2_depth_duration_MTurk/v2_DepthDuration_HTML.html#66,66,1024,625,1024,768,8-30-2022,6-55-39,122,depth_duration_stimuli/002549_2014-06-24_13-41-39_094959634447_rgbf000022-resize_3/002549_2014-06-24_13-41-39_094959634447_rgbf000022-resize_3-target.png,250,1.476,3,4614,81,meters,jsons/v1_VE250_randls_70_rotated.json,934216,1329366,30,Woman
122,621633,DepthScenes,duration_manipulation_targetAtFixation,jsons/v1_VE250_randls_70_rotated.json,http://54.235.29.9/FacialAge/BNav_EC2/DepthDuration/v2_depth_duration_MTurk/v2_DepthDuration_HTML.html#66,66,1024,625,1024,768,8-30-2022,6-55-39,123,depth_duration_stimuli/001392_2014-06-19_16-07-59_260595134347_rgbf000046-resize_1/001392_2014-06-19_16-07-59_260595134347_rgbf000046-resize_1-target.png,250,4.135,3,2514,251,meters,jsons/v1_VE250_randls_70_rotated.json,934216,1329366,30,Woman
123,621633,DepthScenes,duration_manipulation_targetAtFixation,jsons/v1_VE250_randls_70_rotated.json,http://54.235.29.9/FacialAge/BNav_EC2/DepthDuration/v2_depth_duration_MTurk/v2_DepthDuration_HTML.html#66,66,1024,625,1024,768,8-30-2022,6-55-39,124,depth_duration_stimuli/001570_2014-06-20_17-21-09_260595134347_rgbf000135-resize_4/001570_2014-06-20_17-21-09_260595134347_rgbf000135-resize_4-target.png,250,4.467,3,3442,207,meters,jsons/v1_VE250_randls_70_rotated.json,934216,1329366,30,Woman
124,621633,DepthScenes,duration_manipulation_targetAtFixation,jsons/v1_VE250_randls_70_rotated.json,http://54.235.29.9/FacialAge/BNav_EC2/DepthDuration/v2_depth_duration_MTurk/v2_DepthDuration_HTML.html#66,66,1024,625,1024,768,8-30-2022,6-55-39,125,depth_duration_stimuli/002414_2014-06-28_20-24-58_260595134347_rgbf000067-resize_4/002414_2014-06-28_20-24-58_260595134347_rgbf000067-resize_4-target.png,250,4.363,2,6608,311,meters,jsons/v1_VE250_randls_70_rotated.json,934216,1329366,30,Woman
125,621633,DepthScenes,duration_manipulation_targetAtFixation,jsons/v1_VE250_randls_70_rotated.json,http://54.235.29.9/FacialAge/BNav_EC2/DepthDuration/v2_depth_duration_MTurk/v2_DepthDuration_HTML.html#66,66,1024,625,1024,768,8-30-2022,6-55-39,126,depth_duration_stimuli/000773_2014-06-08_22-24-54_260595134347_rgbf000093-resize_1/000773_2014-06-08_22-24-54_260595134347_rgbf000093-resize_1-target.png,250,4.973,3,2571,404,meters,jsons/v1_VE250_randls_70_rotated.json,934216,1329366,30,Woman
126,621633,DepthScenes,duration_manipulation_targetAtFixation,jsons/v1_VE250_randls_70_rotated.json,http://54.235.29.9/FacialAge/BNav_EC2/DepthDuration/v2_depth_duration_MTurk/v2_DepthDuration_HTML.html#66,66,1024,625,1024,768,8-30-2022,6-55-39,127,depth_duration_stimuli/001052_2014-06-08_18-24-54_260595134347_rgbf000130-resize_1/001052_2014-06-08_18-24-54_260595134347_rgbf000130-resize_1-target.png,250,4.1045,3,2539,196,meters,jsons/v1_VE250_randls_70_rotated.json,934216,1329366,30,Woman
127,621633,DepthScenes,duration_manipulation_targetAtFixation,jsons/v1_VE250_randls_70_rotated.json,http://54.235.29.9/FacialAge/BNav_EC2/DepthDuration/v2_depth_duration_MTurk/v2_DepthDuration_HTML.html#66,66,1024,625,1024,768,8-30-2022,6-55-39,128,depth_duration_stimuli/002988_2014-06-15_12-24-20_094959634447_rgbf000150-resize_1/002988_2014-06-15_12-24-20_094959634447_rgbf000150-resize_1-target.png,250,4.7669999999999995,1,5690,363,meters,jsons/v1_VE250_randls_70_rotated.json,934216,1329366,30,Woman
128,621633,DepthScenes,duration_manipulation_targetAtFixation,jsons/v1_VE250_randls_70_rotated.json,http://54.235.29.9/FacialAge/BNav_EC2/DepthDuration/v2_depth_duration_MTurk/v2_DepthDuration_HTML.html#66,66,1024,625,1024,768,8-30-2022,6-55-39,129,depth_duration_stimuli/000556_2014-06-09_22-42-56_260595134347_rgbf000214-resize_1/000556_2014-06-09_22-42-56_260595134347_rgbf000214-resize_1-target.png,250,4.8415,3,23796,104,meters,jsons/v1_VE250_randls_70_rotated.json,934216,1329366,30,Woman
129,621633,DepthScenes,duration_manipulation_targetAtFixation,jsons/v1_VE250_randls_70_rotated.json,http://54.235.29.9/FacialAge/BNav_EC2/DepthDuration/v2_depth_duration_MTurk/v2_DepthDuration_HTML.html#66,66,1024,625,1024,768,8-30-2022,6-55-39,130,depth_duration_stimuli/001158_2014-06-17_15-32-16_260595134347_rgbf000138-resize_2/001158_2014-06-17_15-32-16_260595134347_rgbf000138-resize_2-target.png,250,4.5315,3,3453,266,meters,jsons/v1_VE250_randls_70_rotated.json,934216,1329366,30,Woman
130,621633,DepthScenes,duration_manipulation_targetAtFixation,jsons/v1_VE250_randls_70_rotated.json,http://54.235.29.9/FacialAge/BNav_EC2/DepthDuration/v2_depth_duration_MTurk/v2_DepthDuration_HTML.html#66,66,1024,625,1024,768,8-30-2022,6-55-39,131,depth_duration_stimuli/000502_2014-06-08_23-02-32_260595134347_rgbf000063-resize_4/000502_2014-06-08_23-02-32_260595134347_rgbf000063-resize_4-target.png,250,2.431,2,5461,0,meters,jsons/v1_VE250_randls_70_rotated.json,934216,1329366,30,Woman
131,621633,DepthScenes,duration_manipulation_targetAtFixation,jsons/v1_VE250_randls_70_rotated.json,http://54.235.29.9/FacialAge/BNav_EC2/DepthDuration/v2_depth_duration_MTurk/v2_DepthDuration_HTML.html#66,66,1024,625,1024,768,8-30-2022,6-55-39,132,depth_duration_stimuli/001199_2014-06-17_16-03-48_260595134347_rgbf000077-resize_0/001199_2014-06-17_16-03-48_260595134347_rgbf000077-resize_0-target.png,250,3.4375,3,3106,5,meters,jsons/v1_VE250_randls_70_rotated.json,934216,1329366,30,Woman
132,621633,DepthScenes,duration_manipulation_targetAtFixation,jsons/v1_VE250_randls_70_rotated.json,http://54.235.29.9/FacialAge/BNav_EC2/DepthDuration/v2_depth_duration_MTurk/v2_DepthDuration_HTML.html#66,66,1024,625,1024,768,8-30-2022,6-55-39,133,depth_duration_stimuli/000749_2014-06-08_21-55-06_260595134347_rgbf000070-resize_2/000749_2014-06-08_21-55-06_260595134347_rgbf000070-resize_2-target.png,250,2.331,1,3294,229,meters,jsons/v1_VE250_randls_70_rotated.json,934216,1329366,30,Woman
133,621633,DepthScenes,duration_manipulation_targetAtFixation,jsons/v1_VE250_randls_70_rotated.json,http://54.235.29.9/FacialAge/BNav_EC2/DepthDuration/v2_depth_duration_MTurk/v2_DepthDuration_HTML.html#66,66,1024,625,1024,768,8-30-2022,6-55-39,134,depth_duration_stimuli/002788_2014-06-22_19-36-03_094959634447_rgbf000088-resize_2/002788_2014-06-22_19-36-03_094959634447_rgbf000088-resize_2-target.png,250,1.6465,2,2504,239,meters,jsons/v1_VE250_randls_70_rotated.json,934216,1329366,30,Woman
134,621633,DepthScenes,duration_manipulation_targetAtFixation,jsons/v1_VE250_randls_70_rotated.json,http://54.235.29.9/FacialAge/BNav_EC2/DepthDuration/v2_depth_duration_MTurk/v2_DepthDuration_HTML.html#66,66,1024,625,1024,768,8-30-2022,6-55-39,135,depth_duration_stimuli/000375_2014-06-08_11-17-29_260595134347_rgbf000133-resize_2/000375_2014-06-08_11-17-29_260595134347_rgbf000133-resize-original.jpg,250,4.718,3,2612,230,meters,jsons/v1_VE250_randls_70_rotated.json,934216,1329366,30,Woman
135,621633,DepthScenes,duration_manipulation_targetAtFixation,jsons/v1_VE250_randls_70_rotated.json,http://54.235.29.9/FacialAge/BNav_EC2/DepthDuration/v2_depth_duration_MTurk/v2_DepthDuration_HTML.html#66,66,1024,625,1024,768,8-30-2022,6-55-39,136,depth_duration_stimuli/002678_2014-06-13_16-15-32_094959634447_rgbf000151-resize_6/002678_2014-06-13_16-15-32_094959634447_rgbf000151-resize_6-target.png,250,2.1830000000000003,1,3163,269,meters,jsons/v1_VE250_randls_70_rotated.json,934216,1329366,30,Woman
136,621633,DepthScenes,duration_manipulation_targetAtFixation,jsons/v1_VE250_randls_70_rotated.json,http://54.235.29.9/FacialAge/BNav_EC2/DepthDuration/v2_depth_duration_MTurk/v2_DepthDuration_HTML.html#66,66,1024,625,1024,768,8-30-2022,6-55-39,137,depth_duration_stimuli/000368_2014-06-09_15-53-01_260595134347_rgbf000155-resize_2/000368_2014-06-09_15-53-01_260595134347_rgbf000155-resize_2-target.png,250,2.4859999999999998,1,2696,250,meters,jsons/v1_VE250_randls_70_rotated.json,934216,1329366,30,Woman
137,621633,DepthScenes,duration_manipulation_targetAtFixation,jsons/v1_VE250_randls_70_rotated.json,http://54.235.29.9/FacialAge/BNav_EC2/DepthDuration/v2_depth_duration_MTurk/v2_DepthDuration_HTML.html#66,66,1024,625,1024,768,8-30-2022,6-55-39,138,depth_duration_stimuli/000734_2014-06-08_17-39-11_260595134347_rgbf000128-resize_2/000734_2014-06-08_17-39-11_260595134347_rgbf000128-resize_2-target.png,250,4.098,2,3159,238,meters,jsons/v1_VE250_randls_70_rotated.json,934216,1329366,30,Woman
138,621633,DepthScenes,duration_manipulation_targetAtFixation,jsons/v1_VE250_randls_70_rotated.json,http://54.235.29.9/FacialAge/BNav_EC2/DepthDuration/v2_depth_duration_MTurk/v2_DepthDuration_HTML.html#66,66,1024,625,1024,768,8-30-2022,6-55-39,139,depth_duration_stimuli/000739_2014-06-08_18-45-58_260595134347_rgbf000068-resize_1/000739_2014-06-08_18-45-58_260595134347_rgbf000068-resize_1-target.png,250,3.534,3,2880,190,meters,jsons/v1_VE250_randls_70_rotated.json,934216,1329366,30,Woman
139,621633,DepthScenes,duration_manipulation_targetAtFixation,jsons/v1_VE250_randls_70_rotated.json,http://54.235.29.9/FacialAge/BNav_EC2/DepthDuration/v2_depth_duration_MTurk/v2_DepthDuration_HTML.html#66,66,1024,625,1024,768,8-30-2022,6-55-39,140,depth_duration_stimuli/001650_2014-06-20_12-09-00_260595134347_rgbf000087-resize_3/001650_2014-06-20_12-09-00_260595134347_rgbf000087-resize_3-target.png,250,1.9505,1,4576,595,meters,jsons/v1_VE250_randls_70_rotated.json,934216,1329366,30,Woman
140,621633,DepthScenes,duration_manipulation_targetAtFixation,jsons/v1_VE250_randls_70_rotated.json,http://54.235.29.9/FacialAge/BNav_EC2/DepthDuration/v2_depth_duration_MTurk/v2_DepthDuration_HTML.html#66,66,1024,625,1024,768,8-30-2022,6-55-39,141,depth_duration_stimuli/000682_2014-06-08_23-14-58_260595134347_rgbf000041-resize_5/000682_2014-06-08_23-14-58_260595134347_rgbf000041-resize_5-target.png,250,2.7239999999999998,2,3812,606,meters,jsons/v1_VE250_randls_70_rotated.json,934216,1329366,30,Woman
141,621633,DepthScenes,duration_manipulation_targetAtFixation,jsons/v1_VE250_randls_70_rotated.json,http://54.235.29.9/FacialAge/BNav_EC2/DepthDuration/v2_depth_duration_MTurk/v2_DepthDuration_HTML.html#66,66,1024,625,1024,768,8-30-2022,6-55-39,142,depth_duration_stimuli/003495_2014-05-21_16-01-51_094959634447_rgbf000100-resize_3/003495_2014-05-21_16-01-51_094959634447_rgbf000100-resize_3-target.png,250,1.6255,3,2555,229,meters,jsons/v1_VE250_randls_70_rotated.json,934216,1329366,30,Woman
142,621633,DepthScenes,duration_manipulation_targetAtFixation,jsons/v1_VE250_randls_70_rotated.json,http://54.235.29.9/FacialAge/BNav_EC2/DepthDuration/v2_depth_duration_MTurk/v2_DepthDuration_HTML.html#66,66,1024,625,1024,768,8-30-2022,6-55-39,143,depth_duration_stimuli/001244_2014-06-17_16-47-45_260595134347_rgbf000030-resize_4/001244_2014-06-17_16-47-45_260595134347_rgbf000030-resize_4-target.png,250,2.0425,1,2708,252,meters,jsons/v1_VE250_randls_70_rotated.json,934216,1329366,30,Woman
143,621633,DepthScenes,duration_manipulation_targetAtFixation,jsons/v1_VE250_randls_70_rotated.json,http://54.235.29.9/FacialAge/BNav_EC2/DepthDuration/v2_depth_duration_MTurk/v2_DepthDuration_HTML.html#66,66,1024,625,1024,768,8-30-2022,6-55-39,144,depth_duration_stimuli/000457_2014-06-08_16-52-43_260595134347_rgbf000199-resize_1/000457_2014-06-08_16-52-43_260595134347_rgbf000199-resize_1-target.png,250,3.6489999999999996,2,2237,269,meters,jsons/v1_VE250_randls_70_rotated.json,934216,1329366,30,Woman
144,621633,DepthScenes,duration_manipulation_targetAtFixation,jsons/v1_VE250_randls_70_rotated.json,http://54.235.29.9/FacialAge/BNav_EC2/DepthDuration/v2_depth_duration_MTurk/v2_DepthDuration_HTML.html#66,66,1024,625,1024,768,8-30-2022,6-55-39,145,depth_duration_stimuli/000929_2014-06-09_16-33-19_260595134347_rgbf000139-resize_0/000929_2014-06-09_16-33-19_260595134347_rgbf000139-resize_0-target.png,250,2.8680000000000003,1,3846,413,meters,jsons/v1_VE250_randls_70_rotated.json,934216,1329366,30,Woman
145,621633,DepthScenes,duration_manipulation_targetAtFixation,jsons/v1_VE250_randls_70_rotated.json,http://54.235.29.9/FacialAge/BNav_EC2/DepthDuration/v2_depth_duration_MTurk/v2_DepthDuration_HTML.html#66,66,1024,625,1024,768,8-30-2022,6-55-39,146,depth_duration_stimuli/003423_2014-05-21_10-23-26_094959634447_rgbf002665-resize_2/003423_2014-05-21_10-23-26_094959634447_rgbf002665-resize_2-target.png,250,3.2575,2,2540,211,meters,jsons/v1_VE250_randls_70_rotated.json,934216,1329366,30,Woman
146,621633,DepthScenes,duration_manipulation_targetAtFixation,jsons/v1_VE250_randls_70_rotated.json,http://54.235.29.9/FacialAge/BNav_EC2/DepthDuration/v2_depth_duration_MTurk/v2_DepthDuration_HTML.html#66,66,1024,625,1024,768,8-30-2022,6-55-39,147,depth_duration_stimuli/002905_2014-06-03_18-04-43_094959634447_rgbf000151-resize_2/002905_2014-06-03_18-04-43_094959634447_rgbf000151-resize_2-target.png,250,2.0295,1,2782,262,meters,jsons/v1_VE250_randls_70_rotated.json,934216,1329366,30,Woman
147,621633,DepthScenes,duration_manipulation_targetAtFixation,jsons/v1_VE250_randls_70_rotated.json,http://54.235.29.9/FacialAge/BNav_EC2/DepthDuration/v2_depth_duration_MTurk/v2_DepthDuration_HTML.html#66,66,1024,625,1024,768,8-30-2022,6-55-39,148,depth_duration_stimuli/002209_2014-06-28_18-36-10_260595134347_rgbf000051-resize_1/002209_2014-06-28_18-36-10_260595134347_rgbf000051-resize_1-target.png,250,2.057,3,3306,196,meters,jsons/v1_VE250_randls_70_rotated.json,934216,1329366,30,Woman
148,621633,DepthScenes,duration_manipulation_targetAtFixation,jsons/v1_VE250_randls_70_rotated.json,http://54.235.29.9/FacialAge/BNav_EC2/DepthDuration/v2_depth_duration_MTurk/v2_DepthDuration_HTML.html#66,66,1024,625,1024,768,8-30-2022,6-55-39,149,depth_duration_stimuli/002763_2014-06-22_19-13-10_094959634447_rgbf000075-resize_4/002763_2014-06-22_19-13-10_094959634447_rgbf000075-resize_4-target.png,250,1.68375,1,3920,258,meters,jsons/v1_VE250_randls_70_rotated.json,934216,1329366,30,Woman
149,621633,DepthScenes,duration_manipulation_targetAtFixation,jsons/v1_VE250_randls_70_rotated.json,http://54.235.29.9/FacialAge/BNav_EC2/DepthDuration/v2_depth_duration_MTurk/v2_DepthDuration_HTML.html#66,66,1024,625,1024,768,8-30-2022,6-55-39,150,depth_duration_stimuli/002875_2014-06-01_15-19-00_094959634447_rgbf000151-resize_1/002875_2014-06-01_15-19-00_094959634447_rgbf000151-resize_1-target.png,250,1.9675,1,2801,434,meters,jsons/v1_VE250_randls_70_rotated.json,934216,1329366,30,Woman
150,621633,DepthScenes,duration_manipulation_targetAtFixation,jsons/v1_VE250_randls_70_rotated.json,http://54.235.29.9/FacialAge/BNav_EC2/DepthDuration/v2_depth_duration_MTurk/v2_DepthDuration_HTML.html#66,66,1024,625,1024,768,8-30-2022,6-55-39,151,depth_duration_stimuli/001011_2014-06-08_23-18-54_260595134347_rgbf000044-resize_4/001011_2014-06-08_23-18-54_260595134347_rgbf000044-resize_4-target.png,250,2.4730000000000003,2,2671,269,meters,jsons/v1_VE250_randls_70_rotated.json,934216,1329366,30,Woman
151,621633,DepthScenes,duration_manipulation_targetAtFixation,jsons/v1_VE250_randls_70_rotated.json,http://54.235.29.9/FacialAge/BNav_EC2/DepthDuration/v2_depth_duration_MTurk/v2_DepthDuration_HTML.html#66,66,1024,625,1024,768,8-30-2022,6-55-39,152,depth_duration_stimuli/000569_2014-06-09_22-51-47_260595134347_rgbf000141-resize_3/000569_2014-06-09_22-51-47_260595134347_rgbf000141-resize-original.jpg,250,4.512,1,2801,232,meters,jsons/v1_VE250_randls_70_rotated.json,934216,1329366,30,Woman
152,621633,DepthScenes,duration_manipulation_targetAtFixation,jsons/v1_VE250_randls_70_rotated.json,http://54.235.29.9/FacialAge/BNav_EC2/DepthDuration/v2_depth_duration_MTurk/v2_DepthDuration_HTML.html#66,66,1024,625,1024,768,8-30-2022,6-55-39,153,depth_duration_stimuli/002995_2014-06-15_12-31-26_094959634447_rgbf000150-resize_1/002995_2014-06-15_12-31-26_094959634447_rgbf000150-resize_1-target.png,250,3.8360000000000003,3,3265,254,meters,jsons/v1_VE250_randls_70_rotated.json,934216,1329366,30,Woman
153,621633,DepthScenes,duration_manipulation_targetAtFixation,jsons/v1_VE250_randls_70_rotated.json,http://54.235.29.9/FacialAge/BNav_EC2/DepthDuration/v2_depth_duration_MTurk/v2_DepthDuration_HTML.html#66,66,1024,625,1024,768,8-30-2022,6-55-39,154,depth_duration_stimuli/002748_2014-06-22_19-07-22_094959634447_rgbf000078-resize_1/002748_2014-06-22_19-07-22_094959634447_rgbf000078-resize_1-target.png,250,4.6705,2,2258,235,meters,jsons/v1_VE250_randls_70_rotated.json,934216,1329366,30,Woman
154,621633,DepthScenes,duration_manipulation_targetAtFixation,jsons/v1_VE250_randls_70_rotated.json,http://54.235.29.9/FacialAge/BNav_EC2/DepthDuration/v2_depth_duration_MTurk/v2_DepthDuration_HTML.html#66,66,1024,625,1024,768,8-30-2022,6-55-39,155,depth_duration_stimuli/001584_2014-06-20_11-07-43_260595134347_rgbf000002-resize_1/001584_2014-06-20_11-07-43_260595134347_rgbf000002-resize_1-target.png,250,3.53,1,2512,246,meters,jsons/v1_VE250_randls_70_rotated.json,934216,1329366,30,Woman
155,621633,DepthScenes,duration_manipulation_targetAtFixation,jsons/v1_VE250_randls_70_rotated.json,http://54.235.29.9/FacialAge/BNav_EC2/DepthDuration/v2_depth_duration_MTurk/v2_DepthDuration_HTML.html#66,66,1024,625,1024,768,8-30-2022,6-55-39,156,depth_duration_stimuli/003621_2014-05-23_18-06-08_094959634447_rgbf000101-resize_1/003621_2014-05-23_18-06-08_094959634447_rgbf000101-resize_1-target.png,250,3.9835,2,2418,241,meters,jsons/v1_VE250_randls_70_rotated.json,934216,1329366,30,Woman
156,621633,DepthScenes,duration_manipulation_targetAtFixation,jsons/v1_VE250_randls_70_rotated.json,http://54.235.29.9/FacialAge/BNav_EC2/DepthDuration/v2_depth_duration_MTurk/v2_DepthDuration_HTML.html#66,66,1024,625,1024,768,8-30-2022,6-55-39,157,depth_duration_stimuli/003129_2014-05-12_10-48-10_094959634447_rgbf000100-resize_0/003129_2014-05-12_10-48-10_094959634447_rgbf000100-resize_0-target.png,250,4.9305,1,2836,236,meters,jsons/v1_VE250_randls_70_rotated.json,934216,1329366,30,Woman
157,621633,DepthScenes,duration_manipulation_targetAtFixation,jsons/v1_VE250_randls_70_rotated.json,http://54.235.29.9/FacialAge/BNav_EC2/DepthDuration/v2_depth_duration_MTurk/v2_DepthDuration_HTML.html#66,66,1024,625,1024,768,8-30-2022,6-55-39,158,depth_duration_stimuli/000414_2014-06-04_19-49-13_260595134347_rgbf000044-resize_0/000414_2014-06-04_19-49-13_260595134347_rgbf000044-resize_0-target.png,250,4.329,2,2970,492,meters,jsons/v1_VE250_randls_70_rotated.json,934216,1329366,30,Woman
158,621633,DepthScenes,duration_manipulation_targetAtFixation,jsons/v1_VE250_randls_70_rotated.json,http://54.235.29.9/FacialAge/BNav_EC2/DepthDuration/v2_depth_duration_MTurk/v2_DepthDuration_HTML.html#66,66,1024,625,1024,768,8-30-2022,6-55-39,159,depth_duration_stimuli/003083_2014-06-15_15-21-03_094959634447_rgbf000063-resize_1/003083_2014-06-15_15-21-03_094959634447_rgbf000063-resize_1-target.png,250,4.1405,3,2724,391,meters,jsons/v1_VE250_randls_70_rotated.json,934216,1329366,30,Woman
159,621633,DepthScenes,duration_manipulation_targetAtFixation,jsons/v1_VE250_randls_70_rotated.json,http://54.235.29.9/FacialAge/BNav_EC2/DepthDuration/v2_depth_duration_MTurk/v2_DepthDuration_HTML.html#66,66,1024,625,1024,768,8-30-2022,6-55-39,160,depth_duration_stimuli/000486_2014-06-09_20-47-20_260595134347_rgbf000143-resize_2/000486_2014-06-09_20-47-20_260595134347_rgbf000143-resize_2-target.png,250,4.8325,2,2325,237,meters,jsons/v1_VE250_randls_70_rotated.json,934216,1329366,30,Woman
160,621633,DepthScenes,duration_manipulation_targetAtFixation,jsons/v1_VE250_randls_70_rotated.json,http://54.235.29.9/FacialAge/BNav_EC2/DepthDuration/v2_depth_duration_MTurk/v2_DepthDuration_HTML.html#66,66,1024,625,1024,768,8-30-2022,6-55-39,161,depth_duration_stimuli/001815_2014-06-26_20-52-55_260595134347_rgbf000020-resize_0/001815_2014-06-26_20-52-55_260595134347_rgbf000020-resize_0-target.png,250,3.3865,3,3060,274,meters,jsons/v1_VE250_randls_70_rotated.json,934216,1329366,30,Woman
161,621633,DepthScenes,duration_manipulation_targetAtFixation,jsons/v1_VE250_randls_70_rotated.json,http://54.235.29.9/FacialAge/BNav_EC2/DepthDuration/v2_depth_duration_MTurk/v2_DepthDuration_HTML.html#66,66,1024,625,1024,768,8-30-2022,6-55-39,162,depth_duration_stimuli/001808_2014-06-26_20-50-58_260595134347_rgbf000029-resize_1/001808_2014-06-26_20-50-58_260595134347_rgbf000029-resize_1-target.png,250,4.249,2,2767,243,meters,jsons/v1_VE250_randls_70_rotated.json,934216,1329366,30,Woman
162,621633,DepthScenes,duration_manipulation_targetAtFixation,jsons/v1_VE250_randls_70_rotated.json,http://54.235.29.9/FacialAge/BNav_EC2/DepthDuration/v2_depth_duration_MTurk/v2_DepthDuration_HTML.html#66,66,1024,625,1024,768,8-30-2022,6-55-39,163,depth_duration_stimuli/002344_2014-06-28_20-06-29_260595134347_rgbf000030-resize_1/002344_2014-06-28_20-06-29_260595134347_rgbf000030-resize_1-target.png,250,1.5795,2,2736,241,meters,jsons/v1_VE250_randls_70_rotated.json,934216,1329366,30,Woman
163,621633,DepthScenes,duration_manipulation_targetAtFixation,jsons/v1_VE250_randls_70_rotated.json,http://54.235.29.9/FacialAge/BNav_EC2/DepthDuration/v2_depth_duration_MTurk/v2_DepthDuration_HTML.html#66,66,1024,625,1024,768,8-30-2022,6-55-39,164,depth_duration_stimuli/002725_2014-06-22_11-47-51_094959634447_rgbf000070-resize_1/002725_2014-06-22_11-47-51_094959634447_rgbf000070-resize_1-target.png,250,2.195,2,2358,292,meters,jsons/v1_VE250_randls_70_rotated.json,934216,1329366,30,Woman
