,subjID,experimentName,versionName,sequenceName,url,selected_row,windowWidth,windowHeight,screenWidth,screenHeight,startDate,startTime,trial,stimulus,duration,actual_depth,depth_estimate,trial_RT,log_sceneDuration,unitSelection,seq_filepath,experimentTime,totalTime,age,gender
0,623005,DepthScenes,duration_manipulation_targetAtFixation,jsons/VE125_randls_23.json,http://54.235.29.9/FacialAge/BNav_EC2/DepthDuration/v2_depth_duration_MTurk/v2_DepthDuration_HTML.html#41,41,1304,665,1366,768,9-3-2022,10-49-35,1,depth_duration_stimuli/000682_2014-06-08_23-14-58_260595134347_rgbf000041-resize_5/000682_2014-06-08_23-14-58_260595134347_rgbf000041-resize_5-target.png,125,2.7239999999999998,1,6638,142,meters,jsons/VE125_randls_23.json,818528,1045763,43,Man
1,623005,DepthScenes,duration_manipulation_targetAtFixation,jsons/VE125_randls_23.json,http://54.235.29.9/FacialAge/BNav_EC2/DepthDuration/v2_depth_duration_MTurk/v2_DepthDuration_HTML.html#41,41,1304,665,1366,768,9-3-2022,10-49-35,2,depth_duration_stimuli/001650_2014-06-20_12-09-00_260595134347_rgbf000087-resize_3/001650_2014-06-20_12-09-00_260595134347_rgbf000087-resize_3-target.png,125,1.9505,2,8875,123,meters,jsons/VE125_randls_23.json,818528,1045763,43,Man
2,623005,DepthScenes,duration_manipulation_targetAtFixation,jsons/VE125_randls_23.json,http://54.235.29.9/FacialAge/BNav_EC2/DepthDuration/v2_depth_duration_MTurk/v2_DepthDuration_HTML.html#41,41,1304,665,1366,768,9-3-2022,10-49-35,3,depth_duration_stimuli/000436_2014-06-09_22-25-11_260595134347_rgbf000137-resize_1/000436_2014-06-09_22-25-11_260595134347_rgbf000137-resize_1-target.png,125,4.0705,2,5547,123,meters,jsons/VE125_randls_23.json,818528,1045763,43,Man
3,623005,DepthScenes,duration_manipulation_targetAtFixation,jsons/VE125_randls_23.json,http://54.235.29.9/FacialAge/BNav_EC2/DepthDuration/v2_depth_duration_MTurk/v2_DepthDuration_HTML.html#41,41,1304,665,1366,768,9-3-2022,10-49-35,4,depth_duration_stimuli/002444_2014-06-28_20-32-08_260595134347_rgbf000027-resize_0/002444_2014-06-28_20-32-08_260595134347_rgbf000027-resize_0-target.png,125,4.388999999999999,0,6455,122,meters,jsons/VE125_randls_23.json,818528,1045763,43,Man
4,623005,DepthScenes,duration_manipulation_targetAtFixation,jsons/VE125_randls_23.json,http://54.235.29.9/FacialAge/BNav_EC2/DepthDuration/v2_depth_duration_MTurk/v2_DepthDuration_HTML.html#41,41,1304,665,1366,768,9-3-2022,10-49-35,5,depth_duration_stimuli/001449_2014-06-19_17-01-27_260595134347_rgbf000116-resize_2/001449_2014-06-19_17-01-27_260595134347_rgbf000116-resize_2-target.png,125,3.452,3,12875,125,meters,jsons/VE125_randls_23.json,818528,1045763,43,Man
5,623005,DepthScenes,duration_manipulation_targetAtFixation,jsons/VE125_randls_23.json,http://54.235.29.9/FacialAge/BNav_EC2/DepthDuration/v2_depth_duration_MTurk/v2_DepthDuration_HTML.html#41,41,1304,665,1366,768,9-3-2022,10-49-35,6,depth_duration_stimuli/001450_2014-06-19_17-02-03_260595134347_rgbf000203-resize_4/001450_2014-06-19_17-02-03_260595134347_rgbf000203-resize_4-target.png,125,4.0106666666667,4,4316,139,meters,jsons/VE125_randls_23.json,818528,1045763,43,Man
6,623005,DepthScenes,duration_manipulation_targetAtFixation,jsons/VE125_randls_23.json,http://54.235.29.9/FacialAge/BNav_EC2/DepthDuration/v2_depth_duration_MTurk/v2_DepthDuration_HTML.html#41,41,1304,665,1366,768,9-3-2022,10-49-35,7,depth_duration_stimuli/001150_2014-06-17_15-27-34_260595134347_rgbf000108-resize_2/001150_2014-06-17_15-27-34_260595134347_rgbf000108-resize_2-target.png,125,4.0325,4,5129,123,meters,jsons/VE125_randls_23.json,818528,1045763,43,Man
7,623005,DepthScenes,duration_manipulation_targetAtFixation,jsons/VE125_randls_23.json,http://54.235.29.9/FacialAge/BNav_EC2/DepthDuration/v2_depth_duration_MTurk/v2_DepthDuration_HTML.html#41,41,1304,665,1366,768,9-3-2022,10-49-35,8,depth_duration_stimuli/000665_2014-06-09_20-42-35_260595134347_rgbf000110-resize_1/000665_2014-06-09_20-42-35_260595134347_rgbf000110-resize_1-target.png,125,3.057,2,4733,137,meters,jsons/VE125_randls_23.json,818528,1045763,43,Man
8,623005,DepthScenes,duration_manipulation_targetAtFixation,jsons/VE125_randls_23.json,http://54.235.29.9/FacialAge/BNav_EC2/DepthDuration/v2_depth_duration_MTurk/v2_DepthDuration_HTML.html#41,41,1304,665,1366,768,9-3-2022,10-49-35,9,depth_duration_stimuli/000642_2014-06-08_16-59-25_260595134347_rgbf000098-resize_2/000642_2014-06-08_16-59-25_260595134347_rgbf000098-resize_2-target.png,125,2.8815,2,4712,124,meters,jsons/VE125_randls_23.json,818528,1045763,43,Man
9,623005,DepthScenes,duration_manipulation_targetAtFixation,jsons/VE125_randls_23.json,http://54.235.29.9/FacialAge/BNav_EC2/DepthDuration/v2_depth_duration_MTurk/v2_DepthDuration_HTML.html#41,41,1304,665,1366,768,9-3-2022,10-49-35,10,depth_duration_stimuli/002425_2014-06-28_20-27-29_260595134347_rgbf000031-resize_8/002425_2014-06-28_20-27-29_260595134347_rgbf000031-resize_8-target.png,125,3.8960000000000004,4,4266,124,meters,jsons/VE125_randls_23.json,818528,1045763,43,Man
10,623005,DepthScenes,duration_manipulation_targetAtFixation,jsons/VE125_randls_23.json,http://54.235.29.9/FacialAge/BNav_EC2/DepthDuration/v2_depth_duration_MTurk/v2_DepthDuration_HTML.html#41,41,1304,665,1366,768,9-3-2022,10-49-35,11,depth_duration_stimuli/001056_2014-06-08_18-46-44_260595134347_rgbf000068-resize_0/001056_2014-06-08_18-46-44_260595134347_rgbf000068-resize_0-target.png,125,2.6625,2,5047,124,meters,jsons/VE125_randls_23.json,818528,1045763,43,Man
11,623005,DepthScenes,duration_manipulation_targetAtFixation,jsons/VE125_randls_23.json,http://54.235.29.9/FacialAge/BNav_EC2/DepthDuration/v2_depth_duration_MTurk/v2_DepthDuration_HTML.html#41,41,1304,665,1366,768,9-3-2022,10-49-35,12,depth_duration_stimuli/002199_2014-06-28_18-33-56_260595134347_rgbf000074-resize_0/002199_2014-06-28_18-33-56_260595134347_rgbf000074-resize_0-target.png,125,1.996,2,3869,140,meters,jsons/VE125_randls_23.json,818528,1045763,43,Man
12,623005,DepthScenes,duration_manipulation_targetAtFixation,jsons/VE125_randls_23.json,http://54.235.29.9/FacialAge/BNav_EC2/DepthDuration/v2_depth_duration_MTurk/v2_DepthDuration_HTML.html#41,41,1304,665,1366,768,9-3-2022,10-49-35,13,depth_duration_stimuli/000569_2014-06-09_22-51-47_260595134347_rgbf000141-resize_3/000569_2014-06-09_22-51-47_260595134347_rgbf000141-resize-original.jpg,125,4.512,0,5205,138,meters,jsons/VE125_randls_23.json,818528,1045763,43,Man
13,623005,DepthScenes,duration_manipulation_targetAtFixation,jsons/VE125_randls_23.json,http://54.235.29.9/FacialAge/BNav_EC2/DepthDuration/v2_depth_duration_MTurk/v2_DepthDuration_HTML.html#41,41,1304,665,1366,768,9-3-2022,10-49-35,14,depth_duration_stimuli/001092_2014-06-15_17-34-58_260595134347_rgbf000171-resize_3/001092_2014-06-15_17-34-58_260595134347_rgbf000171-resize_3-target.png,125,2.6935,1,6673,138,meters,jsons/VE125_randls_23.json,818528,1045763,43,Man
14,623005,DepthScenes,duration_manipulation_targetAtFixation,jsons/VE125_randls_23.json,http://54.235.29.9/FacialAge/BNav_EC2/DepthDuration/v2_depth_duration_MTurk/v2_DepthDuration_HTML.html#41,41,1304,665,1366,768,9-3-2022,10-49-35,15,depth_duration_stimuli/002545_2014-06-24_13-38-53_094959634447_rgbf000080-resize_4/002545_2014-06-24_13-38-53_094959634447_rgbf000080-resize_4-target.png,125,1.9205,3,4678,140,meters,jsons/VE125_randls_23.json,818528,1045763,43,Man
15,623005,DepthScenes,duration_manipulation_targetAtFixation,jsons/VE125_randls_23.json,http://54.235.29.9/FacialAge/BNav_EC2/DepthDuration/v2_depth_duration_MTurk/v2_DepthDuration_HTML.html#41,41,1304,665,1366,768,9-3-2022,10-49-35,16,depth_duration_stimuli/000414_2014-06-04_19-49-13_260595134347_rgbf000044-resize_0/000414_2014-06-04_19-49-13_260595134347_rgbf000044-resize_0-target.png,125,4.329,5,5141,140,meters,jsons/VE125_randls_23.json,818528,1045763,43,Man
16,623005,DepthScenes,duration_manipulation_targetAtFixation,jsons/VE125_randls_23.json,http://54.235.29.9/FacialAge/BNav_EC2/DepthDuration/v2_depth_duration_MTurk/v2_DepthDuration_HTML.html#41,41,1304,665,1366,768,9-3-2022,10-49-35,17,depth_duration_stimuli/003129_2014-05-12_10-48-10_094959634447_rgbf000100-resize_0/003129_2014-05-12_10-48-10_094959634447_rgbf000100-resize_0-target.png,125,4.9305,1,3628,110,meters,jsons/VE125_randls_23.json,818528,1045763,43,Man
17,623005,DepthScenes,duration_manipulation_targetAtFixation,jsons/VE125_randls_23.json,http://54.235.29.9/FacialAge/BNav_EC2/DepthDuration/v2_depth_duration_MTurk/v2_DepthDuration_HTML.html#41,41,1304,665,1366,768,9-3-2022,10-49-35,18,depth_duration_stimuli/003070_2014-06-15_14-58-27_094959634447_rgbf000150-resize_3/003070_2014-06-15_14-58-27_094959634447_rgbf000150-resize_3-target.png,125,2.9415,2,10461,123,meters,jsons/VE125_randls_23.json,818528,1045763,43,Man
18,623005,DepthScenes,duration_manipulation_targetAtFixation,jsons/VE125_randls_23.json,http://54.235.29.9/FacialAge/BNav_EC2/DepthDuration/v2_depth_duration_MTurk/v2_DepthDuration_HTML.html#41,41,1304,665,1366,768,9-3-2022,10-49-35,19,depth_duration_stimuli/000943_2014-06-09_19-31-07_260595134347_rgbf000128-resize_1/000943_2014-06-09_19-31-07_260595134347_rgbf000128-resize_1-target.png,125,1.9765,3,3694,124,meters,jsons/VE125_randls_23.json,818528,1045763,43,Man
19,623005,DepthScenes,duration_manipulation_targetAtFixation,jsons/VE125_randls_23.json,http://54.235.29.9/FacialAge/BNav_EC2/DepthDuration/v2_depth_duration_MTurk/v2_DepthDuration_HTML.html#41,41,1304,665,1366,768,9-3-2022,10-49-35,20,depth_duration_stimuli/002905_2014-06-03_18-04-43_094959634447_rgbf000151-resize_2/002905_2014-06-03_18-04-43_094959634447_rgbf000151-resize_2-target.png,125,2.0295,2,4127,124,meters,jsons/VE125_randls_23.json,818528,1045763,43,Man
20,623005,DepthScenes,duration_manipulation_targetAtFixation,jsons/VE125_randls_23.json,http://54.235.29.9/FacialAge/BNav_EC2/DepthDuration/v2_depth_duration_MTurk/v2_DepthDuration_HTML.html#41,41,1304,665,1366,768,9-3-2022,10-49-35,21,depth_duration_stimuli/003423_2014-05-21_10-23-26_094959634447_rgbf002665-resize_2/003423_2014-05-21_10-23-26_094959634447_rgbf002665-resize_2-target.png,125,3.2575,1,3217,123,meters,jsons/VE125_randls_23.json,818528,1045763,43,Man
21,623005,DepthScenes,duration_manipulation_targetAtFixation,jsons/VE125_randls_23.json,http://54.235.29.9/FacialAge/BNav_EC2/DepthDuration/v2_depth_duration_MTurk/v2_DepthDuration_HTML.html#41,41,1304,665,1366,768,9-3-2022,10-49-35,22,depth_duration_stimuli/000486_2014-06-09_20-47-20_260595134347_rgbf000143-resize_2/000486_2014-06-09_20-47-20_260595134347_rgbf000143-resize_2-target.png,125,4.8325,2,4084,124,meters,jsons/VE125_randls_23.json,818528,1045763,43,Man
22,623005,DepthScenes,duration_manipulation_targetAtFixation,jsons/VE125_randls_23.json,http://54.235.29.9/FacialAge/BNav_EC2/DepthDuration/v2_depth_duration_MTurk/v2_DepthDuration_HTML.html#41,41,1304,665,1366,768,9-3-2022,10-49-35,23,depth_duration_stimuli/003083_2014-06-15_15-21-03_094959634447_rgbf000063-resize_1/003083_2014-06-15_15-21-03_094959634447_rgbf000063-resize_1-target.png,125,4.1405,6,4789,126,meters,jsons/VE125_randls_23.json,818528,1045763,43,Man
23,623005,DepthScenes,duration_manipulation_targetAtFixation,jsons/VE125_randls_23.json,http://54.235.29.9/FacialAge/BNav_EC2/DepthDuration/v2_depth_duration_MTurk/v2_DepthDuration_HTML.html#41,41,1304,665,1366,768,9-3-2022,10-49-35,24,depth_duration_stimuli/002153_2014-06-25_21-27-18_260595134347_rgbf000038-resize_5/002153_2014-06-25_21-27-18_260595134347_rgbf000038-resize_5-target.png,125,2.505,2,4823,122,meters,jsons/VE125_randls_23.json,818528,1045763,43,Man
24,623005,DepthScenes,duration_manipulation_targetAtFixation,jsons/VE125_randls_23.json,http://54.235.29.9/FacialAge/BNav_EC2/DepthDuration/v2_depth_duration_MTurk/v2_DepthDuration_HTML.html#41,41,1304,665,1366,768,9-3-2022,10-49-35,25,depth_duration_stimuli/002660_2014-06-13_15-44-18_094959634447_rgbf001878-resize_2/002660_2014-06-13_15-44-18_094959634447_rgbf001878-resize_2-target.png,125,3.576,2,4249,124,meters,jsons/VE125_randls_23.json,818528,1045763,43,Man
25,623005,DepthScenes,duration_manipulation_targetAtFixation,jsons/VE125_randls_23.json,http://54.235.29.9/FacialAge/BNav_EC2/DepthDuration/v2_depth_duration_MTurk/v2_DepthDuration_HTML.html#41,41,1304,665,1366,768,9-3-2022,10-49-35,26,depth_duration_stimuli/001011_2014-06-08_23-18-54_260595134347_rgbf000044-resize_4/001011_2014-06-08_23-18-54_260595134347_rgbf000044-resize_4-target.png,125,2.4730000000000003,4,4773,124,meters,jsons/VE125_randls_23.json,818528,1045763,43,Man
26,623005,DepthScenes,duration_manipulation_targetAtFixation,jsons/VE125_randls_23.json,http://54.235.29.9/FacialAge/BNav_EC2/DepthDuration/v2_depth_duration_MTurk/v2_DepthDuration_HTML.html#41,41,1304,665,1366,768,9-3-2022,10-49-35,27,depth_duration_stimuli/002875_2014-06-01_15-19-00_094959634447_rgbf000151-resize_1/002875_2014-06-01_15-19-00_094959634447_rgbf000151-resize_1-target.png,125,1.9675,5,4376,148,meters,jsons/VE125_randls_23.json,818528,1045763,43,Man
27,623005,DepthScenes,duration_manipulation_targetAtFixation,jsons/VE125_randls_23.json,http://54.235.29.9/FacialAge/BNav_EC2/DepthDuration/v2_depth_duration_MTurk/v2_DepthDuration_HTML.html#41,41,1304,665,1366,768,9-3-2022,10-49-35,28,depth_duration_stimuli/002988_2014-06-15_12-24-20_094959634447_rgbf000150-resize_1/002988_2014-06-15_12-24-20_094959634447_rgbf000150-resize_1-target.png,125,4.7669999999999995,6,5089,124,meters,jsons/VE125_randls_23.json,818528,1045763,43,Man
28,623005,DepthScenes,duration_manipulation_targetAtFixation,jsons/VE125_randls_23.json,http://54.235.29.9/FacialAge/BNav_EC2/DepthDuration/v2_depth_duration_MTurk/v2_DepthDuration_HTML.html#41,41,1304,665,1366,768,9-3-2022,10-49-35,29,depth_duration_stimuli/001052_2014-06-08_18-24-54_260595134347_rgbf000130-resize_1/001052_2014-06-08_18-24-54_260595134347_rgbf000130-resize_1-target.png,125,4.1045,6,4411,125,meters,jsons/VE125_randls_23.json,818528,1045763,43,Man
29,623005,DepthScenes,duration_manipulation_targetAtFixation,jsons/VE125_randls_23.json,http://54.235.29.9/FacialAge/BNav_EC2/DepthDuration/v2_depth_duration_MTurk/v2_DepthDuration_HTML.html#41,41,1304,665,1366,768,9-3-2022,10-49-35,30,depth_duration_stimuli/000375_2014-06-08_11-17-29_260595134347_rgbf000133-resize_2/000375_2014-06-08_11-17-29_260595134347_rgbf000133-resize-original.jpg,125,4.718,0,5771,124,meters,jsons/VE125_randls_23.json,818528,1045763,43,Man
30,623005,DepthScenes,duration_manipulation_targetAtFixation,jsons/VE125_randls_23.json,http://54.235.29.9/FacialAge/BNav_EC2/DepthDuration/v2_depth_duration_MTurk/v2_DepthDuration_HTML.html#41,41,1304,665,1366,768,9-3-2022,10-49-35,31,depth_duration_stimuli/002043_2014-06-24_20-29-38_260595134347_rgbf000039-resize_4/002043_2014-06-24_20-29-38_260595134347_rgbf000039-resize_4-target.png,125,2.8435,3,4650,139,meters,jsons/VE125_randls_23.json,818528,1045763,43,Man
31,623005,DepthScenes,duration_manipulation_targetAtFixation,jsons/VE125_randls_23.json,http://54.235.29.9/FacialAge/BNav_EC2/DepthDuration/v2_depth_duration_MTurk/v2_DepthDuration_HTML.html#41,41,1304,665,1366,768,9-3-2022,10-49-35,32,depth_duration_stimuli/003048_2014-06-15_13-49-43_094959634447_rgbf000150-resize_1/003048_2014-06-15_13-49-43_094959634447_rgbf000150-resize_1-target.png,125,4.0035,0,4702,139,meters,jsons/VE125_randls_23.json,818528,1045763,43,Man
32,623005,DepthScenes,duration_manipulation_targetAtFixation,jsons/VE125_randls_23.json,http://54.235.29.9/FacialAge/BNav_EC2/DepthDuration/v2_depth_duration_MTurk/v2_DepthDuration_HTML.html#41,41,1304,665,1366,768,9-3-2022,10-49-35,33,depth_duration_stimuli/002763_2014-06-22_19-13-10_094959634447_rgbf000075-resize_4/002763_2014-06-22_19-13-10_094959634447_rgbf000075-resize_4-target.png,125,1.68375,3,4815,123,meters,jsons/VE125_randls_23.json,818528,1045763,43,Man
33,623005,DepthScenes,duration_manipulation_targetAtFixation,jsons/VE125_randls_23.json,http://54.235.29.9/FacialAge/BNav_EC2/DepthDuration/v2_depth_duration_MTurk/v2_DepthDuration_HTML.html#41,41,1304,665,1366,768,9-3-2022,10-49-35,34,depth_duration_stimuli/002209_2014-06-28_18-36-10_260595134347_rgbf000051-resize_1/002209_2014-06-28_18-36-10_260595134347_rgbf000051-resize_1-target.png,125,2.057,2,3585,124,meters,jsons/VE125_randls_23.json,818528,1045763,43,Man
34,623005,DepthScenes,duration_manipulation_targetAtFixation,jsons/VE125_randls_23.json,http://54.235.29.9/FacialAge/BNav_EC2/DepthDuration/v2_depth_duration_MTurk/v2_DepthDuration_HTML.html#41,41,1304,665,1366,768,9-3-2022,10-49-35,35,depth_duration_stimuli/000522_2014-06-08_13-35-06_260595134347_rgbf000244-resize_1/000522_2014-06-08_13-35-06_260595134347_rgbf000244-resize_1-target.png,125,2.3715,3,4257,123,meters,jsons/VE125_randls_23.json,818528,1045763,43,Man
35,623005,DepthScenes,duration_manipulation_targetAtFixation,jsons/VE125_randls_23.json,http://54.235.29.9/FacialAge/BNav_EC2/DepthDuration/v2_depth_duration_MTurk/v2_DepthDuration_HTML.html#41,41,1304,665,1366,768,9-3-2022,10-49-35,36,depth_duration_stimuli/002949_2014-06-26_15-57-42_094959634447_rgbf000079-resize_1/002949_2014-06-26_15-57-42_094959634447_rgbf000079-resize_1-target.png,125,1.8915,2,3241,139,meters,jsons/VE125_randls_23.json,818528,1045763,43,Man
36,623005,DepthScenes,duration_manipulation_targetAtFixation,jsons/VE125_randls_23.json,http://54.235.29.9/FacialAge/BNav_EC2/DepthDuration/v2_depth_duration_MTurk/v2_DepthDuration_HTML.html#41,41,1304,665,1366,768,9-3-2022,10-49-35,37,depth_duration_stimuli/000917_2014-06-09_22-45-29_260595134347_rgbf000149-resize_3/000917_2014-06-09_22-45-29_260595134347_rgbf000149-resize_3-target.png,125,4.1865,3,4119,124,meters,jsons/VE125_randls_23.json,818528,1045763,43,Man
37,623005,DepthScenes,duration_manipulation_targetAtFixation,jsons/VE125_randls_23.json,http://54.235.29.9/FacialAge/BNav_EC2/DepthDuration/v2_depth_duration_MTurk/v2_DepthDuration_HTML.html#41,41,1304,665,1366,768,9-3-2022,10-49-35,38,depth_duration_stimuli/002323_2014-06-28_20-01-54_260595134347_rgbf000051-resize_4/002323_2014-06-28_20-01-54_260595134347_rgbf000051-resize_4-target.png,125,3.7310000000000003,4,4424,140,meters,jsons/VE125_randls_23.json,818528,1045763,43,Man
38,623005,DepthScenes,duration_manipulation_targetAtFixation,jsons/VE125_randls_23.json,http://54.235.29.9/FacialAge/BNav_EC2/DepthDuration/v2_depth_duration_MTurk/v2_DepthDuration_HTML.html#41,41,1304,665,1366,768,9-3-2022,10-49-35,39,depth_duration_stimuli/002549_2014-06-24_13-41-39_094959634447_rgbf000022-resize_3/002549_2014-06-24_13-41-39_094959634447_rgbf000022-resize_3-target.png,125,1.476,3,4886,126,meters,jsons/VE125_randls_23.json,818528,1045763,43,Man
39,623005,DepthScenes,duration_manipulation_targetAtFixation,jsons/VE125_randls_23.json,http://54.235.29.9/FacialAge/BNav_EC2/DepthDuration/v2_depth_duration_MTurk/v2_DepthDuration_HTML.html#41,41,1304,665,1366,768,9-3-2022,10-49-35,40,depth_duration_stimuli/002750_2014-06-22_19-08-03_094959634447_rgbf000094-resize_4/002750_2014-06-22_19-08-03_094959634447_rgbf000094-resize_4-target.png,125,2.354,4,4006,124,meters,jsons/VE125_randls_23.json,818528,1045763,43,Man
40,623005,DepthScenes,duration_manipulation_targetAtFixation,jsons/VE125_randls_23.json,http://54.235.29.9/FacialAge/BNav_EC2/DepthDuration/v2_depth_duration_MTurk/v2_DepthDuration_HTML.html#41,41,1304,665,1366,768,9-3-2022,10-49-35,41,depth_duration_stimuli/002600_2014-06-24_14-27-04_094959634447_rgbf000074-resize_2/002600_2014-06-24_14-27-04_094959634447_rgbf000074-resize_2-target.png,125,2.7575,2,5314,125,meters,jsons/VE125_randls_23.json,818528,1045763,43,Man
41,623005,DepthScenes,duration_manipulation_targetAtFixation,jsons/VE125_randls_23.json,http://54.235.29.9/FacialAge/BNav_EC2/DepthDuration/v2_depth_duration_MTurk/v2_DepthDuration_HTML.html#41,41,1304,665,1366,768,9-3-2022,10-49-35,42,depth_duration_stimuli/003228_2014-05-14_13-42-35_094959634447_rgbf000101-resize_1/003228_2014-05-14_13-42-35_094959634447_rgbf000101-resize_1-target.png,125,1.9680000000000002,3,4086,129,meters,jsons/VE125_randls_23.json,818528,1045763,43,Man
42,623005,DepthScenes,duration_manipulation_targetAtFixation,jsons/VE125_randls_23.json,http://54.235.29.9/FacialAge/BNav_EC2/DepthDuration/v2_depth_duration_MTurk/v2_DepthDuration_HTML.html#41,41,1304,665,1366,768,9-3-2022,10-49-35,43,depth_duration_stimuli/001029_2014-06-08_13-17-57_260595134347_rgbf000065-resize_1/001029_2014-06-08_13-17-57_260595134347_rgbf000065-resize_1-target.png,125,3.0835,4,4714,124,meters,jsons/VE125_randls_23.json,818528,1045763,43,Man
43,623005,DepthScenes,duration_manipulation_targetAtFixation,jsons/VE125_randls_23.json,http://54.235.29.9/FacialAge/BNav_EC2/DepthDuration/v2_depth_duration_MTurk/v2_DepthDuration_HTML.html#41,41,1304,665,1366,768,9-3-2022,10-49-35,44,depth_duration_stimuli/000677_2014-06-08_23-10-32_260595134347_rgbf000158-resize_6/000677_2014-06-08_23-10-32_260595134347_rgbf000158-resize_6-target.png,125,3.556,3,3683,138,meters,jsons/VE125_randls_23.json,818528,1045763,43,Man
44,623005,DepthScenes,duration_manipulation_targetAtFixation,jsons/VE125_randls_23.json,http://54.235.29.9/FacialAge/BNav_EC2/DepthDuration/v2_depth_duration_MTurk/v2_DepthDuration_HTML.html#41,41,1304,665,1366,768,9-3-2022,10-49-35,45,depth_duration_stimuli/000787_2014-06-08_22-33-53_260595134347_rgbf000175-resize_1/000787_2014-06-08_22-33-53_260595134347_rgbf000175-resize-original.jpg,125,4.784,0,5932,139,meters,jsons/VE125_randls_23.json,818528,1045763,43,Man
45,623005,DepthScenes,duration_manipulation_targetAtFixation,jsons/VE125_randls_23.json,http://54.235.29.9/FacialAge/BNav_EC2/DepthDuration/v2_depth_duration_MTurk/v2_DepthDuration_HTML.html#41,41,1304,665,1366,768,9-3-2022,10-49-35,46,depth_duration_stimuli/001110_2014-06-15_17-25-28_260595134347_rgbf000150-resize_1/001110_2014-06-15_17-25-28_260595134347_rgbf000150-resize_1-target.png,125,1.7115,2,4766,119,meters,jsons/VE125_randls_23.json,818528,1045763,43,Man
46,623005,DepthScenes,duration_manipulation_targetAtFixation,jsons/VE125_randls_23.json,http://54.235.29.9/FacialAge/BNav_EC2/DepthDuration/v2_depth_duration_MTurk/v2_DepthDuration_HTML.html#41,41,1304,665,1366,768,9-3-2022,10-49-35,47,depth_duration_stimuli/000927_2014-06-09_16-32-30_260595134347_rgbf000123-resize_3/000927_2014-06-09_16-32-30_260595134347_rgbf000123-resize_3-target.png,125,2.6785,3,3367,125,meters,jsons/VE125_randls_23.json,818528,1045763,43,Man
47,623005,DepthScenes,duration_manipulation_targetAtFixation,jsons/VE125_randls_23.json,http://54.235.29.9/FacialAge/BNav_EC2/DepthDuration/v2_depth_duration_MTurk/v2_DepthDuration_HTML.html#41,41,1304,665,1366,768,9-3-2022,10-49-35,48,depth_duration_stimuli/002663_2014-06-13_15-50-26_094959634447_rgbf000075-resize_1/002663_2014-06-13_15-50-26_094959634447_rgbf000075-resize_1-target.png,125,4.7495,4,4269,124,meters,jsons/VE125_randls_23.json,818528,1045763,43,Man
48,623005,DepthScenes,duration_manipulation_targetAtFixation,jsons/VE125_randls_23.json,http://54.235.29.9/FacialAge/BNav_EC2/DepthDuration/v2_depth_duration_MTurk/v2_DepthDuration_HTML.html#41,41,1304,665,1366,768,9-3-2022,10-49-35,49,depth_duration_stimuli/000409_2014-06-04_19-23-33_260595134347_rgbf000067-resize_0/000409_2014-06-04_19-23-33_260595134347_rgbf000067-resize_0-target.png,125,3.7335,2,3417,125,meters,jsons/VE125_randls_23.json,818528,1045763,43,Man
49,623005,DepthScenes,duration_manipulation_targetAtFixation,jsons/VE125_randls_23.json,http://54.235.29.9/FacialAge/BNav_EC2/DepthDuration/v2_depth_duration_MTurk/v2_DepthDuration_HTML.html#41,41,1304,665,1366,768,9-3-2022,10-49-35,50,depth_duration_stimuli/001417_2014-06-19_16-25-36_260595134347_rgbf000115-resize_5/001417_2014-06-19_16-25-36_260595134347_rgbf000115-resize_5-target.png,125,4.6255,3,4214,125,meters,jsons/VE125_randls_23.json,818528,1045763,43,Man
50,623005,DepthScenes,duration_manipulation_targetAtFixation,jsons/VE125_randls_23.json,http://54.235.29.9/FacialAge/BNav_EC2/DepthDuration/v2_depth_duration_MTurk/v2_DepthDuration_HTML.html#41,41,1304,665,1366,768,9-3-2022,10-49-35,51,depth_duration_stimuli/003081_2014-06-15_15-19-16_094959634447_rgbf000150-resize_1/003081_2014-06-15_15-19-16_094959634447_rgbf000150-resize_1-target.png,125,3.9125,3,8283,123,meters,jsons/VE125_randls_23.json,818528,1045763,43,Man
51,623005,DepthScenes,duration_manipulation_targetAtFixation,jsons/VE125_randls_23.json,http://54.235.29.9/FacialAge/BNav_EC2/DepthDuration/v2_depth_duration_MTurk/v2_DepthDuration_HTML.html#41,41,1304,665,1366,768,9-3-2022,10-49-35,52,depth_duration_stimuli/002057_2014-06-24_21-00-13_260595134347_rgbf000120-resize_1/002057_2014-06-24_21-00-13_260595134347_rgbf000120-resize_1-target.png,125,2.967,5,4180,111,meters,jsons/VE125_randls_23.json,818528,1045763,43,Man
52,623005,DepthScenes,duration_manipulation_targetAtFixation,jsons/VE125_randls_23.json,http://54.235.29.9/FacialAge/BNav_EC2/DepthDuration/v2_depth_duration_MTurk/v2_DepthDuration_HTML.html#41,41,1304,665,1366,768,9-3-2022,10-49-35,53,depth_duration_stimuli/000709_2014-06-08_13-51-55_260595134347_rgbf000068-resize_3/000709_2014-06-08_13-51-55_260595134347_rgbf000068-resize_3-target.png,125,1.8030000000000002,5,3875,124,meters,jsons/VE125_randls_23.json,818528,1045763,43,Man
53,623005,DepthScenes,duration_manipulation_targetAtFixation,jsons/VE125_randls_23.json,http://54.235.29.9/FacialAge/BNav_EC2/DepthDuration/v2_depth_duration_MTurk/v2_DepthDuration_HTML.html#41,41,1304,665,1366,768,9-3-2022,10-49-35,54,depth_duration_stimuli/000788_2014-06-08_22-34-36_260595134347_rgbf000131-resize_1/000788_2014-06-08_22-34-36_260595134347_rgbf000131-resize_1-target.png,125,3.359,2,4059,139,meters,jsons/VE125_randls_23.json,818528,1045763,43,Man
54,623005,DepthScenes,duration_manipulation_targetAtFixation,jsons/VE125_randls_23.json,http://54.235.29.9/FacialAge/BNav_EC2/DepthDuration/v2_depth_duration_MTurk/v2_DepthDuration_HTML.html#41,41,1304,665,1366,768,9-3-2022,10-49-35,55,depth_duration_stimuli/001235_2014-06-17_16-37-36_260595134347_rgbf000084-resize_4/001235_2014-06-17_16-37-36_260595134347_rgbf000084-resize_4-target.png,125,3.6605,3,4733,125,meters,jsons/VE125_randls_23.json,818528,1045763,43,Man
55,623005,DepthScenes,duration_manipulation_targetAtFixation,jsons/VE125_randls_23.json,http://54.235.29.9/FacialAge/BNav_EC2/DepthDuration/v2_depth_duration_MTurk/v2_DepthDuration_HTML.html#41,41,1304,665,1366,768,9-3-2022,10-49-35,56,depth_duration_stimuli/000736_2014-06-08_18-24-15_260595134347_rgbf000206-resize_3/000736_2014-06-08_18-24-15_260595134347_rgbf000206-resize_3-target.png,125,3.515,2,4639,123,meters,jsons/VE125_randls_23.json,818528,1045763,43,Man
56,623005,DepthScenes,duration_manipulation_targetAtFixation,jsons/VE125_randls_23.json,http://54.235.29.9/FacialAge/BNav_EC2/DepthDuration/v2_depth_duration_MTurk/v2_DepthDuration_HTML.html#41,41,1304,665,1366,768,9-3-2022,10-49-35,57,depth_duration_stimuli/000137_2014-05-20_17-04-49_260595134347_rgbf000120-resize_1/000137_2014-05-20_17-04-49_260595134347_rgbf000120-resize_1-target.png,125,3.786,3,3728,126,meters,jsons/VE125_randls_23.json,818528,1045763,43,Man
57,623005,DepthScenes,duration_manipulation_targetAtFixation,jsons/VE125_randls_23.json,http://54.235.29.9/FacialAge/BNav_EC2/DepthDuration/v2_depth_duration_MTurk/v2_DepthDuration_HTML.html#41,41,1304,665,1366,768,9-3-2022,10-49-35,58,depth_duration_stimuli/000009_2014-05-26_14-32-05_260595134347_rgbf000034-resize_3/000009_2014-05-26_14-32-05_260595134347_rgbf000034-resize_3-target.png,125,3.8715,6,5870,124,meters,jsons/VE125_randls_23.json,818528,1045763,43,Man
58,623005,DepthScenes,duration_manipulation_targetAtFixation,jsons/VE125_randls_23.json,http://54.235.29.9/FacialAge/BNav_EC2/DepthDuration/v2_depth_duration_MTurk/v2_DepthDuration_HTML.html#41,41,1304,665,1366,768,9-3-2022,10-49-35,59,depth_duration_stimuli/001828_2014-06-26_21-40-03_260595134347_rgbf000024-resize_0/001828_2014-06-26_21-40-03_260595134347_rgbf000024-resize_0-target.png,125,4.8260000000000005,2,4294,123,meters,jsons/VE125_randls_23.json,818528,1045763,43,Man
59,623005,DepthScenes,duration_manipulation_targetAtFixation,jsons/VE125_randls_23.json,http://54.235.29.9/FacialAge/BNav_EC2/DepthDuration/v2_depth_duration_MTurk/v2_DepthDuration_HTML.html#41,41,1304,665,1366,768,9-3-2022,10-49-35,60,depth_duration_stimuli/002630_2014-06-24_14-47-50_094959634447_rgbf000055-resize_1/002630_2014-06-24_14-47-50_094959634447_rgbf000055-resize_1-target.png,125,3.0095,4,5995,91,meters,jsons/VE125_randls_23.json,818528,1045763,43,Man
60,623005,DepthScenes,duration_manipulation_targetAtFixation,jsons/VE125_randls_23.json,http://54.235.29.9/FacialAge/BNav_EC2/DepthDuration/v2_depth_duration_MTurk/v2_DepthDuration_HTML.html#41,41,1304,665,1366,768,9-3-2022,10-49-35,61,depth_duration_stimuli/002758_2014-06-22_19-11-20_094959634447_rgbf000128-resize_1/002758_2014-06-22_19-11-20_094959634447_rgbf000128-resize_1-target.png,125,2.555,2,4077,125,meters,jsons/VE125_randls_23.json,818528,1045763,43,Man
61,623005,DepthScenes,duration_manipulation_targetAtFixation,jsons/VE125_randls_23.json,http://54.235.29.9/FacialAge/BNav_EC2/DepthDuration/v2_depth_duration_MTurk/v2_DepthDuration_HTML.html#41,41,1304,665,1366,768,9-3-2022,10-49-35,62,depth_duration_stimuli/001167_2014-06-17_15-38-07_260595134347_rgbf000108-resize_0/001167_2014-06-17_15-38-07_260595134347_rgbf000108-resize_0-target.png,125,1.8505,2,4444,124,meters,jsons/VE125_randls_23.json,818528,1045763,43,Man
62,623005,DepthScenes,duration_manipulation_targetAtFixation,jsons/VE125_randls_23.json,http://54.235.29.9/FacialAge/BNav_EC2/DepthDuration/v2_depth_duration_MTurk/v2_DepthDuration_HTML.html#41,41,1304,665,1366,768,9-3-2022,10-49-35,63,depth_duration_stimuli/003587_2014-05-23_16-48-02_094959634447_rgbf002384-resize_2/003587_2014-05-23_16-48-02_094959634447_rgbf002384-resize_2-target.png,125,1.357,2,3239,140,meters,jsons/VE125_randls_23.json,818528,1045763,43,Man
63,623005,DepthScenes,duration_manipulation_targetAtFixation,jsons/VE125_randls_23.json,http://54.235.29.9/FacialAge/BNav_EC2/DepthDuration/v2_depth_duration_MTurk/v2_DepthDuration_HTML.html#41,41,1304,665,1366,768,9-3-2022,10-49-35,64,depth_duration_stimuli/000506_2014-06-08_23-21-00_260595134347_rgbf000070-resize_7/000506_2014-06-08_23-21-00_260595134347_rgbf000070-resize_7-target.png,125,4.0585,4,4296,134,meters,jsons/VE125_randls_23.json,818528,1045763,43,Man
64,623005,DepthScenes,duration_manipulation_targetAtFixation,jsons/VE125_randls_23.json,http://54.235.29.9/FacialAge/BNav_EC2/DepthDuration/v2_depth_duration_MTurk/v2_DepthDuration_HTML.html#41,41,1304,665,1366,768,9-3-2022,10-49-35,65,depth_duration_stimuli/003079_2014-06-15_15-18-20_094959634447_rgbf000152-resize_8/003079_2014-06-15_15-18-20_094959634447_rgbf000152-resize_8-target.png,125,2.8775,5,3694,123,meters,jsons/VE125_randls_23.json,818528,1045763,43,Man
65,623005,DepthScenes,duration_manipulation_targetAtFixation,jsons/VE125_randls_23.json,http://54.235.29.9/FacialAge/BNav_EC2/DepthDuration/v2_depth_duration_MTurk/v2_DepthDuration_HTML.html#41,41,1304,665,1366,768,9-3-2022,10-49-35,66,depth_duration_stimuli/001222_2014-06-17_16-24-06_260595134347_rgbf000073-resize_0/001222_2014-06-17_16-24-06_260595134347_rgbf000073-resize-original.jpg,125,1.4385,0,4799,146,meters,jsons/VE125_randls_23.json,818528,1045763,43,Man
66,623005,DepthScenes,duration_manipulation_targetAtFixation,jsons/VE125_randls_23.json,http://54.235.29.9/FacialAge/BNav_EC2/DepthDuration/v2_depth_duration_MTurk/v2_DepthDuration_HTML.html#41,41,1304,665,1366,768,9-3-2022,10-49-35,67,depth_duration_stimuli/003292_2014-05-14_21-53-49_094959634447_rgbf000100-resize_2/003292_2014-05-14_21-53-49_094959634447_rgbf000100-resize_2-target.png,125,3.4815,3,4721,123,meters,jsons/VE125_randls_23.json,818528,1045763,43,Man
67,623005,DepthScenes,duration_manipulation_targetAtFixation,jsons/VE125_randls_23.json,http://54.235.29.9/FacialAge/BNav_EC2/DepthDuration/v2_depth_duration_MTurk/v2_DepthDuration_HTML.html#41,41,1304,665,1366,768,9-3-2022,10-49-35,68,depth_duration_stimuli/002639_2014-06-24_14-51-37_094959634447_rgbf000074-resize_4/002639_2014-06-24_14-51-37_094959634447_rgbf000074-resize_4-target.png,125,4.0375,4,4127,141,meters,jsons/VE125_randls_23.json,818528,1045763,43,Man
68,623005,DepthScenes,duration_manipulation_targetAtFixation,jsons/VE125_randls_23.json,http://54.235.29.9/FacialAge/BNav_EC2/DepthDuration/v2_depth_duration_MTurk/v2_DepthDuration_HTML.html#41,41,1304,665,1366,768,9-3-2022,10-49-35,69,depth_duration_stimuli/000470_2014-06-09_19-42-40_260595134347_rgbf000094-resize_1/000470_2014-06-09_19-42-40_260595134347_rgbf000094-resize_1-target.png,125,1.831,2,3857,124,meters,jsons/VE125_randls_23.json,818528,1045763,43,Man
69,623005,DepthScenes,duration_manipulation_targetAtFixation,jsons/VE125_randls_23.json,http://54.235.29.9/FacialAge/BNav_EC2/DepthDuration/v2_depth_duration_MTurk/v2_DepthDuration_HTML.html#41,41,1304,665,1366,768,9-3-2022,10-49-35,70,depth_duration_stimuli/000109_2014-05-14_23-41-52_260595134347_rgbf000035-resize_9/000109_2014-05-14_23-41-52_260595134347_rgbf000035-resize_9-target.png,125,1.3545,0,3927,124,meters,jsons/VE125_randls_23.json,818528,1045763,43,Man
70,623005,DepthScenes,duration_manipulation_targetAtFixation,jsons/VE125_randls_23.json,http://54.235.29.9/FacialAge/BNav_EC2/DepthDuration/v2_depth_duration_MTurk/v2_DepthDuration_HTML.html#41,41,1304,665,1366,768,9-3-2022,10-49-35,71,depth_duration_stimuli/002964_2014-06-08_17-46-11_094959634447_rgbf000091-resize_4/002964_2014-06-08_17-46-11_094959634447_rgbf000091-resize_4-target.png,125,1.6909999999999998,3,5269,130,meters,jsons/VE125_randls_23.json,818528,1045763,43,Man
71,623005,DepthScenes,duration_manipulation_targetAtFixation,jsons/VE125_randls_23.json,http://54.235.29.9/FacialAge/BNav_EC2/DepthDuration/v2_depth_duration_MTurk/v2_DepthDuration_HTML.html#41,41,1304,665,1366,768,9-3-2022,10-49-35,72,depth_duration_stimuli/002136_2014-06-25_21-18-03_260595134347_rgbf000109-resize_3/002136_2014-06-25_21-18-03_260595134347_rgbf000109-resize_3-target.png,125,1.9569999999999999,3,3212,139,meters,jsons/VE125_randls_23.json,818528,1045763,43,Man
72,623005,DepthScenes,duration_manipulation_targetAtFixation,jsons/VE125_randls_23.json,http://54.235.29.9/FacialAge/BNav_EC2/DepthDuration/v2_depth_duration_MTurk/v2_DepthDuration_HTML.html#41,41,1304,665,1366,768,9-3-2022,10-49-35,73,depth_duration_stimuli/000739_2014-06-08_18-45-58_260595134347_rgbf000068-resize_1/000739_2014-06-08_18-45-58_260595134347_rgbf000068-resize_1-target.png,125,3.534,4,4570,118,meters,jsons/VE125_randls_23.json,818528,1045763,43,Man
73,623005,DepthScenes,duration_manipulation_targetAtFixation,jsons/VE125_randls_23.json,http://54.235.29.9/FacialAge/BNav_EC2/DepthDuration/v2_depth_duration_MTurk/v2_DepthDuration_HTML.html#41,41,1304,665,1366,768,9-3-2022,10-49-35,74,depth_duration_stimuli/000734_2014-06-08_17-39-11_260595134347_rgbf000128-resize_2/000734_2014-06-08_17-39-11_260595134347_rgbf000128-resize_2-target.png,125,4.098,4,3296,123,meters,jsons/VE125_randls_23.json,818528,1045763,43,Man
74,623005,DepthScenes,duration_manipulation_targetAtFixation,jsons/VE125_randls_23.json,http://54.235.29.9/FacialAge/BNav_EC2/DepthDuration/v2_depth_duration_MTurk/v2_DepthDuration_HTML.html#41,41,1304,665,1366,768,9-3-2022,10-49-35,75,depth_duration_stimuli/000906_2014-06-08_13-35-43_260595134347_rgbf000155-resize_1/000906_2014-06-08_13-35-43_260595134347_rgbf000155-resize_1-target.png,125,2.8489999999999998,4,4887,123,meters,jsons/VE125_randls_23.json,818528,1045763,43,Man
75,623005,DepthScenes,duration_manipulation_targetAtFixation,jsons/VE125_randls_23.json,http://54.235.29.9/FacialAge/BNav_EC2/DepthDuration/v2_depth_duration_MTurk/v2_DepthDuration_HTML.html#41,41,1304,665,1366,768,9-3-2022,10-49-35,76,depth_duration_stimuli/002805_2014-06-22_19-54-03_094959634447_rgbf000079-resize_1/002805_2014-06-22_19-54-03_094959634447_rgbf000079-resize_1-target.png,125,3.1439999999999997,4,3244,123,meters,jsons/VE125_randls_23.json,818528,1045763,43,Man
76,623005,DepthScenes,duration_manipulation_targetAtFixation,jsons/VE125_randls_23.json,http://54.235.29.9/FacialAge/BNav_EC2/DepthDuration/v2_depth_duration_MTurk/v2_DepthDuration_HTML.html#41,41,1304,665,1366,768,9-3-2022,10-49-35,77,depth_duration_stimuli/001244_2014-06-17_16-47-45_260595134347_rgbf000030-resize_4/001244_2014-06-17_16-47-45_260595134347_rgbf000030-resize_4-target.png,125,2.0425,4,4619,123,meters,jsons/VE125_randls_23.json,818528,1045763,43,Man
77,623005,DepthScenes,duration_manipulation_targetAtFixation,jsons/VE125_randls_23.json,http://54.235.29.9/FacialAge/BNav_EC2/DepthDuration/v2_depth_duration_MTurk/v2_DepthDuration_HTML.html#41,41,1304,665,1366,768,9-3-2022,10-49-35,78,depth_duration_stimuli/003495_2014-05-21_16-01-51_094959634447_rgbf000100-resize_3/003495_2014-05-21_16-01-51_094959634447_rgbf000100-resize_3-target.png,125,1.6255,3,3842,124,meters,jsons/VE125_randls_23.json,818528,1045763,43,Man
78,623005,DepthScenes,duration_manipulation_targetAtFixation,jsons/VE125_randls_23.json,http://54.235.29.9/FacialAge/BNav_EC2/DepthDuration/v2_depth_duration_MTurk/v2_DepthDuration_HTML.html#41,41,1304,665,1366,768,9-3-2022,10-49-35,79,depth_duration_stimuli/001806_2014-06-26_20-50-20_260595134347_rgbf000091-resize_1/001806_2014-06-26_20-50-20_260595134347_rgbf000091-resize_1-target.png,125,2.7305,3,4534,126,meters,jsons/VE125_randls_23.json,818528,1045763,43,Man
79,623005,DepthScenes,duration_manipulation_targetAtFixation,jsons/VE125_randls_23.json,http://54.235.29.9/FacialAge/BNav_EC2/DepthDuration/v2_depth_duration_MTurk/v2_DepthDuration_HTML.html#41,41,1304,665,1366,768,9-3-2022,10-49-35,80,depth_duration_stimuli/001617_2014-06-20_11-35-32_260595134347_rgbf000066-resize_1/001617_2014-06-20_11-35-32_260595134347_rgbf000066-resize_1-target.png,125,3.7910000000000004,4,3156,139,meters,jsons/VE125_randls_23.json,818528,1045763,43,Man
80,623005,DepthScenes,duration_manipulation_targetAtFixation,jsons/VE125_randls_23.json,http://54.235.29.9/FacialAge/BNav_EC2/DepthDuration/v2_depth_duration_MTurk/v2_DepthDuration_HTML.html#41,41,1304,665,1366,768,9-3-2022,10-49-35,81,depth_duration_stimuli/000878_2014-06-08_22-52-45_260595134347_rgbf000045-resize_2/000878_2014-06-08_22-52-45_260595134347_rgbf000045-resize_2-target.png,125,2.092,4,4774,124,meters,jsons/VE125_randls_23.json,818528,1045763,43,Man
81,623005,DepthScenes,duration_manipulation_targetAtFixation,jsons/VE125_randls_23.json,http://54.235.29.9/FacialAge/BNav_EC2/DepthDuration/v2_depth_duration_MTurk/v2_DepthDuration_HTML.html#41,41,1304,665,1366,768,9-3-2022,10-49-35,82,depth_duration_stimuli/002953_2014-06-08_17-32-18_094959634447_rgbf000059-resize_5/002953_2014-06-08_17-32-18_094959634447_rgbf000059-resize_5-target.png,125,1.551,4,3677,102,meters,jsons/VE125_randls_23.json,818528,1045763,43,Man
82,623005,DepthScenes,duration_manipulation_targetAtFixation,jsons/VE125_randls_23.json,http://54.235.29.9/FacialAge/BNav_EC2/DepthDuration/v2_depth_duration_MTurk/v2_DepthDuration_HTML.html#41,41,1304,665,1366,768,9-3-2022,10-49-35,83,depth_duration_stimuli/000773_2014-06-08_22-24-54_260595134347_rgbf000093-resize_1/000773_2014-06-08_22-24-54_260595134347_rgbf000093-resize_1-target.png,125,4.973,3,4159,113,meters,jsons/VE125_randls_23.json,818528,1045763,43,Man
83,623005,DepthScenes,duration_manipulation_targetAtFixation,jsons/VE125_randls_23.json,http://54.235.29.9/FacialAge/BNav_EC2/DepthDuration/v2_depth_duration_MTurk/v2_DepthDuration_HTML.html#41,41,1304,665,1366,768,9-3-2022,10-49-35,84,depth_duration_stimuli/002414_2014-06-28_20-24-58_260595134347_rgbf000067-resize_4/002414_2014-06-28_20-24-58_260595134347_rgbf000067-resize_4-target.png,125,4.363,2,4459,117,meters,jsons/VE125_randls_23.json,818528,1045763,43,Man
84,623005,DepthScenes,duration_manipulation_targetAtFixation,jsons/VE125_randls_23.json,http://54.235.29.9/FacialAge/BNav_EC2/DepthDuration/v2_depth_duration_MTurk/v2_DepthDuration_HTML.html#41,41,1304,665,1366,768,9-3-2022,10-49-35,85,depth_duration_stimuli/002039_2014-06-24_20-22-38_260595134347_rgbf000084-resize_1/002039_2014-06-24_20-22-38_260595134347_rgbf000084-resize_1-target.png,125,4.408,3,4097,138,meters,jsons/VE125_randls_23.json,818528,1045763,43,Man
85,623005,DepthScenes,duration_manipulation_targetAtFixation,jsons/VE125_randls_23.json,http://54.235.29.9/FacialAge/BNav_EC2/DepthDuration/v2_depth_duration_MTurk/v2_DepthDuration_HTML.html#41,41,1304,665,1366,768,9-3-2022,10-49-35,86,depth_duration_stimuli/002103_2014-06-25_20-00-40_260595134347_rgbf000049-resize_0/002103_2014-06-25_20-00-40_260595134347_rgbf000049-resize_0-target.png,125,4.105,4,3527,123,meters,jsons/VE125_randls_23.json,818528,1045763,43,Man
86,623005,DepthScenes,duration_manipulation_targetAtFixation,jsons/VE125_randls_23.json,http://54.235.29.9/FacialAge/BNav_EC2/DepthDuration/v2_depth_duration_MTurk/v2_DepthDuration_HTML.html#41,41,1304,665,1366,768,9-3-2022,10-49-35,87,depth_duration_stimuli/002509_2014-06-24_13-19-22_094959634447_rgbf000077-resize_0/002509_2014-06-24_13-19-22_094959634447_rgbf000077-resize_0-target.png,125,1.3065,3,4485,124,meters,jsons/VE125_randls_23.json,818528,1045763,43,Man
87,623005,DepthScenes,duration_manipulation_targetAtFixation,jsons/VE125_randls_23.json,http://54.235.29.9/FacialAge/BNav_EC2/DepthDuration/v2_depth_duration_MTurk/v2_DepthDuration_HTML.html#41,41,1304,665,1366,768,9-3-2022,10-49-35,88,depth_duration_stimuli/003338_2014-05-20_11-01-23_094959634447_rgbf000051-resize_6/003338_2014-05-20_11-01-23_094959634447_rgbf000051-resize_6-target.png,125,1.693,3,2955,139,meters,jsons/VE125_randls_23.json,818528,1045763,43,Man
88,623005,DepthScenes,duration_manipulation_targetAtFixation,jsons/VE125_randls_23.json,http://54.235.29.9/FacialAge/BNav_EC2/DepthDuration/v2_depth_duration_MTurk/v2_DepthDuration_HTML.html#41,41,1304,665,1366,768,9-3-2022,10-49-35,89,depth_duration_stimuli/002725_2014-06-22_11-47-51_094959634447_rgbf000070-resize_1/002725_2014-06-22_11-47-51_094959634447_rgbf000070-resize_1-target.png,125,2.195,4,4476,138,meters,jsons/VE125_randls_23.json,818528,1045763,43,Man
89,623005,DepthScenes,duration_manipulation_targetAtFixation,jsons/VE125_randls_23.json,http://54.235.29.9/FacialAge/BNav_EC2/DepthDuration/v2_depth_duration_MTurk/v2_DepthDuration_HTML.html#41,41,1304,665,1366,768,9-3-2022,10-49-35,90,depth_duration_stimuli/002344_2014-06-28_20-06-29_260595134347_rgbf000030-resize_1/002344_2014-06-28_20-06-29_260595134347_rgbf000030-resize_1-target.png,125,1.5795,4,3377,124,meters,jsons/VE125_randls_23.json,818528,1045763,43,Man
90,623005,DepthScenes,duration_manipulation_targetAtFixation,jsons/VE125_randls_23.json,http://54.235.29.9/FacialAge/BNav_EC2/DepthDuration/v2_depth_duration_MTurk/v2_DepthDuration_HTML.html#41,41,1304,665,1366,768,9-3-2022,10-49-35,91,depth_duration_stimuli/002445_2014-06-28_20-32-16_260595134347_rgbf000029-resize_4/002445_2014-06-28_20-32-16_260595134347_rgbf000029-resize_4-target.png,125,2.5315,3,5694,123,meters,jsons/VE125_randls_23.json,818528,1045763,43,Man
91,623005,DepthScenes,duration_manipulation_targetAtFixation,jsons/VE125_randls_23.json,http://54.235.29.9/FacialAge/BNav_EC2/DepthDuration/v2_depth_duration_MTurk/v2_DepthDuration_HTML.html#41,41,1304,665,1366,768,9-3-2022,10-49-35,92,depth_duration_stimuli/000780_2014-06-08_22-28-29_260595134347_rgbf000126-resize_1/000780_2014-06-08_22-28-29_260595134347_rgbf000126-resize_1-target.png,125,3.3825,5,8004,124,meters,jsons/VE125_randls_23.json,818528,1045763,43,Man
92,623005,DepthScenes,duration_manipulation_targetAtFixation,jsons/VE125_randls_23.json,http://54.235.29.9/FacialAge/BNav_EC2/DepthDuration/v2_depth_duration_MTurk/v2_DepthDuration_HTML.html#41,41,1304,665,1366,768,9-3-2022,10-49-35,93,depth_duration_stimuli/001158_2014-06-17_15-32-16_260595134347_rgbf000138-resize_2/001158_2014-06-17_15-32-16_260595134347_rgbf000138-resize_2-target.png,125,4.5315,4,4121,124,meters,jsons/VE125_randls_23.json,818528,1045763,43,Man
93,623005,DepthScenes,duration_manipulation_targetAtFixation,jsons/VE125_randls_23.json,http://54.235.29.9/FacialAge/BNav_EC2/DepthDuration/v2_depth_duration_MTurk/v2_DepthDuration_HTML.html#41,41,1304,665,1366,768,9-3-2022,10-49-35,94,depth_duration_stimuli/000556_2014-06-09_22-42-56_260595134347_rgbf000214-resize_1/000556_2014-06-09_22-42-56_260595134347_rgbf000214-resize_1-target.png,125,4.8415,3,3246,127,meters,jsons/VE125_randls_23.json,818528,1045763,43,Man
94,623005,DepthScenes,duration_manipulation_targetAtFixation,jsons/VE125_randls_23.json,http://54.235.29.9/FacialAge/BNav_EC2/DepthDuration/v2_depth_duration_MTurk/v2_DepthDuration_HTML.html#41,41,1304,665,1366,768,9-3-2022,10-49-35,95,depth_duration_stimuli/002375_2014-06-28_20-13-44_260595134347_rgbf000032-resize_1/002375_2014-06-28_20-13-44_260595134347_rgbf000032-resize_1-target.png,125,4.0175,2,5361,128,meters,jsons/VE125_randls_23.json,818528,1045763,43,Man
95,623005,DepthScenes,duration_manipulation_targetAtFixation,jsons/VE125_randls_23.json,http://54.235.29.9/FacialAge/BNav_EC2/DepthDuration/v2_depth_duration_MTurk/v2_DepthDuration_HTML.html#41,41,1304,665,1366,768,9-3-2022,10-49-35,96,depth_duration_stimuli/002657_2014-06-13_15-29-54_094959634447_rgbf000150-resize_1/002657_2014-06-13_15-29-54_094959634447_rgbf000150-resize_1-target.png,125,4.919,2,3535,124,meters,jsons/VE125_randls_23.json,818528,1045763,43,Man
96,623005,DepthScenes,duration_manipulation_targetAtFixation,jsons/VE125_randls_23.json,http://54.235.29.9/FacialAge/BNav_EC2/DepthDuration/v2_depth_duration_MTurk/v2_DepthDuration_HTML.html#41,41,1304,665,1366,768,9-3-2022,10-49-35,97,depth_duration_stimuli/000493_2014-06-09_21-01-18_260595134347_rgbf000196-resize_3/000493_2014-06-09_21-01-18_260595134347_rgbf000196-resize_3-target.png,125,3.44,3,4470,123,meters,jsons/VE125_randls_23.json,818528,1045763,43,Man
97,623005,DepthScenes,duration_manipulation_targetAtFixation,jsons/VE125_randls_23.json,http://54.235.29.9/FacialAge/BNav_EC2/DepthDuration/v2_depth_duration_MTurk/v2_DepthDuration_HTML.html#41,41,1304,665,1366,768,9-3-2022,10-49-35,98,depth_duration_stimuli/000191_2014-05-12_17-07-38_260595134347_rgbf000199-resize_0/000191_2014-05-12_17-07-38_260595134347_rgbf000199-resize_0-target.png,125,3.7995,6,3718,124,meters,jsons/VE125_randls_23.json,818528,1045763,43,Man
98,623005,DepthScenes,duration_manipulation_targetAtFixation,jsons/VE125_randls_23.json,http://54.235.29.9/FacialAge/BNav_EC2/DepthDuration/v2_depth_duration_MTurk/v2_DepthDuration_HTML.html#41,41,1304,665,1366,768,9-3-2022,10-49-35,99,depth_duration_stimuli/001540_2014-06-20_17-01-05_260595134347_rgbf000086-resize_2/001540_2014-06-20_17-01-05_260595134347_rgbf000086-resize-original.jpg,125,1.459,0,4877,124,meters,jsons/VE125_randls_23.json,818528,1045763,43,Man
99,623005,DepthScenes,duration_manipulation_targetAtFixation,jsons/VE125_randls_23.json,http://54.235.29.9/FacialAge/BNav_EC2/DepthDuration/v2_depth_duration_MTurk/v2_DepthDuration_HTML.html#41,41,1304,665,1366,768,9-3-2022,10-49-35,100,depth_duration_stimuli/001175_2014-06-17_15-45-55_260595134347_rgbf000129-resize_4/001175_2014-06-17_15-45-55_260595134347_rgbf000129-resize_4-target.png,125,4.255,4,6063,138,meters,jsons/VE125_randls_23.json,818528,1045763,43,Man
100,623005,DepthScenes,duration_manipulation_targetAtFixation,jsons/VE125_randls_23.json,http://54.235.29.9/FacialAge/BNav_EC2/DepthDuration/v2_depth_duration_MTurk/v2_DepthDuration_HTML.html#41,41,1304,665,1366,768,9-3-2022,10-49-35,101,depth_duration_stimuli/003490_2014-05-21_15-50-11_094959634447_rgbf000101-resize_3/003490_2014-05-21_15-50-11_094959634447_rgbf000101-resize_3-target.png,125,3.6445,3,3314,125,meters,jsons/VE125_randls_23.json,818528,1045763,43,Man
101,623005,DepthScenes,duration_manipulation_targetAtFixation,jsons/VE125_randls_23.json,http://54.235.29.9/FacialAge/BNav_EC2/DepthDuration/v2_depth_duration_MTurk/v2_DepthDuration_HTML.html#41,41,1304,665,1366,768,9-3-2022,10-49-35,102,depth_duration_stimuli/000469_2014-06-09_19-42-10_260595134347_rgbf000081-resize_1/000469_2014-06-09_19-42-10_260595134347_rgbf000081-resize_1-target.png,125,1.652,2,4569,136,meters,jsons/VE125_randls_23.json,818528,1045763,43,Man
102,623005,DepthScenes,duration_manipulation_targetAtFixation,jsons/VE125_randls_23.json,http://54.235.29.9/FacialAge/BNav_EC2/DepthDuration/v2_depth_duration_MTurk/v2_DepthDuration_HTML.html#41,41,1304,665,1366,768,9-3-2022,10-49-35,103,depth_duration_stimuli/000483_2014-06-09_20-41-45_260595134347_rgbf000116-resize_4/000483_2014-06-09_20-41-45_260595134347_rgbf000116-resize_4-target.png,125,1.337,2,3048,128,meters,jsons/VE125_randls_23.json,818528,1045763,43,Man
103,623005,DepthScenes,duration_manipulation_targetAtFixation,jsons/VE125_randls_23.json,http://54.235.29.9/FacialAge/BNav_EC2/DepthDuration/v2_depth_duration_MTurk/v2_DepthDuration_HTML.html#41,41,1304,665,1366,768,9-3-2022,10-49-35,104,depth_duration_stimuli/000447_2014-06-08_16-15-46_260595134347_rgbf000130-resize_1/000447_2014-06-08_16-15-46_260595134347_rgbf000130-resize_1-target.png,125,4.479,3,12956,123,meters,jsons/VE125_randls_23.json,818528,1045763,43,Man
104,623005,DepthScenes,duration_manipulation_targetAtFixation,jsons/VE125_randls_23.json,http://54.235.29.9/FacialAge/BNav_EC2/DepthDuration/v2_depth_duration_MTurk/v2_DepthDuration_HTML.html#41,41,1304,665,1366,768,9-3-2022,10-49-35,105,depth_duration_stimuli/001447_2014-06-19_17-00-32_260595134347_rgbf000082-resize_5/001447_2014-06-19_17-00-32_260595134347_rgbf000082-resize_5-target.png,125,4.13775,4,3452,112,meters,jsons/VE125_randls_23.json,818528,1045763,43,Man
105,623005,DepthScenes,duration_manipulation_targetAtFixation,jsons/VE125_randls_23.json,http://54.235.29.9/FacialAge/BNav_EC2/DepthDuration/v2_depth_duration_MTurk/v2_DepthDuration_HTML.html#41,41,1304,665,1366,768,9-3-2022,10-49-35,106,depth_duration_stimuli/000929_2014-06-09_16-33-19_260595134347_rgbf000139-resize_0/000929_2014-06-09_16-33-19_260595134347_rgbf000139-resize_0-target.png,125,2.8680000000000003,2,4449,137,meters,jsons/VE125_randls_23.json,818528,1045763,43,Man
106,623005,DepthScenes,duration_manipulation_targetAtFixation,jsons/VE125_randls_23.json,http://54.235.29.9/FacialAge/BNav_EC2/DepthDuration/v2_depth_duration_MTurk/v2_DepthDuration_HTML.html#41,41,1304,665,1366,768,9-3-2022,10-49-35,107,depth_duration_stimuli/000457_2014-06-08_16-52-43_260595134347_rgbf000199-resize_1/000457_2014-06-08_16-52-43_260595134347_rgbf000199-resize_1-target.png,125,3.6489999999999996,3,4913,124,meters,jsons/VE125_randls_23.json,818528,1045763,43,Man
107,623005,DepthScenes,duration_manipulation_targetAtFixation,jsons/VE125_randls_23.json,http://54.235.29.9/FacialAge/BNav_EC2/DepthDuration/v2_depth_duration_MTurk/v2_DepthDuration_HTML.html#41,41,1304,665,1366,768,9-3-2022,10-49-35,108,depth_duration_stimuli/001810_2014-06-26_20-51-35_260595134347_rgbf000040-resize_3/001810_2014-06-26_20-51-35_260595134347_rgbf000040-resize_3-target.png,125,2.2525,4,4465,125,meters,jsons/VE125_randls_23.json,818528,1045763,43,Man
108,623005,DepthScenes,duration_manipulation_targetAtFixation,jsons/VE125_randls_23.json,http://54.235.29.9/FacialAge/BNav_EC2/DepthDuration/v2_depth_duration_MTurk/v2_DepthDuration_HTML.html#41,41,1304,665,1366,768,9-3-2022,10-49-35,109,depth_duration_stimuli/003010_2014-06-15_12-54-35_094959634447_rgbf000112-resize_0/003010_2014-06-15_12-54-35_094959634447_rgbf000112-resize_0-target.png,125,3.1185,3,3783,126,meters,jsons/VE125_randls_23.json,818528,1045763,43,Man
109,623005,DepthScenes,duration_manipulation_targetAtFixation,jsons/VE125_randls_23.json,http://54.235.29.9/FacialAge/BNav_EC2/DepthDuration/v2_depth_duration_MTurk/v2_DepthDuration_HTML.html#41,41,1304,665,1366,768,9-3-2022,10-49-35,110,depth_duration_stimuli/002784_2014-06-22_19-26-30_094959634447_rgbf000083-resize_3/002784_2014-06-22_19-26-30_094959634447_rgbf000083-resize_3-target.png,125,1.8046666666667,1,4572,124,meters,jsons/VE125_randls_23.json,818528,1045763,43,Man
110,623005,DepthScenes,duration_manipulation_targetAtFixation,jsons/VE125_randls_23.json,http://54.235.29.9/FacialAge/BNav_EC2/DepthDuration/v2_depth_duration_MTurk/v2_DepthDuration_HTML.html#41,41,1304,665,1366,768,9-3-2022,10-49-35,111,depth_duration_stimuli/001100_2014-06-15_17-46-26_260595134347_rgbf000225-resize_2/001100_2014-06-15_17-46-26_260595134347_rgbf000225-resize_2-target.png,125,2.24,0,4239,112,meters,jsons/VE125_randls_23.json,818528,1045763,43,Man
111,623005,DepthScenes,duration_manipulation_targetAtFixation,jsons/VE125_randls_23.json,http://54.235.29.9/FacialAge/BNav_EC2/DepthDuration/v2_depth_duration_MTurk/v2_DepthDuration_HTML.html#41,41,1304,665,1366,768,9-3-2022,10-49-35,112,depth_duration_stimuli/000810_2014-06-08_17-20-01_260595134347_rgbf000105-resize_0/000810_2014-06-08_17-20-01_260595134347_rgbf000105-resize_0-target.png,125,1.4865,2,4828,139,meters,jsons/VE125_randls_23.json,818528,1045763,43,Man
112,623005,DepthScenes,duration_manipulation_targetAtFixation,jsons/VE125_randls_23.json,http://54.235.29.9/FacialAge/BNav_EC2/DepthDuration/v2_depth_duration_MTurk/v2_DepthDuration_HTML.html#41,41,1304,665,1366,768,9-3-2022,10-49-35,113,depth_duration_stimuli/001214_2014-06-17_16-13-55_260595134347_rgbf000111-resize_0/001214_2014-06-17_16-13-55_260595134347_rgbf000111-resize_0-target.png,125,2.6505,2,3115,109,meters,jsons/VE125_randls_23.json,818528,1045763,43,Man
113,623005,DepthScenes,duration_manipulation_targetAtFixation,jsons/VE125_randls_23.json,http://54.235.29.9/FacialAge/BNav_EC2/DepthDuration/v2_depth_duration_MTurk/v2_DepthDuration_HTML.html#41,41,1304,665,1366,768,9-3-2022,10-49-35,114,depth_duration_stimuli/000692_2014-06-08_13-09-42_260595134347_rgbf000199-resize_2/000692_2014-06-08_13-09-42_260595134347_rgbf000199-resize_2-target.png,125,3.661,4,3947,123,meters,jsons/VE125_randls_23.json,818528,1045763,43,Man
114,623005,DepthScenes,duration_manipulation_targetAtFixation,jsons/VE125_randls_23.json,http://54.235.29.9/FacialAge/BNav_EC2/DepthDuration/v2_depth_duration_MTurk/v2_DepthDuration_HTML.html#41,41,1304,665,1366,768,9-3-2022,10-49-35,115,depth_duration_stimuli/001094_2014-06-15_17-36-00_260595134347_rgbf000205-resize_0/001094_2014-06-15_17-36-00_260595134347_rgbf000205-resize_0-target.png,125,4.2175,3,3747,125,meters,jsons/VE125_randls_23.json,818528,1045763,43,Man
115,623005,DepthScenes,duration_manipulation_targetAtFixation,jsons/VE125_randls_23.json,http://54.235.29.9/FacialAge/BNav_EC2/DepthDuration/v2_depth_duration_MTurk/v2_DepthDuration_HTML.html#41,41,1304,665,1366,768,9-3-2022,10-49-35,116,depth_duration_stimuli/001170_2014-06-17_15-43-44_260595134347_rgbf000096-resize_6/001170_2014-06-17_15-43-44_260595134347_rgbf000096-resize-original.jpg,125,1.1909999999999998,0,4818,141,meters,jsons/VE125_randls_23.json,818528,1045763,43,Man
116,623005,DepthScenes,duration_manipulation_targetAtFixation,jsons/VE125_randls_23.json,http://54.235.29.9/FacialAge/BNav_EC2/DepthDuration/v2_depth_duration_MTurk/v2_DepthDuration_HTML.html#41,41,1304,665,1366,768,9-3-2022,10-49-35,117,depth_duration_stimuli/001133_2014-06-17_14-49-16_260595134347_rgbf000100-resize_0/001133_2014-06-17_14-49-16_260595134347_rgbf000100-resize_0-target.png,125,4.2115,2,4169,123,meters,jsons/VE125_randls_23.json,818528,1045763,43,Man
117,623005,DepthScenes,duration_manipulation_targetAtFixation,jsons/VE125_randls_23.json,http://54.235.29.9/FacialAge/BNav_EC2/DepthDuration/v2_depth_duration_MTurk/v2_DepthDuration_HTML.html#41,41,1304,665,1366,768,9-3-2022,10-49-35,118,depth_duration_stimuli/001132_2014-06-17_14-48-54_260595134347_rgbf000100-resize_2/001132_2014-06-17_14-48-54_260595134347_rgbf000100-resize_2-target.png,125,3.753,3,3637,123,meters,jsons/VE125_randls_23.json,818528,1045763,43,Man
118,623005,DepthScenes,duration_manipulation_targetAtFixation,jsons/VE125_randls_23.json,http://54.235.29.9/FacialAge/BNav_EC2/DepthDuration/v2_depth_duration_MTurk/v2_DepthDuration_HTML.html#41,41,1304,665,1366,768,9-3-2022,10-49-35,119,depth_duration_stimuli/001016_2014-06-09_16-16-10_260595134347_rgbf000112-resize_5/001016_2014-06-09_16-16-10_260595134347_rgbf000112-resize_5-target.png,125,1.6565,4,3697,126,meters,jsons/VE125_randls_23.json,818528,1045763,43,Man
119,623005,DepthScenes,duration_manipulation_targetAtFixation,jsons/VE125_randls_23.json,http://54.235.29.9/FacialAge/BNav_EC2/DepthDuration/v2_depth_duration_MTurk/v2_DepthDuration_HTML.html#41,41,1304,665,1366,768,9-3-2022,10-49-35,120,depth_duration_stimuli/002340_2014-06-28_20-05-46_260595134347_rgbf000113-resize_0/002340_2014-06-28_20-05-46_260595134347_rgbf000113-resize_0-target.png,125,2.4735,5,3735,137,meters,jsons/VE125_randls_23.json,818528,1045763,43,Man
120,623005,DepthScenes,duration_manipulation_targetAtFixation,jsons/VE125_randls_23.json,http://54.235.29.9/FacialAge/BNav_EC2/DepthDuration/v2_depth_duration_MTurk/v2_DepthDuration_HTML.html#41,41,1304,665,1366,768,9-3-2022,10-49-35,121,depth_duration_stimuli/002279_2014-06-28_18-55-32_260595134347_rgbf000040-resize_5/002279_2014-06-28_18-55-32_260595134347_rgbf000040-resize_5-target.png,125,1.5043333333333,2,4404,140,meters,jsons/VE125_randls_23.json,818528,1045763,43,Man
121,623005,DepthScenes,duration_manipulation_targetAtFixation,jsons/VE125_randls_23.json,http://54.235.29.9/FacialAge/BNav_EC2/DepthDuration/v2_depth_duration_MTurk/v2_DepthDuration_HTML.html#41,41,1304,665,1366,768,9-3-2022,10-49-35,122,depth_duration_stimuli/000635_2014-06-08_16-38-42_260595134347_rgbf000106-resize_1/000635_2014-06-08_16-38-42_260595134347_rgbf000106-resize_1-target.png,125,2.074,3,3364,124,meters,jsons/VE125_randls_23.json,818528,1045763,43,Man
122,623005,DepthScenes,duration_manipulation_targetAtFixation,jsons/VE125_randls_23.json,http://54.235.29.9/FacialAge/BNav_EC2/DepthDuration/v2_depth_duration_MTurk/v2_DepthDuration_HTML.html#41,41,1304,665,1366,768,9-3-2022,10-49-35,123,depth_duration_stimuli/001059_2014-06-08_21-53-27_260595134347_rgbf000061-resize_4/001059_2014-06-08_21-53-27_260595134347_rgbf000061-resize_4-target.png,125,2.4185,3,4822,153,meters,jsons/VE125_randls_23.json,818528,1045763,43,Man
123,623005,DepthScenes,duration_manipulation_targetAtFixation,jsons/VE125_randls_23.json,http://54.235.29.9/FacialAge/BNav_EC2/DepthDuration/v2_depth_duration_MTurk/v2_DepthDuration_HTML.html#41,41,1304,665,1366,768,9-3-2022,10-49-35,124,depth_duration_stimuli/001032_2014-06-08_13-23-17_260595134347_rgbf000021-resize_3/001032_2014-06-08_13-23-17_260595134347_rgbf000021-resize_3-target.png,125,3.2725,2,3720,125,meters,jsons/VE125_randls_23.json,818528,1045763,43,Man
124,623005,DepthScenes,duration_manipulation_targetAtFixation,jsons/VE125_randls_23.json,http://54.235.29.9/FacialAge/BNav_EC2/DepthDuration/v2_depth_duration_MTurk/v2_DepthDuration_HTML.html#41,41,1304,665,1366,768,9-3-2022,10-49-35,125,depth_duration_stimuli/001066_2014-06-08_22-03-20_260595134347_rgbf000066-resize_4/001066_2014-06-08_22-03-20_260595134347_rgbf000066-resize_4-target.png,125,4.2330000000000005,6,4585,124,meters,jsons/VE125_randls_23.json,818528,1045763,43,Man
125,623005,DepthScenes,duration_manipulation_targetAtFixation,jsons/VE125_randls_23.json,http://54.235.29.9/FacialAge/BNav_EC2/DepthDuration/v2_depth_duration_MTurk/v2_DepthDuration_HTML.html#41,41,1304,665,1366,768,9-3-2022,10-49-35,126,depth_duration_stimuli/000742_2014-06-08_18-48-09_260595134347_rgbf000164-resize_4/000742_2014-06-08_18-48-09_260595134347_rgbf000164-resize_4-target.png,125,4.632,3,3510,123,meters,jsons/VE125_randls_23.json,818528,1045763,43,Man
126,623005,DepthScenes,duration_manipulation_targetAtFixation,jsons/VE125_randls_23.json,http://54.235.29.9/FacialAge/BNav_EC2/DepthDuration/v2_depth_duration_MTurk/v2_DepthDuration_HTML.html#41,41,1304,665,1366,768,9-3-2022,10-49-35,127,depth_duration_stimuli/000368_2014-06-09_15-53-01_260595134347_rgbf000155-resize_2/000368_2014-06-09_15-53-01_260595134347_rgbf000155-resize_2-target.png,125,2.4859999999999998,2,5275,130,meters,jsons/VE125_randls_23.json,818528,1045763,43,Man
127,623005,DepthScenes,duration_manipulation_targetAtFixation,jsons/VE125_randls_23.json,http://54.235.29.9/FacialAge/BNav_EC2/DepthDuration/v2_depth_duration_MTurk/v2_DepthDuration_HTML.html#41,41,1304,665,1366,768,9-3-2022,10-49-35,128,depth_duration_stimuli/002678_2014-06-13_16-15-32_094959634447_rgbf000151-resize_6/002678_2014-06-13_16-15-32_094959634447_rgbf000151-resize_6-target.png,125,2.1830000000000003,6,4276,133,meters,jsons/VE125_randls_23.json,818528,1045763,43,Man
128,623005,DepthScenes,duration_manipulation_targetAtFixation,jsons/VE125_randls_23.json,http://54.235.29.9/FacialAge/BNav_EC2/DepthDuration/v2_depth_duration_MTurk/v2_DepthDuration_HTML.html#41,41,1304,665,1366,768,9-3-2022,10-49-35,129,depth_duration_stimuli/000758_2014-06-08_22-05-08_260595134347_rgbf000085-resize_0/000758_2014-06-08_22-05-08_260595134347_rgbf000085-resize_0-target.png,125,3.3810000000000002,4,4608,125,meters,jsons/VE125_randls_23.json,818528,1045763,43,Man
129,623005,DepthScenes,duration_manipulation_targetAtFixation,jsons/VE125_randls_23.json,http://54.235.29.9/FacialAge/BNav_EC2/DepthDuration/v2_depth_duration_MTurk/v2_DepthDuration_HTML.html#41,41,1304,665,1366,768,9-3-2022,10-49-35,130,depth_duration_stimuli/000854_2014-06-09_19-43-13_260595134347_rgbf000066-resize_0/000854_2014-06-09_19-43-13_260595134347_rgbf000066-resize_0-target.png,125,3.068,3,3529,125,meters,jsons/VE125_randls_23.json,818528,1045763,43,Man
130,623005,DepthScenes,duration_manipulation_targetAtFixation,jsons/VE125_randls_23.json,http://54.235.29.9/FacialAge/BNav_EC2/DepthDuration/v2_depth_duration_MTurk/v2_DepthDuration_HTML.html#41,41,1304,665,1366,768,9-3-2022,10-49-35,131,depth_duration_stimuli/003492_2014-05-21_15-50-55_094959634447_rgbf000828-resize_1/003492_2014-05-21_15-50-55_094959634447_rgbf000828-resize_1-target.png,125,4.06875,3,4566,151,meters,jsons/VE125_randls_23.json,818528,1045763,43,Man
131,623005,DepthScenes,duration_manipulation_targetAtFixation,jsons/VE125_randls_23.json,http://54.235.29.9/FacialAge/BNav_EC2/DepthDuration/v2_depth_duration_MTurk/v2_DepthDuration_HTML.html#41,41,1304,665,1366,768,9-3-2022,10-49-35,132,depth_duration_stimuli/002568_2014-06-24_13-59-21_094959634447_rgbf000062-resize_4/002568_2014-06-24_13-59-21_094959634447_rgbf000062-resize_4-target.png,125,3.015,3,3975,124,meters,jsons/VE125_randls_23.json,818528,1045763,43,Man
132,623005,DepthScenes,duration_manipulation_targetAtFixation,jsons/VE125_randls_23.json,http://54.235.29.9/FacialAge/BNav_EC2/DepthDuration/v2_depth_duration_MTurk/v2_DepthDuration_HTML.html#41,41,1304,665,1366,768,9-3-2022,10-49-35,133,depth_duration_stimuli/002788_2014-06-22_19-36-03_094959634447_rgbf000088-resize_2/002788_2014-06-22_19-36-03_094959634447_rgbf000088-resize_2-target.png,125,1.6465,3,4947,124,meters,jsons/VE125_randls_23.json,818528,1045763,43,Man
133,623005,DepthScenes,duration_manipulation_targetAtFixation,jsons/VE125_randls_23.json,http://54.235.29.9/FacialAge/BNav_EC2/DepthDuration/v2_depth_duration_MTurk/v2_DepthDuration_HTML.html#41,41,1304,665,1366,768,9-3-2022,10-49-35,134,depth_duration_stimuli/000749_2014-06-08_21-55-06_260595134347_rgbf000070-resize_2/000749_2014-06-08_21-55-06_260595134347_rgbf000070-resize_2-target.png,125,2.331,3,3275,124,meters,jsons/VE125_randls_23.json,818528,1045763,43,Man
134,623005,DepthScenes,duration_manipulation_targetAtFixation,jsons/VE125_randls_23.json,http://54.235.29.9/FacialAge/BNav_EC2/DepthDuration/v2_depth_duration_MTurk/v2_DepthDuration_HTML.html#41,41,1304,665,1366,768,9-3-2022,10-49-35,135,depth_duration_stimuli/002072_2014-06-24_21-48-06_260595134347_rgbf000115-resize_0/002072_2014-06-24_21-48-06_260595134347_rgbf000115-resize-original.jpg,125,4.702,0,5194,124,meters,jsons/VE125_randls_23.json,818528,1045763,43,Man
135,623005,DepthScenes,duration_manipulation_targetAtFixation,jsons/VE125_randls_23.json,http://54.235.29.9/FacialAge/BNav_EC2/DepthDuration/v2_depth_duration_MTurk/v2_DepthDuration_HTML.html#41,41,1304,665,1366,768,9-3-2022,10-49-35,136,depth_duration_stimuli/002570_2014-06-24_13-59-54_094959634447_rgbf000059-resize_0/002570_2014-06-24_13-59-54_094959634447_rgbf000059-resize_0-target.png,125,4.037,1,4819,126,meters,jsons/VE125_randls_23.json,818528,1045763,43,Man
136,623005,DepthScenes,duration_manipulation_targetAtFixation,jsons/VE125_randls_23.json,http://54.235.29.9/FacialAge/BNav_EC2/DepthDuration/v2_depth_duration_MTurk/v2_DepthDuration_HTML.html#41,41,1304,665,1366,768,9-3-2022,10-49-35,137,depth_duration_stimuli/002467_2014-06-28_20-38-07_260595134347_rgbf000026-resize_2/002467_2014-06-28_20-38-07_260595134347_rgbf000026-resize_2-target.png,125,4.742,3,3910,133,meters,jsons/VE125_randls_23.json,818528,1045763,43,Man
137,623005,DepthScenes,duration_manipulation_targetAtFixation,jsons/VE125_randls_23.json,http://54.235.29.9/FacialAge/BNav_EC2/DepthDuration/v2_depth_duration_MTurk/v2_DepthDuration_HTML.html#41,41,1304,665,1366,768,9-3-2022,10-49-35,138,depth_duration_stimuli/001555_2014-06-20_17-12-10_260595134347_rgbf000065-resize_4/001555_2014-06-20_17-12-10_260595134347_rgbf000065-resize_4-target.png,125,1.633,2,4095,138,meters,jsons/VE125_randls_23.json,818528,1045763,43,Man
138,623005,DepthScenes,duration_manipulation_targetAtFixation,jsons/VE125_randls_23.json,http://54.235.29.9/FacialAge/BNav_EC2/DepthDuration/v2_depth_duration_MTurk/v2_DepthDuration_HTML.html#41,41,1304,665,1366,768,9-3-2022,10-49-35,139,depth_duration_stimuli/000103_2014-05-14_22-01-17_260595134347_rgbf000152-resize_5/000103_2014-05-14_22-01-17_260595134347_rgbf000152-resize_5-target.png,125,1.993,5,3596,123,meters,jsons/VE125_randls_23.json,818528,1045763,43,Man
139,623005,DepthScenes,duration_manipulation_targetAtFixation,jsons/VE125_randls_23.json,http://54.235.29.9/FacialAge/BNav_EC2/DepthDuration/v2_depth_duration_MTurk/v2_DepthDuration_HTML.html#41,41,1304,665,1366,768,9-3-2022,10-49-35,140,depth_duration_stimuli/001164_2014-06-17_15-35-46_260595134347_rgbf000085-resize_3/001164_2014-06-17_15-35-46_260595134347_rgbf000085-resize_3-target.png,125,2.354,5,4681,121,meters,jsons/VE125_randls_23.json,818528,1045763,43,Man
140,623005,DepthScenes,duration_manipulation_targetAtFixation,jsons/VE125_randls_23.json,http://54.235.29.9/FacialAge/BNav_EC2/DepthDuration/v2_depth_duration_MTurk/v2_DepthDuration_HTML.html#41,41,1304,665,1366,768,9-3-2022,10-49-35,141,depth_duration_stimuli/001136_2014-06-17_15-19-41_260595134347_rgbf000076-resize_3/001136_2014-06-17_15-19-41_260595134347_rgbf000076-resize_3-target.png,125,1.8655,5,3763,125,meters,jsons/VE125_randls_23.json,818528,1045763,43,Man
141,623005,DepthScenes,duration_manipulation_targetAtFixation,jsons/VE125_randls_23.json,http://54.235.29.9/FacialAge/BNav_EC2/DepthDuration/v2_depth_duration_MTurk/v2_DepthDuration_HTML.html#41,41,1304,665,1366,768,9-3-2022,10-49-35,142,depth_duration_stimuli/002213_2014-06-28_18-37-58_260595134347_rgbf000055-resize_1/002213_2014-06-28_18-37-58_260595134347_rgbf000055-resize_1-target.png,125,3.62,4,5077,125,meters,jsons/VE125_randls_23.json,818528,1045763,43,Man
142,623005,DepthScenes,duration_manipulation_targetAtFixation,jsons/VE125_randls_23.json,http://54.235.29.9/FacialAge/BNav_EC2/DepthDuration/v2_depth_duration_MTurk/v2_DepthDuration_HTML.html#41,41,1304,665,1366,768,9-3-2022,10-49-35,143,depth_duration_stimuli/000691_2014-06-08_13-08-50_260595134347_rgbf000132-resize_3/000691_2014-06-08_13-08-50_260595134347_rgbf000132-resize_3-target.png,125,4.1530000000000005,2,3353,123,meters,jsons/VE125_randls_23.json,818528,1045763,43,Man
143,623005,DepthScenes,duration_manipulation_targetAtFixation,jsons/VE125_randls_23.json,http://54.235.29.9/FacialAge/BNav_EC2/DepthDuration/v2_depth_duration_MTurk/v2_DepthDuration_HTML.html#41,41,1304,665,1366,768,9-3-2022,10-49-35,144,depth_duration_stimuli/002989_2014-06-15_12-25-03_094959634447_rgbf000150-resize_3/002989_2014-06-15_12-25-03_094959634447_rgbf000150-resize_3-target.png,125,4.1975,3,3677,146,meters,jsons/VE125_randls_23.json,818528,1045763,43,Man
144,623005,DepthScenes,duration_manipulation_targetAtFixation,jsons/VE125_randls_23.json,http://54.235.29.9/FacialAge/BNav_EC2/DepthDuration/v2_depth_duration_MTurk/v2_DepthDuration_HTML.html#41,41,1304,665,1366,768,9-3-2022,10-49-35,145,depth_duration_stimuli/000866_2014-06-09_20-45-42_260595134347_rgbf000139-resize_1/000866_2014-06-09_20-45-42_260595134347_rgbf000139-resize_1-target.png,125,3.2155,4,3444,123,meters,jsons/VE125_randls_23.json,818528,1045763,43,Man
145,623005,DepthScenes,duration_manipulation_targetAtFixation,jsons/VE125_randls_23.json,http://54.235.29.9/FacialAge/BNav_EC2/DepthDuration/v2_depth_duration_MTurk/v2_DepthDuration_HTML.html#41,41,1304,665,1366,768,9-3-2022,10-49-35,146,depth_duration_stimuli/001498_2014-06-19_17-45-14_260595134347_rgbf000129-resize_4/001498_2014-06-19_17-45-14_260595134347_rgbf000129-resize-original.jpg,125,1.4075,0,5089,124,meters,jsons/VE125_randls_23.json,818528,1045763,43,Man
146,623005,DepthScenes,duration_manipulation_targetAtFixation,jsons/VE125_randls_23.json,http://54.235.29.9/FacialAge/BNav_EC2/DepthDuration/v2_depth_duration_MTurk/v2_DepthDuration_HTML.html#41,41,1304,665,1366,768,9-3-2022,10-49-35,147,depth_duration_stimuli/002118_2014-06-25_20-32-08_260595134347_rgbf000078-resize_1/002118_2014-06-25_20-32-08_260595134347_rgbf000078-resize_1-target.png,125,2.6460000000000004,2,3830,124,meters,jsons/VE125_randls_23.json,818528,1045763,43,Man
147,623005,DepthScenes,duration_manipulation_targetAtFixation,jsons/VE125_randls_23.json,http://54.235.29.9/FacialAge/BNav_EC2/DepthDuration/v2_depth_duration_MTurk/v2_DepthDuration_HTML.html#41,41,1304,665,1366,768,9-3-2022,10-49-35,148,depth_duration_stimuli/001516_2014-06-20_16-25-09_260595134347_rgbf000076-resize_2/001516_2014-06-20_16-25-09_260595134347_rgbf000076-resize_2-target.png,125,1.7445,3,2774,124,meters,jsons/VE125_randls_23.json,818528,1045763,43,Man
148,623005,DepthScenes,duration_manipulation_targetAtFixation,jsons/VE125_randls_23.json,http://54.235.29.9/FacialAge/BNav_EC2/DepthDuration/v2_depth_duration_MTurk/v2_DepthDuration_HTML.html#41,41,1304,665,1366,768,9-3-2022,10-49-35,149,depth_duration_stimuli/002272_2014-06-28_18-53-56_260595134347_rgbf000067-resize_2/002272_2014-06-28_18-53-56_260595134347_rgbf000067-resize_2-target.png,125,1.138,3,3884,122,meters,jsons/VE125_randls_23.json,818528,1045763,43,Man
149,623005,DepthScenes,duration_manipulation_targetAtFixation,jsons/VE125_randls_23.json,http://54.235.29.9/FacialAge/BNav_EC2/DepthDuration/v2_depth_duration_MTurk/v2_DepthDuration_HTML.html#41,41,1304,665,1366,768,9-3-2022,10-49-35,150,depth_duration_stimuli/001571_2014-06-20_17-21-32_260595134347_rgbf000089-resize_1/001571_2014-06-20_17-21-32_260595134347_rgbf000089-resize_1-target.png,125,1.86,2,2882,125,meters,jsons/VE125_randls_23.json,818528,1045763,43,Man
150,623005,DepthScenes,duration_manipulation_targetAtFixation,jsons/VE125_randls_23.json,http://54.235.29.9/FacialAge/BNav_EC2/DepthDuration/v2_depth_duration_MTurk/v2_DepthDuration_HTML.html#41,41,1304,665,1366,768,9-3-2022,10-49-35,151,depth_duration_stimuli/001055_2014-06-08_18-45-35_260595134347_rgbf000111-resize_4/001055_2014-06-08_18-45-35_260595134347_rgbf000111-resize_4-target.png,125,2.4290000000000003,5,4108,136,meters,jsons/VE125_randls_23.json,818528,1045763,43,Man
151,623005,DepthScenes,duration_manipulation_targetAtFixation,jsons/VE125_randls_23.json,http://54.235.29.9/FacialAge/BNav_EC2/DepthDuration/v2_depth_duration_MTurk/v2_DepthDuration_HTML.html#41,41,1304,665,1366,768,9-3-2022,10-49-35,152,depth_duration_stimuli/000549_2014-06-08_22-10-24_260595134347_rgbf000247-resize_3/000549_2014-06-08_22-10-24_260595134347_rgbf000247-resize_3-target.png,125,1.841,2,5397,136,meters,jsons/VE125_randls_23.json,818528,1045763,43,Man
152,623005,DepthScenes,duration_manipulation_targetAtFixation,jsons/VE125_randls_23.json,http://54.235.29.9/FacialAge/BNav_EC2/DepthDuration/v2_depth_duration_MTurk/v2_DepthDuration_HTML.html#41,41,1304,665,1366,768,9-3-2022,10-49-35,153,depth_duration_stimuli/002748_2014-06-22_19-07-22_094959634447_rgbf000078-resize_1/002748_2014-06-22_19-07-22_094959634447_rgbf000078-resize_1-target.png,125,4.6705,5,4481,130,meters,jsons/VE125_randls_23.json,818528,1045763,43,Man
153,623005,DepthScenes,duration_manipulation_targetAtFixation,jsons/VE125_randls_23.json,http://54.235.29.9/FacialAge/BNav_EC2/DepthDuration/v2_depth_duration_MTurk/v2_DepthDuration_HTML.html#41,41,1304,665,1366,768,9-3-2022,10-49-35,154,depth_duration_stimuli/002995_2014-06-15_12-31-26_094959634447_rgbf000150-resize_1/002995_2014-06-15_12-31-26_094959634447_rgbf000150-resize_1-target.png,125,3.8360000000000003,3,4171,130,meters,jsons/VE125_randls_23.json,818528,1045763,43,Man
154,623005,DepthScenes,duration_manipulation_targetAtFixation,jsons/VE125_randls_23.json,http://54.235.29.9/FacialAge/BNav_EC2/DepthDuration/v2_depth_duration_MTurk/v2_DepthDuration_HTML.html#41,41,1304,665,1366,768,9-3-2022,10-49-35,155,depth_duration_stimuli/001808_2014-06-26_20-50-58_260595134347_rgbf000029-resize_1/001808_2014-06-26_20-50-58_260595134347_rgbf000029-resize_1-target.png,125,4.249,4,3384,129,meters,jsons/VE125_randls_23.json,818528,1045763,43,Man
155,623005,DepthScenes,duration_manipulation_targetAtFixation,jsons/VE125_randls_23.json,http://54.235.29.9/FacialAge/BNav_EC2/DepthDuration/v2_depth_duration_MTurk/v2_DepthDuration_HTML.html#41,41,1304,665,1366,768,9-3-2022,10-49-35,156,depth_duration_stimuli/001815_2014-06-26_20-52-55_260595134347_rgbf000020-resize_0/001815_2014-06-26_20-52-55_260595134347_rgbf000020-resize_0-target.png,125,3.3865,5,3243,126,meters,jsons/VE125_randls_23.json,818528,1045763,43,Man
156,623005,DepthScenes,duration_manipulation_targetAtFixation,jsons/VE125_randls_23.json,http://54.235.29.9/FacialAge/BNav_EC2/DepthDuration/v2_depth_duration_MTurk/v2_DepthDuration_HTML.html#41,41,1304,665,1366,768,9-3-2022,10-49-35,157,depth_duration_stimuli/001570_2014-06-20_17-21-09_260595134347_rgbf000135-resize_4/001570_2014-06-20_17-21-09_260595134347_rgbf000135-resize_4-target.png,125,4.467,4,5760,124,meters,jsons/VE125_randls_23.json,818528,1045763,43,Man
157,623005,DepthScenes,duration_manipulation_targetAtFixation,jsons/VE125_randls_23.json,http://54.235.29.9/FacialAge/BNav_EC2/DepthDuration/v2_depth_duration_MTurk/v2_DepthDuration_HTML.html#41,41,1304,665,1366,768,9-3-2022,10-49-35,158,depth_duration_stimuli/001392_2014-06-19_16-07-59_260595134347_rgbf000046-resize_1/001392_2014-06-19_16-07-59_260595134347_rgbf000046-resize_1-target.png,125,4.135,5,4328,141,meters,jsons/VE125_randls_23.json,818528,1045763,43,Man
158,623005,DepthScenes,duration_manipulation_targetAtFixation,jsons/VE125_randls_23.json,http://54.235.29.9/FacialAge/BNav_EC2/DepthDuration/v2_depth_duration_MTurk/v2_DepthDuration_HTML.html#41,41,1304,665,1366,768,9-3-2022,10-49-35,159,depth_duration_stimuli/003621_2014-05-23_18-06-08_094959634447_rgbf000101-resize_1/003621_2014-05-23_18-06-08_094959634447_rgbf000101-resize_1-target.png,125,3.9835,5,3424,122,meters,jsons/VE125_randls_23.json,818528,1045763,43,Man
159,623005,DepthScenes,duration_manipulation_targetAtFixation,jsons/VE125_randls_23.json,http://54.235.29.9/FacialAge/BNav_EC2/DepthDuration/v2_depth_duration_MTurk/v2_DepthDuration_HTML.html#41,41,1304,665,1366,768,9-3-2022,10-49-35,160,depth_duration_stimuli/001584_2014-06-20_11-07-43_260595134347_rgbf000002-resize_1/001584_2014-06-20_11-07-43_260595134347_rgbf000002-resize_1-target.png,125,3.53,4,2801,123,meters,jsons/VE125_randls_23.json,818528,1045763,43,Man
160,623005,DepthScenes,duration_manipulation_targetAtFixation,jsons/VE125_randls_23.json,http://54.235.29.9/FacialAge/BNav_EC2/DepthDuration/v2_depth_duration_MTurk/v2_DepthDuration_HTML.html#41,41,1304,665,1366,768,9-3-2022,10-49-35,161,depth_duration_stimuli/001199_2014-06-17_16-03-48_260595134347_rgbf000077-resize_0/001199_2014-06-17_16-03-48_260595134347_rgbf000077-resize_0-target.png,125,3.4375,4,3529,139,meters,jsons/VE125_randls_23.json,818528,1045763,43,Man
161,623005,DepthScenes,duration_manipulation_targetAtFixation,jsons/VE125_randls_23.json,http://54.235.29.9/FacialAge/BNav_EC2/DepthDuration/v2_depth_duration_MTurk/v2_DepthDuration_HTML.html#41,41,1304,665,1366,768,9-3-2022,10-49-35,162,depth_duration_stimuli/000502_2014-06-08_23-02-32_260595134347_rgbf000063-resize_4/000502_2014-06-08_23-02-32_260595134347_rgbf000063-resize_4-target.png,125,2.431,3,2975,127,meters,jsons/VE125_randls_23.json,818528,1045763,43,Man
162,623005,DepthScenes,duration_manipulation_targetAtFixation,jsons/VE125_randls_23.json,http://54.235.29.9/FacialAge/BNav_EC2/DepthDuration/v2_depth_duration_MTurk/v2_DepthDuration_HTML.html#41,41,1304,665,1366,768,9-3-2022,10-49-35,163,depth_duration_stimuli/003534_2014-05-22_15-06-10_094959634447_rgbf000102-resize_4/003534_2014-05-22_15-06-10_094959634447_rgbf000102-resize_4-target.png,125,1.426,1,3858,139,meters,jsons/VE125_randls_23.json,818528,1045763,43,Man
163,623005,DepthScenes,duration_manipulation_targetAtFixation,jsons/VE125_randls_23.json,http://54.235.29.9/FacialAge/BNav_EC2/DepthDuration/v2_depth_duration_MTurk/v2_DepthDuration_HTML.html#41,41,1304,665,1366,768,9-3-2022,10-49-35,164,depth_duration_stimuli/002637_2014-06-24_14-51-13_094959634447_rgbf000066-resize_4/002637_2014-06-24_14-51-13_094959634447_rgbf000066-resize_4-target.png,125,1.9955,3,3149,140,meters,jsons/VE125_randls_23.json,818528,1045763,43,Man
