,subjID,experimentName,versionName,sequenceName,url,selected_row,windowWidth,windowHeight,screenWidth,screenHeight,startDate,startTime,trial,stimulus,duration,actual_depth,depth_estimate,trial_RT,log_sceneDuration,unitSelection,seq_filepath,experimentTime,totalTime,age,gender
0,624901,DepthScenes,duration_manipulation_targetAtFixation,jsons/v1_VE1000_randls_16.json,http://54.235.29.9/FacialAge/BNav_EC2/DepthDuration/v2_depth_duration_MTurk/v2_DepthDuration_HTML.html#22,22,1440,900,1440,900,8-22-2022,7-59-45,1,depth_duration_stimuli/002748_2014-06-22_19-07-22_094959634447_rgbf000078-resize_1/002748_2014-06-22_19-07-22_094959634447_rgbf000078-resize_1-target.png,1000,4.6705,75,6507,1001,meters,jsons/v1_VE1000_randls_16.json,890859,1073349,42,Woman
1,624901,DepthScenes,duration_manipulation_targetAtFixation,jsons/v1_VE1000_randls_16.json,http://54.235.29.9/FacialAge/BNav_EC2/DepthDuration/v2_depth_duration_MTurk/v2_DepthDuration_HTML.html#22,22,1440,900,1440,900,8-22-2022,7-59-45,2,depth_duration_stimuli/002995_2014-06-15_12-31-26_094959634447_rgbf000150-resize_1/002995_2014-06-15_12-31-26_094959634447_rgbf000150-resize_1-target.png,1000,3.8360000000000003,75,5289,998,meters,jsons/v1_VE1000_randls_16.json,890859,1073349,42,Woman
2,624901,DepthScenes,duration_manipulation_targetAtFixation,jsons/v1_VE1000_randls_16.json,http://54.235.29.9/FacialAge/BNav_EC2/DepthDuration/v2_depth_duration_MTurk/v2_DepthDuration_HTML.html#22,22,1440,900,1440,900,8-22-2022,7-59-45,3,depth_duration_stimuli/002663_2014-06-13_15-50-26_094959634447_rgbf000075-resize_1/002663_2014-06-13_15-50-26_094959634447_rgbf000075-resize_1-target.png,1000,4.7495,75,8434,999,meters,jsons/v1_VE1000_randls_16.json,890859,1073349,42,Woman
3,624901,DepthScenes,duration_manipulation_targetAtFixation,jsons/v1_VE1000_randls_16.json,http://54.235.29.9/FacialAge/BNav_EC2/DepthDuration/v2_depth_duration_MTurk/v2_DepthDuration_HTML.html#22,22,1440,900,1440,900,8-22-2022,7-59-45,4,depth_duration_stimuli/000409_2014-06-04_19-23-33_260595134347_rgbf000067-resize_0/000409_2014-06-04_19-23-33_260595134347_rgbf000067-resize_0-target.png,1000,3.7335,70,5065,999,meters,jsons/v1_VE1000_randls_16.json,890859,1073349,42,Woman
4,624901,DepthScenes,duration_manipulation_targetAtFixation,jsons/v1_VE1000_randls_16.json,http://54.235.29.9/FacialAge/BNav_EC2/DepthDuration/v2_depth_duration_MTurk/v2_DepthDuration_HTML.html#22,22,1440,900,1440,900,8-22-2022,7-59-45,5,depth_duration_stimuli/000758_2014-06-08_22-05-08_260595134347_rgbf000085-resize_0/000758_2014-06-08_22-05-08_260595134347_rgbf000085-resize_0-target.png,1000,3.3810000000000002,65,6714,998,meters,jsons/v1_VE1000_randls_16.json,890859,1073349,42,Woman
5,624901,DepthScenes,duration_manipulation_targetAtFixation,jsons/v1_VE1000_randls_16.json,http://54.235.29.9/FacialAge/BNav_EC2/DepthDuration/v2_depth_duration_MTurk/v2_DepthDuration_HTML.html#22,22,1440,900,1440,900,8-22-2022,7-59-45,6,depth_duration_stimuli/000854_2014-06-09_19-43-13_260595134347_rgbf000066-resize_0/000854_2014-06-09_19-43-13_260595134347_rgbf000066-resize_0-target.png,1000,3.068,70,4340,999,meters,jsons/v1_VE1000_randls_16.json,890859,1073349,42,Woman
6,624901,DepthScenes,duration_manipulation_targetAtFixation,jsons/v1_VE1000_randls_16.json,http://54.235.29.9/FacialAge/BNav_EC2/DepthDuration/v2_depth_duration_MTurk/v2_DepthDuration_HTML.html#22,22,1440,900,1440,900,8-22-2022,7-59-45,7,depth_duration_stimuli/000009_2014-05-26_14-32-05_260595134347_rgbf000034-resize_3/000009_2014-05-26_14-32-05_260595134347_rgbf000034-resize_3-target.png,1000,3.8715,70,5175,1000,meters,jsons/v1_VE1000_randls_16.json,890859,1073349,42,Woman
7,624901,DepthScenes,duration_manipulation_targetAtFixation,jsons/v1_VE1000_randls_16.json,http://54.235.29.9/FacialAge/BNav_EC2/DepthDuration/v2_depth_duration_MTurk/v2_DepthDuration_HTML.html#22,22,1440,900,1440,900,8-22-2022,7-59-45,8,depth_duration_stimuli/001828_2014-06-26_21-40-03_260595134347_rgbf000024-resize_0/001828_2014-06-26_21-40-03_260595134347_rgbf000024-resize_0-target.png,1000,4.8260000000000005,65,4830,1002,meters,jsons/v1_VE1000_randls_16.json,890859,1073349,42,Woman
8,624901,DepthScenes,duration_manipulation_targetAtFixation,jsons/v1_VE1000_randls_16.json,http://54.235.29.9/FacialAge/BNav_EC2/DepthDuration/v2_depth_duration_MTurk/v2_DepthDuration_HTML.html#22,22,1440,900,1440,900,8-22-2022,7-59-45,9,depth_duration_stimuli/002213_2014-06-28_18-37-58_260595134347_rgbf000055-resize_1/002213_2014-06-28_18-37-58_260595134347_rgbf000055-resize_1-target.png,1000,3.62,70,4311,1013,meters,jsons/v1_VE1000_randls_16.json,890859,1073349,42,Woman
9,624901,DepthScenes,duration_manipulation_targetAtFixation,jsons/v1_VE1000_randls_16.json,http://54.235.29.9/FacialAge/BNav_EC2/DepthDuration/v2_depth_duration_MTurk/v2_DepthDuration_HTML.html#22,22,1440,900,1440,900,8-22-2022,7-59-45,10,depth_duration_stimuli/000691_2014-06-08_13-08-50_260595134347_rgbf000132-resize_3/000691_2014-06-08_13-08-50_260595134347_rgbf000132-resize_3-target.png,1000,4.1530000000000005,75,4268,1000,meters,jsons/v1_VE1000_randls_16.json,890859,1073349,42,Woman
10,624901,DepthScenes,duration_manipulation_targetAtFixation,jsons/v1_VE1000_randls_16.json,http://54.235.29.9/FacialAge/BNav_EC2/DepthDuration/v2_depth_duration_MTurk/v2_DepthDuration_HTML.html#22,22,1440,900,1440,900,8-22-2022,7-59-45,11,depth_duration_stimuli/000506_2014-06-08_23-21-00_260595134347_rgbf000070-resize_7/000506_2014-06-08_23-21-00_260595134347_rgbf000070-resize_7-target.png,1000,4.0585,65,4159,1001,meters,jsons/v1_VE1000_randls_16.json,890859,1073349,42,Woman
11,624901,DepthScenes,duration_manipulation_targetAtFixation,jsons/v1_VE1000_randls_16.json,http://54.235.29.9/FacialAge/BNav_EC2/DepthDuration/v2_depth_duration_MTurk/v2_DepthDuration_HTML.html#22,22,1440,900,1440,900,8-22-2022,7-59-45,12,depth_duration_stimuli/003079_2014-06-15_15-18-20_094959634447_rgbf000152-resize_8/003079_2014-06-15_15-18-20_094959634447_rgbf000152-resize_8-target.png,1000,2.8775,65,5899,1000,meters,jsons/v1_VE1000_randls_16.json,890859,1073349,42,Woman
12,624901,DepthScenes,duration_manipulation_targetAtFixation,jsons/v1_VE1000_randls_16.json,http://54.235.29.9/FacialAge/BNav_EC2/DepthDuration/v2_depth_duration_MTurk/v2_DepthDuration_HTML.html#22,22,1440,900,1440,900,8-22-2022,7-59-45,13,depth_duration_stimuli/000569_2014-06-09_22-51-47_260595134347_rgbf000141-resize_3/000569_2014-06-09_22-51-47_260595134347_rgbf000141-resize-original.jpg,1000,4.512,75,4858,997,meters,jsons/v1_VE1000_randls_16.json,890859,1073349,42,Woman
13,624901,DepthScenes,duration_manipulation_targetAtFixation,jsons/v1_VE1000_randls_16.json,http://54.235.29.9/FacialAge/BNav_EC2/DepthDuration/v2_depth_duration_MTurk/v2_DepthDuration_HTML.html#22,22,1440,900,1440,900,8-22-2022,7-59-45,14,depth_duration_stimuli/001110_2014-06-15_17-25-28_260595134347_rgbf000150-resize_1/001110_2014-06-15_17-25-28_260595134347_rgbf000150-resize_1-target.png,1000,1.7115,65,4295,999,meters,jsons/v1_VE1000_randls_16.json,890859,1073349,42,Woman
14,624901,DepthScenes,duration_manipulation_targetAtFixation,jsons/v1_VE1000_randls_16.json,http://54.235.29.9/FacialAge/BNav_EC2/DepthDuration/v2_depth_duration_MTurk/v2_DepthDuration_HTML.html#22,22,1440,900,1440,900,8-22-2022,7-59-45,15,depth_duration_stimuli/000927_2014-06-09_16-32-30_260595134347_rgbf000123-resize_3/000927_2014-06-09_16-32-30_260595134347_rgbf000123-resize_3-target.png,1000,2.6785,75,4724,1000,meters,jsons/v1_VE1000_randls_16.json,890859,1073349,42,Woman
15,624901,DepthScenes,duration_manipulation_targetAtFixation,jsons/v1_VE1000_randls_16.json,http://54.235.29.9/FacialAge/BNav_EC2/DepthDuration/v2_depth_duration_MTurk/v2_DepthDuration_HTML.html#22,22,1440,900,1440,900,8-22-2022,7-59-45,16,depth_duration_stimuli/001810_2014-06-26_20-51-35_260595134347_rgbf000040-resize_3/001810_2014-06-26_20-51-35_260595134347_rgbf000040-resize_3-target.png,1000,2.2525,65,4889,1001,meters,jsons/v1_VE1000_randls_16.json,890859,1073349,42,Woman
16,624901,DepthScenes,duration_manipulation_targetAtFixation,jsons/v1_VE1000_randls_16.json,http://54.235.29.9/FacialAge/BNav_EC2/DepthDuration/v2_depth_duration_MTurk/v2_DepthDuration_HTML.html#22,22,1440,900,1440,900,8-22-2022,7-59-45,17,depth_duration_stimuli/003010_2014-06-15_12-54-35_094959634447_rgbf000112-resize_0/003010_2014-06-15_12-54-35_094959634447_rgbf000112-resize_0-target.png,1000,3.1185,70,4290,999,meters,jsons/v1_VE1000_randls_16.json,890859,1073349,42,Woman
17,624901,DepthScenes,duration_manipulation_targetAtFixation,jsons/v1_VE1000_randls_16.json,http://54.235.29.9/FacialAge/BNav_EC2/DepthDuration/v2_depth_duration_MTurk/v2_DepthDuration_HTML.html#22,22,1440,900,1440,900,8-22-2022,7-59-45,18,depth_duration_stimuli/000642_2014-06-08_16-59-25_260595134347_rgbf000098-resize_2/000642_2014-06-08_16-59-25_260595134347_rgbf000098-resize_2-target.png,1000,2.8815,70,4332,999,meters,jsons/v1_VE1000_randls_16.json,890859,1073349,42,Woman
18,624901,DepthScenes,duration_manipulation_targetAtFixation,jsons/v1_VE1000_randls_16.json,http://54.235.29.9/FacialAge/BNav_EC2/DepthDuration/v2_depth_duration_MTurk/v2_DepthDuration_HTML.html#22,22,1440,900,1440,900,8-22-2022,7-59-45,19,depth_duration_stimuli/002425_2014-06-28_20-27-29_260595134347_rgbf000031-resize_8/002425_2014-06-28_20-27-29_260595134347_rgbf000031-resize_8-target.png,1000,3.8960000000000004,75,4429,1000,meters,jsons/v1_VE1000_randls_16.json,890859,1073349,42,Woman
19,624901,DepthScenes,duration_manipulation_targetAtFixation,jsons/v1_VE1000_randls_16.json,http://54.235.29.9/FacialAge/BNav_EC2/DepthDuration/v2_depth_duration_MTurk/v2_DepthDuration_HTML.html#22,22,1440,900,1440,900,8-22-2022,7-59-45,20,depth_duration_stimuli/000469_2014-06-09_19-42-10_260595134347_rgbf000081-resize_1/000469_2014-06-09_19-42-10_260595134347_rgbf000081-resize_1-target.png,1000,1.652,75,7729,1001,meters,jsons/v1_VE1000_randls_16.json,890859,1073349,42,Woman
20,624901,DepthScenes,duration_manipulation_targetAtFixation,jsons/v1_VE1000_randls_16.json,http://54.235.29.9/FacialAge/BNav_EC2/DepthDuration/v2_depth_duration_MTurk/v2_DepthDuration_HTML.html#22,22,1440,900,1440,900,8-22-2022,7-59-45,21,depth_duration_stimuli/000483_2014-06-09_20-41-45_260595134347_rgbf000116-resize_4/000483_2014-06-09_20-41-45_260595134347_rgbf000116-resize_4-target.png,1000,1.337,70,4555,1000,meters,jsons/v1_VE1000_randls_16.json,890859,1073349,42,Woman
21,624901,DepthScenes,duration_manipulation_targetAtFixation,jsons/v1_VE1000_randls_16.json,http://54.235.29.9/FacialAge/BNav_EC2/DepthDuration/v2_depth_duration_MTurk/v2_DepthDuration_HTML.html#22,22,1440,900,1440,900,8-22-2022,7-59-45,22,depth_duration_stimuli/001150_2014-06-17_15-27-34_260595134347_rgbf000108-resize_2/001150_2014-06-17_15-27-34_260595134347_rgbf000108-resize_2-target.png,1000,4.0325,70,5129,1000,meters,jsons/v1_VE1000_randls_16.json,890859,1073349,42,Woman
22,624901,DepthScenes,duration_manipulation_targetAtFixation,jsons/v1_VE1000_randls_16.json,http://54.235.29.9/FacialAge/BNav_EC2/DepthDuration/v2_depth_duration_MTurk/v2_DepthDuration_HTML.html#22,22,1440,900,1440,900,8-22-2022,7-59-45,23,depth_duration_stimuli/000665_2014-06-09_20-42-35_260595134347_rgbf000110-resize_1/000665_2014-06-09_20-42-35_260595134347_rgbf000110-resize_1-target.png,1000,3.057,70,12441,1000,meters,jsons/v1_VE1000_randls_16.json,890859,1073349,42,Woman
23,624901,DepthScenes,duration_manipulation_targetAtFixation,jsons/v1_VE1000_randls_16.json,http://54.235.29.9/FacialAge/BNav_EC2/DepthDuration/v2_depth_duration_MTurk/v2_DepthDuration_HTML.html#22,22,1440,900,1440,900,8-22-2022,7-59-45,24,depth_duration_stimuli/001555_2014-06-20_17-12-10_260595134347_rgbf000065-resize_4/001555_2014-06-20_17-12-10_260595134347_rgbf000065-resize_4-target.png,1000,1.633,65,8362,1010,meters,jsons/v1_VE1000_randls_16.json,890859,1073349,42,Woman
24,624901,DepthScenes,duration_manipulation_targetAtFixation,jsons/v1_VE1000_randls_16.json,http://54.235.29.9/FacialAge/BNav_EC2/DepthDuration/v2_depth_duration_MTurk/v2_DepthDuration_HTML.html#22,22,1440,900,1440,900,8-22-2022,7-59-45,25,depth_duration_stimuli/000103_2014-05-14_22-01-17_260595134347_rgbf000152-resize_5/000103_2014-05-14_22-01-17_260595134347_rgbf000152-resize_5-target.png,1000,1.993,70,3778,999,meters,jsons/v1_VE1000_randls_16.json,890859,1073349,42,Woman
25,624901,DepthScenes,duration_manipulation_targetAtFixation,jsons/v1_VE1000_randls_16.json,http://54.235.29.9/FacialAge/BNav_EC2/DepthDuration/v2_depth_duration_MTurk/v2_DepthDuration_HTML.html#22,22,1440,900,1440,900,8-22-2022,7-59-45,26,depth_duration_stimuli/001016_2014-06-09_16-16-10_260595134347_rgbf000112-resize_5/001016_2014-06-09_16-16-10_260595134347_rgbf000112-resize_5-target.png,1000,1.6565,65,4428,1000,meters,jsons/v1_VE1000_randls_16.json,890859,1073349,42,Woman
26,624901,DepthScenes,duration_manipulation_targetAtFixation,jsons/v1_VE1000_randls_16.json,http://54.235.29.9/FacialAge/BNav_EC2/DepthDuration/v2_depth_duration_MTurk/v2_DepthDuration_HTML.html#22,22,1440,900,1440,900,8-22-2022,7-59-45,27,depth_duration_stimuli/002340_2014-06-28_20-05-46_260595134347_rgbf000113-resize_0/002340_2014-06-28_20-05-46_260595134347_rgbf000113-resize_0-target.png,1000,2.4735,70,4203,999,meters,jsons/v1_VE1000_randls_16.json,890859,1073349,42,Woman
27,624901,DepthScenes,duration_manipulation_targetAtFixation,jsons/v1_VE1000_randls_16.json,http://54.235.29.9/FacialAge/BNav_EC2/DepthDuration/v2_depth_duration_MTurk/v2_DepthDuration_HTML.html#22,22,1440,900,1440,900,8-22-2022,7-59-45,28,depth_duration_stimuli/000736_2014-06-08_18-24-15_260595134347_rgbf000206-resize_3/000736_2014-06-08_18-24-15_260595134347_rgbf000206-resize_3-target.png,1000,3.515,65,7834,1000,meters,jsons/v1_VE1000_randls_16.json,890859,1073349,42,Woman
28,624901,DepthScenes,duration_manipulation_targetAtFixation,jsons/v1_VE1000_randls_16.json,http://54.235.29.9/FacialAge/BNav_EC2/DepthDuration/v2_depth_duration_MTurk/v2_DepthDuration_HTML.html#22,22,1440,900,1440,900,8-22-2022,7-59-45,29,depth_duration_stimuli/000137_2014-05-20_17-04-49_260595134347_rgbf000120-resize_1/000137_2014-05-20_17-04-49_260595134347_rgbf000120-resize_1-target.png,1000,3.786,70,4636,999,meters,jsons/v1_VE1000_randls_16.json,890859,1073349,42,Woman
29,624901,DepthScenes,duration_manipulation_targetAtFixation,jsons/v1_VE1000_randls_16.json,http://54.235.29.9/FacialAge/BNav_EC2/DepthDuration/v2_depth_duration_MTurk/v2_DepthDuration_HTML.html#22,22,1440,900,1440,900,8-22-2022,7-59-45,30,depth_duration_stimuli/000375_2014-06-08_11-17-29_260595134347_rgbf000133-resize_2/000375_2014-06-08_11-17-29_260595134347_rgbf000133-resize-original.jpg,1000,4.718,70,7408,999,meters,jsons/v1_VE1000_randls_16.json,890859,1073349,42,Woman
30,624901,DepthScenes,duration_manipulation_targetAtFixation,jsons/v1_VE1000_randls_16.json,http://54.235.29.9/FacialAge/BNav_EC2/DepthDuration/v2_depth_duration_MTurk/v2_DepthDuration_HTML.html#22,22,1440,900,1440,900,8-22-2022,7-59-45,31,depth_duration_stimuli/002570_2014-06-24_13-59-54_094959634447_rgbf000059-resize_0/002570_2014-06-24_13-59-54_094959634447_rgbf000059-resize_0-target.png,1000,4.037,75,4386,1000,meters,jsons/v1_VE1000_randls_16.json,890859,1073349,42,Woman
31,624901,DepthScenes,duration_manipulation_targetAtFixation,jsons/v1_VE1000_randls_16.json,http://54.235.29.9/FacialAge/BNav_EC2/DepthDuration/v2_depth_duration_MTurk/v2_DepthDuration_HTML.html#22,22,1440,900,1440,900,8-22-2022,7-59-45,32,depth_duration_stimuli/002467_2014-06-28_20-38-07_260595134347_rgbf000026-resize_2/002467_2014-06-28_20-38-07_260595134347_rgbf000026-resize_2-target.png,1000,4.742,70,3892,1001,meters,jsons/v1_VE1000_randls_16.json,890859,1073349,42,Woman
32,624901,DepthScenes,duration_manipulation_targetAtFixation,jsons/v1_VE1000_randls_16.json,http://54.235.29.9/FacialAge/BNav_EC2/DepthDuration/v2_depth_duration_MTurk/v2_DepthDuration_HTML.html#22,22,1440,900,1440,900,8-22-2022,7-59-45,33,depth_duration_stimuli/001133_2014-06-17_14-49-16_260595134347_rgbf000100-resize_0/001133_2014-06-17_14-49-16_260595134347_rgbf000100-resize_0-target.png,1000,4.2115,65,4777,999,meters,jsons/v1_VE1000_randls_16.json,890859,1073349,42,Woman
33,624901,DepthScenes,duration_manipulation_targetAtFixation,jsons/v1_VE1000_randls_16.json,http://54.235.29.9/FacialAge/BNav_EC2/DepthDuration/v2_depth_duration_MTurk/v2_DepthDuration_HTML.html#22,22,1440,900,1440,900,8-22-2022,7-59-45,34,depth_duration_stimuli/001132_2014-06-17_14-48-54_260595134347_rgbf000100-resize_2/001132_2014-06-17_14-48-54_260595134347_rgbf000100-resize_2-target.png,1000,3.753,70,3876,1000,meters,jsons/v1_VE1000_randls_16.json,890859,1073349,42,Woman
34,624901,DepthScenes,duration_manipulation_targetAtFixation,jsons/v1_VE1000_randls_16.json,http://54.235.29.9/FacialAge/BNav_EC2/DepthDuration/v2_depth_duration_MTurk/v2_DepthDuration_HTML.html#22,22,1440,900,1440,900,8-22-2022,7-59-45,35,depth_duration_stimuli/002272_2014-06-28_18-53-56_260595134347_rgbf000067-resize_2/002272_2014-06-28_18-53-56_260595134347_rgbf000067-resize_2-target.png,1000,1.138,65,4217,999,meters,jsons/v1_VE1000_randls_16.json,890859,1073349,42,Woman
35,624901,DepthScenes,duration_manipulation_targetAtFixation,jsons/v1_VE1000_randls_16.json,http://54.235.29.9/FacialAge/BNav_EC2/DepthDuration/v2_depth_duration_MTurk/v2_DepthDuration_HTML.html#22,22,1440,900,1440,900,8-22-2022,7-59-45,36,depth_duration_stimuli/001571_2014-06-20_17-21-32_260595134347_rgbf000089-resize_1/001571_2014-06-20_17-21-32_260595134347_rgbf000089-resize_1-target.png,1000,1.86,70,4363,1000,meters,jsons/v1_VE1000_randls_16.json,890859,1073349,42,Woman
36,624901,DepthScenes,duration_manipulation_targetAtFixation,jsons/v1_VE1000_randls_16.json,http://54.235.29.9/FacialAge/BNav_EC2/DepthDuration/v2_depth_duration_MTurk/v2_DepthDuration_HTML.html#22,22,1440,900,1440,900,8-22-2022,7-59-45,37,depth_duration_stimuli/001449_2014-06-19_17-01-27_260595134347_rgbf000116-resize_2/001449_2014-06-19_17-01-27_260595134347_rgbf000116-resize_2-target.png,1000,3.452,65,3778,999,meters,jsons/v1_VE1000_randls_16.json,890859,1073349,42,Woman
37,624901,DepthScenes,duration_manipulation_targetAtFixation,jsons/v1_VE1000_randls_16.json,http://54.235.29.9/FacialAge/BNav_EC2/DepthDuration/v2_depth_duration_MTurk/v2_DepthDuration_HTML.html#22,22,1440,900,1440,900,8-22-2022,7-59-45,38,depth_duration_stimuli/001450_2014-06-19_17-02-03_260595134347_rgbf000203-resize_4/001450_2014-06-19_17-02-03_260595134347_rgbf000203-resize_4-target.png,1000,4.0106666666667,60,6690,1000,meters,jsons/v1_VE1000_randls_16.json,890859,1073349,42,Woman
38,624901,DepthScenes,duration_manipulation_targetAtFixation,jsons/v1_VE1000_randls_16.json,http://54.235.29.9/FacialAge/BNav_EC2/DepthDuration/v2_depth_duration_MTurk/v2_DepthDuration_HTML.html#22,22,1440,900,1440,900,8-22-2022,7-59-45,39,depth_duration_stimuli/001059_2014-06-08_21-53-27_260595134347_rgbf000061-resize_4/001059_2014-06-08_21-53-27_260595134347_rgbf000061-resize_4-target.png,1000,2.4185,70,3778,999,meters,jsons/v1_VE1000_randls_16.json,890859,1073349,42,Woman
39,624901,DepthScenes,duration_manipulation_targetAtFixation,jsons/v1_VE1000_randls_16.json,http://54.235.29.9/FacialAge/BNav_EC2/DepthDuration/v2_depth_duration_MTurk/v2_DepthDuration_HTML.html#22,22,1440,900,1440,900,8-22-2022,7-59-45,40,depth_duration_stimuli/001032_2014-06-08_13-23-17_260595134347_rgbf000021-resize_3/001032_2014-06-08_13-23-17_260595134347_rgbf000021-resize_3-target.png,1000,3.2725,75,4066,999,meters,jsons/v1_VE1000_randls_16.json,890859,1073349,42,Woman
40,624901,DepthScenes,duration_manipulation_targetAtFixation,jsons/v1_VE1000_randls_16.json,http://54.235.29.9/FacialAge/BNav_EC2/DepthDuration/v2_depth_duration_MTurk/v2_DepthDuration_HTML.html#22,22,1440,900,1440,900,8-22-2022,7-59-45,41,depth_duration_stimuli/002788_2014-06-22_19-36-03_094959634447_rgbf000088-resize_2/002788_2014-06-22_19-36-03_094959634447_rgbf000088-resize_2-target.png,1000,1.6465,65,4381,999,meters,jsons/v1_VE1000_randls_16.json,890859,1073349,42,Woman
41,624901,DepthScenes,duration_manipulation_targetAtFixation,jsons/v1_VE1000_randls_16.json,http://54.235.29.9/FacialAge/BNav_EC2/DepthDuration/v2_depth_duration_MTurk/v2_DepthDuration_HTML.html#22,22,1440,900,1440,900,8-22-2022,7-59-45,42,depth_duration_stimuli/000749_2014-06-08_21-55-06_260595134347_rgbf000070-resize_2/000749_2014-06-08_21-55-06_260595134347_rgbf000070-resize_2-target.png,1000,2.331,75,4058,999,meters,jsons/v1_VE1000_randls_16.json,890859,1073349,42,Woman
42,624901,DepthScenes,duration_manipulation_targetAtFixation,jsons/v1_VE1000_randls_16.json,http://54.235.29.9/FacialAge/BNav_EC2/DepthDuration/v2_depth_duration_MTurk/v2_DepthDuration_HTML.html#22,22,1440,900,1440,900,8-22-2022,7-59-45,43,depth_duration_stimuli/002375_2014-06-28_20-13-44_260595134347_rgbf000032-resize_1/002375_2014-06-28_20-13-44_260595134347_rgbf000032-resize_1-target.png,1000,4.0175,60,5481,1000,meters,jsons/v1_VE1000_randls_16.json,890859,1073349,42,Woman
43,624901,DepthScenes,duration_manipulation_targetAtFixation,jsons/v1_VE1000_randls_16.json,http://54.235.29.9/FacialAge/BNav_EC2/DepthDuration/v2_depth_duration_MTurk/v2_DepthDuration_HTML.html#22,22,1440,900,1440,900,8-22-2022,7-59-45,44,depth_duration_stimuli/002657_2014-06-13_15-29-54_094959634447_rgbf000150-resize_1/002657_2014-06-13_15-29-54_094959634447_rgbf000150-resize_1-target.png,1000,4.919,70,3818,999,meters,jsons/v1_VE1000_randls_16.json,890859,1073349,42,Woman
44,624901,DepthScenes,duration_manipulation_targetAtFixation,jsons/v1_VE1000_randls_16.json,http://54.235.29.9/FacialAge/BNav_EC2/DepthDuration/v2_depth_duration_MTurk/v2_DepthDuration_HTML.html#22,22,1440,900,1440,900,8-22-2022,7-59-45,45,depth_duration_stimuli/000787_2014-06-08_22-33-53_260595134347_rgbf000175-resize_1/000787_2014-06-08_22-33-53_260595134347_rgbf000175-resize-original.jpg,1000,4.784,0,3354,999,meters,jsons/v1_VE1000_randls_16.json,890859,1073349,42,Woman
45,624901,DepthScenes,duration_manipulation_targetAtFixation,jsons/v1_VE1000_randls_16.json,http://54.235.29.9/FacialAge/BNav_EC2/DepthDuration/v2_depth_duration_MTurk/v2_DepthDuration_HTML.html#22,22,1440,900,1440,900,8-22-2022,7-59-45,46,depth_duration_stimuli/001029_2014-06-08_13-17-57_260595134347_rgbf000065-resize_1/001029_2014-06-08_13-17-57_260595134347_rgbf000065-resize_1-target.png,1000,3.0835,75,4099,1000,meters,jsons/v1_VE1000_randls_16.json,890859,1073349,42,Woman
46,624901,DepthScenes,duration_manipulation_targetAtFixation,jsons/v1_VE1000_randls_16.json,http://54.235.29.9/FacialAge/BNav_EC2/DepthDuration/v2_depth_duration_MTurk/v2_DepthDuration_HTML.html#22,22,1440,900,1440,900,8-22-2022,7-59-45,47,depth_duration_stimuli/000677_2014-06-08_23-10-32_260595134347_rgbf000158-resize_6/000677_2014-06-08_23-10-32_260595134347_rgbf000158-resize_6-target.png,1000,3.556,65,4130,1000,meters,jsons/v1_VE1000_randls_16.json,890859,1073349,42,Woman
47,624901,DepthScenes,duration_manipulation_targetAtFixation,jsons/v1_VE1000_randls_16.json,http://54.235.29.9/FacialAge/BNav_EC2/DepthDuration/v2_depth_duration_MTurk/v2_DepthDuration_HTML.html#22,22,1440,900,1440,900,8-22-2022,7-59-45,48,depth_duration_stimuli/000810_2014-06-08_17-20-01_260595134347_rgbf000105-resize_0/000810_2014-06-08_17-20-01_260595134347_rgbf000105-resize_0-target.png,1000,1.4865,75,4811,999,meters,jsons/v1_VE1000_randls_16.json,890859,1073349,42,Woman
48,624901,DepthScenes,duration_manipulation_targetAtFixation,jsons/v1_VE1000_randls_16.json,http://54.235.29.9/FacialAge/BNav_EC2/DepthDuration/v2_depth_duration_MTurk/v2_DepthDuration_HTML.html#22,22,1440,900,1440,900,8-22-2022,7-59-45,49,depth_duration_stimuli/001214_2014-06-17_16-13-55_260595134347_rgbf000111-resize_0/001214_2014-06-17_16-13-55_260595134347_rgbf000111-resize_0-target.png,1000,2.6505,65,4426,999,meters,jsons/v1_VE1000_randls_16.json,890859,1073349,42,Woman
49,624901,DepthScenes,duration_manipulation_targetAtFixation,jsons/v1_VE1000_randls_16.json,http://54.235.29.9/FacialAge/BNav_EC2/DepthDuration/v2_depth_duration_MTurk/v2_DepthDuration_HTML.html#22,22,1440,900,1440,900,8-22-2022,7-59-45,50,depth_duration_stimuli/003292_2014-05-14_21-53-49_094959634447_rgbf000100-resize_2/003292_2014-05-14_21-53-49_094959634447_rgbf000100-resize_2-target.png,1000,3.4815,75,4042,999,meters,jsons/v1_VE1000_randls_16.json,890859,1073349,42,Woman
50,624901,DepthScenes,duration_manipulation_targetAtFixation,jsons/v1_VE1000_randls_16.json,http://54.235.29.9/FacialAge/BNav_EC2/DepthDuration/v2_depth_duration_MTurk/v2_DepthDuration_HTML.html#22,22,1440,900,1440,900,8-22-2022,7-59-45,51,depth_duration_stimuli/002639_2014-06-24_14-51-37_094959634447_rgbf000074-resize_4/002639_2014-06-24_14-51-37_094959634447_rgbf000074-resize_4-target.png,1000,4.0375,65,4161,1003,meters,jsons/v1_VE1000_randls_16.json,890859,1073349,42,Woman
51,624901,DepthScenes,duration_manipulation_targetAtFixation,jsons/v1_VE1000_randls_16.json,http://54.235.29.9/FacialAge/BNav_EC2/DepthDuration/v2_depth_duration_MTurk/v2_DepthDuration_HTML.html#22,22,1440,900,1440,900,8-22-2022,7-59-45,52,depth_duration_stimuli/002763_2014-06-22_19-13-10_094959634447_rgbf000075-resize_4/002763_2014-06-22_19-13-10_094959634447_rgbf000075-resize_4-target.png,1000,1.68375,70,4283,999,meters,jsons/v1_VE1000_randls_16.json,890859,1073349,42,Woman
52,624901,DepthScenes,duration_manipulation_targetAtFixation,jsons/v1_VE1000_randls_16.json,http://54.235.29.9/FacialAge/BNav_EC2/DepthDuration/v2_depth_duration_MTurk/v2_DepthDuration_HTML.html#22,22,1440,900,1440,900,8-22-2022,7-59-45,53,depth_duration_stimuli/002209_2014-06-28_18-36-10_260595134347_rgbf000051-resize_1/002209_2014-06-28_18-36-10_260595134347_rgbf000051-resize_1-target.png,1000,2.057,65,5876,1000,meters,jsons/v1_VE1000_randls_16.json,890859,1073349,42,Woman
53,624901,DepthScenes,duration_manipulation_targetAtFixation,jsons/v1_VE1000_randls_16.json,http://54.235.29.9/FacialAge/BNav_EC2/DepthDuration/v2_depth_duration_MTurk/v2_DepthDuration_HTML.html#22,22,1440,900,1440,900,8-22-2022,7-59-45,54,depth_duration_stimuli/001808_2014-06-26_20-50-58_260595134347_rgbf000029-resize_1/001808_2014-06-26_20-50-58_260595134347_rgbf000029-resize_1-target.png,1000,4.249,70,3753,1000,meters,jsons/v1_VE1000_randls_16.json,890859,1073349,42,Woman
54,624901,DepthScenes,duration_manipulation_targetAtFixation,jsons/v1_VE1000_randls_16.json,http://54.235.29.9/FacialAge/BNav_EC2/DepthDuration/v2_depth_duration_MTurk/v2_DepthDuration_HTML.html#22,22,1440,900,1440,900,8-22-2022,7-59-45,55,depth_duration_stimuli/001815_2014-06-26_20-52-55_260595134347_rgbf000020-resize_0/001815_2014-06-26_20-52-55_260595134347_rgbf000020-resize_0-target.png,1000,3.3865,65,4313,999,meters,jsons/v1_VE1000_randls_16.json,890859,1073349,42,Woman
55,624901,DepthScenes,duration_manipulation_targetAtFixation,jsons/v1_VE1000_randls_16.json,http://54.235.29.9/FacialAge/BNav_EC2/DepthDuration/v2_depth_duration_MTurk/v2_DepthDuration_HTML.html#22,22,1440,900,1440,900,8-22-2022,7-59-45,56,depth_duration_stimuli/002057_2014-06-24_21-00-13_260595134347_rgbf000120-resize_1/002057_2014-06-24_21-00-13_260595134347_rgbf000120-resize_1-target.png,1000,2.967,75,3961,1001,meters,jsons/v1_VE1000_randls_16.json,890859,1073349,42,Woman
56,624901,DepthScenes,duration_manipulation_targetAtFixation,jsons/v1_VE1000_randls_16.json,http://54.235.29.9/FacialAge/BNav_EC2/DepthDuration/v2_depth_duration_MTurk/v2_DepthDuration_HTML.html#22,22,1440,900,1440,900,8-22-2022,7-59-45,57,depth_duration_stimuli/000709_2014-06-08_13-51-55_260595134347_rgbf000068-resize_3/000709_2014-06-08_13-51-55_260595134347_rgbf000068-resize_3-target.png,1000,1.8030000000000002,60,3915,999,meters,jsons/v1_VE1000_randls_16.json,890859,1073349,42,Woman
57,624901,DepthScenes,duration_manipulation_targetAtFixation,jsons/v1_VE1000_randls_16.json,http://54.235.29.9/FacialAge/BNav_EC2/DepthDuration/v2_depth_duration_MTurk/v2_DepthDuration_HTML.html#22,22,1440,900,1440,900,8-22-2022,7-59-45,58,depth_duration_stimuli/000917_2014-06-09_22-45-29_260595134347_rgbf000149-resize_3/000917_2014-06-09_22-45-29_260595134347_rgbf000149-resize_3-target.png,1000,4.1865,70,6505,1002,meters,jsons/v1_VE1000_randls_16.json,890859,1073349,42,Woman
58,624901,DepthScenes,duration_manipulation_targetAtFixation,jsons/v1_VE1000_randls_16.json,http://54.235.29.9/FacialAge/BNav_EC2/DepthDuration/v2_depth_duration_MTurk/v2_DepthDuration_HTML.html#22,22,1440,900,1440,900,8-22-2022,7-59-45,59,depth_duration_stimuli/002323_2014-06-28_20-01-54_260595134347_rgbf000051-resize_4/002323_2014-06-28_20-01-54_260595134347_rgbf000051-resize_4-target.png,1000,3.7310000000000003,60,4403,999,meters,jsons/v1_VE1000_randls_16.json,890859,1073349,42,Woman
59,624901,DepthScenes,duration_manipulation_targetAtFixation,jsons/v1_VE1000_randls_16.json,http://54.235.29.9/FacialAge/BNav_EC2/DepthDuration/v2_depth_duration_MTurk/v2_DepthDuration_HTML.html#22,22,1440,900,1440,900,8-22-2022,7-59-45,60,depth_duration_stimuli/001175_2014-06-17_15-45-55_260595134347_rgbf000129-resize_4/001175_2014-06-17_15-45-55_260595134347_rgbf000129-resize_4-target.png,1000,4.255,70,3953,998,meters,jsons/v1_VE1000_randls_16.json,890859,1073349,42,Woman
60,624901,DepthScenes,duration_manipulation_targetAtFixation,jsons/v1_VE1000_randls_16.json,http://54.235.29.9/FacialAge/BNav_EC2/DepthDuration/v2_depth_duration_MTurk/v2_DepthDuration_HTML.html#22,22,1440,900,1440,900,8-22-2022,7-59-45,61,depth_duration_stimuli/003490_2014-05-21_15-50-11_094959634447_rgbf000101-resize_3/003490_2014-05-21_15-50-11_094959634447_rgbf000101-resize_3-target.png,1000,3.6445,65,3876,1000,meters,jsons/v1_VE1000_randls_16.json,890859,1073349,42,Woman
61,624901,DepthScenes,duration_manipulation_targetAtFixation,jsons/v1_VE1000_randls_16.json,http://54.235.29.9/FacialAge/BNav_EC2/DepthDuration/v2_depth_duration_MTurk/v2_DepthDuration_HTML.html#22,22,1440,900,1440,900,8-22-2022,7-59-45,62,depth_duration_stimuli/000436_2014-06-09_22-25-11_260595134347_rgbf000137-resize_1/000436_2014-06-09_22-25-11_260595134347_rgbf000137-resize_1-target.png,1000,4.0705,65,14242,1000,meters,jsons/v1_VE1000_randls_16.json,890859,1073349,42,Woman
62,624901,DepthScenes,duration_manipulation_targetAtFixation,jsons/v1_VE1000_randls_16.json,http://54.235.29.9/FacialAge/BNav_EC2/DepthDuration/v2_depth_duration_MTurk/v2_DepthDuration_HTML.html#22,22,1440,900,1440,900,8-22-2022,7-59-45,63,depth_duration_stimuli/002444_2014-06-28_20-32-08_260595134347_rgbf000027-resize_0/002444_2014-06-28_20-32-08_260595134347_rgbf000027-resize_0-target.png,1000,4.388999999999999,70,4410,990,meters,jsons/v1_VE1000_randls_16.json,890859,1073349,42,Woman
63,624901,DepthScenes,duration_manipulation_targetAtFixation,jsons/v1_VE1000_randls_16.json,http://54.235.29.9/FacialAge/BNav_EC2/DepthDuration/v2_depth_duration_MTurk/v2_DepthDuration_HTML.html#22,22,1440,900,1440,900,8-22-2022,7-59-45,64,depth_duration_stimuli/003070_2014-06-15_14-58-27_094959634447_rgbf000150-resize_3/003070_2014-06-15_14-58-27_094959634447_rgbf000150-resize_3-target.png,1000,2.9415,65,3937,998,meters,jsons/v1_VE1000_randls_16.json,890859,1073349,42,Woman
64,624901,DepthScenes,duration_manipulation_targetAtFixation,jsons/v1_VE1000_randls_16.json,http://54.235.29.9/FacialAge/BNav_EC2/DepthDuration/v2_depth_duration_MTurk/v2_DepthDuration_HTML.html#22,22,1440,900,1440,900,8-22-2022,7-59-45,65,depth_duration_stimuli/000943_2014-06-09_19-31-07_260595134347_rgbf000128-resize_1/000943_2014-06-09_19-31-07_260595134347_rgbf000128-resize_1-target.png,1000,1.9765,70,3666,999,meters,jsons/v1_VE1000_randls_16.json,890859,1073349,42,Woman
65,624901,DepthScenes,duration_manipulation_targetAtFixation,jsons/v1_VE1000_randls_16.json,http://54.235.29.9/FacialAge/BNav_EC2/DepthDuration/v2_depth_duration_MTurk/v2_DepthDuration_HTML.html#22,22,1440,900,1440,900,8-22-2022,7-59-45,66,depth_duration_stimuli/001222_2014-06-17_16-24-06_260595134347_rgbf000073-resize_0/001222_2014-06-17_16-24-06_260595134347_rgbf000073-resize-original.jpg,1000,1.4385,0,3640,999,meters,jsons/v1_VE1000_randls_16.json,890859,1073349,42,Woman
66,624901,DepthScenes,duration_manipulation_targetAtFixation,jsons/v1_VE1000_randls_16.json,http://54.235.29.9/FacialAge/BNav_EC2/DepthDuration/v2_depth_duration_MTurk/v2_DepthDuration_HTML.html#22,22,1440,900,1440,900,8-22-2022,7-59-45,67,depth_duration_stimuli/001164_2014-06-17_15-35-46_260595134347_rgbf000085-resize_3/001164_2014-06-17_15-35-46_260595134347_rgbf000085-resize_3-target.png,1000,2.354,75,3571,1000,meters,jsons/v1_VE1000_randls_16.json,890859,1073349,42,Woman
67,624901,DepthScenes,duration_manipulation_targetAtFixation,jsons/v1_VE1000_randls_16.json,http://54.235.29.9/FacialAge/BNav_EC2/DepthDuration/v2_depth_duration_MTurk/v2_DepthDuration_HTML.html#22,22,1440,900,1440,900,8-22-2022,7-59-45,68,depth_duration_stimuli/001136_2014-06-17_15-19-41_260595134347_rgbf000076-resize_3/001136_2014-06-17_15-19-41_260595134347_rgbf000076-resize_3-target.png,1000,1.8655,65,4473,999,meters,jsons/v1_VE1000_randls_16.json,890859,1073349,42,Woman
68,624901,DepthScenes,duration_manipulation_targetAtFixation,jsons/v1_VE1000_randls_16.json,http://54.235.29.9/FacialAge/BNav_EC2/DepthDuration/v2_depth_duration_MTurk/v2_DepthDuration_HTML.html#22,22,1440,900,1440,900,8-22-2022,7-59-45,69,depth_duration_stimuli/000414_2014-06-04_19-49-13_260595134347_rgbf000044-resize_0/000414_2014-06-04_19-49-13_260595134347_rgbf000044-resize_0-target.png,1000,4.329,70,5937,998,meters,jsons/v1_VE1000_randls_16.json,890859,1073349,42,Woman
69,624901,DepthScenes,duration_manipulation_targetAtFixation,jsons/v1_VE1000_randls_16.json,http://54.235.29.9/FacialAge/BNav_EC2/DepthDuration/v2_depth_duration_MTurk/v2_DepthDuration_HTML.html#22,22,1440,900,1440,900,8-22-2022,7-59-45,70,depth_duration_stimuli/003129_2014-05-12_10-48-10_094959634447_rgbf000100-resize_0/003129_2014-05-12_10-48-10_094959634447_rgbf000100-resize_0-target.png,1000,4.9305,65,6218,986,meters,jsons/v1_VE1000_randls_16.json,890859,1073349,42,Woman
70,624901,DepthScenes,duration_manipulation_targetAtFixation,jsons/v1_VE1000_randls_16.json,http://54.235.29.9/FacialAge/BNav_EC2/DepthDuration/v2_depth_duration_MTurk/v2_DepthDuration_HTML.html#22,22,1440,900,1440,900,8-22-2022,7-59-45,71,depth_duration_stimuli/001158_2014-06-17_15-32-16_260595134347_rgbf000138-resize_2/001158_2014-06-17_15-32-16_260595134347_rgbf000138-resize_2-target.png,1000,4.5315,70,5232,991,meters,jsons/v1_VE1000_randls_16.json,890859,1073349,42,Woman
71,624901,DepthScenes,duration_manipulation_targetAtFixation,jsons/v1_VE1000_randls_16.json,http://54.235.29.9/FacialAge/BNav_EC2/DepthDuration/v2_depth_duration_MTurk/v2_DepthDuration_HTML.html#22,22,1440,900,1440,900,8-22-2022,7-59-45,72,depth_duration_stimuli/000556_2014-06-09_22-42-56_260595134347_rgbf000214-resize_1/000556_2014-06-09_22-42-56_260595134347_rgbf000214-resize_1-target.png,1000,4.8415,65,4632,998,meters,jsons/v1_VE1000_randls_16.json,890859,1073349,42,Woman
72,624901,DepthScenes,duration_manipulation_targetAtFixation,jsons/v1_VE1000_randls_16.json,http://54.235.29.9/FacialAge/BNav_EC2/DepthDuration/v2_depth_duration_MTurk/v2_DepthDuration_HTML.html#22,22,1440,900,1440,900,8-22-2022,7-59-45,73,depth_duration_stimuli/001167_2014-06-17_15-38-07_260595134347_rgbf000108-resize_0/001167_2014-06-17_15-38-07_260595134347_rgbf000108-resize_0-target.png,1000,1.8505,70,4850,1002,meters,jsons/v1_VE1000_randls_16.json,890859,1073349,42,Woman
73,624901,DepthScenes,duration_manipulation_targetAtFixation,jsons/v1_VE1000_randls_16.json,http://54.235.29.9/FacialAge/BNav_EC2/DepthDuration/v2_depth_duration_MTurk/v2_DepthDuration_HTML.html#22,22,1440,900,1440,900,8-22-2022,7-59-45,74,depth_duration_stimuli/003587_2014-05-23_16-48-02_094959634447_rgbf002384-resize_2/003587_2014-05-23_16-48-02_094959634447_rgbf002384-resize_2-target.png,1000,1.357,60,4859,1003,meters,jsons/v1_VE1000_randls_16.json,890859,1073349,42,Woman
74,624901,DepthScenes,duration_manipulation_targetAtFixation,jsons/v1_VE1000_randls_16.json,http://54.235.29.9/FacialAge/BNav_EC2/DepthDuration/v2_depth_duration_MTurk/v2_DepthDuration_HTML.html#22,22,1440,900,1440,900,8-22-2022,7-59-45,75,depth_duration_stimuli/000522_2014-06-08_13-35-06_260595134347_rgbf000244-resize_1/000522_2014-06-08_13-35-06_260595134347_rgbf000244-resize_1-target.png,1000,2.3715,75,4657,998,meters,jsons/v1_VE1000_randls_16.json,890859,1073349,42,Woman
75,624901,DepthScenes,duration_manipulation_targetAtFixation,jsons/v1_VE1000_randls_16.json,http://54.235.29.9/FacialAge/BNav_EC2/DepthDuration/v2_depth_duration_MTurk/v2_DepthDuration_HTML.html#22,22,1440,900,1440,900,8-22-2022,7-59-45,76,depth_duration_stimuli/002949_2014-06-26_15-57-42_094959634447_rgbf000079-resize_1/002949_2014-06-26_15-57-42_094959634447_rgbf000079-resize_1-target.png,1000,1.8915,75,13313,999,meters,jsons/v1_VE1000_randls_16.json,890859,1073349,42,Woman
76,624901,DepthScenes,duration_manipulation_targetAtFixation,jsons/v1_VE1000_randls_16.json,http://54.235.29.9/FacialAge/BNav_EC2/DepthDuration/v2_depth_duration_MTurk/v2_DepthDuration_HTML.html#22,22,1440,900,1440,900,8-22-2022,7-59-45,77,depth_duration_stimuli/000493_2014-06-09_21-01-18_260595134347_rgbf000196-resize_3/000493_2014-06-09_21-01-18_260595134347_rgbf000196-resize_3-target.png,1000,3.44,60,5353,1000,meters,jsons/v1_VE1000_randls_16.json,890859,1073349,42,Woman
77,624901,DepthScenes,duration_manipulation_targetAtFixation,jsons/v1_VE1000_randls_16.json,http://54.235.29.9/FacialAge/BNav_EC2/DepthDuration/v2_depth_duration_MTurk/v2_DepthDuration_HTML.html#22,22,1440,900,1440,900,8-22-2022,7-59-45,78,depth_duration_stimuli/000191_2014-05-12_17-07-38_260595134347_rgbf000199-resize_0/000191_2014-05-12_17-07-38_260595134347_rgbf000199-resize_0-target.png,1000,3.7995,70,4977,1001,meters,jsons/v1_VE1000_randls_16.json,890859,1073349,42,Woman
78,624901,DepthScenes,duration_manipulation_targetAtFixation,jsons/v1_VE1000_randls_16.json,http://54.235.29.9/FacialAge/BNav_EC2/DepthDuration/v2_depth_duration_MTurk/v2_DepthDuration_HTML.html#22,22,1440,900,1440,900,8-22-2022,7-59-45,79,depth_duration_stimuli/000878_2014-06-08_22-52-45_260595134347_rgbf000045-resize_2/000878_2014-06-08_22-52-45_260595134347_rgbf000045-resize_2-target.png,1000,2.092,75,4851,1001,meters,jsons/v1_VE1000_randls_16.json,890859,1073349,42,Woman
79,624901,DepthScenes,duration_manipulation_targetAtFixation,jsons/v1_VE1000_randls_16.json,http://54.235.29.9/FacialAge/BNav_EC2/DepthDuration/v2_depth_duration_MTurk/v2_DepthDuration_HTML.html#22,22,1440,900,1440,900,8-22-2022,7-59-45,80,depth_duration_stimuli/002953_2014-06-08_17-32-18_094959634447_rgbf000059-resize_5/002953_2014-06-08_17-32-18_094959634447_rgbf000059-resize_5-target.png,1000,1.551,75,4057,999,meters,jsons/v1_VE1000_randls_16.json,890859,1073349,42,Woman
80,624901,DepthScenes,duration_manipulation_targetAtFixation,jsons/v1_VE1000_randls_16.json,http://54.235.29.9/FacialAge/BNav_EC2/DepthDuration/v2_depth_duration_MTurk/v2_DepthDuration_HTML.html#22,22,1440,900,1440,900,8-22-2022,7-59-45,81,depth_duration_stimuli/003492_2014-05-21_15-50-55_094959634447_rgbf000828-resize_1/003492_2014-05-21_15-50-55_094959634447_rgbf000828-resize_1-target.png,1000,4.06875,75,4899,1003,meters,jsons/v1_VE1000_randls_16.json,890859,1073349,42,Woman
81,624901,DepthScenes,duration_manipulation_targetAtFixation,jsons/v1_VE1000_randls_16.json,http://54.235.29.9/FacialAge/BNav_EC2/DepthDuration/v2_depth_duration_MTurk/v2_DepthDuration_HTML.html#22,22,1440,900,1440,900,8-22-2022,7-59-45,82,depth_duration_stimuli/002568_2014-06-24_13-59-21_094959634447_rgbf000062-resize_4/002568_2014-06-24_13-59-21_094959634447_rgbf000062-resize_4-target.png,1000,3.015,80,5238,1000,meters,jsons/v1_VE1000_randls_16.json,890859,1073349,42,Woman
82,624901,DepthScenes,duration_manipulation_targetAtFixation,jsons/v1_VE1000_randls_16.json,http://54.235.29.9/FacialAge/BNav_EC2/DepthDuration/v2_depth_duration_MTurk/v2_DepthDuration_HTML.html#22,22,1440,900,1440,900,8-22-2022,7-59-45,83,depth_duration_stimuli/000682_2014-06-08_23-14-58_260595134347_rgbf000041-resize_5/000682_2014-06-08_23-14-58_260595134347_rgbf000041-resize_5-target.png,1000,2.7239999999999998,70,3791,999,meters,jsons/v1_VE1000_randls_16.json,890859,1073349,42,Woman
83,624901,DepthScenes,duration_manipulation_targetAtFixation,jsons/v1_VE1000_randls_16.json,http://54.235.29.9/FacialAge/BNav_EC2/DepthDuration/v2_depth_duration_MTurk/v2_DepthDuration_HTML.html#22,22,1440,900,1440,900,8-22-2022,7-59-45,84,depth_duration_stimuli/001650_2014-06-20_12-09-00_260595134347_rgbf000087-resize_3/001650_2014-06-20_12-09-00_260595134347_rgbf000087-resize_3-target.png,1000,1.9505,75,4713,999,meters,jsons/v1_VE1000_randls_16.json,890859,1073349,42,Woman
84,624901,DepthScenes,duration_manipulation_targetAtFixation,jsons/v1_VE1000_randls_16.json,http://54.235.29.9/FacialAge/BNav_EC2/DepthDuration/v2_depth_duration_MTurk/v2_DepthDuration_HTML.html#22,22,1440,900,1440,900,8-22-2022,7-59-45,85,depth_duration_stimuli/001570_2014-06-20_17-21-09_260595134347_rgbf000135-resize_4/001570_2014-06-20_17-21-09_260595134347_rgbf000135-resize_4-target.png,1000,4.467,60,5370,1001,meters,jsons/v1_VE1000_randls_16.json,890859,1073349,42,Woman
85,624901,DepthScenes,duration_manipulation_targetAtFixation,jsons/v1_VE1000_randls_16.json,http://54.235.29.9/FacialAge/BNav_EC2/DepthDuration/v2_depth_duration_MTurk/v2_DepthDuration_HTML.html#22,22,1440,900,1440,900,8-22-2022,7-59-45,86,depth_duration_stimuli/001392_2014-06-19_16-07-59_260595134347_rgbf000046-resize_1/001392_2014-06-19_16-07-59_260595134347_rgbf000046-resize_1-target.png,1000,4.135,75,3594,998,meters,jsons/v1_VE1000_randls_16.json,890859,1073349,42,Woman
86,624901,DepthScenes,duration_manipulation_targetAtFixation,jsons/v1_VE1000_randls_16.json,http://54.235.29.9/FacialAge/BNav_EC2/DepthDuration/v2_depth_duration_MTurk/v2_DepthDuration_HTML.html#22,22,1440,900,1440,900,8-22-2022,7-59-45,87,depth_duration_stimuli/000447_2014-06-08_16-15-46_260595134347_rgbf000130-resize_1/000447_2014-06-08_16-15-46_260595134347_rgbf000130-resize_1-target.png,1000,4.479,60,3938,999,meters,jsons/v1_VE1000_randls_16.json,890859,1073349,42,Woman
87,624901,DepthScenes,duration_manipulation_targetAtFixation,jsons/v1_VE1000_randls_16.json,http://54.235.29.9/FacialAge/BNav_EC2/DepthDuration/v2_depth_duration_MTurk/v2_DepthDuration_HTML.html#22,22,1440,900,1440,900,8-22-2022,7-59-45,88,depth_duration_stimuli/001447_2014-06-19_17-00-32_260595134347_rgbf000082-resize_5/001447_2014-06-19_17-00-32_260595134347_rgbf000082-resize_5-target.png,1000,4.13775,70,3850,999,meters,jsons/v1_VE1000_randls_16.json,890859,1073349,42,Woman
88,624901,DepthScenes,duration_manipulation_targetAtFixation,jsons/v1_VE1000_randls_16.json,http://54.235.29.9/FacialAge/BNav_EC2/DepthDuration/v2_depth_duration_MTurk/v2_DepthDuration_HTML.html#22,22,1440,900,1440,900,8-22-2022,7-59-45,89,depth_duration_stimuli/001199_2014-06-17_16-03-48_260595134347_rgbf000077-resize_0/001199_2014-06-17_16-03-48_260595134347_rgbf000077-resize_0-target.png,1000,3.4375,60,4139,1000,meters,jsons/v1_VE1000_randls_16.json,890859,1073349,42,Woman
89,624901,DepthScenes,duration_manipulation_targetAtFixation,jsons/v1_VE1000_randls_16.json,http://54.235.29.9/FacialAge/BNav_EC2/DepthDuration/v2_depth_duration_MTurk/v2_DepthDuration_HTML.html#22,22,1440,900,1440,900,8-22-2022,7-59-45,90,depth_duration_stimuli/000502_2014-06-08_23-02-32_260595134347_rgbf000063-resize_4/000502_2014-06-08_23-02-32_260595134347_rgbf000063-resize_4-target.png,1000,2.431,65,4987,1000,meters,jsons/v1_VE1000_randls_16.json,890859,1073349,42,Woman
90,624901,DepthScenes,duration_manipulation_targetAtFixation,jsons/v1_VE1000_randls_16.json,http://54.235.29.9/FacialAge/BNav_EC2/DepthDuration/v2_depth_duration_MTurk/v2_DepthDuration_HTML.html#22,22,1440,900,1440,900,8-22-2022,7-59-45,91,depth_duration_stimuli/000368_2014-06-09_15-53-01_260595134347_rgbf000155-resize_2/000368_2014-06-09_15-53-01_260595134347_rgbf000155-resize_2-target.png,1000,2.4859999999999998,70,4090,999,meters,jsons/v1_VE1000_randls_16.json,890859,1073349,42,Woman
91,624901,DepthScenes,duration_manipulation_targetAtFixation,jsons/v1_VE1000_randls_16.json,http://54.235.29.9/FacialAge/BNav_EC2/DepthDuration/v2_depth_duration_MTurk/v2_DepthDuration_HTML.html#22,22,1440,900,1440,900,8-22-2022,7-59-45,92,depth_duration_stimuli/002678_2014-06-13_16-15-32_094959634447_rgbf000151-resize_6/002678_2014-06-13_16-15-32_094959634447_rgbf000151-resize_6-target.png,1000,2.1830000000000003,65,4390,990,meters,jsons/v1_VE1000_randls_16.json,890859,1073349,42,Woman
92,624901,DepthScenes,duration_manipulation_targetAtFixation,jsons/v1_VE1000_randls_16.json,http://54.235.29.9/FacialAge/BNav_EC2/DepthDuration/v2_depth_duration_MTurk/v2_DepthDuration_HTML.html#22,22,1440,900,1440,900,8-22-2022,7-59-45,93,depth_duration_stimuli/001244_2014-06-17_16-47-45_260595134347_rgbf000030-resize_4/001244_2014-06-17_16-47-45_260595134347_rgbf000030-resize_4-target.png,1000,2.0425,75,3880,999,meters,jsons/v1_VE1000_randls_16.json,890859,1073349,42,Woman
93,624901,DepthScenes,duration_manipulation_targetAtFixation,jsons/v1_VE1000_randls_16.json,http://54.235.29.9/FacialAge/BNav_EC2/DepthDuration/v2_depth_duration_MTurk/v2_DepthDuration_HTML.html#22,22,1440,900,1440,900,8-22-2022,7-59-45,94,depth_duration_stimuli/003495_2014-05-21_16-01-51_094959634447_rgbf000100-resize_3/003495_2014-05-21_16-01-51_094959634447_rgbf000100-resize_3-target.png,1000,1.6255,60,4022,999,meters,jsons/v1_VE1000_randls_16.json,890859,1073349,42,Woman
94,624901,DepthScenes,duration_manipulation_targetAtFixation,jsons/v1_VE1000_randls_16.json,http://54.235.29.9/FacialAge/BNav_EC2/DepthDuration/v2_depth_duration_MTurk/v2_DepthDuration_HTML.html#22,22,1440,900,1440,900,8-22-2022,7-59-45,95,depth_duration_stimuli/002039_2014-06-24_20-22-38_260595134347_rgbf000084-resize_1/002039_2014-06-24_20-22-38_260595134347_rgbf000084-resize_1-target.png,1000,4.408,75,7833,1000,meters,jsons/v1_VE1000_randls_16.json,890859,1073349,42,Woman
95,624901,DepthScenes,duration_manipulation_targetAtFixation,jsons/v1_VE1000_randls_16.json,http://54.235.29.9/FacialAge/BNav_EC2/DepthDuration/v2_depth_duration_MTurk/v2_DepthDuration_HTML.html#22,22,1440,900,1440,900,8-22-2022,7-59-45,96,depth_duration_stimuli/002103_2014-06-25_20-00-40_260595134347_rgbf000049-resize_0/002103_2014-06-25_20-00-40_260595134347_rgbf000049-resize_0-target.png,1000,4.105,60,4188,1001,meters,jsons/v1_VE1000_randls_16.json,890859,1073349,42,Woman
96,624901,DepthScenes,duration_manipulation_targetAtFixation,jsons/v1_VE1000_randls_16.json,http://54.235.29.9/FacialAge/BNav_EC2/DepthDuration/v2_depth_duration_MTurk/v2_DepthDuration_HTML.html#22,22,1440,900,1440,900,8-22-2022,7-59-45,97,depth_duration_stimuli/002988_2014-06-15_12-24-20_094959634447_rgbf000150-resize_1/002988_2014-06-15_12-24-20_094959634447_rgbf000150-resize_1-target.png,1000,4.7669999999999995,75,6128,999,meters,jsons/v1_VE1000_randls_16.json,890859,1073349,42,Woman
97,624901,DepthScenes,duration_manipulation_targetAtFixation,jsons/v1_VE1000_randls_16.json,http://54.235.29.9/FacialAge/BNav_EC2/DepthDuration/v2_depth_duration_MTurk/v2_DepthDuration_HTML.html#22,22,1440,900,1440,900,8-22-2022,7-59-45,98,depth_duration_stimuli/001052_2014-06-08_18-24-54_260595134347_rgbf000130-resize_1/001052_2014-06-08_18-24-54_260595134347_rgbf000130-resize_1-target.png,1000,4.1045,60,3846,999,meters,jsons/v1_VE1000_randls_16.json,890859,1073349,42,Woman
98,624901,DepthScenes,duration_manipulation_targetAtFixation,jsons/v1_VE1000_randls_16.json,http://54.235.29.9/FacialAge/BNav_EC2/DepthDuration/v2_depth_duration_MTurk/v2_DepthDuration_HTML.html#22,22,1440,900,1440,900,8-22-2022,7-59-45,99,depth_duration_stimuli/001540_2014-06-20_17-01-05_260595134347_rgbf000086-resize_2/001540_2014-06-20_17-01-05_260595134347_rgbf000086-resize-original.jpg,1000,1.459,70,4026,999,meters,jsons/v1_VE1000_randls_16.json,890859,1073349,42,Woman
99,624901,DepthScenes,duration_manipulation_targetAtFixation,jsons/v1_VE1000_randls_16.json,http://54.235.29.9/FacialAge/BNav_EC2/DepthDuration/v2_depth_duration_MTurk/v2_DepthDuration_HTML.html#22,22,1440,900,1440,900,8-22-2022,7-59-45,100,depth_duration_stimuli/000470_2014-06-09_19-42-40_260595134347_rgbf000094-resize_1/000470_2014-06-09_19-42-40_260595134347_rgbf000094-resize_1-target.png,1000,1.831,65,3866,1000,meters,jsons/v1_VE1000_randls_16.json,890859,1073349,42,Woman
100,624901,DepthScenes,duration_manipulation_targetAtFixation,jsons/v1_VE1000_randls_16.json,http://54.235.29.9/FacialAge/BNav_EC2/DepthDuration/v2_depth_duration_MTurk/v2_DepthDuration_HTML.html#22,22,1440,900,1440,900,8-22-2022,7-59-45,101,depth_duration_stimuli/000109_2014-05-14_23-41-52_260595134347_rgbf000035-resize_9/000109_2014-05-14_23-41-52_260595134347_rgbf000035-resize_9-target.png,1000,1.3545,75,4202,998,meters,jsons/v1_VE1000_randls_16.json,890859,1073349,42,Woman
101,624901,DepthScenes,duration_manipulation_targetAtFixation,jsons/v1_VE1000_randls_16.json,http://54.235.29.9/FacialAge/BNav_EC2/DepthDuration/v2_depth_duration_MTurk/v2_DepthDuration_HTML.html#22,22,1440,900,1440,900,8-22-2022,7-59-45,102,depth_duration_stimuli/001806_2014-06-26_20-50-20_260595134347_rgbf000091-resize_1/001806_2014-06-26_20-50-20_260595134347_rgbf000091-resize_1-target.png,1000,2.7305,60,4913,999,meters,jsons/v1_VE1000_randls_16.json,890859,1073349,42,Woman
102,624901,DepthScenes,duration_manipulation_targetAtFixation,jsons/v1_VE1000_randls_16.json,http://54.235.29.9/FacialAge/BNav_EC2/DepthDuration/v2_depth_duration_MTurk/v2_DepthDuration_HTML.html#22,22,1440,900,1440,900,8-22-2022,7-59-45,103,depth_duration_stimuli/001617_2014-06-20_11-35-32_260595134347_rgbf000066-resize_1/001617_2014-06-20_11-35-32_260595134347_rgbf000066-resize_1-target.png,1000,3.7910000000000004,75,4323,1001,meters,jsons/v1_VE1000_randls_16.json,890859,1073349,42,Woman
103,624901,DepthScenes,duration_manipulation_targetAtFixation,jsons/v1_VE1000_randls_16.json,http://54.235.29.9/FacialAge/BNav_EC2/DepthDuration/v2_depth_duration_MTurk/v2_DepthDuration_HTML.html#22,22,1440,900,1440,900,8-22-2022,7-59-45,104,depth_duration_stimuli/000929_2014-06-09_16-33-19_260595134347_rgbf000139-resize_0/000929_2014-06-09_16-33-19_260595134347_rgbf000139-resize_0-target.png,1000,2.8680000000000003,65,4146,999,meters,jsons/v1_VE1000_randls_16.json,890859,1073349,42,Woman
104,624901,DepthScenes,duration_manipulation_targetAtFixation,jsons/v1_VE1000_randls_16.json,http://54.235.29.9/FacialAge/BNav_EC2/DepthDuration/v2_depth_duration_MTurk/v2_DepthDuration_HTML.html#22,22,1440,900,1440,900,8-22-2022,7-59-45,105,depth_duration_stimuli/000457_2014-06-08_16-52-43_260595134347_rgbf000199-resize_1/000457_2014-06-08_16-52-43_260595134347_rgbf000199-resize_1-target.png,1000,3.6489999999999996,70,3402,999,meters,jsons/v1_VE1000_randls_16.json,890859,1073349,42,Woman
105,624901,DepthScenes,duration_manipulation_targetAtFixation,jsons/v1_VE1000_randls_16.json,http://54.235.29.9/FacialAge/BNav_EC2/DepthDuration/v2_depth_duration_MTurk/v2_DepthDuration_HTML.html#22,22,1440,900,1440,900,8-22-2022,7-59-45,106,depth_duration_stimuli/002989_2014-06-15_12-25-03_094959634447_rgbf000150-resize_3/002989_2014-06-15_12-25-03_094959634447_rgbf000150-resize_3-target.png,1000,4.1975,65,4588,1001,meters,jsons/v1_VE1000_randls_16.json,890859,1073349,42,Woman
106,624901,DepthScenes,duration_manipulation_targetAtFixation,jsons/v1_VE1000_randls_16.json,http://54.235.29.9/FacialAge/BNav_EC2/DepthDuration/v2_depth_duration_MTurk/v2_DepthDuration_HTML.html#22,22,1440,900,1440,900,8-22-2022,7-59-45,107,depth_duration_stimuli/000866_2014-06-09_20-45-42_260595134347_rgbf000139-resize_1/000866_2014-06-09_20-45-42_260595134347_rgbf000139-resize_1-target.png,1000,3.2155,70,6363,1000,meters,jsons/v1_VE1000_randls_16.json,890859,1073349,42,Woman
107,624901,DepthScenes,duration_manipulation_targetAtFixation,jsons/v1_VE1000_randls_16.json,http://54.235.29.9/FacialAge/BNav_EC2/DepthDuration/v2_depth_duration_MTurk/v2_DepthDuration_HTML.html#22,22,1440,900,1440,900,8-22-2022,7-59-45,108,depth_duration_stimuli/002279_2014-06-28_18-55-32_260595134347_rgbf000040-resize_5/002279_2014-06-28_18-55-32_260595134347_rgbf000040-resize_5-target.png,1000,1.5043333333333,60,4323,1000,meters,jsons/v1_VE1000_randls_16.json,890859,1073349,42,Woman
108,624901,DepthScenes,duration_manipulation_targetAtFixation,jsons/v1_VE1000_randls_16.json,http://54.235.29.9/FacialAge/BNav_EC2/DepthDuration/v2_depth_duration_MTurk/v2_DepthDuration_HTML.html#22,22,1440,900,1440,900,8-22-2022,7-59-45,109,depth_duration_stimuli/000635_2014-06-08_16-38-42_260595134347_rgbf000106-resize_1/000635_2014-06-08_16-38-42_260595134347_rgbf000106-resize_1-target.png,1000,2.074,70,4185,977,meters,jsons/v1_VE1000_randls_16.json,890859,1073349,42,Woman
109,624901,DepthScenes,duration_manipulation_targetAtFixation,jsons/v1_VE1000_randls_16.json,http://54.235.29.9/FacialAge/BNav_EC2/DepthDuration/v2_depth_duration_MTurk/v2_DepthDuration_HTML.html#22,22,1440,900,1440,900,8-22-2022,7-59-45,110,depth_duration_stimuli/000739_2014-06-08_18-45-58_260595134347_rgbf000068-resize_1/000739_2014-06-08_18-45-58_260595134347_rgbf000068-resize_1-target.png,1000,3.534,70,3963,1001,meters,jsons/v1_VE1000_randls_16.json,890859,1073349,42,Woman
110,624901,DepthScenes,duration_manipulation_targetAtFixation,jsons/v1_VE1000_randls_16.json,http://54.235.29.9/FacialAge/BNav_EC2/DepthDuration/v2_depth_duration_MTurk/v2_DepthDuration_HTML.html#22,22,1440,900,1440,900,8-22-2022,7-59-45,111,depth_duration_stimuli/000734_2014-06-08_17-39-11_260595134347_rgbf000128-resize_2/000734_2014-06-08_17-39-11_260595134347_rgbf000128-resize_2-target.png,1000,4.098,65,4403,999,meters,jsons/v1_VE1000_randls_16.json,890859,1073349,42,Woman
111,624901,DepthScenes,duration_manipulation_targetAtFixation,jsons/v1_VE1000_randls_16.json,http://54.235.29.9/FacialAge/BNav_EC2/DepthDuration/v2_depth_duration_MTurk/v2_DepthDuration_HTML.html#22,22,1440,900,1440,900,8-22-2022,7-59-45,112,depth_duration_stimuli/002043_2014-06-24_20-29-38_260595134347_rgbf000039-resize_4/002043_2014-06-24_20-29-38_260595134347_rgbf000039-resize_4-target.png,1000,2.8435,75,3744,1002,meters,jsons/v1_VE1000_randls_16.json,890859,1073349,42,Woman
112,624901,DepthScenes,duration_manipulation_targetAtFixation,jsons/v1_VE1000_randls_16.json,http://54.235.29.9/FacialAge/BNav_EC2/DepthDuration/v2_depth_duration_MTurk/v2_DepthDuration_HTML.html#22,22,1440,900,1440,900,8-22-2022,7-59-45,113,depth_duration_stimuli/003048_2014-06-15_13-49-43_094959634447_rgbf000150-resize_1/003048_2014-06-15_13-49-43_094959634447_rgbf000150-resize_1-target.png,1000,4.0035,70,3747,1000,meters,jsons/v1_VE1000_randls_16.json,890859,1073349,42,Woman
113,624901,DepthScenes,duration_manipulation_targetAtFixation,jsons/v1_VE1000_randls_16.json,http://54.235.29.9/FacialAge/BNav_EC2/DepthDuration/v2_depth_duration_MTurk/v2_DepthDuration_HTML.html#22,22,1440,900,1440,900,8-22-2022,7-59-45,114,depth_duration_stimuli/003534_2014-05-22_15-06-10_094959634447_rgbf000102-resize_4/003534_2014-05-22_15-06-10_094959634447_rgbf000102-resize_4-target.png,1000,1.426,65,4550,1000,meters,jsons/v1_VE1000_randls_16.json,890859,1073349,42,Woman
114,624901,DepthScenes,duration_manipulation_targetAtFixation,jsons/v1_VE1000_randls_16.json,http://54.235.29.9/FacialAge/BNav_EC2/DepthDuration/v2_depth_duration_MTurk/v2_DepthDuration_HTML.html#22,22,1440,900,1440,900,8-22-2022,7-59-45,115,depth_duration_stimuli/002637_2014-06-24_14-51-13_094959634447_rgbf000066-resize_4/002637_2014-06-24_14-51-13_094959634447_rgbf000066-resize_4-target.png,1000,1.9955,70,3591,999,meters,jsons/v1_VE1000_randls_16.json,890859,1073349,42,Woman
115,624901,DepthScenes,duration_manipulation_targetAtFixation,jsons/v1_VE1000_randls_16.json,http://54.235.29.9/FacialAge/BNav_EC2/DepthDuration/v2_depth_duration_MTurk/v2_DepthDuration_HTML.html#22,22,1440,900,1440,900,8-22-2022,7-59-45,116,depth_duration_stimuli/001170_2014-06-17_15-43-44_260595134347_rgbf000096-resize_6/001170_2014-06-17_15-43-44_260595134347_rgbf000096-resize-original.jpg,1000,1.1909999999999998,0,3563,1000,meters,jsons/v1_VE1000_randls_16.json,890859,1073349,42,Woman
116,624901,DepthScenes,duration_manipulation_targetAtFixation,jsons/v1_VE1000_randls_16.json,http://54.235.29.9/FacialAge/BNav_EC2/DepthDuration/v2_depth_duration_MTurk/v2_DepthDuration_HTML.html#22,22,1440,900,1440,900,8-22-2022,7-59-45,117,depth_duration_stimuli/002153_2014-06-25_21-27-18_260595134347_rgbf000038-resize_5/002153_2014-06-25_21-27-18_260595134347_rgbf000038-resize_5-target.png,1000,2.505,70,4011,1001,meters,jsons/v1_VE1000_randls_16.json,890859,1073349,42,Woman
117,624901,DepthScenes,duration_manipulation_targetAtFixation,jsons/v1_VE1000_randls_16.json,http://54.235.29.9/FacialAge/BNav_EC2/DepthDuration/v2_depth_duration_MTurk/v2_DepthDuration_HTML.html#22,22,1440,900,1440,900,8-22-2022,7-59-45,118,depth_duration_stimuli/002660_2014-06-13_15-44-18_094959634447_rgbf001878-resize_2/002660_2014-06-13_15-44-18_094959634447_rgbf001878-resize_2-target.png,1000,3.576,60,3505,1001,meters,jsons/v1_VE1000_randls_16.json,890859,1073349,42,Woman
118,624901,DepthScenes,duration_manipulation_targetAtFixation,jsons/v1_VE1000_randls_16.json,http://54.235.29.9/FacialAge/BNav_EC2/DepthDuration/v2_depth_duration_MTurk/v2_DepthDuration_HTML.html#22,22,1440,900,1440,900,8-22-2022,7-59-45,119,depth_duration_stimuli/001066_2014-06-08_22-03-20_260595134347_rgbf000066-resize_4/001066_2014-06-08_22-03-20_260595134347_rgbf000066-resize_4-target.png,1000,4.2330000000000005,65,3645,1001,meters,jsons/v1_VE1000_randls_16.json,890859,1073349,42,Woman
119,624901,DepthScenes,duration_manipulation_targetAtFixation,jsons/v1_VE1000_randls_16.json,http://54.235.29.9/FacialAge/BNav_EC2/DepthDuration/v2_depth_duration_MTurk/v2_DepthDuration_HTML.html#22,22,1440,900,1440,900,8-22-2022,7-59-45,120,depth_duration_stimuli/000742_2014-06-08_18-48-09_260595134347_rgbf000164-resize_4/000742_2014-06-08_18-48-09_260595134347_rgbf000164-resize_4-target.png,1000,4.632,70,3665,1001,meters,jsons/v1_VE1000_randls_16.json,890859,1073349,42,Woman
120,624901,DepthScenes,duration_manipulation_targetAtFixation,jsons/v1_VE1000_randls_16.json,http://54.235.29.9/FacialAge/BNav_EC2/DepthDuration/v2_depth_duration_MTurk/v2_DepthDuration_HTML.html#22,22,1440,900,1440,900,8-22-2022,7-59-45,121,depth_duration_stimuli/001092_2014-06-15_17-34-58_260595134347_rgbf000171-resize_3/001092_2014-06-15_17-34-58_260595134347_rgbf000171-resize_3-target.png,1000,2.6935,75,3827,1001,meters,jsons/v1_VE1000_randls_16.json,890859,1073349,42,Woman
121,624901,DepthScenes,duration_manipulation_targetAtFixation,jsons/v1_VE1000_randls_16.json,http://54.235.29.9/FacialAge/BNav_EC2/DepthDuration/v2_depth_duration_MTurk/v2_DepthDuration_HTML.html#22,22,1440,900,1440,900,8-22-2022,7-59-45,122,depth_duration_stimuli/002545_2014-06-24_13-38-53_094959634447_rgbf000080-resize_4/002545_2014-06-24_13-38-53_094959634447_rgbf000080-resize_4-target.png,1000,1.9205,65,3547,999,meters,jsons/v1_VE1000_randls_16.json,890859,1073349,42,Woman
122,624901,DepthScenes,duration_manipulation_targetAtFixation,jsons/v1_VE1000_randls_16.json,http://54.235.29.9/FacialAge/BNav_EC2/DepthDuration/v2_depth_duration_MTurk/v2_DepthDuration_HTML.html#22,22,1440,900,1440,900,8-22-2022,7-59-45,123,depth_duration_stimuli/002964_2014-06-08_17-46-11_094959634447_rgbf000091-resize_4/002964_2014-06-08_17-46-11_094959634447_rgbf000091-resize_4-target.png,1000,1.6909999999999998,70,4368,999,meters,jsons/v1_VE1000_randls_16.json,890859,1073349,42,Woman
123,624901,DepthScenes,duration_manipulation_targetAtFixation,jsons/v1_VE1000_randls_16.json,http://54.235.29.9/FacialAge/BNav_EC2/DepthDuration/v2_depth_duration_MTurk/v2_DepthDuration_HTML.html#22,22,1440,900,1440,900,8-22-2022,7-59-45,124,depth_duration_stimuli/002136_2014-06-25_21-18-03_260595134347_rgbf000109-resize_3/002136_2014-06-25_21-18-03_260595134347_rgbf000109-resize_3-target.png,1000,1.9569999999999999,65,4921,1000,meters,jsons/v1_VE1000_randls_16.json,890859,1073349,42,Woman
124,624901,DepthScenes,duration_manipulation_targetAtFixation,jsons/v1_VE1000_randls_16.json,http://54.235.29.9/FacialAge/BNav_EC2/DepthDuration/v2_depth_duration_MTurk/v2_DepthDuration_HTML.html#22,22,1440,900,1440,900,8-22-2022,7-59-45,125,depth_duration_stimuli/001055_2014-06-08_18-45-35_260595134347_rgbf000111-resize_4/001055_2014-06-08_18-45-35_260595134347_rgbf000111-resize_4-target.png,1000,2.4290000000000003,75,4330,999,meters,jsons/v1_VE1000_randls_16.json,890859,1073349,42,Woman
125,624901,DepthScenes,duration_manipulation_targetAtFixation,jsons/v1_VE1000_randls_16.json,http://54.235.29.9/FacialAge/BNav_EC2/DepthDuration/v2_depth_duration_MTurk/v2_DepthDuration_HTML.html#22,22,1440,900,1440,900,8-22-2022,7-59-45,126,depth_duration_stimuli/000549_2014-06-08_22-10-24_260595134347_rgbf000247-resize_3/000549_2014-06-08_22-10-24_260595134347_rgbf000247-resize_3-target.png,1000,1.841,70,8065,995,meters,jsons/v1_VE1000_randls_16.json,890859,1073349,42,Woman
126,624901,DepthScenes,duration_manipulation_targetAtFixation,jsons/v1_VE1000_randls_16.json,http://54.235.29.9/FacialAge/BNav_EC2/DepthDuration/v2_depth_duration_MTurk/v2_DepthDuration_HTML.html#22,22,1440,900,1440,900,8-22-2022,7-59-45,127,depth_duration_stimuli/001011_2014-06-08_23-18-54_260595134347_rgbf000044-resize_4/001011_2014-06-08_23-18-54_260595134347_rgbf000044-resize_4-target.png,1000,2.4730000000000003,75,4932,998,meters,jsons/v1_VE1000_randls_16.json,890859,1073349,42,Woman
127,624901,DepthScenes,duration_manipulation_targetAtFixation,jsons/v1_VE1000_randls_16.json,http://54.235.29.9/FacialAge/BNav_EC2/DepthDuration/v2_depth_duration_MTurk/v2_DepthDuration_HTML.html#22,22,1440,900,1440,900,8-22-2022,7-59-45,128,depth_duration_stimuli/002875_2014-06-01_15-19-00_094959634447_rgbf000151-resize_1/002875_2014-06-01_15-19-00_094959634447_rgbf000151-resize_1-target.png,1000,1.9675,60,4950,999,meters,jsons/v1_VE1000_randls_16.json,890859,1073349,42,Woman
128,624901,DepthScenes,duration_manipulation_targetAtFixation,jsons/v1_VE1000_randls_16.json,http://54.235.29.9/FacialAge/BNav_EC2/DepthDuration/v2_depth_duration_MTurk/v2_DepthDuration_HTML.html#22,22,1440,900,1440,900,8-22-2022,7-59-45,129,depth_duration_stimuli/002784_2014-06-22_19-26-30_094959634447_rgbf000083-resize_3/002784_2014-06-22_19-26-30_094959634447_rgbf000083-resize_3-target.png,1000,1.8046666666667,75,5146,999,meters,jsons/v1_VE1000_randls_16.json,890859,1073349,42,Woman
129,624901,DepthScenes,duration_manipulation_targetAtFixation,jsons/v1_VE1000_randls_16.json,http://54.235.29.9/FacialAge/BNav_EC2/DepthDuration/v2_depth_duration_MTurk/v2_DepthDuration_HTML.html#22,22,1440,900,1440,900,8-22-2022,7-59-45,130,depth_duration_stimuli/001100_2014-06-15_17-46-26_260595134347_rgbf000225-resize_2/001100_2014-06-15_17-46-26_260595134347_rgbf000225-resize_2-target.png,1000,2.24,60,5136,999,meters,jsons/v1_VE1000_randls_16.json,890859,1073349,42,Woman
130,624901,DepthScenes,duration_manipulation_targetAtFixation,jsons/v1_VE1000_randls_16.json,http://54.235.29.9/FacialAge/BNav_EC2/DepthDuration/v2_depth_duration_MTurk/v2_DepthDuration_HTML.html#22,22,1440,900,1440,900,8-22-2022,7-59-45,131,depth_duration_stimuli/001056_2014-06-08_18-46-44_260595134347_rgbf000068-resize_0/001056_2014-06-08_18-46-44_260595134347_rgbf000068-resize_0-target.png,1000,2.6625,75,7212,1000,meters,jsons/v1_VE1000_randls_16.json,890859,1073349,42,Woman
131,624901,DepthScenes,duration_manipulation_targetAtFixation,jsons/v1_VE1000_randls_16.json,http://54.235.29.9/FacialAge/BNav_EC2/DepthDuration/v2_depth_duration_MTurk/v2_DepthDuration_HTML.html#22,22,1440,900,1440,900,8-22-2022,7-59-45,132,depth_duration_stimuli/002199_2014-06-28_18-33-56_260595134347_rgbf000074-resize_0/002199_2014-06-28_18-33-56_260595134347_rgbf000074-resize_0-target.png,1000,1.996,65,5443,1000,meters,jsons/v1_VE1000_randls_16.json,890859,1073349,42,Woman
132,624901,DepthScenes,duration_manipulation_targetAtFixation,jsons/v1_VE1000_randls_16.json,http://54.235.29.9/FacialAge/BNav_EC2/DepthDuration/v2_depth_duration_MTurk/v2_DepthDuration_HTML.html#22,22,1440,900,1440,900,8-22-2022,7-59-45,133,depth_duration_stimuli/002509_2014-06-24_13-19-22_094959634447_rgbf000077-resize_0/002509_2014-06-24_13-19-22_094959634447_rgbf000077-resize_0-target.png,1000,1.3065,70,4967,998,meters,jsons/v1_VE1000_randls_16.json,890859,1073349,42,Woman
133,624901,DepthScenes,duration_manipulation_targetAtFixation,jsons/v1_VE1000_randls_16.json,http://54.235.29.9/FacialAge/BNav_EC2/DepthDuration/v2_depth_duration_MTurk/v2_DepthDuration_HTML.html#22,22,1440,900,1440,900,8-22-2022,7-59-45,134,depth_duration_stimuli/003338_2014-05-20_11-01-23_094959634447_rgbf000051-resize_6/003338_2014-05-20_11-01-23_094959634447_rgbf000051-resize_6-target.png,1000,1.693,75,5209,1000,meters,jsons/v1_VE1000_randls_16.json,890859,1073349,42,Woman
134,624901,DepthScenes,duration_manipulation_targetAtFixation,jsons/v1_VE1000_randls_16.json,http://54.235.29.9/FacialAge/BNav_EC2/DepthDuration/v2_depth_duration_MTurk/v2_DepthDuration_HTML.html#22,22,1440,900,1440,900,8-22-2022,7-59-45,135,depth_duration_stimuli/002072_2014-06-24_21-48-06_260595134347_rgbf000115-resize_0/002072_2014-06-24_21-48-06_260595134347_rgbf000115-resize-original.jpg,1000,4.702,0,4408,999,meters,jsons/v1_VE1000_randls_16.json,890859,1073349,42,Woman
135,624901,DepthScenes,duration_manipulation_targetAtFixation,jsons/v1_VE1000_randls_16.json,http://54.235.29.9/FacialAge/BNav_EC2/DepthDuration/v2_depth_duration_MTurk/v2_DepthDuration_HTML.html#22,22,1440,900,1440,900,8-22-2022,7-59-45,136,depth_duration_stimuli/002630_2014-06-24_14-47-50_094959634447_rgbf000055-resize_1/002630_2014-06-24_14-47-50_094959634447_rgbf000055-resize_1-target.png,1000,3.0095,65,4817,999,meters,jsons/v1_VE1000_randls_16.json,890859,1073349,42,Woman
136,624901,DepthScenes,duration_manipulation_targetAtFixation,jsons/v1_VE1000_randls_16.json,http://54.235.29.9/FacialAge/BNav_EC2/DepthDuration/v2_depth_duration_MTurk/v2_DepthDuration_HTML.html#22,22,1440,900,1440,900,8-22-2022,7-59-45,137,depth_duration_stimuli/002758_2014-06-22_19-11-20_094959634447_rgbf000128-resize_1/002758_2014-06-22_19-11-20_094959634447_rgbf000128-resize_1-target.png,1000,2.555,70,5366,994,meters,jsons/v1_VE1000_randls_16.json,890859,1073349,42,Woman
137,624901,DepthScenes,duration_manipulation_targetAtFixation,jsons/v1_VE1000_randls_16.json,http://54.235.29.9/FacialAge/BNav_EC2/DepthDuration/v2_depth_duration_MTurk/v2_DepthDuration_HTML.html#22,22,1440,900,1440,900,8-22-2022,7-59-45,138,depth_duration_stimuli/000906_2014-06-08_13-35-43_260595134347_rgbf000155-resize_1/000906_2014-06-08_13-35-43_260595134347_rgbf000155-resize_1-target.png,1000,2.8489999999999998,65,5050,1000,meters,jsons/v1_VE1000_randls_16.json,890859,1073349,42,Woman
138,624901,DepthScenes,duration_manipulation_targetAtFixation,jsons/v1_VE1000_randls_16.json,http://54.235.29.9/FacialAge/BNav_EC2/DepthDuration/v2_depth_duration_MTurk/v2_DepthDuration_HTML.html#22,22,1440,900,1440,900,8-22-2022,7-59-45,139,depth_duration_stimuli/002805_2014-06-22_19-54-03_094959634447_rgbf000079-resize_1/002805_2014-06-22_19-54-03_094959634447_rgbf000079-resize_1-target.png,1000,3.1439999999999997,60,5093,1000,meters,jsons/v1_VE1000_randls_16.json,890859,1073349,42,Woman
139,624901,DepthScenes,duration_manipulation_targetAtFixation,jsons/v1_VE1000_randls_16.json,http://54.235.29.9/FacialAge/BNav_EC2/DepthDuration/v2_depth_duration_MTurk/v2_DepthDuration_HTML.html#22,22,1440,900,1440,900,8-22-2022,7-59-45,140,depth_duration_stimuli/002118_2014-06-25_20-32-08_260595134347_rgbf000078-resize_1/002118_2014-06-25_20-32-08_260595134347_rgbf000078-resize_1-target.png,1000,2.6460000000000004,70,4729,999,meters,jsons/v1_VE1000_randls_16.json,890859,1073349,42,Woman
140,624901,DepthScenes,duration_manipulation_targetAtFixation,jsons/v1_VE1000_randls_16.json,http://54.235.29.9/FacialAge/BNav_EC2/DepthDuration/v2_depth_duration_MTurk/v2_DepthDuration_HTML.html#22,22,1440,900,1440,900,8-22-2022,7-59-45,141,depth_duration_stimuli/001516_2014-06-20_16-25-09_260595134347_rgbf000076-resize_2/001516_2014-06-20_16-25-09_260595134347_rgbf000076-resize_2-target.png,1000,1.7445,75,4988,1000,meters,jsons/v1_VE1000_randls_16.json,890859,1073349,42,Woman
141,624901,DepthScenes,duration_manipulation_targetAtFixation,jsons/v1_VE1000_randls_16.json,http://54.235.29.9/FacialAge/BNav_EC2/DepthDuration/v2_depth_duration_MTurk/v2_DepthDuration_HTML.html#22,22,1440,900,1440,900,8-22-2022,7-59-45,142,depth_duration_stimuli/002600_2014-06-24_14-27-04_094959634447_rgbf000074-resize_2/002600_2014-06-24_14-27-04_094959634447_rgbf000074-resize_2-target.png,1000,2.7575,65,5016,998,meters,jsons/v1_VE1000_randls_16.json,890859,1073349,42,Woman
142,624901,DepthScenes,duration_manipulation_targetAtFixation,jsons/v1_VE1000_randls_16.json,http://54.235.29.9/FacialAge/BNav_EC2/DepthDuration/v2_depth_duration_MTurk/v2_DepthDuration_HTML.html#22,22,1440,900,1440,900,8-22-2022,7-59-45,143,depth_duration_stimuli/003228_2014-05-14_13-42-35_094959634447_rgbf000101-resize_1/003228_2014-05-14_13-42-35_094959634447_rgbf000101-resize_1-target.png,1000,1.9680000000000002,70,4897,998,meters,jsons/v1_VE1000_randls_16.json,890859,1073349,42,Woman
143,624901,DepthScenes,duration_manipulation_targetAtFixation,jsons/v1_VE1000_randls_16.json,http://54.235.29.9/FacialAge/BNav_EC2/DepthDuration/v2_depth_duration_MTurk/v2_DepthDuration_HTML.html#22,22,1440,900,1440,900,8-22-2022,7-59-45,144,depth_duration_stimuli/000788_2014-06-08_22-34-36_260595134347_rgbf000131-resize_1/000788_2014-06-08_22-34-36_260595134347_rgbf000131-resize_1-target.png,1000,3.359,60,5459,1000,meters,jsons/v1_VE1000_randls_16.json,890859,1073349,42,Woman
144,624901,DepthScenes,duration_manipulation_targetAtFixation,jsons/v1_VE1000_randls_16.json,http://54.235.29.9/FacialAge/BNav_EC2/DepthDuration/v2_depth_duration_MTurk/v2_DepthDuration_HTML.html#22,22,1440,900,1440,900,8-22-2022,7-59-45,145,depth_duration_stimuli/001235_2014-06-17_16-37-36_260595134347_rgbf000084-resize_4/001235_2014-06-17_16-37-36_260595134347_rgbf000084-resize_4-target.png,1000,3.6605,65,5209,1000,meters,jsons/v1_VE1000_randls_16.json,890859,1073349,42,Woman
145,624901,DepthScenes,duration_manipulation_targetAtFixation,jsons/v1_VE1000_randls_16.json,http://54.235.29.9/FacialAge/BNav_EC2/DepthDuration/v2_depth_duration_MTurk/v2_DepthDuration_HTML.html#22,22,1440,900,1440,900,8-22-2022,7-59-45,146,depth_duration_stimuli/001498_2014-06-19_17-45-14_260595134347_rgbf000129-resize_4/001498_2014-06-19_17-45-14_260595134347_rgbf000129-resize-original.jpg,1000,1.4075,70,5754,1002,meters,jsons/v1_VE1000_randls_16.json,890859,1073349,42,Woman
146,624901,DepthScenes,duration_manipulation_targetAtFixation,jsons/v1_VE1000_randls_16.json,http://54.235.29.9/FacialAge/BNav_EC2/DepthDuration/v2_depth_duration_MTurk/v2_DepthDuration_HTML.html#22,22,1440,900,1440,900,8-22-2022,7-59-45,147,depth_duration_stimuli/001417_2014-06-19_16-25-36_260595134347_rgbf000115-resize_5/001417_2014-06-19_16-25-36_260595134347_rgbf000115-resize_5-target.png,1000,4.6255,64,6330,999,meters,jsons/v1_VE1000_randls_16.json,890859,1073349,42,Woman
147,624901,DepthScenes,duration_manipulation_targetAtFixation,jsons/v1_VE1000_randls_16.json,http://54.235.29.9/FacialAge/BNav_EC2/DepthDuration/v2_depth_duration_MTurk/v2_DepthDuration_HTML.html#22,22,1440,900,1440,900,8-22-2022,7-59-45,148,depth_duration_stimuli/003081_2014-06-15_15-19-16_094959634447_rgbf000150-resize_1/003081_2014-06-15_15-19-16_094959634447_rgbf000150-resize_1-target.png,1000,3.9125,70,4763,999,meters,jsons/v1_VE1000_randls_16.json,890859,1073349,42,Woman
148,624901,DepthScenes,duration_manipulation_targetAtFixation,jsons/v1_VE1000_randls_16.json,http://54.235.29.9/FacialAge/BNav_EC2/DepthDuration/v2_depth_duration_MTurk/v2_DepthDuration_HTML.html#22,22,1440,900,1440,900,8-22-2022,7-59-45,149,depth_duration_stimuli/002905_2014-06-03_18-04-43_094959634447_rgbf000151-resize_2/002905_2014-06-03_18-04-43_094959634447_rgbf000151-resize_2-target.png,1000,2.0295,70,4313,999,meters,jsons/v1_VE1000_randls_16.json,890859,1073349,42,Woman
149,624901,DepthScenes,duration_manipulation_targetAtFixation,jsons/v1_VE1000_randls_16.json,http://54.235.29.9/FacialAge/BNav_EC2/DepthDuration/v2_depth_duration_MTurk/v2_DepthDuration_HTML.html#22,22,1440,900,1440,900,8-22-2022,7-59-45,150,depth_duration_stimuli/003423_2014-05-21_10-23-26_094959634447_rgbf002665-resize_2/003423_2014-05-21_10-23-26_094959634447_rgbf002665-resize_2-target.png,1000,3.2575,65,4663,998,meters,jsons/v1_VE1000_randls_16.json,890859,1073349,42,Woman
150,624901,DepthScenes,duration_manipulation_targetAtFixation,jsons/v1_VE1000_randls_16.json,http://54.235.29.9/FacialAge/BNav_EC2/DepthDuration/v2_depth_duration_MTurk/v2_DepthDuration_HTML.html#22,22,1440,900,1440,900,8-22-2022,7-59-45,151,depth_duration_stimuli/000692_2014-06-08_13-09-42_260595134347_rgbf000199-resize_2/000692_2014-06-08_13-09-42_260595134347_rgbf000199-resize_2-target.png,1000,3.661,70,4436,1000,meters,jsons/v1_VE1000_randls_16.json,890859,1073349,42,Woman
151,624901,DepthScenes,duration_manipulation_targetAtFixation,jsons/v1_VE1000_randls_16.json,http://54.235.29.9/FacialAge/BNav_EC2/DepthDuration/v2_depth_duration_MTurk/v2_DepthDuration_HTML.html#22,22,1440,900,1440,900,8-22-2022,7-59-45,152,depth_duration_stimuli/001094_2014-06-15_17-36-00_260595134347_rgbf000205-resize_0/001094_2014-06-15_17-36-00_260595134347_rgbf000205-resize_0-target.png,1000,4.2175,70,5745,1000,meters,jsons/v1_VE1000_randls_16.json,890859,1073349,42,Woman
152,624901,DepthScenes,duration_manipulation_targetAtFixation,jsons/v1_VE1000_randls_16.json,http://54.235.29.9/FacialAge/BNav_EC2/DepthDuration/v2_depth_duration_MTurk/v2_DepthDuration_HTML.html#22,22,1440,900,1440,900,8-22-2022,7-59-45,153,depth_duration_stimuli/002445_2014-06-28_20-32-16_260595134347_rgbf000029-resize_4/002445_2014-06-28_20-32-16_260595134347_rgbf000029-resize_4-target.png,1000,2.5315,65,5345,997,meters,jsons/v1_VE1000_randls_16.json,890859,1073349,42,Woman
153,624901,DepthScenes,duration_manipulation_targetAtFixation,jsons/v1_VE1000_randls_16.json,http://54.235.29.9/FacialAge/BNav_EC2/DepthDuration/v2_depth_duration_MTurk/v2_DepthDuration_HTML.html#22,22,1440,900,1440,900,8-22-2022,7-59-45,154,depth_duration_stimuli/000780_2014-06-08_22-28-29_260595134347_rgbf000126-resize_1/000780_2014-06-08_22-28-29_260595134347_rgbf000126-resize_1-target.png,1000,3.3825,65,5931,1000,meters,jsons/v1_VE1000_randls_16.json,890859,1073349,42,Woman
154,624901,DepthScenes,duration_manipulation_targetAtFixation,jsons/v1_VE1000_randls_16.json,http://54.235.29.9/FacialAge/BNav_EC2/DepthDuration/v2_depth_duration_MTurk/v2_DepthDuration_HTML.html#22,22,1440,900,1440,900,8-22-2022,7-59-45,155,depth_duration_stimuli/000773_2014-06-08_22-24-54_260595134347_rgbf000093-resize_1/000773_2014-06-08_22-24-54_260595134347_rgbf000093-resize_1-target.png,1000,4.973,74,4882,999,meters,jsons/v1_VE1000_randls_16.json,890859,1073349,42,Woman
155,624901,DepthScenes,duration_manipulation_targetAtFixation,jsons/v1_VE1000_randls_16.json,http://54.235.29.9/FacialAge/BNav_EC2/DepthDuration/v2_depth_duration_MTurk/v2_DepthDuration_HTML.html#22,22,1440,900,1440,900,8-22-2022,7-59-45,156,depth_duration_stimuli/002414_2014-06-28_20-24-58_260595134347_rgbf000067-resize_4/002414_2014-06-28_20-24-58_260595134347_rgbf000067-resize_4-target.png,1000,4.363,70,5802,1000,meters,jsons/v1_VE1000_randls_16.json,890859,1073349,42,Woman
156,624901,DepthScenes,duration_manipulation_targetAtFixation,jsons/v1_VE1000_randls_16.json,http://54.235.29.9/FacialAge/BNav_EC2/DepthDuration/v2_depth_duration_MTurk/v2_DepthDuration_HTML.html#22,22,1440,900,1440,900,8-22-2022,7-59-45,157,depth_duration_stimuli/000486_2014-06-09_20-47-20_260595134347_rgbf000143-resize_2/000486_2014-06-09_20-47-20_260595134347_rgbf000143-resize_2-target.png,1000,4.8325,60,5315,1000,meters,jsons/v1_VE1000_randls_16.json,890859,1073349,42,Woman
157,624901,DepthScenes,duration_manipulation_targetAtFixation,jsons/v1_VE1000_randls_16.json,http://54.235.29.9/FacialAge/BNav_EC2/DepthDuration/v2_depth_duration_MTurk/v2_DepthDuration_HTML.html#22,22,1440,900,1440,900,8-22-2022,7-59-45,158,depth_duration_stimuli/003083_2014-06-15_15-21-03_094959634447_rgbf000063-resize_1/003083_2014-06-15_15-21-03_094959634447_rgbf000063-resize_1-target.png,1000,4.1405,75,5567,999,meters,jsons/v1_VE1000_randls_16.json,890859,1073349,42,Woman
158,624901,DepthScenes,duration_manipulation_targetAtFixation,jsons/v1_VE1000_randls_16.json,http://54.235.29.9/FacialAge/BNav_EC2/DepthDuration/v2_depth_duration_MTurk/v2_DepthDuration_HTML.html#22,22,1440,900,1440,900,8-22-2022,7-59-45,159,depth_duration_stimuli/002549_2014-06-24_13-41-39_094959634447_rgbf000022-resize_3/002549_2014-06-24_13-41-39_094959634447_rgbf000022-resize_3-target.png,1000,1.476,70,5101,999,meters,jsons/v1_VE1000_randls_16.json,890859,1073349,42,Woman
159,624901,DepthScenes,duration_manipulation_targetAtFixation,jsons/v1_VE1000_randls_16.json,http://54.235.29.9/FacialAge/BNav_EC2/DepthDuration/v2_depth_duration_MTurk/v2_DepthDuration_HTML.html#22,22,1440,900,1440,900,8-22-2022,7-59-45,160,depth_duration_stimuli/002750_2014-06-22_19-08-03_094959634447_rgbf000094-resize_4/002750_2014-06-22_19-08-03_094959634447_rgbf000094-resize_4-target.png,1000,2.354,65,4982,1001,meters,jsons/v1_VE1000_randls_16.json,890859,1073349,42,Woman
160,624901,DepthScenes,duration_manipulation_targetAtFixation,jsons/v1_VE1000_randls_16.json,http://54.235.29.9/FacialAge/BNav_EC2/DepthDuration/v2_depth_duration_MTurk/v2_DepthDuration_HTML.html#22,22,1440,900,1440,900,8-22-2022,7-59-45,161,depth_duration_stimuli/003621_2014-05-23_18-06-08_094959634447_rgbf000101-resize_1/003621_2014-05-23_18-06-08_094959634447_rgbf000101-resize_1-target.png,1000,3.9835,70,4452,998,meters,jsons/v1_VE1000_randls_16.json,890859,1073349,42,Woman
161,624901,DepthScenes,duration_manipulation_targetAtFixation,jsons/v1_VE1000_randls_16.json,http://54.235.29.9/FacialAge/BNav_EC2/DepthDuration/v2_depth_duration_MTurk/v2_DepthDuration_HTML.html#22,22,1440,900,1440,900,8-22-2022,7-59-45,162,depth_duration_stimuli/001584_2014-06-20_11-07-43_260595134347_rgbf000002-resize_1/001584_2014-06-20_11-07-43_260595134347_rgbf000002-resize_1-target.png,1000,3.53,70,4443,1000,meters,jsons/v1_VE1000_randls_16.json,890859,1073349,42,Woman
162,624901,DepthScenes,duration_manipulation_targetAtFixation,jsons/v1_VE1000_randls_16.json,http://54.235.29.9/FacialAge/BNav_EC2/DepthDuration/v2_depth_duration_MTurk/v2_DepthDuration_HTML.html#22,22,1440,900,1440,900,8-22-2022,7-59-45,163,depth_duration_stimuli/002725_2014-06-22_11-47-51_094959634447_rgbf000070-resize_1/002725_2014-06-22_11-47-51_094959634447_rgbf000070-resize_1-target.png,1000,2.195,65,5582,1001,meters,jsons/v1_VE1000_randls_16.json,890859,1073349,42,Woman
163,624901,DepthScenes,duration_manipulation_targetAtFixation,jsons/v1_VE1000_randls_16.json,http://54.235.29.9/FacialAge/BNav_EC2/DepthDuration/v2_depth_duration_MTurk/v2_DepthDuration_HTML.html#22,22,1440,900,1440,900,8-22-2022,7-59-45,164,depth_duration_stimuli/002344_2014-06-28_20-06-29_260595134347_rgbf000030-resize_1/002344_2014-06-28_20-06-29_260595134347_rgbf000030-resize_1-target.png,1000,1.5795,65,4777,998,meters,jsons/v1_VE1000_randls_16.json,890859,1073349,42,Woman
