,subjID,experimentName,versionName,sequenceName,url,selected_row,windowWidth,windowHeight,screenWidth,screenHeight,startDate,startTime,trial,stimulus,duration,actual_depth,depth_estimate,trial_RT,log_sceneDuration,unitSelection,seq_filepath,experimentTime,totalTime,age,gender
0,624957,DepthScenes,duration_manipulation_targetAtFixation,jsons/v1_VE1000_randls_57_rotated.json,http://54.235.29.9/FacialAge/BNav_EC2/DepthDuration/v2_depth_duration_MTurk/v2_DepthDuration_HTML.html#101,101,1366,649,1366,768,8-22-2022,9-13-38,1,depth_duration_stimuli/003048_2014-06-15_13-49-43_094959634447_rgbf000150-resize_1/003048_2014-06-15_13-49-43_094959634447_rgbf000150-resize_1-target.png,1000,4.0035,8,6104,999,feet,jsons/v1_VE1000_randls_57_rotated.json,1044149,1357943,56,Man
1,624957,DepthScenes,duration_manipulation_targetAtFixation,jsons/v1_VE1000_randls_57_rotated.json,http://54.235.29.9/FacialAge/BNav_EC2/DepthDuration/v2_depth_duration_MTurk/v2_DepthDuration_HTML.html#101,101,1366,649,1366,768,8-22-2022,9-13-38,2,depth_duration_stimuli/002043_2014-06-24_20-29-38_260595134347_rgbf000039-resize_4/002043_2014-06-24_20-29-38_260595134347_rgbf000039-resize_4-target.png,1000,2.8435,7,5491,996,feet,jsons/v1_VE1000_randls_57_rotated.json,1044149,1357943,56,Man
2,624957,DepthScenes,duration_manipulation_targetAtFixation,jsons/v1_VE1000_randls_57_rotated.json,http://54.235.29.9/FacialAge/BNav_EC2/DepthDuration/v2_depth_duration_MTurk/v2_DepthDuration_HTML.html#101,101,1366,649,1366,768,8-22-2022,9-13-38,3,depth_duration_stimuli/002323_2014-06-28_20-01-54_260595134347_rgbf000051-resize_4/002323_2014-06-28_20-01-54_260595134347_rgbf000051-resize_4-target.png,1000,3.7310000000000003,10,5759,997,feet,jsons/v1_VE1000_randls_57_rotated.json,1044149,1357943,56,Man
3,624957,DepthScenes,duration_manipulation_targetAtFixation,jsons/v1_VE1000_randls_57_rotated.json,http://54.235.29.9/FacialAge/BNav_EC2/DepthDuration/v2_depth_duration_MTurk/v2_DepthDuration_HTML.html#101,101,1366,649,1366,768,8-22-2022,9-13-38,4,depth_duration_stimuli/000917_2014-06-09_22-45-29_260595134347_rgbf000149-resize_3/000917_2014-06-09_22-45-29_260595134347_rgbf000149-resize_3-target.png,1000,4.1865,9,6379,996,feet,jsons/v1_VE1000_randls_57_rotated.json,1044149,1357943,56,Man
4,624957,DepthScenes,duration_manipulation_targetAtFixation,jsons/v1_VE1000_randls_57_rotated.json,http://54.235.29.9/FacialAge/BNav_EC2/DepthDuration/v2_depth_duration_MTurk/v2_DepthDuration_HTML.html#101,101,1366,649,1366,768,8-22-2022,9-13-38,5,depth_duration_stimuli/002136_2014-06-25_21-18-03_260595134347_rgbf000109-resize_3/002136_2014-06-25_21-18-03_260595134347_rgbf000109-resize_3-target.png,1000,1.9569999999999999,4,4171,998,feet,jsons/v1_VE1000_randls_57_rotated.json,1044149,1357943,56,Man
5,624957,DepthScenes,duration_manipulation_targetAtFixation,jsons/v1_VE1000_randls_57_rotated.json,http://54.235.29.9/FacialAge/BNav_EC2/DepthDuration/v2_depth_duration_MTurk/v2_DepthDuration_HTML.html#101,101,1366,649,1366,768,8-22-2022,9-13-38,6,depth_duration_stimuli/002964_2014-06-08_17-46-11_094959634447_rgbf000091-resize_4/002964_2014-06-08_17-46-11_094959634447_rgbf000091-resize_4-target.png,1000,1.6909999999999998,4,6622,998,feet,jsons/v1_VE1000_randls_57_rotated.json,1044149,1357943,56,Man
6,624957,DepthScenes,duration_manipulation_targetAtFixation,jsons/v1_VE1000_randls_57_rotated.json,http://54.235.29.9/FacialAge/BNav_EC2/DepthDuration/v2_depth_duration_MTurk/v2_DepthDuration_HTML.html#101,101,1366,649,1366,768,8-22-2022,9-13-38,7,depth_duration_stimuli/000691_2014-06-08_13-08-50_260595134347_rgbf000132-resize_3/000691_2014-06-08_13-08-50_260595134347_rgbf000132-resize_3-target.png,1000,4.1530000000000005,10,6648,995,feet,jsons/v1_VE1000_randls_57_rotated.json,1044149,1357943,56,Man
7,624957,DepthScenes,duration_manipulation_targetAtFixation,jsons/v1_VE1000_randls_57_rotated.json,http://54.235.29.9/FacialAge/BNav_EC2/DepthDuration/v2_depth_duration_MTurk/v2_DepthDuration_HTML.html#101,101,1366,649,1366,768,8-22-2022,9-13-38,8,depth_duration_stimuli/002213_2014-06-28_18-37-58_260595134347_rgbf000055-resize_1/002213_2014-06-28_18-37-58_260595134347_rgbf000055-resize_1-target.png,1000,3.62,10,5721,998,feet,jsons/v1_VE1000_randls_57_rotated.json,1044149,1357943,56,Man
8,624957,DepthScenes,duration_manipulation_targetAtFixation,jsons/v1_VE1000_randls_57_rotated.json,http://54.235.29.9/FacialAge/BNav_EC2/DepthDuration/v2_depth_duration_MTurk/v2_DepthDuration_HTML.html#101,101,1366,649,1366,768,8-22-2022,9-13-38,9,depth_duration_stimuli/000137_2014-05-20_17-04-49_260595134347_rgbf000120-resize_1/000137_2014-05-20_17-04-49_260595134347_rgbf000120-resize_1-target.png,1000,3.786,10,9543,999,feet,jsons/v1_VE1000_randls_57_rotated.json,1044149,1357943,56,Man
9,624957,DepthScenes,duration_manipulation_targetAtFixation,jsons/v1_VE1000_randls_57_rotated.json,http://54.235.29.9/FacialAge/BNav_EC2/DepthDuration/v2_depth_duration_MTurk/v2_DepthDuration_HTML.html#101,101,1366,649,1366,768,8-22-2022,9-13-38,10,depth_duration_stimuli/000736_2014-06-08_18-24-15_260595134347_rgbf000206-resize_3/000736_2014-06-08_18-24-15_260595134347_rgbf000206-resize_3-target.png,1000,3.515,8,5003,994,feet,jsons/v1_VE1000_randls_57_rotated.json,1044149,1357943,56,Man
10,624957,DepthScenes,duration_manipulation_targetAtFixation,jsons/v1_VE1000_randls_57_rotated.json,http://54.235.29.9/FacialAge/BNav_EC2/DepthDuration/v2_depth_duration_MTurk/v2_DepthDuration_HTML.html#101,101,1366,649,1366,768,8-22-2022,9-13-38,11,depth_duration_stimuli/000854_2014-06-09_19-43-13_260595134347_rgbf000066-resize_0/000854_2014-06-09_19-43-13_260595134347_rgbf000066-resize_0-target.png,1000,3.068,6,4381,1001,feet,jsons/v1_VE1000_randls_57_rotated.json,1044149,1357943,56,Man
11,624957,DepthScenes,duration_manipulation_targetAtFixation,jsons/v1_VE1000_randls_57_rotated.json,http://54.235.29.9/FacialAge/BNav_EC2/DepthDuration/v2_depth_duration_MTurk/v2_DepthDuration_HTML.html#101,101,1366,649,1366,768,8-22-2022,9-13-38,12,depth_duration_stimuli/000758_2014-06-08_22-05-08_260595134347_rgbf000085-resize_0/000758_2014-06-08_22-05-08_260595134347_rgbf000085-resize_0-target.png,1000,3.3810000000000002,12,4891,997,feet,jsons/v1_VE1000_randls_57_rotated.json,1044149,1357943,56,Man
12,624957,DepthScenes,duration_manipulation_targetAtFixation,jsons/v1_VE1000_randls_57_rotated.json,http://54.235.29.9/FacialAge/BNav_EC2/DepthDuration/v2_depth_duration_MTurk/v2_DepthDuration_HTML.html#101,101,1366,649,1366,768,8-22-2022,9-13-38,13,depth_duration_stimuli/000866_2014-06-09_20-45-42_260595134347_rgbf000139-resize_1/000866_2014-06-09_20-45-42_260595134347_rgbf000139-resize_1-target.png,1000,3.2155,8,5793,996,feet,jsons/v1_VE1000_randls_57_rotated.json,1044149,1357943,56,Man
13,624957,DepthScenes,duration_manipulation_targetAtFixation,jsons/v1_VE1000_randls_57_rotated.json,http://54.235.29.9/FacialAge/BNav_EC2/DepthDuration/v2_depth_duration_MTurk/v2_DepthDuration_HTML.html#101,101,1366,649,1366,768,8-22-2022,9-13-38,14,depth_duration_stimuli/002989_2014-06-15_12-25-03_094959634447_rgbf000150-resize_3/002989_2014-06-15_12-25-03_094959634447_rgbf000150-resize_3-target.png,1000,4.1975,12,4598,999,feet,jsons/v1_VE1000_randls_57_rotated.json,1044149,1357943,56,Man
14,624957,DepthScenes,duration_manipulation_targetAtFixation,jsons/v1_VE1000_randls_57_rotated.json,http://54.235.29.9/FacialAge/BNav_EC2/DepthDuration/v2_depth_duration_MTurk/v2_DepthDuration_HTML.html#101,101,1366,649,1366,768,8-22-2022,9-13-38,15,depth_duration_stimuli/002425_2014-06-28_20-27-29_260595134347_rgbf000031-resize_8/002425_2014-06-28_20-27-29_260595134347_rgbf000031-resize_8-target.png,1000,3.8960000000000004,8,4456,999,feet,jsons/v1_VE1000_randls_57_rotated.json,1044149,1357943,56,Man
15,624957,DepthScenes,duration_manipulation_targetAtFixation,jsons/v1_VE1000_randls_57_rotated.json,http://54.235.29.9/FacialAge/BNav_EC2/DepthDuration/v2_depth_duration_MTurk/v2_DepthDuration_HTML.html#101,101,1366,649,1366,768,8-22-2022,9-13-38,16,depth_duration_stimuli/000642_2014-06-08_16-59-25_260595134347_rgbf000098-resize_2/000642_2014-06-08_16-59-25_260595134347_rgbf000098-resize_2-target.png,1000,2.8815,7,4464,998,feet,jsons/v1_VE1000_randls_57_rotated.json,1044149,1357943,56,Man
16,624957,DepthScenes,duration_manipulation_targetAtFixation,jsons/v1_VE1000_randls_57_rotated.json,http://54.235.29.9/FacialAge/BNav_EC2/DepthDuration/v2_depth_duration_MTurk/v2_DepthDuration_HTML.html#101,101,1366,649,1366,768,8-22-2022,9-13-38,17,depth_duration_stimuli/001094_2014-06-15_17-36-00_260595134347_rgbf000205-resize_0/001094_2014-06-15_17-36-00_260595134347_rgbf000205-resize_0-target.png,1000,4.2175,9,3927,991,feet,jsons/v1_VE1000_randls_57_rotated.json,1044149,1357943,56,Man
17,624957,DepthScenes,duration_manipulation_targetAtFixation,jsons/v1_VE1000_randls_57_rotated.json,http://54.235.29.9/FacialAge/BNav_EC2/DepthDuration/v2_depth_duration_MTurk/v2_DepthDuration_HTML.html#101,101,1366,649,1366,768,8-22-2022,9-13-38,18,depth_duration_stimuli/000692_2014-06-08_13-09-42_260595134347_rgbf000199-resize_2/000692_2014-06-08_13-09-42_260595134347_rgbf000199-resize_2-target.png,1000,3.661,12,7504,998,feet,jsons/v1_VE1000_randls_57_rotated.json,1044149,1357943,56,Man
18,624957,DepthScenes,duration_manipulation_targetAtFixation,jsons/v1_VE1000_randls_57_rotated.json,http://54.235.29.9/FacialAge/BNav_EC2/DepthDuration/v2_depth_duration_MTurk/v2_DepthDuration_HTML.html#101,101,1366,649,1366,768,8-22-2022,9-13-38,19,depth_duration_stimuli/001498_2014-06-19_17-45-14_260595134347_rgbf000129-resize_4/001498_2014-06-19_17-45-14_260595134347_rgbf000129-resize-original.jpg,1000,1.4075,0,5818,999,feet,jsons/v1_VE1000_randls_57_rotated.json,1044149,1357943,56,Man
19,624957,DepthScenes,duration_manipulation_targetAtFixation,jsons/v1_VE1000_randls_57_rotated.json,http://54.235.29.9/FacialAge/BNav_EC2/DepthDuration/v2_depth_duration_MTurk/v2_DepthDuration_HTML.html#101,101,1366,649,1366,768,8-22-2022,9-13-38,20,depth_duration_stimuli/001132_2014-06-17_14-48-54_260595134347_rgbf000100-resize_2/001132_2014-06-17_14-48-54_260595134347_rgbf000100-resize_2-target.png,1000,3.753,5,5918,999,feet,jsons/v1_VE1000_randls_57_rotated.json,1044149,1357943,56,Man
20,624957,DepthScenes,duration_manipulation_targetAtFixation,jsons/v1_VE1000_randls_57_rotated.json,http://54.235.29.9/FacialAge/BNav_EC2/DepthDuration/v2_depth_duration_MTurk/v2_DepthDuration_HTML.html#101,101,1366,649,1366,768,8-22-2022,9-13-38,21,depth_duration_stimuli/001133_2014-06-17_14-49-16_260595134347_rgbf000100-resize_0/001133_2014-06-17_14-49-16_260595134347_rgbf000100-resize_0-target.png,1000,4.2115,0,14910,998,feet,jsons/v1_VE1000_randls_57_rotated.json,1044149,1357943,56,Man
21,624957,DepthScenes,duration_manipulation_targetAtFixation,jsons/v1_VE1000_randls_57_rotated.json,http://54.235.29.9/FacialAge/BNav_EC2/DepthDuration/v2_depth_duration_MTurk/v2_DepthDuration_HTML.html#101,101,1366,649,1366,768,8-22-2022,9-13-38,22,depth_duration_stimuli/001450_2014-06-19_17-02-03_260595134347_rgbf000203-resize_4/001450_2014-06-19_17-02-03_260595134347_rgbf000203-resize_4-target.png,1000,4.0106666666667,8,5864,997,feet,jsons/v1_VE1000_randls_57_rotated.json,1044149,1357943,56,Man
22,624957,DepthScenes,duration_manipulation_targetAtFixation,jsons/v1_VE1000_randls_57_rotated.json,http://54.235.29.9/FacialAge/BNav_EC2/DepthDuration/v2_depth_duration_MTurk/v2_DepthDuration_HTML.html#101,101,1366,649,1366,768,8-22-2022,9-13-38,23,depth_duration_stimuli/001449_2014-06-19_17-01-27_260595134347_rgbf000116-resize_2/001449_2014-06-19_17-01-27_260595134347_rgbf000116-resize_2-target.png,1000,3.452,6,10644,997,feet,jsons/v1_VE1000_randls_57_rotated.json,1044149,1357943,56,Man
23,624957,DepthScenes,duration_manipulation_targetAtFixation,jsons/v1_VE1000_randls_57_rotated.json,http://54.235.29.9/FacialAge/BNav_EC2/DepthDuration/v2_depth_duration_MTurk/v2_DepthDuration_HTML.html#101,101,1366,649,1366,768,8-22-2022,9-13-38,24,depth_duration_stimuli/001584_2014-06-20_11-07-43_260595134347_rgbf000002-resize_1/001584_2014-06-20_11-07-43_260595134347_rgbf000002-resize_1-target.png,1000,3.53,8,5631,999,feet,jsons/v1_VE1000_randls_57_rotated.json,1044149,1357943,56,Man
24,624957,DepthScenes,duration_manipulation_targetAtFixation,jsons/v1_VE1000_randls_57_rotated.json,http://54.235.29.9/FacialAge/BNav_EC2/DepthDuration/v2_depth_duration_MTurk/v2_DepthDuration_HTML.html#101,101,1366,649,1366,768,8-22-2022,9-13-38,25,depth_duration_stimuli/003621_2014-05-23_18-06-08_094959634447_rgbf000101-resize_1/003621_2014-05-23_18-06-08_094959634447_rgbf000101-resize_1-target.png,1000,3.9835,10,6046,998,feet,jsons/v1_VE1000_randls_57_rotated.json,1044149,1357943,56,Man
25,624957,DepthScenes,duration_manipulation_targetAtFixation,jsons/v1_VE1000_randls_57_rotated.json,http://54.235.29.9/FacialAge/BNav_EC2/DepthDuration/v2_depth_duration_MTurk/v2_DepthDuration_HTML.html#101,101,1366,649,1366,768,8-22-2022,9-13-38,26,depth_duration_stimuli/000742_2014-06-08_18-48-09_260595134347_rgbf000164-resize_4/000742_2014-06-08_18-48-09_260595134347_rgbf000164-resize_4-target.png,1000,4.632,12,7324,997,feet,jsons/v1_VE1000_randls_57_rotated.json,1044149,1357943,56,Man
26,624957,DepthScenes,duration_manipulation_targetAtFixation,jsons/v1_VE1000_randls_57_rotated.json,http://54.235.29.9/FacialAge/BNav_EC2/DepthDuration/v2_depth_duration_MTurk/v2_DepthDuration_HTML.html#101,101,1366,649,1366,768,8-22-2022,9-13-38,27,depth_duration_stimuli/001066_2014-06-08_22-03-20_260595134347_rgbf000066-resize_4/001066_2014-06-08_22-03-20_260595134347_rgbf000066-resize_4-target.png,1000,4.2330000000000005,12,4597,997,feet,jsons/v1_VE1000_randls_57_rotated.json,1044149,1357943,56,Man
27,624957,DepthScenes,duration_manipulation_targetAtFixation,jsons/v1_VE1000_randls_57_rotated.json,http://54.235.29.9/FacialAge/BNav_EC2/DepthDuration/v2_depth_duration_MTurk/v2_DepthDuration_HTML.html#101,101,1366,649,1366,768,8-22-2022,9-13-38,28,depth_duration_stimuli/001136_2014-06-17_15-19-41_260595134347_rgbf000076-resize_3/001136_2014-06-17_15-19-41_260595134347_rgbf000076-resize_3-target.png,1000,1.8655,8,4139,999,feet,jsons/v1_VE1000_randls_57_rotated.json,1044149,1357943,56,Man
28,624957,DepthScenes,duration_manipulation_targetAtFixation,jsons/v1_VE1000_randls_57_rotated.json,http://54.235.29.9/FacialAge/BNav_EC2/DepthDuration/v2_depth_duration_MTurk/v2_DepthDuration_HTML.html#101,101,1366,649,1366,768,8-22-2022,9-13-38,29,depth_duration_stimuli/001164_2014-06-17_15-35-46_260595134347_rgbf000085-resize_3/001164_2014-06-17_15-35-46_260595134347_rgbf000085-resize_3-target.png,1000,2.354,6,4365,999,feet,jsons/v1_VE1000_randls_57_rotated.json,1044149,1357943,56,Man
29,624957,DepthScenes,duration_manipulation_targetAtFixation,jsons/v1_VE1000_randls_57_rotated.json,http://54.235.29.9/FacialAge/BNav_EC2/DepthDuration/v2_depth_duration_MTurk/v2_DepthDuration_HTML.html#101,101,1366,649,1366,768,8-22-2022,9-13-38,30,depth_duration_stimuli/002072_2014-06-24_21-48-06_260595134347_rgbf000115-resize_0/002072_2014-06-24_21-48-06_260595134347_rgbf000115-resize-original.jpg,1000,4.702,0,4294,998,feet,jsons/v1_VE1000_randls_57_rotated.json,1044149,1357943,56,Man
30,624957,DepthScenes,duration_manipulation_targetAtFixation,jsons/v1_VE1000_randls_57_rotated.json,http://54.235.29.9/FacialAge/BNav_EC2/DepthDuration/v2_depth_duration_MTurk/v2_DepthDuration_HTML.html#101,101,1366,649,1366,768,8-22-2022,9-13-38,31,depth_duration_stimuli/003587_2014-05-23_16-48-02_094959634447_rgbf002384-resize_2/003587_2014-05-23_16-48-02_094959634447_rgbf002384-resize_2-target.png,1000,1.357,4,4144,997,feet,jsons/v1_VE1000_randls_57_rotated.json,1044149,1357943,56,Man
31,624957,DepthScenes,duration_manipulation_targetAtFixation,jsons/v1_VE1000_randls_57_rotated.json,http://54.235.29.9/FacialAge/BNav_EC2/DepthDuration/v2_depth_duration_MTurk/v2_DepthDuration_HTML.html#101,101,1366,649,1366,768,8-22-2022,9-13-38,32,depth_duration_stimuli/001167_2014-06-17_15-38-07_260595134347_rgbf000108-resize_0/001167_2014-06-17_15-38-07_260595134347_rgbf000108-resize_0-target.png,1000,1.8505,5,4394,997,feet,jsons/v1_VE1000_randls_57_rotated.json,1044149,1357943,56,Man
32,624957,DepthScenes,duration_manipulation_targetAtFixation,jsons/v1_VE1000_randls_57_rotated.json,http://54.235.29.9/FacialAge/BNav_EC2/DepthDuration/v2_depth_duration_MTurk/v2_DepthDuration_HTML.html#101,101,1366,649,1366,768,8-22-2022,9-13-38,33,depth_duration_stimuli/002344_2014-06-28_20-06-29_260595134347_rgbf000030-resize_1/002344_2014-06-28_20-06-29_260595134347_rgbf000030-resize_1-target.png,1000,1.5795,5,4458,999,feet,jsons/v1_VE1000_randls_57_rotated.json,1044149,1357943,56,Man
33,624957,DepthScenes,duration_manipulation_targetAtFixation,jsons/v1_VE1000_randls_57_rotated.json,http://54.235.29.9/FacialAge/BNav_EC2/DepthDuration/v2_depth_duration_MTurk/v2_DepthDuration_HTML.html#101,101,1366,649,1366,768,8-22-2022,9-13-38,34,depth_duration_stimuli/002725_2014-06-22_11-47-51_094959634447_rgbf000070-resize_1/002725_2014-06-22_11-47-51_094959634447_rgbf000070-resize_1-target.png,1000,2.195,6,4984,999,feet,jsons/v1_VE1000_randls_57_rotated.json,1044149,1357943,56,Man
34,624957,DepthScenes,duration_manipulation_targetAtFixation,jsons/v1_VE1000_randls_57_rotated.json,http://54.235.29.9/FacialAge/BNav_EC2/DepthDuration/v2_depth_duration_MTurk/v2_DepthDuration_HTML.html#101,101,1366,649,1366,768,8-22-2022,9-13-38,35,depth_duration_stimuli/000749_2014-06-08_21-55-06_260595134347_rgbf000070-resize_2/000749_2014-06-08_21-55-06_260595134347_rgbf000070-resize_2-target.png,1000,2.331,8,4576,999,feet,jsons/v1_VE1000_randls_57_rotated.json,1044149,1357943,56,Man
35,624957,DepthScenes,duration_manipulation_targetAtFixation,jsons/v1_VE1000_randls_57_rotated.json,http://54.235.29.9/FacialAge/BNav_EC2/DepthDuration/v2_depth_duration_MTurk/v2_DepthDuration_HTML.html#101,101,1366,649,1366,768,8-22-2022,9-13-38,36,depth_duration_stimuli/002788_2014-06-22_19-36-03_094959634447_rgbf000088-resize_2/002788_2014-06-22_19-36-03_094959634447_rgbf000088-resize_2-target.png,1000,1.6465,6,4395,996,feet,jsons/v1_VE1000_randls_57_rotated.json,1044149,1357943,56,Man
36,624957,DepthScenes,duration_manipulation_targetAtFixation,jsons/v1_VE1000_randls_57_rotated.json,http://54.235.29.9/FacialAge/BNav_EC2/DepthDuration/v2_depth_duration_MTurk/v2_DepthDuration_HTML.html#101,101,1366,649,1366,768,8-22-2022,9-13-38,37,depth_duration_stimuli/002545_2014-06-24_13-38-53_094959634447_rgbf000080-resize_4/002545_2014-06-24_13-38-53_094959634447_rgbf000080-resize_4-target.png,1000,1.9205,6,4926,998,feet,jsons/v1_VE1000_randls_57_rotated.json,1044149,1357943,56,Man
37,624957,DepthScenes,duration_manipulation_targetAtFixation,jsons/v1_VE1000_randls_57_rotated.json,http://54.235.29.9/FacialAge/BNav_EC2/DepthDuration/v2_depth_duration_MTurk/v2_DepthDuration_HTML.html#101,101,1366,649,1366,768,8-22-2022,9-13-38,38,depth_duration_stimuli/001092_2014-06-15_17-34-58_260595134347_rgbf000171-resize_3/001092_2014-06-15_17-34-58_260595134347_rgbf000171-resize_3-target.png,1000,2.6935,5,5766,999,feet,jsons/v1_VE1000_randls_57_rotated.json,1044149,1357943,56,Man
38,624957,DepthScenes,duration_manipulation_targetAtFixation,jsons/v1_VE1000_randls_57_rotated.json,http://54.235.29.9/FacialAge/BNav_EC2/DepthDuration/v2_depth_duration_MTurk/v2_DepthDuration_HTML.html#101,101,1366,649,1366,768,8-22-2022,9-13-38,39,depth_duration_stimuli/002199_2014-06-28_18-33-56_260595134347_rgbf000074-resize_0/002199_2014-06-28_18-33-56_260595134347_rgbf000074-resize_0-target.png,1000,1.996,4,4004,999,feet,jsons/v1_VE1000_randls_57_rotated.json,1044149,1357943,56,Man
39,624957,DepthScenes,duration_manipulation_targetAtFixation,jsons/v1_VE1000_randls_57_rotated.json,http://54.235.29.9/FacialAge/BNav_EC2/DepthDuration/v2_depth_duration_MTurk/v2_DepthDuration_HTML.html#101,101,1366,649,1366,768,8-22-2022,9-13-38,40,depth_duration_stimuli/001056_2014-06-08_18-46-44_260595134347_rgbf000068-resize_0/001056_2014-06-08_18-46-44_260595134347_rgbf000068-resize_0-target.png,1000,2.6625,9,4325,996,feet,jsons/v1_VE1000_randls_57_rotated.json,1044149,1357943,56,Man
40,624957,DepthScenes,duration_manipulation_targetAtFixation,jsons/v1_VE1000_randls_57_rotated.json,http://54.235.29.9/FacialAge/BNav_EC2/DepthDuration/v2_depth_duration_MTurk/v2_DepthDuration_HTML.html#101,101,1366,649,1366,768,8-22-2022,9-13-38,41,depth_duration_stimuli/003495_2014-05-21_16-01-51_094959634447_rgbf000100-resize_3/003495_2014-05-21_16-01-51_094959634447_rgbf000100-resize_3-target.png,1000,1.6255,6,4024,999,feet,jsons/v1_VE1000_randls_57_rotated.json,1044149,1357943,56,Man
41,624957,DepthScenes,duration_manipulation_targetAtFixation,jsons/v1_VE1000_randls_57_rotated.json,http://54.235.29.9/FacialAge/BNav_EC2/DepthDuration/v2_depth_duration_MTurk/v2_DepthDuration_HTML.html#101,101,1366,649,1366,768,8-22-2022,9-13-38,42,depth_duration_stimuli/001244_2014-06-17_16-47-45_260595134347_rgbf000030-resize_4/001244_2014-06-17_16-47-45_260595134347_rgbf000030-resize_4-target.png,1000,2.0425,5,3778,998,feet,jsons/v1_VE1000_randls_57_rotated.json,1044149,1357943,56,Man
42,624957,DepthScenes,duration_manipulation_targetAtFixation,jsons/v1_VE1000_randls_57_rotated.json,http://54.235.29.9/FacialAge/BNav_EC2/DepthDuration/v2_depth_duration_MTurk/v2_DepthDuration_HTML.html#101,101,1366,649,1366,768,8-22-2022,9-13-38,43,depth_duration_stimuli/000483_2014-06-09_20-41-45_260595134347_rgbf000116-resize_4/000483_2014-06-09_20-41-45_260595134347_rgbf000116-resize_4-target.png,1000,1.337,4,4423,998,feet,jsons/v1_VE1000_randls_57_rotated.json,1044149,1357943,56,Man
43,624957,DepthScenes,duration_manipulation_targetAtFixation,jsons/v1_VE1000_randls_57_rotated.json,http://54.235.29.9/FacialAge/BNav_EC2/DepthDuration/v2_depth_duration_MTurk/v2_DepthDuration_HTML.html#101,101,1366,649,1366,768,8-22-2022,9-13-38,44,depth_duration_stimuli/000469_2014-06-09_19-42-10_260595134347_rgbf000081-resize_1/000469_2014-06-09_19-42-10_260595134347_rgbf000081-resize_1-target.png,1000,1.652,4,4581,997,feet,jsons/v1_VE1000_randls_57_rotated.json,1044149,1357943,56,Man
44,624957,DepthScenes,duration_manipulation_targetAtFixation,jsons/v1_VE1000_randls_57_rotated.json,http://54.235.29.9/FacialAge/BNav_EC2/DepthDuration/v2_depth_duration_MTurk/v2_DepthDuration_HTML.html#101,101,1366,649,1366,768,8-22-2022,9-13-38,45,depth_duration_stimuli/002750_2014-06-22_19-08-03_094959634447_rgbf000094-resize_4/002750_2014-06-22_19-08-03_094959634447_rgbf000094-resize_4-target.png,1000,2.354,7,4568,999,feet,jsons/v1_VE1000_randls_57_rotated.json,1044149,1357943,56,Man
45,624957,DepthScenes,duration_manipulation_targetAtFixation,jsons/v1_VE1000_randls_57_rotated.json,http://54.235.29.9/FacialAge/BNav_EC2/DepthDuration/v2_depth_duration_MTurk/v2_DepthDuration_HTML.html#101,101,1366,649,1366,768,8-22-2022,9-13-38,46,depth_duration_stimuli/002549_2014-06-24_13-41-39_094959634447_rgbf000022-resize_3/002549_2014-06-24_13-41-39_094959634447_rgbf000022-resize_3-target.png,1000,1.476,5,5422,997,feet,jsons/v1_VE1000_randls_57_rotated.json,1044149,1357943,56,Man
46,624957,DepthScenes,duration_manipulation_targetAtFixation,jsons/v1_VE1000_randls_57_rotated.json,http://54.235.29.9/FacialAge/BNav_EC2/DepthDuration/v2_depth_duration_MTurk/v2_DepthDuration_HTML.html#101,101,1366,649,1366,768,8-22-2022,9-13-38,47,depth_duration_stimuli/002467_2014-06-28_20-38-07_260595134347_rgbf000026-resize_2/002467_2014-06-28_20-38-07_260595134347_rgbf000026-resize_2-target.png,1000,4.742,12,4528,995,feet,jsons/v1_VE1000_randls_57_rotated.json,1044149,1357943,56,Man
47,624957,DepthScenes,duration_manipulation_targetAtFixation,jsons/v1_VE1000_randls_57_rotated.json,http://54.235.29.9/FacialAge/BNav_EC2/DepthDuration/v2_depth_duration_MTurk/v2_DepthDuration_HTML.html#101,101,1366,649,1366,768,8-22-2022,9-13-38,48,depth_duration_stimuli/002570_2014-06-24_13-59-54_094959634447_rgbf000059-resize_0/002570_2014-06-24_13-59-54_094959634447_rgbf000059-resize_0-target.png,1000,4.037,14,4766,998,feet,jsons/v1_VE1000_randls_57_rotated.json,1044149,1357943,56,Man
48,624957,DepthScenes,duration_manipulation_targetAtFixation,jsons/v1_VE1000_randls_57_rotated.json,http://54.235.29.9/FacialAge/BNav_EC2/DepthDuration/v2_depth_duration_MTurk/v2_DepthDuration_HTML.html#101,101,1366,649,1366,768,8-22-2022,9-13-38,49,depth_duration_stimuli/001170_2014-06-17_15-43-44_260595134347_rgbf000096-resize_6/001170_2014-06-17_15-43-44_260595134347_rgbf000096-resize-original.jpg,1000,1.1909999999999998,0,4881,999,feet,jsons/v1_VE1000_randls_57_rotated.json,1044149,1357943,56,Man
49,624957,DepthScenes,duration_manipulation_targetAtFixation,jsons/v1_VE1000_randls_57_rotated.json,http://54.235.29.9/FacialAge/BNav_EC2/DepthDuration/v2_depth_duration_MTurk/v2_DepthDuration_HTML.html#101,101,1366,649,1366,768,8-22-2022,9-13-38,50,depth_duration_stimuli/000780_2014-06-08_22-28-29_260595134347_rgbf000126-resize_1/000780_2014-06-08_22-28-29_260595134347_rgbf000126-resize_1-target.png,1000,3.3825,8,5434,999,feet,jsons/v1_VE1000_randls_57_rotated.json,1044149,1357943,56,Man
50,624957,DepthScenes,duration_manipulation_targetAtFixation,jsons/v1_VE1000_randls_57_rotated.json,http://54.235.29.9/FacialAge/BNav_EC2/DepthDuration/v2_depth_duration_MTurk/v2_DepthDuration_HTML.html#101,101,1366,649,1366,768,8-22-2022,9-13-38,51,depth_duration_stimuli/002445_2014-06-28_20-32-16_260595134347_rgbf000029-resize_4/002445_2014-06-28_20-32-16_260595134347_rgbf000029-resize_4-target.png,1000,2.5315,7,4615,997,feet,jsons/v1_VE1000_randls_57_rotated.json,1044149,1357943,56,Man
51,624957,DepthScenes,duration_manipulation_targetAtFixation,jsons/v1_VE1000_randls_57_rotated.json,http://54.235.29.9/FacialAge/BNav_EC2/DepthDuration/v2_depth_duration_MTurk/v2_DepthDuration_HTML.html#101,101,1366,649,1366,768,8-22-2022,9-13-38,52,depth_duration_stimuli/001235_2014-06-17_16-37-36_260595134347_rgbf000084-resize_4/001235_2014-06-17_16-37-36_260595134347_rgbf000084-resize_4-target.png,1000,3.6605,8,4483,997,feet,jsons/v1_VE1000_randls_57_rotated.json,1044149,1357943,56,Man
52,624957,DepthScenes,duration_manipulation_targetAtFixation,jsons/v1_VE1000_randls_57_rotated.json,http://54.235.29.9/FacialAge/BNav_EC2/DepthDuration/v2_depth_duration_MTurk/v2_DepthDuration_HTML.html#101,101,1366,649,1366,768,8-22-2022,9-13-38,53,depth_duration_stimuli/000788_2014-06-08_22-34-36_260595134347_rgbf000131-resize_1/000788_2014-06-08_22-34-36_260595134347_rgbf000131-resize_1-target.png,1000,3.359,9,5078,999,feet,jsons/v1_VE1000_randls_57_rotated.json,1044149,1357943,56,Man
53,624957,DepthScenes,duration_manipulation_targetAtFixation,jsons/v1_VE1000_randls_57_rotated.json,http://54.235.29.9/FacialAge/BNav_EC2/DepthDuration/v2_depth_duration_MTurk/v2_DepthDuration_HTML.html#101,101,1366,649,1366,768,8-22-2022,9-13-38,54,depth_duration_stimuli/000943_2014-06-09_19-31-07_260595134347_rgbf000128-resize_1/000943_2014-06-09_19-31-07_260595134347_rgbf000128-resize_1-target.png,1000,1.9765,6,5097,998,feet,jsons/v1_VE1000_randls_57_rotated.json,1044149,1357943,56,Man
54,624957,DepthScenes,duration_manipulation_targetAtFixation,jsons/v1_VE1000_randls_57_rotated.json,http://54.235.29.9/FacialAge/BNav_EC2/DepthDuration/v2_depth_duration_MTurk/v2_DepthDuration_HTML.html#101,101,1366,649,1366,768,8-22-2022,9-13-38,55,depth_duration_stimuli/003070_2014-06-15_14-58-27_094959634447_rgbf000150-resize_3/003070_2014-06-15_14-58-27_094959634447_rgbf000150-resize_3-target.png,1000,2.9415,8,4687,999,feet,jsons/v1_VE1000_randls_57_rotated.json,1044149,1357943,56,Man
55,624957,DepthScenes,duration_manipulation_targetAtFixation,jsons/v1_VE1000_randls_57_rotated.json,http://54.235.29.9/FacialAge/BNav_EC2/DepthDuration/v2_depth_duration_MTurk/v2_DepthDuration_HTML.html#101,101,1366,649,1366,768,8-22-2022,9-13-38,56,depth_duration_stimuli/003081_2014-06-15_15-19-16_094959634447_rgbf000150-resize_1/003081_2014-06-15_15-19-16_094959634447_rgbf000150-resize_1-target.png,1000,3.9125,12,4292,999,feet,jsons/v1_VE1000_randls_57_rotated.json,1044149,1357943,56,Man
56,624957,DepthScenes,duration_manipulation_targetAtFixation,jsons/v1_VE1000_randls_57_rotated.json,http://54.235.29.9/FacialAge/BNav_EC2/DepthDuration/v2_depth_duration_MTurk/v2_DepthDuration_HTML.html#101,101,1366,649,1366,768,8-22-2022,9-13-38,57,depth_duration_stimuli/001417_2014-06-19_16-25-36_260595134347_rgbf000115-resize_5/001417_2014-06-19_16-25-36_260595134347_rgbf000115-resize_5-target.png,1000,4.6255,11,3932,999,feet,jsons/v1_VE1000_randls_57_rotated.json,1044149,1357943,56,Man
57,624957,DepthScenes,duration_manipulation_targetAtFixation,jsons/v1_VE1000_randls_57_rotated.json,http://54.235.29.9/FacialAge/BNav_EC2/DepthDuration/v2_depth_duration_MTurk/v2_DepthDuration_HTML.html#101,101,1366,649,1366,768,8-22-2022,9-13-38,58,depth_duration_stimuli/002875_2014-06-01_15-19-00_094959634447_rgbf000151-resize_1/002875_2014-06-01_15-19-00_094959634447_rgbf000151-resize_1-target.png,1000,1.9675,6,4388,997,feet,jsons/v1_VE1000_randls_57_rotated.json,1044149,1357943,56,Man
58,624957,DepthScenes,duration_manipulation_targetAtFixation,jsons/v1_VE1000_randls_57_rotated.json,http://54.235.29.9/FacialAge/BNav_EC2/DepthDuration/v2_depth_duration_MTurk/v2_DepthDuration_HTML.html#101,101,1366,649,1366,768,8-22-2022,9-13-38,59,depth_duration_stimuli/001011_2014-06-08_23-18-54_260595134347_rgbf000044-resize_4/001011_2014-06-08_23-18-54_260595134347_rgbf000044-resize_4-target.png,1000,2.4730000000000003,5,5376,998,feet,jsons/v1_VE1000_randls_57_rotated.json,1044149,1357943,56,Man
59,624957,DepthScenes,duration_manipulation_targetAtFixation,jsons/v1_VE1000_randls_57_rotated.json,http://54.235.29.9/FacialAge/BNav_EC2/DepthDuration/v2_depth_duration_MTurk/v2_DepthDuration_HTML.html#101,101,1366,649,1366,768,8-22-2022,9-13-38,60,depth_duration_stimuli/003228_2014-05-14_13-42-35_094959634447_rgbf000101-resize_1/003228_2014-05-14_13-42-35_094959634447_rgbf000101-resize_1-target.png,1000,1.9680000000000002,7,4189,999,feet,jsons/v1_VE1000_randls_57_rotated.json,1044149,1357943,56,Man
60,624957,DepthScenes,duration_manipulation_targetAtFixation,jsons/v1_VE1000_randls_57_rotated.json,http://54.235.29.9/FacialAge/BNav_EC2/DepthDuration/v2_depth_duration_MTurk/v2_DepthDuration_HTML.html#101,101,1366,649,1366,768,8-22-2022,9-13-38,61,depth_duration_stimuli/002600_2014-06-24_14-27-04_094959634447_rgbf000074-resize_2/002600_2014-06-24_14-27-04_094959634447_rgbf000074-resize_2-target.png,1000,2.7575,8,4359,998,feet,jsons/v1_VE1000_randls_57_rotated.json,1044149,1357943,56,Man
61,624957,DepthScenes,duration_manipulation_targetAtFixation,jsons/v1_VE1000_randls_57_rotated.json,http://54.235.29.9/FacialAge/BNav_EC2/DepthDuration/v2_depth_duration_MTurk/v2_DepthDuration_HTML.html#101,101,1366,649,1366,768,8-22-2022,9-13-38,62,depth_duration_stimuli/002660_2014-06-13_15-44-18_094959634447_rgbf001878-resize_2/002660_2014-06-13_15-44-18_094959634447_rgbf001878-resize_2-target.png,1000,3.576,8,8995,997,feet,jsons/v1_VE1000_randls_57_rotated.json,1044149,1357943,56,Man
62,624957,DepthScenes,duration_manipulation_targetAtFixation,jsons/v1_VE1000_randls_57_rotated.json,http://54.235.29.9/FacialAge/BNav_EC2/DepthDuration/v2_depth_duration_MTurk/v2_DepthDuration_HTML.html#101,101,1366,649,1366,768,8-22-2022,9-13-38,63,depth_duration_stimuli/002153_2014-06-25_21-27-18_260595134347_rgbf000038-resize_5/002153_2014-06-25_21-27-18_260595134347_rgbf000038-resize_5-target.png,1000,2.505,6,4627,998,feet,jsons/v1_VE1000_randls_57_rotated.json,1044149,1357943,56,Man
63,624957,DepthScenes,duration_manipulation_targetAtFixation,jsons/v1_VE1000_randls_57_rotated.json,http://54.235.29.9/FacialAge/BNav_EC2/DepthDuration/v2_depth_duration_MTurk/v2_DepthDuration_HTML.html#101,101,1366,649,1366,768,8-22-2022,9-13-38,64,depth_duration_stimuli/002637_2014-06-24_14-51-13_094959634447_rgbf000066-resize_4/002637_2014-06-24_14-51-13_094959634447_rgbf000066-resize_4-target.png,1000,1.9955,8,4388,998,feet,jsons/v1_VE1000_randls_57_rotated.json,1044149,1357943,56,Man
64,624957,DepthScenes,duration_manipulation_targetAtFixation,jsons/v1_VE1000_randls_57_rotated.json,http://54.235.29.9/FacialAge/BNav_EC2/DepthDuration/v2_depth_duration_MTurk/v2_DepthDuration_HTML.html#101,101,1366,649,1366,768,8-22-2022,9-13-38,65,depth_duration_stimuli/003534_2014-05-22_15-06-10_094959634447_rgbf000102-resize_4/003534_2014-05-22_15-06-10_094959634447_rgbf000102-resize_4-target.png,1000,1.426,6,4407,997,feet,jsons/v1_VE1000_randls_57_rotated.json,1044149,1357943,56,Man
65,624957,DepthScenes,duration_manipulation_targetAtFixation,jsons/v1_VE1000_randls_57_rotated.json,http://54.235.29.9/FacialAge/BNav_EC2/DepthDuration/v2_depth_duration_MTurk/v2_DepthDuration_HTML.html#101,101,1366,649,1366,768,8-22-2022,9-13-38,66,depth_duration_stimuli/001540_2014-06-20_17-01-05_260595134347_rgbf000086-resize_2/001540_2014-06-20_17-01-05_260595134347_rgbf000086-resize-original.jpg,1000,1.459,0,5011,996,feet,jsons/v1_VE1000_randls_57_rotated.json,1044149,1357943,56,Man
66,624957,DepthScenes,duration_manipulation_targetAtFixation,jsons/v1_VE1000_randls_57_rotated.json,http://54.235.29.9/FacialAge/BNav_EC2/DepthDuration/v2_depth_duration_MTurk/v2_DepthDuration_HTML.html#101,101,1366,649,1366,768,8-22-2022,9-13-38,67,depth_duration_stimuli/000677_2014-06-08_23-10-32_260595134347_rgbf000158-resize_6/000677_2014-06-08_23-10-32_260595134347_rgbf000158-resize_6-target.png,1000,3.556,7,4881,996,feet,jsons/v1_VE1000_randls_57_rotated.json,1044149,1357943,56,Man
67,624957,DepthScenes,duration_manipulation_targetAtFixation,jsons/v1_VE1000_randls_57_rotated.json,http://54.235.29.9/FacialAge/BNav_EC2/DepthDuration/v2_depth_duration_MTurk/v2_DepthDuration_HTML.html#101,101,1366,649,1366,768,8-22-2022,9-13-38,68,depth_duration_stimuli/001029_2014-06-08_13-17-57_260595134347_rgbf000065-resize_1/001029_2014-06-08_13-17-57_260595134347_rgbf000065-resize_1-target.png,1000,3.0835,8,4822,998,feet,jsons/v1_VE1000_randls_57_rotated.json,1044149,1357943,56,Man
68,624957,DepthScenes,duration_manipulation_targetAtFixation,jsons/v1_VE1000_randls_57_rotated.json,http://54.235.29.9/FacialAge/BNav_EC2/DepthDuration/v2_depth_duration_MTurk/v2_DepthDuration_HTML.html#101,101,1366,649,1366,768,8-22-2022,9-13-38,69,depth_duration_stimuli/002340_2014-06-28_20-05-46_260595134347_rgbf000113-resize_0/002340_2014-06-28_20-05-46_260595134347_rgbf000113-resize_0-target.png,1000,2.4735,8,5118,998,feet,jsons/v1_VE1000_randls_57_rotated.json,1044149,1357943,56,Man
69,624957,DepthScenes,duration_manipulation_targetAtFixation,jsons/v1_VE1000_randls_57_rotated.json,http://54.235.29.9/FacialAge/BNav_EC2/DepthDuration/v2_depth_duration_MTurk/v2_DepthDuration_HTML.html#101,101,1366,649,1366,768,8-22-2022,9-13-38,70,depth_duration_stimuli/001016_2014-06-09_16-16-10_260595134347_rgbf000112-resize_5/001016_2014-06-09_16-16-10_260595134347_rgbf000112-resize_5-target.png,1000,1.6565,6,4769,999,feet,jsons/v1_VE1000_randls_57_rotated.json,1044149,1357943,56,Man
70,624957,DepthScenes,duration_manipulation_targetAtFixation,jsons/v1_VE1000_randls_57_rotated.json,http://54.235.29.9/FacialAge/BNav_EC2/DepthDuration/v2_depth_duration_MTurk/v2_DepthDuration_HTML.html#101,101,1366,649,1366,768,8-22-2022,9-13-38,71,depth_duration_stimuli/000191_2014-05-12_17-07-38_260595134347_rgbf000199-resize_0/000191_2014-05-12_17-07-38_260595134347_rgbf000199-resize_0-target.png,1000,3.7995,10,7475,999,feet,jsons/v1_VE1000_randls_57_rotated.json,1044149,1357943,56,Man
71,624957,DepthScenes,duration_manipulation_targetAtFixation,jsons/v1_VE1000_randls_57_rotated.json,http://54.235.29.9/FacialAge/BNav_EC2/DepthDuration/v2_depth_duration_MTurk/v2_DepthDuration_HTML.html#101,101,1366,649,1366,768,8-22-2022,9-13-38,72,depth_duration_stimuli/000493_2014-06-09_21-01-18_260595134347_rgbf000196-resize_3/000493_2014-06-09_21-01-18_260595134347_rgbf000196-resize_3-target.png,1000,3.44,10,6387,998,feet,jsons/v1_VE1000_randls_57_rotated.json,1044149,1357943,56,Man
72,624957,DepthScenes,duration_manipulation_targetAtFixation,jsons/v1_VE1000_randls_57_rotated.json,http://54.235.29.9/FacialAge/BNav_EC2/DepthDuration/v2_depth_duration_MTurk/v2_DepthDuration_HTML.html#101,101,1366,649,1366,768,8-22-2022,9-13-38,73,depth_duration_stimuli/003423_2014-05-21_10-23-26_094959634447_rgbf002665-resize_2/003423_2014-05-21_10-23-26_094959634447_rgbf002665-resize_2-target.png,1000,3.2575,12,5061,997,feet,jsons/v1_VE1000_randls_57_rotated.json,1044149,1357943,56,Man
73,624957,DepthScenes,duration_manipulation_targetAtFixation,jsons/v1_VE1000_randls_57_rotated.json,http://54.235.29.9/FacialAge/BNav_EC2/DepthDuration/v2_depth_duration_MTurk/v2_DepthDuration_HTML.html#101,101,1366,649,1366,768,8-22-2022,9-13-38,74,depth_duration_stimuli/002905_2014-06-03_18-04-43_094959634447_rgbf000151-resize_2/002905_2014-06-03_18-04-43_094959634447_rgbf000151-resize_2-target.png,1000,2.0295,7,4391,996,feet,jsons/v1_VE1000_randls_57_rotated.json,1044149,1357943,56,Man
74,624957,DepthScenes,duration_manipulation_targetAtFixation,jsons/v1_VE1000_randls_57_rotated.json,http://54.235.29.9/FacialAge/BNav_EC2/DepthDuration/v2_depth_duration_MTurk/v2_DepthDuration_HTML.html#101,101,1366,649,1366,768,8-22-2022,9-13-38,75,depth_duration_stimuli/001815_2014-06-26_20-52-55_260595134347_rgbf000020-resize_0/001815_2014-06-26_20-52-55_260595134347_rgbf000020-resize_0-target.png,1000,3.3865,8,5057,998,feet,jsons/v1_VE1000_randls_57_rotated.json,1044149,1357943,56,Man
75,624957,DepthScenes,duration_manipulation_targetAtFixation,jsons/v1_VE1000_randls_57_rotated.json,http://54.235.29.9/FacialAge/BNav_EC2/DepthDuration/v2_depth_duration_MTurk/v2_DepthDuration_HTML.html#101,101,1366,649,1366,768,8-22-2022,9-13-38,76,depth_duration_stimuli/001808_2014-06-26_20-50-58_260595134347_rgbf000029-resize_1/001808_2014-06-26_20-50-58_260595134347_rgbf000029-resize_1-target.png,1000,4.249,7,5655,997,feet,jsons/v1_VE1000_randls_57_rotated.json,1044149,1357943,56,Man
76,624957,DepthScenes,duration_manipulation_targetAtFixation,jsons/v1_VE1000_randls_57_rotated.json,http://54.235.29.9/FacialAge/BNav_EC2/DepthDuration/v2_depth_duration_MTurk/v2_DepthDuration_HTML.html#101,101,1366,649,1366,768,8-22-2022,9-13-38,77,depth_duration_stimuli/003490_2014-05-21_15-50-11_094959634447_rgbf000101-resize_3/003490_2014-05-21_15-50-11_094959634447_rgbf000101-resize_3-target.png,1000,3.6445,10,5216,998,feet,jsons/v1_VE1000_randls_57_rotated.json,1044149,1357943,56,Man
77,624957,DepthScenes,duration_manipulation_targetAtFixation,jsons/v1_VE1000_randls_57_rotated.json,http://54.235.29.9/FacialAge/BNav_EC2/DepthDuration/v2_depth_duration_MTurk/v2_DepthDuration_HTML.html#101,101,1366,649,1366,768,8-22-2022,9-13-38,78,depth_duration_stimuli/001175_2014-06-17_15-45-55_260595134347_rgbf000129-resize_4/001175_2014-06-17_15-45-55_260595134347_rgbf000129-resize_4-target.png,1000,4.255,14,4947,997,feet,jsons/v1_VE1000_randls_57_rotated.json,1044149,1357943,56,Man
78,624957,DepthScenes,duration_manipulation_targetAtFixation,jsons/v1_VE1000_randls_57_rotated.json,http://54.235.29.9/FacialAge/BNav_EC2/DepthDuration/v2_depth_duration_MTurk/v2_DepthDuration_HTML.html#101,101,1366,649,1366,768,8-22-2022,9-13-38,79,depth_duration_stimuli/000709_2014-06-08_13-51-55_260595134347_rgbf000068-resize_3/000709_2014-06-08_13-51-55_260595134347_rgbf000068-resize_3-target.png,1000,1.8030000000000002,8,4825,999,feet,jsons/v1_VE1000_randls_57_rotated.json,1044149,1357943,56,Man
79,624957,DepthScenes,duration_manipulation_targetAtFixation,jsons/v1_VE1000_randls_57_rotated.json,http://54.235.29.9/FacialAge/BNav_EC2/DepthDuration/v2_depth_duration_MTurk/v2_DepthDuration_HTML.html#101,101,1366,649,1366,768,8-22-2022,9-13-38,80,depth_duration_stimuli/002057_2014-06-24_21-00-13_260595134347_rgbf000120-resize_1/002057_2014-06-24_21-00-13_260595134347_rgbf000120-resize_1-target.png,1000,2.967,8,8525,998,feet,jsons/v1_VE1000_randls_57_rotated.json,1044149,1357943,56,Man
80,624957,DepthScenes,duration_manipulation_targetAtFixation,jsons/v1_VE1000_randls_57_rotated.json,http://54.235.29.9/FacialAge/BNav_EC2/DepthDuration/v2_depth_duration_MTurk/v2_DepthDuration_HTML.html#101,101,1366,649,1366,768,8-22-2022,9-13-38,81,depth_duration_stimuli/000457_2014-06-08_16-52-43_260595134347_rgbf000199-resize_1/000457_2014-06-08_16-52-43_260595134347_rgbf000199-resize_1-target.png,1000,3.6489999999999996,10,6490,998,feet,jsons/v1_VE1000_randls_57_rotated.json,1044149,1357943,56,Man
81,624957,DepthScenes,duration_manipulation_targetAtFixation,jsons/v1_VE1000_randls_57_rotated.json,http://54.235.29.9/FacialAge/BNav_EC2/DepthDuration/v2_depth_duration_MTurk/v2_DepthDuration_HTML.html#101,101,1366,649,1366,768,8-22-2022,9-13-38,82,depth_duration_stimuli/000929_2014-06-09_16-33-19_260595134347_rgbf000139-resize_0/000929_2014-06-09_16-33-19_260595134347_rgbf000139-resize_0-target.png,1000,2.8680000000000003,10,7238,998,feet,jsons/v1_VE1000_randls_57_rotated.json,1044149,1357943,56,Man
82,624957,DepthScenes,duration_manipulation_targetAtFixation,jsons/v1_VE1000_randls_57_rotated.json,http://54.235.29.9/FacialAge/BNav_EC2/DepthDuration/v2_depth_duration_MTurk/v2_DepthDuration_HTML.html#101,101,1366,649,1366,768,8-22-2022,9-13-38,83,depth_duration_stimuli/003010_2014-06-15_12-54-35_094959634447_rgbf000112-resize_0/003010_2014-06-15_12-54-35_094959634447_rgbf000112-resize_0-target.png,1000,3.1185,14,6261,998,feet,jsons/v1_VE1000_randls_57_rotated.json,1044149,1357943,56,Man
83,624957,DepthScenes,duration_manipulation_targetAtFixation,jsons/v1_VE1000_randls_57_rotated.json,http://54.235.29.9/FacialAge/BNav_EC2/DepthDuration/v2_depth_duration_MTurk/v2_DepthDuration_HTML.html#101,101,1366,649,1366,768,8-22-2022,9-13-38,84,depth_duration_stimuli/001810_2014-06-26_20-51-35_260595134347_rgbf000040-resize_3/001810_2014-06-26_20-51-35_260595134347_rgbf000040-resize_3-target.png,1000,2.2525,8,5220,994,feet,jsons/v1_VE1000_randls_57_rotated.json,1044149,1357943,56,Man
84,624957,DepthScenes,duration_manipulation_targetAtFixation,jsons/v1_VE1000_randls_57_rotated.json,http://54.235.29.9/FacialAge/BNav_EC2/DepthDuration/v2_depth_duration_MTurk/v2_DepthDuration_HTML.html#101,101,1366,649,1366,768,8-22-2022,9-13-38,85,depth_duration_stimuli/000927_2014-06-09_16-32-30_260595134347_rgbf000123-resize_3/000927_2014-06-09_16-32-30_260595134347_rgbf000123-resize_3-target.png,1000,2.6785,8,5330,999,feet,jsons/v1_VE1000_randls_57_rotated.json,1044149,1357943,56,Man
85,624957,DepthScenes,duration_manipulation_targetAtFixation,jsons/v1_VE1000_randls_57_rotated.json,http://54.235.29.9/FacialAge/BNav_EC2/DepthDuration/v2_depth_duration_MTurk/v2_DepthDuration_HTML.html#101,101,1366,649,1366,768,8-22-2022,9-13-38,86,depth_duration_stimuli/001110_2014-06-15_17-25-28_260595134347_rgbf000150-resize_1/001110_2014-06-15_17-25-28_260595134347_rgbf000150-resize_1-target.png,1000,1.7115,6,6213,999,feet,jsons/v1_VE1000_randls_57_rotated.json,1044149,1357943,56,Man
86,624957,DepthScenes,duration_manipulation_targetAtFixation,jsons/v1_VE1000_randls_57_rotated.json,http://54.235.29.9/FacialAge/BNav_EC2/DepthDuration/v2_depth_duration_MTurk/v2_DepthDuration_HTML.html#101,101,1366,649,1366,768,8-22-2022,9-13-38,87,depth_duration_stimuli/002949_2014-06-26_15-57-42_094959634447_rgbf000079-resize_1/002949_2014-06-26_15-57-42_094959634447_rgbf000079-resize_1-target.png,1000,1.8915,6,5636,998,feet,jsons/v1_VE1000_randls_57_rotated.json,1044149,1357943,56,Man
87,624957,DepthScenes,duration_manipulation_targetAtFixation,jsons/v1_VE1000_randls_57_rotated.json,http://54.235.29.9/FacialAge/BNav_EC2/DepthDuration/v2_depth_duration_MTurk/v2_DepthDuration_HTML.html#101,101,1366,649,1366,768,8-22-2022,9-13-38,88,depth_duration_stimuli/000522_2014-06-08_13-35-06_260595134347_rgbf000244-resize_1/000522_2014-06-08_13-35-06_260595134347_rgbf000244-resize_1-target.png,1000,2.3715,5,6618,996,feet,jsons/v1_VE1000_randls_57_rotated.json,1044149,1357943,56,Man
88,624957,DepthScenes,duration_manipulation_targetAtFixation,jsons/v1_VE1000_randls_57_rotated.json,http://54.235.29.9/FacialAge/BNav_EC2/DepthDuration/v2_depth_duration_MTurk/v2_DepthDuration_HTML.html#101,101,1366,649,1366,768,8-22-2022,9-13-38,89,depth_duration_stimuli/001032_2014-06-08_13-23-17_260595134347_rgbf000021-resize_3/001032_2014-06-08_13-23-17_260595134347_rgbf000021-resize_3-target.png,1000,3.2725,10,19180,998,feet,jsons/v1_VE1000_randls_57_rotated.json,1044149,1357943,56,Man
89,624957,DepthScenes,duration_manipulation_targetAtFixation,jsons/v1_VE1000_randls_57_rotated.json,http://54.235.29.9/FacialAge/BNav_EC2/DepthDuration/v2_depth_duration_MTurk/v2_DepthDuration_HTML.html#101,101,1366,649,1366,768,8-22-2022,9-13-38,90,depth_duration_stimuli/001059_2014-06-08_21-53-27_260595134347_rgbf000061-resize_4/001059_2014-06-08_21-53-27_260595134347_rgbf000061-resize_4-target.png,1000,2.4185,6,4960,998,feet,jsons/v1_VE1000_randls_57_rotated.json,1044149,1357943,56,Man
90,624957,DepthScenes,duration_manipulation_targetAtFixation,jsons/v1_VE1000_randls_57_rotated.json,http://54.235.29.9/FacialAge/BNav_EC2/DepthDuration/v2_depth_duration_MTurk/v2_DepthDuration_HTML.html#101,101,1366,649,1366,768,8-22-2022,9-13-38,91,depth_duration_stimuli/001650_2014-06-20_12-09-00_260595134347_rgbf000087-resize_3/001650_2014-06-20_12-09-00_260595134347_rgbf000087-resize_3-target.png,1000,1.9505,4,5394,999,feet,jsons/v1_VE1000_randls_57_rotated.json,1044149,1357943,56,Man
91,624957,DepthScenes,duration_manipulation_targetAtFixation,jsons/v1_VE1000_randls_57_rotated.json,http://54.235.29.9/FacialAge/BNav_EC2/DepthDuration/v2_depth_duration_MTurk/v2_DepthDuration_HTML.html#101,101,1366,649,1366,768,8-22-2022,9-13-38,92,depth_duration_stimuli/000682_2014-06-08_23-14-58_260595134347_rgbf000041-resize_5/000682_2014-06-08_23-14-58_260595134347_rgbf000041-resize_5-target.png,1000,2.7239999999999998,8,4724,997,feet,jsons/v1_VE1000_randls_57_rotated.json,1044149,1357943,56,Man
92,624957,DepthScenes,duration_manipulation_targetAtFixation,jsons/v1_VE1000_randls_57_rotated.json,http://54.235.29.9/FacialAge/BNav_EC2/DepthDuration/v2_depth_duration_MTurk/v2_DepthDuration_HTML.html#101,101,1366,649,1366,768,8-22-2022,9-13-38,93,depth_duration_stimuli/003338_2014-05-20_11-01-23_094959634447_rgbf000051-resize_6/003338_2014-05-20_11-01-23_094959634447_rgbf000051-resize_6-target.png,1000,1.693,6,4379,999,feet,jsons/v1_VE1000_randls_57_rotated.json,1044149,1357943,56,Man
93,624957,DepthScenes,duration_manipulation_targetAtFixation,jsons/v1_VE1000_randls_57_rotated.json,http://54.235.29.9/FacialAge/BNav_EC2/DepthDuration/v2_depth_duration_MTurk/v2_DepthDuration_HTML.html#101,101,1366,649,1366,768,8-22-2022,9-13-38,94,depth_duration_stimuli/002509_2014-06-24_13-19-22_094959634447_rgbf000077-resize_0/002509_2014-06-24_13-19-22_094959634447_rgbf000077-resize_0-target.png,1000,1.3065,7,5529,998,feet,jsons/v1_VE1000_randls_57_rotated.json,1044149,1357943,56,Man
94,624957,DepthScenes,duration_manipulation_targetAtFixation,jsons/v1_VE1000_randls_57_rotated.json,http://54.235.29.9/FacialAge/BNav_EC2/DepthDuration/v2_depth_duration_MTurk/v2_DepthDuration_HTML.html#101,101,1366,649,1366,768,8-22-2022,9-13-38,95,depth_duration_stimuli/001214_2014-06-17_16-13-55_260595134347_rgbf000111-resize_0/001214_2014-06-17_16-13-55_260595134347_rgbf000111-resize_0-target.png,1000,2.6505,9,5904,999,feet,jsons/v1_VE1000_randls_57_rotated.json,1044149,1357943,56,Man
95,624957,DepthScenes,duration_manipulation_targetAtFixation,jsons/v1_VE1000_randls_57_rotated.json,http://54.235.29.9/FacialAge/BNav_EC2/DepthDuration/v2_depth_duration_MTurk/v2_DepthDuration_HTML.html#101,101,1366,649,1366,768,8-22-2022,9-13-38,96,depth_duration_stimuli/000810_2014-06-08_17-20-01_260595134347_rgbf000105-resize_0/000810_2014-06-08_17-20-01_260595134347_rgbf000105-resize_0-target.png,1000,1.4865,5,7573,996,feet,jsons/v1_VE1000_randls_57_rotated.json,1044149,1357943,56,Man
96,624957,DepthScenes,duration_manipulation_targetAtFixation,jsons/v1_VE1000_randls_57_rotated.json,http://54.235.29.9/FacialAge/BNav_EC2/DepthDuration/v2_depth_duration_MTurk/v2_DepthDuration_HTML.html#101,101,1366,649,1366,768,8-22-2022,9-13-38,97,depth_duration_stimuli/000502_2014-06-08_23-02-32_260595134347_rgbf000063-resize_4/000502_2014-06-08_23-02-32_260595134347_rgbf000063-resize_4-target.png,1000,2.431,6,5011,998,feet,jsons/v1_VE1000_randls_57_rotated.json,1044149,1357943,56,Man
97,624957,DepthScenes,duration_manipulation_targetAtFixation,jsons/v1_VE1000_randls_57_rotated.json,http://54.235.29.9/FacialAge/BNav_EC2/DepthDuration/v2_depth_duration_MTurk/v2_DepthDuration_HTML.html#101,101,1366,649,1366,768,8-22-2022,9-13-38,98,depth_duration_stimuli/001199_2014-06-17_16-03-48_260595134347_rgbf000077-resize_0/001199_2014-06-17_16-03-48_260595134347_rgbf000077-resize_0-target.png,1000,3.4375,14,5668,999,feet,jsons/v1_VE1000_randls_57_rotated.json,1044149,1357943,56,Man
98,624957,DepthScenes,duration_manipulation_targetAtFixation,jsons/v1_VE1000_randls_57_rotated.json,http://54.235.29.9/FacialAge/BNav_EC2/DepthDuration/v2_depth_duration_MTurk/v2_DepthDuration_HTML.html#101,101,1366,649,1366,768,8-22-2022,9-13-38,99,depth_duration_stimuli/001222_2014-06-17_16-24-06_260595134347_rgbf000073-resize_0/001222_2014-06-17_16-24-06_260595134347_rgbf000073-resize-original.jpg,1000,1.4385,0,23057,998,feet,jsons/v1_VE1000_randls_57_rotated.json,1044149,1357943,56,Man
99,624957,DepthScenes,duration_manipulation_targetAtFixation,jsons/v1_VE1000_randls_57_rotated.json,http://54.235.29.9/FacialAge/BNav_EC2/DepthDuration/v2_depth_duration_MTurk/v2_DepthDuration_HTML.html#101,101,1366,649,1366,768,8-22-2022,9-13-38,100,depth_duration_stimuli/003083_2014-06-15_15-21-03_094959634447_rgbf000063-resize_1/003083_2014-06-15_15-21-03_094959634447_rgbf000063-resize_1-target.png,1000,4.1405,14,5381,999,feet,jsons/v1_VE1000_randls_57_rotated.json,1044149,1357943,56,Man
100,624957,DepthScenes,duration_manipulation_targetAtFixation,jsons/v1_VE1000_randls_57_rotated.json,http://54.235.29.9/FacialAge/BNav_EC2/DepthDuration/v2_depth_duration_MTurk/v2_DepthDuration_HTML.html#101,101,1366,649,1366,768,8-22-2022,9-13-38,101,depth_duration_stimuli/000486_2014-06-09_20-47-20_260595134347_rgbf000143-resize_2/000486_2014-06-09_20-47-20_260595134347_rgbf000143-resize_2-target.png,1000,4.8325,14,4710,995,feet,jsons/v1_VE1000_randls_57_rotated.json,1044149,1357943,56,Man
101,624957,DepthScenes,duration_manipulation_targetAtFixation,jsons/v1_VE1000_randls_57_rotated.json,http://54.235.29.9/FacialAge/BNav_EC2/DepthDuration/v2_depth_duration_MTurk/v2_DepthDuration_HTML.html#101,101,1366,649,1366,768,8-22-2022,9-13-38,102,depth_duration_stimuli/002568_2014-06-24_13-59-21_094959634447_rgbf000062-resize_4/002568_2014-06-24_13-59-21_094959634447_rgbf000062-resize_4-target.png,1000,3.015,9,5050,998,feet,jsons/v1_VE1000_randls_57_rotated.json,1044149,1357943,56,Man
102,624957,DepthScenes,duration_manipulation_targetAtFixation,jsons/v1_VE1000_randls_57_rotated.json,http://54.235.29.9/FacialAge/BNav_EC2/DepthDuration/v2_depth_duration_MTurk/v2_DepthDuration_HTML.html#101,101,1366,649,1366,768,8-22-2022,9-13-38,103,depth_duration_stimuli/003492_2014-05-21_15-50-55_094959634447_rgbf000828-resize_1/003492_2014-05-21_15-50-55_094959634447_rgbf000828-resize_1-target.png,1000,4.06875,10,5563,999,feet,jsons/v1_VE1000_randls_57_rotated.json,1044149,1357943,56,Man
103,624957,DepthScenes,duration_manipulation_targetAtFixation,jsons/v1_VE1000_randls_57_rotated.json,http://54.235.29.9/FacialAge/BNav_EC2/DepthDuration/v2_depth_duration_MTurk/v2_DepthDuration_HTML.html#101,101,1366,649,1366,768,8-22-2022,9-13-38,104,depth_duration_stimuli/003129_2014-05-12_10-48-10_094959634447_rgbf000100-resize_0/003129_2014-05-12_10-48-10_094959634447_rgbf000100-resize_0-target.png,1000,4.9305,12,4537,997,feet,jsons/v1_VE1000_randls_57_rotated.json,1044149,1357943,56,Man
104,624957,DepthScenes,duration_manipulation_targetAtFixation,jsons/v1_VE1000_randls_57_rotated.json,http://54.235.29.9/FacialAge/BNav_EC2/DepthDuration/v2_depth_duration_MTurk/v2_DepthDuration_HTML.html#101,101,1366,649,1366,768,8-22-2022,9-13-38,105,depth_duration_stimuli/000414_2014-06-04_19-49-13_260595134347_rgbf000044-resize_0/000414_2014-06-04_19-49-13_260595134347_rgbf000044-resize_0-target.png,1000,4.329,12,4421,997,feet,jsons/v1_VE1000_randls_57_rotated.json,1044149,1357943,56,Man
105,624957,DepthScenes,duration_manipulation_targetAtFixation,jsons/v1_VE1000_randls_57_rotated.json,http://54.235.29.9/FacialAge/BNav_EC2/DepthDuration/v2_depth_duration_MTurk/v2_DepthDuration_HTML.html#101,101,1366,649,1366,768,8-22-2022,9-13-38,106,depth_duration_stimuli/002995_2014-06-15_12-31-26_094959634447_rgbf000150-resize_1/002995_2014-06-15_12-31-26_094959634447_rgbf000150-resize_1-target.png,1000,3.8360000000000003,13,4863,999,feet,jsons/v1_VE1000_randls_57_rotated.json,1044149,1357943,56,Man
106,624957,DepthScenes,duration_manipulation_targetAtFixation,jsons/v1_VE1000_randls_57_rotated.json,http://54.235.29.9/FacialAge/BNav_EC2/DepthDuration/v2_depth_duration_MTurk/v2_DepthDuration_HTML.html#101,101,1366,649,1366,768,8-22-2022,9-13-38,107,depth_duration_stimuli/002748_2014-06-22_19-07-22_094959634447_rgbf000078-resize_1/002748_2014-06-22_19-07-22_094959634447_rgbf000078-resize_1-target.png,1000,4.6705,16,7062,998,feet,jsons/v1_VE1000_randls_57_rotated.json,1044149,1357943,56,Man
107,624957,DepthScenes,duration_manipulation_targetAtFixation,jsons/v1_VE1000_randls_57_rotated.json,http://54.235.29.9/FacialAge/BNav_EC2/DepthDuration/v2_depth_duration_MTurk/v2_DepthDuration_HTML.html#101,101,1366,649,1366,768,8-22-2022,9-13-38,108,depth_duration_stimuli/000103_2014-05-14_22-01-17_260595134347_rgbf000152-resize_5/000103_2014-05-14_22-01-17_260595134347_rgbf000152-resize_5-target.png,1000,1.993,8,4544,999,feet,jsons/v1_VE1000_randls_57_rotated.json,1044149,1357943,56,Man
108,624957,DepthScenes,duration_manipulation_targetAtFixation,jsons/v1_VE1000_randls_57_rotated.json,http://54.235.29.9/FacialAge/BNav_EC2/DepthDuration/v2_depth_duration_MTurk/v2_DepthDuration_HTML.html#101,101,1366,649,1366,768,8-22-2022,9-13-38,109,depth_duration_stimuli/001555_2014-06-20_17-12-10_260595134347_rgbf000065-resize_4/001555_2014-06-20_17-12-10_260595134347_rgbf000065-resize_4-target.png,1000,1.633,5,4285,997,feet,jsons/v1_VE1000_randls_57_rotated.json,1044149,1357943,56,Man
109,624957,DepthScenes,duration_manipulation_targetAtFixation,jsons/v1_VE1000_randls_57_rotated.json,http://54.235.29.9/FacialAge/BNav_EC2/DepthDuration/v2_depth_duration_MTurk/v2_DepthDuration_HTML.html#101,101,1366,649,1366,768,8-22-2022,9-13-38,110,depth_duration_stimuli/002678_2014-06-13_16-15-32_094959634447_rgbf000151-resize_6/002678_2014-06-13_16-15-32_094959634447_rgbf000151-resize_6-target.png,1000,2.1830000000000003,8,5569,998,feet,jsons/v1_VE1000_randls_57_rotated.json,1044149,1357943,56,Man
110,624957,DepthScenes,duration_manipulation_targetAtFixation,jsons/v1_VE1000_randls_57_rotated.json,http://54.235.29.9/FacialAge/BNav_EC2/DepthDuration/v2_depth_duration_MTurk/v2_DepthDuration_HTML.html#101,101,1366,649,1366,768,8-22-2022,9-13-38,111,depth_duration_stimuli/000368_2014-06-09_15-53-01_260595134347_rgbf000155-resize_2/000368_2014-06-09_15-53-01_260595134347_rgbf000155-resize_2-target.png,1000,2.4859999999999998,6,4960,998,feet,jsons/v1_VE1000_randls_57_rotated.json,1044149,1357943,56,Man
111,624957,DepthScenes,duration_manipulation_targetAtFixation,jsons/v1_VE1000_randls_57_rotated.json,http://54.235.29.9/FacialAge/BNav_EC2/DepthDuration/v2_depth_duration_MTurk/v2_DepthDuration_HTML.html#101,101,1366,649,1366,768,8-22-2022,9-13-38,112,depth_duration_stimuli/000635_2014-06-08_16-38-42_260595134347_rgbf000106-resize_1/000635_2014-06-08_16-38-42_260595134347_rgbf000106-resize_1-target.png,1000,2.074,7,6788,997,feet,jsons/v1_VE1000_randls_57_rotated.json,1044149,1357943,56,Man
112,624957,DepthScenes,duration_manipulation_targetAtFixation,jsons/v1_VE1000_randls_57_rotated.json,http://54.235.29.9/FacialAge/BNav_EC2/DepthDuration/v2_depth_duration_MTurk/v2_DepthDuration_HTML.html#101,101,1366,649,1366,768,8-22-2022,9-13-38,113,depth_duration_stimuli/002279_2014-06-28_18-55-32_260595134347_rgbf000040-resize_5/002279_2014-06-28_18-55-32_260595134347_rgbf000040-resize_5-target.png,1000,1.5043333333333,5,4674,999,feet,jsons/v1_VE1000_randls_57_rotated.json,1044149,1357943,56,Man
113,624957,DepthScenes,duration_manipulation_targetAtFixation,jsons/v1_VE1000_randls_57_rotated.json,http://54.235.29.9/FacialAge/BNav_EC2/DepthDuration/v2_depth_duration_MTurk/v2_DepthDuration_HTML.html#101,101,1366,649,1366,768,8-22-2022,9-13-38,114,depth_duration_stimuli/000549_2014-06-08_22-10-24_260595134347_rgbf000247-resize_3/000549_2014-06-08_22-10-24_260595134347_rgbf000247-resize_3-target.png,1000,1.841,5,4138,996,feet,jsons/v1_VE1000_randls_57_rotated.json,1044149,1357943,56,Man
114,624957,DepthScenes,duration_manipulation_targetAtFixation,jsons/v1_VE1000_randls_57_rotated.json,http://54.235.29.9/FacialAge/BNav_EC2/DepthDuration/v2_depth_duration_MTurk/v2_DepthDuration_HTML.html#101,101,1366,649,1366,768,8-22-2022,9-13-38,115,depth_duration_stimuli/001055_2014-06-08_18-45-35_260595134347_rgbf000111-resize_4/001055_2014-06-08_18-45-35_260595134347_rgbf000111-resize_4-target.png,1000,2.4290000000000003,7,6609,998,feet,jsons/v1_VE1000_randls_57_rotated.json,1044149,1357943,56,Man
115,624957,DepthScenes,duration_manipulation_targetAtFixation,jsons/v1_VE1000_randls_57_rotated.json,http://54.235.29.9/FacialAge/BNav_EC2/DepthDuration/v2_depth_duration_MTurk/v2_DepthDuration_HTML.html#101,101,1366,649,1366,768,8-22-2022,9-13-38,116,depth_duration_stimuli/002953_2014-06-08_17-32-18_094959634447_rgbf000059-resize_5/002953_2014-06-08_17-32-18_094959634447_rgbf000059-resize_5-target.png,1000,1.551,5,4050,997,feet,jsons/v1_VE1000_randls_57_rotated.json,1044149,1357943,56,Man
116,624957,DepthScenes,duration_manipulation_targetAtFixation,jsons/v1_VE1000_randls_57_rotated.json,http://54.235.29.9/FacialAge/BNav_EC2/DepthDuration/v2_depth_duration_MTurk/v2_DepthDuration_HTML.html#101,101,1366,649,1366,768,8-22-2022,9-13-38,117,depth_duration_stimuli/000878_2014-06-08_22-52-45_260595134347_rgbf000045-resize_2/000878_2014-06-08_22-52-45_260595134347_rgbf000045-resize_2-target.png,1000,2.092,6,4480,999,feet,jsons/v1_VE1000_randls_57_rotated.json,1044149,1357943,56,Man
117,624957,DepthScenes,duration_manipulation_targetAtFixation,jsons/v1_VE1000_randls_57_rotated.json,http://54.235.29.9/FacialAge/BNav_EC2/DepthDuration/v2_depth_duration_MTurk/v2_DepthDuration_HTML.html#101,101,1366,649,1366,768,8-22-2022,9-13-38,118,depth_duration_stimuli/000734_2014-06-08_17-39-11_260595134347_rgbf000128-resize_2/000734_2014-06-08_17-39-11_260595134347_rgbf000128-resize_2-target.png,1000,4.098,9,5007,996,feet,jsons/v1_VE1000_randls_57_rotated.json,1044149,1357943,56,Man
118,624957,DepthScenes,duration_manipulation_targetAtFixation,jsons/v1_VE1000_randls_57_rotated.json,http://54.235.29.9/FacialAge/BNav_EC2/DepthDuration/v2_depth_duration_MTurk/v2_DepthDuration_HTML.html#101,101,1366,649,1366,768,8-22-2022,9-13-38,119,depth_duration_stimuli/000739_2014-06-08_18-45-58_260595134347_rgbf000068-resize_1/000739_2014-06-08_18-45-58_260595134347_rgbf000068-resize_1-target.png,1000,3.534,8,5391,999,feet,jsons/v1_VE1000_randls_57_rotated.json,1044149,1357943,56,Man
119,624957,DepthScenes,duration_manipulation_targetAtFixation,jsons/v1_VE1000_randls_57_rotated.json,http://54.235.29.9/FacialAge/BNav_EC2/DepthDuration/v2_depth_duration_MTurk/v2_DepthDuration_HTML.html#101,101,1366,649,1366,768,8-22-2022,9-13-38,120,depth_duration_stimuli/000787_2014-06-08_22-33-53_260595134347_rgbf000175-resize_1/000787_2014-06-08_22-33-53_260595134347_rgbf000175-resize-original.jpg,1000,4.784,0,6633,999,feet,jsons/v1_VE1000_randls_57_rotated.json,1044149,1357943,56,Man
120,624957,DepthScenes,duration_manipulation_targetAtFixation,jsons/v1_VE1000_randls_57_rotated.json,http://54.235.29.9/FacialAge/BNav_EC2/DepthDuration/v2_depth_duration_MTurk/v2_DepthDuration_HTML.html#101,101,1366,649,1366,768,8-22-2022,9-13-38,121,depth_duration_stimuli/002103_2014-06-25_20-00-40_260595134347_rgbf000049-resize_0/002103_2014-06-25_20-00-40_260595134347_rgbf000049-resize_0-target.png,1000,4.105,12,19029,998,feet,jsons/v1_VE1000_randls_57_rotated.json,1044149,1357943,56,Man
121,624957,DepthScenes,duration_manipulation_targetAtFixation,jsons/v1_VE1000_randls_57_rotated.json,http://54.235.29.9/FacialAge/BNav_EC2/DepthDuration/v2_depth_duration_MTurk/v2_DepthDuration_HTML.html#101,101,1366,649,1366,768,8-22-2022,9-13-38,122,depth_duration_stimuli/002039_2014-06-24_20-22-38_260595134347_rgbf000084-resize_1/002039_2014-06-24_20-22-38_260595134347_rgbf000084-resize_1-target.png,1000,4.408,12,4696,997,feet,jsons/v1_VE1000_randls_57_rotated.json,1044149,1357943,56,Man
122,624957,DepthScenes,duration_manipulation_targetAtFixation,jsons/v1_VE1000_randls_57_rotated.json,http://54.235.29.9/FacialAge/BNav_EC2/DepthDuration/v2_depth_duration_MTurk/v2_DepthDuration_HTML.html#101,101,1366,649,1366,768,8-22-2022,9-13-38,123,depth_duration_stimuli/002444_2014-06-28_20-32-08_260595134347_rgbf000027-resize_0/002444_2014-06-28_20-32-08_260595134347_rgbf000027-resize_0-target.png,1000,4.388999999999999,12,4634,997,feet,jsons/v1_VE1000_randls_57_rotated.json,1044149,1357943,56,Man
123,624957,DepthScenes,duration_manipulation_targetAtFixation,jsons/v1_VE1000_randls_57_rotated.json,http://54.235.29.9/FacialAge/BNav_EC2/DepthDuration/v2_depth_duration_MTurk/v2_DepthDuration_HTML.html#101,101,1366,649,1366,768,8-22-2022,9-13-38,124,depth_duration_stimuli/000436_2014-06-09_22-25-11_260595134347_rgbf000137-resize_1/000436_2014-06-09_22-25-11_260595134347_rgbf000137-resize_1-target.png,1000,4.0705,10,8075,998,feet,jsons/v1_VE1000_randls_57_rotated.json,1044149,1357943,56,Man
124,624957,DepthScenes,duration_manipulation_targetAtFixation,jsons/v1_VE1000_randls_57_rotated.json,http://54.235.29.9/FacialAge/BNav_EC2/DepthDuration/v2_depth_duration_MTurk/v2_DepthDuration_HTML.html#101,101,1366,649,1366,768,8-22-2022,9-13-38,125,depth_duration_stimuli/002758_2014-06-22_19-11-20_094959634447_rgbf000128-resize_1/002758_2014-06-22_19-11-20_094959634447_rgbf000128-resize_1-target.png,1000,2.555,8,5291,996,feet,jsons/v1_VE1000_randls_57_rotated.json,1044149,1357943,56,Man
125,624957,DepthScenes,duration_manipulation_targetAtFixation,jsons/v1_VE1000_randls_57_rotated.json,http://54.235.29.9/FacialAge/BNav_EC2/DepthDuration/v2_depth_duration_MTurk/v2_DepthDuration_HTML.html#101,101,1366,649,1366,768,8-22-2022,9-13-38,126,depth_duration_stimuli/002630_2014-06-24_14-47-50_094959634447_rgbf000055-resize_1/002630_2014-06-24_14-47-50_094959634447_rgbf000055-resize_1-target.png,1000,3.0095,6,4502,996,feet,jsons/v1_VE1000_randls_57_rotated.json,1044149,1357943,56,Man
126,624957,DepthScenes,duration_manipulation_targetAtFixation,jsons/v1_VE1000_randls_57_rotated.json,http://54.235.29.9/FacialAge/BNav_EC2/DepthDuration/v2_depth_duration_MTurk/v2_DepthDuration_HTML.html#101,101,1366,649,1366,768,8-22-2022,9-13-38,127,depth_duration_stimuli/000409_2014-06-04_19-23-33_260595134347_rgbf000067-resize_0/000409_2014-06-04_19-23-33_260595134347_rgbf000067-resize_0-target.png,1000,3.7335,8,5720,996,feet,jsons/v1_VE1000_randls_57_rotated.json,1044149,1357943,56,Man
127,624957,DepthScenes,duration_manipulation_targetAtFixation,jsons/v1_VE1000_randls_57_rotated.json,http://54.235.29.9/FacialAge/BNav_EC2/DepthDuration/v2_depth_duration_MTurk/v2_DepthDuration_HTML.html#101,101,1366,649,1366,768,8-22-2022,9-13-38,128,depth_duration_stimuli/002663_2014-06-13_15-50-26_094959634447_rgbf000075-resize_1/002663_2014-06-13_15-50-26_094959634447_rgbf000075-resize_1-target.png,1000,4.7495,12,6913,999,feet,jsons/v1_VE1000_randls_57_rotated.json,1044149,1357943,56,Man
128,624957,DepthScenes,duration_manipulation_targetAtFixation,jsons/v1_VE1000_randls_57_rotated.json,http://54.235.29.9/FacialAge/BNav_EC2/DepthDuration/v2_depth_duration_MTurk/v2_DepthDuration_HTML.html#101,101,1366,649,1366,768,8-22-2022,9-13-38,129,depth_duration_stimuli/000109_2014-05-14_23-41-52_260595134347_rgbf000035-resize_9/000109_2014-05-14_23-41-52_260595134347_rgbf000035-resize_9-target.png,1000,1.3545,5,5354,998,feet,jsons/v1_VE1000_randls_57_rotated.json,1044149,1357943,56,Man
129,624957,DepthScenes,duration_manipulation_targetAtFixation,jsons/v1_VE1000_randls_57_rotated.json,http://54.235.29.9/FacialAge/BNav_EC2/DepthDuration/v2_depth_duration_MTurk/v2_DepthDuration_HTML.html#101,101,1366,649,1366,768,8-22-2022,9-13-38,130,depth_duration_stimuli/000470_2014-06-09_19-42-40_260595134347_rgbf000094-resize_1/000470_2014-06-09_19-42-40_260595134347_rgbf000094-resize_1-target.png,1000,1.831,6,4520,997,feet,jsons/v1_VE1000_randls_57_rotated.json,1044149,1357943,56,Man
130,624957,DepthScenes,duration_manipulation_targetAtFixation,jsons/v1_VE1000_randls_57_rotated.json,http://54.235.29.9/FacialAge/BNav_EC2/DepthDuration/v2_depth_duration_MTurk/v2_DepthDuration_HTML.html#101,101,1366,649,1366,768,8-22-2022,9-13-38,131,depth_duration_stimuli/002657_2014-06-13_15-29-54_094959634447_rgbf000150-resize_1/002657_2014-06-13_15-29-54_094959634447_rgbf000150-resize_1-target.png,1000,4.919,12,4178,997,feet,jsons/v1_VE1000_randls_57_rotated.json,1044149,1357943,56,Man
131,624957,DepthScenes,duration_manipulation_targetAtFixation,jsons/v1_VE1000_randls_57_rotated.json,http://54.235.29.9/FacialAge/BNav_EC2/DepthDuration/v2_depth_duration_MTurk/v2_DepthDuration_HTML.html#101,101,1366,649,1366,768,8-22-2022,9-13-38,132,depth_duration_stimuli/002375_2014-06-28_20-13-44_260595134347_rgbf000032-resize_1/002375_2014-06-28_20-13-44_260595134347_rgbf000032-resize_1-target.png,1000,4.0175,8,5320,998,feet,jsons/v1_VE1000_randls_57_rotated.json,1044149,1357943,56,Man
132,624957,DepthScenes,duration_manipulation_targetAtFixation,jsons/v1_VE1000_randls_57_rotated.json,http://54.235.29.9/FacialAge/BNav_EC2/DepthDuration/v2_depth_duration_MTurk/v2_DepthDuration_HTML.html#101,101,1366,649,1366,768,8-22-2022,9-13-38,133,depth_duration_stimuli/000556_2014-06-09_22-42-56_260595134347_rgbf000214-resize_1/000556_2014-06-09_22-42-56_260595134347_rgbf000214-resize_1-target.png,1000,4.8415,8,4531,998,feet,jsons/v1_VE1000_randls_57_rotated.json,1044149,1357943,56,Man
133,624957,DepthScenes,duration_manipulation_targetAtFixation,jsons/v1_VE1000_randls_57_rotated.json,http://54.235.29.9/FacialAge/BNav_EC2/DepthDuration/v2_depth_duration_MTurk/v2_DepthDuration_HTML.html#101,101,1366,649,1366,768,8-22-2022,9-13-38,134,depth_duration_stimuli/001158_2014-06-17_15-32-16_260595134347_rgbf000138-resize_2/001158_2014-06-17_15-32-16_260595134347_rgbf000138-resize_2-target.png,1000,4.5315,13,4333,996,feet,jsons/v1_VE1000_randls_57_rotated.json,1044149,1357943,56,Man
134,624957,DepthScenes,duration_manipulation_targetAtFixation,jsons/v1_VE1000_randls_57_rotated.json,http://54.235.29.9/FacialAge/BNav_EC2/DepthDuration/v2_depth_duration_MTurk/v2_DepthDuration_HTML.html#101,101,1366,649,1366,768,8-22-2022,9-13-38,135,depth_duration_stimuli/000375_2014-06-08_11-17-29_260595134347_rgbf000133-resize_2/000375_2014-06-08_11-17-29_260595134347_rgbf000133-resize-original.jpg,1000,4.718,0,24246,996,feet,jsons/v1_VE1000_randls_57_rotated.json,1044149,1357943,56,Man
135,624957,DepthScenes,duration_manipulation_targetAtFixation,jsons/v1_VE1000_randls_57_rotated.json,http://54.235.29.9/FacialAge/BNav_EC2/DepthDuration/v2_depth_duration_MTurk/v2_DepthDuration_HTML.html#101,101,1366,649,1366,768,8-22-2022,9-13-38,136,depth_duration_stimuli/002414_2014-06-28_20-24-58_260595134347_rgbf000067-resize_4/002414_2014-06-28_20-24-58_260595134347_rgbf000067-resize_4-target.png,1000,4.363,10,6279,999,feet,jsons/v1_VE1000_randls_57_rotated.json,1044149,1357943,56,Man
136,624957,DepthScenes,duration_manipulation_targetAtFixation,jsons/v1_VE1000_randls_57_rotated.json,http://54.235.29.9/FacialAge/BNav_EC2/DepthDuration/v2_depth_duration_MTurk/v2_DepthDuration_HTML.html#101,101,1366,649,1366,768,8-22-2022,9-13-38,137,depth_duration_stimuli/000773_2014-06-08_22-24-54_260595134347_rgbf000093-resize_1/000773_2014-06-08_22-24-54_260595134347_rgbf000093-resize_1-target.png,1000,4.973,12,4684,998,feet,jsons/v1_VE1000_randls_57_rotated.json,1044149,1357943,56,Man
137,624957,DepthScenes,duration_manipulation_targetAtFixation,jsons/v1_VE1000_randls_57_rotated.json,http://54.235.29.9/FacialAge/BNav_EC2/DepthDuration/v2_depth_duration_MTurk/v2_DepthDuration_HTML.html#101,101,1366,649,1366,768,8-22-2022,9-13-38,138,depth_duration_stimuli/001571_2014-06-20_17-21-32_260595134347_rgbf000089-resize_1/001571_2014-06-20_17-21-32_260595134347_rgbf000089-resize_1-target.png,1000,1.86,6,4267,998,feet,jsons/v1_VE1000_randls_57_rotated.json,1044149,1357943,56,Man
138,624957,DepthScenes,duration_manipulation_targetAtFixation,jsons/v1_VE1000_randls_57_rotated.json,http://54.235.29.9/FacialAge/BNav_EC2/DepthDuration/v2_depth_duration_MTurk/v2_DepthDuration_HTML.html#101,101,1366,649,1366,768,8-22-2022,9-13-38,139,depth_duration_stimuli/002272_2014-06-28_18-53-56_260595134347_rgbf000067-resize_2/002272_2014-06-28_18-53-56_260595134347_rgbf000067-resize_2-target.png,1000,1.138,0,4455,999,feet,jsons/v1_VE1000_randls_57_rotated.json,1044149,1357943,56,Man
139,624957,DepthScenes,duration_manipulation_targetAtFixation,jsons/v1_VE1000_randls_57_rotated.json,http://54.235.29.9/FacialAge/BNav_EC2/DepthDuration/v2_depth_duration_MTurk/v2_DepthDuration_HTML.html#101,101,1366,649,1366,768,8-22-2022,9-13-38,140,depth_duration_stimuli/001828_2014-06-26_21-40-03_260595134347_rgbf000024-resize_0/001828_2014-06-26_21-40-03_260595134347_rgbf000024-resize_0-target.png,1000,4.8260000000000005,12,4859,999,feet,jsons/v1_VE1000_randls_57_rotated.json,1044149,1357943,56,Man
140,624957,DepthScenes,duration_manipulation_targetAtFixation,jsons/v1_VE1000_randls_57_rotated.json,http://54.235.29.9/FacialAge/BNav_EC2/DepthDuration/v2_depth_duration_MTurk/v2_DepthDuration_HTML.html#101,101,1366,649,1366,768,8-22-2022,9-13-38,141,depth_duration_stimuli/000009_2014-05-26_14-32-05_260595134347_rgbf000034-resize_3/000009_2014-05-26_14-32-05_260595134347_rgbf000034-resize_3-target.png,1000,3.8715,10,14395,996,feet,jsons/v1_VE1000_randls_57_rotated.json,1044149,1357943,56,Man
141,624957,DepthScenes,duration_manipulation_targetAtFixation,jsons/v1_VE1000_randls_57_rotated.json,http://54.235.29.9/FacialAge/BNav_EC2/DepthDuration/v2_depth_duration_MTurk/v2_DepthDuration_HTML.html#101,101,1366,649,1366,768,8-22-2022,9-13-38,142,depth_duration_stimuli/001617_2014-06-20_11-35-32_260595134347_rgbf000066-resize_1/001617_2014-06-20_11-35-32_260595134347_rgbf000066-resize_1-target.png,1000,3.7910000000000004,10,6779,997,feet,jsons/v1_VE1000_randls_57_rotated.json,1044149,1357943,56,Man
142,624957,DepthScenes,duration_manipulation_targetAtFixation,jsons/v1_VE1000_randls_57_rotated.json,http://54.235.29.9/FacialAge/BNav_EC2/DepthDuration/v2_depth_duration_MTurk/v2_DepthDuration_HTML.html#101,101,1366,649,1366,768,8-22-2022,9-13-38,143,depth_duration_stimuli/001806_2014-06-26_20-50-20_260595134347_rgbf000091-resize_1/001806_2014-06-26_20-50-20_260595134347_rgbf000091-resize_1-target.png,1000,2.7305,6,5326,998,feet,jsons/v1_VE1000_randls_57_rotated.json,1044149,1357943,56,Man
143,624957,DepthScenes,duration_manipulation_targetAtFixation,jsons/v1_VE1000_randls_57_rotated.json,http://54.235.29.9/FacialAge/BNav_EC2/DepthDuration/v2_depth_duration_MTurk/v2_DepthDuration_HTML.html#101,101,1366,649,1366,768,8-22-2022,9-13-38,144,depth_duration_stimuli/002805_2014-06-22_19-54-03_094959634447_rgbf000079-resize_1/002805_2014-06-22_19-54-03_094959634447_rgbf000079-resize_1-target.png,1000,3.1439999999999997,10,5283,996,feet,jsons/v1_VE1000_randls_57_rotated.json,1044149,1357943,56,Man
144,624957,DepthScenes,duration_manipulation_targetAtFixation,jsons/v1_VE1000_randls_57_rotated.json,http://54.235.29.9/FacialAge/BNav_EC2/DepthDuration/v2_depth_duration_MTurk/v2_DepthDuration_HTML.html#101,101,1366,649,1366,768,8-22-2022,9-13-38,145,depth_duration_stimuli/000906_2014-06-08_13-35-43_260595134347_rgbf000155-resize_1/000906_2014-06-08_13-35-43_260595134347_rgbf000155-resize_1-target.png,1000,2.8489999999999998,8,4065,998,feet,jsons/v1_VE1000_randls_57_rotated.json,1044149,1357943,56,Man
145,624957,DepthScenes,duration_manipulation_targetAtFixation,jsons/v1_VE1000_randls_57_rotated.json,http://54.235.29.9/FacialAge/BNav_EC2/DepthDuration/v2_depth_duration_MTurk/v2_DepthDuration_HTML.html#101,101,1366,649,1366,768,8-22-2022,9-13-38,146,depth_duration_stimuli/001100_2014-06-15_17-46-26_260595134347_rgbf000225-resize_2/001100_2014-06-15_17-46-26_260595134347_rgbf000225-resize_2-target.png,1000,2.24,6,4625,998,feet,jsons/v1_VE1000_randls_57_rotated.json,1044149,1357943,56,Man
146,624957,DepthScenes,duration_manipulation_targetAtFixation,jsons/v1_VE1000_randls_57_rotated.json,http://54.235.29.9/FacialAge/BNav_EC2/DepthDuration/v2_depth_duration_MTurk/v2_DepthDuration_HTML.html#101,101,1366,649,1366,768,8-22-2022,9-13-38,147,depth_duration_stimuli/002784_2014-06-22_19-26-30_094959634447_rgbf000083-resize_3/002784_2014-06-22_19-26-30_094959634447_rgbf000083-resize_3-target.png,1000,1.8046666666667,4,4125,998,feet,jsons/v1_VE1000_randls_57_rotated.json,1044149,1357943,56,Man
147,624957,DepthScenes,duration_manipulation_targetAtFixation,jsons/v1_VE1000_randls_57_rotated.json,http://54.235.29.9/FacialAge/BNav_EC2/DepthDuration/v2_depth_duration_MTurk/v2_DepthDuration_HTML.html#101,101,1366,649,1366,768,8-22-2022,9-13-38,148,depth_duration_stimuli/003079_2014-06-15_15-18-20_094959634447_rgbf000152-resize_8/003079_2014-06-15_15-18-20_094959634447_rgbf000152-resize_8-target.png,1000,2.8775,8,4434,996,feet,jsons/v1_VE1000_randls_57_rotated.json,1044149,1357943,56,Man
148,624957,DepthScenes,duration_manipulation_targetAtFixation,jsons/v1_VE1000_randls_57_rotated.json,http://54.235.29.9/FacialAge/BNav_EC2/DepthDuration/v2_depth_duration_MTurk/v2_DepthDuration_HTML.html#101,101,1366,649,1366,768,8-22-2022,9-13-38,149,depth_duration_stimuli/000506_2014-06-08_23-21-00_260595134347_rgbf000070-resize_7/000506_2014-06-08_23-21-00_260595134347_rgbf000070-resize_7-target.png,1000,4.0585,9,4896,997,feet,jsons/v1_VE1000_randls_57_rotated.json,1044149,1357943,56,Man
149,624957,DepthScenes,duration_manipulation_targetAtFixation,jsons/v1_VE1000_randls_57_rotated.json,http://54.235.29.9/FacialAge/BNav_EC2/DepthDuration/v2_depth_duration_MTurk/v2_DepthDuration_HTML.html#101,101,1366,649,1366,768,8-22-2022,9-13-38,150,depth_duration_stimuli/001392_2014-06-19_16-07-59_260595134347_rgbf000046-resize_1/001392_2014-06-19_16-07-59_260595134347_rgbf000046-resize_1-target.png,1000,4.135,12,5153,997,feet,jsons/v1_VE1000_randls_57_rotated.json,1044149,1357943,56,Man
150,624957,DepthScenes,duration_manipulation_targetAtFixation,jsons/v1_VE1000_randls_57_rotated.json,http://54.235.29.9/FacialAge/BNav_EC2/DepthDuration/v2_depth_duration_MTurk/v2_DepthDuration_HTML.html#101,101,1366,649,1366,768,8-22-2022,9-13-38,151,depth_duration_stimuli/001570_2014-06-20_17-21-09_260595134347_rgbf000135-resize_4/001570_2014-06-20_17-21-09_260595134347_rgbf000135-resize_4-target.png,1000,4.467,12,4725,998,feet,jsons/v1_VE1000_randls_57_rotated.json,1044149,1357943,56,Man
151,624957,DepthScenes,duration_manipulation_targetAtFixation,jsons/v1_VE1000_randls_57_rotated.json,http://54.235.29.9/FacialAge/BNav_EC2/DepthDuration/v2_depth_duration_MTurk/v2_DepthDuration_HTML.html#101,101,1366,649,1366,768,8-22-2022,9-13-38,152,depth_duration_stimuli/000569_2014-06-09_22-51-47_260595134347_rgbf000141-resize_3/000569_2014-06-09_22-51-47_260595134347_rgbf000141-resize-original.jpg,1000,4.512,0,11724,998,feet,jsons/v1_VE1000_randls_57_rotated.json,1044149,1357943,56,Man
152,624957,DepthScenes,duration_manipulation_targetAtFixation,jsons/v1_VE1000_randls_57_rotated.json,http://54.235.29.9/FacialAge/BNav_EC2/DepthDuration/v2_depth_duration_MTurk/v2_DepthDuration_HTML.html#101,101,1366,649,1366,768,8-22-2022,9-13-38,153,depth_duration_stimuli/002639_2014-06-24_14-51-37_094959634447_rgbf000074-resize_4/002639_2014-06-24_14-51-37_094959634447_rgbf000074-resize_4-target.png,1000,4.0375,8,4203,998,feet,jsons/v1_VE1000_randls_57_rotated.json,1044149,1357943,56,Man
153,624957,DepthScenes,duration_manipulation_targetAtFixation,jsons/v1_VE1000_randls_57_rotated.json,http://54.235.29.9/FacialAge/BNav_EC2/DepthDuration/v2_depth_duration_MTurk/v2_DepthDuration_HTML.html#101,101,1366,649,1366,768,8-22-2022,9-13-38,154,depth_duration_stimuli/003292_2014-05-14_21-53-49_094959634447_rgbf000100-resize_2/003292_2014-05-14_21-53-49_094959634447_rgbf000100-resize_2-target.png,1000,3.4815,8,5708,998,feet,jsons/v1_VE1000_randls_57_rotated.json,1044149,1357943,56,Man
154,624957,DepthScenes,duration_manipulation_targetAtFixation,jsons/v1_VE1000_randls_57_rotated.json,http://54.235.29.9/FacialAge/BNav_EC2/DepthDuration/v2_depth_duration_MTurk/v2_DepthDuration_HTML.html#101,101,1366,649,1366,768,8-22-2022,9-13-38,155,depth_duration_stimuli/001052_2014-06-08_18-24-54_260595134347_rgbf000130-resize_1/001052_2014-06-08_18-24-54_260595134347_rgbf000130-resize_1-target.png,1000,4.1045,12,4633,997,feet,jsons/v1_VE1000_randls_57_rotated.json,1044149,1357943,56,Man
155,624957,DepthScenes,duration_manipulation_targetAtFixation,jsons/v1_VE1000_randls_57_rotated.json,http://54.235.29.9/FacialAge/BNav_EC2/DepthDuration/v2_depth_duration_MTurk/v2_DepthDuration_HTML.html#101,101,1366,649,1366,768,8-22-2022,9-13-38,156,depth_duration_stimuli/002988_2014-06-15_12-24-20_094959634447_rgbf000150-resize_1/002988_2014-06-15_12-24-20_094959634447_rgbf000150-resize_1-target.png,1000,4.7669999999999995,9,7726,997,feet,jsons/v1_VE1000_randls_57_rotated.json,1044149,1357943,56,Man
156,624957,DepthScenes,duration_manipulation_targetAtFixation,jsons/v1_VE1000_randls_57_rotated.json,http://54.235.29.9/FacialAge/BNav_EC2/DepthDuration/v2_depth_duration_MTurk/v2_DepthDuration_HTML.html#101,101,1366,649,1366,768,8-22-2022,9-13-38,157,depth_duration_stimuli/002209_2014-06-28_18-36-10_260595134347_rgbf000051-resize_1/002209_2014-06-28_18-36-10_260595134347_rgbf000051-resize_1-target.png,1000,2.057,6,5214,997,feet,jsons/v1_VE1000_randls_57_rotated.json,1044149,1357943,56,Man
157,624957,DepthScenes,duration_manipulation_targetAtFixation,jsons/v1_VE1000_randls_57_rotated.json,http://54.235.29.9/FacialAge/BNav_EC2/DepthDuration/v2_depth_duration_MTurk/v2_DepthDuration_HTML.html#101,101,1366,649,1366,768,8-22-2022,9-13-38,158,depth_duration_stimuli/002763_2014-06-22_19-13-10_094959634447_rgbf000075-resize_4/002763_2014-06-22_19-13-10_094959634447_rgbf000075-resize_4-target.png,1000,1.68375,6,5469,997,feet,jsons/v1_VE1000_randls_57_rotated.json,1044149,1357943,56,Man
158,624957,DepthScenes,duration_manipulation_targetAtFixation,jsons/v1_VE1000_randls_57_rotated.json,http://54.235.29.9/FacialAge/BNav_EC2/DepthDuration/v2_depth_duration_MTurk/v2_DepthDuration_HTML.html#101,101,1366,649,1366,768,8-22-2022,9-13-38,159,depth_duration_stimuli/001447_2014-06-19_17-00-32_260595134347_rgbf000082-resize_5/001447_2014-06-19_17-00-32_260595134347_rgbf000082-resize_5-target.png,1000,4.13775,8,7779,999,feet,jsons/v1_VE1000_randls_57_rotated.json,1044149,1357943,56,Man
159,624957,DepthScenes,duration_manipulation_targetAtFixation,jsons/v1_VE1000_randls_57_rotated.json,http://54.235.29.9/FacialAge/BNav_EC2/DepthDuration/v2_depth_duration_MTurk/v2_DepthDuration_HTML.html#101,101,1366,649,1366,768,8-22-2022,9-13-38,160,depth_duration_stimuli/000447_2014-06-08_16-15-46_260595134347_rgbf000130-resize_1/000447_2014-06-08_16-15-46_260595134347_rgbf000130-resize_1-target.png,1000,4.479,12,5884,997,feet,jsons/v1_VE1000_randls_57_rotated.json,1044149,1357943,56,Man
160,624957,DepthScenes,duration_manipulation_targetAtFixation,jsons/v1_VE1000_randls_57_rotated.json,http://54.235.29.9/FacialAge/BNav_EC2/DepthDuration/v2_depth_duration_MTurk/v2_DepthDuration_HTML.html#101,101,1366,649,1366,768,8-22-2022,9-13-38,161,depth_duration_stimuli/000665_2014-06-09_20-42-35_260595134347_rgbf000110-resize_1/000665_2014-06-09_20-42-35_260595134347_rgbf000110-resize_1-target.png,1000,3.057,10,6128,1001,feet,jsons/v1_VE1000_randls_57_rotated.json,1044149,1357943,56,Man
161,624957,DepthScenes,duration_manipulation_targetAtFixation,jsons/v1_VE1000_randls_57_rotated.json,http://54.235.29.9/FacialAge/BNav_EC2/DepthDuration/v2_depth_duration_MTurk/v2_DepthDuration_HTML.html#101,101,1366,649,1366,768,8-22-2022,9-13-38,162,depth_duration_stimuli/001150_2014-06-17_15-27-34_260595134347_rgbf000108-resize_2/001150_2014-06-17_15-27-34_260595134347_rgbf000108-resize_2-target.png,1000,4.0325,10,8538,997,feet,jsons/v1_VE1000_randls_57_rotated.json,1044149,1357943,56,Man
162,624957,DepthScenes,duration_manipulation_targetAtFixation,jsons/v1_VE1000_randls_57_rotated.json,http://54.235.29.9/FacialAge/BNav_EC2/DepthDuration/v2_depth_duration_MTurk/v2_DepthDuration_HTML.html#101,101,1366,649,1366,768,8-22-2022,9-13-38,163,depth_duration_stimuli/001516_2014-06-20_16-25-09_260595134347_rgbf000076-resize_2/001516_2014-06-20_16-25-09_260595134347_rgbf000076-resize_2-target.png,1000,1.7445,6,6578,998,feet,jsons/v1_VE1000_randls_57_rotated.json,1044149,1357943,56,Man
163,624957,DepthScenes,duration_manipulation_targetAtFixation,jsons/v1_VE1000_randls_57_rotated.json,http://54.235.29.9/FacialAge/BNav_EC2/DepthDuration/v2_depth_duration_MTurk/v2_DepthDuration_HTML.html#101,101,1366,649,1366,768,8-22-2022,9-13-38,164,depth_duration_stimuli/002118_2014-06-25_20-32-08_260595134347_rgbf000078-resize_1/002118_2014-06-25_20-32-08_260595134347_rgbf000078-resize_1-target.png,1000,2.6460000000000004,8,4938,998,feet,jsons/v1_VE1000_randls_57_rotated.json,1044149,1357943,56,Man
