,subjID,experimentName,versionName,sequenceName,url,selected_row,windowWidth,windowHeight,screenWidth,screenHeight,startDate,startTime,trial,stimulus,duration,actual_depth,depth_estimate,trial_RT,log_sceneDuration,unitSelection,seq_filepath,experimentTime,totalTime,age,gender
0,628645,DepthScenes,duration_manipulation_targetAtFixation,jsons/VE125_randls_8.json,http://54.235.29.9/FacialAge/BNav_EC2/DepthDuration/v2_depth_duration_MTurk/v2_DepthDuration_HTML.html#149,149,1366,625,1366,768,8-21-2022,9-41-25,1,depth_duration_stimuli/000788_2014-06-08_22-34-36_260595134347_rgbf000131-resize_1/000788_2014-06-08_22-34-36_260595134347_rgbf000131-resize_1-target.png,125,3.359,1,6352,150,feet,jsons/VE125_randls_8.json,2139813,2589308,37,Woman
1,628645,DepthScenes,duration_manipulation_targetAtFixation,jsons/VE125_randls_8.json,http://54.235.29.9/FacialAge/BNav_EC2/DepthDuration/v2_depth_duration_MTurk/v2_DepthDuration_HTML.html#149,149,1366,625,1366,768,8-21-2022,9-41-25,2,depth_duration_stimuli/001235_2014-06-17_16-37-36_260595134347_rgbf000084-resize_4/001235_2014-06-17_16-37-36_260595134347_rgbf000084-resize_4-target.png,125,3.6605,2,5496,124,feet,jsons/VE125_randls_8.json,2139813,2589308,37,Woman
2,628645,DepthScenes,duration_manipulation_targetAtFixation,jsons/VE125_randls_8.json,http://54.235.29.9/FacialAge/BNav_EC2/DepthDuration/v2_depth_duration_MTurk/v2_DepthDuration_HTML.html#149,149,1366,625,1366,768,8-21-2022,9-41-25,3,depth_duration_stimuli/001175_2014-06-17_15-45-55_260595134347_rgbf000129-resize_4/001175_2014-06-17_15-45-55_260595134347_rgbf000129-resize_4-target.png,125,4.255,5,6144,125,feet,jsons/VE125_randls_8.json,2139813,2589308,37,Woman
3,628645,DepthScenes,duration_manipulation_targetAtFixation,jsons/VE125_randls_8.json,http://54.235.29.9/FacialAge/BNav_EC2/DepthDuration/v2_depth_duration_MTurk/v2_DepthDuration_HTML.html#149,149,1366,625,1366,768,8-21-2022,9-41-25,4,depth_duration_stimuli/003490_2014-05-21_15-50-11_094959634447_rgbf000101-resize_3/003490_2014-05-21_15-50-11_094959634447_rgbf000101-resize_3-target.png,125,3.6445,3,3825,88,feet,jsons/VE125_randls_8.json,2139813,2589308,37,Woman
4,628645,DepthScenes,duration_manipulation_targetAtFixation,jsons/VE125_randls_8.json,http://54.235.29.9/FacialAge/BNav_EC2/DepthDuration/v2_depth_duration_MTurk/v2_DepthDuration_HTML.html#149,149,1366,625,1366,768,8-21-2022,9-41-25,5,depth_duration_stimuli/000810_2014-06-08_17-20-01_260595134347_rgbf000105-resize_0/000810_2014-06-08_17-20-01_260595134347_rgbf000105-resize_0-target.png,125,1.4865,1,5861,124,feet,jsons/VE125_randls_8.json,2139813,2589308,37,Woman
5,628645,DepthScenes,duration_manipulation_targetAtFixation,jsons/VE125_randls_8.json,http://54.235.29.9/FacialAge/BNav_EC2/DepthDuration/v2_depth_duration_MTurk/v2_DepthDuration_HTML.html#149,149,1366,625,1366,768,8-21-2022,9-41-25,6,depth_duration_stimuli/001214_2014-06-17_16-13-55_260595134347_rgbf000111-resize_0/001214_2014-06-17_16-13-55_260595134347_rgbf000111-resize_0-target.png,125,2.6505,3,3655,123,feet,jsons/VE125_randls_8.json,2139813,2589308,37,Woman
6,628645,DepthScenes,duration_manipulation_targetAtFixation,jsons/VE125_randls_8.json,http://54.235.29.9/FacialAge/BNav_EC2/DepthDuration/v2_depth_duration_MTurk/v2_DepthDuration_HTML.html#149,149,1366,625,1366,768,8-21-2022,9-41-25,7,depth_duration_stimuli/003070_2014-06-15_14-58-27_094959634447_rgbf000150-resize_3/003070_2014-06-15_14-58-27_094959634447_rgbf000150-resize_3-target.png,125,2.9415,4,4798,137,feet,jsons/VE125_randls_8.json,2139813,2589308,37,Woman
7,628645,DepthScenes,duration_manipulation_targetAtFixation,jsons/VE125_randls_8.json,http://54.235.29.9/FacialAge/BNav_EC2/DepthDuration/v2_depth_duration_MTurk/v2_DepthDuration_HTML.html#149,149,1366,625,1366,768,8-21-2022,9-41-25,8,depth_duration_stimuli/000943_2014-06-09_19-31-07_260595134347_rgbf000128-resize_1/000943_2014-06-09_19-31-07_260595134347_rgbf000128-resize_1-target.png,125,1.9765,2,6948,123,feet,jsons/VE125_randls_8.json,2139813,2589308,37,Woman
8,628645,DepthScenes,duration_manipulation_targetAtFixation,jsons/VE125_randls_8.json,http://54.235.29.9/FacialAge/BNav_EC2/DepthDuration/v2_depth_duration_MTurk/v2_DepthDuration_HTML.html#149,149,1366,625,1366,768,8-21-2022,9-41-25,9,depth_duration_stimuli/000469_2014-06-09_19-42-10_260595134347_rgbf000081-resize_1/000469_2014-06-09_19-42-10_260595134347_rgbf000081-resize_1-target.png,125,1.652,1,4760,118,feet,jsons/VE125_randls_8.json,2139813,2589308,37,Woman
9,628645,DepthScenes,duration_manipulation_targetAtFixation,jsons/VE125_randls_8.json,http://54.235.29.9/FacialAge/BNav_EC2/DepthDuration/v2_depth_duration_MTurk/v2_DepthDuration_HTML.html#149,149,1366,625,1366,768,8-21-2022,9-41-25,10,depth_duration_stimuli/000483_2014-06-09_20-41-45_260595134347_rgbf000116-resize_4/000483_2014-06-09_20-41-45_260595134347_rgbf000116-resize_4-target.png,125,1.337,3,12805,125,feet,jsons/VE125_randls_8.json,2139813,2589308,37,Woman
10,628645,DepthScenes,duration_manipulation_targetAtFixation,jsons/VE125_randls_8.json,http://54.235.29.9/FacialAge/BNav_EC2/DepthDuration/v2_depth_duration_MTurk/v2_DepthDuration_HTML.html#149,149,1366,625,1366,768,8-21-2022,9-41-25,11,depth_duration_stimuli/001810_2014-06-26_20-51-35_260595134347_rgbf000040-resize_3/001810_2014-06-26_20-51-35_260595134347_rgbf000040-resize_3-target.png,125,2.2525,4,5245,124,feet,jsons/VE125_randls_8.json,2139813,2589308,37,Woman
11,628645,DepthScenes,duration_manipulation_targetAtFixation,jsons/VE125_randls_8.json,http://54.235.29.9/FacialAge/BNav_EC2/DepthDuration/v2_depth_duration_MTurk/v2_DepthDuration_HTML.html#149,149,1366,625,1366,768,8-21-2022,9-41-25,12,depth_duration_stimuli/003010_2014-06-15_12-54-35_094959634447_rgbf000112-resize_0/003010_2014-06-15_12-54-35_094959634447_rgbf000112-resize_0-target.png,125,3.1185,7,4098,111,feet,jsons/VE125_randls_8.json,2139813,2589308,37,Woman
12,628645,DepthScenes,duration_manipulation_targetAtFixation,jsons/VE125_randls_8.json,http://54.235.29.9/FacialAge/BNav_EC2/DepthDuration/v2_depth_duration_MTurk/v2_DepthDuration_HTML.html#149,149,1366,625,1366,768,8-21-2022,9-41-25,13,depth_duration_stimuli/000569_2014-06-09_22-51-47_260595134347_rgbf000141-resize_3/000569_2014-06-09_22-51-47_260595134347_rgbf000141-resize-original.jpg,125,4.512,0,6190,127,feet,jsons/VE125_randls_8.json,2139813,2589308,37,Woman
13,628645,DepthScenes,duration_manipulation_targetAtFixation,jsons/VE125_randls_8.json,http://54.235.29.9/FacialAge/BNav_EC2/DepthDuration/v2_depth_duration_MTurk/v2_DepthDuration_HTML.html#149,149,1366,625,1366,768,8-21-2022,9-41-25,14,depth_duration_stimuli/000682_2014-06-08_23-14-58_260595134347_rgbf000041-resize_5/000682_2014-06-08_23-14-58_260595134347_rgbf000041-resize_5-target.png,125,2.7239999999999998,3,5613,139,feet,jsons/VE125_randls_8.json,2139813,2589308,37,Woman
14,628645,DepthScenes,duration_manipulation_targetAtFixation,jsons/VE125_randls_8.json,http://54.235.29.9/FacialAge/BNav_EC2/DepthDuration/v2_depth_duration_MTurk/v2_DepthDuration_HTML.html#149,149,1366,625,1366,768,8-21-2022,9-41-25,15,depth_duration_stimuli/001650_2014-06-20_12-09-00_260595134347_rgbf000087-resize_3/001650_2014-06-20_12-09-00_260595134347_rgbf000087-resize_3-target.png,125,1.9505,3,4659,139,feet,jsons/VE125_randls_8.json,2139813,2589308,37,Woman
15,628645,DepthScenes,duration_manipulation_targetAtFixation,jsons/VE125_randls_8.json,http://54.235.29.9/FacialAge/BNav_EC2/DepthDuration/v2_depth_duration_MTurk/v2_DepthDuration_HTML.html#149,149,1366,625,1366,768,8-21-2022,9-41-25,16,depth_duration_stimuli/002630_2014-06-24_14-47-50_094959634447_rgbf000055-resize_1/002630_2014-06-24_14-47-50_094959634447_rgbf000055-resize_1-target.png,125,3.0095,4,5583,121,feet,jsons/VE125_randls_8.json,2139813,2589308,37,Woman
16,628645,DepthScenes,duration_manipulation_targetAtFixation,jsons/VE125_randls_8.json,http://54.235.29.9/FacialAge/BNav_EC2/DepthDuration/v2_depth_duration_MTurk/v2_DepthDuration_HTML.html#149,149,1366,625,1366,768,8-21-2022,9-41-25,17,depth_duration_stimuli/002758_2014-06-22_19-11-20_094959634447_rgbf000128-resize_1/002758_2014-06-22_19-11-20_094959634447_rgbf000128-resize_1-target.png,125,2.555,4,4400,119,feet,jsons/VE125_randls_8.json,2139813,2589308,37,Woman
17,628645,DepthScenes,duration_manipulation_targetAtFixation,jsons/VE125_randls_8.json,http://54.235.29.9/FacialAge/BNav_EC2/DepthDuration/v2_depth_duration_MTurk/v2_DepthDuration_HTML.html#149,149,1366,625,1366,768,8-21-2022,9-41-25,18,depth_duration_stimuli/001133_2014-06-17_14-49-16_260595134347_rgbf000100-resize_0/001133_2014-06-17_14-49-16_260595134347_rgbf000100-resize_0-target.png,125,4.2115,3,28476,140,feet,jsons/VE125_randls_8.json,2139813,2589308,37,Woman
18,628645,DepthScenes,duration_manipulation_targetAtFixation,jsons/VE125_randls_8.json,http://54.235.29.9/FacialAge/BNav_EC2/DepthDuration/v2_depth_duration_MTurk/v2_DepthDuration_HTML.html#149,149,1366,625,1366,768,8-21-2022,9-41-25,19,depth_duration_stimuli/001132_2014-06-17_14-48-54_260595134347_rgbf000100-resize_2/001132_2014-06-17_14-48-54_260595134347_rgbf000100-resize_2-target.png,125,3.753,4,4720,123,feet,jsons/VE125_randls_8.json,2139813,2589308,37,Woman
19,628645,DepthScenes,duration_manipulation_targetAtFixation,jsons/VE125_randls_8.json,http://54.235.29.9/FacialAge/BNav_EC2/DepthDuration/v2_depth_duration_MTurk/v2_DepthDuration_HTML.html#149,149,1366,625,1366,768,8-21-2022,9-41-25,20,depth_duration_stimuli/001059_2014-06-08_21-53-27_260595134347_rgbf000061-resize_4/001059_2014-06-08_21-53-27_260595134347_rgbf000061-resize_4-target.png,125,2.4185,3,3873,125,feet,jsons/VE125_randls_8.json,2139813,2589308,37,Woman
20,628645,DepthScenes,duration_manipulation_targetAtFixation,jsons/VE125_randls_8.json,http://54.235.29.9/FacialAge/BNav_EC2/DepthDuration/v2_depth_duration_MTurk/v2_DepthDuration_HTML.html#149,149,1366,625,1366,768,8-21-2022,9-41-25,21,depth_duration_stimuli/001032_2014-06-08_13-23-17_260595134347_rgbf000021-resize_3/001032_2014-06-08_13-23-17_260595134347_rgbf000021-resize_3-target.png,125,3.2725,2,5129,125,feet,jsons/VE125_randls_8.json,2139813,2589308,37,Woman
21,628645,DepthScenes,duration_manipulation_targetAtFixation,jsons/VE125_randls_8.json,http://54.235.29.9/FacialAge/BNav_EC2/DepthDuration/v2_depth_duration_MTurk/v2_DepthDuration_HTML.html#149,149,1366,625,1366,768,8-21-2022,9-41-25,22,depth_duration_stimuli/000736_2014-06-08_18-24-15_260595134347_rgbf000206-resize_3/000736_2014-06-08_18-24-15_260595134347_rgbf000206-resize_3-target.png,125,3.515,3,5189,126,feet,jsons/VE125_randls_8.json,2139813,2589308,37,Woman
22,628645,DepthScenes,duration_manipulation_targetAtFixation,jsons/VE125_randls_8.json,http://54.235.29.9/FacialAge/BNav_EC2/DepthDuration/v2_depth_duration_MTurk/v2_DepthDuration_HTML.html#149,149,1366,625,1366,768,8-21-2022,9-41-25,23,depth_duration_stimuli/000137_2014-05-20_17-04-49_260595134347_rgbf000120-resize_1/000137_2014-05-20_17-04-49_260595134347_rgbf000120-resize_1-target.png,125,3.786,2,3918,125,feet,jsons/VE125_randls_8.json,2139813,2589308,37,Woman
23,628645,DepthScenes,duration_manipulation_targetAtFixation,jsons/VE125_randls_8.json,http://54.235.29.9/FacialAge/BNav_EC2/DepthDuration/v2_depth_duration_MTurk/v2_DepthDuration_HTML.html#149,149,1366,625,1366,768,8-21-2022,9-41-25,24,depth_duration_stimuli/000493_2014-06-09_21-01-18_260595134347_rgbf000196-resize_3/000493_2014-06-09_21-01-18_260595134347_rgbf000196-resize_3-target.png,125,3.44,3,4809,125,feet,jsons/VE125_randls_8.json,2139813,2589308,37,Woman
24,628645,DepthScenes,duration_manipulation_targetAtFixation,jsons/VE125_randls_8.json,http://54.235.29.9/FacialAge/BNav_EC2/DepthDuration/v2_depth_duration_MTurk/v2_DepthDuration_HTML.html#149,149,1366,625,1366,768,8-21-2022,9-41-25,25,depth_duration_stimuli/000191_2014-05-12_17-07-38_260595134347_rgbf000199-resize_0/000191_2014-05-12_17-07-38_260595134347_rgbf000199-resize_0-target.png,125,3.7995,3,162021,124,feet,jsons/VE125_randls_8.json,2139813,2589308,37,Woman
25,628645,DepthScenes,duration_manipulation_targetAtFixation,jsons/VE125_randls_8.json,http://54.235.29.9/FacialAge/BNav_EC2/DepthDuration/v2_depth_duration_MTurk/v2_DepthDuration_HTML.html#149,149,1366,625,1366,768,8-21-2022,9-41-25,26,depth_duration_stimuli/001244_2014-06-17_16-47-45_260595134347_rgbf000030-resize_4/001244_2014-06-17_16-47-45_260595134347_rgbf000030-resize_4-target.png,125,2.0425,2,5737,126,feet,jsons/VE125_randls_8.json,2139813,2589308,37,Woman
26,628645,DepthScenes,duration_manipulation_targetAtFixation,jsons/VE125_randls_8.json,http://54.235.29.9/FacialAge/BNav_EC2/DepthDuration/v2_depth_duration_MTurk/v2_DepthDuration_HTML.html#149,149,1366,625,1366,768,8-21-2022,9-41-25,27,depth_duration_stimuli/003495_2014-05-21_16-01-51_094959634447_rgbf000100-resize_3/003495_2014-05-21_16-01-51_094959634447_rgbf000100-resize_3-target.png,125,1.6255,3,6326,124,feet,jsons/VE125_randls_8.json,2139813,2589308,37,Woman
27,628645,DepthScenes,duration_manipulation_targetAtFixation,jsons/VE125_randls_8.json,http://54.235.29.9/FacialAge/BNav_EC2/DepthDuration/v2_depth_duration_MTurk/v2_DepthDuration_HTML.html#149,149,1366,625,1366,768,8-21-2022,9-41-25,28,depth_duration_stimuli/002763_2014-06-22_19-13-10_094959634447_rgbf000075-resize_4/002763_2014-06-22_19-13-10_094959634447_rgbf000075-resize_4-target.png,125,1.68375,2,923170,81,feet,jsons/VE125_randls_8.json,2139813,2589308,37,Woman
28,628645,DepthScenes,duration_manipulation_targetAtFixation,jsons/VE125_randls_8.json,http://54.235.29.9/FacialAge/BNav_EC2/DepthDuration/v2_depth_duration_MTurk/v2_DepthDuration_HTML.html#149,149,1366,625,1366,768,8-21-2022,9-41-25,29,depth_duration_stimuli/002209_2014-06-28_18-36-10_260595134347_rgbf000051-resize_1/002209_2014-06-28_18-36-10_260595134347_rgbf000051-resize_1-target.png,125,2.057,3,6853,125,feet,jsons/VE125_randls_8.json,2139813,2589308,37,Woman
29,628645,DepthScenes,duration_manipulation_targetAtFixation,jsons/VE125_randls_8.json,http://54.235.29.9/FacialAge/BNav_EC2/DepthDuration/v2_depth_duration_MTurk/v2_DepthDuration_HTML.html#149,149,1366,625,1366,768,8-21-2022,9-41-25,30,depth_duration_stimuli/000375_2014-06-08_11-17-29_260595134347_rgbf000133-resize_2/000375_2014-06-08_11-17-29_260595134347_rgbf000133-resize-original.jpg,125,4.718,0,4327,79,feet,jsons/VE125_randls_8.json,2139813,2589308,37,Woman
30,628645,DepthScenes,duration_manipulation_targetAtFixation,jsons/VE125_randls_8.json,http://54.235.29.9/FacialAge/BNav_EC2/DepthDuration/v2_depth_duration_MTurk/v2_DepthDuration_HTML.html#149,149,1366,625,1366,768,8-21-2022,9-41-25,31,depth_duration_stimuli/001570_2014-06-20_17-21-09_260595134347_rgbf000135-resize_4/001570_2014-06-20_17-21-09_260595134347_rgbf000135-resize_4-target.png,125,4.467,6,6018,125,feet,jsons/VE125_randls_8.json,2139813,2589308,37,Woman
31,628645,DepthScenes,duration_manipulation_targetAtFixation,jsons/VE125_randls_8.json,http://54.235.29.9/FacialAge/BNav_EC2/DepthDuration/v2_depth_duration_MTurk/v2_DepthDuration_HTML.html#149,149,1366,625,1366,768,8-21-2022,9-41-25,32,depth_duration_stimuli/001392_2014-06-19_16-07-59_260595134347_rgbf000046-resize_1/001392_2014-06-19_16-07-59_260595134347_rgbf000046-resize_1-target.png,125,4.135,0,4336,124,feet,jsons/VE125_randls_8.json,2139813,2589308,37,Woman
32,628645,DepthScenes,duration_manipulation_targetAtFixation,jsons/VE125_randls_8.json,http://54.235.29.9/FacialAge/BNav_EC2/DepthDuration/v2_depth_duration_MTurk/v2_DepthDuration_HTML.html#149,149,1366,625,1366,768,8-21-2022,9-41-25,33,depth_duration_stimuli/000414_2014-06-04_19-49-13_260595134347_rgbf000044-resize_0/000414_2014-06-04_19-49-13_260595134347_rgbf000044-resize_0-target.png,125,4.329,7,5160,124,feet,jsons/VE125_randls_8.json,2139813,2589308,37,Woman
33,628645,DepthScenes,duration_manipulation_targetAtFixation,jsons/VE125_randls_8.json,http://54.235.29.9/FacialAge/BNav_EC2/DepthDuration/v2_depth_duration_MTurk/v2_DepthDuration_HTML.html#149,149,1366,625,1366,768,8-21-2022,9-41-25,34,depth_duration_stimuli/003129_2014-05-12_10-48-10_094959634447_rgbf000100-resize_0/003129_2014-05-12_10-48-10_094959634447_rgbf000100-resize_0-target.png,125,4.9305,6,4237,124,feet,jsons/VE125_randls_8.json,2139813,2589308,37,Woman
34,628645,DepthScenes,duration_manipulation_targetAtFixation,jsons/VE125_randls_8.json,http://54.235.29.9/FacialAge/BNav_EC2/DepthDuration/v2_depth_duration_MTurk/v2_DepthDuration_HTML.html#149,149,1366,625,1366,768,8-21-2022,9-41-25,35,depth_duration_stimuli/001417_2014-06-19_16-25-36_260595134347_rgbf000115-resize_5/001417_2014-06-19_16-25-36_260595134347_rgbf000115-resize_5-target.png,125,4.6255,5,4861,123,feet,jsons/VE125_randls_8.json,2139813,2589308,37,Woman
35,628645,DepthScenes,duration_manipulation_targetAtFixation,jsons/VE125_randls_8.json,http://54.235.29.9/FacialAge/BNav_EC2/DepthDuration/v2_depth_duration_MTurk/v2_DepthDuration_HTML.html#149,149,1366,625,1366,768,8-21-2022,9-41-25,36,depth_duration_stimuli/003081_2014-06-15_15-19-16_094959634447_rgbf000150-resize_1/003081_2014-06-15_15-19-16_094959634447_rgbf000150-resize_1-target.png,125,3.9125,0,4495,125,feet,jsons/VE125_randls_8.json,2139813,2589308,37,Woman
36,628645,DepthScenes,duration_manipulation_targetAtFixation,jsons/VE125_randls_8.json,http://54.235.29.9/FacialAge/BNav_EC2/DepthDuration/v2_depth_duration_MTurk/v2_DepthDuration_HTML.html#149,149,1366,625,1366,768,8-21-2022,9-41-25,37,depth_duration_stimuli/000929_2014-06-09_16-33-19_260595134347_rgbf000139-resize_0/000929_2014-06-09_16-33-19_260595134347_rgbf000139-resize_0-target.png,125,2.8680000000000003,4,4538,126,feet,jsons/VE125_randls_8.json,2139813,2589308,37,Woman
37,628645,DepthScenes,duration_manipulation_targetAtFixation,jsons/VE125_randls_8.json,http://54.235.29.9/FacialAge/BNav_EC2/DepthDuration/v2_depth_duration_MTurk/v2_DepthDuration_HTML.html#149,149,1366,625,1366,768,8-21-2022,9-41-25,38,depth_duration_stimuli/000457_2014-06-08_16-52-43_260595134347_rgbf000199-resize_1/000457_2014-06-08_16-52-43_260595134347_rgbf000199-resize_1-target.png,125,3.6489999999999996,5,6243,126,feet,jsons/VE125_randls_8.json,2139813,2589308,37,Woman
38,628645,DepthScenes,duration_manipulation_targetAtFixation,jsons/VE125_randls_8.json,http://54.235.29.9/FacialAge/BNav_EC2/DepthDuration/v2_depth_duration_MTurk/v2_DepthDuration_HTML.html#149,149,1366,625,1366,768,8-21-2022,9-41-25,39,depth_duration_stimuli/001066_2014-06-08_22-03-20_260595134347_rgbf000066-resize_4/001066_2014-06-08_22-03-20_260595134347_rgbf000066-resize_4-target.png,125,4.2330000000000005,4,5560,128,feet,jsons/VE125_randls_8.json,2139813,2589308,37,Woman
39,628645,DepthScenes,duration_manipulation_targetAtFixation,jsons/VE125_randls_8.json,http://54.235.29.9/FacialAge/BNav_EC2/DepthDuration/v2_depth_duration_MTurk/v2_DepthDuration_HTML.html#149,149,1366,625,1366,768,8-21-2022,9-41-25,40,depth_duration_stimuli/000742_2014-06-08_18-48-09_260595134347_rgbf000164-resize_4/000742_2014-06-08_18-48-09_260595134347_rgbf000164-resize_4-target.png,125,4.632,3,5211,125,feet,jsons/VE125_randls_8.json,2139813,2589308,37,Woman
40,628645,DepthScenes,duration_manipulation_targetAtFixation,jsons/VE125_randls_8.json,http://54.235.29.9/FacialAge/BNav_EC2/DepthDuration/v2_depth_duration_MTurk/v2_DepthDuration_HTML.html#149,149,1366,625,1366,768,8-21-2022,9-41-25,41,depth_duration_stimuli/000773_2014-06-08_22-24-54_260595134347_rgbf000093-resize_1/000773_2014-06-08_22-24-54_260595134347_rgbf000093-resize_1-target.png,125,4.973,7,5647,125,feet,jsons/VE125_randls_8.json,2139813,2589308,37,Woman
41,628645,DepthScenes,duration_manipulation_targetAtFixation,jsons/VE125_randls_8.json,http://54.235.29.9/FacialAge/BNav_EC2/DepthDuration/v2_depth_duration_MTurk/v2_DepthDuration_HTML.html#149,149,1366,625,1366,768,8-21-2022,9-41-25,42,depth_duration_stimuli/002414_2014-06-28_20-24-58_260595134347_rgbf000067-resize_4/002414_2014-06-28_20-24-58_260595134347_rgbf000067-resize_4-target.png,125,4.363,3,3674,119,feet,jsons/VE125_randls_8.json,2139813,2589308,37,Woman
42,628645,DepthScenes,duration_manipulation_targetAtFixation,jsons/VE125_randls_8.json,http://54.235.29.9/FacialAge/BNav_EC2/DepthDuration/v2_depth_duration_MTurk/v2_DepthDuration_HTML.html#149,149,1366,625,1366,768,8-21-2022,9-41-25,43,depth_duration_stimuli/002663_2014-06-13_15-50-26_094959634447_rgbf000075-resize_1/002663_2014-06-13_15-50-26_094959634447_rgbf000075-resize_1-target.png,125,4.7495,4,5120,123,feet,jsons/VE125_randls_8.json,2139813,2589308,37,Woman
43,628645,DepthScenes,duration_manipulation_targetAtFixation,jsons/VE125_randls_8.json,http://54.235.29.9/FacialAge/BNav_EC2/DepthDuration/v2_depth_duration_MTurk/v2_DepthDuration_HTML.html#149,149,1366,625,1366,768,8-21-2022,9-41-25,44,depth_duration_stimuli/000409_2014-06-04_19-23-33_260595134347_rgbf000067-resize_0/000409_2014-06-04_19-23-33_260595134347_rgbf000067-resize_0-target.png,125,3.7335,4,4982,109,feet,jsons/VE125_randls_8.json,2139813,2589308,37,Woman
44,628645,DepthScenes,duration_manipulation_targetAtFixation,jsons/VE125_randls_8.json,http://54.235.29.9/FacialAge/BNav_EC2/DepthDuration/v2_depth_duration_MTurk/v2_DepthDuration_HTML.html#149,149,1366,625,1366,768,8-21-2022,9-41-25,45,depth_duration_stimuli/000787_2014-06-08_22-33-53_260595134347_rgbf000175-resize_1/000787_2014-06-08_22-33-53_260595134347_rgbf000175-resize-original.jpg,125,4.784,0,4360,104,feet,jsons/VE125_randls_8.json,2139813,2589308,37,Woman
45,628645,DepthScenes,duration_manipulation_targetAtFixation,jsons/VE125_randls_8.json,http://54.235.29.9/FacialAge/BNav_EC2/DepthDuration/v2_depth_duration_MTurk/v2_DepthDuration_HTML.html#149,149,1366,625,1366,768,8-21-2022,9-41-25,46,depth_duration_stimuli/002788_2014-06-22_19-36-03_094959634447_rgbf000088-resize_2/002788_2014-06-22_19-36-03_094959634447_rgbf000088-resize_2-target.png,125,1.6465,4,4352,124,feet,jsons/VE125_randls_8.json,2139813,2589308,37,Woman
46,628645,DepthScenes,duration_manipulation_targetAtFixation,jsons/VE125_randls_8.json,http://54.235.29.9/FacialAge/BNav_EC2/DepthDuration/v2_depth_duration_MTurk/v2_DepthDuration_HTML.html#149,149,1366,625,1366,768,8-21-2022,9-41-25,47,depth_duration_stimuli/000749_2014-06-08_21-55-06_260595134347_rgbf000070-resize_2/000749_2014-06-08_21-55-06_260595134347_rgbf000070-resize_2-target.png,125,2.331,3,4979,125,feet,jsons/VE125_randls_8.json,2139813,2589308,37,Woman
47,628645,DepthScenes,duration_manipulation_targetAtFixation,jsons/VE125_randls_8.json,http://54.235.29.9/FacialAge/BNav_EC2/DepthDuration/v2_depth_duration_MTurk/v2_DepthDuration_HTML.html#149,149,1366,625,1366,768,8-21-2022,9-41-25,48,depth_duration_stimuli/002509_2014-06-24_13-19-22_094959634447_rgbf000077-resize_0/002509_2014-06-24_13-19-22_094959634447_rgbf000077-resize_0-target.png,125,1.3065,1,6610,124,feet,jsons/VE125_randls_8.json,2139813,2589308,37,Woman
48,628645,DepthScenes,duration_manipulation_targetAtFixation,jsons/VE125_randls_8.json,http://54.235.29.9/FacialAge/BNav_EC2/DepthDuration/v2_depth_duration_MTurk/v2_DepthDuration_HTML.html#149,149,1366,625,1366,768,8-21-2022,9-41-25,49,depth_duration_stimuli/003338_2014-05-20_11-01-23_094959634447_rgbf000051-resize_6/003338_2014-05-20_11-01-23_094959634447_rgbf000051-resize_6-target.png,125,1.693,3,6211,124,feet,jsons/VE125_randls_8.json,2139813,2589308,37,Woman
49,628645,DepthScenes,duration_manipulation_targetAtFixation,jsons/VE125_randls_8.json,http://54.235.29.9/FacialAge/BNav_EC2/DepthDuration/v2_depth_duration_MTurk/v2_DepthDuration_HTML.html#149,149,1366,625,1366,768,8-21-2022,9-41-25,50,depth_duration_stimuli/003492_2014-05-21_15-50-55_094959634447_rgbf000828-resize_1/003492_2014-05-21_15-50-55_094959634447_rgbf000828-resize_1-target.png,125,4.06875,6,5565,127,feet,jsons/VE125_randls_8.json,2139813,2589308,37,Woman
50,628645,DepthScenes,duration_manipulation_targetAtFixation,jsons/VE125_randls_8.json,http://54.235.29.9/FacialAge/BNav_EC2/DepthDuration/v2_depth_duration_MTurk/v2_DepthDuration_HTML.html#149,149,1366,625,1366,768,8-21-2022,9-41-25,51,depth_duration_stimuli/002568_2014-06-24_13-59-21_094959634447_rgbf000062-resize_4/002568_2014-06-24_13-59-21_094959634447_rgbf000062-resize_4-target.png,125,3.015,4,5344,117,feet,jsons/VE125_randls_8.json,2139813,2589308,37,Woman
51,628645,DepthScenes,duration_manipulation_targetAtFixation,jsons/VE125_randls_8.json,http://54.235.29.9/FacialAge/BNav_EC2/DepthDuration/v2_depth_duration_MTurk/v2_DepthDuration_HTML.html#149,149,1366,625,1366,768,8-21-2022,9-41-25,52,depth_duration_stimuli/000368_2014-06-09_15-53-01_260595134347_rgbf000155-resize_2/000368_2014-06-09_15-53-01_260595134347_rgbf000155-resize_2-target.png,125,2.4859999999999998,0,5240,116,feet,jsons/VE125_randls_8.json,2139813,2589308,37,Woman
52,628645,DepthScenes,duration_manipulation_targetAtFixation,jsons/VE125_randls_8.json,http://54.235.29.9/FacialAge/BNav_EC2/DepthDuration/v2_depth_duration_MTurk/v2_DepthDuration_HTML.html#149,149,1366,625,1366,768,8-21-2022,9-41-25,53,depth_duration_stimuli/002678_2014-06-13_16-15-32_094959634447_rgbf000151-resize_6/002678_2014-06-13_16-15-32_094959634447_rgbf000151-resize_6-target.png,125,2.1830000000000003,4,7237,124,feet,jsons/VE125_randls_8.json,2139813,2589308,37,Woman
53,628645,DepthScenes,duration_manipulation_targetAtFixation,jsons/VE125_randls_8.json,http://54.235.29.9/FacialAge/BNav_EC2/DepthDuration/v2_depth_duration_MTurk/v2_DepthDuration_HTML.html#149,149,1366,625,1366,768,8-21-2022,9-41-25,54,depth_duration_stimuli/003621_2014-05-23_18-06-08_094959634447_rgbf000101-resize_1/003621_2014-05-23_18-06-08_094959634447_rgbf000101-resize_1-target.png,125,3.9835,3,8270,125,feet,jsons/VE125_randls_8.json,2139813,2589308,37,Woman
54,628645,DepthScenes,duration_manipulation_targetAtFixation,jsons/VE125_randls_8.json,http://54.235.29.9/FacialAge/BNav_EC2/DepthDuration/v2_depth_duration_MTurk/v2_DepthDuration_HTML.html#149,149,1366,625,1366,768,8-21-2022,9-41-25,55,depth_duration_stimuli/001584_2014-06-20_11-07-43_260595134347_rgbf000002-resize_1/001584_2014-06-20_11-07-43_260595134347_rgbf000002-resize_1-target.png,125,3.53,4,10039,133,feet,jsons/VE125_randls_8.json,2139813,2589308,37,Woman
55,628645,DepthScenes,duration_manipulation_targetAtFixation,jsons/VE125_randls_8.json,http://54.235.29.9/FacialAge/BNav_EC2/DepthDuration/v2_depth_duration_MTurk/v2_DepthDuration_HTML.html#149,149,1366,625,1366,768,8-21-2022,9-41-25,56,depth_duration_stimuli/002989_2014-06-15_12-25-03_094959634447_rgbf000150-resize_3/002989_2014-06-15_12-25-03_094959634447_rgbf000150-resize_3-target.png,125,4.1975,5,7275,125,feet,jsons/VE125_randls_8.json,2139813,2589308,37,Woman
56,628645,DepthScenes,duration_manipulation_targetAtFixation,jsons/VE125_randls_8.json,http://54.235.29.9/FacialAge/BNav_EC2/DepthDuration/v2_depth_duration_MTurk/v2_DepthDuration_HTML.html#149,149,1366,625,1366,768,8-21-2022,9-41-25,57,depth_duration_stimuli/000866_2014-06-09_20-45-42_260595134347_rgbf000139-resize_1/000866_2014-06-09_20-45-42_260595134347_rgbf000139-resize_1-target.png,125,3.2155,5,16416,125,feet,jsons/VE125_randls_8.json,2139813,2589308,37,Woman
57,628645,DepthScenes,duration_manipulation_targetAtFixation,jsons/VE125_randls_8.json,http://54.235.29.9/FacialAge/BNav_EC2/DepthDuration/v2_depth_duration_MTurk/v2_DepthDuration_HTML.html#149,149,1366,625,1366,768,8-21-2022,9-41-25,58,depth_duration_stimuli/003292_2014-05-14_21-53-49_094959634447_rgbf000100-resize_2/003292_2014-05-14_21-53-49_094959634447_rgbf000100-resize_2-target.png,125,3.4815,4,6903,124,feet,jsons/VE125_randls_8.json,2139813,2589308,37,Woman
58,628645,DepthScenes,duration_manipulation_targetAtFixation,jsons/VE125_randls_8.json,http://54.235.29.9/FacialAge/BNav_EC2/DepthDuration/v2_depth_duration_MTurk/v2_DepthDuration_HTML.html#149,149,1366,625,1366,768,8-21-2022,9-41-25,59,depth_duration_stimuli/002639_2014-06-24_14-51-37_094959634447_rgbf000074-resize_4/002639_2014-06-24_14-51-37_094959634447_rgbf000074-resize_4-target.png,125,4.0375,6,5310,184,feet,jsons/VE125_randls_8.json,2139813,2589308,37,Woman
59,628645,DepthScenes,duration_manipulation_targetAtFixation,jsons/VE125_randls_8.json,http://54.235.29.9/FacialAge/BNav_EC2/DepthDuration/v2_depth_duration_MTurk/v2_DepthDuration_HTML.html#149,149,1366,625,1366,768,8-21-2022,9-41-25,60,depth_duration_stimuli/001449_2014-06-19_17-01-27_260595134347_rgbf000116-resize_2/001449_2014-06-19_17-01-27_260595134347_rgbf000116-resize_2-target.png,125,3.452,6,5437,125,feet,jsons/VE125_randls_8.json,2139813,2589308,37,Woman
60,628645,DepthScenes,duration_manipulation_targetAtFixation,jsons/VE125_randls_8.json,http://54.235.29.9/FacialAge/BNav_EC2/DepthDuration/v2_depth_duration_MTurk/v2_DepthDuration_HTML.html#149,149,1366,625,1366,768,8-21-2022,9-41-25,61,depth_duration_stimuli/001450_2014-06-19_17-02-03_260595134347_rgbf000203-resize_4/001450_2014-06-19_17-02-03_260595134347_rgbf000203-resize_4-target.png,125,4.0106666666667,6,4448,126,feet,jsons/VE125_randls_8.json,2139813,2589308,37,Woman
61,628645,DepthScenes,duration_manipulation_targetAtFixation,jsons/VE125_randls_8.json,http://54.235.29.9/FacialAge/BNav_EC2/DepthDuration/v2_depth_duration_MTurk/v2_DepthDuration_HTML.html#149,149,1366,625,1366,768,8-21-2022,9-41-25,62,depth_duration_stimuli/000506_2014-06-08_23-21-00_260595134347_rgbf000070-resize_7/000506_2014-06-08_23-21-00_260595134347_rgbf000070-resize_7-target.png,125,4.0585,4,6219,122,feet,jsons/VE125_randls_8.json,2139813,2589308,37,Woman
62,628645,DepthScenes,duration_manipulation_targetAtFixation,jsons/VE125_randls_8.json,http://54.235.29.9/FacialAge/BNav_EC2/DepthDuration/v2_depth_duration_MTurk/v2_DepthDuration_HTML.html#149,149,1366,625,1366,768,8-21-2022,9-41-25,63,depth_duration_stimuli/003079_2014-06-15_15-18-20_094959634447_rgbf000152-resize_8/003079_2014-06-15_15-18-20_094959634447_rgbf000152-resize_8-target.png,125,2.8775,3,4118,124,feet,jsons/VE125_randls_8.json,2139813,2589308,37,Woman
63,628645,DepthScenes,duration_manipulation_targetAtFixation,jsons/VE125_randls_8.json,http://54.235.29.9/FacialAge/BNav_EC2/DepthDuration/v2_depth_duration_MTurk/v2_DepthDuration_HTML.html#149,149,1366,625,1366,768,8-21-2022,9-41-25,64,depth_duration_stimuli/001110_2014-06-15_17-25-28_260595134347_rgbf000150-resize_1/001110_2014-06-15_17-25-28_260595134347_rgbf000150-resize_1-target.png,125,1.7115,5,6633,124,feet,jsons/VE125_randls_8.json,2139813,2589308,37,Woman
64,628645,DepthScenes,duration_manipulation_targetAtFixation,jsons/VE125_randls_8.json,http://54.235.29.9/FacialAge/BNav_EC2/DepthDuration/v2_depth_duration_MTurk/v2_DepthDuration_HTML.html#149,149,1366,625,1366,768,8-21-2022,9-41-25,65,depth_duration_stimuli/000927_2014-06-09_16-32-30_260595134347_rgbf000123-resize_3/000927_2014-06-09_16-32-30_260595134347_rgbf000123-resize_3-target.png,125,2.6785,5,4691,125,feet,jsons/VE125_randls_8.json,2139813,2589308,37,Woman
65,628645,DepthScenes,duration_manipulation_targetAtFixation,jsons/VE125_randls_8.json,http://54.235.29.9/FacialAge/BNav_EC2/DepthDuration/v2_depth_duration_MTurk/v2_DepthDuration_HTML.html#149,149,1366,625,1366,768,8-21-2022,9-41-25,66,depth_duration_stimuli/001222_2014-06-17_16-24-06_260595134347_rgbf000073-resize_0/001222_2014-06-17_16-24-06_260595134347_rgbf000073-resize-original.jpg,125,1.4385,4,6157,124,feet,jsons/VE125_randls_8.json,2139813,2589308,37,Woman
66,628645,DepthScenes,duration_manipulation_targetAtFixation,jsons/VE125_randls_8.json,http://54.235.29.9/FacialAge/BNav_EC2/DepthDuration/v2_depth_duration_MTurk/v2_DepthDuration_HTML.html#149,149,1366,625,1366,768,8-21-2022,9-41-25,67,depth_duration_stimuli/002784_2014-06-22_19-26-30_094959634447_rgbf000083-resize_3/002784_2014-06-22_19-26-30_094959634447_rgbf000083-resize_3-target.png,125,1.8046666666667,3,6176,137,feet,jsons/VE125_randls_8.json,2139813,2589308,37,Woman
67,628645,DepthScenes,duration_manipulation_targetAtFixation,jsons/VE125_randls_8.json,http://54.235.29.9/FacialAge/BNav_EC2/DepthDuration/v2_depth_duration_MTurk/v2_DepthDuration_HTML.html#149,149,1366,625,1366,768,8-21-2022,9-41-25,68,depth_duration_stimuli/001100_2014-06-15_17-46-26_260595134347_rgbf000225-resize_2/001100_2014-06-15_17-46-26_260595134347_rgbf000225-resize_2-target.png,125,2.24,3,4744,129,feet,jsons/VE125_randls_8.json,2139813,2589308,37,Woman
68,628645,DepthScenes,duration_manipulation_targetAtFixation,jsons/VE125_randls_8.json,http://54.235.29.9/FacialAge/BNav_EC2/DepthDuration/v2_depth_duration_MTurk/v2_DepthDuration_HTML.html#149,149,1366,625,1366,768,8-21-2022,9-41-25,69,depth_duration_stimuli/001167_2014-06-17_15-38-07_260595134347_rgbf000108-resize_0/001167_2014-06-17_15-38-07_260595134347_rgbf000108-resize_0-target.png,125,1.8505,2,5806,124,feet,jsons/VE125_randls_8.json,2139813,2589308,37,Woman
69,628645,DepthScenes,duration_manipulation_targetAtFixation,jsons/VE125_randls_8.json,http://54.235.29.9/FacialAge/BNav_EC2/DepthDuration/v2_depth_duration_MTurk/v2_DepthDuration_HTML.html#149,149,1366,625,1366,768,8-21-2022,9-41-25,70,depth_duration_stimuli/003587_2014-05-23_16-48-02_094959634447_rgbf002384-resize_2/003587_2014-05-23_16-48-02_094959634447_rgbf002384-resize_2-target.png,125,1.357,1,3961,124,feet,jsons/VE125_randls_8.json,2139813,2589308,37,Woman
70,628645,DepthScenes,duration_manipulation_targetAtFixation,jsons/VE125_randls_8.json,http://54.235.29.9/FacialAge/BNav_EC2/DepthDuration/v2_depth_duration_MTurk/v2_DepthDuration_HTML.html#149,149,1366,625,1366,768,8-21-2022,9-41-25,71,depth_duration_stimuli/000906_2014-06-08_13-35-43_260595134347_rgbf000155-resize_1/000906_2014-06-08_13-35-43_260595134347_rgbf000155-resize_1-target.png,125,2.8489999999999998,5,5903,123,feet,jsons/VE125_randls_8.json,2139813,2589308,37,Woman
71,628645,DepthScenes,duration_manipulation_targetAtFixation,jsons/VE125_randls_8.json,http://54.235.29.9/FacialAge/BNav_EC2/DepthDuration/v2_depth_duration_MTurk/v2_DepthDuration_HTML.html#149,149,1366,625,1366,768,8-21-2022,9-41-25,72,depth_duration_stimuli/002805_2014-06-22_19-54-03_094959634447_rgbf000079-resize_1/002805_2014-06-22_19-54-03_094959634447_rgbf000079-resize_1-target.png,125,3.1439999999999997,4,3797,119,feet,jsons/VE125_randls_8.json,2139813,2589308,37,Woman
72,628645,DepthScenes,duration_manipulation_targetAtFixation,jsons/VE125_randls_8.json,http://54.235.29.9/FacialAge/BNav_EC2/DepthDuration/v2_depth_duration_MTurk/v2_DepthDuration_HTML.html#149,149,1366,625,1366,768,8-21-2022,9-41-25,73,depth_duration_stimuli/001199_2014-06-17_16-03-48_260595134347_rgbf000077-resize_0/001199_2014-06-17_16-03-48_260595134347_rgbf000077-resize_0-target.png,125,3.4375,5,4888,124,feet,jsons/VE125_randls_8.json,2139813,2589308,37,Woman
73,628645,DepthScenes,duration_manipulation_targetAtFixation,jsons/VE125_randls_8.json,http://54.235.29.9/FacialAge/BNav_EC2/DepthDuration/v2_depth_duration_MTurk/v2_DepthDuration_HTML.html#149,149,1366,625,1366,768,8-21-2022,9-41-25,74,depth_duration_stimuli/000502_2014-06-08_23-02-32_260595134347_rgbf000063-resize_4/000502_2014-06-08_23-02-32_260595134347_rgbf000063-resize_4-target.png,125,2.431,2,4667,125,feet,jsons/VE125_randls_8.json,2139813,2589308,37,Woman
74,628645,DepthScenes,duration_manipulation_targetAtFixation,jsons/VE125_randls_8.json,http://54.235.29.9/FacialAge/BNav_EC2/DepthDuration/v2_depth_duration_MTurk/v2_DepthDuration_HTML.html#149,149,1366,625,1366,768,8-21-2022,9-41-25,75,depth_duration_stimuli/001056_2014-06-08_18-46-44_260595134347_rgbf000068-resize_0/001056_2014-06-08_18-46-44_260595134347_rgbf000068-resize_0-target.png,125,2.6625,4,6729,124,feet,jsons/VE125_randls_8.json,2139813,2589308,37,Woman
75,628645,DepthScenes,duration_manipulation_targetAtFixation,jsons/VE125_randls_8.json,http://54.235.29.9/FacialAge/BNav_EC2/DepthDuration/v2_depth_duration_MTurk/v2_DepthDuration_HTML.html#149,149,1366,625,1366,768,8-21-2022,9-41-25,76,depth_duration_stimuli/002199_2014-06-28_18-33-56_260595134347_rgbf000074-resize_0/002199_2014-06-28_18-33-56_260595134347_rgbf000074-resize_0-target.png,125,1.996,3,5138,124,feet,jsons/VE125_randls_8.json,2139813,2589308,37,Woman
76,628645,DepthScenes,duration_manipulation_targetAtFixation,jsons/VE125_randls_8.json,http://54.235.29.9/FacialAge/BNav_EC2/DepthDuration/v2_depth_duration_MTurk/v2_DepthDuration_HTML.html#149,149,1366,625,1366,768,8-21-2022,9-41-25,77,depth_duration_stimuli/001158_2014-06-17_15-32-16_260595134347_rgbf000138-resize_2/001158_2014-06-17_15-32-16_260595134347_rgbf000138-resize_2-target.png,125,4.5315,2,8591,125,feet,jsons/VE125_randls_8.json,2139813,2589308,37,Woman
77,628645,DepthScenes,duration_manipulation_targetAtFixation,jsons/VE125_randls_8.json,http://54.235.29.9/FacialAge/BNav_EC2/DepthDuration/v2_depth_duration_MTurk/v2_DepthDuration_HTML.html#149,149,1366,625,1366,768,8-21-2022,9-41-25,78,depth_duration_stimuli/000556_2014-06-09_22-42-56_260595134347_rgbf000214-resize_1/000556_2014-06-09_22-42-56_260595134347_rgbf000214-resize_1-target.png,125,4.8415,5,7932,125,feet,jsons/VE125_randls_8.json,2139813,2589308,37,Woman
78,628645,DepthScenes,duration_manipulation_targetAtFixation,jsons/VE125_randls_8.json,http://54.235.29.9/FacialAge/BNav_EC2/DepthDuration/v2_depth_duration_MTurk/v2_DepthDuration_HTML.html#149,149,1366,625,1366,768,8-21-2022,9-41-25,79,depth_duration_stimuli/002748_2014-06-22_19-07-22_094959634447_rgbf000078-resize_1/002748_2014-06-22_19-07-22_094959634447_rgbf000078-resize_1-target.png,125,4.6705,3,7412,125,feet,jsons/VE125_randls_8.json,2139813,2589308,37,Woman
79,628645,DepthScenes,duration_manipulation_targetAtFixation,jsons/VE125_randls_8.json,http://54.235.29.9/FacialAge/BNav_EC2/DepthDuration/v2_depth_duration_MTurk/v2_DepthDuration_HTML.html#149,149,1366,625,1366,768,8-21-2022,9-41-25,80,depth_duration_stimuli/002995_2014-06-15_12-31-26_094959634447_rgbf000150-resize_1/002995_2014-06-15_12-31-26_094959634447_rgbf000150-resize_1-target.png,125,3.8360000000000003,0,3940,121,feet,jsons/VE125_randls_8.json,2139813,2589308,37,Woman
80,628645,DepthScenes,duration_manipulation_targetAtFixation,jsons/VE125_randls_8.json,http://54.235.29.9/FacialAge/BNav_EC2/DepthDuration/v2_depth_duration_MTurk/v2_DepthDuration_HTML.html#149,149,1366,625,1366,768,8-21-2022,9-41-25,81,depth_duration_stimuli/000436_2014-06-09_22-25-11_260595134347_rgbf000137-resize_1/000436_2014-06-09_22-25-11_260595134347_rgbf000137-resize_1-target.png,125,4.0705,4,5222,129,feet,jsons/VE125_randls_8.json,2139813,2589308,37,Woman
81,628645,DepthScenes,duration_manipulation_targetAtFixation,jsons/VE125_randls_8.json,http://54.235.29.9/FacialAge/BNav_EC2/DepthDuration/v2_depth_duration_MTurk/v2_DepthDuration_HTML.html#149,149,1366,625,1366,768,8-21-2022,9-41-25,82,depth_duration_stimuli/002444_2014-06-28_20-32-08_260595134347_rgbf000027-resize_0/002444_2014-06-28_20-32-08_260595134347_rgbf000027-resize_0-target.png,125,4.388999999999999,6,4705,123,feet,jsons/VE125_randls_8.json,2139813,2589308,37,Woman
82,628645,DepthScenes,duration_manipulation_targetAtFixation,jsons/VE125_randls_8.json,http://54.235.29.9/FacialAge/BNav_EC2/DepthDuration/v2_depth_duration_MTurk/v2_DepthDuration_HTML.html#149,149,1366,625,1366,768,8-21-2022,9-41-25,83,depth_duration_stimuli/000758_2014-06-08_22-05-08_260595134347_rgbf000085-resize_0/000758_2014-06-08_22-05-08_260595134347_rgbf000085-resize_0-target.png,125,3.3810000000000002,5,5226,123,feet,jsons/VE125_randls_8.json,2139813,2589308,37,Woman
83,628645,DepthScenes,duration_manipulation_targetAtFixation,jsons/VE125_randls_8.json,http://54.235.29.9/FacialAge/BNav_EC2/DepthDuration/v2_depth_duration_MTurk/v2_DepthDuration_HTML.html#149,149,1366,625,1366,768,8-21-2022,9-41-25,84,depth_duration_stimuli/000854_2014-06-09_19-43-13_260595134347_rgbf000066-resize_0/000854_2014-06-09_19-43-13_260595134347_rgbf000066-resize_0-target.png,125,3.068,4,4495,125,feet,jsons/VE125_randls_8.json,2139813,2589308,37,Woman
84,628645,DepthScenes,duration_manipulation_targetAtFixation,jsons/VE125_randls_8.json,http://54.235.29.9/FacialAge/BNav_EC2/DepthDuration/v2_depth_duration_MTurk/v2_DepthDuration_HTML.html#149,149,1366,625,1366,768,8-21-2022,9-41-25,85,depth_duration_stimuli/000009_2014-05-26_14-32-05_260595134347_rgbf000034-resize_3/000009_2014-05-26_14-32-05_260595134347_rgbf000034-resize_3-target.png,125,3.8715,7,5229,125,feet,jsons/VE125_randls_8.json,2139813,2589308,37,Woman
85,628645,DepthScenes,duration_manipulation_targetAtFixation,jsons/VE125_randls_8.json,http://54.235.29.9/FacialAge/BNav_EC2/DepthDuration/v2_depth_duration_MTurk/v2_DepthDuration_HTML.html#149,149,1366,625,1366,768,8-21-2022,9-41-25,86,depth_duration_stimuli/001828_2014-06-26_21-40-03_260595134347_rgbf000024-resize_0/001828_2014-06-26_21-40-03_260595134347_rgbf000024-resize_0-target.png,125,4.8260000000000005,6,4254,124,feet,jsons/VE125_randls_8.json,2139813,2589308,37,Woman
86,628645,DepthScenes,duration_manipulation_targetAtFixation,jsons/VE125_randls_8.json,http://54.235.29.9/FacialAge/BNav_EC2/DepthDuration/v2_depth_duration_MTurk/v2_DepthDuration_HTML.html#149,149,1366,625,1366,768,8-21-2022,9-41-25,87,depth_duration_stimuli/001029_2014-06-08_13-17-57_260595134347_rgbf000065-resize_1/001029_2014-06-08_13-17-57_260595134347_rgbf000065-resize_1-target.png,125,3.0835,6,4479,123,feet,jsons/VE125_randls_8.json,2139813,2589308,37,Woman
87,628645,DepthScenes,duration_manipulation_targetAtFixation,jsons/VE125_randls_8.json,http://54.235.29.9/FacialAge/BNav_EC2/DepthDuration/v2_depth_duration_MTurk/v2_DepthDuration_HTML.html#149,149,1366,625,1366,768,8-21-2022,9-41-25,88,depth_duration_stimuli/000677_2014-06-08_23-10-32_260595134347_rgbf000158-resize_6/000677_2014-06-08_23-10-32_260595134347_rgbf000158-resize_6-target.png,125,3.556,5,3769,125,feet,jsons/VE125_randls_8.json,2139813,2589308,37,Woman
88,628645,DepthScenes,duration_manipulation_targetAtFixation,jsons/VE125_randls_8.json,http://54.235.29.9/FacialAge/BNav_EC2/DepthDuration/v2_depth_duration_MTurk/v2_DepthDuration_HTML.html#149,149,1366,625,1366,768,8-21-2022,9-41-25,89,depth_duration_stimuli/003534_2014-05-22_15-06-10_094959634447_rgbf000102-resize_4/003534_2014-05-22_15-06-10_094959634447_rgbf000102-resize_4-target.png,125,1.426,6,6101,82,feet,jsons/VE125_randls_8.json,2139813,2589308,37,Woman
89,628645,DepthScenes,duration_manipulation_targetAtFixation,jsons/VE125_randls_8.json,http://54.235.29.9/FacialAge/BNav_EC2/DepthDuration/v2_depth_duration_MTurk/v2_DepthDuration_HTML.html#149,149,1366,625,1366,768,8-21-2022,9-41-25,90,depth_duration_stimuli/002637_2014-06-24_14-51-13_094959634447_rgbf000066-resize_4/002637_2014-06-24_14-51-13_094959634447_rgbf000066-resize_4-target.png,125,1.9955,6,4152,125,feet,jsons/VE125_randls_8.json,2139813,2589308,37,Woman
90,628645,DepthScenes,duration_manipulation_targetAtFixation,jsons/VE125_randls_8.json,http://54.235.29.9/FacialAge/BNav_EC2/DepthDuration/v2_depth_duration_MTurk/v2_DepthDuration_HTML.html#149,149,1366,625,1366,768,8-21-2022,9-41-25,91,depth_duration_stimuli/002118_2014-06-25_20-32-08_260595134347_rgbf000078-resize_1/002118_2014-06-25_20-32-08_260595134347_rgbf000078-resize_1-target.png,125,2.6460000000000004,3,6193,124,feet,jsons/VE125_randls_8.json,2139813,2589308,37,Woman
91,628645,DepthScenes,duration_manipulation_targetAtFixation,jsons/VE125_randls_8.json,http://54.235.29.9/FacialAge/BNav_EC2/DepthDuration/v2_depth_duration_MTurk/v2_DepthDuration_HTML.html#149,149,1366,625,1366,768,8-21-2022,9-41-25,92,depth_duration_stimuli/001516_2014-06-20_16-25-09_260595134347_rgbf000076-resize_2/001516_2014-06-20_16-25-09_260595134347_rgbf000076-resize_2-target.png,125,1.7445,3,6870,85,feet,jsons/VE125_randls_8.json,2139813,2589308,37,Woman
92,628645,DepthScenes,duration_manipulation_targetAtFixation,jsons/VE125_randls_8.json,http://54.235.29.9/FacialAge/BNav_EC2/DepthDuration/v2_depth_duration_MTurk/v2_DepthDuration_HTML.html#149,149,1366,625,1366,768,8-21-2022,9-41-25,93,depth_duration_stimuli/000917_2014-06-09_22-45-29_260595134347_rgbf000149-resize_3/000917_2014-06-09_22-45-29_260595134347_rgbf000149-resize_3-target.png,125,4.1865,5,5801,126,feet,jsons/VE125_randls_8.json,2139813,2589308,37,Woman
93,628645,DepthScenes,duration_manipulation_targetAtFixation,jsons/VE125_randls_8.json,http://54.235.29.9/FacialAge/BNav_EC2/DepthDuration/v2_depth_duration_MTurk/v2_DepthDuration_HTML.html#149,149,1366,625,1366,768,8-21-2022,9-41-25,94,depth_duration_stimuli/002323_2014-06-28_20-01-54_260595134347_rgbf000051-resize_4/002323_2014-06-28_20-01-54_260595134347_rgbf000051-resize_4-target.png,125,3.7310000000000003,5,6117,116,feet,jsons/VE125_randls_8.json,2139813,2589308,37,Woman
94,628645,DepthScenes,duration_manipulation_targetAtFixation,jsons/VE125_randls_8.json,http://54.235.29.9/FacialAge/BNav_EC2/DepthDuration/v2_depth_duration_MTurk/v2_DepthDuration_HTML.html#149,149,1366,625,1366,768,8-21-2022,9-41-25,95,depth_duration_stimuli/000642_2014-06-08_16-59-25_260595134347_rgbf000098-resize_2/000642_2014-06-08_16-59-25_260595134347_rgbf000098-resize_2-target.png,125,2.8815,3,5766,119,feet,jsons/VE125_randls_8.json,2139813,2589308,37,Woman
95,628645,DepthScenes,duration_manipulation_targetAtFixation,jsons/VE125_randls_8.json,http://54.235.29.9/FacialAge/BNav_EC2/DepthDuration/v2_depth_duration_MTurk/v2_DepthDuration_HTML.html#149,149,1366,625,1366,768,8-21-2022,9-41-25,96,depth_duration_stimuli/002425_2014-06-28_20-27-29_260595134347_rgbf000031-resize_8/002425_2014-06-28_20-27-29_260595134347_rgbf000031-resize_8-target.png,125,3.8960000000000004,7,6459,125,feet,jsons/VE125_randls_8.json,2139813,2589308,37,Woman
96,628645,DepthScenes,duration_manipulation_targetAtFixation,jsons/VE125_randls_8.json,http://54.235.29.9/FacialAge/BNav_EC2/DepthDuration/v2_depth_duration_MTurk/v2_DepthDuration_HTML.html#149,149,1366,625,1366,768,8-21-2022,9-41-25,97,depth_duration_stimuli/001150_2014-06-17_15-27-34_260595134347_rgbf000108-resize_2/001150_2014-06-17_15-27-34_260595134347_rgbf000108-resize_2-target.png,125,4.0325,6,5685,124,feet,jsons/VE125_randls_8.json,2139813,2589308,37,Woman
97,628645,DepthScenes,duration_manipulation_targetAtFixation,jsons/VE125_randls_8.json,http://54.235.29.9/FacialAge/BNav_EC2/DepthDuration/v2_depth_duration_MTurk/v2_DepthDuration_HTML.html#149,149,1366,625,1366,768,8-21-2022,9-41-25,98,depth_duration_stimuli/000665_2014-06-09_20-42-35_260595134347_rgbf000110-resize_1/000665_2014-06-09_20-42-35_260595134347_rgbf000110-resize_1-target.png,125,3.057,4,3866,126,feet,jsons/VE125_randls_8.json,2139813,2589308,37,Woman
98,628645,DepthScenes,duration_manipulation_targetAtFixation,jsons/VE125_randls_8.json,http://54.235.29.9/FacialAge/BNav_EC2/DepthDuration/v2_depth_duration_MTurk/v2_DepthDuration_HTML.html#149,149,1366,625,1366,768,8-21-2022,9-41-25,99,depth_duration_stimuli/001540_2014-06-20_17-01-05_260595134347_rgbf000086-resize_2/001540_2014-06-20_17-01-05_260595134347_rgbf000086-resize-original.jpg,125,1.459,4,5878,126,feet,jsons/VE125_randls_8.json,2139813,2589308,37,Woman
99,628645,DepthScenes,duration_manipulation_targetAtFixation,jsons/VE125_randls_8.json,http://54.235.29.9/FacialAge/BNav_EC2/DepthDuration/v2_depth_duration_MTurk/v2_DepthDuration_HTML.html#149,149,1366,625,1366,768,8-21-2022,9-41-25,100,depth_duration_stimuli/001164_2014-06-17_15-35-46_260595134347_rgbf000085-resize_3/001164_2014-06-17_15-35-46_260595134347_rgbf000085-resize_3-target.png,125,2.354,7,5261,125,feet,jsons/VE125_randls_8.json,2139813,2589308,37,Woman
100,628645,DepthScenes,duration_manipulation_targetAtFixation,jsons/VE125_randls_8.json,http://54.235.29.9/FacialAge/BNav_EC2/DepthDuration/v2_depth_duration_MTurk/v2_DepthDuration_HTML.html#149,149,1366,625,1366,768,8-21-2022,9-41-25,101,depth_duration_stimuli/001136_2014-06-17_15-19-41_260595134347_rgbf000076-resize_3/001136_2014-06-17_15-19-41_260595134347_rgbf000076-resize_3-target.png,125,1.8655,5,3745,123,feet,jsons/VE125_randls_8.json,2139813,2589308,37,Woman
101,628645,DepthScenes,duration_manipulation_targetAtFixation,jsons/VE125_randls_8.json,http://54.235.29.9/FacialAge/BNav_EC2/DepthDuration/v2_depth_duration_MTurk/v2_DepthDuration_HTML.html#149,149,1366,625,1366,768,8-21-2022,9-41-25,102,depth_duration_stimuli/002039_2014-06-24_20-22-38_260595134347_rgbf000084-resize_1/002039_2014-06-24_20-22-38_260595134347_rgbf000084-resize_1-target.png,125,4.408,6,4702,124,feet,jsons/VE125_randls_8.json,2139813,2589308,37,Woman
102,628645,DepthScenes,duration_manipulation_targetAtFixation,jsons/VE125_randls_8.json,http://54.235.29.9/FacialAge/BNav_EC2/DepthDuration/v2_depth_duration_MTurk/v2_DepthDuration_HTML.html#149,149,1366,625,1366,768,8-21-2022,9-41-25,103,depth_duration_stimuli/002103_2014-06-25_20-00-40_260595134347_rgbf000049-resize_0/002103_2014-06-25_20-00-40_260595134347_rgbf000049-resize_0-target.png,125,4.105,6,4164,124,feet,jsons/VE125_randls_8.json,2139813,2589308,37,Woman
103,628645,DepthScenes,duration_manipulation_targetAtFixation,jsons/VE125_randls_8.json,http://54.235.29.9/FacialAge/BNav_EC2/DepthDuration/v2_depth_duration_MTurk/v2_DepthDuration_HTML.html#149,149,1366,625,1366,768,8-21-2022,9-41-25,104,depth_duration_stimuli/001092_2014-06-15_17-34-58_260595134347_rgbf000171-resize_3/001092_2014-06-15_17-34-58_260595134347_rgbf000171-resize_3-target.png,125,2.6935,4,6377,125,feet,jsons/VE125_randls_8.json,2139813,2589308,37,Woman
104,628645,DepthScenes,duration_manipulation_targetAtFixation,jsons/VE125_randls_8.json,http://54.235.29.9/FacialAge/BNav_EC2/DepthDuration/v2_depth_duration_MTurk/v2_DepthDuration_HTML.html#149,149,1366,625,1366,768,8-21-2022,9-41-25,105,depth_duration_stimuli/002545_2014-06-24_13-38-53_094959634447_rgbf000080-resize_4/002545_2014-06-24_13-38-53_094959634447_rgbf000080-resize_4-target.png,125,1.9205,4,5764,125,feet,jsons/VE125_randls_8.json,2139813,2589308,37,Woman
105,628645,DepthScenes,duration_manipulation_targetAtFixation,jsons/VE125_randls_8.json,http://54.235.29.9/FacialAge/BNav_EC2/DepthDuration/v2_depth_duration_MTurk/v2_DepthDuration_HTML.html#149,149,1366,625,1366,768,8-21-2022,9-41-25,106,depth_duration_stimuli/000486_2014-06-09_20-47-20_260595134347_rgbf000143-resize_2/000486_2014-06-09_20-47-20_260595134347_rgbf000143-resize_2-target.png,125,4.8325,5,4894,123,feet,jsons/VE125_randls_8.json,2139813,2589308,37,Woman
106,628645,DepthScenes,duration_manipulation_targetAtFixation,jsons/VE125_randls_8.json,http://54.235.29.9/FacialAge/BNav_EC2/DepthDuration/v2_depth_duration_MTurk/v2_DepthDuration_HTML.html#149,149,1366,625,1366,768,8-21-2022,9-41-25,107,depth_duration_stimuli/003083_2014-06-15_15-21-03_094959634447_rgbf000063-resize_1/003083_2014-06-15_15-21-03_094959634447_rgbf000063-resize_1-target.png,125,4.1405,8,4558,170,feet,jsons/VE125_randls_8.json,2139813,2589308,37,Woman
107,628645,DepthScenes,duration_manipulation_targetAtFixation,jsons/VE125_randls_8.json,http://54.235.29.9/FacialAge/BNav_EC2/DepthDuration/v2_depth_duration_MTurk/v2_DepthDuration_HTML.html#149,149,1366,625,1366,768,8-21-2022,9-41-25,108,depth_duration_stimuli/000739_2014-06-08_18-45-58_260595134347_rgbf000068-resize_1/000739_2014-06-08_18-45-58_260595134347_rgbf000068-resize_1-target.png,125,3.534,4,4161,123,feet,jsons/VE125_randls_8.json,2139813,2589308,37,Woman
108,628645,DepthScenes,duration_manipulation_targetAtFixation,jsons/VE125_randls_8.json,http://54.235.29.9/FacialAge/BNav_EC2/DepthDuration/v2_depth_duration_MTurk/v2_DepthDuration_HTML.html#149,149,1366,625,1366,768,8-21-2022,9-41-25,109,depth_duration_stimuli/000734_2014-06-08_17-39-11_260595134347_rgbf000128-resize_2/000734_2014-06-08_17-39-11_260595134347_rgbf000128-resize_2-target.png,125,4.098,6,3744,124,feet,jsons/VE125_randls_8.json,2139813,2589308,37,Woman
109,628645,DepthScenes,duration_manipulation_targetAtFixation,jsons/VE125_randls_8.json,http://54.235.29.9/FacialAge/BNav_EC2/DepthDuration/v2_depth_duration_MTurk/v2_DepthDuration_HTML.html#149,149,1366,625,1366,768,8-21-2022,9-41-25,110,depth_duration_stimuli/002905_2014-06-03_18-04-43_094959634447_rgbf000151-resize_2/002905_2014-06-03_18-04-43_094959634447_rgbf000151-resize_2-target.png,125,2.0295,4,5410,125,feet,jsons/VE125_randls_8.json,2139813,2589308,37,Woman
110,628645,DepthScenes,duration_manipulation_targetAtFixation,jsons/VE125_randls_8.json,http://54.235.29.9/FacialAge/BNav_EC2/DepthDuration/v2_depth_duration_MTurk/v2_DepthDuration_HTML.html#149,149,1366,625,1366,768,8-21-2022,9-41-25,111,depth_duration_stimuli/003423_2014-05-21_10-23-26_094959634447_rgbf002665-resize_2/003423_2014-05-21_10-23-26_094959634447_rgbf002665-resize_2-target.png,125,3.2575,2,3956,120,feet,jsons/VE125_randls_8.json,2139813,2589308,37,Woman
111,628645,DepthScenes,duration_manipulation_targetAtFixation,jsons/VE125_randls_8.json,http://54.235.29.9/FacialAge/BNav_EC2/DepthDuration/v2_depth_duration_MTurk/v2_DepthDuration_HTML.html#149,149,1366,625,1366,768,8-21-2022,9-41-25,112,depth_duration_stimuli/002279_2014-06-28_18-55-32_260595134347_rgbf000040-resize_5/002279_2014-06-28_18-55-32_260595134347_rgbf000040-resize_5-target.png,125,1.5043333333333,3,5794,126,feet,jsons/VE125_randls_8.json,2139813,2589308,37,Woman
112,628645,DepthScenes,duration_manipulation_targetAtFixation,jsons/VE125_randls_8.json,http://54.235.29.9/FacialAge/BNav_EC2/DepthDuration/v2_depth_duration_MTurk/v2_DepthDuration_HTML.html#149,149,1366,625,1366,768,8-21-2022,9-41-25,113,depth_duration_stimuli/000635_2014-06-08_16-38-42_260595134347_rgbf000106-resize_1/000635_2014-06-08_16-38-42_260595134347_rgbf000106-resize_1-target.png,125,2.074,8,4392,125,feet,jsons/VE125_randls_8.json,2139813,2589308,37,Woman
113,628645,DepthScenes,duration_manipulation_targetAtFixation,jsons/VE125_randls_8.json,http://54.235.29.9/FacialAge/BNav_EC2/DepthDuration/v2_depth_duration_MTurk/v2_DepthDuration_HTML.html#149,149,1366,625,1366,768,8-21-2022,9-41-25,114,depth_duration_stimuli/002153_2014-06-25_21-27-18_260595134347_rgbf000038-resize_5/002153_2014-06-25_21-27-18_260595134347_rgbf000038-resize_5-target.png,125,2.505,4,5724,125,feet,jsons/VE125_randls_8.json,2139813,2589308,37,Woman
114,628645,DepthScenes,duration_manipulation_targetAtFixation,jsons/VE125_randls_8.json,http://54.235.29.9/FacialAge/BNav_EC2/DepthDuration/v2_depth_duration_MTurk/v2_DepthDuration_HTML.html#149,149,1366,625,1366,768,8-21-2022,9-41-25,115,depth_duration_stimuli/002660_2014-06-13_15-44-18_094959634447_rgbf001878-resize_2/002660_2014-06-13_15-44-18_094959634447_rgbf001878-resize_2-target.png,125,3.576,4,4064,125,feet,jsons/VE125_randls_8.json,2139813,2589308,37,Woman
115,628645,DepthScenes,duration_manipulation_targetAtFixation,jsons/VE125_randls_8.json,http://54.235.29.9/FacialAge/BNav_EC2/DepthDuration/v2_depth_duration_MTurk/v2_DepthDuration_HTML.html#149,149,1366,625,1366,768,8-21-2022,9-41-25,116,depth_duration_stimuli/001170_2014-06-17_15-43-44_260595134347_rgbf000096-resize_6/001170_2014-06-17_15-43-44_260595134347_rgbf000096-resize-original.jpg,125,1.1909999999999998,5,6192,125,feet,jsons/VE125_randls_8.json,2139813,2589308,37,Woman
116,628645,DepthScenes,duration_manipulation_targetAtFixation,jsons/VE125_randls_8.json,http://54.235.29.9/FacialAge/BNav_EC2/DepthDuration/v2_depth_duration_MTurk/v2_DepthDuration_HTML.html#149,149,1366,625,1366,768,8-21-2022,9-41-25,117,depth_duration_stimuli/000522_2014-06-08_13-35-06_260595134347_rgbf000244-resize_1/000522_2014-06-08_13-35-06_260595134347_rgbf000244-resize_1-target.png,125,2.3715,4,7046,108,feet,jsons/VE125_randls_8.json,2139813,2589308,37,Woman
117,628645,DepthScenes,duration_manipulation_targetAtFixation,jsons/VE125_randls_8.json,http://54.235.29.9/FacialAge/BNav_EC2/DepthDuration/v2_depth_duration_MTurk/v2_DepthDuration_HTML.html#149,149,1366,625,1366,768,8-21-2022,9-41-25,118,depth_duration_stimuli/002949_2014-06-26_15-57-42_094959634447_rgbf000079-resize_1/002949_2014-06-26_15-57-42_094959634447_rgbf000079-resize_1-target.png,125,1.8915,3,4312,125,feet,jsons/VE125_randls_8.json,2139813,2589308,37,Woman
118,628645,DepthScenes,duration_manipulation_targetAtFixation,jsons/VE125_randls_8.json,http://54.235.29.9/FacialAge/BNav_EC2/DepthDuration/v2_depth_duration_MTurk/v2_DepthDuration_HTML.html#149,149,1366,625,1366,768,8-21-2022,9-41-25,119,depth_duration_stimuli/002272_2014-06-28_18-53-56_260595134347_rgbf000067-resize_2/002272_2014-06-28_18-53-56_260595134347_rgbf000067-resize_2-target.png,125,1.138,3,4821,123,feet,jsons/VE125_randls_8.json,2139813,2589308,37,Woman
119,628645,DepthScenes,duration_manipulation_targetAtFixation,jsons/VE125_randls_8.json,http://54.235.29.9/FacialAge/BNav_EC2/DepthDuration/v2_depth_duration_MTurk/v2_DepthDuration_HTML.html#149,149,1366,625,1366,768,8-21-2022,9-41-25,120,depth_duration_stimuli/001571_2014-06-20_17-21-32_260595134347_rgbf000089-resize_1/001571_2014-06-20_17-21-32_260595134347_rgbf000089-resize_1-target.png,125,1.86,3,4498,124,feet,jsons/VE125_randls_8.json,2139813,2589308,37,Woman
120,628645,DepthScenes,duration_manipulation_targetAtFixation,jsons/VE125_randls_8.json,http://54.235.29.9/FacialAge/BNav_EC2/DepthDuration/v2_depth_duration_MTurk/v2_DepthDuration_HTML.html#149,149,1366,625,1366,768,8-21-2022,9-41-25,121,depth_duration_stimuli/002213_2014-06-28_18-37-58_260595134347_rgbf000055-resize_1/002213_2014-06-28_18-37-58_260595134347_rgbf000055-resize_1-target.png,125,3.62,7,5404,126,feet,jsons/VE125_randls_8.json,2139813,2589308,37,Woman
121,628645,DepthScenes,duration_manipulation_targetAtFixation,jsons/VE125_randls_8.json,http://54.235.29.9/FacialAge/BNav_EC2/DepthDuration/v2_depth_duration_MTurk/v2_DepthDuration_HTML.html#149,149,1366,625,1366,768,8-21-2022,9-41-25,122,depth_duration_stimuli/000691_2014-06-08_13-08-50_260595134347_rgbf000132-resize_3/000691_2014-06-08_13-08-50_260595134347_rgbf000132-resize_3-target.png,125,4.1530000000000005,3,3821,125,feet,jsons/VE125_randls_8.json,2139813,2589308,37,Woman
122,628645,DepthScenes,duration_manipulation_targetAtFixation,jsons/VE125_randls_8.json,http://54.235.29.9/FacialAge/BNav_EC2/DepthDuration/v2_depth_duration_MTurk/v2_DepthDuration_HTML.html#149,149,1366,625,1366,768,8-21-2022,9-41-25,123,depth_duration_stimuli/002570_2014-06-24_13-59-54_094959634447_rgbf000059-resize_0/002570_2014-06-24_13-59-54_094959634447_rgbf000059-resize_0-target.png,125,4.037,4,5370,124,feet,jsons/VE125_randls_8.json,2139813,2589308,37,Woman
123,628645,DepthScenes,duration_manipulation_targetAtFixation,jsons/VE125_randls_8.json,http://54.235.29.9/FacialAge/BNav_EC2/DepthDuration/v2_depth_duration_MTurk/v2_DepthDuration_HTML.html#149,149,1366,625,1366,768,8-21-2022,9-41-25,124,depth_duration_stimuli/002467_2014-06-28_20-38-07_260595134347_rgbf000026-resize_2/002467_2014-06-28_20-38-07_260595134347_rgbf000026-resize_2-target.png,125,4.742,6,4381,124,feet,jsons/VE125_randls_8.json,2139813,2589308,37,Woman
124,628645,DepthScenes,duration_manipulation_targetAtFixation,jsons/VE125_randls_8.json,http://54.235.29.9/FacialAge/BNav_EC2/DepthDuration/v2_depth_duration_MTurk/v2_DepthDuration_HTML.html#149,149,1366,625,1366,768,8-21-2022,9-41-25,125,depth_duration_stimuli/002043_2014-06-24_20-29-38_260595134347_rgbf000039-resize_4/002043_2014-06-24_20-29-38_260595134347_rgbf000039-resize_4-target.png,125,2.8435,3,5443,124,feet,jsons/VE125_randls_8.json,2139813,2589308,37,Woman
125,628645,DepthScenes,duration_manipulation_targetAtFixation,jsons/VE125_randls_8.json,http://54.235.29.9/FacialAge/BNav_EC2/DepthDuration/v2_depth_duration_MTurk/v2_DepthDuration_HTML.html#149,149,1366,625,1366,768,8-21-2022,9-41-25,126,depth_duration_stimuli/003048_2014-06-15_13-49-43_094959634447_rgbf000150-resize_1/003048_2014-06-15_13-49-43_094959634447_rgbf000150-resize_1-target.png,125,4.0035,7,4059,124,feet,jsons/VE125_randls_8.json,2139813,2589308,37,Woman
126,628645,DepthScenes,duration_manipulation_targetAtFixation,jsons/VE125_randls_8.json,http://54.235.29.9/FacialAge/BNav_EC2/DepthDuration/v2_depth_duration_MTurk/v2_DepthDuration_HTML.html#149,149,1366,625,1366,768,8-21-2022,9-41-25,127,depth_duration_stimuli/002988_2014-06-15_12-24-20_094959634447_rgbf000150-resize_1/002988_2014-06-15_12-24-20_094959634447_rgbf000150-resize_1-target.png,125,4.7669999999999995,9,4736,99,feet,jsons/VE125_randls_8.json,2139813,2589308,37,Woman
127,628645,DepthScenes,duration_manipulation_targetAtFixation,jsons/VE125_randls_8.json,http://54.235.29.9/FacialAge/BNav_EC2/DepthDuration/v2_depth_duration_MTurk/v2_DepthDuration_HTML.html#149,149,1366,625,1366,768,8-21-2022,9-41-25,128,depth_duration_stimuli/001052_2014-06-08_18-24-54_260595134347_rgbf000130-resize_1/001052_2014-06-08_18-24-54_260595134347_rgbf000130-resize_1-target.png,125,4.1045,7,5247,125,feet,jsons/VE125_randls_8.json,2139813,2589308,37,Woman
128,628645,DepthScenes,duration_manipulation_targetAtFixation,jsons/VE125_randls_8.json,http://54.235.29.9/FacialAge/BNav_EC2/DepthDuration/v2_depth_duration_MTurk/v2_DepthDuration_HTML.html#149,149,1366,625,1366,768,8-21-2022,9-41-25,129,depth_duration_stimuli/000692_2014-06-08_13-09-42_260595134347_rgbf000199-resize_2/000692_2014-06-08_13-09-42_260595134347_rgbf000199-resize_2-target.png,125,3.661,5,6301,124,feet,jsons/VE125_randls_8.json,2139813,2589308,37,Woman
129,628645,DepthScenes,duration_manipulation_targetAtFixation,jsons/VE125_randls_8.json,http://54.235.29.9/FacialAge/BNav_EC2/DepthDuration/v2_depth_duration_MTurk/v2_DepthDuration_HTML.html#149,149,1366,625,1366,768,8-21-2022,9-41-25,130,depth_duration_stimuli/001094_2014-06-15_17-36-00_260595134347_rgbf000205-resize_0/001094_2014-06-15_17-36-00_260595134347_rgbf000205-resize_0-target.png,125,4.2175,7,4016,137,feet,jsons/VE125_randls_8.json,2139813,2589308,37,Woman
130,628645,DepthScenes,duration_manipulation_targetAtFixation,jsons/VE125_randls_8.json,http://54.235.29.9/FacialAge/BNav_EC2/DepthDuration/v2_depth_duration_MTurk/v2_DepthDuration_HTML.html#149,149,1366,625,1366,768,8-21-2022,9-41-25,131,depth_duration_stimuli/001555_2014-06-20_17-12-10_260595134347_rgbf000065-resize_4/001555_2014-06-20_17-12-10_260595134347_rgbf000065-resize_4-target.png,125,1.633,3,6177,123,feet,jsons/VE125_randls_8.json,2139813,2589308,37,Woman
131,628645,DepthScenes,duration_manipulation_targetAtFixation,jsons/VE125_randls_8.json,http://54.235.29.9/FacialAge/BNav_EC2/DepthDuration/v2_depth_duration_MTurk/v2_DepthDuration_HTML.html#149,149,1366,625,1366,768,8-21-2022,9-41-25,132,depth_duration_stimuli/000103_2014-05-14_22-01-17_260595134347_rgbf000152-resize_5/000103_2014-05-14_22-01-17_260595134347_rgbf000152-resize_5-target.png,125,1.993,5,3532,125,feet,jsons/VE125_randls_8.json,2139813,2589308,37,Woman
132,628645,DepthScenes,duration_manipulation_targetAtFixation,jsons/VE125_randls_8.json,http://54.235.29.9/FacialAge/BNav_EC2/DepthDuration/v2_depth_duration_MTurk/v2_DepthDuration_HTML.html#149,149,1366,625,1366,768,8-21-2022,9-41-25,133,depth_duration_stimuli/002057_2014-06-24_21-00-13_260595134347_rgbf000120-resize_1/002057_2014-06-24_21-00-13_260595134347_rgbf000120-resize_1-target.png,125,2.967,6,4919,127,feet,jsons/VE125_randls_8.json,2139813,2589308,37,Woman
133,628645,DepthScenes,duration_manipulation_targetAtFixation,jsons/VE125_randls_8.json,http://54.235.29.9/FacialAge/BNav_EC2/DepthDuration/v2_depth_duration_MTurk/v2_DepthDuration_HTML.html#149,149,1366,625,1366,768,8-21-2022,9-41-25,134,depth_duration_stimuli/000709_2014-06-08_13-51-55_260595134347_rgbf000068-resize_3/000709_2014-06-08_13-51-55_260595134347_rgbf000068-resize_3-target.png,125,1.8030000000000002,7,3787,123,feet,jsons/VE125_randls_8.json,2139813,2589308,37,Woman
134,628645,DepthScenes,duration_manipulation_targetAtFixation,jsons/VE125_randls_8.json,http://54.235.29.9/FacialAge/BNav_EC2/DepthDuration/v2_depth_duration_MTurk/v2_DepthDuration_HTML.html#149,149,1366,625,1366,768,8-21-2022,9-41-25,135,depth_duration_stimuli/002072_2014-06-24_21-48-06_260595134347_rgbf000115-resize_0/002072_2014-06-24_21-48-06_260595134347_rgbf000115-resize-original.jpg,125,4.702,0,4600,124,feet,jsons/VE125_randls_8.json,2139813,2589308,37,Woman
135,628645,DepthScenes,duration_manipulation_targetAtFixation,jsons/VE125_randls_8.json,http://54.235.29.9/FacialAge/BNav_EC2/DepthDuration/v2_depth_duration_MTurk/v2_DepthDuration_HTML.html#149,149,1366,625,1366,768,8-21-2022,9-41-25,136,depth_duration_stimuli/002600_2014-06-24_14-27-04_094959634447_rgbf000074-resize_2/002600_2014-06-24_14-27-04_094959634447_rgbf000074-resize_2-target.png,125,2.7575,3,6976,132,feet,jsons/VE125_randls_8.json,2139813,2589308,37,Woman
136,628645,DepthScenes,duration_manipulation_targetAtFixation,jsons/VE125_randls_8.json,http://54.235.29.9/FacialAge/BNav_EC2/DepthDuration/v2_depth_duration_MTurk/v2_DepthDuration_HTML.html#149,149,1366,625,1366,768,8-21-2022,9-41-25,137,depth_duration_stimuli/003228_2014-05-14_13-42-35_094959634447_rgbf000101-resize_1/003228_2014-05-14_13-42-35_094959634447_rgbf000101-resize_1-target.png,125,1.9680000000000002,3,4298,123,feet,jsons/VE125_randls_8.json,2139813,2589308,37,Woman
137,628645,DepthScenes,duration_manipulation_targetAtFixation,jsons/VE125_randls_8.json,http://54.235.29.9/FacialAge/BNav_EC2/DepthDuration/v2_depth_duration_MTurk/v2_DepthDuration_HTML.html#149,149,1366,625,1366,768,8-21-2022,9-41-25,138,depth_duration_stimuli/002445_2014-06-28_20-32-16_260595134347_rgbf000029-resize_4/002445_2014-06-28_20-32-16_260595134347_rgbf000029-resize_4-target.png,125,2.5315,2,5216,124,feet,jsons/VE125_randls_8.json,2139813,2589308,37,Woman
138,628645,DepthScenes,duration_manipulation_targetAtFixation,jsons/VE125_randls_8.json,http://54.235.29.9/FacialAge/BNav_EC2/DepthDuration/v2_depth_duration_MTurk/v2_DepthDuration_HTML.html#149,149,1366,625,1366,768,8-21-2022,9-41-25,139,depth_duration_stimuli/000780_2014-06-08_22-28-29_260595134347_rgbf000126-resize_1/000780_2014-06-08_22-28-29_260595134347_rgbf000126-resize_1-target.png,125,3.3825,4,3629,125,feet,jsons/VE125_randls_8.json,2139813,2589308,37,Woman
139,628645,DepthScenes,duration_manipulation_targetAtFixation,jsons/VE125_randls_8.json,http://54.235.29.9/FacialAge/BNav_EC2/DepthDuration/v2_depth_duration_MTurk/v2_DepthDuration_HTML.html#149,149,1366,625,1366,768,8-21-2022,9-41-25,140,depth_duration_stimuli/002549_2014-06-24_13-41-39_094959634447_rgbf000022-resize_3/002549_2014-06-24_13-41-39_094959634447_rgbf000022-resize_3-target.png,125,1.476,4,4993,132,feet,jsons/VE125_randls_8.json,2139813,2589308,37,Woman
140,628645,DepthScenes,duration_manipulation_targetAtFixation,jsons/VE125_randls_8.json,http://54.235.29.9/FacialAge/BNav_EC2/DepthDuration/v2_depth_duration_MTurk/v2_DepthDuration_HTML.html#149,149,1366,625,1366,768,8-21-2022,9-41-25,141,depth_duration_stimuli/002750_2014-06-22_19-08-03_094959634447_rgbf000094-resize_4/002750_2014-06-22_19-08-03_094959634447_rgbf000094-resize_4-target.png,125,2.354,4,8607,124,feet,jsons/VE125_randls_8.json,2139813,2589308,37,Woman
141,628645,DepthScenes,duration_manipulation_targetAtFixation,jsons/VE125_randls_8.json,http://54.235.29.9/FacialAge/BNav_EC2/DepthDuration/v2_depth_duration_MTurk/v2_DepthDuration_HTML.html#149,149,1366,625,1366,768,8-21-2022,9-41-25,142,depth_duration_stimuli/000878_2014-06-08_22-52-45_260595134347_rgbf000045-resize_2/000878_2014-06-08_22-52-45_260595134347_rgbf000045-resize_2-target.png,125,2.092,7,4370,116,feet,jsons/VE125_randls_8.json,2139813,2589308,37,Woman
142,628645,DepthScenes,duration_manipulation_targetAtFixation,jsons/VE125_randls_8.json,http://54.235.29.9/FacialAge/BNav_EC2/DepthDuration/v2_depth_duration_MTurk/v2_DepthDuration_HTML.html#149,149,1366,625,1366,768,8-21-2022,9-41-25,143,depth_duration_stimuli/002953_2014-06-08_17-32-18_094959634447_rgbf000059-resize_5/002953_2014-06-08_17-32-18_094959634447_rgbf000059-resize_5-target.png,125,1.551,4,4623,124,feet,jsons/VE125_randls_8.json,2139813,2589308,37,Woman
143,628645,DepthScenes,duration_manipulation_targetAtFixation,jsons/VE125_randls_8.json,http://54.235.29.9/FacialAge/BNav_EC2/DepthDuration/v2_depth_duration_MTurk/v2_DepthDuration_HTML.html#149,149,1366,625,1366,768,8-21-2022,9-41-25,144,depth_duration_stimuli/001016_2014-06-09_16-16-10_260595134347_rgbf000112-resize_5/001016_2014-06-09_16-16-10_260595134347_rgbf000112-resize_5-target.png,125,1.6565,6,5002,124,feet,jsons/VE125_randls_8.json,2139813,2589308,37,Woman
144,628645,DepthScenes,duration_manipulation_targetAtFixation,jsons/VE125_randls_8.json,http://54.235.29.9/FacialAge/BNav_EC2/DepthDuration/v2_depth_duration_MTurk/v2_DepthDuration_HTML.html#149,149,1366,625,1366,768,8-21-2022,9-41-25,145,depth_duration_stimuli/002340_2014-06-28_20-05-46_260595134347_rgbf000113-resize_0/002340_2014-06-28_20-05-46_260595134347_rgbf000113-resize_0-target.png,125,2.4735,8,4008,125,feet,jsons/VE125_randls_8.json,2139813,2589308,37,Woman
145,628645,DepthScenes,duration_manipulation_targetAtFixation,jsons/VE125_randls_8.json,http://54.235.29.9/FacialAge/BNav_EC2/DepthDuration/v2_depth_duration_MTurk/v2_DepthDuration_HTML.html#149,149,1366,625,1366,768,8-21-2022,9-41-25,146,depth_duration_stimuli/001498_2014-06-19_17-45-14_260595134347_rgbf000129-resize_4/001498_2014-06-19_17-45-14_260595134347_rgbf000129-resize-original.jpg,125,1.4075,0,5646,126,feet,jsons/VE125_randls_8.json,2139813,2589308,37,Woman
146,628645,DepthScenes,duration_manipulation_targetAtFixation,jsons/VE125_randls_8.json,http://54.235.29.9/FacialAge/BNav_EC2/DepthDuration/v2_depth_duration_MTurk/v2_DepthDuration_HTML.html#149,149,1366,625,1366,768,8-21-2022,9-41-25,147,depth_duration_stimuli/001055_2014-06-08_18-45-35_260595134347_rgbf000111-resize_4/001055_2014-06-08_18-45-35_260595134347_rgbf000111-resize_4-target.png,125,2.4290000000000003,8,5027,124,feet,jsons/VE125_randls_8.json,2139813,2589308,37,Woman
147,628645,DepthScenes,duration_manipulation_targetAtFixation,jsons/VE125_randls_8.json,http://54.235.29.9/FacialAge/BNav_EC2/DepthDuration/v2_depth_duration_MTurk/v2_DepthDuration_HTML.html#149,149,1366,625,1366,768,8-21-2022,9-41-25,148,depth_duration_stimuli/000549_2014-06-08_22-10-24_260595134347_rgbf000247-resize_3/000549_2014-06-08_22-10-24_260595134347_rgbf000247-resize_3-target.png,125,1.841,3,3621,125,feet,jsons/VE125_randls_8.json,2139813,2589308,37,Woman
148,628645,DepthScenes,duration_manipulation_targetAtFixation,jsons/VE125_randls_8.json,http://54.235.29.9/FacialAge/BNav_EC2/DepthDuration/v2_depth_duration_MTurk/v2_DepthDuration_HTML.html#149,149,1366,625,1366,768,8-21-2022,9-41-25,149,depth_duration_stimuli/001808_2014-06-26_20-50-58_260595134347_rgbf000029-resize_1/001808_2014-06-26_20-50-58_260595134347_rgbf000029-resize_1-target.png,125,4.249,7,5438,120,feet,jsons/VE125_randls_8.json,2139813,2589308,37,Woman
149,628645,DepthScenes,duration_manipulation_targetAtFixation,jsons/VE125_randls_8.json,http://54.235.29.9/FacialAge/BNav_EC2/DepthDuration/v2_depth_duration_MTurk/v2_DepthDuration_HTML.html#149,149,1366,625,1366,768,8-21-2022,9-41-25,150,depth_duration_stimuli/001815_2014-06-26_20-52-55_260595134347_rgbf000020-resize_0/001815_2014-06-26_20-52-55_260595134347_rgbf000020-resize_0-target.png,125,3.3865,7,3320,125,feet,jsons/VE125_randls_8.json,2139813,2589308,37,Woman
150,628645,DepthScenes,duration_manipulation_targetAtFixation,jsons/VE125_randls_8.json,http://54.235.29.9/FacialAge/BNav_EC2/DepthDuration/v2_depth_duration_MTurk/v2_DepthDuration_HTML.html#149,149,1366,625,1366,768,8-21-2022,9-41-25,151,depth_duration_stimuli/001011_2014-06-08_23-18-54_260595134347_rgbf000044-resize_4/001011_2014-06-08_23-18-54_260595134347_rgbf000044-resize_4-target.png,125,2.4730000000000003,8,4396,123,feet,jsons/VE125_randls_8.json,2139813,2589308,37,Woman
151,628645,DepthScenes,duration_manipulation_targetAtFixation,jsons/VE125_randls_8.json,http://54.235.29.9/FacialAge/BNav_EC2/DepthDuration/v2_depth_duration_MTurk/v2_DepthDuration_HTML.html#149,149,1366,625,1366,768,8-21-2022,9-41-25,152,depth_duration_stimuli/002875_2014-06-01_15-19-00_094959634447_rgbf000151-resize_1/002875_2014-06-01_15-19-00_094959634447_rgbf000151-resize_1-target.png,125,1.9675,8,3757,124,feet,jsons/VE125_randls_8.json,2139813,2589308,37,Woman
152,628645,DepthScenes,duration_manipulation_targetAtFixation,jsons/VE125_randls_8.json,http://54.235.29.9/FacialAge/BNav_EC2/DepthDuration/v2_depth_duration_MTurk/v2_DepthDuration_HTML.html#149,149,1366,625,1366,768,8-21-2022,9-41-25,153,depth_duration_stimuli/002725_2014-06-22_11-47-51_094959634447_rgbf000070-resize_1/002725_2014-06-22_11-47-51_094959634447_rgbf000070-resize_1-target.png,125,2.195,5,9328,124,feet,jsons/VE125_randls_8.json,2139813,2589308,37,Woman
153,628645,DepthScenes,duration_manipulation_targetAtFixation,jsons/VE125_randls_8.json,http://54.235.29.9/FacialAge/BNav_EC2/DepthDuration/v2_depth_duration_MTurk/v2_DepthDuration_HTML.html#149,149,1366,625,1366,768,8-21-2022,9-41-25,154,depth_duration_stimuli/002344_2014-06-28_20-06-29_260595134347_rgbf000030-resize_1/002344_2014-06-28_20-06-29_260595134347_rgbf000030-resize_1-target.png,125,1.5795,4,40570,124,feet,jsons/VE125_randls_8.json,2139813,2589308,37,Woman
154,628645,DepthScenes,duration_manipulation_targetAtFixation,jsons/VE125_randls_8.json,http://54.235.29.9/FacialAge/BNav_EC2/DepthDuration/v2_depth_duration_MTurk/v2_DepthDuration_HTML.html#149,149,1366,625,1366,768,8-21-2022,9-41-25,155,depth_duration_stimuli/001806_2014-06-26_20-50-20_260595134347_rgbf000091-resize_1/001806_2014-06-26_20-50-20_260595134347_rgbf000091-resize_1-target.png,125,2.7305,3,4879,123,feet,jsons/VE125_randls_8.json,2139813,2589308,37,Woman
155,628645,DepthScenes,duration_manipulation_targetAtFixation,jsons/VE125_randls_8.json,http://54.235.29.9/FacialAge/BNav_EC2/DepthDuration/v2_depth_duration_MTurk/v2_DepthDuration_HTML.html#149,149,1366,625,1366,768,8-21-2022,9-41-25,156,depth_duration_stimuli/001617_2014-06-20_11-35-32_260595134347_rgbf000066-resize_1/001617_2014-06-20_11-35-32_260595134347_rgbf000066-resize_1-target.png,125,3.7910000000000004,4,34237,125,feet,jsons/VE125_randls_8.json,2139813,2589308,37,Woman
156,628645,DepthScenes,duration_manipulation_targetAtFixation,jsons/VE125_randls_8.json,http://54.235.29.9/FacialAge/BNav_EC2/DepthDuration/v2_depth_duration_MTurk/v2_DepthDuration_HTML.html#149,149,1366,625,1366,768,8-21-2022,9-41-25,157,depth_duration_stimuli/002375_2014-06-28_20-13-44_260595134347_rgbf000032-resize_1/002375_2014-06-28_20-13-44_260595134347_rgbf000032-resize_1-target.png,125,4.0175,3,6557,124,feet,jsons/VE125_randls_8.json,2139813,2589308,37,Woman
157,628645,DepthScenes,duration_manipulation_targetAtFixation,jsons/VE125_randls_8.json,http://54.235.29.9/FacialAge/BNav_EC2/DepthDuration/v2_depth_duration_MTurk/v2_DepthDuration_HTML.html#149,149,1366,625,1366,768,8-21-2022,9-41-25,158,depth_duration_stimuli/002657_2014-06-13_15-29-54_094959634447_rgbf000150-resize_1/002657_2014-06-13_15-29-54_094959634447_rgbf000150-resize_1-target.png,125,4.919,2,6758,125,feet,jsons/VE125_randls_8.json,2139813,2589308,37,Woman
158,628645,DepthScenes,duration_manipulation_targetAtFixation,jsons/VE125_randls_8.json,http://54.235.29.9/FacialAge/BNav_EC2/DepthDuration/v2_depth_duration_MTurk/v2_DepthDuration_HTML.html#149,149,1366,625,1366,768,8-21-2022,9-41-25,159,depth_duration_stimuli/000470_2014-06-09_19-42-40_260595134347_rgbf000094-resize_1/000470_2014-06-09_19-42-40_260595134347_rgbf000094-resize_1-target.png,125,1.831,3,6380,124,feet,jsons/VE125_randls_8.json,2139813,2589308,37,Woman
159,628645,DepthScenes,duration_manipulation_targetAtFixation,jsons/VE125_randls_8.json,http://54.235.29.9/FacialAge/BNav_EC2/DepthDuration/v2_depth_duration_MTurk/v2_DepthDuration_HTML.html#149,149,1366,625,1366,768,8-21-2022,9-41-25,160,depth_duration_stimuli/000109_2014-05-14_23-41-52_260595134347_rgbf000035-resize_9/000109_2014-05-14_23-41-52_260595134347_rgbf000035-resize_9-target.png,125,1.3545,1,7497,124,feet,jsons/VE125_randls_8.json,2139813,2589308,37,Woman
160,628645,DepthScenes,duration_manipulation_targetAtFixation,jsons/VE125_randls_8.json,http://54.235.29.9/FacialAge/BNav_EC2/DepthDuration/v2_depth_duration_MTurk/v2_DepthDuration_HTML.html#149,149,1366,625,1366,768,8-21-2022,9-41-25,161,depth_duration_stimuli/002964_2014-06-08_17-46-11_094959634447_rgbf000091-resize_4/002964_2014-06-08_17-46-11_094959634447_rgbf000091-resize_4-target.png,125,1.6909999999999998,2,8757,125,feet,jsons/VE125_randls_8.json,2139813,2589308,37,Woman
161,628645,DepthScenes,duration_manipulation_targetAtFixation,jsons/VE125_randls_8.json,http://54.235.29.9/FacialAge/BNav_EC2/DepthDuration/v2_depth_duration_MTurk/v2_DepthDuration_HTML.html#149,149,1366,625,1366,768,8-21-2022,9-41-25,162,depth_duration_stimuli/002136_2014-06-25_21-18-03_260595134347_rgbf000109-resize_3/002136_2014-06-25_21-18-03_260595134347_rgbf000109-resize_3-target.png,125,1.9569999999999999,3,3942,125,feet,jsons/VE125_randls_8.json,2139813,2589308,37,Woman
162,628645,DepthScenes,duration_manipulation_targetAtFixation,jsons/VE125_randls_8.json,http://54.235.29.9/FacialAge/BNav_EC2/DepthDuration/v2_depth_duration_MTurk/v2_DepthDuration_HTML.html#149,149,1366,625,1366,768,8-21-2022,9-41-25,163,depth_duration_stimuli/000447_2014-06-08_16-15-46_260595134347_rgbf000130-resize_1/000447_2014-06-08_16-15-46_260595134347_rgbf000130-resize_1-target.png,125,4.479,3,11815,123,feet,jsons/VE125_randls_8.json,2139813,2589308,37,Woman
163,628645,DepthScenes,duration_manipulation_targetAtFixation,jsons/VE125_randls_8.json,http://54.235.29.9/FacialAge/BNav_EC2/DepthDuration/v2_depth_duration_MTurk/v2_DepthDuration_HTML.html#149,149,1366,625,1366,768,8-21-2022,9-41-25,164,depth_duration_stimuli/001447_2014-06-19_17-00-32_260595134347_rgbf000082-resize_5/001447_2014-06-19_17-00-32_260595134347_rgbf000082-resize_5-target.png,125,4.13775,0,5371,125,feet,jsons/VE125_randls_8.json,2139813,2589308,37,Woman
