,subjID,experimentName,versionName,sequenceName,url,selected_row,windowWidth,windowHeight,screenWidth,screenHeight,startDate,startTime,trial,stimulus,duration,actual_depth,depth_estimate,trial_RT,log_sceneDuration,unitSelection,seq_filepath,experimentTime,totalTime,age,gender
0,631173,DepthScenes,duration_manipulation_targetAtFixation,jsons/VE125_randls_34_rotated.json,http://54.235.29.9/FacialAge/BNav_EC2/DepthDuration/v2_depth_duration_MTurk/v2_DepthDuration_HTML.html#89,89,1364,768,1364,768,8-21-2022,9-50-18,1,depth_duration_stimuli/000103_2014-05-14_22-01-17_260595134347_rgbf000152-resize_5/000103_2014-05-14_22-01-17_260595134347_rgbf000152-resize_5-target.png,125,1.993,1,7768,123,meters,jsons/VE125_randls_34_rotated.json,1190618,1526632,26,Man
1,631173,DepthScenes,duration_manipulation_targetAtFixation,jsons/VE125_randls_34_rotated.json,http://54.235.29.9/FacialAge/BNav_EC2/DepthDuration/v2_depth_duration_MTurk/v2_DepthDuration_HTML.html#89,89,1364,768,1364,768,8-21-2022,9-50-18,2,depth_duration_stimuli/001555_2014-06-20_17-12-10_260595134347_rgbf000065-resize_4/001555_2014-06-20_17-12-10_260595134347_rgbf000065-resize_4-target.png,125,1.633,1,3793,123,meters,jsons/VE125_randls_34_rotated.json,1190618,1526632,26,Man
2,631173,DepthScenes,duration_manipulation_targetAtFixation,jsons/VE125_randls_34_rotated.json,http://54.235.29.9/FacialAge/BNav_EC2/DepthDuration/v2_depth_duration_MTurk/v2_DepthDuration_HTML.html#89,89,1364,768,1364,768,8-21-2022,9-50-18,3,depth_duration_stimuli/001617_2014-06-20_11-35-32_260595134347_rgbf000066-resize_1/001617_2014-06-20_11-35-32_260595134347_rgbf000066-resize_1-target.png,125,3.7910000000000004,0,3760,125,meters,jsons/VE125_randls_34_rotated.json,1190618,1526632,26,Man
3,631173,DepthScenes,duration_manipulation_targetAtFixation,jsons/VE125_randls_34_rotated.json,http://54.235.29.9/FacialAge/BNav_EC2/DepthDuration/v2_depth_duration_MTurk/v2_DepthDuration_HTML.html#89,89,1364,768,1364,768,8-21-2022,9-50-18,4,depth_duration_stimuli/001806_2014-06-26_20-50-20_260595134347_rgbf000091-resize_1/001806_2014-06-26_20-50-20_260595134347_rgbf000091-resize_1-target.png,125,2.7305,1,4138,124,meters,jsons/VE125_randls_34_rotated.json,1190618,1526632,26,Man
4,631173,DepthScenes,duration_manipulation_targetAtFixation,jsons/VE125_randls_34_rotated.json,http://54.235.29.9/FacialAge/BNav_EC2/DepthDuration/v2_depth_duration_MTurk/v2_DepthDuration_HTML.html#89,89,1364,768,1364,768,8-21-2022,9-50-18,5,depth_duration_stimuli/003228_2014-05-14_13-42-35_094959634447_rgbf000101-resize_1/003228_2014-05-14_13-42-35_094959634447_rgbf000101-resize_1-target.png,125,1.9680000000000002,0,59905,122,meters,jsons/VE125_randls_34_rotated.json,1190618,1526632,26,Man
5,631173,DepthScenes,duration_manipulation_targetAtFixation,jsons/VE125_randls_34_rotated.json,http://54.235.29.9/FacialAge/BNav_EC2/DepthDuration/v2_depth_duration_MTurk/v2_DepthDuration_HTML.html#89,89,1364,768,1364,768,8-21-2022,9-50-18,6,depth_duration_stimuli/002600_2014-06-24_14-27-04_094959634447_rgbf000074-resize_2/002600_2014-06-24_14-27-04_094959634447_rgbf000074-resize_2-target.png,125,2.7575,0,3721,122,meters,jsons/VE125_randls_34_rotated.json,1190618,1526632,26,Man
6,631173,DepthScenes,duration_manipulation_targetAtFixation,jsons/VE125_randls_34_rotated.json,http://54.235.29.9/FacialAge/BNav_EC2/DepthDuration/v2_depth_duration_MTurk/v2_DepthDuration_HTML.html#89,89,1364,768,1364,768,8-21-2022,9-50-18,7,depth_duration_stimuli/001032_2014-06-08_13-23-17_260595134347_rgbf000021-resize_3/001032_2014-06-08_13-23-17_260595134347_rgbf000021-resize_3-target.png,125,3.2725,1,11096,125,meters,jsons/VE125_randls_34_rotated.json,1190618,1526632,26,Man
7,631173,DepthScenes,duration_manipulation_targetAtFixation,jsons/VE125_randls_34_rotated.json,http://54.235.29.9/FacialAge/BNav_EC2/DepthDuration/v2_depth_duration_MTurk/v2_DepthDuration_HTML.html#89,89,1364,768,1364,768,8-21-2022,9-50-18,8,depth_duration_stimuli/001059_2014-06-08_21-53-27_260595134347_rgbf000061-resize_4/001059_2014-06-08_21-53-27_260595134347_rgbf000061-resize_4-target.png,125,2.4185,1,3684,128,meters,jsons/VE125_randls_34_rotated.json,1190618,1526632,26,Man
8,631173,DepthScenes,duration_manipulation_targetAtFixation,jsons/VE125_randls_34_rotated.json,http://54.235.29.9/FacialAge/BNav_EC2/DepthDuration/v2_depth_duration_MTurk/v2_DepthDuration_HTML.html#89,89,1364,768,1364,768,8-21-2022,9-50-18,9,depth_duration_stimuli/003495_2014-05-21_16-01-51_094959634447_rgbf000100-resize_3/003495_2014-05-21_16-01-51_094959634447_rgbf000100-resize_3-target.png,125,1.6255,0,3555,124,meters,jsons/VE125_randls_34_rotated.json,1190618,1526632,26,Man
9,631173,DepthScenes,duration_manipulation_targetAtFixation,jsons/VE125_randls_34_rotated.json,http://54.235.29.9/FacialAge/BNav_EC2/DepthDuration/v2_depth_duration_MTurk/v2_DepthDuration_HTML.html#89,89,1364,768,1364,768,8-21-2022,9-50-18,10,depth_duration_stimuli/001244_2014-06-17_16-47-45_260595134347_rgbf000030-resize_4/001244_2014-06-17_16-47-45_260595134347_rgbf000030-resize_4-target.png,125,2.0425,0,29217,123,meters,jsons/VE125_randls_34_rotated.json,1190618,1526632,26,Man
10,631173,DepthScenes,duration_manipulation_targetAtFixation,jsons/VE125_randls_34_rotated.json,http://54.235.29.9/FacialAge/BNav_EC2/DepthDuration/v2_depth_duration_MTurk/v2_DepthDuration_HTML.html#89,89,1364,768,1364,768,8-21-2022,9-50-18,11,depth_duration_stimuli/002425_2014-06-28_20-27-29_260595134347_rgbf000031-resize_8/002425_2014-06-28_20-27-29_260595134347_rgbf000031-resize_8-target.png,125,3.8960000000000004,1,3301,121,meters,jsons/VE125_randls_34_rotated.json,1190618,1526632,26,Man
11,631173,DepthScenes,duration_manipulation_targetAtFixation,jsons/VE125_randls_34_rotated.json,http://54.235.29.9/FacialAge/BNav_EC2/DepthDuration/v2_depth_duration_MTurk/v2_DepthDuration_HTML.html#89,89,1364,768,1364,768,8-21-2022,9-50-18,12,depth_duration_stimuli/000642_2014-06-08_16-59-25_260595134347_rgbf000098-resize_2/000642_2014-06-08_16-59-25_260595134347_rgbf000098-resize_2-target.png,125,2.8815,1,3229,119,meters,jsons/VE125_randls_34_rotated.json,1190618,1526632,26,Man
12,631173,DepthScenes,duration_manipulation_targetAtFixation,jsons/VE125_randls_34_rotated.json,http://54.235.29.9/FacialAge/BNav_EC2/DepthDuration/v2_depth_duration_MTurk/v2_DepthDuration_HTML.html#89,89,1364,768,1364,768,8-21-2022,9-50-18,13,depth_duration_stimuli/001571_2014-06-20_17-21-32_260595134347_rgbf000089-resize_1/001571_2014-06-20_17-21-32_260595134347_rgbf000089-resize_1-target.png,125,1.86,0,3435,125,meters,jsons/VE125_randls_34_rotated.json,1190618,1526632,26,Man
13,631173,DepthScenes,duration_manipulation_targetAtFixation,jsons/VE125_randls_34_rotated.json,http://54.235.29.9/FacialAge/BNav_EC2/DepthDuration/v2_depth_duration_MTurk/v2_DepthDuration_HTML.html#89,89,1364,768,1364,768,8-21-2022,9-50-18,14,depth_duration_stimuli/002272_2014-06-28_18-53-56_260595134347_rgbf000067-resize_2/002272_2014-06-28_18-53-56_260595134347_rgbf000067-resize_2-target.png,125,1.138,1,3320,123,meters,jsons/VE125_randls_34_rotated.json,1190618,1526632,26,Man
14,631173,DepthScenes,duration_manipulation_targetAtFixation,jsons/VE125_randls_34_rotated.json,http://54.235.29.9/FacialAge/BNav_EC2/DepthDuration/v2_depth_duration_MTurk/v2_DepthDuration_HTML.html#89,89,1364,768,1364,768,8-21-2022,9-50-18,15,depth_duration_stimuli/003048_2014-06-15_13-49-43_094959634447_rgbf000150-resize_1/003048_2014-06-15_13-49-43_094959634447_rgbf000150-resize_1-target.png,125,4.0035,1,3762,123,meters,jsons/VE125_randls_34_rotated.json,1190618,1526632,26,Man
15,631173,DepthScenes,duration_manipulation_targetAtFixation,jsons/VE125_randls_34_rotated.json,http://54.235.29.9/FacialAge/BNav_EC2/DepthDuration/v2_depth_duration_MTurk/v2_DepthDuration_HTML.html#89,89,1364,768,1364,768,8-21-2022,9-50-18,16,depth_duration_stimuli/002043_2014-06-24_20-29-38_260595134347_rgbf000039-resize_4/002043_2014-06-24_20-29-38_260595134347_rgbf000039-resize_4-target.png,125,2.8435,1,3680,124,meters,jsons/VE125_randls_34_rotated.json,1190618,1526632,26,Man
16,631173,DepthScenes,duration_manipulation_targetAtFixation,jsons/VE125_randls_34_rotated.json,http://54.235.29.9/FacialAge/BNav_EC2/DepthDuration/v2_depth_duration_MTurk/v2_DepthDuration_HTML.html#89,89,1364,768,1364,768,8-21-2022,9-50-18,17,depth_duration_stimuli/001214_2014-06-17_16-13-55_260595134347_rgbf000111-resize_0/001214_2014-06-17_16-13-55_260595134347_rgbf000111-resize_0-target.png,125,2.6505,0,3355,120,meters,jsons/VE125_randls_34_rotated.json,1190618,1526632,26,Man
17,631173,DepthScenes,duration_manipulation_targetAtFixation,jsons/VE125_randls_34_rotated.json,http://54.235.29.9/FacialAge/BNav_EC2/DepthDuration/v2_depth_duration_MTurk/v2_DepthDuration_HTML.html#89,89,1364,768,1364,768,8-21-2022,9-50-18,18,depth_duration_stimuli/000810_2014-06-08_17-20-01_260595134347_rgbf000105-resize_0/000810_2014-06-08_17-20-01_260595134347_rgbf000105-resize_0-target.png,125,1.4865,1,3853,125,meters,jsons/VE125_randls_34_rotated.json,1190618,1526632,26,Man
18,631173,DepthScenes,duration_manipulation_targetAtFixation,jsons/VE125_randls_34_rotated.json,http://54.235.29.9/FacialAge/BNav_EC2/DepthDuration/v2_depth_duration_MTurk/v2_DepthDuration_HTML.html#89,89,1364,768,1364,768,8-21-2022,9-50-18,19,depth_duration_stimuli/001498_2014-06-19_17-45-14_260595134347_rgbf000129-resize_4/001498_2014-06-19_17-45-14_260595134347_rgbf000129-resize-original.jpg,125,1.4075,0,8860,124,meters,jsons/VE125_randls_34_rotated.json,1190618,1526632,26,Man
19,631173,DepthScenes,duration_manipulation_targetAtFixation,jsons/VE125_randls_34_rotated.json,http://54.235.29.9/FacialAge/BNav_EC2/DepthDuration/v2_depth_duration_MTurk/v2_DepthDuration_HTML.html#89,89,1364,768,1364,768,8-21-2022,9-50-18,20,depth_duration_stimuli/002444_2014-06-28_20-32-08_260595134347_rgbf000027-resize_0/002444_2014-06-28_20-32-08_260595134347_rgbf000027-resize_0-target.png,125,4.388999999999999,1,6599,123,meters,jsons/VE125_randls_34_rotated.json,1190618,1526632,26,Man
20,631173,DepthScenes,duration_manipulation_targetAtFixation,jsons/VE125_randls_34_rotated.json,http://54.235.29.9/FacialAge/BNav_EC2/DepthDuration/v2_depth_duration_MTurk/v2_DepthDuration_HTML.html#89,89,1364,768,1364,768,8-21-2022,9-50-18,21,depth_duration_stimuli/000436_2014-06-09_22-25-11_260595134347_rgbf000137-resize_1/000436_2014-06-09_22-25-11_260595134347_rgbf000137-resize_1-target.png,125,4.0705,0,15491,125,meters,jsons/VE125_randls_34_rotated.json,1190618,1526632,26,Man
21,631173,DepthScenes,duration_manipulation_targetAtFixation,jsons/VE125_randls_34_rotated.json,http://54.235.29.9/FacialAge/BNav_EC2/DepthDuration/v2_depth_duration_MTurk/v2_DepthDuration_HTML.html#89,89,1364,768,1364,768,8-21-2022,9-50-18,22,depth_duration_stimuli/002637_2014-06-24_14-51-13_094959634447_rgbf000066-resize_4/002637_2014-06-24_14-51-13_094959634447_rgbf000066-resize_4-target.png,125,1.9955,0,23476,218,meters,jsons/VE125_randls_34_rotated.json,1190618,1526632,26,Man
22,631173,DepthScenes,duration_manipulation_targetAtFixation,jsons/VE125_randls_34_rotated.json,http://54.235.29.9/FacialAge/BNav_EC2/DepthDuration/v2_depth_duration_MTurk/v2_DepthDuration_HTML.html#89,89,1364,768,1364,768,8-21-2022,9-50-18,23,depth_duration_stimuli/003534_2014-05-22_15-06-10_094959634447_rgbf000102-resize_4/003534_2014-05-22_15-06-10_094959634447_rgbf000102-resize_4-target.png,125,1.426,0,4035,132,meters,jsons/VE125_randls_34_rotated.json,1190618,1526632,26,Man
23,631173,DepthScenes,duration_manipulation_targetAtFixation,jsons/VE125_randls_34_rotated.json,http://54.235.29.9/FacialAge/BNav_EC2/DepthDuration/v2_depth_duration_MTurk/v2_DepthDuration_HTML.html#89,89,1364,768,1364,768,8-21-2022,9-50-18,24,depth_duration_stimuli/001447_2014-06-19_17-00-32_260595134347_rgbf000082-resize_5/001447_2014-06-19_17-00-32_260595134347_rgbf000082-resize_5-target.png,125,4.13775,1,3539,95,meters,jsons/VE125_randls_34_rotated.json,1190618,1526632,26,Man
24,631173,DepthScenes,duration_manipulation_targetAtFixation,jsons/VE125_randls_34_rotated.json,http://54.235.29.9/FacialAge/BNav_EC2/DepthDuration/v2_depth_duration_MTurk/v2_DepthDuration_HTML.html#89,89,1364,768,1364,768,8-21-2022,9-50-18,25,depth_duration_stimuli/000447_2014-06-08_16-15-46_260595134347_rgbf000130-resize_1/000447_2014-06-08_16-15-46_260595134347_rgbf000130-resize_1-target.png,125,4.479,1,4738,124,meters,jsons/VE125_randls_34_rotated.json,1190618,1526632,26,Man
25,631173,DepthScenes,duration_manipulation_targetAtFixation,jsons/VE125_randls_34_rotated.json,http://54.235.29.9/FacialAge/BNav_EC2/DepthDuration/v2_depth_duration_MTurk/v2_DepthDuration_HTML.html#89,89,1364,768,1364,768,8-21-2022,9-50-18,26,depth_duration_stimuli/000854_2014-06-09_19-43-13_260595134347_rgbf000066-resize_0/000854_2014-06-09_19-43-13_260595134347_rgbf000066-resize_0-target.png,125,3.068,0,3369,126,meters,jsons/VE125_randls_34_rotated.json,1190618,1526632,26,Man
26,631173,DepthScenes,duration_manipulation_targetAtFixation,jsons/VE125_randls_34_rotated.json,http://54.235.29.9/FacialAge/BNav_EC2/DepthDuration/v2_depth_duration_MTurk/v2_DepthDuration_HTML.html#89,89,1364,768,1364,768,8-21-2022,9-50-18,27,depth_duration_stimuli/000758_2014-06-08_22-05-08_260595134347_rgbf000085-resize_0/000758_2014-06-08_22-05-08_260595134347_rgbf000085-resize_0-target.png,125,3.3810000000000002,1,15340,123,meters,jsons/VE125_randls_34_rotated.json,1190618,1526632,26,Man
27,631173,DepthScenes,duration_manipulation_targetAtFixation,jsons/VE125_randls_34_rotated.json,http://54.235.29.9/FacialAge/BNav_EC2/DepthDuration/v2_depth_duration_MTurk/v2_DepthDuration_HTML.html#89,89,1364,768,1364,768,8-21-2022,9-50-18,28,depth_duration_stimuli/001052_2014-06-08_18-24-54_260595134347_rgbf000130-resize_1/001052_2014-06-08_18-24-54_260595134347_rgbf000130-resize_1-target.png,125,4.1045,0,9414,123,meters,jsons/VE125_randls_34_rotated.json,1190618,1526632,26,Man
28,631173,DepthScenes,duration_manipulation_targetAtFixation,jsons/VE125_randls_34_rotated.json,http://54.235.29.9/FacialAge/BNav_EC2/DepthDuration/v2_depth_duration_MTurk/v2_DepthDuration_HTML.html#89,89,1364,768,1364,768,8-21-2022,9-50-18,29,depth_duration_stimuli/002988_2014-06-15_12-24-20_094959634447_rgbf000150-resize_1/002988_2014-06-15_12-24-20_094959634447_rgbf000150-resize_1-target.png,125,4.7669999999999995,0,3598,123,meters,jsons/VE125_randls_34_rotated.json,1190618,1526632,26,Man
29,631173,DepthScenes,duration_manipulation_targetAtFixation,jsons/VE125_randls_34_rotated.json,http://54.235.29.9/FacialAge/BNav_EC2/DepthDuration/v2_depth_duration_MTurk/v2_DepthDuration_HTML.html#89,89,1364,768,1364,768,8-21-2022,9-50-18,30,depth_duration_stimuli/002072_2014-06-24_21-48-06_260595134347_rgbf000115-resize_0/002072_2014-06-24_21-48-06_260595134347_rgbf000115-resize-original.jpg,125,4.702,0,8351,122,meters,jsons/VE125_randls_34_rotated.json,1190618,1526632,26,Man
30,631173,DepthScenes,duration_manipulation_targetAtFixation,jsons/VE125_randls_34_rotated.json,http://54.235.29.9/FacialAge/BNav_EC2/DepthDuration/v2_depth_duration_MTurk/v2_DepthDuration_HTML.html#89,89,1364,768,1364,768,8-21-2022,9-50-18,31,depth_duration_stimuli/002209_2014-06-28_18-36-10_260595134347_rgbf000051-resize_1/002209_2014-06-28_18-36-10_260595134347_rgbf000051-resize_1-target.png,125,2.057,1,3619,124,meters,jsons/VE125_randls_34_rotated.json,1190618,1526632,26,Man
31,631173,DepthScenes,duration_manipulation_targetAtFixation,jsons/VE125_randls_34_rotated.json,http://54.235.29.9/FacialAge/BNav_EC2/DepthDuration/v2_depth_duration_MTurk/v2_DepthDuration_HTML.html#89,89,1364,768,1364,768,8-21-2022,9-50-18,32,depth_duration_stimuli/002763_2014-06-22_19-13-10_094959634447_rgbf000075-resize_4/002763_2014-06-22_19-13-10_094959634447_rgbf000075-resize_4-target.png,125,1.68375,1,3202,124,meters,jsons/VE125_randls_34_rotated.json,1190618,1526632,26,Man
32,631173,DepthScenes,duration_manipulation_targetAtFixation,jsons/VE125_randls_34_rotated.json,http://54.235.29.9/FacialAge/BNav_EC2/DepthDuration/v2_depth_duration_MTurk/v2_DepthDuration_HTML.html#89,89,1364,768,1364,768,8-21-2022,9-50-18,33,depth_duration_stimuli/002758_2014-06-22_19-11-20_094959634447_rgbf000128-resize_1/002758_2014-06-22_19-11-20_094959634447_rgbf000128-resize_1-target.png,125,2.555,0,3921,124,meters,jsons/VE125_randls_34_rotated.json,1190618,1526632,26,Man
33,631173,DepthScenes,duration_manipulation_targetAtFixation,jsons/VE125_randls_34_rotated.json,http://54.235.29.9/FacialAge/BNav_EC2/DepthDuration/v2_depth_duration_MTurk/v2_DepthDuration_HTML.html#89,89,1364,768,1364,768,8-21-2022,9-50-18,34,depth_duration_stimuli/002630_2014-06-24_14-47-50_094959634447_rgbf000055-resize_1/002630_2014-06-24_14-47-50_094959634447_rgbf000055-resize_1-target.png,125,3.0095,0,3387,129,meters,jsons/VE125_randls_34_rotated.json,1190618,1526632,26,Man
34,631173,DepthScenes,duration_manipulation_targetAtFixation,jsons/VE125_randls_34_rotated.json,http://54.235.29.9/FacialAge/BNav_EC2/DepthDuration/v2_depth_duration_MTurk/v2_DepthDuration_HTML.html#89,89,1364,768,1364,768,8-21-2022,9-50-18,35,depth_duration_stimuli/002344_2014-06-28_20-06-29_260595134347_rgbf000030-resize_1/002344_2014-06-28_20-06-29_260595134347_rgbf000030-resize_1-target.png,125,1.5795,0,3070,122,meters,jsons/VE125_randls_34_rotated.json,1190618,1526632,26,Man
35,631173,DepthScenes,duration_manipulation_targetAtFixation,jsons/VE125_randls_34_rotated.json,http://54.235.29.9/FacialAge/BNav_EC2/DepthDuration/v2_depth_duration_MTurk/v2_DepthDuration_HTML.html#89,89,1364,768,1364,768,8-21-2022,9-50-18,36,depth_duration_stimuli/002725_2014-06-22_11-47-51_094959634447_rgbf000070-resize_1/002725_2014-06-22_11-47-51_094959634447_rgbf000070-resize_1-target.png,125,2.195,1,3818,124,meters,jsons/VE125_randls_34_rotated.json,1190618,1526632,26,Man
36,631173,DepthScenes,duration_manipulation_targetAtFixation,jsons/VE125_randls_34_rotated.json,http://54.235.29.9/FacialAge/BNav_EC2/DepthDuration/v2_depth_duration_MTurk/v2_DepthDuration_HTML.html#89,89,1364,768,1364,768,8-21-2022,9-50-18,37,depth_duration_stimuli/003081_2014-06-15_15-19-16_094959634447_rgbf000150-resize_1/003081_2014-06-15_15-19-16_094959634447_rgbf000150-resize_1-target.png,125,3.9125,1,4131,126,meters,jsons/VE125_randls_34_rotated.json,1190618,1526632,26,Man
37,631173,DepthScenes,duration_manipulation_targetAtFixation,jsons/VE125_randls_34_rotated.json,http://54.235.29.9/FacialAge/BNav_EC2/DepthDuration/v2_depth_duration_MTurk/v2_DepthDuration_HTML.html#89,89,1364,768,1364,768,8-21-2022,9-50-18,38,depth_duration_stimuli/001417_2014-06-19_16-25-36_260595134347_rgbf000115-resize_5/001417_2014-06-19_16-25-36_260595134347_rgbf000115-resize_5-target.png,125,4.6255,1,3837,100,meters,jsons/VE125_randls_34_rotated.json,1190618,1526632,26,Man
38,631173,DepthScenes,duration_manipulation_targetAtFixation,jsons/VE125_randls_34_rotated.json,http://54.235.29.9/FacialAge/BNav_EC2/DepthDuration/v2_depth_duration_MTurk/v2_DepthDuration_HTML.html#89,89,1364,768,1364,768,8-21-2022,9-50-18,39,depth_duration_stimuli/000457_2014-06-08_16-52-43_260595134347_rgbf000199-resize_1/000457_2014-06-08_16-52-43_260595134347_rgbf000199-resize_1-target.png,125,3.6489999999999996,0,3141,123,meters,jsons/VE125_randls_34_rotated.json,1190618,1526632,26,Man
39,631173,DepthScenes,duration_manipulation_targetAtFixation,jsons/VE125_randls_34_rotated.json,http://54.235.29.9/FacialAge/BNav_EC2/DepthDuration/v2_depth_duration_MTurk/v2_DepthDuration_HTML.html#89,89,1364,768,1364,768,8-21-2022,9-50-18,40,depth_duration_stimuli/000929_2014-06-09_16-33-19_260595134347_rgbf000139-resize_0/000929_2014-06-09_16-33-19_260595134347_rgbf000139-resize_0-target.png,125,2.8680000000000003,1,4081,124,meters,jsons/VE125_randls_34_rotated.json,1190618,1526632,26,Man
40,631173,DepthScenes,duration_manipulation_targetAtFixation,jsons/VE125_randls_34_rotated.json,http://54.235.29.9/FacialAge/BNav_EC2/DepthDuration/v2_depth_duration_MTurk/v2_DepthDuration_HTML.html#89,89,1364,768,1364,768,8-21-2022,9-50-18,41,depth_duration_stimuli/002953_2014-06-08_17-32-18_094959634447_rgbf000059-resize_5/002953_2014-06-08_17-32-18_094959634447_rgbf000059-resize_5-target.png,125,1.551,1,3693,105,meters,jsons/VE125_randls_34_rotated.json,1190618,1526632,26,Man
41,631173,DepthScenes,duration_manipulation_targetAtFixation,jsons/VE125_randls_34_rotated.json,http://54.235.29.9/FacialAge/BNav_EC2/DepthDuration/v2_depth_duration_MTurk/v2_DepthDuration_HTML.html#89,89,1364,768,1364,768,8-21-2022,9-50-18,42,depth_duration_stimuli/000878_2014-06-08_22-52-45_260595134347_rgbf000045-resize_2/000878_2014-06-08_22-52-45_260595134347_rgbf000045-resize_2-target.png,125,2.092,0,3478,125,meters,jsons/VE125_randls_34_rotated.json,1190618,1526632,26,Man
42,631173,DepthScenes,duration_manipulation_targetAtFixation,jsons/VE125_randls_34_rotated.json,http://54.235.29.9/FacialAge/BNav_EC2/DepthDuration/v2_depth_duration_MTurk/v2_DepthDuration_HTML.html#89,89,1364,768,1364,768,8-21-2022,9-50-18,43,depth_duration_stimuli/000677_2014-06-08_23-10-32_260595134347_rgbf000158-resize_6/000677_2014-06-08_23-10-32_260595134347_rgbf000158-resize_6-target.png,125,3.556,1,4624,170,meters,jsons/VE125_randls_34_rotated.json,1190618,1526632,26,Man
43,631173,DepthScenes,duration_manipulation_targetAtFixation,jsons/VE125_randls_34_rotated.json,http://54.235.29.9/FacialAge/BNav_EC2/DepthDuration/v2_depth_duration_MTurk/v2_DepthDuration_HTML.html#89,89,1364,768,1364,768,8-21-2022,9-50-18,44,depth_duration_stimuli/001029_2014-06-08_13-17-57_260595134347_rgbf000065-resize_1/001029_2014-06-08_13-17-57_260595134347_rgbf000065-resize_1-target.png,125,3.0835,0,3622,120,meters,jsons/VE125_randls_34_rotated.json,1190618,1526632,26,Man
44,631173,DepthScenes,duration_manipulation_targetAtFixation,jsons/VE125_randls_34_rotated.json,http://54.235.29.9/FacialAge/BNav_EC2/DepthDuration/v2_depth_duration_MTurk/v2_DepthDuration_HTML.html#89,89,1364,768,1364,768,8-21-2022,9-50-18,45,depth_duration_stimuli/001094_2014-06-15_17-36-00_260595134347_rgbf000205-resize_0/001094_2014-06-15_17-36-00_260595134347_rgbf000205-resize_0-target.png,125,4.2175,0,3091,122,meters,jsons/VE125_randls_34_rotated.json,1190618,1526632,26,Man
45,631173,DepthScenes,duration_manipulation_targetAtFixation,jsons/VE125_randls_34_rotated.json,http://54.235.29.9/FacialAge/BNav_EC2/DepthDuration/v2_depth_duration_MTurk/v2_DepthDuration_HTML.html#89,89,1364,768,1364,768,8-21-2022,9-50-18,46,depth_duration_stimuli/000692_2014-06-08_13-09-42_260595134347_rgbf000199-resize_2/000692_2014-06-08_13-09-42_260595134347_rgbf000199-resize_2-target.png,125,3.661,1,4895,123,meters,jsons/VE125_randls_34_rotated.json,1190618,1526632,26,Man
46,631173,DepthScenes,duration_manipulation_targetAtFixation,jsons/VE125_randls_34_rotated.json,http://54.235.29.9/FacialAge/BNav_EC2/DepthDuration/v2_depth_duration_MTurk/v2_DepthDuration_HTML.html#89,89,1364,768,1364,768,8-21-2022,9-50-18,47,depth_duration_stimuli/000665_2014-06-09_20-42-35_260595134347_rgbf000110-resize_1/000665_2014-06-09_20-42-35_260595134347_rgbf000110-resize_1-target.png,125,3.057,0,4109,125,meters,jsons/VE125_randls_34_rotated.json,1190618,1526632,26,Man
47,631173,DepthScenes,duration_manipulation_targetAtFixation,jsons/VE125_randls_34_rotated.json,http://54.235.29.9/FacialAge/BNav_EC2/DepthDuration/v2_depth_duration_MTurk/v2_DepthDuration_HTML.html#89,89,1364,768,1364,768,8-21-2022,9-50-18,48,depth_duration_stimuli/001150_2014-06-17_15-27-34_260595134347_rgbf000108-resize_2/001150_2014-06-17_15-27-34_260595134347_rgbf000108-resize_2-target.png,125,4.0325,0,63815,125,meters,jsons/VE125_randls_34_rotated.json,1190618,1526632,26,Man
48,631173,DepthScenes,duration_manipulation_targetAtFixation,jsons/VE125_randls_34_rotated.json,http://54.235.29.9/FacialAge/BNav_EC2/DepthDuration/v2_depth_duration_MTurk/v2_DepthDuration_HTML.html#89,89,1364,768,1364,768,8-21-2022,9-50-18,49,depth_duration_stimuli/001170_2014-06-17_15-43-44_260595134347_rgbf000096-resize_6/001170_2014-06-17_15-43-44_260595134347_rgbf000096-resize-original.jpg,125,1.1909999999999998,1,14091,124,meters,jsons/VE125_randls_34_rotated.json,1190618,1526632,26,Man
49,631173,DepthScenes,duration_manipulation_targetAtFixation,jsons/VE125_randls_34_rotated.json,http://54.235.29.9/FacialAge/BNav_EC2/DepthDuration/v2_depth_duration_MTurk/v2_DepthDuration_HTML.html#89,89,1364,768,1364,768,8-21-2022,9-50-18,50,depth_duration_stimuli/001136_2014-06-17_15-19-41_260595134347_rgbf000076-resize_3/001136_2014-06-17_15-19-41_260595134347_rgbf000076-resize_3-target.png,125,1.8655,1,4313,124,meters,jsons/VE125_randls_34_rotated.json,1190618,1526632,26,Man
50,631173,DepthScenes,duration_manipulation_targetAtFixation,jsons/VE125_randls_34_rotated.json,http://54.235.29.9/FacialAge/BNav_EC2/DepthDuration/v2_depth_duration_MTurk/v2_DepthDuration_HTML.html#89,89,1364,768,1364,768,8-21-2022,9-50-18,51,depth_duration_stimuli/001164_2014-06-17_15-35-46_260595134347_rgbf000085-resize_3/001164_2014-06-17_15-35-46_260595134347_rgbf000085-resize_3-target.png,125,2.354,0,5387,124,meters,jsons/VE125_randls_34_rotated.json,1190618,1526632,26,Man
51,631173,DepthScenes,duration_manipulation_targetAtFixation,jsons/VE125_randls_34_rotated.json,http://54.235.29.9/FacialAge/BNav_EC2/DepthDuration/v2_depth_duration_MTurk/v2_DepthDuration_HTML.html#89,89,1364,768,1364,768,8-21-2022,9-50-18,52,depth_duration_stimuli/002136_2014-06-25_21-18-03_260595134347_rgbf000109-resize_3/002136_2014-06-25_21-18-03_260595134347_rgbf000109-resize_3-target.png,125,1.9569999999999999,0,19932,383,meters,jsons/VE125_randls_34_rotated.json,1190618,1526632,26,Man
52,631173,DepthScenes,duration_manipulation_targetAtFixation,jsons/VE125_randls_34_rotated.json,http://54.235.29.9/FacialAge/BNav_EC2/DepthDuration/v2_depth_duration_MTurk/v2_DepthDuration_HTML.html#89,89,1364,768,1364,768,8-21-2022,9-50-18,53,depth_duration_stimuli/002964_2014-06-08_17-46-11_094959634447_rgbf000091-resize_4/002964_2014-06-08_17-46-11_094959634447_rgbf000091-resize_4-target.png,125,1.6909999999999998,0,7973,121,meters,jsons/VE125_randls_34_rotated.json,1190618,1526632,26,Man
53,631173,DepthScenes,duration_manipulation_targetAtFixation,jsons/VE125_randls_34_rotated.json,http://54.235.29.9/FacialAge/BNav_EC2/DepthDuration/v2_depth_duration_MTurk/v2_DepthDuration_HTML.html#89,89,1364,768,1364,768,8-21-2022,9-50-18,54,depth_duration_stimuli/000137_2014-05-20_17-04-49_260595134347_rgbf000120-resize_1/000137_2014-05-20_17-04-49_260595134347_rgbf000120-resize_1-target.png,125,3.786,1,9436,124,meters,jsons/VE125_randls_34_rotated.json,1190618,1526632,26,Man
54,631173,DepthScenes,duration_manipulation_targetAtFixation,jsons/VE125_randls_34_rotated.json,http://54.235.29.9/FacialAge/BNav_EC2/DepthDuration/v2_depth_duration_MTurk/v2_DepthDuration_HTML.html#89,89,1364,768,1364,768,8-21-2022,9-50-18,55,depth_duration_stimuli/000736_2014-06-08_18-24-15_260595134347_rgbf000206-resize_3/000736_2014-06-08_18-24-15_260595134347_rgbf000206-resize_3-target.png,125,3.515,0,3886,181,meters,jsons/VE125_randls_34_rotated.json,1190618,1526632,26,Man
55,631173,DepthScenes,duration_manipulation_targetAtFixation,jsons/VE125_randls_34_rotated.json,http://54.235.29.9/FacialAge/BNav_EC2/DepthDuration/v2_depth_duration_MTurk/v2_DepthDuration_HTML.html#89,89,1364,768,1364,768,8-21-2022,9-50-18,56,depth_duration_stimuli/002750_2014-06-22_19-08-03_094959634447_rgbf000094-resize_4/002750_2014-06-22_19-08-03_094959634447_rgbf000094-resize_4-target.png,125,2.354,1,4495,124,meters,jsons/VE125_randls_34_rotated.json,1190618,1526632,26,Man
56,631173,DepthScenes,duration_manipulation_targetAtFixation,jsons/VE125_randls_34_rotated.json,http://54.235.29.9/FacialAge/BNav_EC2/DepthDuration/v2_depth_duration_MTurk/v2_DepthDuration_HTML.html#89,89,1364,768,1364,768,8-21-2022,9-50-18,57,depth_duration_stimuli/002549_2014-06-24_13-41-39_094959634447_rgbf000022-resize_3/002549_2014-06-24_13-41-39_094959634447_rgbf000022-resize_3-target.png,125,1.476,0,20655,121,meters,jsons/VE125_randls_34_rotated.json,1190618,1526632,26,Man
57,631173,DepthScenes,duration_manipulation_targetAtFixation,jsons/VE125_randls_34_rotated.json,http://54.235.29.9/FacialAge/BNav_EC2/DepthDuration/v2_depth_duration_MTurk/v2_DepthDuration_HTML.html#89,89,1364,768,1364,768,8-21-2022,9-50-18,58,depth_duration_stimuli/000927_2014-06-09_16-32-30_260595134347_rgbf000123-resize_3/000927_2014-06-09_16-32-30_260595134347_rgbf000123-resize_3-target.png,125,2.6785,0,27392,124,meters,jsons/VE125_randls_34_rotated.json,1190618,1526632,26,Man
58,631173,DepthScenes,duration_manipulation_targetAtFixation,jsons/VE125_randls_34_rotated.json,http://54.235.29.9/FacialAge/BNav_EC2/DepthDuration/v2_depth_duration_MTurk/v2_DepthDuration_HTML.html#89,89,1364,768,1364,768,8-21-2022,9-50-18,59,depth_duration_stimuli/001110_2014-06-15_17-25-28_260595134347_rgbf000150-resize_1/001110_2014-06-15_17-25-28_260595134347_rgbf000150-resize_1-target.png,125,1.7115,1,19462,123,meters,jsons/VE125_randls_34_rotated.json,1190618,1526632,26,Man
59,631173,DepthScenes,duration_manipulation_targetAtFixation,jsons/VE125_randls_34_rotated.json,http://54.235.29.9/FacialAge/BNav_EC2/DepthDuration/v2_depth_duration_MTurk/v2_DepthDuration_HTML.html#89,89,1364,768,1364,768,8-21-2022,9-50-18,60,depth_duration_stimuli/003010_2014-06-15_12-54-35_094959634447_rgbf000112-resize_0/003010_2014-06-15_12-54-35_094959634447_rgbf000112-resize_0-target.png,125,3.1185,1,3435,113,meters,jsons/VE125_randls_34_rotated.json,1190618,1526632,26,Man
60,631173,DepthScenes,duration_manipulation_targetAtFixation,jsons/VE125_randls_34_rotated.json,http://54.235.29.9/FacialAge/BNav_EC2/DepthDuration/v2_depth_duration_MTurk/v2_DepthDuration_HTML.html#89,89,1364,768,1364,768,8-21-2022,9-50-18,61,depth_duration_stimuli/001810_2014-06-26_20-51-35_260595134347_rgbf000040-resize_3/001810_2014-06-26_20-51-35_260595134347_rgbf000040-resize_3-target.png,125,2.2525,0,3128,123,meters,jsons/VE125_randls_34_rotated.json,1190618,1526632,26,Man
61,631173,DepthScenes,duration_manipulation_targetAtFixation,jsons/VE125_randls_34_rotated.json,http://54.235.29.9/FacialAge/BNav_EC2/DepthDuration/v2_depth_duration_MTurk/v2_DepthDuration_HTML.html#89,89,1364,768,1364,768,8-21-2022,9-50-18,62,depth_duration_stimuli/002995_2014-06-15_12-31-26_094959634447_rgbf000150-resize_1/002995_2014-06-15_12-31-26_094959634447_rgbf000150-resize_1-target.png,125,3.8360000000000003,0,4482,234,meters,jsons/VE125_randls_34_rotated.json,1190618,1526632,26,Man
62,631173,DepthScenes,duration_manipulation_targetAtFixation,jsons/VE125_randls_34_rotated.json,http://54.235.29.9/FacialAge/BNav_EC2/DepthDuration/v2_depth_duration_MTurk/v2_DepthDuration_HTML.html#89,89,1364,768,1364,768,8-21-2022,9-50-18,63,depth_duration_stimuli/002748_2014-06-22_19-07-22_094959634447_rgbf000078-resize_1/002748_2014-06-22_19-07-22_094959634447_rgbf000078-resize_1-target.png,125,4.6705,1,3593,123,meters,jsons/VE125_randls_34_rotated.json,1190618,1526632,26,Man
63,631173,DepthScenes,duration_manipulation_targetAtFixation,jsons/VE125_randls_34_rotated.json,http://54.235.29.9/FacialAge/BNav_EC2/DepthDuration/v2_depth_duration_MTurk/v2_DepthDuration_HTML.html#89,89,1364,768,1364,768,8-21-2022,9-50-18,64,depth_duration_stimuli/002103_2014-06-25_20-00-40_260595134347_rgbf000049-resize_0/002103_2014-06-25_20-00-40_260595134347_rgbf000049-resize_0-target.png,125,4.105,0,5529,124,meters,jsons/VE125_randls_34_rotated.json,1190618,1526632,26,Man
64,631173,DepthScenes,duration_manipulation_targetAtFixation,jsons/VE125_randls_34_rotated.json,http://54.235.29.9/FacialAge/BNav_EC2/DepthDuration/v2_depth_duration_MTurk/v2_DepthDuration_HTML.html#89,89,1364,768,1364,768,8-21-2022,9-50-18,65,depth_duration_stimuli/002039_2014-06-24_20-22-38_260595134347_rgbf000084-resize_1/002039_2014-06-24_20-22-38_260595134347_rgbf000084-resize_1-target.png,125,4.408,1,3109,124,meters,jsons/VE125_randls_34_rotated.json,1190618,1526632,26,Man
65,631173,DepthScenes,duration_manipulation_targetAtFixation,jsons/VE125_randls_34_rotated.json,http://54.235.29.9/FacialAge/BNav_EC2/DepthDuration/v2_depth_duration_MTurk/v2_DepthDuration_HTML.html#89,89,1364,768,1364,768,8-21-2022,9-50-18,66,depth_duration_stimuli/001540_2014-06-20_17-01-05_260595134347_rgbf000086-resize_2/001540_2014-06-20_17-01-05_260595134347_rgbf000086-resize-original.jpg,125,1.459,0,28726,122,meters,jsons/VE125_randls_34_rotated.json,1190618,1526632,26,Man
66,631173,DepthScenes,duration_manipulation_targetAtFixation,jsons/VE125_randls_34_rotated.json,http://54.235.29.9/FacialAge/BNav_EC2/DepthDuration/v2_depth_duration_MTurk/v2_DepthDuration_HTML.html#89,89,1364,768,1364,768,8-21-2022,9-50-18,67,depth_duration_stimuli/000742_2014-06-08_18-48-09_260595134347_rgbf000164-resize_4/000742_2014-06-08_18-48-09_260595134347_rgbf000164-resize_4-target.png,125,4.632,1,4899,137,meters,jsons/VE125_randls_34_rotated.json,1190618,1526632,26,Man
67,631173,DepthScenes,duration_manipulation_targetAtFixation,jsons/VE125_randls_34_rotated.json,http://54.235.29.9/FacialAge/BNav_EC2/DepthDuration/v2_depth_duration_MTurk/v2_DepthDuration_HTML.html#89,89,1364,768,1364,768,8-21-2022,9-50-18,68,depth_duration_stimuli/001066_2014-06-08_22-03-20_260595134347_rgbf000066-resize_4/001066_2014-06-08_22-03-20_260595134347_rgbf000066-resize_4-target.png,125,4.2330000000000005,1,5920,124,meters,jsons/VE125_randls_34_rotated.json,1190618,1526632,26,Man
68,631173,DepthScenes,duration_manipulation_targetAtFixation,jsons/VE125_randls_34_rotated.json,http://54.235.29.9/FacialAge/BNav_EC2/DepthDuration/v2_depth_duration_MTurk/v2_DepthDuration_HTML.html#89,89,1364,768,1364,768,8-21-2022,9-50-18,69,depth_duration_stimuli/002199_2014-06-28_18-33-56_260595134347_rgbf000074-resize_0/002199_2014-06-28_18-33-56_260595134347_rgbf000074-resize_0-target.png,125,1.996,0,6400,122,meters,jsons/VE125_randls_34_rotated.json,1190618,1526632,26,Man
69,631173,DepthScenes,duration_manipulation_targetAtFixation,jsons/VE125_randls_34_rotated.json,http://54.235.29.9/FacialAge/BNav_EC2/DepthDuration/v2_depth_duration_MTurk/v2_DepthDuration_HTML.html#89,89,1364,768,1364,768,8-21-2022,9-50-18,70,depth_duration_stimuli/001056_2014-06-08_18-46-44_260595134347_rgbf000068-resize_0/001056_2014-06-08_18-46-44_260595134347_rgbf000068-resize_0-target.png,125,2.6625,1,3775,125,meters,jsons/VE125_randls_34_rotated.json,1190618,1526632,26,Man
70,631173,DepthScenes,duration_manipulation_targetAtFixation,jsons/VE125_randls_34_rotated.json,http://54.235.29.9/FacialAge/BNav_EC2/DepthDuration/v2_depth_duration_MTurk/v2_DepthDuration_HTML.html#89,89,1364,768,1364,768,8-21-2022,9-50-18,71,depth_duration_stimuli/002805_2014-06-22_19-54-03_094959634447_rgbf000079-resize_1/002805_2014-06-22_19-54-03_094959634447_rgbf000079-resize_1-target.png,125,3.1439999999999997,0,3616,123,meters,jsons/VE125_randls_34_rotated.json,1190618,1526632,26,Man
71,631173,DepthScenes,duration_manipulation_targetAtFixation,jsons/VE125_randls_34_rotated.json,http://54.235.29.9/FacialAge/BNav_EC2/DepthDuration/v2_depth_duration_MTurk/v2_DepthDuration_HTML.html#89,89,1364,768,1364,768,8-21-2022,9-50-18,72,depth_duration_stimuli/000906_2014-06-08_13-35-43_260595134347_rgbf000155-resize_1/000906_2014-06-08_13-35-43_260595134347_rgbf000155-resize_1-target.png,125,2.8489999999999998,1,3529,181,meters,jsons/VE125_randls_34_rotated.json,1190618,1526632,26,Man
72,631173,DepthScenes,duration_manipulation_targetAtFixation,jsons/VE125_randls_34_rotated.json,http://54.235.29.9/FacialAge/BNav_EC2/DepthDuration/v2_depth_duration_MTurk/v2_DepthDuration_HTML.html#89,89,1364,768,1364,768,8-21-2022,9-50-18,73,depth_duration_stimuli/003338_2014-05-20_11-01-23_094959634447_rgbf000051-resize_6/003338_2014-05-20_11-01-23_094959634447_rgbf000051-resize_6-target.png,125,1.693,0,17649,125,meters,jsons/VE125_randls_34_rotated.json,1190618,1526632,26,Man
73,631173,DepthScenes,duration_manipulation_targetAtFixation,jsons/VE125_randls_34_rotated.json,http://54.235.29.9/FacialAge/BNav_EC2/DepthDuration/v2_depth_duration_MTurk/v2_DepthDuration_HTML.html#89,89,1364,768,1364,768,8-21-2022,9-50-18,74,depth_duration_stimuli/002509_2014-06-24_13-19-22_094959634447_rgbf000077-resize_0/002509_2014-06-24_13-19-22_094959634447_rgbf000077-resize_0-target.png,125,1.3065,1,3475,124,meters,jsons/VE125_randls_34_rotated.json,1190618,1526632,26,Man
74,631173,DepthScenes,duration_manipulation_targetAtFixation,jsons/VE125_randls_34_rotated.json,http://54.235.29.9/FacialAge/BNav_EC2/DepthDuration/v2_depth_duration_MTurk/v2_DepthDuration_HTML.html#89,89,1364,768,1364,768,8-21-2022,9-50-18,75,depth_duration_stimuli/003490_2014-05-21_15-50-11_094959634447_rgbf000101-resize_3/003490_2014-05-21_15-50-11_094959634447_rgbf000101-resize_3-target.png,125,3.6445,1,4063,123,meters,jsons/VE125_randls_34_rotated.json,1190618,1526632,26,Man
75,631173,DepthScenes,duration_manipulation_targetAtFixation,jsons/VE125_randls_34_rotated.json,http://54.235.29.9/FacialAge/BNav_EC2/DepthDuration/v2_depth_duration_MTurk/v2_DepthDuration_HTML.html#89,89,1364,768,1364,768,8-21-2022,9-50-18,76,depth_duration_stimuli/001175_2014-06-17_15-45-55_260595134347_rgbf000129-resize_4/001175_2014-06-17_15-45-55_260595134347_rgbf000129-resize_4-target.png,125,4.255,1,3704,119,meters,jsons/VE125_randls_34_rotated.json,1190618,1526632,26,Man
76,631173,DepthScenes,duration_manipulation_targetAtFixation,jsons/VE125_randls_34_rotated.json,http://54.235.29.9/FacialAge/BNav_EC2/DepthDuration/v2_depth_duration_MTurk/v2_DepthDuration_HTML.html#89,89,1364,768,1364,768,8-21-2022,9-50-18,77,depth_duration_stimuli/003423_2014-05-21_10-23-26_094959634447_rgbf002665-resize_2/003423_2014-05-21_10-23-26_094959634447_rgbf002665-resize_2-target.png,125,3.2575,0,3188,123,meters,jsons/VE125_randls_34_rotated.json,1190618,1526632,26,Man
77,631173,DepthScenes,duration_manipulation_targetAtFixation,jsons/VE125_randls_34_rotated.json,http://54.235.29.9/FacialAge/BNav_EC2/DepthDuration/v2_depth_duration_MTurk/v2_DepthDuration_HTML.html#89,89,1364,768,1364,768,8-21-2022,9-50-18,78,depth_duration_stimuli/002905_2014-06-03_18-04-43_094959634447_rgbf000151-resize_2/002905_2014-06-03_18-04-43_094959634447_rgbf000151-resize_2-target.png,125,2.0295,0,3082,127,meters,jsons/VE125_randls_34_rotated.json,1190618,1526632,26,Man
78,631173,DepthScenes,duration_manipulation_targetAtFixation,jsons/VE125_randls_34_rotated.json,http://54.235.29.9/FacialAge/BNav_EC2/DepthDuration/v2_depth_duration_MTurk/v2_DepthDuration_HTML.html#89,89,1364,768,1364,768,8-21-2022,9-50-18,79,depth_duration_stimuli/000635_2014-06-08_16-38-42_260595134347_rgbf000106-resize_1/000635_2014-06-08_16-38-42_260595134347_rgbf000106-resize_1-target.png,125,2.074,1,3116,122,meters,jsons/VE125_randls_34_rotated.json,1190618,1526632,26,Man
79,631173,DepthScenes,duration_manipulation_targetAtFixation,jsons/VE125_randls_34_rotated.json,http://54.235.29.9/FacialAge/BNav_EC2/DepthDuration/v2_depth_duration_MTurk/v2_DepthDuration_HTML.html#89,89,1364,768,1364,768,8-21-2022,9-50-18,80,depth_duration_stimuli/002279_2014-06-28_18-55-32_260595134347_rgbf000040-resize_5/002279_2014-06-28_18-55-32_260595134347_rgbf000040-resize_5-target.png,125,1.5043333333333,0,3404,125,meters,jsons/VE125_randls_34_rotated.json,1190618,1526632,26,Man
80,631173,DepthScenes,duration_manipulation_targetAtFixation,jsons/VE125_randls_34_rotated.json,http://54.235.29.9/FacialAge/BNav_EC2/DepthDuration/v2_depth_duration_MTurk/v2_DepthDuration_HTML.html#89,89,1364,768,1364,768,8-21-2022,9-50-18,81,depth_duration_stimuli/001828_2014-06-26_21-40-03_260595134347_rgbf000024-resize_0/001828_2014-06-26_21-40-03_260595134347_rgbf000024-resize_0-target.png,125,4.8260000000000005,0,32215,125,meters,jsons/VE125_randls_34_rotated.json,1190618,1526632,26,Man
81,631173,DepthScenes,duration_manipulation_targetAtFixation,jsons/VE125_randls_34_rotated.json,http://54.235.29.9/FacialAge/BNav_EC2/DepthDuration/v2_depth_duration_MTurk/v2_DepthDuration_HTML.html#89,89,1364,768,1364,768,8-21-2022,9-50-18,82,depth_duration_stimuli/000009_2014-05-26_14-32-05_260595134347_rgbf000034-resize_3/000009_2014-05-26_14-32-05_260595134347_rgbf000034-resize_3-target.png,125,3.8715,0,3150,111,meters,jsons/VE125_randls_34_rotated.json,1190618,1526632,26,Man
82,631173,DepthScenes,duration_manipulation_targetAtFixation,jsons/VE125_randls_34_rotated.json,http://54.235.29.9/FacialAge/BNav_EC2/DepthDuration/v2_depth_duration_MTurk/v2_DepthDuration_HTML.html#89,89,1364,768,1364,768,8-21-2022,9-50-18,83,depth_duration_stimuli/001584_2014-06-20_11-07-43_260595134347_rgbf000002-resize_1/001584_2014-06-20_11-07-43_260595134347_rgbf000002-resize_1-target.png,125,3.53,0,3185,123,meters,jsons/VE125_randls_34_rotated.json,1190618,1526632,26,Man
83,631173,DepthScenes,duration_manipulation_targetAtFixation,jsons/VE125_randls_34_rotated.json,http://54.235.29.9/FacialAge/BNav_EC2/DepthDuration/v2_depth_duration_MTurk/v2_DepthDuration_HTML.html#89,89,1364,768,1364,768,8-21-2022,9-50-18,84,depth_duration_stimuli/003621_2014-05-23_18-06-08_094959634447_rgbf000101-resize_1/003621_2014-05-23_18-06-08_094959634447_rgbf000101-resize_1-target.png,125,3.9835,0,3898,131,meters,jsons/VE125_randls_34_rotated.json,1190618,1526632,26,Man
84,631173,DepthScenes,duration_manipulation_targetAtFixation,jsons/VE125_randls_34_rotated.json,http://54.235.29.9/FacialAge/BNav_EC2/DepthDuration/v2_depth_duration_MTurk/v2_DepthDuration_HTML.html#89,89,1364,768,1364,768,8-21-2022,9-50-18,85,depth_duration_stimuli/001650_2014-06-20_12-09-00_260595134347_rgbf000087-resize_3/001650_2014-06-20_12-09-00_260595134347_rgbf000087-resize_3-target.png,125,1.9505,0,3370,124,meters,jsons/VE125_randls_34_rotated.json,1190618,1526632,26,Man
85,631173,DepthScenes,duration_manipulation_targetAtFixation,jsons/VE125_randls_34_rotated.json,http://54.235.29.9/FacialAge/BNav_EC2/DepthDuration/v2_depth_duration_MTurk/v2_DepthDuration_HTML.html#89,89,1364,768,1364,768,8-21-2022,9-50-18,86,depth_duration_stimuli/000682_2014-06-08_23-14-58_260595134347_rgbf000041-resize_5/000682_2014-06-08_23-14-58_260595134347_rgbf000041-resize_5-target.png,125,2.7239999999999998,1,4327,127,meters,jsons/VE125_randls_34_rotated.json,1190618,1526632,26,Man
86,631173,DepthScenes,duration_manipulation_targetAtFixation,jsons/VE125_randls_34_rotated.json,http://54.235.29.9/FacialAge/BNav_EC2/DepthDuration/v2_depth_duration_MTurk/v2_DepthDuration_HTML.html#89,89,1364,768,1364,768,8-21-2022,9-50-18,87,depth_duration_stimuli/002660_2014-06-13_15-44-18_094959634447_rgbf001878-resize_2/002660_2014-06-13_15-44-18_094959634447_rgbf001878-resize_2-target.png,125,3.576,1,3581,117,meters,jsons/VE125_randls_34_rotated.json,1190618,1526632,26,Man
87,631173,DepthScenes,duration_manipulation_targetAtFixation,jsons/VE125_randls_34_rotated.json,http://54.235.29.9/FacialAge/BNav_EC2/DepthDuration/v2_depth_duration_MTurk/v2_DepthDuration_HTML.html#89,89,1364,768,1364,768,8-21-2022,9-50-18,88,depth_duration_stimuli/002153_2014-06-25_21-27-18_260595134347_rgbf000038-resize_5/002153_2014-06-25_21-27-18_260595134347_rgbf000038-resize_5-target.png,125,2.505,0,4376,127,meters,jsons/VE125_randls_34_rotated.json,1190618,1526632,26,Man
88,631173,DepthScenes,duration_manipulation_targetAtFixation,jsons/VE125_randls_34_rotated.json,http://54.235.29.9/FacialAge/BNav_EC2/DepthDuration/v2_depth_duration_MTurk/v2_DepthDuration_HTML.html#89,89,1364,768,1364,768,8-21-2022,9-50-18,89,depth_duration_stimuli/000780_2014-06-08_22-28-29_260595134347_rgbf000126-resize_1/000780_2014-06-08_22-28-29_260595134347_rgbf000126-resize_1-target.png,125,3.3825,1,6602,122,meters,jsons/VE125_randls_34_rotated.json,1190618,1526632,26,Man
89,631173,DepthScenes,duration_manipulation_targetAtFixation,jsons/VE125_randls_34_rotated.json,http://54.235.29.9/FacialAge/BNav_EC2/DepthDuration/v2_depth_duration_MTurk/v2_DepthDuration_HTML.html#89,89,1364,768,1364,768,8-21-2022,9-50-18,90,depth_duration_stimuli/002445_2014-06-28_20-32-16_260595134347_rgbf000029-resize_4/002445_2014-06-28_20-32-16_260595134347_rgbf000029-resize_4-target.png,125,2.5315,0,5762,123,meters,jsons/VE125_randls_34_rotated.json,1190618,1526632,26,Man
90,631173,DepthScenes,duration_manipulation_targetAtFixation,jsons/VE125_randls_34_rotated.json,http://54.235.29.9/FacialAge/BNav_EC2/DepthDuration/v2_depth_duration_MTurk/v2_DepthDuration_HTML.html#89,89,1364,768,1364,768,8-21-2022,9-50-18,91,depth_duration_stimuli/002678_2014-06-13_16-15-32_094959634447_rgbf000151-resize_6/002678_2014-06-13_16-15-32_094959634447_rgbf000151-resize_6-target.png,125,2.1830000000000003,1,3787,125,meters,jsons/VE125_randls_34_rotated.json,1190618,1526632,26,Man
91,631173,DepthScenes,duration_manipulation_targetAtFixation,jsons/VE125_randls_34_rotated.json,http://54.235.29.9/FacialAge/BNav_EC2/DepthDuration/v2_depth_duration_MTurk/v2_DepthDuration_HTML.html#89,89,1364,768,1364,768,8-21-2022,9-50-18,92,depth_duration_stimuli/000368_2014-06-09_15-53-01_260595134347_rgbf000155-resize_2/000368_2014-06-09_15-53-01_260595134347_rgbf000155-resize_2-target.png,125,2.4859999999999998,0,4030,125,meters,jsons/VE125_randls_34_rotated.json,1190618,1526632,26,Man
92,631173,DepthScenes,duration_manipulation_targetAtFixation,jsons/VE125_randls_34_rotated.json,http://54.235.29.9/FacialAge/BNav_EC2/DepthDuration/v2_depth_duration_MTurk/v2_DepthDuration_HTML.html#89,89,1364,768,1364,768,8-21-2022,9-50-18,93,depth_duration_stimuli/003079_2014-06-15_15-18-20_094959634447_rgbf000152-resize_8/003079_2014-06-15_15-18-20_094959634447_rgbf000152-resize_8-target.png,125,2.8775,1,4009,138,meters,jsons/VE125_randls_34_rotated.json,1190618,1526632,26,Man
93,631173,DepthScenes,duration_manipulation_targetAtFixation,jsons/VE125_randls_34_rotated.json,http://54.235.29.9/FacialAge/BNav_EC2/DepthDuration/v2_depth_duration_MTurk/v2_DepthDuration_HTML.html#89,89,1364,768,1364,768,8-21-2022,9-50-18,94,depth_duration_stimuli/000506_2014-06-08_23-21-00_260595134347_rgbf000070-resize_7/000506_2014-06-08_23-21-00_260595134347_rgbf000070-resize_7-target.png,125,4.0585,0,3696,130,meters,jsons/VE125_randls_34_rotated.json,1190618,1526632,26,Man
94,631173,DepthScenes,duration_manipulation_targetAtFixation,jsons/VE125_randls_34_rotated.json,http://54.235.29.9/FacialAge/BNav_EC2/DepthDuration/v2_depth_duration_MTurk/v2_DepthDuration_HTML.html#89,89,1364,768,1364,768,8-21-2022,9-50-18,95,depth_duration_stimuli/000549_2014-06-08_22-10-24_260595134347_rgbf000247-resize_3/000549_2014-06-08_22-10-24_260595134347_rgbf000247-resize_3-target.png,125,1.841,0,3348,128,meters,jsons/VE125_randls_34_rotated.json,1190618,1526632,26,Man
95,631173,DepthScenes,duration_manipulation_targetAtFixation,jsons/VE125_randls_34_rotated.json,http://54.235.29.9/FacialAge/BNav_EC2/DepthDuration/v2_depth_duration_MTurk/v2_DepthDuration_HTML.html#89,89,1364,768,1364,768,8-21-2022,9-50-18,96,depth_duration_stimuli/001055_2014-06-08_18-45-35_260595134347_rgbf000111-resize_4/001055_2014-06-08_18-45-35_260595134347_rgbf000111-resize_4-target.png,125,2.4290000000000003,1,4129,125,meters,jsons/VE125_randls_34_rotated.json,1190618,1526632,26,Man
96,631173,DepthScenes,duration_manipulation_targetAtFixation,jsons/VE125_randls_34_rotated.json,http://54.235.29.9/FacialAge/BNav_EC2/DepthDuration/v2_depth_duration_MTurk/v2_DepthDuration_HTML.html#89,89,1364,768,1364,768,8-21-2022,9-50-18,97,depth_duration_stimuli/000749_2014-06-08_21-55-06_260595134347_rgbf000070-resize_2/000749_2014-06-08_21-55-06_260595134347_rgbf000070-resize_2-target.png,125,2.331,1,3650,123,meters,jsons/VE125_randls_34_rotated.json,1190618,1526632,26,Man
97,631173,DepthScenes,duration_manipulation_targetAtFixation,jsons/VE125_randls_34_rotated.json,http://54.235.29.9/FacialAge/BNav_EC2/DepthDuration/v2_depth_duration_MTurk/v2_DepthDuration_HTML.html#89,89,1364,768,1364,768,8-21-2022,9-50-18,98,depth_duration_stimuli/002788_2014-06-22_19-36-03_094959634447_rgbf000088-resize_2/002788_2014-06-22_19-36-03_094959634447_rgbf000088-resize_2-target.png,125,1.6465,0,3340,122,meters,jsons/VE125_randls_34_rotated.json,1190618,1526632,26,Man
98,631173,DepthScenes,duration_manipulation_targetAtFixation,jsons/VE125_randls_34_rotated.json,http://54.235.29.9/FacialAge/BNav_EC2/DepthDuration/v2_depth_duration_MTurk/v2_DepthDuration_HTML.html#89,89,1364,768,1364,768,8-21-2022,9-50-18,99,depth_duration_stimuli/001222_2014-06-17_16-24-06_260595134347_rgbf000073-resize_0/001222_2014-06-17_16-24-06_260595134347_rgbf000073-resize-original.jpg,125,1.4385,0,4119,121,meters,jsons/VE125_randls_34_rotated.json,1190618,1526632,26,Man
99,631173,DepthScenes,duration_manipulation_targetAtFixation,jsons/VE125_randls_34_rotated.json,http://54.235.29.9/FacialAge/BNav_EC2/DepthDuration/v2_depth_duration_MTurk/v2_DepthDuration_HTML.html#89,89,1364,768,1364,768,8-21-2022,9-50-18,100,depth_duration_stimuli/000502_2014-06-08_23-02-32_260595134347_rgbf000063-resize_4/000502_2014-06-08_23-02-32_260595134347_rgbf000063-resize_4-target.png,125,2.431,0,3882,211,meters,jsons/VE125_randls_34_rotated.json,1190618,1526632,26,Man
100,631173,DepthScenes,duration_manipulation_targetAtFixation,jsons/VE125_randls_34_rotated.json,http://54.235.29.9/FacialAge/BNav_EC2/DepthDuration/v2_depth_duration_MTurk/v2_DepthDuration_HTML.html#89,89,1364,768,1364,768,8-21-2022,9-50-18,101,depth_duration_stimuli/001199_2014-06-17_16-03-48_260595134347_rgbf000077-resize_0/001199_2014-06-17_16-03-48_260595134347_rgbf000077-resize_0-target.png,125,3.4375,1,8689,125,meters,jsons/VE125_randls_34_rotated.json,1190618,1526632,26,Man
101,631173,DepthScenes,duration_manipulation_targetAtFixation,jsons/VE125_randls_34_rotated.json,http://54.235.29.9/FacialAge/BNav_EC2/DepthDuration/v2_depth_duration_MTurk/v2_DepthDuration_HTML.html#89,89,1364,768,1364,768,8-21-2022,9-50-18,102,depth_duration_stimuli/002545_2014-06-24_13-38-53_094959634447_rgbf000080-resize_4/002545_2014-06-24_13-38-53_094959634447_rgbf000080-resize_4-target.png,125,1.9205,1,3128,120,meters,jsons/VE125_randls_34_rotated.json,1190618,1526632,26,Man
102,631173,DepthScenes,duration_manipulation_targetAtFixation,jsons/VE125_randls_34_rotated.json,http://54.235.29.9/FacialAge/BNav_EC2/DepthDuration/v2_depth_duration_MTurk/v2_DepthDuration_HTML.html#89,89,1364,768,1364,768,8-21-2022,9-50-18,103,depth_duration_stimuli/001092_2014-06-15_17-34-58_260595134347_rgbf000171-resize_3/001092_2014-06-15_17-34-58_260595134347_rgbf000171-resize_3-target.png,125,2.6935,0,6712,124,meters,jsons/VE125_randls_34_rotated.json,1190618,1526632,26,Man
103,631173,DepthScenes,duration_manipulation_targetAtFixation,jsons/VE125_randls_34_rotated.json,http://54.235.29.9/FacialAge/BNav_EC2/DepthDuration/v2_depth_duration_MTurk/v2_DepthDuration_HTML.html#89,89,1364,768,1364,768,8-21-2022,9-50-18,104,depth_duration_stimuli/001815_2014-06-26_20-52-55_260595134347_rgbf000020-resize_0/001815_2014-06-26_20-52-55_260595134347_rgbf000020-resize_0-target.png,125,3.3865,1,4552,123,meters,jsons/VE125_randls_34_rotated.json,1190618,1526632,26,Man
104,631173,DepthScenes,duration_manipulation_targetAtFixation,jsons/VE125_randls_34_rotated.json,http://54.235.29.9/FacialAge/BNav_EC2/DepthDuration/v2_depth_duration_MTurk/v2_DepthDuration_HTML.html#89,89,1364,768,1364,768,8-21-2022,9-50-18,105,depth_duration_stimuli/001808_2014-06-26_20-50-58_260595134347_rgbf000029-resize_1/001808_2014-06-26_20-50-58_260595134347_rgbf000029-resize_1-target.png,125,4.249,1,6097,114,meters,jsons/VE125_randls_34_rotated.json,1190618,1526632,26,Man
105,631173,DepthScenes,duration_manipulation_targetAtFixation,jsons/VE125_randls_34_rotated.json,http://54.235.29.9/FacialAge/BNav_EC2/DepthDuration/v2_depth_duration_MTurk/v2_DepthDuration_HTML.html#89,89,1364,768,1364,768,8-21-2022,9-50-18,106,depth_duration_stimuli/002340_2014-06-28_20-05-46_260595134347_rgbf000113-resize_0/002340_2014-06-28_20-05-46_260595134347_rgbf000113-resize_0-target.png,125,2.4735,1,3857,134,meters,jsons/VE125_randls_34_rotated.json,1190618,1526632,26,Man
106,631173,DepthScenes,duration_manipulation_targetAtFixation,jsons/VE125_randls_34_rotated.json,http://54.235.29.9/FacialAge/BNav_EC2/DepthDuration/v2_depth_duration_MTurk/v2_DepthDuration_HTML.html#89,89,1364,768,1364,768,8-21-2022,9-50-18,107,depth_duration_stimuli/001016_2014-06-09_16-16-10_260595134347_rgbf000112-resize_5/001016_2014-06-09_16-16-10_260595134347_rgbf000112-resize_5-target.png,125,1.6565,1,3533,125,meters,jsons/VE125_randls_34_rotated.json,1190618,1526632,26,Man
107,631173,DepthScenes,duration_manipulation_targetAtFixation,jsons/VE125_randls_34_rotated.json,http://54.235.29.9/FacialAge/BNav_EC2/DepthDuration/v2_depth_duration_MTurk/v2_DepthDuration_HTML.html#89,89,1364,768,1364,768,8-21-2022,9-50-18,108,depth_duration_stimuli/002875_2014-06-01_15-19-00_094959634447_rgbf000151-resize_1/002875_2014-06-01_15-19-00_094959634447_rgbf000151-resize_1-target.png,125,1.9675,0,3262,123,meters,jsons/VE125_randls_34_rotated.json,1190618,1526632,26,Man
108,631173,DepthScenes,duration_manipulation_targetAtFixation,jsons/VE125_randls_34_rotated.json,http://54.235.29.9/FacialAge/BNav_EC2/DepthDuration/v2_depth_duration_MTurk/v2_DepthDuration_HTML.html#89,89,1364,768,1364,768,8-21-2022,9-50-18,109,depth_duration_stimuli/001011_2014-06-08_23-18-54_260595134347_rgbf000044-resize_4/001011_2014-06-08_23-18-54_260595134347_rgbf000044-resize_4-target.png,125,2.4730000000000003,1,2779,127,meters,jsons/VE125_randls_34_rotated.json,1190618,1526632,26,Man
109,631173,DepthScenes,duration_manipulation_targetAtFixation,jsons/VE125_randls_34_rotated.json,http://54.235.29.9/FacialAge/BNav_EC2/DepthDuration/v2_depth_duration_MTurk/v2_DepthDuration_HTML.html#89,89,1364,768,1364,768,8-21-2022,9-50-18,110,depth_duration_stimuli/002568_2014-06-24_13-59-21_094959634447_rgbf000062-resize_4/002568_2014-06-24_13-59-21_094959634447_rgbf000062-resize_4-target.png,125,3.015,1,3367,131,meters,jsons/VE125_randls_34_rotated.json,1190618,1526632,26,Man
110,631173,DepthScenes,duration_manipulation_targetAtFixation,jsons/VE125_randls_34_rotated.json,http://54.235.29.9/FacialAge/BNav_EC2/DepthDuration/v2_depth_duration_MTurk/v2_DepthDuration_HTML.html#89,89,1364,768,1364,768,8-21-2022,9-50-18,111,depth_duration_stimuli/003492_2014-05-21_15-50-55_094959634447_rgbf000828-resize_1/003492_2014-05-21_15-50-55_094959634447_rgbf000828-resize_1-target.png,125,4.06875,1,3323,139,meters,jsons/VE125_randls_34_rotated.json,1190618,1526632,26,Man
111,631173,DepthScenes,duration_manipulation_targetAtFixation,jsons/VE125_randls_34_rotated.json,http://54.235.29.9/FacialAge/BNav_EC2/DepthDuration/v2_depth_duration_MTurk/v2_DepthDuration_HTML.html#89,89,1364,768,1364,768,8-21-2022,9-50-18,112,depth_duration_stimuli/002323_2014-06-28_20-01-54_260595134347_rgbf000051-resize_4/002323_2014-06-28_20-01-54_260595134347_rgbf000051-resize_4-target.png,125,3.7310000000000003,0,3225,123,meters,jsons/VE125_randls_34_rotated.json,1190618,1526632,26,Man
112,631173,DepthScenes,duration_manipulation_targetAtFixation,jsons/VE125_randls_34_rotated.json,http://54.235.29.9/FacialAge/BNav_EC2/DepthDuration/v2_depth_duration_MTurk/v2_DepthDuration_HTML.html#89,89,1364,768,1364,768,8-21-2022,9-50-18,113,depth_duration_stimuli/000917_2014-06-09_22-45-29_260595134347_rgbf000149-resize_3/000917_2014-06-09_22-45-29_260595134347_rgbf000149-resize_3-target.png,125,4.1865,0,3739,123,meters,jsons/VE125_randls_34_rotated.json,1190618,1526632,26,Man
113,631173,DepthScenes,duration_manipulation_targetAtFixation,jsons/VE125_randls_34_rotated.json,http://54.235.29.9/FacialAge/BNav_EC2/DepthDuration/v2_depth_duration_MTurk/v2_DepthDuration_HTML.html#89,89,1364,768,1364,768,8-21-2022,9-50-18,114,depth_duration_stimuli/002467_2014-06-28_20-38-07_260595134347_rgbf000026-resize_2/002467_2014-06-28_20-38-07_260595134347_rgbf000026-resize_2-target.png,125,4.742,1,4074,94,meters,jsons/VE125_randls_34_rotated.json,1190618,1526632,26,Man
114,631173,DepthScenes,duration_manipulation_targetAtFixation,jsons/VE125_randls_34_rotated.json,http://54.235.29.9/FacialAge/BNav_EC2/DepthDuration/v2_depth_duration_MTurk/v2_DepthDuration_HTML.html#89,89,1364,768,1364,768,8-21-2022,9-50-18,115,depth_duration_stimuli/002570_2014-06-24_13-59-54_094959634447_rgbf000059-resize_0/002570_2014-06-24_13-59-54_094959634447_rgbf000059-resize_0-target.png,125,4.037,0,4660,123,meters,jsons/VE125_randls_34_rotated.json,1190618,1526632,26,Man
115,631173,DepthScenes,duration_manipulation_targetAtFixation,jsons/VE125_randls_34_rotated.json,http://54.235.29.9/FacialAge/BNav_EC2/DepthDuration/v2_depth_duration_MTurk/v2_DepthDuration_HTML.html#89,89,1364,768,1364,768,8-21-2022,9-50-18,116,depth_duration_stimuli/002639_2014-06-24_14-51-37_094959634447_rgbf000074-resize_4/002639_2014-06-24_14-51-37_094959634447_rgbf000074-resize_4-target.png,125,4.0375,1,4319,129,meters,jsons/VE125_randls_34_rotated.json,1190618,1526632,26,Man
116,631173,DepthScenes,duration_manipulation_targetAtFixation,jsons/VE125_randls_34_rotated.json,http://54.235.29.9/FacialAge/BNav_EC2/DepthDuration/v2_depth_duration_MTurk/v2_DepthDuration_HTML.html#89,89,1364,768,1364,768,8-21-2022,9-50-18,117,depth_duration_stimuli/003292_2014-05-14_21-53-49_094959634447_rgbf000100-resize_2/003292_2014-05-14_21-53-49_094959634447_rgbf000100-resize_2-target.png,125,3.4815,0,5396,123,meters,jsons/VE125_randls_34_rotated.json,1190618,1526632,26,Man
117,631173,DepthScenes,duration_manipulation_targetAtFixation,jsons/VE125_randls_34_rotated.json,http://54.235.29.9/FacialAge/BNav_EC2/DepthDuration/v2_depth_duration_MTurk/v2_DepthDuration_HTML.html#89,89,1364,768,1364,768,8-21-2022,9-50-18,118,depth_duration_stimuli/000943_2014-06-09_19-31-07_260595134347_rgbf000128-resize_1/000943_2014-06-09_19-31-07_260595134347_rgbf000128-resize_1-target.png,125,1.9765,1,3954,130,meters,jsons/VE125_randls_34_rotated.json,1190618,1526632,26,Man
118,631173,DepthScenes,duration_manipulation_targetAtFixation,jsons/VE125_randls_34_rotated.json,http://54.235.29.9/FacialAge/BNav_EC2/DepthDuration/v2_depth_duration_MTurk/v2_DepthDuration_HTML.html#89,89,1364,768,1364,768,8-21-2022,9-50-18,119,depth_duration_stimuli/003070_2014-06-15_14-58-27_094959634447_rgbf000150-resize_3/003070_2014-06-15_14-58-27_094959634447_rgbf000150-resize_3-target.png,125,2.9415,0,3509,124,meters,jsons/VE125_randls_34_rotated.json,1190618,1526632,26,Man
119,631173,DepthScenes,duration_manipulation_targetAtFixation,jsons/VE125_randls_34_rotated.json,http://54.235.29.9/FacialAge/BNav_EC2/DepthDuration/v2_depth_duration_MTurk/v2_DepthDuration_HTML.html#89,89,1364,768,1364,768,8-21-2022,9-50-18,120,depth_duration_stimuli/000787_2014-06-08_22-33-53_260595134347_rgbf000175-resize_1/000787_2014-06-08_22-33-53_260595134347_rgbf000175-resize-original.jpg,125,4.784,0,3675,124,meters,jsons/VE125_randls_34_rotated.json,1190618,1526632,26,Man
120,631173,DepthScenes,duration_manipulation_targetAtFixation,jsons/VE125_randls_34_rotated.json,http://54.235.29.9/FacialAge/BNav_EC2/DepthDuration/v2_depth_duration_MTurk/v2_DepthDuration_HTML.html#89,89,1364,768,1364,768,8-21-2022,9-50-18,121,depth_duration_stimuli/000866_2014-06-09_20-45-42_260595134347_rgbf000139-resize_1/000866_2014-06-09_20-45-42_260595134347_rgbf000139-resize_1-target.png,125,3.2155,1,6925,118,meters,jsons/VE125_randls_34_rotated.json,1190618,1526632,26,Man
121,631173,DepthScenes,duration_manipulation_targetAtFixation,jsons/VE125_randls_34_rotated.json,http://54.235.29.9/FacialAge/BNav_EC2/DepthDuration/v2_depth_duration_MTurk/v2_DepthDuration_HTML.html#89,89,1364,768,1364,768,8-21-2022,9-50-18,122,depth_duration_stimuli/002989_2014-06-15_12-25-03_094959634447_rgbf000150-resize_3/002989_2014-06-15_12-25-03_094959634447_rgbf000150-resize_3-target.png,125,4.1975,0,3770,123,meters,jsons/VE125_randls_34_rotated.json,1190618,1526632,26,Man
122,631173,DepthScenes,duration_manipulation_targetAtFixation,jsons/VE125_randls_34_rotated.json,http://54.235.29.9/FacialAge/BNav_EC2/DepthDuration/v2_depth_duration_MTurk/v2_DepthDuration_HTML.html#89,89,1364,768,1364,768,8-21-2022,9-50-18,123,depth_duration_stimuli/001100_2014-06-15_17-46-26_260595134347_rgbf000225-resize_2/001100_2014-06-15_17-46-26_260595134347_rgbf000225-resize_2-target.png,125,2.24,1,6976,119,meters,jsons/VE125_randls_34_rotated.json,1190618,1526632,26,Man
123,631173,DepthScenes,duration_manipulation_targetAtFixation,jsons/VE125_randls_34_rotated.json,http://54.235.29.9/FacialAge/BNav_EC2/DepthDuration/v2_depth_duration_MTurk/v2_DepthDuration_HTML.html#89,89,1364,768,1364,768,8-21-2022,9-50-18,124,depth_duration_stimuli/002784_2014-06-22_19-26-30_094959634447_rgbf000083-resize_3/002784_2014-06-22_19-26-30_094959634447_rgbf000083-resize_3-target.png,125,1.8046666666667,0,3343,124,meters,jsons/VE125_randls_34_rotated.json,1190618,1526632,26,Man
124,631173,DepthScenes,duration_manipulation_targetAtFixation,jsons/VE125_randls_34_rotated.json,http://54.235.29.9/FacialAge/BNav_EC2/DepthDuration/v2_depth_duration_MTurk/v2_DepthDuration_HTML.html#89,89,1364,768,1364,768,8-21-2022,9-50-18,125,depth_duration_stimuli/000483_2014-06-09_20-41-45_260595134347_rgbf000116-resize_4/000483_2014-06-09_20-41-45_260595134347_rgbf000116-resize_4-target.png,125,1.337,0,2862,125,meters,jsons/VE125_randls_34_rotated.json,1190618,1526632,26,Man
125,631173,DepthScenes,duration_manipulation_targetAtFixation,jsons/VE125_randls_34_rotated.json,http://54.235.29.9/FacialAge/BNav_EC2/DepthDuration/v2_depth_duration_MTurk/v2_DepthDuration_HTML.html#89,89,1364,768,1364,768,8-21-2022,9-50-18,126,depth_duration_stimuli/000469_2014-06-09_19-42-10_260595134347_rgbf000081-resize_1/000469_2014-06-09_19-42-10_260595134347_rgbf000081-resize_1-target.png,125,1.652,1,9701,122,meters,jsons/VE125_randls_34_rotated.json,1190618,1526632,26,Man
126,631173,DepthScenes,duration_manipulation_targetAtFixation,jsons/VE125_randls_34_rotated.json,http://54.235.29.9/FacialAge/BNav_EC2/DepthDuration/v2_depth_duration_MTurk/v2_DepthDuration_HTML.html#89,89,1364,768,1364,768,8-21-2022,9-50-18,127,depth_duration_stimuli/000109_2014-05-14_23-41-52_260595134347_rgbf000035-resize_9/000109_2014-05-14_23-41-52_260595134347_rgbf000035-resize_9-target.png,125,1.3545,0,3374,123,meters,jsons/VE125_randls_34_rotated.json,1190618,1526632,26,Man
127,631173,DepthScenes,duration_manipulation_targetAtFixation,jsons/VE125_randls_34_rotated.json,http://54.235.29.9/FacialAge/BNav_EC2/DepthDuration/v2_depth_duration_MTurk/v2_DepthDuration_HTML.html#89,89,1364,768,1364,768,8-21-2022,9-50-18,128,depth_duration_stimuli/000470_2014-06-09_19-42-40_260595134347_rgbf000094-resize_1/000470_2014-06-09_19-42-40_260595134347_rgbf000094-resize_1-target.png,125,1.831,0,3959,111,meters,jsons/VE125_randls_34_rotated.json,1190618,1526632,26,Man
128,631173,DepthScenes,duration_manipulation_targetAtFixation,jsons/VE125_randls_34_rotated.json,http://54.235.29.9/FacialAge/BNav_EC2/DepthDuration/v2_depth_duration_MTurk/v2_DepthDuration_HTML.html#89,89,1364,768,1364,768,8-21-2022,9-50-18,129,depth_duration_stimuli/001132_2014-06-17_14-48-54_260595134347_rgbf000100-resize_2/001132_2014-06-17_14-48-54_260595134347_rgbf000100-resize_2-target.png,125,3.753,1,3784,125,meters,jsons/VE125_randls_34_rotated.json,1190618,1526632,26,Man
129,631173,DepthScenes,duration_manipulation_targetAtFixation,jsons/VE125_randls_34_rotated.json,http://54.235.29.9/FacialAge/BNav_EC2/DepthDuration/v2_depth_duration_MTurk/v2_DepthDuration_HTML.html#89,89,1364,768,1364,768,8-21-2022,9-50-18,130,depth_duration_stimuli/001133_2014-06-17_14-49-16_260595134347_rgbf000100-resize_0/001133_2014-06-17_14-49-16_260595134347_rgbf000100-resize_0-target.png,125,4.2115,0,5948,118,meters,jsons/VE125_randls_34_rotated.json,1190618,1526632,26,Man
130,631173,DepthScenes,duration_manipulation_targetAtFixation,jsons/VE125_randls_34_rotated.json,http://54.235.29.9/FacialAge/BNav_EC2/DepthDuration/v2_depth_duration_MTurk/v2_DepthDuration_HTML.html#89,89,1364,768,1364,768,8-21-2022,9-50-18,131,depth_duration_stimuli/001450_2014-06-19_17-02-03_260595134347_rgbf000203-resize_4/001450_2014-06-19_17-02-03_260595134347_rgbf000203-resize_4-target.png,125,4.0106666666667,0,3372,76,meters,jsons/VE125_randls_34_rotated.json,1190618,1526632,26,Man
131,631173,DepthScenes,duration_manipulation_targetAtFixation,jsons/VE125_randls_34_rotated.json,http://54.235.29.9/FacialAge/BNav_EC2/DepthDuration/v2_depth_duration_MTurk/v2_DepthDuration_HTML.html#89,89,1364,768,1364,768,8-21-2022,9-50-18,132,depth_duration_stimuli/001449_2014-06-19_17-01-27_260595134347_rgbf000116-resize_2/001449_2014-06-19_17-01-27_260595134347_rgbf000116-resize_2-target.png,125,3.452,1,3193,124,meters,jsons/VE125_randls_34_rotated.json,1190618,1526632,26,Man
132,631173,DepthScenes,duration_manipulation_targetAtFixation,jsons/VE125_randls_34_rotated.json,http://54.235.29.9/FacialAge/BNav_EC2/DepthDuration/v2_depth_duration_MTurk/v2_DepthDuration_HTML.html#89,89,1364,768,1364,768,8-21-2022,9-50-18,133,depth_duration_stimuli/003129_2014-05-12_10-48-10_094959634447_rgbf000100-resize_0/003129_2014-05-12_10-48-10_094959634447_rgbf000100-resize_0-target.png,125,4.9305,0,3741,124,meters,jsons/VE125_randls_34_rotated.json,1190618,1526632,26,Man
133,631173,DepthScenes,duration_manipulation_targetAtFixation,jsons/VE125_randls_34_rotated.json,http://54.235.29.9/FacialAge/BNav_EC2/DepthDuration/v2_depth_duration_MTurk/v2_DepthDuration_HTML.html#89,89,1364,768,1364,768,8-21-2022,9-50-18,134,depth_duration_stimuli/000414_2014-06-04_19-49-13_260595134347_rgbf000044-resize_0/000414_2014-06-04_19-49-13_260595134347_rgbf000044-resize_0-target.png,125,4.329,0,19988,126,meters,jsons/VE125_randls_34_rotated.json,1190618,1526632,26,Man
134,631173,DepthScenes,duration_manipulation_targetAtFixation,jsons/VE125_randls_34_rotated.json,http://54.235.29.9/FacialAge/BNav_EC2/DepthDuration/v2_depth_duration_MTurk/v2_DepthDuration_HTML.html#89,89,1364,768,1364,768,8-21-2022,9-50-18,135,depth_duration_stimuli/000375_2014-06-08_11-17-29_260595134347_rgbf000133-resize_2/000375_2014-06-08_11-17-29_260595134347_rgbf000133-resize-original.jpg,125,4.718,0,2563,125,meters,jsons/VE125_randls_34_rotated.json,1190618,1526632,26,Man
135,631173,DepthScenes,duration_manipulation_targetAtFixation,jsons/VE125_randls_34_rotated.json,http://54.235.29.9/FacialAge/BNav_EC2/DepthDuration/v2_depth_duration_MTurk/v2_DepthDuration_HTML.html#89,89,1364,768,1364,768,8-21-2022,9-50-18,136,depth_duration_stimuli/003587_2014-05-23_16-48-02_094959634447_rgbf002384-resize_2/003587_2014-05-23_16-48-02_094959634447_rgbf002384-resize_2-target.png,125,1.357,0,5985,129,meters,jsons/VE125_randls_34_rotated.json,1190618,1526632,26,Man
136,631173,DepthScenes,duration_manipulation_targetAtFixation,jsons/VE125_randls_34_rotated.json,http://54.235.29.9/FacialAge/BNav_EC2/DepthDuration/v2_depth_duration_MTurk/v2_DepthDuration_HTML.html#89,89,1364,768,1364,768,8-21-2022,9-50-18,137,depth_duration_stimuli/001167_2014-06-17_15-38-07_260595134347_rgbf000108-resize_0/001167_2014-06-17_15-38-07_260595134347_rgbf000108-resize_0-target.png,125,1.8505,0,2826,122,meters,jsons/VE125_randls_34_rotated.json,1190618,1526632,26,Man
137,631173,DepthScenes,duration_manipulation_targetAtFixation,jsons/VE125_randls_34_rotated.json,http://54.235.29.9/FacialAge/BNav_EC2/DepthDuration/v2_depth_duration_MTurk/v2_DepthDuration_HTML.html#89,89,1364,768,1364,768,8-21-2022,9-50-18,138,depth_duration_stimuli/000709_2014-06-08_13-51-55_260595134347_rgbf000068-resize_3/000709_2014-06-08_13-51-55_260595134347_rgbf000068-resize_3-target.png,125,1.8030000000000002,1,2300,12,meters,jsons/VE125_randls_34_rotated.json,1190618,1526632,26,Man
138,631173,DepthScenes,duration_manipulation_targetAtFixation,jsons/VE125_randls_34_rotated.json,http://54.235.29.9/FacialAge/BNav_EC2/DepthDuration/v2_depth_duration_MTurk/v2_DepthDuration_HTML.html#89,89,1364,768,1364,768,8-21-2022,9-50-18,139,depth_duration_stimuli/002057_2014-06-24_21-00-13_260595134347_rgbf000120-resize_1/002057_2014-06-24_21-00-13_260595134347_rgbf000120-resize_1-target.png,125,2.967,0,4418,121,meters,jsons/VE125_randls_34_rotated.json,1190618,1526632,26,Man
139,631173,DepthScenes,duration_manipulation_targetAtFixation,jsons/VE125_randls_34_rotated.json,http://54.235.29.9/FacialAge/BNav_EC2/DepthDuration/v2_depth_duration_MTurk/v2_DepthDuration_HTML.html#89,89,1364,768,1364,768,8-21-2022,9-50-18,140,depth_duration_stimuli/002657_2014-06-13_15-29-54_094959634447_rgbf000150-resize_1/002657_2014-06-13_15-29-54_094959634447_rgbf000150-resize_1-target.png,125,4.919,0,8574,124,meters,jsons/VE125_randls_34_rotated.json,1190618,1526632,26,Man
140,631173,DepthScenes,duration_manipulation_targetAtFixation,jsons/VE125_randls_34_rotated.json,http://54.235.29.9/FacialAge/BNav_EC2/DepthDuration/v2_depth_duration_MTurk/v2_DepthDuration_HTML.html#89,89,1364,768,1364,768,8-21-2022,9-50-18,141,depth_duration_stimuli/002375_2014-06-28_20-13-44_260595134347_rgbf000032-resize_1/002375_2014-06-28_20-13-44_260595134347_rgbf000032-resize_1-target.png,125,4.0175,0,2285,121,meters,jsons/VE125_randls_34_rotated.json,1190618,1526632,26,Man
141,631173,DepthScenes,duration_manipulation_targetAtFixation,jsons/VE125_randls_34_rotated.json,http://54.235.29.9/FacialAge/BNav_EC2/DepthDuration/v2_depth_duration_MTurk/v2_DepthDuration_HTML.html#89,89,1364,768,1364,768,8-21-2022,9-50-18,142,depth_duration_stimuli/002414_2014-06-28_20-24-58_260595134347_rgbf000067-resize_4/002414_2014-06-28_20-24-58_260595134347_rgbf000067-resize_4-target.png,125,4.363,1,5703,118,meters,jsons/VE125_randls_34_rotated.json,1190618,1526632,26,Man
142,631173,DepthScenes,duration_manipulation_targetAtFixation,jsons/VE125_randls_34_rotated.json,http://54.235.29.9/FacialAge/BNav_EC2/DepthDuration/v2_depth_duration_MTurk/v2_DepthDuration_HTML.html#89,89,1364,768,1364,768,8-21-2022,9-50-18,143,depth_duration_stimuli/000773_2014-06-08_22-24-54_260595134347_rgbf000093-resize_1/000773_2014-06-08_22-24-54_260595134347_rgbf000093-resize_1-target.png,125,4.973,0,49221,125,meters,jsons/VE125_randls_34_rotated.json,1190618,1526632,26,Man
143,631173,DepthScenes,duration_manipulation_targetAtFixation,jsons/VE125_randls_34_rotated.json,http://54.235.29.9/FacialAge/BNav_EC2/DepthDuration/v2_depth_duration_MTurk/v2_DepthDuration_HTML.html#89,89,1364,768,1364,768,8-21-2022,9-50-18,144,depth_duration_stimuli/001516_2014-06-20_16-25-09_260595134347_rgbf000076-resize_2/001516_2014-06-20_16-25-09_260595134347_rgbf000076-resize_2-target.png,125,1.7445,1,16461,124,meters,jsons/VE125_randls_34_rotated.json,1190618,1526632,26,Man
144,631173,DepthScenes,duration_manipulation_targetAtFixation,jsons/VE125_randls_34_rotated.json,http://54.235.29.9/FacialAge/BNav_EC2/DepthDuration/v2_depth_duration_MTurk/v2_DepthDuration_HTML.html#89,89,1364,768,1364,768,8-21-2022,9-50-18,145,depth_duration_stimuli/002118_2014-06-25_20-32-08_260595134347_rgbf000078-resize_1/002118_2014-06-25_20-32-08_260595134347_rgbf000078-resize_1-target.png,125,2.6460000000000004,0,5819,120,meters,jsons/VE125_randls_34_rotated.json,1190618,1526632,26,Man
145,631173,DepthScenes,duration_manipulation_targetAtFixation,jsons/VE125_randls_34_rotated.json,http://54.235.29.9/FacialAge/BNav_EC2/DepthDuration/v2_depth_duration_MTurk/v2_DepthDuration_HTML.html#89,89,1364,768,1364,768,8-21-2022,9-50-18,146,depth_duration_stimuli/000556_2014-06-09_22-42-56_260595134347_rgbf000214-resize_1/000556_2014-06-09_22-42-56_260595134347_rgbf000214-resize_1-target.png,125,4.8415,1,4231,130,meters,jsons/VE125_randls_34_rotated.json,1190618,1526632,26,Man
146,631173,DepthScenes,duration_manipulation_targetAtFixation,jsons/VE125_randls_34_rotated.json,http://54.235.29.9/FacialAge/BNav_EC2/DepthDuration/v2_depth_duration_MTurk/v2_DepthDuration_HTML.html#89,89,1364,768,1364,768,8-21-2022,9-50-18,147,depth_duration_stimuli/001158_2014-06-17_15-32-16_260595134347_rgbf000138-resize_2/001158_2014-06-17_15-32-16_260595134347_rgbf000138-resize_2-target.png,125,4.5315,0,2303,122,meters,jsons/VE125_randls_34_rotated.json,1190618,1526632,26,Man
147,631173,DepthScenes,duration_manipulation_targetAtFixation,jsons/VE125_randls_34_rotated.json,http://54.235.29.9/FacialAge/BNav_EC2/DepthDuration/v2_depth_duration_MTurk/v2_DepthDuration_HTML.html#89,89,1364,768,1364,768,8-21-2022,9-50-18,148,depth_duration_stimuli/001392_2014-06-19_16-07-59_260595134347_rgbf000046-resize_1/001392_2014-06-19_16-07-59_260595134347_rgbf000046-resize_1-target.png,125,4.135,4,33256,125,meters,jsons/VE125_randls_34_rotated.json,1190618,1526632,26,Man
148,631173,DepthScenes,duration_manipulation_targetAtFixation,jsons/VE125_randls_34_rotated.json,http://54.235.29.9/FacialAge/BNav_EC2/DepthDuration/v2_depth_duration_MTurk/v2_DepthDuration_HTML.html#89,89,1364,768,1364,768,8-21-2022,9-50-18,149,depth_duration_stimuli/001570_2014-06-20_17-21-09_260595134347_rgbf000135-resize_4/001570_2014-06-20_17-21-09_260595134347_rgbf000135-resize_4-target.png,125,4.467,3,2443,123,meters,jsons/VE125_randls_34_rotated.json,1190618,1526632,26,Man
149,631173,DepthScenes,duration_manipulation_targetAtFixation,jsons/VE125_randls_34_rotated.json,http://54.235.29.9/FacialAge/BNav_EC2/DepthDuration/v2_depth_duration_MTurk/v2_DepthDuration_HTML.html#89,89,1364,768,1364,768,8-21-2022,9-50-18,150,depth_duration_stimuli/002949_2014-06-26_15-57-42_094959634447_rgbf000079-resize_1/002949_2014-06-26_15-57-42_094959634447_rgbf000079-resize_1-target.png,125,1.8915,1,2610,258,meters,jsons/VE125_randls_34_rotated.json,1190618,1526632,26,Man
150,631173,DepthScenes,duration_manipulation_targetAtFixation,jsons/VE125_randls_34_rotated.json,http://54.235.29.9/FacialAge/BNav_EC2/DepthDuration/v2_depth_duration_MTurk/v2_DepthDuration_HTML.html#89,89,1364,768,1364,768,8-21-2022,9-50-18,151,depth_duration_stimuli/000522_2014-06-08_13-35-06_260595134347_rgbf000244-resize_1/000522_2014-06-08_13-35-06_260595134347_rgbf000244-resize_1-target.png,125,2.3715,2,2536,124,meters,jsons/VE125_randls_34_rotated.json,1190618,1526632,26,Man
151,631173,DepthScenes,duration_manipulation_targetAtFixation,jsons/VE125_randls_34_rotated.json,http://54.235.29.9/FacialAge/BNav_EC2/DepthDuration/v2_depth_duration_MTurk/v2_DepthDuration_HTML.html#89,89,1364,768,1364,768,8-21-2022,9-50-18,152,depth_duration_stimuli/000569_2014-06-09_22-51-47_260595134347_rgbf000141-resize_3/000569_2014-06-09_22-51-47_260595134347_rgbf000141-resize-original.jpg,125,4.512,4,2014,122,meters,jsons/VE125_randls_34_rotated.json,1190618,1526632,26,Man
152,631173,DepthScenes,duration_manipulation_targetAtFixation,jsons/VE125_randls_34_rotated.json,http://54.235.29.9/FacialAge/BNav_EC2/DepthDuration/v2_depth_duration_MTurk/v2_DepthDuration_HTML.html#89,89,1364,768,1364,768,8-21-2022,9-50-18,153,depth_duration_stimuli/003083_2014-06-15_15-21-03_094959634447_rgbf000063-resize_1/003083_2014-06-15_15-21-03_094959634447_rgbf000063-resize_1-target.png,125,4.1405,2,2530,123,meters,jsons/VE125_randls_34_rotated.json,1190618,1526632,26,Man
153,631173,DepthScenes,duration_manipulation_targetAtFixation,jsons/VE125_randls_34_rotated.json,http://54.235.29.9/FacialAge/BNav_EC2/DepthDuration/v2_depth_duration_MTurk/v2_DepthDuration_HTML.html#89,89,1364,768,1364,768,8-21-2022,9-50-18,154,depth_duration_stimuli/000486_2014-06-09_20-47-20_260595134347_rgbf000143-resize_2/000486_2014-06-09_20-47-20_260595134347_rgbf000143-resize_2-target.png,125,4.8325,1,2407,123,meters,jsons/VE125_randls_34_rotated.json,1190618,1526632,26,Man
154,631173,DepthScenes,duration_manipulation_targetAtFixation,jsons/VE125_randls_34_rotated.json,http://54.235.29.9/FacialAge/BNav_EC2/DepthDuration/v2_depth_duration_MTurk/v2_DepthDuration_HTML.html#89,89,1364,768,1364,768,8-21-2022,9-50-18,155,depth_duration_stimuli/000409_2014-06-04_19-23-33_260595134347_rgbf000067-resize_0/000409_2014-06-04_19-23-33_260595134347_rgbf000067-resize_0-target.png,125,3.7335,1,2370,124,meters,jsons/VE125_randls_34_rotated.json,1190618,1526632,26,Man
155,631173,DepthScenes,duration_manipulation_targetAtFixation,jsons/VE125_randls_34_rotated.json,http://54.235.29.9/FacialAge/BNav_EC2/DepthDuration/v2_depth_duration_MTurk/v2_DepthDuration_HTML.html#89,89,1364,768,1364,768,8-21-2022,9-50-18,156,depth_duration_stimuli/002663_2014-06-13_15-50-26_094959634447_rgbf000075-resize_1/002663_2014-06-13_15-50-26_094959634447_rgbf000075-resize_1-target.png,125,4.7495,3,2007,123,meters,jsons/VE125_randls_34_rotated.json,1190618,1526632,26,Man
156,631173,DepthScenes,duration_manipulation_targetAtFixation,jsons/VE125_randls_34_rotated.json,http://54.235.29.9/FacialAge/BNav_EC2/DepthDuration/v2_depth_duration_MTurk/v2_DepthDuration_HTML.html#89,89,1364,768,1364,768,8-21-2022,9-50-18,157,depth_duration_stimuli/000691_2014-06-08_13-08-50_260595134347_rgbf000132-resize_3/000691_2014-06-08_13-08-50_260595134347_rgbf000132-resize_3-target.png,125,4.1530000000000005,5,2018,141,meters,jsons/VE125_randls_34_rotated.json,1190618,1526632,26,Man
157,631173,DepthScenes,duration_manipulation_targetAtFixation,jsons/VE125_randls_34_rotated.json,http://54.235.29.9/FacialAge/BNav_EC2/DepthDuration/v2_depth_duration_MTurk/v2_DepthDuration_HTML.html#89,89,1364,768,1364,768,8-21-2022,9-50-18,158,depth_duration_stimuli/002213_2014-06-28_18-37-58_260595134347_rgbf000055-resize_1/002213_2014-06-28_18-37-58_260595134347_rgbf000055-resize_1-target.png,125,3.62,2,2113,124,meters,jsons/VE125_randls_34_rotated.json,1190618,1526632,26,Man
158,631173,DepthScenes,duration_manipulation_targetAtFixation,jsons/VE125_randls_34_rotated.json,http://54.235.29.9/FacialAge/BNav_EC2/DepthDuration/v2_depth_duration_MTurk/v2_DepthDuration_HTML.html#89,89,1364,768,1364,768,8-21-2022,9-50-18,159,depth_duration_stimuli/000191_2014-05-12_17-07-38_260595134347_rgbf000199-resize_0/000191_2014-05-12_17-07-38_260595134347_rgbf000199-resize_0-target.png,125,3.7995,4,2319,125,meters,jsons/VE125_randls_34_rotated.json,1190618,1526632,26,Man
159,631173,DepthScenes,duration_manipulation_targetAtFixation,jsons/VE125_randls_34_rotated.json,http://54.235.29.9/FacialAge/BNav_EC2/DepthDuration/v2_depth_duration_MTurk/v2_DepthDuration_HTML.html#89,89,1364,768,1364,768,8-21-2022,9-50-18,160,depth_duration_stimuli/000493_2014-06-09_21-01-18_260595134347_rgbf000196-resize_3/000493_2014-06-09_21-01-18_260595134347_rgbf000196-resize_3-target.png,125,3.44,1,2132,123,meters,jsons/VE125_randls_34_rotated.json,1190618,1526632,26,Man
160,631173,DepthScenes,duration_manipulation_targetAtFixation,jsons/VE125_randls_34_rotated.json,http://54.235.29.9/FacialAge/BNav_EC2/DepthDuration/v2_depth_duration_MTurk/v2_DepthDuration_HTML.html#89,89,1364,768,1364,768,8-21-2022,9-50-18,161,depth_duration_stimuli/001235_2014-06-17_16-37-36_260595134347_rgbf000084-resize_4/001235_2014-06-17_16-37-36_260595134347_rgbf000084-resize_4-target.png,125,3.6605,3,2401,123,meters,jsons/VE125_randls_34_rotated.json,1190618,1526632,26,Man
161,631173,DepthScenes,duration_manipulation_targetAtFixation,jsons/VE125_randls_34_rotated.json,http://54.235.29.9/FacialAge/BNav_EC2/DepthDuration/v2_depth_duration_MTurk/v2_DepthDuration_HTML.html#89,89,1364,768,1364,768,8-21-2022,9-50-18,162,depth_duration_stimuli/000788_2014-06-08_22-34-36_260595134347_rgbf000131-resize_1/000788_2014-06-08_22-34-36_260595134347_rgbf000131-resize_1-target.png,125,3.359,5,1968,123,meters,jsons/VE125_randls_34_rotated.json,1190618,1526632,26,Man
162,631173,DepthScenes,duration_manipulation_targetAtFixation,jsons/VE125_randls_34_rotated.json,http://54.235.29.9/FacialAge/BNav_EC2/DepthDuration/v2_depth_duration_MTurk/v2_DepthDuration_HTML.html#89,89,1364,768,1364,768,8-21-2022,9-50-18,163,depth_duration_stimuli/000734_2014-06-08_17-39-11_260595134347_rgbf000128-resize_2/000734_2014-06-08_17-39-11_260595134347_rgbf000128-resize_2-target.png,125,4.098,1,1474,125,meters,jsons/VE125_randls_34_rotated.json,1190618,1526632,26,Man
163,631173,DepthScenes,duration_manipulation_targetAtFixation,jsons/VE125_randls_34_rotated.json,http://54.235.29.9/FacialAge/BNav_EC2/DepthDuration/v2_depth_duration_MTurk/v2_DepthDuration_HTML.html#89,89,1364,768,1364,768,8-21-2022,9-50-18,164,depth_duration_stimuli/000739_2014-06-08_18-45-58_260595134347_rgbf000068-resize_1/000739_2014-06-08_18-45-58_260595134347_rgbf000068-resize_1-target.png,125,3.534,0,1504,123,meters,jsons/VE125_randls_34_rotated.json,1190618,1526632,26,Man
