,subjID,experimentName,versionName,sequenceName,url,selected_row,windowWidth,windowHeight,screenWidth,screenHeight,startDate,startTime,trial,stimulus,duration,actual_depth,depth_estimate,trial_RT,log_sceneDuration,unitSelection,seq_filepath,experimentTime,totalTime,age,gender
0,631508,DepthScenes,duration_manipulation_targetAtFixation,jsons/v1_VE1000_randls_32.json,http://54.235.29.9/FacialAge/BNav_EC2/DepthDuration/v2_depth_duration_MTurk/v2_DepthDuration_HTML.html#355,355,1366,625,1366,768,9-4-2022,11-43-7,1,depth_duration_stimuli/000773_2014-06-08_22-24-54_260595134347_rgbf000093-resize_1/000773_2014-06-08_22-24-54_260595134347_rgbf000093-resize_1-target.png,1000,4.973,0,3225,998,meters,jsons/v1_VE1000_randls_32.json,608683,705679,25,Man
1,631508,DepthScenes,duration_manipulation_targetAtFixation,jsons/v1_VE1000_randls_32.json,http://54.235.29.9/FacialAge/BNav_EC2/DepthDuration/v2_depth_duration_MTurk/v2_DepthDuration_HTML.html#355,355,1366,625,1366,768,9-4-2022,11-43-7,2,depth_duration_stimuli/002414_2014-06-28_20-24-58_260595134347_rgbf000067-resize_4/002414_2014-06-28_20-24-58_260595134347_rgbf000067-resize_4-target.png,1000,4.363,0,3826,1000,meters,jsons/v1_VE1000_randls_32.json,608683,705679,25,Man
2,631508,DepthScenes,duration_manipulation_targetAtFixation,jsons/v1_VE1000_randls_32.json,http://54.235.29.9/FacialAge/BNav_EC2/DepthDuration/v2_depth_duration_MTurk/v2_DepthDuration_HTML.html#355,355,1366,625,1366,768,9-4-2022,11-43-7,3,depth_duration_stimuli/000906_2014-06-08_13-35-43_260595134347_rgbf000155-resize_1/000906_2014-06-08_13-35-43_260595134347_rgbf000155-resize_1-target.png,1000,2.8489999999999998,0,2986,1000,meters,jsons/v1_VE1000_randls_32.json,608683,705679,25,Man
3,631508,DepthScenes,duration_manipulation_targetAtFixation,jsons/v1_VE1000_randls_32.json,http://54.235.29.9/FacialAge/BNav_EC2/DepthDuration/v2_depth_duration_MTurk/v2_DepthDuration_HTML.html#355,355,1366,625,1366,768,9-4-2022,11-43-7,4,depth_duration_stimuli/002805_2014-06-22_19-54-03_094959634447_rgbf000079-resize_1/002805_2014-06-22_19-54-03_094959634447_rgbf000079-resize_1-target.png,1000,3.1439999999999997,0,2907,1001,meters,jsons/v1_VE1000_randls_32.json,608683,705679,25,Man
4,631508,DepthScenes,duration_manipulation_targetAtFixation,jsons/v1_VE1000_randls_32.json,http://54.235.29.9/FacialAge/BNav_EC2/DepthDuration/v2_depth_duration_MTurk/v2_DepthDuration_HTML.html#355,355,1366,625,1366,768,9-4-2022,11-43-7,5,depth_duration_stimuli/001133_2014-06-17_14-49-16_260595134347_rgbf000100-resize_0/001133_2014-06-17_14-49-16_260595134347_rgbf000100-resize_0-target.png,1000,4.2115,0,4126,999,meters,jsons/v1_VE1000_randls_32.json,608683,705679,25,Man
5,631508,DepthScenes,duration_manipulation_targetAtFixation,jsons/v1_VE1000_randls_32.json,http://54.235.29.9/FacialAge/BNav_EC2/DepthDuration/v2_depth_duration_MTurk/v2_DepthDuration_HTML.html#355,355,1366,625,1366,768,9-4-2022,11-43-7,6,depth_duration_stimuli/001132_2014-06-17_14-48-54_260595134347_rgbf000100-resize_2/001132_2014-06-17_14-48-54_260595134347_rgbf000100-resize_2-target.png,1000,3.753,0,3018,1000,meters,jsons/v1_VE1000_randls_32.json,608683,705679,25,Man
6,631508,DepthScenes,duration_manipulation_targetAtFixation,jsons/v1_VE1000_randls_32.json,http://54.235.29.9/FacialAge/BNav_EC2/DepthDuration/v2_depth_duration_MTurk/v2_DepthDuration_HTML.html#355,355,1366,625,1366,768,9-4-2022,11-43-7,7,depth_duration_stimuli/001806_2014-06-26_20-50-20_260595134347_rgbf000091-resize_1/001806_2014-06-26_20-50-20_260595134347_rgbf000091-resize_1-target.png,1000,2.7305,0,3226,999,meters,jsons/v1_VE1000_randls_32.json,608683,705679,25,Man
7,631508,DepthScenes,duration_manipulation_targetAtFixation,jsons/v1_VE1000_randls_32.json,http://54.235.29.9/FacialAge/BNav_EC2/DepthDuration/v2_depth_duration_MTurk/v2_DepthDuration_HTML.html#355,355,1366,625,1366,768,9-4-2022,11-43-7,8,depth_duration_stimuli/001617_2014-06-20_11-35-32_260595134347_rgbf000066-resize_1/001617_2014-06-20_11-35-32_260595134347_rgbf000066-resize_1-target.png,1000,3.7910000000000004,0,3270,1001,meters,jsons/v1_VE1000_randls_32.json,608683,705679,25,Man
8,631508,DepthScenes,duration_manipulation_targetAtFixation,jsons/v1_VE1000_randls_32.json,http://54.235.29.9/FacialAge/BNav_EC2/DepthDuration/v2_depth_duration_MTurk/v2_DepthDuration_HTML.html#355,355,1366,625,1366,768,9-4-2022,11-43-7,9,depth_duration_stimuli/003070_2014-06-15_14-58-27_094959634447_rgbf000150-resize_3/003070_2014-06-15_14-58-27_094959634447_rgbf000150-resize_3-target.png,1000,2.9415,0,3120,1001,meters,jsons/v1_VE1000_randls_32.json,608683,705679,25,Man
9,631508,DepthScenes,duration_manipulation_targetAtFixation,jsons/v1_VE1000_randls_32.json,http://54.235.29.9/FacialAge/BNav_EC2/DepthDuration/v2_depth_duration_MTurk/v2_DepthDuration_HTML.html#355,355,1366,625,1366,768,9-4-2022,11-43-7,10,depth_duration_stimuli/000943_2014-06-09_19-31-07_260595134347_rgbf000128-resize_1/000943_2014-06-09_19-31-07_260595134347_rgbf000128-resize_1-target.png,1000,1.9765,0,2948,1003,meters,jsons/v1_VE1000_randls_32.json,608683,705679,25,Man
10,631508,DepthScenes,duration_manipulation_targetAtFixation,jsons/v1_VE1000_randls_32.json,http://54.235.29.9/FacialAge/BNav_EC2/DepthDuration/v2_depth_duration_MTurk/v2_DepthDuration_HTML.html#355,355,1366,625,1366,768,9-4-2022,11-43-7,11,depth_duration_stimuli/001150_2014-06-17_15-27-34_260595134347_rgbf000108-resize_2/001150_2014-06-17_15-27-34_260595134347_rgbf000108-resize_2-target.png,1000,4.0325,0,4235,999,meters,jsons/v1_VE1000_randls_32.json,608683,705679,25,Man
11,631508,DepthScenes,duration_manipulation_targetAtFixation,jsons/v1_VE1000_randls_32.json,http://54.235.29.9/FacialAge/BNav_EC2/DepthDuration/v2_depth_duration_MTurk/v2_DepthDuration_HTML.html#355,355,1366,625,1366,768,9-4-2022,11-43-7,12,depth_duration_stimuli/000665_2014-06-09_20-42-35_260595134347_rgbf000110-resize_1/000665_2014-06-09_20-42-35_260595134347_rgbf000110-resize_1-target.png,1000,3.057,0,3052,1001,meters,jsons/v1_VE1000_randls_32.json,608683,705679,25,Man
12,631508,DepthScenes,duration_manipulation_targetAtFixation,jsons/v1_VE1000_randls_32.json,http://54.235.29.9/FacialAge/BNav_EC2/DepthDuration/v2_depth_duration_MTurk/v2_DepthDuration_HTML.html#355,355,1366,625,1366,768,9-4-2022,11-43-7,13,depth_duration_stimuli/000569_2014-06-09_22-51-47_260595134347_rgbf000141-resize_3/000569_2014-06-09_22-51-47_260595134347_rgbf000141-resize-original.jpg,1000,4.512,0,2960,999,meters,jsons/v1_VE1000_randls_32.json,608683,705679,25,Man
13,631508,DepthScenes,duration_manipulation_targetAtFixation,jsons/v1_VE1000_randls_32.json,http://54.235.29.9/FacialAge/BNav_EC2/DepthDuration/v2_depth_duration_MTurk/v2_DepthDuration_HTML.html#355,355,1366,625,1366,768,9-4-2022,11-43-7,14,depth_duration_stimuli/002763_2014-06-22_19-13-10_094959634447_rgbf000075-resize_4/002763_2014-06-22_19-13-10_094959634447_rgbf000075-resize_4-target.png,1000,1.68375,0,2919,1001,meters,jsons/v1_VE1000_randls_32.json,608683,705679,25,Man
14,631508,DepthScenes,duration_manipulation_targetAtFixation,jsons/v1_VE1000_randls_32.json,http://54.235.29.9/FacialAge/BNav_EC2/DepthDuration/v2_depth_duration_MTurk/v2_DepthDuration_HTML.html#355,355,1366,625,1366,768,9-4-2022,11-43-7,15,depth_duration_stimuli/002209_2014-06-28_18-36-10_260595134347_rgbf000051-resize_1/002209_2014-06-28_18-36-10_260595134347_rgbf000051-resize_1-target.png,1000,2.057,0,3210,1000,meters,jsons/v1_VE1000_randls_32.json,608683,705679,25,Man
15,631508,DepthScenes,duration_manipulation_targetAtFixation,jsons/v1_VE1000_randls_32.json,http://54.235.29.9/FacialAge/BNav_EC2/DepthDuration/v2_depth_duration_MTurk/v2_DepthDuration_HTML.html#355,355,1366,625,1366,768,9-4-2022,11-43-7,16,depth_duration_stimuli/000736_2014-06-08_18-24-15_260595134347_rgbf000206-resize_3/000736_2014-06-08_18-24-15_260595134347_rgbf000206-resize_3-target.png,1000,3.515,0,2968,1001,meters,jsons/v1_VE1000_randls_32.json,608683,705679,25,Man
16,631508,DepthScenes,duration_manipulation_targetAtFixation,jsons/v1_VE1000_randls_32.json,http://54.235.29.9/FacialAge/BNav_EC2/DepthDuration/v2_depth_duration_MTurk/v2_DepthDuration_HTML.html#355,355,1366,625,1366,768,9-4-2022,11-43-7,17,depth_duration_stimuli/000137_2014-05-20_17-04-49_260595134347_rgbf000120-resize_1/000137_2014-05-20_17-04-49_260595134347_rgbf000120-resize_1-target.png,1000,3.786,0,3030,1000,meters,jsons/v1_VE1000_randls_32.json,608683,705679,25,Man
17,631508,DepthScenes,duration_manipulation_targetAtFixation,jsons/v1_VE1000_randls_32.json,http://54.235.29.9/FacialAge/BNav_EC2/DepthDuration/v2_depth_duration_MTurk/v2_DepthDuration_HTML.html#355,355,1366,625,1366,768,9-4-2022,11-43-7,18,depth_duration_stimuli/003621_2014-05-23_18-06-08_094959634447_rgbf000101-resize_1/003621_2014-05-23_18-06-08_094959634447_rgbf000101-resize_1-target.png,1000,3.9835,0,2937,1000,meters,jsons/v1_VE1000_randls_32.json,608683,705679,25,Man
18,631508,DepthScenes,duration_manipulation_targetAtFixation,jsons/v1_VE1000_randls_32.json,http://54.235.29.9/FacialAge/BNav_EC2/DepthDuration/v2_depth_duration_MTurk/v2_DepthDuration_HTML.html#355,355,1366,625,1366,768,9-4-2022,11-43-7,19,depth_duration_stimuli/001584_2014-06-20_11-07-43_260595134347_rgbf000002-resize_1/001584_2014-06-20_11-07-43_260595134347_rgbf000002-resize_1-target.png,1000,3.53,0,3042,999,meters,jsons/v1_VE1000_randls_32.json,608683,705679,25,Man
19,631508,DepthScenes,duration_manipulation_targetAtFixation,jsons/v1_VE1000_randls_32.json,http://54.235.29.9/FacialAge/BNav_EC2/DepthDuration/v2_depth_duration_MTurk/v2_DepthDuration_HTML.html#355,355,1366,625,1366,768,9-4-2022,11-43-7,20,depth_duration_stimuli/000758_2014-06-08_22-05-08_260595134347_rgbf000085-resize_0/000758_2014-06-08_22-05-08_260595134347_rgbf000085-resize_0-target.png,1000,3.3810000000000002,0,3099,999,meters,jsons/v1_VE1000_randls_32.json,608683,705679,25,Man
20,631508,DepthScenes,duration_manipulation_targetAtFixation,jsons/v1_VE1000_randls_32.json,http://54.235.29.9/FacialAge/BNav_EC2/DepthDuration/v2_depth_duration_MTurk/v2_DepthDuration_HTML.html#355,355,1366,625,1366,768,9-4-2022,11-43-7,21,depth_duration_stimuli/000854_2014-06-09_19-43-13_260595134347_rgbf000066-resize_0/000854_2014-06-09_19-43-13_260595134347_rgbf000066-resize_0-target.png,1000,3.068,0,2996,1000,meters,jsons/v1_VE1000_randls_32.json,608683,705679,25,Man
21,631508,DepthScenes,duration_manipulation_targetAtFixation,jsons/v1_VE1000_randls_32.json,http://54.235.29.9/FacialAge/BNav_EC2/DepthDuration/v2_depth_duration_MTurk/v2_DepthDuration_HTML.html#355,355,1366,625,1366,768,9-4-2022,11-43-7,22,depth_duration_stimuli/003534_2014-05-22_15-06-10_094959634447_rgbf000102-resize_4/003534_2014-05-22_15-06-10_094959634447_rgbf000102-resize_4-target.png,1000,1.426,0,3003,1000,meters,jsons/v1_VE1000_randls_32.json,608683,705679,25,Man
22,631508,DepthScenes,duration_manipulation_targetAtFixation,jsons/v1_VE1000_randls_32.json,http://54.235.29.9/FacialAge/BNav_EC2/DepthDuration/v2_depth_duration_MTurk/v2_DepthDuration_HTML.html#355,355,1366,625,1366,768,9-4-2022,11-43-7,23,depth_duration_stimuli/002637_2014-06-24_14-51-13_094959634447_rgbf000066-resize_4/002637_2014-06-24_14-51-13_094959634447_rgbf000066-resize_4-target.png,1000,1.9955,0,2930,1000,meters,jsons/v1_VE1000_randls_32.json,608683,705679,25,Man
23,631508,DepthScenes,duration_manipulation_targetAtFixation,jsons/v1_VE1000_randls_32.json,http://54.235.29.9/FacialAge/BNav_EC2/DepthDuration/v2_depth_duration_MTurk/v2_DepthDuration_HTML.html#355,355,1366,625,1366,768,9-4-2022,11-43-7,24,depth_duration_stimuli/000436_2014-06-09_22-25-11_260595134347_rgbf000137-resize_1/000436_2014-06-09_22-25-11_260595134347_rgbf000137-resize_1-target.png,1000,4.0705,0,2880,1000,meters,jsons/v1_VE1000_randls_32.json,608683,705679,25,Man
24,631508,DepthScenes,duration_manipulation_targetAtFixation,jsons/v1_VE1000_randls_32.json,http://54.235.29.9/FacialAge/BNav_EC2/DepthDuration/v2_depth_duration_MTurk/v2_DepthDuration_HTML.html#355,355,1366,625,1366,768,9-4-2022,11-43-7,25,depth_duration_stimuli/002444_2014-06-28_20-32-08_260595134347_rgbf000027-resize_0/002444_2014-06-28_20-32-08_260595134347_rgbf000027-resize_0-target.png,1000,4.388999999999999,0,2847,999,meters,jsons/v1_VE1000_randls_32.json,608683,705679,25,Man
25,631508,DepthScenes,duration_manipulation_targetAtFixation,jsons/v1_VE1000_randls_32.json,http://54.235.29.9/FacialAge/BNav_EC2/DepthDuration/v2_depth_duration_MTurk/v2_DepthDuration_HTML.html#355,355,1366,625,1366,768,9-4-2022,11-43-7,26,depth_duration_stimuli/002725_2014-06-22_11-47-51_094959634447_rgbf000070-resize_1/002725_2014-06-22_11-47-51_094959634447_rgbf000070-resize_1-target.png,1000,2.195,0,2975,1000,meters,jsons/v1_VE1000_randls_32.json,608683,705679,25,Man
26,631508,DepthScenes,duration_manipulation_targetAtFixation,jsons/v1_VE1000_randls_32.json,http://54.235.29.9/FacialAge/BNav_EC2/DepthDuration/v2_depth_duration_MTurk/v2_DepthDuration_HTML.html#355,355,1366,625,1366,768,9-4-2022,11-43-7,27,depth_duration_stimuli/002344_2014-06-28_20-06-29_260595134347_rgbf000030-resize_1/002344_2014-06-28_20-06-29_260595134347_rgbf000030-resize_1-target.png,1000,1.5795,0,3117,1002,meters,jsons/v1_VE1000_randls_32.json,608683,705679,25,Man
27,631508,DepthScenes,duration_manipulation_targetAtFixation,jsons/v1_VE1000_randls_32.json,http://54.235.29.9/FacialAge/BNav_EC2/DepthDuration/v2_depth_duration_MTurk/v2_DepthDuration_HTML.html#355,355,1366,625,1366,768,9-4-2022,11-43-7,28,depth_duration_stimuli/000493_2014-06-09_21-01-18_260595134347_rgbf000196-resize_3/000493_2014-06-09_21-01-18_260595134347_rgbf000196-resize_3-target.png,1000,3.44,0,2979,1000,meters,jsons/v1_VE1000_randls_32.json,608683,705679,25,Man
28,631508,DepthScenes,duration_manipulation_targetAtFixation,jsons/v1_VE1000_randls_32.json,http://54.235.29.9/FacialAge/BNav_EC2/DepthDuration/v2_depth_duration_MTurk/v2_DepthDuration_HTML.html#355,355,1366,625,1366,768,9-4-2022,11-43-7,29,depth_duration_stimuli/000191_2014-05-12_17-07-38_260595134347_rgbf000199-resize_0/000191_2014-05-12_17-07-38_260595134347_rgbf000199-resize_0-target.png,1000,3.7995,0,3288,1001,meters,jsons/v1_VE1000_randls_32.json,608683,705679,25,Man
29,631508,DepthScenes,duration_manipulation_targetAtFixation,jsons/v1_VE1000_randls_32.json,http://54.235.29.9/FacialAge/BNav_EC2/DepthDuration/v2_depth_duration_MTurk/v2_DepthDuration_HTML.html#355,355,1366,625,1366,768,9-4-2022,11-43-7,30,depth_duration_stimuli/000375_2014-06-08_11-17-29_260595134347_rgbf000133-resize_2/000375_2014-06-08_11-17-29_260595134347_rgbf000133-resize-original.jpg,1000,4.718,0,2973,1000,meters,jsons/v1_VE1000_randls_32.json,608683,705679,25,Man
30,631508,DepthScenes,duration_manipulation_targetAtFixation,jsons/v1_VE1000_randls_32.json,http://54.235.29.9/FacialAge/BNav_EC2/DepthDuration/v2_depth_duration_MTurk/v2_DepthDuration_HTML.html#355,355,1366,625,1366,768,9-4-2022,11-43-7,31,depth_duration_stimuli/001808_2014-06-26_20-50-58_260595134347_rgbf000029-resize_1/001808_2014-06-26_20-50-58_260595134347_rgbf000029-resize_1-target.png,1000,4.249,0,3076,1000,meters,jsons/v1_VE1000_randls_32.json,608683,705679,25,Man
31,631508,DepthScenes,duration_manipulation_targetAtFixation,jsons/v1_VE1000_randls_32.json,http://54.235.29.9/FacialAge/BNav_EC2/DepthDuration/v2_depth_duration_MTurk/v2_DepthDuration_HTML.html#355,355,1366,625,1366,768,9-4-2022,11-43-7,32,depth_duration_stimuli/001815_2014-06-26_20-52-55_260595134347_rgbf000020-resize_0/001815_2014-06-26_20-52-55_260595134347_rgbf000020-resize_0-target.png,1000,3.3865,0,3000,1000,meters,jsons/v1_VE1000_randls_32.json,608683,705679,25,Man
32,631508,DepthScenes,duration_manipulation_targetAtFixation,jsons/v1_VE1000_randls_32.json,http://54.235.29.9/FacialAge/BNav_EC2/DepthDuration/v2_depth_duration_MTurk/v2_DepthDuration_HTML.html#355,355,1366,625,1366,768,9-4-2022,11-43-7,33,depth_duration_stimuli/000009_2014-05-26_14-32-05_260595134347_rgbf000034-resize_3/000009_2014-05-26_14-32-05_260595134347_rgbf000034-resize_3-target.png,1000,3.8715,0,3970,999,meters,jsons/v1_VE1000_randls_32.json,608683,705679,25,Man
33,631508,DepthScenes,duration_manipulation_targetAtFixation,jsons/v1_VE1000_randls_32.json,http://54.235.29.9/FacialAge/BNav_EC2/DepthDuration/v2_depth_duration_MTurk/v2_DepthDuration_HTML.html#355,355,1366,625,1366,768,9-4-2022,11-43-7,34,depth_duration_stimuli/001828_2014-06-26_21-40-03_260595134347_rgbf000024-resize_0/001828_2014-06-26_21-40-03_260595134347_rgbf000024-resize_0-target.png,1000,4.8260000000000005,0,2952,1001,meters,jsons/v1_VE1000_randls_32.json,608683,705679,25,Man
34,631508,DepthScenes,duration_manipulation_targetAtFixation,jsons/v1_VE1000_randls_32.json,http://54.235.29.9/FacialAge/BNav_EC2/DepthDuration/v2_depth_duration_MTurk/v2_DepthDuration_HTML.html#355,355,1366,625,1366,768,9-4-2022,11-43-7,35,depth_duration_stimuli/002279_2014-06-28_18-55-32_260595134347_rgbf000040-resize_5/002279_2014-06-28_18-55-32_260595134347_rgbf000040-resize_5-target.png,1000,1.5043333333333,0,4069,999,meters,jsons/v1_VE1000_randls_32.json,608683,705679,25,Man
35,631508,DepthScenes,duration_manipulation_targetAtFixation,jsons/v1_VE1000_randls_32.json,http://54.235.29.9/FacialAge/BNav_EC2/DepthDuration/v2_depth_duration_MTurk/v2_DepthDuration_HTML.html#355,355,1366,625,1366,768,9-4-2022,11-43-7,36,depth_duration_stimuli/000635_2014-06-08_16-38-42_260595134347_rgbf000106-resize_1/000635_2014-06-08_16-38-42_260595134347_rgbf000106-resize_1-target.png,1000,2.074,0,4380,1000,meters,jsons/v1_VE1000_randls_32.json,608683,705679,25,Man
36,631508,DepthScenes,duration_manipulation_targetAtFixation,jsons/v1_VE1000_randls_32.json,http://54.235.29.9/FacialAge/BNav_EC2/DepthDuration/v2_depth_duration_MTurk/v2_DepthDuration_HTML.html#355,355,1366,625,1366,768,9-4-2022,11-43-7,37,depth_duration_stimuli/002213_2014-06-28_18-37-58_260595134347_rgbf000055-resize_1/002213_2014-06-28_18-37-58_260595134347_rgbf000055-resize_1-target.png,1000,3.62,0,2810,1000,meters,jsons/v1_VE1000_randls_32.json,608683,705679,25,Man
37,631508,DepthScenes,duration_manipulation_targetAtFixation,jsons/v1_VE1000_randls_32.json,http://54.235.29.9/FacialAge/BNav_EC2/DepthDuration/v2_depth_duration_MTurk/v2_DepthDuration_HTML.html#355,355,1366,625,1366,768,9-4-2022,11-43-7,38,depth_duration_stimuli/000691_2014-06-08_13-08-50_260595134347_rgbf000132-resize_3/000691_2014-06-08_13-08-50_260595134347_rgbf000132-resize_3-target.png,1000,4.1530000000000005,0,2980,998,meters,jsons/v1_VE1000_randls_32.json,608683,705679,25,Man
38,631508,DepthScenes,duration_manipulation_targetAtFixation,jsons/v1_VE1000_randls_32.json,http://54.235.29.9/FacialAge/BNav_EC2/DepthDuration/v2_depth_duration_MTurk/v2_DepthDuration_HTML.html#355,355,1366,625,1366,768,9-4-2022,11-43-7,39,depth_duration_stimuli/001810_2014-06-26_20-51-35_260595134347_rgbf000040-resize_3/001810_2014-06-26_20-51-35_260595134347_rgbf000040-resize_3-target.png,1000,2.2525,0,3087,1000,meters,jsons/v1_VE1000_randls_32.json,608683,705679,25,Man
39,631508,DepthScenes,duration_manipulation_targetAtFixation,jsons/v1_VE1000_randls_32.json,http://54.235.29.9/FacialAge/BNav_EC2/DepthDuration/v2_depth_duration_MTurk/v2_DepthDuration_HTML.html#355,355,1366,625,1366,768,9-4-2022,11-43-7,40,depth_duration_stimuli/003010_2014-06-15_12-54-35_094959634447_rgbf000112-resize_0/003010_2014-06-15_12-54-35_094959634447_rgbf000112-resize_0-target.png,1000,3.1185,0,3314,1000,meters,jsons/v1_VE1000_randls_32.json,608683,705679,25,Man
40,631508,DepthScenes,duration_manipulation_targetAtFixation,jsons/v1_VE1000_randls_32.json,http://54.235.29.9/FacialAge/BNav_EC2/DepthDuration/v2_depth_duration_MTurk/v2_DepthDuration_HTML.html#355,355,1366,625,1366,768,9-4-2022,11-43-7,41,depth_duration_stimuli/002570_2014-06-24_13-59-54_094959634447_rgbf000059-resize_0/002570_2014-06-24_13-59-54_094959634447_rgbf000059-resize_0-target.png,1000,4.037,0,3052,1001,meters,jsons/v1_VE1000_randls_32.json,608683,705679,25,Man
41,631508,DepthScenes,duration_manipulation_targetAtFixation,jsons/v1_VE1000_randls_32.json,http://54.235.29.9/FacialAge/BNav_EC2/DepthDuration/v2_depth_duration_MTurk/v2_DepthDuration_HTML.html#355,355,1366,625,1366,768,9-4-2022,11-43-7,42,depth_duration_stimuli/002467_2014-06-28_20-38-07_260595134347_rgbf000026-resize_2/002467_2014-06-28_20-38-07_260595134347_rgbf000026-resize_2-target.png,1000,4.742,0,2979,1000,meters,jsons/v1_VE1000_randls_32.json,608683,705679,25,Man
42,631508,DepthScenes,duration_manipulation_targetAtFixation,jsons/v1_VE1000_randls_32.json,http://54.235.29.9/FacialAge/BNav_EC2/DepthDuration/v2_depth_duration_MTurk/v2_DepthDuration_HTML.html#355,355,1366,625,1366,768,9-4-2022,11-43-7,43,depth_duration_stimuli/002153_2014-06-25_21-27-18_260595134347_rgbf000038-resize_5/002153_2014-06-25_21-27-18_260595134347_rgbf000038-resize_5-target.png,1000,2.505,0,2981,1004,meters,jsons/v1_VE1000_randls_32.json,608683,705679,25,Man
43,631508,DepthScenes,duration_manipulation_targetAtFixation,jsons/v1_VE1000_randls_32.json,http://54.235.29.9/FacialAge/BNav_EC2/DepthDuration/v2_depth_duration_MTurk/v2_DepthDuration_HTML.html#355,355,1366,625,1366,768,9-4-2022,11-43-7,44,depth_duration_stimuli/002660_2014-06-13_15-44-18_094959634447_rgbf001878-resize_2/002660_2014-06-13_15-44-18_094959634447_rgbf001878-resize_2-target.png,1000,3.576,0,2937,999,meters,jsons/v1_VE1000_randls_32.json,608683,705679,25,Man
44,631508,DepthScenes,duration_manipulation_targetAtFixation,jsons/v1_VE1000_randls_32.json,http://54.235.29.9/FacialAge/BNav_EC2/DepthDuration/v2_depth_duration_MTurk/v2_DepthDuration_HTML.html#355,355,1366,625,1366,768,9-4-2022,11-43-7,45,depth_duration_stimuli/000787_2014-06-08_22-33-53_260595134347_rgbf000175-resize_1/000787_2014-06-08_22-33-53_260595134347_rgbf000175-resize-original.jpg,1000,4.784,0,3949,999,meters,jsons/v1_VE1000_randls_32.json,608683,705679,25,Man
45,631508,DepthScenes,duration_manipulation_targetAtFixation,jsons/v1_VE1000_randls_32.json,http://54.235.29.9/FacialAge/BNav_EC2/DepthDuration/v2_depth_duration_MTurk/v2_DepthDuration_HTML.html#355,355,1366,625,1366,768,9-4-2022,11-43-7,46,depth_duration_stimuli/001449_2014-06-19_17-01-27_260595134347_rgbf000116-resize_2/001449_2014-06-19_17-01-27_260595134347_rgbf000116-resize_2-target.png,1000,3.452,0,2934,1000,meters,jsons/v1_VE1000_randls_32.json,608683,705679,25,Man
46,631508,DepthScenes,duration_manipulation_targetAtFixation,jsons/v1_VE1000_randls_32.json,http://54.235.29.9/FacialAge/BNav_EC2/DepthDuration/v2_depth_duration_MTurk/v2_DepthDuration_HTML.html#355,355,1366,625,1366,768,9-4-2022,11-43-7,47,depth_duration_stimuli/001450_2014-06-19_17-02-03_260595134347_rgbf000203-resize_4/001450_2014-06-19_17-02-03_260595134347_rgbf000203-resize_4-target.png,1000,4.0106666666667,0,2922,1000,meters,jsons/v1_VE1000_randls_32.json,608683,705679,25,Man
47,631508,DepthScenes,duration_manipulation_targetAtFixation,jsons/v1_VE1000_randls_32.json,http://54.235.29.9/FacialAge/BNav_EC2/DepthDuration/v2_depth_duration_MTurk/v2_DepthDuration_HTML.html#355,355,1366,625,1366,768,9-4-2022,11-43-7,48,depth_duration_stimuli/002964_2014-06-08_17-46-11_094959634447_rgbf000091-resize_4/002964_2014-06-08_17-46-11_094959634447_rgbf000091-resize_4-target.png,1000,1.6909999999999998,0,2982,1000,meters,jsons/v1_VE1000_randls_32.json,608683,705679,25,Man
48,631508,DepthScenes,duration_manipulation_targetAtFixation,jsons/v1_VE1000_randls_32.json,http://54.235.29.9/FacialAge/BNav_EC2/DepthDuration/v2_depth_duration_MTurk/v2_DepthDuration_HTML.html#355,355,1366,625,1366,768,9-4-2022,11-43-7,49,depth_duration_stimuli/002136_2014-06-25_21-18-03_260595134347_rgbf000109-resize_3/002136_2014-06-25_21-18-03_260595134347_rgbf000109-resize_3-target.png,1000,1.9569999999999999,0,2956,1000,meters,jsons/v1_VE1000_randls_32.json,608683,705679,25,Man
49,631508,DepthScenes,duration_manipulation_targetAtFixation,jsons/v1_VE1000_randls_32.json,http://54.235.29.9/FacialAge/BNav_EC2/DepthDuration/v2_depth_duration_MTurk/v2_DepthDuration_HTML.html#355,355,1366,625,1366,768,9-4-2022,11-43-7,50,depth_duration_stimuli/001092_2014-06-15_17-34-58_260595134347_rgbf000171-resize_3/001092_2014-06-15_17-34-58_260595134347_rgbf000171-resize_3-target.png,1000,2.6935,0,3024,999,meters,jsons/v1_VE1000_randls_32.json,608683,705679,25,Man
50,631508,DepthScenes,duration_manipulation_targetAtFixation,jsons/v1_VE1000_randls_32.json,http://54.235.29.9/FacialAge/BNav_EC2/DepthDuration/v2_depth_duration_MTurk/v2_DepthDuration_HTML.html#355,355,1366,625,1366,768,9-4-2022,11-43-7,51,depth_duration_stimuli/002545_2014-06-24_13-38-53_094959634447_rgbf000080-resize_4/002545_2014-06-24_13-38-53_094959634447_rgbf000080-resize_4-target.png,1000,1.9205,0,2982,1000,meters,jsons/v1_VE1000_randls_32.json,608683,705679,25,Man
51,631508,DepthScenes,duration_manipulation_targetAtFixation,jsons/v1_VE1000_randls_32.json,http://54.235.29.9/FacialAge/BNav_EC2/DepthDuration/v2_depth_duration_MTurk/v2_DepthDuration_HTML.html#355,355,1366,625,1366,768,9-4-2022,11-43-7,52,depth_duration_stimuli/002445_2014-06-28_20-32-16_260595134347_rgbf000029-resize_4/002445_2014-06-28_20-32-16_260595134347_rgbf000029-resize_4-target.png,1000,2.5315,0,3023,1000,meters,jsons/v1_VE1000_randls_32.json,608683,705679,25,Man
52,631508,DepthScenes,duration_manipulation_targetAtFixation,jsons/v1_VE1000_randls_32.json,http://54.235.29.9/FacialAge/BNav_EC2/DepthDuration/v2_depth_duration_MTurk/v2_DepthDuration_HTML.html#355,355,1366,625,1366,768,9-4-2022,11-43-7,53,depth_duration_stimuli/000780_2014-06-08_22-28-29_260595134347_rgbf000126-resize_1/000780_2014-06-08_22-28-29_260595134347_rgbf000126-resize_1-target.png,1000,3.3825,0,2846,1000,meters,jsons/v1_VE1000_randls_32.json,608683,705679,25,Man
53,631508,DepthScenes,duration_manipulation_targetAtFixation,jsons/v1_VE1000_randls_32.json,http://54.235.29.9/FacialAge/BNav_EC2/DepthDuration/v2_depth_duration_MTurk/v2_DepthDuration_HTML.html#355,355,1366,625,1366,768,9-4-2022,11-43-7,54,depth_duration_stimuli/000522_2014-06-08_13-35-06_260595134347_rgbf000244-resize_1/000522_2014-06-08_13-35-06_260595134347_rgbf000244-resize_1-target.png,1000,2.3715,0,3060,1000,meters,jsons/v1_VE1000_randls_32.json,608683,705679,25,Man
54,631508,DepthScenes,duration_manipulation_targetAtFixation,jsons/v1_VE1000_randls_32.json,http://54.235.29.9/FacialAge/BNav_EC2/DepthDuration/v2_depth_duration_MTurk/v2_DepthDuration_HTML.html#355,355,1366,625,1366,768,9-4-2022,11-43-7,55,depth_duration_stimuli/002949_2014-06-26_15-57-42_094959634447_rgbf000079-resize_1/002949_2014-06-26_15-57-42_094959634447_rgbf000079-resize_1-target.png,1000,1.8915,0,3512,1001,meters,jsons/v1_VE1000_randls_32.json,608683,705679,25,Man
55,631508,DepthScenes,duration_manipulation_targetAtFixation,jsons/v1_VE1000_randls_32.json,http://54.235.29.9/FacialAge/BNav_EC2/DepthDuration/v2_depth_duration_MTurk/v2_DepthDuration_HTML.html#355,355,1366,625,1366,768,9-4-2022,11-43-7,56,depth_duration_stimuli/000929_2014-06-09_16-33-19_260595134347_rgbf000139-resize_0/000929_2014-06-09_16-33-19_260595134347_rgbf000139-resize_0-target.png,1000,2.8680000000000003,0,3166,1001,meters,jsons/v1_VE1000_randls_32.json,608683,705679,25,Man
56,631508,DepthScenes,duration_manipulation_targetAtFixation,jsons/v1_VE1000_randls_32.json,http://54.235.29.9/FacialAge/BNav_EC2/DepthDuration/v2_depth_duration_MTurk/v2_DepthDuration_HTML.html#355,355,1366,625,1366,768,9-4-2022,11-43-7,57,depth_duration_stimuli/000457_2014-06-08_16-52-43_260595134347_rgbf000199-resize_1/000457_2014-06-08_16-52-43_260595134347_rgbf000199-resize_1-target.png,1000,3.6489999999999996,0,4067,1000,meters,jsons/v1_VE1000_randls_32.json,608683,705679,25,Man
57,631508,DepthScenes,duration_manipulation_targetAtFixation,jsons/v1_VE1000_randls_32.json,http://54.235.29.9/FacialAge/BNav_EC2/DepthDuration/v2_depth_duration_MTurk/v2_DepthDuration_HTML.html#355,355,1366,625,1366,768,9-4-2022,11-43-7,58,depth_duration_stimuli/001055_2014-06-08_18-45-35_260595134347_rgbf000111-resize_4/001055_2014-06-08_18-45-35_260595134347_rgbf000111-resize_4-target.png,1000,2.4290000000000003,0,3189,998,meters,jsons/v1_VE1000_randls_32.json,608683,705679,25,Man
58,631508,DepthScenes,duration_manipulation_targetAtFixation,jsons/v1_VE1000_randls_32.json,http://54.235.29.9/FacialAge/BNav_EC2/DepthDuration/v2_depth_duration_MTurk/v2_DepthDuration_HTML.html#355,355,1366,625,1366,768,9-4-2022,11-43-7,59,depth_duration_stimuli/000549_2014-06-08_22-10-24_260595134347_rgbf000247-resize_3/000549_2014-06-08_22-10-24_260595134347_rgbf000247-resize_3-target.png,1000,1.841,0,3190,1000,meters,jsons/v1_VE1000_randls_32.json,608683,705679,25,Man
59,631508,DepthScenes,duration_manipulation_targetAtFixation,jsons/v1_VE1000_randls_32.json,http://54.235.29.9/FacialAge/BNav_EC2/DepthDuration/v2_depth_duration_MTurk/v2_DepthDuration_HTML.html#355,355,1366,625,1366,768,9-4-2022,11-43-7,60,depth_duration_stimuli/002788_2014-06-22_19-36-03_094959634447_rgbf000088-resize_2/002788_2014-06-22_19-36-03_094959634447_rgbf000088-resize_2-target.png,1000,1.6465,0,3051,1000,meters,jsons/v1_VE1000_randls_32.json,608683,705679,25,Man
60,631508,DepthScenes,duration_manipulation_targetAtFixation,jsons/v1_VE1000_randls_32.json,http://54.235.29.9/FacialAge/BNav_EC2/DepthDuration/v2_depth_duration_MTurk/v2_DepthDuration_HTML.html#355,355,1366,625,1366,768,9-4-2022,11-43-7,61,depth_duration_stimuli/000749_2014-06-08_21-55-06_260595134347_rgbf000070-resize_2/000749_2014-06-08_21-55-06_260595134347_rgbf000070-resize_2-target.png,1000,2.331,0,3124,1001,meters,jsons/v1_VE1000_randls_32.json,608683,705679,25,Man
61,631508,DepthScenes,duration_manipulation_targetAtFixation,jsons/v1_VE1000_randls_32.json,http://54.235.29.9/FacialAge/BNav_EC2/DepthDuration/v2_depth_duration_MTurk/v2_DepthDuration_HTML.html#355,355,1366,625,1366,768,9-4-2022,11-43-7,62,depth_duration_stimuli/001011_2014-06-08_23-18-54_260595134347_rgbf000044-resize_4/001011_2014-06-08_23-18-54_260595134347_rgbf000044-resize_4-target.png,1000,2.4730000000000003,0,3013,1000,meters,jsons/v1_VE1000_randls_32.json,608683,705679,25,Man
62,631508,DepthScenes,duration_manipulation_targetAtFixation,jsons/v1_VE1000_randls_32.json,http://54.235.29.9/FacialAge/BNav_EC2/DepthDuration/v2_depth_duration_MTurk/v2_DepthDuration_HTML.html#355,355,1366,625,1366,768,9-4-2022,11-43-7,63,depth_duration_stimuli/002875_2014-06-01_15-19-00_094959634447_rgbf000151-resize_1/002875_2014-06-01_15-19-00_094959634447_rgbf000151-resize_1-target.png,1000,1.9675,0,3872,999,meters,jsons/v1_VE1000_randls_32.json,608683,705679,25,Man
63,631508,DepthScenes,duration_manipulation_targetAtFixation,jsons/v1_VE1000_randls_32.json,http://54.235.29.9/FacialAge/BNav_EC2/DepthDuration/v2_depth_duration_MTurk/v2_DepthDuration_HTML.html#355,355,1366,625,1366,768,9-4-2022,11-43-7,64,depth_duration_stimuli/000469_2014-06-09_19-42-10_260595134347_rgbf000081-resize_1/000469_2014-06-09_19-42-10_260595134347_rgbf000081-resize_1-target.png,1000,1.652,0,2875,1000,meters,jsons/v1_VE1000_randls_32.json,608683,705679,25,Man
64,631508,DepthScenes,duration_manipulation_targetAtFixation,jsons/v1_VE1000_randls_32.json,http://54.235.29.9/FacialAge/BNav_EC2/DepthDuration/v2_depth_duration_MTurk/v2_DepthDuration_HTML.html#355,355,1366,625,1366,768,9-4-2022,11-43-7,65,depth_duration_stimuli/000483_2014-06-09_20-41-45_260595134347_rgbf000116-resize_4/000483_2014-06-09_20-41-45_260595134347_rgbf000116-resize_4-target.png,1000,1.337,0,3062,1000,meters,jsons/v1_VE1000_randls_32.json,608683,705679,25,Man
65,631508,DepthScenes,duration_manipulation_targetAtFixation,jsons/v1_VE1000_randls_32.json,http://54.235.29.9/FacialAge/BNav_EC2/DepthDuration/v2_depth_duration_MTurk/v2_DepthDuration_HTML.html#355,355,1366,625,1366,768,9-4-2022,11-43-7,66,depth_duration_stimuli/001222_2014-06-17_16-24-06_260595134347_rgbf000073-resize_0/001222_2014-06-17_16-24-06_260595134347_rgbf000073-resize-original.jpg,1000,1.4385,0,2969,999,meters,jsons/v1_VE1000_randls_32.json,608683,705679,25,Man
66,631508,DepthScenes,duration_manipulation_targetAtFixation,jsons/v1_VE1000_randls_32.json,http://54.235.29.9/FacialAge/BNav_EC2/DepthDuration/v2_depth_duration_MTurk/v2_DepthDuration_HTML.html#355,355,1366,625,1366,768,9-4-2022,11-43-7,67,depth_duration_stimuli/002748_2014-06-22_19-07-22_094959634447_rgbf000078-resize_1/002748_2014-06-22_19-07-22_094959634447_rgbf000078-resize_1-target.png,1000,4.6705,0,2978,1000,meters,jsons/v1_VE1000_randls_32.json,608683,705679,25,Man
67,631508,DepthScenes,duration_manipulation_targetAtFixation,jsons/v1_VE1000_randls_32.json,http://54.235.29.9/FacialAge/BNav_EC2/DepthDuration/v2_depth_duration_MTurk/v2_DepthDuration_HTML.html#355,355,1366,625,1366,768,9-4-2022,11-43-7,68,depth_duration_stimuli/002995_2014-06-15_12-31-26_094959634447_rgbf000150-resize_1/002995_2014-06-15_12-31-26_094959634447_rgbf000150-resize_1-target.png,1000,3.8360000000000003,0,3469,1001,meters,jsons/v1_VE1000_randls_32.json,608683,705679,25,Man
68,631508,DepthScenes,duration_manipulation_targetAtFixation,jsons/v1_VE1000_randls_32.json,http://54.235.29.9/FacialAge/BNav_EC2/DepthDuration/v2_depth_duration_MTurk/v2_DepthDuration_HTML.html#355,355,1366,625,1366,768,9-4-2022,11-43-7,69,depth_duration_stimuli/002549_2014-06-24_13-41-39_094959634447_rgbf000022-resize_3/002549_2014-06-24_13-41-39_094959634447_rgbf000022-resize_3-target.png,1000,1.476,0,3079,1000,meters,jsons/v1_VE1000_randls_32.json,608683,705679,25,Man
69,631508,DepthScenes,duration_manipulation_targetAtFixation,jsons/v1_VE1000_randls_32.json,http://54.235.29.9/FacialAge/BNav_EC2/DepthDuration/v2_depth_duration_MTurk/v2_DepthDuration_HTML.html#355,355,1366,625,1366,768,9-4-2022,11-43-7,70,depth_duration_stimuli/002750_2014-06-22_19-08-03_094959634447_rgbf000094-resize_4/002750_2014-06-22_19-08-03_094959634447_rgbf000094-resize_4-target.png,1000,2.354,0,3059,1001,meters,jsons/v1_VE1000_randls_32.json,608683,705679,25,Man
70,631508,DepthScenes,duration_manipulation_targetAtFixation,jsons/v1_VE1000_randls_32.json,http://54.235.29.9/FacialAge/BNav_EC2/DepthDuration/v2_depth_duration_MTurk/v2_DepthDuration_HTML.html#355,355,1366,625,1366,768,9-4-2022,11-43-7,71,depth_duration_stimuli/000642_2014-06-08_16-59-25_260595134347_rgbf000098-resize_2/000642_2014-06-08_16-59-25_260595134347_rgbf000098-resize_2-target.png,1000,2.8815,0,2939,1000,meters,jsons/v1_VE1000_randls_32.json,608683,705679,25,Man
71,631508,DepthScenes,duration_manipulation_targetAtFixation,jsons/v1_VE1000_randls_32.json,http://54.235.29.9/FacialAge/BNav_EC2/DepthDuration/v2_depth_duration_MTurk/v2_DepthDuration_HTML.html#355,355,1366,625,1366,768,9-4-2022,11-43-7,72,depth_duration_stimuli/002425_2014-06-28_20-27-29_260595134347_rgbf000031-resize_8/002425_2014-06-28_20-27-29_260595134347_rgbf000031-resize_8-target.png,1000,3.8960000000000004,0,3074,998,meters,jsons/v1_VE1000_randls_32.json,608683,705679,25,Man
72,631508,DepthScenes,duration_manipulation_targetAtFixation,jsons/v1_VE1000_randls_32.json,http://54.235.29.9/FacialAge/BNav_EC2/DepthDuration/v2_depth_duration_MTurk/v2_DepthDuration_HTML.html#355,355,1366,625,1366,768,9-4-2022,11-43-7,73,depth_duration_stimuli/001175_2014-06-17_15-45-55_260595134347_rgbf000129-resize_4/001175_2014-06-17_15-45-55_260595134347_rgbf000129-resize_4-target.png,1000,4.255,0,3259,1000,meters,jsons/v1_VE1000_randls_32.json,608683,705679,25,Man
73,631508,DepthScenes,duration_manipulation_targetAtFixation,jsons/v1_VE1000_randls_32.json,http://54.235.29.9/FacialAge/BNav_EC2/DepthDuration/v2_depth_duration_MTurk/v2_DepthDuration_HTML.html#355,355,1366,625,1366,768,9-4-2022,11-43-7,74,depth_duration_stimuli/003490_2014-05-21_15-50-11_094959634447_rgbf000101-resize_3/003490_2014-05-21_15-50-11_094959634447_rgbf000101-resize_3-target.png,1000,3.6445,0,3274,1000,meters,jsons/v1_VE1000_randls_32.json,608683,705679,25,Man
74,631508,DepthScenes,duration_manipulation_targetAtFixation,jsons/v1_VE1000_randls_32.json,http://54.235.29.9/FacialAge/BNav_EC2/DepthDuration/v2_depth_duration_MTurk/v2_DepthDuration_HTML.html#355,355,1366,625,1366,768,9-4-2022,11-43-7,75,depth_duration_stimuli/000692_2014-06-08_13-09-42_260595134347_rgbf000199-resize_2/000692_2014-06-08_13-09-42_260595134347_rgbf000199-resize_2-target.png,1000,3.661,0,3300,1001,meters,jsons/v1_VE1000_randls_32.json,608683,705679,25,Man
75,631508,DepthScenes,duration_manipulation_targetAtFixation,jsons/v1_VE1000_randls_32.json,http://54.235.29.9/FacialAge/BNav_EC2/DepthDuration/v2_depth_duration_MTurk/v2_DepthDuration_HTML.html#355,355,1366,625,1366,768,9-4-2022,11-43-7,76,depth_duration_stimuli/001094_2014-06-15_17-36-00_260595134347_rgbf000205-resize_0/001094_2014-06-15_17-36-00_260595134347_rgbf000205-resize_0-target.png,1000,4.2175,0,3110,1002,meters,jsons/v1_VE1000_randls_32.json,608683,705679,25,Man
76,631508,DepthScenes,duration_manipulation_targetAtFixation,jsons/v1_VE1000_randls_32.json,http://54.235.29.9/FacialAge/BNav_EC2/DepthDuration/v2_depth_duration_MTurk/v2_DepthDuration_HTML.html#355,355,1366,625,1366,768,9-4-2022,11-43-7,77,depth_duration_stimuli/002905_2014-06-03_18-04-43_094959634447_rgbf000151-resize_2/002905_2014-06-03_18-04-43_094959634447_rgbf000151-resize_2-target.png,1000,2.0295,0,2977,1000,meters,jsons/v1_VE1000_randls_32.json,608683,705679,25,Man
77,631508,DepthScenes,duration_manipulation_targetAtFixation,jsons/v1_VE1000_randls_32.json,http://54.235.29.9/FacialAge/BNav_EC2/DepthDuration/v2_depth_duration_MTurk/v2_DepthDuration_HTML.html#355,355,1366,625,1366,768,9-4-2022,11-43-7,78,depth_duration_stimuli/003423_2014-05-21_10-23-26_094959634447_rgbf002665-resize_2/003423_2014-05-21_10-23-26_094959634447_rgbf002665-resize_2-target.png,1000,3.2575,0,3012,1000,meters,jsons/v1_VE1000_randls_32.json,608683,705679,25,Man
78,631508,DepthScenes,duration_manipulation_targetAtFixation,jsons/v1_VE1000_randls_32.json,http://54.235.29.9/FacialAge/BNav_EC2/DepthDuration/v2_depth_duration_MTurk/v2_DepthDuration_HTML.html#355,355,1366,625,1366,768,9-4-2022,11-43-7,79,depth_duration_stimuli/001244_2014-06-17_16-47-45_260595134347_rgbf000030-resize_4/001244_2014-06-17_16-47-45_260595134347_rgbf000030-resize_4-target.png,1000,2.0425,0,3125,1000,meters,jsons/v1_VE1000_randls_32.json,608683,705679,25,Man
79,631508,DepthScenes,duration_manipulation_targetAtFixation,jsons/v1_VE1000_randls_32.json,http://54.235.29.9/FacialAge/BNav_EC2/DepthDuration/v2_depth_duration_MTurk/v2_DepthDuration_HTML.html#355,355,1366,625,1366,768,9-4-2022,11-43-7,80,depth_duration_stimuli/003495_2014-05-21_16-01-51_094959634447_rgbf000100-resize_3/003495_2014-05-21_16-01-51_094959634447_rgbf000100-resize_3-target.png,1000,1.6255,0,3047,1000,meters,jsons/v1_VE1000_randls_32.json,608683,705679,25,Man
80,631508,DepthScenes,duration_manipulation_targetAtFixation,jsons/v1_VE1000_randls_32.json,http://54.235.29.9/FacialAge/BNav_EC2/DepthDuration/v2_depth_duration_MTurk/v2_DepthDuration_HTML.html#355,355,1366,625,1366,768,9-4-2022,11-43-7,81,depth_duration_stimuli/000414_2014-06-04_19-49-13_260595134347_rgbf000044-resize_0/000414_2014-06-04_19-49-13_260595134347_rgbf000044-resize_0-target.png,1000,4.329,0,3136,1000,meters,jsons/v1_VE1000_randls_32.json,608683,705679,25,Man
81,631508,DepthScenes,duration_manipulation_targetAtFixation,jsons/v1_VE1000_randls_32.json,http://54.235.29.9/FacialAge/BNav_EC2/DepthDuration/v2_depth_duration_MTurk/v2_DepthDuration_HTML.html#355,355,1366,625,1366,768,9-4-2022,11-43-7,82,depth_duration_stimuli/003129_2014-05-12_10-48-10_094959634447_rgbf000100-resize_0/003129_2014-05-12_10-48-10_094959634447_rgbf000100-resize_0-target.png,1000,4.9305,0,5549,1000,meters,jsons/v1_VE1000_randls_32.json,608683,705679,25,Man
82,631508,DepthScenes,duration_manipulation_targetAtFixation,jsons/v1_VE1000_randls_32.json,http://54.235.29.9/FacialAge/BNav_EC2/DepthDuration/v2_depth_duration_MTurk/v2_DepthDuration_HTML.html#355,355,1366,625,1366,768,9-4-2022,11-43-7,83,depth_duration_stimuli/001016_2014-06-09_16-16-10_260595134347_rgbf000112-resize_5/001016_2014-06-09_16-16-10_260595134347_rgbf000112-resize_5-target.png,1000,1.6565,0,3738,999,meters,jsons/v1_VE1000_randls_32.json,608683,705679,25,Man
83,631508,DepthScenes,duration_manipulation_targetAtFixation,jsons/v1_VE1000_randls_32.json,http://54.235.29.9/FacialAge/BNav_EC2/DepthDuration/v2_depth_duration_MTurk/v2_DepthDuration_HTML.html#355,355,1366,625,1366,768,9-4-2022,11-43-7,84,depth_duration_stimuli/002340_2014-06-28_20-05-46_260595134347_rgbf000113-resize_0/002340_2014-06-28_20-05-46_260595134347_rgbf000113-resize_0-target.png,1000,2.4735,0,3067,1000,meters,jsons/v1_VE1000_randls_32.json,608683,705679,25,Man
84,631508,DepthScenes,duration_manipulation_targetAtFixation,jsons/v1_VE1000_randls_32.json,http://54.235.29.9/FacialAge/BNav_EC2/DepthDuration/v2_depth_duration_MTurk/v2_DepthDuration_HTML.html#355,355,1366,625,1366,768,9-4-2022,11-43-7,85,depth_duration_stimuli/002272_2014-06-28_18-53-56_260595134347_rgbf000067-resize_2/002272_2014-06-28_18-53-56_260595134347_rgbf000067-resize_2-target.png,1000,1.138,0,3028,1000,meters,jsons/v1_VE1000_randls_32.json,608683,705679,25,Man
85,631508,DepthScenes,duration_manipulation_targetAtFixation,jsons/v1_VE1000_randls_32.json,http://54.235.29.9/FacialAge/BNav_EC2/DepthDuration/v2_depth_duration_MTurk/v2_DepthDuration_HTML.html#355,355,1366,625,1366,768,9-4-2022,11-43-7,86,depth_duration_stimuli/001571_2014-06-20_17-21-32_260595134347_rgbf000089-resize_1/001571_2014-06-20_17-21-32_260595134347_rgbf000089-resize_1-target.png,1000,1.86,0,7270,999,meters,jsons/v1_VE1000_randls_32.json,608683,705679,25,Man
86,631508,DepthScenes,duration_manipulation_targetAtFixation,jsons/v1_VE1000_randls_32.json,http://54.235.29.9/FacialAge/BNav_EC2/DepthDuration/v2_depth_duration_MTurk/v2_DepthDuration_HTML.html#355,355,1366,625,1366,768,9-4-2022,11-43-7,87,depth_duration_stimuli/000486_2014-06-09_20-47-20_260595134347_rgbf000143-resize_2/000486_2014-06-09_20-47-20_260595134347_rgbf000143-resize_2-target.png,1000,4.8325,0,3209,999,meters,jsons/v1_VE1000_randls_32.json,608683,705679,25,Man
87,631508,DepthScenes,duration_manipulation_targetAtFixation,jsons/v1_VE1000_randls_32.json,http://54.235.29.9/FacialAge/BNav_EC2/DepthDuration/v2_depth_duration_MTurk/v2_DepthDuration_HTML.html#355,355,1366,625,1366,768,9-4-2022,11-43-7,88,depth_duration_stimuli/003083_2014-06-15_15-21-03_094959634447_rgbf000063-resize_1/003083_2014-06-15_15-21-03_094959634447_rgbf000063-resize_1-target.png,1000,4.1405,0,4299,1000,meters,jsons/v1_VE1000_randls_32.json,608683,705679,25,Man
88,631508,DepthScenes,duration_manipulation_targetAtFixation,jsons/v1_VE1000_randls_32.json,http://54.235.29.9/FacialAge/BNav_EC2/DepthDuration/v2_depth_duration_MTurk/v2_DepthDuration_HTML.html#355,355,1366,625,1366,768,9-4-2022,11-43-7,89,depth_duration_stimuli/002039_2014-06-24_20-22-38_260595134347_rgbf000084-resize_1/002039_2014-06-24_20-22-38_260595134347_rgbf000084-resize_1-target.png,1000,4.408,0,3293,1001,meters,jsons/v1_VE1000_randls_32.json,608683,705679,25,Man
89,631508,DepthScenes,duration_manipulation_targetAtFixation,jsons/v1_VE1000_randls_32.json,http://54.235.29.9/FacialAge/BNav_EC2/DepthDuration/v2_depth_duration_MTurk/v2_DepthDuration_HTML.html#355,355,1366,625,1366,768,9-4-2022,11-43-7,90,depth_duration_stimuli/002103_2014-06-25_20-00-40_260595134347_rgbf000049-resize_0/002103_2014-06-25_20-00-40_260595134347_rgbf000049-resize_0-target.png,1000,4.105,0,3326,1000,meters,jsons/v1_VE1000_randls_32.json,608683,705679,25,Man
90,631508,DepthScenes,duration_manipulation_targetAtFixation,jsons/v1_VE1000_randls_32.json,http://54.235.29.9/FacialAge/BNav_EC2/DepthDuration/v2_depth_duration_MTurk/v2_DepthDuration_HTML.html#355,355,1366,625,1366,768,9-4-2022,11-43-7,91,depth_duration_stimuli/002989_2014-06-15_12-25-03_094959634447_rgbf000150-resize_3/002989_2014-06-15_12-25-03_094959634447_rgbf000150-resize_3-target.png,1000,4.1975,0,5494,1001,meters,jsons/v1_VE1000_randls_32.json,608683,705679,25,Man
91,631508,DepthScenes,duration_manipulation_targetAtFixation,jsons/v1_VE1000_randls_32.json,http://54.235.29.9/FacialAge/BNav_EC2/DepthDuration/v2_depth_duration_MTurk/v2_DepthDuration_HTML.html#355,355,1366,625,1366,768,9-4-2022,11-43-7,92,depth_duration_stimuli/000866_2014-06-09_20-45-42_260595134347_rgbf000139-resize_1/000866_2014-06-09_20-45-42_260595134347_rgbf000139-resize_1-target.png,1000,3.2155,0,3099,1002,meters,jsons/v1_VE1000_randls_32.json,608683,705679,25,Man
92,631508,DepthScenes,duration_manipulation_targetAtFixation,jsons/v1_VE1000_randls_32.json,http://54.235.29.9/FacialAge/BNav_EC2/DepthDuration/v2_depth_duration_MTurk/v2_DepthDuration_HTML.html#355,355,1366,625,1366,768,9-4-2022,11-43-7,93,depth_duration_stimuli/001570_2014-06-20_17-21-09_260595134347_rgbf000135-resize_4/001570_2014-06-20_17-21-09_260595134347_rgbf000135-resize_4-target.png,1000,4.467,0,3546,1000,meters,jsons/v1_VE1000_randls_32.json,608683,705679,25,Man
93,631508,DepthScenes,duration_manipulation_targetAtFixation,jsons/v1_VE1000_randls_32.json,http://54.235.29.9/FacialAge/BNav_EC2/DepthDuration/v2_depth_duration_MTurk/v2_DepthDuration_HTML.html#355,355,1366,625,1366,768,9-4-2022,11-43-7,94,depth_duration_stimuli/001392_2014-06-19_16-07-59_260595134347_rgbf000046-resize_1/001392_2014-06-19_16-07-59_260595134347_rgbf000046-resize_1-target.png,1000,4.135,0,3142,1000,meters,jsons/v1_VE1000_randls_32.json,608683,705679,25,Man
94,631508,DepthScenes,duration_manipulation_targetAtFixation,jsons/v1_VE1000_randls_32.json,http://54.235.29.9/FacialAge/BNav_EC2/DepthDuration/v2_depth_duration_MTurk/v2_DepthDuration_HTML.html#355,355,1366,625,1366,768,9-4-2022,11-43-7,95,depth_duration_stimuli/000810_2014-06-08_17-20-01_260595134347_rgbf000105-resize_0/000810_2014-06-08_17-20-01_260595134347_rgbf000105-resize_0-target.png,1000,1.4865,0,2950,1001,meters,jsons/v1_VE1000_randls_32.json,608683,705679,25,Man
95,631508,DepthScenes,duration_manipulation_targetAtFixation,jsons/v1_VE1000_randls_32.json,http://54.235.29.9/FacialAge/BNav_EC2/DepthDuration/v2_depth_duration_MTurk/v2_DepthDuration_HTML.html#355,355,1366,625,1366,768,9-4-2022,11-43-7,96,depth_duration_stimuli/001214_2014-06-17_16-13-55_260595134347_rgbf000111-resize_0/001214_2014-06-17_16-13-55_260595134347_rgbf000111-resize_0-target.png,1000,2.6505,0,2982,1000,meters,jsons/v1_VE1000_randls_32.json,608683,705679,25,Man
96,631508,DepthScenes,duration_manipulation_targetAtFixation,jsons/v1_VE1000_randls_32.json,http://54.235.29.9/FacialAge/BNav_EC2/DepthDuration/v2_depth_duration_MTurk/v2_DepthDuration_HTML.html#355,355,1366,625,1366,768,9-4-2022,11-43-7,97,depth_duration_stimuli/002375_2014-06-28_20-13-44_260595134347_rgbf000032-resize_1/002375_2014-06-28_20-13-44_260595134347_rgbf000032-resize_1-target.png,1000,4.0175,0,3163,1000,meters,jsons/v1_VE1000_randls_32.json,608683,705679,25,Man
97,631508,DepthScenes,duration_manipulation_targetAtFixation,jsons/v1_VE1000_randls_32.json,http://54.235.29.9/FacialAge/BNav_EC2/DepthDuration/v2_depth_duration_MTurk/v2_DepthDuration_HTML.html#355,355,1366,625,1366,768,9-4-2022,11-43-7,98,depth_duration_stimuli/002657_2014-06-13_15-29-54_094959634447_rgbf000150-resize_1/002657_2014-06-13_15-29-54_094959634447_rgbf000150-resize_1-target.png,1000,4.919,0,3121,1000,meters,jsons/v1_VE1000_randls_32.json,608683,705679,25,Man
98,631508,DepthScenes,duration_manipulation_targetAtFixation,jsons/v1_VE1000_randls_32.json,http://54.235.29.9/FacialAge/BNav_EC2/DepthDuration/v2_depth_duration_MTurk/v2_DepthDuration_HTML.html#355,355,1366,625,1366,768,9-4-2022,11-43-7,99,depth_duration_stimuli/001540_2014-06-20_17-01-05_260595134347_rgbf000086-resize_2/001540_2014-06-20_17-01-05_260595134347_rgbf000086-resize-original.jpg,1000,1.459,0,2918,1000,meters,jsons/v1_VE1000_randls_32.json,608683,705679,25,Man
99,631508,DepthScenes,duration_manipulation_targetAtFixation,jsons/v1_VE1000_randls_32.json,http://54.235.29.9/FacialAge/BNav_EC2/DepthDuration/v2_depth_duration_MTurk/v2_DepthDuration_HTML.html#355,355,1366,625,1366,768,9-4-2022,11-43-7,100,depth_duration_stimuli/002784_2014-06-22_19-26-30_094959634447_rgbf000083-resize_3/002784_2014-06-22_19-26-30_094959634447_rgbf000083-resize_3-target.png,1000,1.8046666666667,0,2927,1000,meters,jsons/v1_VE1000_randls_32.json,608683,705679,25,Man
100,631508,DepthScenes,duration_manipulation_targetAtFixation,jsons/v1_VE1000_randls_32.json,http://54.235.29.9/FacialAge/BNav_EC2/DepthDuration/v2_depth_duration_MTurk/v2_DepthDuration_HTML.html#355,355,1366,625,1366,768,9-4-2022,11-43-7,101,depth_duration_stimuli/001100_2014-06-15_17-46-26_260595134347_rgbf000225-resize_2/001100_2014-06-15_17-46-26_260595134347_rgbf000225-resize_2-target.png,1000,2.24,0,2915,1001,meters,jsons/v1_VE1000_randls_32.json,608683,705679,25,Man
101,631508,DepthScenes,duration_manipulation_targetAtFixation,jsons/v1_VE1000_randls_32.json,http://54.235.29.9/FacialAge/BNav_EC2/DepthDuration/v2_depth_duration_MTurk/v2_DepthDuration_HTML.html#355,355,1366,625,1366,768,9-4-2022,11-43-7,102,depth_duration_stimuli/001199_2014-06-17_16-03-48_260595134347_rgbf000077-resize_0/001199_2014-06-17_16-03-48_260595134347_rgbf000077-resize_0-target.png,1000,3.4375,0,2963,1001,meters,jsons/v1_VE1000_randls_32.json,608683,705679,25,Man
102,631508,DepthScenes,duration_manipulation_targetAtFixation,jsons/v1_VE1000_randls_32.json,http://54.235.29.9/FacialAge/BNav_EC2/DepthDuration/v2_depth_duration_MTurk/v2_DepthDuration_HTML.html#355,355,1366,625,1366,768,9-4-2022,11-43-7,103,depth_duration_stimuli/000502_2014-06-08_23-02-32_260595134347_rgbf000063-resize_4/000502_2014-06-08_23-02-32_260595134347_rgbf000063-resize_4-target.png,1000,2.431,0,2984,1001,meters,jsons/v1_VE1000_randls_32.json,608683,705679,25,Man
103,631508,DepthScenes,duration_manipulation_targetAtFixation,jsons/v1_VE1000_randls_32.json,http://54.235.29.9/FacialAge/BNav_EC2/DepthDuration/v2_depth_duration_MTurk/v2_DepthDuration_HTML.html#355,355,1366,625,1366,768,9-4-2022,11-43-7,104,depth_duration_stimuli/000739_2014-06-08_18-45-58_260595134347_rgbf000068-resize_1/000739_2014-06-08_18-45-58_260595134347_rgbf000068-resize_1-target.png,1000,3.534,0,2847,1000,meters,jsons/v1_VE1000_randls_32.json,608683,705679,25,Man
104,631508,DepthScenes,duration_manipulation_targetAtFixation,jsons/v1_VE1000_randls_32.json,http://54.235.29.9/FacialAge/BNav_EC2/DepthDuration/v2_depth_duration_MTurk/v2_DepthDuration_HTML.html#355,355,1366,625,1366,768,9-4-2022,11-43-7,105,depth_duration_stimuli/000734_2014-06-08_17-39-11_260595134347_rgbf000128-resize_2/000734_2014-06-08_17-39-11_260595134347_rgbf000128-resize_2-target.png,1000,4.098,0,2942,1000,meters,jsons/v1_VE1000_randls_32.json,608683,705679,25,Man
105,631508,DepthScenes,duration_manipulation_targetAtFixation,jsons/v1_VE1000_randls_32.json,http://54.235.29.9/FacialAge/BNav_EC2/DepthDuration/v2_depth_duration_MTurk/v2_DepthDuration_HTML.html#355,355,1366,625,1366,768,9-4-2022,11-43-7,106,depth_duration_stimuli/002057_2014-06-24_21-00-13_260595134347_rgbf000120-resize_1/002057_2014-06-24_21-00-13_260595134347_rgbf000120-resize_1-target.png,1000,2.967,0,3192,1000,meters,jsons/v1_VE1000_randls_32.json,608683,705679,25,Man
106,631508,DepthScenes,duration_manipulation_targetAtFixation,jsons/v1_VE1000_randls_32.json,http://54.235.29.9/FacialAge/BNav_EC2/DepthDuration/v2_depth_duration_MTurk/v2_DepthDuration_HTML.html#355,355,1366,625,1366,768,9-4-2022,11-43-7,107,depth_duration_stimuli/000709_2014-06-08_13-51-55_260595134347_rgbf000068-resize_3/000709_2014-06-08_13-51-55_260595134347_rgbf000068-resize_3-target.png,1000,1.8030000000000002,0,3125,1001,meters,jsons/v1_VE1000_randls_32.json,608683,705679,25,Man
107,631508,DepthScenes,duration_manipulation_targetAtFixation,jsons/v1_VE1000_randls_32.json,http://54.235.29.9/FacialAge/BNav_EC2/DepthDuration/v2_depth_duration_MTurk/v2_DepthDuration_HTML.html#355,355,1366,625,1366,768,9-4-2022,11-43-7,108,depth_duration_stimuli/000447_2014-06-08_16-15-46_260595134347_rgbf000130-resize_1/000447_2014-06-08_16-15-46_260595134347_rgbf000130-resize_1-target.png,1000,4.479,0,3032,999,meters,jsons/v1_VE1000_randls_32.json,608683,705679,25,Man
108,631508,DepthScenes,duration_manipulation_targetAtFixation,jsons/v1_VE1000_randls_32.json,http://54.235.29.9/FacialAge/BNav_EC2/DepthDuration/v2_depth_duration_MTurk/v2_DepthDuration_HTML.html#355,355,1366,625,1366,768,9-4-2022,11-43-7,109,depth_duration_stimuli/001447_2014-06-19_17-00-32_260595134347_rgbf000082-resize_5/001447_2014-06-19_17-00-32_260595134347_rgbf000082-resize_5-target.png,1000,4.13775,0,2849,1000,meters,jsons/v1_VE1000_randls_32.json,608683,705679,25,Man
109,631508,DepthScenes,duration_manipulation_targetAtFixation,jsons/v1_VE1000_randls_32.json,http://54.235.29.9/FacialAge/BNav_EC2/DepthDuration/v2_depth_duration_MTurk/v2_DepthDuration_HTML.html#355,355,1366,625,1366,768,9-4-2022,11-43-7,110,depth_duration_stimuli/003292_2014-05-14_21-53-49_094959634447_rgbf000100-resize_2/003292_2014-05-14_21-53-49_094959634447_rgbf000100-resize_2-target.png,1000,3.4815,0,2955,1000,meters,jsons/v1_VE1000_randls_32.json,608683,705679,25,Man
110,631508,DepthScenes,duration_manipulation_targetAtFixation,jsons/v1_VE1000_randls_32.json,http://54.235.29.9/FacialAge/BNav_EC2/DepthDuration/v2_depth_duration_MTurk/v2_DepthDuration_HTML.html#355,355,1366,625,1366,768,9-4-2022,11-43-7,111,depth_duration_stimuli/002639_2014-06-24_14-51-37_094959634447_rgbf000074-resize_4/002639_2014-06-24_14-51-37_094959634447_rgbf000074-resize_4-target.png,1000,4.0375,0,3213,1001,meters,jsons/v1_VE1000_randls_32.json,608683,705679,25,Man
111,631508,DepthScenes,duration_manipulation_targetAtFixation,jsons/v1_VE1000_randls_32.json,http://54.235.29.9/FacialAge/BNav_EC2/DepthDuration/v2_depth_duration_MTurk/v2_DepthDuration_HTML.html#355,355,1366,625,1366,768,9-4-2022,11-43-7,112,depth_duration_stimuli/001029_2014-06-08_13-17-57_260595134347_rgbf000065-resize_1/001029_2014-06-08_13-17-57_260595134347_rgbf000065-resize_1-target.png,1000,3.0835,0,3056,999,meters,jsons/v1_VE1000_randls_32.json,608683,705679,25,Man
112,631508,DepthScenes,duration_manipulation_targetAtFixation,jsons/v1_VE1000_randls_32.json,http://54.235.29.9/FacialAge/BNav_EC2/DepthDuration/v2_depth_duration_MTurk/v2_DepthDuration_HTML.html#355,355,1366,625,1366,768,9-4-2022,11-43-7,113,depth_duration_stimuli/000677_2014-06-08_23-10-32_260595134347_rgbf000158-resize_6/000677_2014-06-08_23-10-32_260595134347_rgbf000158-resize_6-target.png,1000,3.556,0,3092,1000,meters,jsons/v1_VE1000_randls_32.json,608683,705679,25,Man
113,631508,DepthScenes,duration_manipulation_targetAtFixation,jsons/v1_VE1000_randls_32.json,http://54.235.29.9/FacialAge/BNav_EC2/DepthDuration/v2_depth_duration_MTurk/v2_DepthDuration_HTML.html#355,355,1366,625,1366,768,9-4-2022,11-43-7,114,depth_duration_stimuli/001167_2014-06-17_15-38-07_260595134347_rgbf000108-resize_0/001167_2014-06-17_15-38-07_260595134347_rgbf000108-resize_0-target.png,1000,1.8505,0,3017,1000,meters,jsons/v1_VE1000_randls_32.json,608683,705679,25,Man
114,631508,DepthScenes,duration_manipulation_targetAtFixation,jsons/v1_VE1000_randls_32.json,http://54.235.29.9/FacialAge/BNav_EC2/DepthDuration/v2_depth_duration_MTurk/v2_DepthDuration_HTML.html#355,355,1366,625,1366,768,9-4-2022,11-43-7,115,depth_duration_stimuli/003587_2014-05-23_16-48-02_094959634447_rgbf002384-resize_2/003587_2014-05-23_16-48-02_094959634447_rgbf002384-resize_2-target.png,1000,1.357,0,2839,999,meters,jsons/v1_VE1000_randls_32.json,608683,705679,25,Man
115,631508,DepthScenes,duration_manipulation_targetAtFixation,jsons/v1_VE1000_randls_32.json,http://54.235.29.9/FacialAge/BNav_EC2/DepthDuration/v2_depth_duration_MTurk/v2_DepthDuration_HTML.html#355,355,1366,625,1366,768,9-4-2022,11-43-7,116,depth_duration_stimuli/001170_2014-06-17_15-43-44_260595134347_rgbf000096-resize_6/001170_2014-06-17_15-43-44_260595134347_rgbf000096-resize-original.jpg,1000,1.1909999999999998,0,2831,1000,meters,jsons/v1_VE1000_randls_32.json,608683,705679,25,Man
116,631508,DepthScenes,duration_manipulation_targetAtFixation,jsons/v1_VE1000_randls_32.json,http://54.235.29.9/FacialAge/BNav_EC2/DepthDuration/v2_depth_duration_MTurk/v2_DepthDuration_HTML.html#355,355,1366,625,1366,768,9-4-2022,11-43-7,117,depth_duration_stimuli/001417_2014-06-19_16-25-36_260595134347_rgbf000115-resize_5/001417_2014-06-19_16-25-36_260595134347_rgbf000115-resize_5-target.png,1000,4.6255,0,2894,1000,meters,jsons/v1_VE1000_randls_32.json,608683,705679,25,Man
117,631508,DepthScenes,duration_manipulation_targetAtFixation,jsons/v1_VE1000_randls_32.json,http://54.235.29.9/FacialAge/BNav_EC2/DepthDuration/v2_depth_duration_MTurk/v2_DepthDuration_HTML.html#355,355,1366,625,1366,768,9-4-2022,11-43-7,118,depth_duration_stimuli/003081_2014-06-15_15-19-16_094959634447_rgbf000150-resize_1/003081_2014-06-15_15-19-16_094959634447_rgbf000150-resize_1-target.png,1000,3.9125,0,2960,1001,meters,jsons/v1_VE1000_randls_32.json,608683,705679,25,Man
118,631508,DepthScenes,duration_manipulation_targetAtFixation,jsons/v1_VE1000_randls_32.json,http://54.235.29.9/FacialAge/BNav_EC2/DepthDuration/v2_depth_duration_MTurk/v2_DepthDuration_HTML.html#355,355,1366,625,1366,768,9-4-2022,11-43-7,119,depth_duration_stimuli/001059_2014-06-08_21-53-27_260595134347_rgbf000061-resize_4/001059_2014-06-08_21-53-27_260595134347_rgbf000061-resize_4-target.png,1000,2.4185,0,2987,1002,meters,jsons/v1_VE1000_randls_32.json,608683,705679,25,Man
119,631508,DepthScenes,duration_manipulation_targetAtFixation,jsons/v1_VE1000_randls_32.json,http://54.235.29.9/FacialAge/BNav_EC2/DepthDuration/v2_depth_duration_MTurk/v2_DepthDuration_HTML.html#355,355,1366,625,1366,768,9-4-2022,11-43-7,120,depth_duration_stimuli/001032_2014-06-08_13-23-17_260595134347_rgbf000021-resize_3/001032_2014-06-08_13-23-17_260595134347_rgbf000021-resize_3-target.png,1000,3.2725,0,3104,1000,meters,jsons/v1_VE1000_randls_32.json,608683,705679,25,Man
120,631508,DepthScenes,duration_manipulation_targetAtFixation,jsons/v1_VE1000_randls_32.json,http://54.235.29.9/FacialAge/BNav_EC2/DepthDuration/v2_depth_duration_MTurk/v2_DepthDuration_HTML.html#355,355,1366,625,1366,768,9-4-2022,11-43-7,121,depth_duration_stimuli/001158_2014-06-17_15-32-16_260595134347_rgbf000138-resize_2/001158_2014-06-17_15-32-16_260595134347_rgbf000138-resize_2-target.png,1000,4.5315,0,2775,999,meters,jsons/v1_VE1000_randls_32.json,608683,705679,25,Man
121,631508,DepthScenes,duration_manipulation_targetAtFixation,jsons/v1_VE1000_randls_32.json,http://54.235.29.9/FacialAge/BNav_EC2/DepthDuration/v2_depth_duration_MTurk/v2_DepthDuration_HTML.html#355,355,1366,625,1366,768,9-4-2022,11-43-7,122,depth_duration_stimuli/000556_2014-06-09_22-42-56_260595134347_rgbf000214-resize_1/000556_2014-06-09_22-42-56_260595134347_rgbf000214-resize_1-target.png,1000,4.8415,0,2896,1000,meters,jsons/v1_VE1000_randls_32.json,608683,705679,25,Man
122,631508,DepthScenes,duration_manipulation_targetAtFixation,jsons/v1_VE1000_randls_32.json,http://54.235.29.9/FacialAge/BNav_EC2/DepthDuration/v2_depth_duration_MTurk/v2_DepthDuration_HTML.html#355,355,1366,625,1366,768,9-4-2022,11-43-7,123,depth_duration_stimuli/001164_2014-06-17_15-35-46_260595134347_rgbf000085-resize_3/001164_2014-06-17_15-35-46_260595134347_rgbf000085-resize_3-target.png,1000,2.354,0,2956,1000,meters,jsons/v1_VE1000_randls_32.json,608683,705679,25,Man
123,631508,DepthScenes,duration_manipulation_targetAtFixation,jsons/v1_VE1000_randls_32.json,http://54.235.29.9/FacialAge/BNav_EC2/DepthDuration/v2_depth_duration_MTurk/v2_DepthDuration_HTML.html#355,355,1366,625,1366,768,9-4-2022,11-43-7,124,depth_duration_stimuli/001136_2014-06-17_15-19-41_260595134347_rgbf000076-resize_3/001136_2014-06-17_15-19-41_260595134347_rgbf000076-resize_3-target.png,1000,1.8655,0,2991,1003,meters,jsons/v1_VE1000_randls_32.json,608683,705679,25,Man
124,631508,DepthScenes,duration_manipulation_targetAtFixation,jsons/v1_VE1000_randls_32.json,http://54.235.29.9/FacialAge/BNav_EC2/DepthDuration/v2_depth_duration_MTurk/v2_DepthDuration_HTML.html#355,355,1366,625,1366,768,9-4-2022,11-43-7,125,depth_duration_stimuli/001110_2014-06-15_17-25-28_260595134347_rgbf000150-resize_1/001110_2014-06-15_17-25-28_260595134347_rgbf000150-resize_1-target.png,1000,1.7115,0,3007,1000,meters,jsons/v1_VE1000_randls_32.json,608683,705679,25,Man
125,631508,DepthScenes,duration_manipulation_targetAtFixation,jsons/v1_VE1000_randls_32.json,http://54.235.29.9/FacialAge/BNav_EC2/DepthDuration/v2_depth_duration_MTurk/v2_DepthDuration_HTML.html#355,355,1366,625,1366,768,9-4-2022,11-43-7,126,depth_duration_stimuli/000927_2014-06-09_16-32-30_260595134347_rgbf000123-resize_3/000927_2014-06-09_16-32-30_260595134347_rgbf000123-resize_3-target.png,1000,2.6785,0,2819,1000,meters,jsons/v1_VE1000_randls_32.json,608683,705679,25,Man
126,631508,DepthScenes,duration_manipulation_targetAtFixation,jsons/v1_VE1000_randls_32.json,http://54.235.29.9/FacialAge/BNav_EC2/DepthDuration/v2_depth_duration_MTurk/v2_DepthDuration_HTML.html#355,355,1366,625,1366,768,9-4-2022,11-43-7,127,depth_duration_stimuli/000917_2014-06-09_22-45-29_260595134347_rgbf000149-resize_3/000917_2014-06-09_22-45-29_260595134347_rgbf000149-resize_3-target.png,1000,4.1865,0,3516,1002,meters,jsons/v1_VE1000_randls_32.json,608683,705679,25,Man
127,631508,DepthScenes,duration_manipulation_targetAtFixation,jsons/v1_VE1000_randls_32.json,http://54.235.29.9/FacialAge/BNav_EC2/DepthDuration/v2_depth_duration_MTurk/v2_DepthDuration_HTML.html#355,355,1366,625,1366,768,9-4-2022,11-43-7,128,depth_duration_stimuli/002323_2014-06-28_20-01-54_260595134347_rgbf000051-resize_4/002323_2014-06-28_20-01-54_260595134347_rgbf000051-resize_4-target.png,1000,3.7310000000000003,0,2785,999,meters,jsons/v1_VE1000_randls_32.json,608683,705679,25,Man
128,631508,DepthScenes,duration_manipulation_targetAtFixation,jsons/v1_VE1000_randls_32.json,http://54.235.29.9/FacialAge/BNav_EC2/DepthDuration/v2_depth_duration_MTurk/v2_DepthDuration_HTML.html#355,355,1366,625,1366,768,9-4-2022,11-43-7,129,depth_duration_stimuli/000368_2014-06-09_15-53-01_260595134347_rgbf000155-resize_2/000368_2014-06-09_15-53-01_260595134347_rgbf000155-resize_2-target.png,1000,2.4859999999999998,0,2921,999,meters,jsons/v1_VE1000_randls_32.json,608683,705679,25,Man
129,631508,DepthScenes,duration_manipulation_targetAtFixation,jsons/v1_VE1000_randls_32.json,http://54.235.29.9/FacialAge/BNav_EC2/DepthDuration/v2_depth_duration_MTurk/v2_DepthDuration_HTML.html#355,355,1366,625,1366,768,9-4-2022,11-43-7,130,depth_duration_stimuli/002678_2014-06-13_16-15-32_094959634447_rgbf000151-resize_6/002678_2014-06-13_16-15-32_094959634447_rgbf000151-resize_6-target.png,1000,2.1830000000000003,0,2995,1000,meters,jsons/v1_VE1000_randls_32.json,608683,705679,25,Man
130,631508,DepthScenes,duration_manipulation_targetAtFixation,jsons/v1_VE1000_randls_32.json,http://54.235.29.9/FacialAge/BNav_EC2/DepthDuration/v2_depth_duration_MTurk/v2_DepthDuration_HTML.html#355,355,1366,625,1366,768,9-4-2022,11-43-7,131,depth_duration_stimuli/000788_2014-06-08_22-34-36_260595134347_rgbf000131-resize_1/000788_2014-06-08_22-34-36_260595134347_rgbf000131-resize_1-target.png,1000,3.359,0,3015,999,meters,jsons/v1_VE1000_randls_32.json,608683,705679,25,Man
131,631508,DepthScenes,duration_manipulation_targetAtFixation,jsons/v1_VE1000_randls_32.json,http://54.235.29.9/FacialAge/BNav_EC2/DepthDuration/v2_depth_duration_MTurk/v2_DepthDuration_HTML.html#355,355,1366,625,1366,768,9-4-2022,11-43-7,132,depth_duration_stimuli/001235_2014-06-17_16-37-36_260595134347_rgbf000084-resize_4/001235_2014-06-17_16-37-36_260595134347_rgbf000084-resize_4-target.png,1000,3.6605,0,5285,1680,meters,jsons/v1_VE1000_randls_32.json,608683,705679,25,Man
132,631508,DepthScenes,duration_manipulation_targetAtFixation,jsons/v1_VE1000_randls_32.json,http://54.235.29.9/FacialAge/BNav_EC2/DepthDuration/v2_depth_duration_MTurk/v2_DepthDuration_HTML.html#355,355,1366,625,1366,768,9-4-2022,11-43-7,133,depth_duration_stimuli/002600_2014-06-24_14-27-04_094959634447_rgbf000074-resize_2/002600_2014-06-24_14-27-04_094959634447_rgbf000074-resize_2-target.png,1000,2.7575,0,3139,1000,meters,jsons/v1_VE1000_randls_32.json,608683,705679,25,Man
133,631508,DepthScenes,duration_manipulation_targetAtFixation,jsons/v1_VE1000_randls_32.json,http://54.235.29.9/FacialAge/BNav_EC2/DepthDuration/v2_depth_duration_MTurk/v2_DepthDuration_HTML.html#355,355,1366,625,1366,768,9-4-2022,11-43-7,134,depth_duration_stimuli/003228_2014-05-14_13-42-35_094959634447_rgbf000101-resize_1/003228_2014-05-14_13-42-35_094959634447_rgbf000101-resize_1-target.png,1000,1.9680000000000002,0,2996,1001,meters,jsons/v1_VE1000_randls_32.json,608683,705679,25,Man
134,631508,DepthScenes,duration_manipulation_targetAtFixation,jsons/v1_VE1000_randls_32.json,http://54.235.29.9/FacialAge/BNav_EC2/DepthDuration/v2_depth_duration_MTurk/v2_DepthDuration_HTML.html#355,355,1366,625,1366,768,9-4-2022,11-43-7,135,depth_duration_stimuli/002072_2014-06-24_21-48-06_260595134347_rgbf000115-resize_0/002072_2014-06-24_21-48-06_260595134347_rgbf000115-resize-original.jpg,1000,4.702,0,3146,1000,meters,jsons/v1_VE1000_randls_32.json,608683,705679,25,Man
135,631508,DepthScenes,duration_manipulation_targetAtFixation,jsons/v1_VE1000_randls_32.json,http://54.235.29.9/FacialAge/BNav_EC2/DepthDuration/v2_depth_duration_MTurk/v2_DepthDuration_HTML.html#355,355,1366,625,1366,768,9-4-2022,11-43-7,136,depth_duration_stimuli/002509_2014-06-24_13-19-22_094959634447_rgbf000077-resize_0/002509_2014-06-24_13-19-22_094959634447_rgbf000077-resize_0-target.png,1000,1.3065,0,3089,999,meters,jsons/v1_VE1000_randls_32.json,608683,705679,25,Man
136,631508,DepthScenes,duration_manipulation_targetAtFixation,jsons/v1_VE1000_randls_32.json,http://54.235.29.9/FacialAge/BNav_EC2/DepthDuration/v2_depth_duration_MTurk/v2_DepthDuration_HTML.html#355,355,1366,625,1366,768,9-4-2022,11-43-7,137,depth_duration_stimuli/003338_2014-05-20_11-01-23_094959634447_rgbf000051-resize_6/003338_2014-05-20_11-01-23_094959634447_rgbf000051-resize_6-target.png,1000,1.693,0,3069,1002,meters,jsons/v1_VE1000_randls_32.json,608683,705679,25,Man
137,631508,DepthScenes,duration_manipulation_targetAtFixation,jsons/v1_VE1000_randls_32.json,http://54.235.29.9/FacialAge/BNav_EC2/DepthDuration/v2_depth_duration_MTurk/v2_DepthDuration_HTML.html#355,355,1366,625,1366,768,9-4-2022,11-43-7,138,depth_duration_stimuli/002988_2014-06-15_12-24-20_094959634447_rgbf000150-resize_1/002988_2014-06-15_12-24-20_094959634447_rgbf000150-resize_1-target.png,1000,4.7669999999999995,0,3120,1000,meters,jsons/v1_VE1000_randls_32.json,608683,705679,25,Man
138,631508,DepthScenes,duration_manipulation_targetAtFixation,jsons/v1_VE1000_randls_32.json,http://54.235.29.9/FacialAge/BNav_EC2/DepthDuration/v2_depth_duration_MTurk/v2_DepthDuration_HTML.html#355,355,1366,625,1366,768,9-4-2022,11-43-7,139,depth_duration_stimuli/001052_2014-06-08_18-24-54_260595134347_rgbf000130-resize_1/001052_2014-06-08_18-24-54_260595134347_rgbf000130-resize_1-target.png,1000,4.1045,0,3010,1000,meters,jsons/v1_VE1000_randls_32.json,608683,705679,25,Man
139,631508,DepthScenes,duration_manipulation_targetAtFixation,jsons/v1_VE1000_randls_32.json,http://54.235.29.9/FacialAge/BNav_EC2/DepthDuration/v2_depth_duration_MTurk/v2_DepthDuration_HTML.html#355,355,1366,625,1366,768,9-4-2022,11-43-7,140,depth_duration_stimuli/002043_2014-06-24_20-29-38_260595134347_rgbf000039-resize_4/002043_2014-06-24_20-29-38_260595134347_rgbf000039-resize_4-target.png,1000,2.8435,0,2920,1000,meters,jsons/v1_VE1000_randls_32.json,608683,705679,25,Man
140,631508,DepthScenes,duration_manipulation_targetAtFixation,jsons/v1_VE1000_randls_32.json,http://54.235.29.9/FacialAge/BNav_EC2/DepthDuration/v2_depth_duration_MTurk/v2_DepthDuration_HTML.html#355,355,1366,625,1366,768,9-4-2022,11-43-7,141,depth_duration_stimuli/003048_2014-06-15_13-49-43_094959634447_rgbf000150-resize_1/003048_2014-06-15_13-49-43_094959634447_rgbf000150-resize_1-target.png,1000,4.0035,0,3279,999,meters,jsons/v1_VE1000_randls_32.json,608683,705679,25,Man
141,631508,DepthScenes,duration_manipulation_targetAtFixation,jsons/v1_VE1000_randls_32.json,http://54.235.29.9/FacialAge/BNav_EC2/DepthDuration/v2_depth_duration_MTurk/v2_DepthDuration_HTML.html#355,355,1366,625,1366,768,9-4-2022,11-43-7,142,depth_duration_stimuli/003492_2014-05-21_15-50-55_094959634447_rgbf000828-resize_1/003492_2014-05-21_15-50-55_094959634447_rgbf000828-resize_1-target.png,1000,4.06875,0,3239,999,meters,jsons/v1_VE1000_randls_32.json,608683,705679,25,Man
142,631508,DepthScenes,duration_manipulation_targetAtFixation,jsons/v1_VE1000_randls_32.json,http://54.235.29.9/FacialAge/BNav_EC2/DepthDuration/v2_depth_duration_MTurk/v2_DepthDuration_HTML.html#355,355,1366,625,1366,768,9-4-2022,11-43-7,143,depth_duration_stimuli/002568_2014-06-24_13-59-21_094959634447_rgbf000062-resize_4/002568_2014-06-24_13-59-21_094959634447_rgbf000062-resize_4-target.png,1000,3.015,0,3018,1000,meters,jsons/v1_VE1000_randls_32.json,608683,705679,25,Man
143,631508,DepthScenes,duration_manipulation_targetAtFixation,jsons/v1_VE1000_randls_32.json,http://54.235.29.9/FacialAge/BNav_EC2/DepthDuration/v2_depth_duration_MTurk/v2_DepthDuration_HTML.html#355,355,1366,625,1366,768,9-4-2022,11-43-7,144,depth_duration_stimuli/002663_2014-06-13_15-50-26_094959634447_rgbf000075-resize_1/002663_2014-06-13_15-50-26_094959634447_rgbf000075-resize_1-target.png,1000,4.7495,0,3239,1000,meters,jsons/v1_VE1000_randls_32.json,608683,705679,25,Man
144,631508,DepthScenes,duration_manipulation_targetAtFixation,jsons/v1_VE1000_randls_32.json,http://54.235.29.9/FacialAge/BNav_EC2/DepthDuration/v2_depth_duration_MTurk/v2_DepthDuration_HTML.html#355,355,1366,625,1366,768,9-4-2022,11-43-7,145,depth_duration_stimuli/000409_2014-06-04_19-23-33_260595134347_rgbf000067-resize_0/000409_2014-06-04_19-23-33_260595134347_rgbf000067-resize_0-target.png,1000,3.7335,0,3762,1000,meters,jsons/v1_VE1000_randls_32.json,608683,705679,25,Man
145,631508,DepthScenes,duration_manipulation_targetAtFixation,jsons/v1_VE1000_randls_32.json,http://54.235.29.9/FacialAge/BNav_EC2/DepthDuration/v2_depth_duration_MTurk/v2_DepthDuration_HTML.html#355,355,1366,625,1366,768,9-4-2022,11-43-7,146,depth_duration_stimuli/001498_2014-06-19_17-45-14_260595134347_rgbf000129-resize_4/001498_2014-06-19_17-45-14_260595134347_rgbf000129-resize-original.jpg,1000,1.4075,0,2912,999,meters,jsons/v1_VE1000_randls_32.json,608683,705679,25,Man
146,631508,DepthScenes,duration_manipulation_targetAtFixation,jsons/v1_VE1000_randls_32.json,http://54.235.29.9/FacialAge/BNav_EC2/DepthDuration/v2_depth_duration_MTurk/v2_DepthDuration_HTML.html#355,355,1366,625,1366,768,9-4-2022,11-43-7,147,depth_duration_stimuli/000878_2014-06-08_22-52-45_260595134347_rgbf000045-resize_2/000878_2014-06-08_22-52-45_260595134347_rgbf000045-resize_2-target.png,1000,2.092,0,4256,1000,meters,jsons/v1_VE1000_randls_32.json,608683,705679,25,Man
147,631508,DepthScenes,duration_manipulation_targetAtFixation,jsons/v1_VE1000_randls_32.json,http://54.235.29.9/FacialAge/BNav_EC2/DepthDuration/v2_depth_duration_MTurk/v2_DepthDuration_HTML.html#355,355,1366,625,1366,768,9-4-2022,11-43-7,148,depth_duration_stimuli/002953_2014-06-08_17-32-18_094959634447_rgbf000059-resize_5/002953_2014-06-08_17-32-18_094959634447_rgbf000059-resize_5-target.png,1000,1.551,0,4662,1000,meters,jsons/v1_VE1000_randls_32.json,608683,705679,25,Man
148,631508,DepthScenes,duration_manipulation_targetAtFixation,jsons/v1_VE1000_randls_32.json,http://54.235.29.9/FacialAge/BNav_EC2/DepthDuration/v2_depth_duration_MTurk/v2_DepthDuration_HTML.html#355,355,1366,625,1366,768,9-4-2022,11-43-7,149,depth_duration_stimuli/002630_2014-06-24_14-47-50_094959634447_rgbf000055-resize_1/002630_2014-06-24_14-47-50_094959634447_rgbf000055-resize_1-target.png,1000,3.0095,0,3016,1001,meters,jsons/v1_VE1000_randls_32.json,608683,705679,25,Man
149,631508,DepthScenes,duration_manipulation_targetAtFixation,jsons/v1_VE1000_randls_32.json,http://54.235.29.9/FacialAge/BNav_EC2/DepthDuration/v2_depth_duration_MTurk/v2_DepthDuration_HTML.html#355,355,1366,625,1366,768,9-4-2022,11-43-7,150,depth_duration_stimuli/002758_2014-06-22_19-11-20_094959634447_rgbf000128-resize_1/002758_2014-06-22_19-11-20_094959634447_rgbf000128-resize_1-target.png,1000,2.555,0,3205,1001,meters,jsons/v1_VE1000_randls_32.json,608683,705679,25,Man
150,631508,DepthScenes,duration_manipulation_targetAtFixation,jsons/v1_VE1000_randls_32.json,http://54.235.29.9/FacialAge/BNav_EC2/DepthDuration/v2_depth_duration_MTurk/v2_DepthDuration_HTML.html#355,355,1366,625,1366,768,9-4-2022,11-43-7,151,depth_duration_stimuli/000470_2014-06-09_19-42-40_260595134347_rgbf000094-resize_1/000470_2014-06-09_19-42-40_260595134347_rgbf000094-resize_1-target.png,1000,1.831,0,3013,1001,meters,jsons/v1_VE1000_randls_32.json,608683,705679,25,Man
151,631508,DepthScenes,duration_manipulation_targetAtFixation,jsons/v1_VE1000_randls_32.json,http://54.235.29.9/FacialAge/BNav_EC2/DepthDuration/v2_depth_duration_MTurk/v2_DepthDuration_HTML.html#355,355,1366,625,1366,768,9-4-2022,11-43-7,152,depth_duration_stimuli/000109_2014-05-14_23-41-52_260595134347_rgbf000035-resize_9/000109_2014-05-14_23-41-52_260595134347_rgbf000035-resize_9-target.png,1000,1.3545,0,3196,1001,meters,jsons/v1_VE1000_randls_32.json,608683,705679,25,Man
152,631508,DepthScenes,duration_manipulation_targetAtFixation,jsons/v1_VE1000_randls_32.json,http://54.235.29.9/FacialAge/BNav_EC2/DepthDuration/v2_depth_duration_MTurk/v2_DepthDuration_HTML.html#355,355,1366,625,1366,768,9-4-2022,11-43-7,153,depth_duration_stimuli/000506_2014-06-08_23-21-00_260595134347_rgbf000070-resize_7/000506_2014-06-08_23-21-00_260595134347_rgbf000070-resize_7-target.png,1000,4.0585,0,2870,1000,meters,jsons/v1_VE1000_randls_32.json,608683,705679,25,Man
153,631508,DepthScenes,duration_manipulation_targetAtFixation,jsons/v1_VE1000_randls_32.json,http://54.235.29.9/FacialAge/BNav_EC2/DepthDuration/v2_depth_duration_MTurk/v2_DepthDuration_HTML.html#355,355,1366,625,1366,768,9-4-2022,11-43-7,154,depth_duration_stimuli/003079_2014-06-15_15-18-20_094959634447_rgbf000152-resize_8/003079_2014-06-15_15-18-20_094959634447_rgbf000152-resize_8-target.png,1000,2.8775,0,3006,1000,meters,jsons/v1_VE1000_randls_32.json,608683,705679,25,Man
154,631508,DepthScenes,duration_manipulation_targetAtFixation,jsons/v1_VE1000_randls_32.json,http://54.235.29.9/FacialAge/BNav_EC2/DepthDuration/v2_depth_duration_MTurk/v2_DepthDuration_HTML.html#355,355,1366,625,1366,768,9-4-2022,11-43-7,155,depth_duration_stimuli/001056_2014-06-08_18-46-44_260595134347_rgbf000068-resize_0/001056_2014-06-08_18-46-44_260595134347_rgbf000068-resize_0-target.png,1000,2.6625,0,3005,999,meters,jsons/v1_VE1000_randls_32.json,608683,705679,25,Man
155,631508,DepthScenes,duration_manipulation_targetAtFixation,jsons/v1_VE1000_randls_32.json,http://54.235.29.9/FacialAge/BNav_EC2/DepthDuration/v2_depth_duration_MTurk/v2_DepthDuration_HTML.html#355,355,1366,625,1366,768,9-4-2022,11-43-7,156,depth_duration_stimuli/002199_2014-06-28_18-33-56_260595134347_rgbf000074-resize_0/002199_2014-06-28_18-33-56_260595134347_rgbf000074-resize_0-target.png,1000,1.996,0,2991,999,meters,jsons/v1_VE1000_randls_32.json,608683,705679,25,Man
156,631508,DepthScenes,duration_manipulation_targetAtFixation,jsons/v1_VE1000_randls_32.json,http://54.235.29.9/FacialAge/BNav_EC2/DepthDuration/v2_depth_duration_MTurk/v2_DepthDuration_HTML.html#355,355,1366,625,1366,768,9-4-2022,11-43-7,157,depth_duration_stimuli/001066_2014-06-08_22-03-20_260595134347_rgbf000066-resize_4/001066_2014-06-08_22-03-20_260595134347_rgbf000066-resize_4-target.png,1000,4.2330000000000005,0,2927,1001,meters,jsons/v1_VE1000_randls_32.json,608683,705679,25,Man
157,631508,DepthScenes,duration_manipulation_targetAtFixation,jsons/v1_VE1000_randls_32.json,http://54.235.29.9/FacialAge/BNav_EC2/DepthDuration/v2_depth_duration_MTurk/v2_DepthDuration_HTML.html#355,355,1366,625,1366,768,9-4-2022,11-43-7,158,depth_duration_stimuli/000742_2014-06-08_18-48-09_260595134347_rgbf000164-resize_4/000742_2014-06-08_18-48-09_260595134347_rgbf000164-resize_4-target.png,1000,4.632,0,3195,1001,meters,jsons/v1_VE1000_randls_32.json,608683,705679,25,Man
158,631508,DepthScenes,duration_manipulation_targetAtFixation,jsons/v1_VE1000_randls_32.json,http://54.235.29.9/FacialAge/BNav_EC2/DepthDuration/v2_depth_duration_MTurk/v2_DepthDuration_HTML.html#355,355,1366,625,1366,768,9-4-2022,11-43-7,159,depth_duration_stimuli/001555_2014-06-20_17-12-10_260595134347_rgbf000065-resize_4/001555_2014-06-20_17-12-10_260595134347_rgbf000065-resize_4-target.png,1000,1.633,0,3077,999,meters,jsons/v1_VE1000_randls_32.json,608683,705679,25,Man
159,631508,DepthScenes,duration_manipulation_targetAtFixation,jsons/v1_VE1000_randls_32.json,http://54.235.29.9/FacialAge/BNav_EC2/DepthDuration/v2_depth_duration_MTurk/v2_DepthDuration_HTML.html#355,355,1366,625,1366,768,9-4-2022,11-43-7,160,depth_duration_stimuli/000103_2014-05-14_22-01-17_260595134347_rgbf000152-resize_5/000103_2014-05-14_22-01-17_260595134347_rgbf000152-resize_5-target.png,1000,1.993,0,3581,999,meters,jsons/v1_VE1000_randls_32.json,608683,705679,25,Man
160,631508,DepthScenes,duration_manipulation_targetAtFixation,jsons/v1_VE1000_randls_32.json,http://54.235.29.9/FacialAge/BNav_EC2/DepthDuration/v2_depth_duration_MTurk/v2_DepthDuration_HTML.html#355,355,1366,625,1366,768,9-4-2022,11-43-7,161,depth_duration_stimuli/002118_2014-06-25_20-32-08_260595134347_rgbf000078-resize_1/002118_2014-06-25_20-32-08_260595134347_rgbf000078-resize_1-target.png,1000,2.6460000000000004,0,3023,999,meters,jsons/v1_VE1000_randls_32.json,608683,705679,25,Man
161,631508,DepthScenes,duration_manipulation_targetAtFixation,jsons/v1_VE1000_randls_32.json,http://54.235.29.9/FacialAge/BNav_EC2/DepthDuration/v2_depth_duration_MTurk/v2_DepthDuration_HTML.html#355,355,1366,625,1366,768,9-4-2022,11-43-7,162,depth_duration_stimuli/001516_2014-06-20_16-25-09_260595134347_rgbf000076-resize_2/001516_2014-06-20_16-25-09_260595134347_rgbf000076-resize_2-target.png,1000,1.7445,0,2940,1000,meters,jsons/v1_VE1000_randls_32.json,608683,705679,25,Man
162,631508,DepthScenes,duration_manipulation_targetAtFixation,jsons/v1_VE1000_randls_32.json,http://54.235.29.9/FacialAge/BNav_EC2/DepthDuration/v2_depth_duration_MTurk/v2_DepthDuration_HTML.html#355,355,1366,625,1366,768,9-4-2022,11-43-7,163,depth_duration_stimuli/000682_2014-06-08_23-14-58_260595134347_rgbf000041-resize_5/000682_2014-06-08_23-14-58_260595134347_rgbf000041-resize_5-target.png,1000,2.7239999999999998,0,3449,1000,meters,jsons/v1_VE1000_randls_32.json,608683,705679,25,Man
163,631508,DepthScenes,duration_manipulation_targetAtFixation,jsons/v1_VE1000_randls_32.json,http://54.235.29.9/FacialAge/BNav_EC2/DepthDuration/v2_depth_duration_MTurk/v2_DepthDuration_HTML.html#355,355,1366,625,1366,768,9-4-2022,11-43-7,164,depth_duration_stimuli/001650_2014-06-20_12-09-00_260595134347_rgbf000087-resize_3/001650_2014-06-20_12-09-00_260595134347_rgbf000087-resize_3-target.png,1000,1.9505,0,2950,1000,meters,jsons/v1_VE1000_randls_32.json,608683,705679,25,Man
