,subjID,experimentName,versionName,sequenceName,url,selected_row,windowWidth,windowHeight,screenWidth,screenHeight,startDate,startTime,trial,stimulus,duration,actual_depth,depth_estimate,trial_RT,log_sceneDuration,unitSelection,seq_filepath,experimentTime,totalTime,age,gender
0,631785,DepthScenes,duration_manipulation_targetAtFixation,jsons/v1_VE250_randls_26.json,http://54.235.29.9/FacialAge/BNav_EC2/DepthDuration/v2_depth_duration_MTurk/v2_DepthDuration_HTML.html#286,286,1920,1080,1920,1080,9-19-2022,19-21-50,1,depth_duration_stimuli/000810_2014-06-08_17-20-01_260595134347_rgbf000105-resize_0/000810_2014-06-08_17-20-01_260595134347_rgbf000105-resize_0-target.png,250,1.4865,4,3459,256,feet,jsons/v1_VE250_randls_26.json,603282,815324,47,Man
1,631785,DepthScenes,duration_manipulation_targetAtFixation,jsons/v1_VE250_randls_26.json,http://54.235.29.9/FacialAge/BNav_EC2/DepthDuration/v2_depth_duration_MTurk/v2_DepthDuration_HTML.html#286,286,1920,1080,1920,1080,9-19-2022,19-21-50,2,depth_duration_stimuli/001214_2014-06-17_16-13-55_260595134347_rgbf000111-resize_0/001214_2014-06-17_16-13-55_260595134347_rgbf000111-resize_0-target.png,250,2.6505,4,2824,248,feet,jsons/v1_VE250_randls_26.json,603282,815324,47,Man
2,631785,DepthScenes,duration_manipulation_targetAtFixation,jsons/v1_VE250_randls_26.json,http://54.235.29.9/FacialAge/BNav_EC2/DepthDuration/v2_depth_duration_MTurk/v2_DepthDuration_HTML.html#286,286,1920,1080,1920,1080,9-19-2022,19-21-50,3,depth_duration_stimuli/002213_2014-06-28_18-37-58_260595134347_rgbf000055-resize_1/002213_2014-06-28_18-37-58_260595134347_rgbf000055-resize_1-target.png,250,3.62,15,5356,247,feet,jsons/v1_VE250_randls_26.json,603282,815324,47,Man
3,631785,DepthScenes,duration_manipulation_targetAtFixation,jsons/v1_VE250_randls_26.json,http://54.235.29.9/FacialAge/BNav_EC2/DepthDuration/v2_depth_duration_MTurk/v2_DepthDuration_HTML.html#286,286,1920,1080,1920,1080,9-19-2022,19-21-50,4,depth_duration_stimuli/000691_2014-06-08_13-08-50_260595134347_rgbf000132-resize_3/000691_2014-06-08_13-08-50_260595134347_rgbf000132-resize_3-target.png,250,4.1530000000000005,12,3339,250,feet,jsons/v1_VE250_randls_26.json,603282,815324,47,Man
4,631785,DepthScenes,duration_manipulation_targetAtFixation,jsons/v1_VE250_randls_26.json,http://54.235.29.9/FacialAge/BNav_EC2/DepthDuration/v2_depth_duration_MTurk/v2_DepthDuration_HTML.html#286,286,1920,1080,1920,1080,9-19-2022,19-21-50,5,depth_duration_stimuli/002989_2014-06-15_12-25-03_094959634447_rgbf000150-resize_3/002989_2014-06-15_12-25-03_094959634447_rgbf000150-resize_3-target.png,250,4.1975,12,4389,248,feet,jsons/v1_VE250_randls_26.json,603282,815324,47,Man
5,631785,DepthScenes,duration_manipulation_targetAtFixation,jsons/v1_VE250_randls_26.json,http://54.235.29.9/FacialAge/BNav_EC2/DepthDuration/v2_depth_duration_MTurk/v2_DepthDuration_HTML.html#286,286,1920,1080,1920,1080,9-19-2022,19-21-50,6,depth_duration_stimuli/000866_2014-06-09_20-45-42_260595134347_rgbf000139-resize_1/000866_2014-06-09_20-45-42_260595134347_rgbf000139-resize_1-target.png,250,3.2155,5,3013,247,feet,jsons/v1_VE250_randls_26.json,603282,815324,47,Man
6,631785,DepthScenes,duration_manipulation_targetAtFixation,jsons/v1_VE250_randls_26.json,http://54.235.29.9/FacialAge/BNav_EC2/DepthDuration/v2_depth_duration_MTurk/v2_DepthDuration_HTML.html#286,286,1920,1080,1920,1080,9-19-2022,19-21-50,7,depth_duration_stimuli/002043_2014-06-24_20-29-38_260595134347_rgbf000039-resize_4/002043_2014-06-24_20-29-38_260595134347_rgbf000039-resize_4-target.png,250,2.8435,8,2797,248,feet,jsons/v1_VE250_randls_26.json,603282,815324,47,Man
7,631785,DepthScenes,duration_manipulation_targetAtFixation,jsons/v1_VE250_randls_26.json,http://54.235.29.9/FacialAge/BNav_EC2/DepthDuration/v2_depth_duration_MTurk/v2_DepthDuration_HTML.html#286,286,1920,1080,1920,1080,9-19-2022,19-21-50,8,depth_duration_stimuli/003048_2014-06-15_13-49-43_094959634447_rgbf000150-resize_1/003048_2014-06-15_13-49-43_094959634447_rgbf000150-resize_1-target.png,250,4.0035,9,3732,249,feet,jsons/v1_VE250_randls_26.json,603282,815324,47,Man
8,631785,DepthScenes,duration_manipulation_targetAtFixation,jsons/v1_VE250_randls_26.json,http://54.235.29.9/FacialAge/BNav_EC2/DepthDuration/v2_depth_duration_MTurk/v2_DepthDuration_HTML.html#286,286,1920,1080,1920,1080,9-19-2022,19-21-50,9,depth_duration_stimuli/001110_2014-06-15_17-25-28_260595134347_rgbf000150-resize_1/001110_2014-06-15_17-25-28_260595134347_rgbf000150-resize_1-target.png,250,1.7115,1,3059,247,feet,jsons/v1_VE250_randls_26.json,603282,815324,47,Man
9,631785,DepthScenes,duration_manipulation_targetAtFixation,jsons/v1_VE250_randls_26.json,http://54.235.29.9/FacialAge/BNav_EC2/DepthDuration/v2_depth_duration_MTurk/v2_DepthDuration_HTML.html#286,286,1920,1080,1920,1080,9-19-2022,19-21-50,10,depth_duration_stimuli/000927_2014-06-09_16-32-30_260595134347_rgbf000123-resize_3/000927_2014-06-09_16-32-30_260595134347_rgbf000123-resize_3-target.png,250,2.6785,6,3193,252,feet,jsons/v1_VE250_randls_26.json,603282,815324,47,Man
10,631785,DepthScenes,duration_manipulation_targetAtFixation,jsons/v1_VE250_randls_26.json,http://54.235.29.9/FacialAge/BNav_EC2/DepthDuration/v2_depth_duration_MTurk/v2_DepthDuration_HTML.html#286,286,1920,1080,1920,1080,9-19-2022,19-21-50,11,depth_duration_stimuli/000436_2014-06-09_22-25-11_260595134347_rgbf000137-resize_1/000436_2014-06-09_22-25-11_260595134347_rgbf000137-resize_1-target.png,250,4.0705,11,3002,250,feet,jsons/v1_VE250_randls_26.json,603282,815324,47,Man
11,631785,DepthScenes,duration_manipulation_targetAtFixation,jsons/v1_VE250_randls_26.json,http://54.235.29.9/FacialAge/BNav_EC2/DepthDuration/v2_depth_duration_MTurk/v2_DepthDuration_HTML.html#286,286,1920,1080,1920,1080,9-19-2022,19-21-50,12,depth_duration_stimuli/002444_2014-06-28_20-32-08_260595134347_rgbf000027-resize_0/002444_2014-06-28_20-32-08_260595134347_rgbf000027-resize_0-target.png,250,4.388999999999999,8,3526,248,feet,jsons/v1_VE250_randls_26.json,603282,815324,47,Man
12,631785,DepthScenes,duration_manipulation_targetAtFixation,jsons/v1_VE250_randls_26.json,http://54.235.29.9/FacialAge/BNav_EC2/DepthDuration/v2_depth_duration_MTurk/v2_DepthDuration_HTML.html#286,286,1920,1080,1920,1080,9-19-2022,19-21-50,13,depth_duration_stimuli/000569_2014-06-09_22-51-47_260595134347_rgbf000141-resize_3/000569_2014-06-09_22-51-47_260595134347_rgbf000141-resize-original.jpg,250,4.512,0,2995,264,feet,jsons/v1_VE250_randls_26.json,603282,815324,47,Man
13,631785,DepthScenes,duration_manipulation_targetAtFixation,jsons/v1_VE250_randls_26.json,http://54.235.29.9/FacialAge/BNav_EC2/DepthDuration/v2_depth_duration_MTurk/v2_DepthDuration_HTML.html#286,286,1920,1080,1920,1080,9-19-2022,19-21-50,14,depth_duration_stimuli/000493_2014-06-09_21-01-18_260595134347_rgbf000196-resize_3/000493_2014-06-09_21-01-18_260595134347_rgbf000196-resize_3-target.png,250,3.44,3,3975,249,feet,jsons/v1_VE250_randls_26.json,603282,815324,47,Man
14,631785,DepthScenes,duration_manipulation_targetAtFixation,jsons/v1_VE250_randls_26.json,http://54.235.29.9/FacialAge/BNav_EC2/DepthDuration/v2_depth_duration_MTurk/v2_DepthDuration_HTML.html#286,286,1920,1080,1920,1080,9-19-2022,19-21-50,15,depth_duration_stimuli/000191_2014-05-12_17-07-38_260595134347_rgbf000199-resize_0/000191_2014-05-12_17-07-38_260595134347_rgbf000199-resize_0-target.png,250,3.7995,8,3567,251,feet,jsons/v1_VE250_randls_26.json,603282,815324,47,Man
15,631785,DepthScenes,duration_manipulation_targetAtFixation,jsons/v1_VE250_randls_26.json,http://54.235.29.9/FacialAge/BNav_EC2/DepthDuration/v2_depth_duration_MTurk/v2_DepthDuration_HTML.html#286,286,1920,1080,1920,1080,9-19-2022,19-21-50,16,depth_duration_stimuli/000878_2014-06-08_22-52-45_260595134347_rgbf000045-resize_2/000878_2014-06-08_22-52-45_260595134347_rgbf000045-resize_2-target.png,250,2.092,2,3168,250,feet,jsons/v1_VE250_randls_26.json,603282,815324,47,Man
16,631785,DepthScenes,duration_manipulation_targetAtFixation,jsons/v1_VE250_randls_26.json,http://54.235.29.9/FacialAge/BNav_EC2/DepthDuration/v2_depth_duration_MTurk/v2_DepthDuration_HTML.html#286,286,1920,1080,1920,1080,9-19-2022,19-21-50,17,depth_duration_stimuli/002953_2014-06-08_17-32-18_094959634447_rgbf000059-resize_5/002953_2014-06-08_17-32-18_094959634447_rgbf000059-resize_5-target.png,250,1.551,1,2599,244,feet,jsons/v1_VE250_randls_26.json,603282,815324,47,Man
17,631785,DepthScenes,duration_manipulation_targetAtFixation,jsons/v1_VE250_randls_26.json,http://54.235.29.9/FacialAge/BNav_EC2/DepthDuration/v2_depth_duration_MTurk/v2_DepthDuration_HTML.html#286,286,1920,1080,1920,1080,9-19-2022,19-21-50,18,depth_duration_stimuli/000929_2014-06-09_16-33-19_260595134347_rgbf000139-resize_0/000929_2014-06-09_16-33-19_260595134347_rgbf000139-resize_0-target.png,250,2.8680000000000003,4,3015,248,feet,jsons/v1_VE250_randls_26.json,603282,815324,47,Man
18,631785,DepthScenes,duration_manipulation_targetAtFixation,jsons/v1_VE250_randls_26.json,http://54.235.29.9/FacialAge/BNav_EC2/DepthDuration/v2_depth_duration_MTurk/v2_DepthDuration_HTML.html#286,286,1920,1080,1920,1080,9-19-2022,19-21-50,19,depth_duration_stimuli/000457_2014-06-08_16-52-43_260595134347_rgbf000199-resize_1/000457_2014-06-08_16-52-43_260595134347_rgbf000199-resize_1-target.png,250,3.6489999999999996,7,2721,248,feet,jsons/v1_VE250_randls_26.json,603282,815324,47,Man
19,631785,DepthScenes,duration_manipulation_targetAtFixation,jsons/v1_VE250_randls_26.json,http://54.235.29.9/FacialAge/BNav_EC2/DepthDuration/v2_depth_duration_MTurk/v2_DepthDuration_HTML.html#286,286,1920,1080,1920,1080,9-19-2022,19-21-50,20,depth_duration_stimuli/002630_2014-06-24_14-47-50_094959634447_rgbf000055-resize_1/002630_2014-06-24_14-47-50_094959634447_rgbf000055-resize_1-target.png,250,3.0095,11,3875,248,feet,jsons/v1_VE250_randls_26.json,603282,815324,47,Man
20,631785,DepthScenes,duration_manipulation_targetAtFixation,jsons/v1_VE250_randls_26.json,http://54.235.29.9/FacialAge/BNav_EC2/DepthDuration/v2_depth_duration_MTurk/v2_DepthDuration_HTML.html#286,286,1920,1080,1920,1080,9-19-2022,19-21-50,21,depth_duration_stimuli/002758_2014-06-22_19-11-20_094959634447_rgbf000128-resize_1/002758_2014-06-22_19-11-20_094959634447_rgbf000128-resize_1-target.png,250,2.555,3,2678,249,feet,jsons/v1_VE250_randls_26.json,603282,815324,47,Man
21,631785,DepthScenes,duration_manipulation_targetAtFixation,jsons/v1_VE250_randls_26.json,http://54.235.29.9/FacialAge/BNav_EC2/DepthDuration/v2_depth_duration_MTurk/v2_DepthDuration_HTML.html#286,286,1920,1080,1920,1080,9-19-2022,19-21-50,22,depth_duration_stimuli/000368_2014-06-09_15-53-01_260595134347_rgbf000155-resize_2/000368_2014-06-09_15-53-01_260595134347_rgbf000155-resize_2-target.png,250,2.4859999999999998,3,3111,250,feet,jsons/v1_VE250_randls_26.json,603282,815324,47,Man
22,631785,DepthScenes,duration_manipulation_targetAtFixation,jsons/v1_VE250_randls_26.json,http://54.235.29.9/FacialAge/BNav_EC2/DepthDuration/v2_depth_duration_MTurk/v2_DepthDuration_HTML.html#286,286,1920,1080,1920,1080,9-19-2022,19-21-50,23,depth_duration_stimuli/002678_2014-06-13_16-15-32_094959634447_rgbf000151-resize_6/002678_2014-06-13_16-15-32_094959634447_rgbf000151-resize_6-target.png,250,2.1830000000000003,14,3787,252,feet,jsons/v1_VE250_randls_26.json,603282,815324,47,Man
23,631785,DepthScenes,duration_manipulation_targetAtFixation,jsons/v1_VE250_randls_26.json,http://54.235.29.9/FacialAge/BNav_EC2/DepthDuration/v2_depth_duration_MTurk/v2_DepthDuration_HTML.html#286,286,1920,1080,1920,1080,9-19-2022,19-21-50,24,depth_duration_stimuli/002784_2014-06-22_19-26-30_094959634447_rgbf000083-resize_3/002784_2014-06-22_19-26-30_094959634447_rgbf000083-resize_3-target.png,250,1.8046666666667,1,2605,258,feet,jsons/v1_VE250_randls_26.json,603282,815324,47,Man
24,631785,DepthScenes,duration_manipulation_targetAtFixation,jsons/v1_VE250_randls_26.json,http://54.235.29.9/FacialAge/BNav_EC2/DepthDuration/v2_depth_duration_MTurk/v2_DepthDuration_HTML.html#286,286,1920,1080,1920,1080,9-19-2022,19-21-50,25,depth_duration_stimuli/001100_2014-06-15_17-46-26_260595134347_rgbf000225-resize_2/001100_2014-06-15_17-46-26_260595134347_rgbf000225-resize_2-target.png,250,2.24,2,4180,249,feet,jsons/v1_VE250_randls_26.json,603282,815324,47,Man
25,631785,DepthScenes,duration_manipulation_targetAtFixation,jsons/v1_VE250_randls_26.json,http://54.235.29.9/FacialAge/BNav_EC2/DepthDuration/v2_depth_duration_MTurk/v2_DepthDuration_HTML.html#286,286,1920,1080,1920,1080,9-19-2022,19-21-50,26,depth_duration_stimuli/001150_2014-06-17_15-27-34_260595134347_rgbf000108-resize_2/001150_2014-06-17_15-27-34_260595134347_rgbf000108-resize_2-target.png,250,4.0325,4,2700,254,feet,jsons/v1_VE250_randls_26.json,603282,815324,47,Man
26,631785,DepthScenes,duration_manipulation_targetAtFixation,jsons/v1_VE250_randls_26.json,http://54.235.29.9/FacialAge/BNav_EC2/DepthDuration/v2_depth_duration_MTurk/v2_DepthDuration_HTML.html#286,286,1920,1080,1920,1080,9-19-2022,19-21-50,27,depth_duration_stimuli/000665_2014-06-09_20-42-35_260595134347_rgbf000110-resize_1/000665_2014-06-09_20-42-35_260595134347_rgbf000110-resize_1-target.png,250,3.057,7,3308,248,feet,jsons/v1_VE250_randls_26.json,603282,815324,47,Man
27,631785,DepthScenes,duration_manipulation_targetAtFixation,jsons/v1_VE250_randls_26.json,http://54.235.29.9/FacialAge/BNav_EC2/DepthDuration/v2_depth_duration_MTurk/v2_DepthDuration_HTML.html#286,286,1920,1080,1920,1080,9-19-2022,19-21-50,28,depth_duration_stimuli/001158_2014-06-17_15-32-16_260595134347_rgbf000138-resize_2/001158_2014-06-17_15-32-16_260595134347_rgbf000138-resize_2-target.png,250,4.5315,9,3092,249,feet,jsons/v1_VE250_randls_26.json,603282,815324,47,Man
28,631785,DepthScenes,duration_manipulation_targetAtFixation,jsons/v1_VE250_randls_26.json,http://54.235.29.9/FacialAge/BNav_EC2/DepthDuration/v2_depth_duration_MTurk/v2_DepthDuration_HTML.html#286,286,1920,1080,1920,1080,9-19-2022,19-21-50,29,depth_duration_stimuli/000556_2014-06-09_22-42-56_260595134347_rgbf000214-resize_1/000556_2014-06-09_22-42-56_260595134347_rgbf000214-resize_1-target.png,250,4.8415,9,3212,264,feet,jsons/v1_VE250_randls_26.json,603282,815324,47,Man
29,631785,DepthScenes,duration_manipulation_targetAtFixation,jsons/v1_VE250_randls_26.json,http://54.235.29.9/FacialAge/BNav_EC2/DepthDuration/v2_depth_duration_MTurk/v2_DepthDuration_HTML.html#286,286,1920,1080,1920,1080,9-19-2022,19-21-50,30,depth_duration_stimuli/000375_2014-06-08_11-17-29_260595134347_rgbf000133-resize_2/000375_2014-06-08_11-17-29_260595134347_rgbf000133-resize-original.jpg,250,4.718,0,2458,249,feet,jsons/v1_VE250_randls_26.json,603282,815324,47,Man
30,631785,DepthScenes,duration_manipulation_targetAtFixation,jsons/v1_VE250_randls_26.json,http://54.235.29.9/FacialAge/BNav_EC2/DepthDuration/v2_depth_duration_MTurk/v2_DepthDuration_HTML.html#286,286,1920,1080,1920,1080,9-19-2022,19-21-50,31,depth_duration_stimuli/002445_2014-06-28_20-32-16_260595134347_rgbf000029-resize_4/002445_2014-06-28_20-32-16_260595134347_rgbf000029-resize_4-target.png,250,2.5315,2,2648,263,feet,jsons/v1_VE250_randls_26.json,603282,815324,47,Man
31,631785,DepthScenes,duration_manipulation_targetAtFixation,jsons/v1_VE250_randls_26.json,http://54.235.29.9/FacialAge/BNav_EC2/DepthDuration/v2_depth_duration_MTurk/v2_DepthDuration_HTML.html#286,286,1920,1080,1920,1080,9-19-2022,19-21-50,32,depth_duration_stimuli/000780_2014-06-08_22-28-29_260595134347_rgbf000126-resize_1/000780_2014-06-08_22-28-29_260595134347_rgbf000126-resize_1-target.png,250,3.3825,7,2742,248,feet,jsons/v1_VE250_randls_26.json,603282,815324,47,Man
32,631785,DepthScenes,duration_manipulation_targetAtFixation,jsons/v1_VE250_randls_26.json,http://54.235.29.9/FacialAge/BNav_EC2/DepthDuration/v2_depth_duration_MTurk/v2_DepthDuration_HTML.html#286,286,1920,1080,1920,1080,9-19-2022,19-21-50,33,depth_duration_stimuli/002788_2014-06-22_19-36-03_094959634447_rgbf000088-resize_2/002788_2014-06-22_19-36-03_094959634447_rgbf000088-resize_2-target.png,250,1.6465,4,3191,250,feet,jsons/v1_VE250_randls_26.json,603282,815324,47,Man
33,631785,DepthScenes,duration_manipulation_targetAtFixation,jsons/v1_VE250_randls_26.json,http://54.235.29.9/FacialAge/BNav_EC2/DepthDuration/v2_depth_duration_MTurk/v2_DepthDuration_HTML.html#286,286,1920,1080,1920,1080,9-19-2022,19-21-50,34,depth_duration_stimuli/000749_2014-06-08_21-55-06_260595134347_rgbf000070-resize_2/000749_2014-06-08_21-55-06_260595134347_rgbf000070-resize_2-target.png,250,2.331,4,2763,249,feet,jsons/v1_VE250_randls_26.json,603282,815324,47,Man
34,631785,DepthScenes,duration_manipulation_targetAtFixation,jsons/v1_VE250_randls_26.json,http://54.235.29.9/FacialAge/BNav_EC2/DepthDuration/v2_depth_duration_MTurk/v2_DepthDuration_HTML.html#286,286,1920,1080,1920,1080,9-19-2022,19-21-50,35,depth_duration_stimuli/002057_2014-06-24_21-00-13_260595134347_rgbf000120-resize_1/002057_2014-06-24_21-00-13_260595134347_rgbf000120-resize_1-target.png,250,2.967,7,2750,249,feet,jsons/v1_VE250_randls_26.json,603282,815324,47,Man
35,631785,DepthScenes,duration_manipulation_targetAtFixation,jsons/v1_VE250_randls_26.json,http://54.235.29.9/FacialAge/BNav_EC2/DepthDuration/v2_depth_duration_MTurk/v2_DepthDuration_HTML.html#286,286,1920,1080,1920,1080,9-19-2022,19-21-50,36,depth_duration_stimuli/000709_2014-06-08_13-51-55_260595134347_rgbf000068-resize_3/000709_2014-06-08_13-51-55_260595134347_rgbf000068-resize_3-target.png,250,1.8030000000000002,2,2591,250,feet,jsons/v1_VE250_randls_26.json,603282,815324,47,Man
36,631785,DepthScenes,duration_manipulation_targetAtFixation,jsons/v1_VE250_randls_26.json,http://54.235.29.9/FacialAge/BNav_EC2/DepthDuration/v2_depth_duration_MTurk/v2_DepthDuration_HTML.html#286,286,1920,1080,1920,1080,9-19-2022,19-21-50,37,depth_duration_stimuli/000906_2014-06-08_13-35-43_260595134347_rgbf000155-resize_1/000906_2014-06-08_13-35-43_260595134347_rgbf000155-resize_1-target.png,250,2.8489999999999998,6,2480,247,feet,jsons/v1_VE250_randls_26.json,603282,815324,47,Man
37,631785,DepthScenes,duration_manipulation_targetAtFixation,jsons/v1_VE250_randls_26.json,http://54.235.29.9/FacialAge/BNav_EC2/DepthDuration/v2_depth_duration_MTurk/v2_DepthDuration_HTML.html#286,286,1920,1080,1920,1080,9-19-2022,19-21-50,38,depth_duration_stimuli/002805_2014-06-22_19-54-03_094959634447_rgbf000079-resize_1/002805_2014-06-22_19-54-03_094959634447_rgbf000079-resize_1-target.png,250,3.1439999999999997,9,2520,251,feet,jsons/v1_VE250_randls_26.json,603282,815324,47,Man
38,631785,DepthScenes,duration_manipulation_targetAtFixation,jsons/v1_VE250_randls_26.json,http://54.235.29.9/FacialAge/BNav_EC2/DepthDuration/v2_depth_duration_MTurk/v2_DepthDuration_HTML.html#286,286,1920,1080,1920,1080,9-19-2022,19-21-50,39,depth_duration_stimuli/002725_2014-06-22_11-47-51_094959634447_rgbf000070-resize_1/002725_2014-06-22_11-47-51_094959634447_rgbf000070-resize_1-target.png,250,2.195,5,3096,250,feet,jsons/v1_VE250_randls_26.json,603282,815324,47,Man
39,631785,DepthScenes,duration_manipulation_targetAtFixation,jsons/v1_VE250_randls_26.json,http://54.235.29.9/FacialAge/BNav_EC2/DepthDuration/v2_depth_duration_MTurk/v2_DepthDuration_HTML.html#286,286,1920,1080,1920,1080,9-19-2022,19-21-50,40,depth_duration_stimuli/002344_2014-06-28_20-06-29_260595134347_rgbf000030-resize_1/002344_2014-06-28_20-06-29_260595134347_rgbf000030-resize_1-target.png,250,1.5795,1,3250,258,feet,jsons/v1_VE250_randls_26.json,603282,815324,47,Man
40,631785,DepthScenes,duration_manipulation_targetAtFixation,jsons/v1_VE250_randls_26.json,http://54.235.29.9/FacialAge/BNav_EC2/DepthDuration/v2_depth_duration_MTurk/v2_DepthDuration_HTML.html#286,286,1920,1080,1920,1080,9-19-2022,19-21-50,41,depth_duration_stimuli/002549_2014-06-24_13-41-39_094959634447_rgbf000022-resize_3/002549_2014-06-24_13-41-39_094959634447_rgbf000022-resize_3-target.png,250,1.476,1,8980,247,feet,jsons/v1_VE250_randls_26.json,603282,815324,47,Man
41,631785,DepthScenes,duration_manipulation_targetAtFixation,jsons/v1_VE250_randls_26.json,http://54.235.29.9/FacialAge/BNav_EC2/DepthDuration/v2_depth_duration_MTurk/v2_DepthDuration_HTML.html#286,286,1920,1080,1920,1080,9-19-2022,19-21-50,42,depth_duration_stimuli/002750_2014-06-22_19-08-03_094959634447_rgbf000094-resize_4/002750_2014-06-22_19-08-03_094959634447_rgbf000094-resize_4-target.png,250,2.354,4,3946,259,feet,jsons/v1_VE250_randls_26.json,603282,815324,47,Man
42,631785,DepthScenes,duration_manipulation_targetAtFixation,jsons/v1_VE250_randls_26.json,http://54.235.29.9/FacialAge/BNav_EC2/DepthDuration/v2_depth_duration_MTurk/v2_DepthDuration_HTML.html#286,286,1920,1080,1920,1080,9-19-2022,19-21-50,43,depth_duration_stimuli/003070_2014-06-15_14-58-27_094959634447_rgbf000150-resize_3/003070_2014-06-15_14-58-27_094959634447_rgbf000150-resize_3-target.png,250,2.9415,5,2918,263,feet,jsons/v1_VE250_randls_26.json,603282,815324,47,Man
43,631785,DepthScenes,duration_manipulation_targetAtFixation,jsons/v1_VE250_randls_26.json,http://54.235.29.9/FacialAge/BNav_EC2/DepthDuration/v2_depth_duration_MTurk/v2_DepthDuration_HTML.html#286,286,1920,1080,1920,1080,9-19-2022,19-21-50,44,depth_duration_stimuli/000943_2014-06-09_19-31-07_260595134347_rgbf000128-resize_1/000943_2014-06-09_19-31-07_260595134347_rgbf000128-resize_1-target.png,250,1.9765,2,2758,250,feet,jsons/v1_VE250_randls_26.json,603282,815324,47,Man
44,631785,DepthScenes,duration_manipulation_targetAtFixation,jsons/v1_VE250_randls_26.json,http://54.235.29.9/FacialAge/BNav_EC2/DepthDuration/v2_depth_duration_MTurk/v2_DepthDuration_HTML.html#286,286,1920,1080,1920,1080,9-19-2022,19-21-50,45,depth_duration_stimuli/000787_2014-06-08_22-33-53_260595134347_rgbf000175-resize_1/000787_2014-06-08_22-33-53_260595134347_rgbf000175-resize-original.jpg,250,4.784,0,2726,247,feet,jsons/v1_VE250_randls_26.json,603282,815324,47,Man
45,631785,DepthScenes,duration_manipulation_targetAtFixation,jsons/v1_VE250_randls_26.json,http://54.235.29.9/FacialAge/BNav_EC2/DepthDuration/v2_depth_duration_MTurk/v2_DepthDuration_HTML.html#286,286,1920,1080,1920,1080,9-19-2022,19-21-50,46,depth_duration_stimuli/001555_2014-06-20_17-12-10_260595134347_rgbf000065-resize_4/001555_2014-06-20_17-12-10_260595134347_rgbf000065-resize_4-target.png,250,1.633,1,2610,249,feet,jsons/v1_VE250_randls_26.json,603282,815324,47,Man
46,631785,DepthScenes,duration_manipulation_targetAtFixation,jsons/v1_VE250_randls_26.json,http://54.235.29.9/FacialAge/BNav_EC2/DepthDuration/v2_depth_duration_MTurk/v2_DepthDuration_HTML.html#286,286,1920,1080,1920,1080,9-19-2022,19-21-50,47,depth_duration_stimuli/000103_2014-05-14_22-01-17_260595134347_rgbf000152-resize_5/000103_2014-05-14_22-01-17_260595134347_rgbf000152-resize_5-target.png,250,1.993,3,2757,246,feet,jsons/v1_VE250_randls_26.json,603282,815324,47,Man
47,631785,DepthScenes,duration_manipulation_targetAtFixation,jsons/v1_VE250_randls_26.json,http://54.235.29.9/FacialAge/BNav_EC2/DepthDuration/v2_depth_duration_MTurk/v2_DepthDuration_HTML.html#286,286,1920,1080,1920,1080,9-19-2022,19-21-50,48,depth_duration_stimuli/002600_2014-06-24_14-27-04_094959634447_rgbf000074-resize_2/002600_2014-06-24_14-27-04_094959634447_rgbf000074-resize_2-target.png,250,2.7575,3,1821,248,feet,jsons/v1_VE250_randls_26.json,603282,815324,47,Man
48,631785,DepthScenes,duration_manipulation_targetAtFixation,jsons/v1_VE250_randls_26.json,http://54.235.29.9/FacialAge/BNav_EC2/DepthDuration/v2_depth_duration_MTurk/v2_DepthDuration_HTML.html#286,286,1920,1080,1920,1080,9-19-2022,19-21-50,49,depth_duration_stimuli/003228_2014-05-14_13-42-35_094959634447_rgbf000101-resize_1/003228_2014-05-14_13-42-35_094959634447_rgbf000101-resize_1-target.png,250,1.9680000000000002,2,1867,250,feet,jsons/v1_VE250_randls_26.json,603282,815324,47,Man
49,631785,DepthScenes,duration_manipulation_targetAtFixation,jsons/v1_VE250_randls_26.json,http://54.235.29.9/FacialAge/BNav_EC2/DepthDuration/v2_depth_duration_MTurk/v2_DepthDuration_HTML.html#286,286,1920,1080,1920,1080,9-19-2022,19-21-50,50,depth_duration_stimuli/002663_2014-06-13_15-50-26_094959634447_rgbf000075-resize_1/002663_2014-06-13_15-50-26_094959634447_rgbf000075-resize_1-target.png,250,4.7495,7,2511,248,feet,jsons/v1_VE250_randls_26.json,603282,815324,47,Man
50,631785,DepthScenes,duration_manipulation_targetAtFixation,jsons/v1_VE250_randls_26.json,http://54.235.29.9/FacialAge/BNav_EC2/DepthDuration/v2_depth_duration_MTurk/v2_DepthDuration_HTML.html#286,286,1920,1080,1920,1080,9-19-2022,19-21-50,51,depth_duration_stimuli/000409_2014-06-04_19-23-33_260595134347_rgbf000067-resize_0/000409_2014-06-04_19-23-33_260595134347_rgbf000067-resize_0-target.png,250,3.7335,7,1889,248,feet,jsons/v1_VE250_randls_26.json,603282,815324,47,Man
51,631785,DepthScenes,duration_manipulation_targetAtFixation,jsons/v1_VE250_randls_26.json,http://54.235.29.9/FacialAge/BNav_EC2/DepthDuration/v2_depth_duration_MTurk/v2_DepthDuration_HTML.html#286,286,1920,1080,1920,1080,9-19-2022,19-21-50,52,depth_duration_stimuli/000788_2014-06-08_22-34-36_260595134347_rgbf000131-resize_1/000788_2014-06-08_22-34-36_260595134347_rgbf000131-resize_1-target.png,250,3.359,6,2780,249,feet,jsons/v1_VE250_randls_26.json,603282,815324,47,Man
52,631785,DepthScenes,duration_manipulation_targetAtFixation,jsons/v1_VE250_randls_26.json,http://54.235.29.9/FacialAge/BNav_EC2/DepthDuration/v2_depth_duration_MTurk/v2_DepthDuration_HTML.html#286,286,1920,1080,1920,1080,9-19-2022,19-21-50,53,depth_duration_stimuli/001235_2014-06-17_16-37-36_260595134347_rgbf000084-resize_4/001235_2014-06-17_16-37-36_260595134347_rgbf000084-resize_4-target.png,250,3.6605,7,2529,250,feet,jsons/v1_VE250_randls_26.json,603282,815324,47,Man
53,631785,DepthScenes,duration_manipulation_targetAtFixation,jsons/v1_VE250_randls_26.json,http://54.235.29.9/FacialAge/BNav_EC2/DepthDuration/v2_depth_duration_MTurk/v2_DepthDuration_HTML.html#286,286,1920,1080,1920,1080,9-19-2022,19-21-50,54,depth_duration_stimuli/001810_2014-06-26_20-51-35_260595134347_rgbf000040-resize_3/001810_2014-06-26_20-51-35_260595134347_rgbf000040-resize_3-target.png,250,2.2525,3,2675,248,feet,jsons/v1_VE250_randls_26.json,603282,815324,47,Man
54,631785,DepthScenes,duration_manipulation_targetAtFixation,jsons/v1_VE250_randls_26.json,http://54.235.29.9/FacialAge/BNav_EC2/DepthDuration/v2_depth_duration_MTurk/v2_DepthDuration_HTML.html#286,286,1920,1080,1920,1080,9-19-2022,19-21-50,55,depth_duration_stimuli/003010_2014-06-15_12-54-35_094959634447_rgbf000112-resize_0/003010_2014-06-15_12-54-35_094959634447_rgbf000112-resize_0-target.png,250,3.1185,10,3700,249,feet,jsons/v1_VE250_randls_26.json,603282,815324,47,Man
55,631785,DepthScenes,duration_manipulation_targetAtFixation,jsons/v1_VE250_randls_26.json,http://54.235.29.9/FacialAge/BNav_EC2/DepthDuration/v2_depth_duration_MTurk/v2_DepthDuration_HTML.html#286,286,1920,1080,1920,1080,9-19-2022,19-21-50,56,depth_duration_stimuli/001570_2014-06-20_17-21-09_260595134347_rgbf000135-resize_4/001570_2014-06-20_17-21-09_260595134347_rgbf000135-resize_4-target.png,250,4.467,12,4047,249,feet,jsons/v1_VE250_randls_26.json,603282,815324,47,Man
56,631785,DepthScenes,duration_manipulation_targetAtFixation,jsons/v1_VE250_randls_26.json,http://54.235.29.9/FacialAge/BNav_EC2/DepthDuration/v2_depth_duration_MTurk/v2_DepthDuration_HTML.html#286,286,1920,1080,1920,1080,9-19-2022,19-21-50,57,depth_duration_stimuli/001392_2014-06-19_16-07-59_260595134347_rgbf000046-resize_1/001392_2014-06-19_16-07-59_260595134347_rgbf000046-resize_1-target.png,250,4.135,9,11463,255,feet,jsons/v1_VE250_randls_26.json,603282,815324,47,Man
57,631785,DepthScenes,duration_manipulation_targetAtFixation,jsons/v1_VE250_randls_26.json,http://54.235.29.9/FacialAge/BNav_EC2/DepthDuration/v2_depth_duration_MTurk/v2_DepthDuration_HTML.html#286,286,1920,1080,1920,1080,9-19-2022,19-21-50,58,depth_duration_stimuli/001133_2014-06-17_14-49-16_260595134347_rgbf000100-resize_0/001133_2014-06-17_14-49-16_260595134347_rgbf000100-resize_0-target.png,250,4.2115,9,7734,251,feet,jsons/v1_VE250_randls_26.json,603282,815324,47,Man
58,631785,DepthScenes,duration_manipulation_targetAtFixation,jsons/v1_VE250_randls_26.json,http://54.235.29.9/FacialAge/BNav_EC2/DepthDuration/v2_depth_duration_MTurk/v2_DepthDuration_HTML.html#286,286,1920,1080,1920,1080,9-19-2022,19-21-50,59,depth_duration_stimuli/001132_2014-06-17_14-48-54_260595134347_rgbf000100-resize_2/001132_2014-06-17_14-48-54_260595134347_rgbf000100-resize_2-target.png,250,3.753,0,3504,265,feet,jsons/v1_VE250_randls_26.json,603282,815324,47,Man
59,631785,DepthScenes,duration_manipulation_targetAtFixation,jsons/v1_VE250_randls_26.json,http://54.235.29.9/FacialAge/BNav_EC2/DepthDuration/v2_depth_duration_MTurk/v2_DepthDuration_HTML.html#286,286,1920,1080,1920,1080,9-19-2022,19-21-50,60,depth_duration_stimuli/002118_2014-06-25_20-32-08_260595134347_rgbf000078-resize_1/002118_2014-06-25_20-32-08_260595134347_rgbf000078-resize_1-target.png,250,2.6460000000000004,3,2791,250,feet,jsons/v1_VE250_randls_26.json,603282,815324,47,Man
60,631785,DepthScenes,duration_manipulation_targetAtFixation,jsons/v1_VE250_randls_26.json,http://54.235.29.9/FacialAge/BNav_EC2/DepthDuration/v2_depth_duration_MTurk/v2_DepthDuration_HTML.html#286,286,1920,1080,1920,1080,9-19-2022,19-21-50,61,depth_duration_stimuli/001516_2014-06-20_16-25-09_260595134347_rgbf000076-resize_2/001516_2014-06-20_16-25-09_260595134347_rgbf000076-resize_2-target.png,250,1.7445,2,2162,248,feet,jsons/v1_VE250_randls_26.json,603282,815324,47,Man
61,631785,DepthScenes,duration_manipulation_targetAtFixation,jsons/v1_VE250_randls_26.json,http://54.235.29.9/FacialAge/BNav_EC2/DepthDuration/v2_depth_duration_MTurk/v2_DepthDuration_HTML.html#286,286,1920,1080,1920,1080,9-19-2022,19-21-50,62,depth_duration_stimuli/001806_2014-06-26_20-50-20_260595134347_rgbf000091-resize_1/001806_2014-06-26_20-50-20_260595134347_rgbf000091-resize_1-target.png,250,2.7305,2,2306,249,feet,jsons/v1_VE250_randls_26.json,603282,815324,47,Man
62,631785,DepthScenes,duration_manipulation_targetAtFixation,jsons/v1_VE250_randls_26.json,http://54.235.29.9/FacialAge/BNav_EC2/DepthDuration/v2_depth_duration_MTurk/v2_DepthDuration_HTML.html#286,286,1920,1080,1920,1080,9-19-2022,19-21-50,63,depth_duration_stimuli/001617_2014-06-20_11-35-32_260595134347_rgbf000066-resize_1/001617_2014-06-20_11-35-32_260595134347_rgbf000066-resize_1-target.png,250,3.7910000000000004,6,2693,247,feet,jsons/v1_VE250_randls_26.json,603282,815324,47,Man
63,631785,DepthScenes,duration_manipulation_targetAtFixation,jsons/v1_VE250_randls_26.json,http://54.235.29.9/FacialAge/BNav_EC2/DepthDuration/v2_depth_duration_MTurk/v2_DepthDuration_HTML.html#286,286,1920,1080,1920,1080,9-19-2022,19-21-50,64,depth_duration_stimuli/001066_2014-06-08_22-03-20_260595134347_rgbf000066-resize_4/001066_2014-06-08_22-03-20_260595134347_rgbf000066-resize_4-target.png,250,4.2330000000000005,14,3064,248,feet,jsons/v1_VE250_randls_26.json,603282,815324,47,Man
64,631785,DepthScenes,duration_manipulation_targetAtFixation,jsons/v1_VE250_randls_26.json,http://54.235.29.9/FacialAge/BNav_EC2/DepthDuration/v2_depth_duration_MTurk/v2_DepthDuration_HTML.html#286,286,1920,1080,1920,1080,9-19-2022,19-21-50,65,depth_duration_stimuli/000742_2014-06-08_18-48-09_260595134347_rgbf000164-resize_4/000742_2014-06-08_18-48-09_260595134347_rgbf000164-resize_4-target.png,250,4.632,10,2818,247,feet,jsons/v1_VE250_randls_26.json,603282,815324,47,Man
65,631785,DepthScenes,duration_manipulation_targetAtFixation,jsons/v1_VE250_randls_26.json,http://54.235.29.9/FacialAge/BNav_EC2/DepthDuration/v2_depth_duration_MTurk/v2_DepthDuration_HTML.html#286,286,1920,1080,1920,1080,9-19-2022,19-21-50,66,depth_duration_stimuli/001222_2014-06-17_16-24-06_260595134347_rgbf000073-resize_0/001222_2014-06-17_16-24-06_260595134347_rgbf000073-resize-original.jpg,250,1.4385,0,2768,249,feet,jsons/v1_VE250_randls_26.json,603282,815324,47,Man
66,631785,DepthScenes,duration_manipulation_targetAtFixation,jsons/v1_VE250_randls_26.json,http://54.235.29.9/FacialAge/BNav_EC2/DepthDuration/v2_depth_duration_MTurk/v2_DepthDuration_HTML.html#286,286,1920,1080,1920,1080,9-19-2022,19-21-50,67,depth_duration_stimuli/001244_2014-06-17_16-47-45_260595134347_rgbf000030-resize_4/001244_2014-06-17_16-47-45_260595134347_rgbf000030-resize_4-target.png,250,2.0425,2,3330,248,feet,jsons/v1_VE250_randls_26.json,603282,815324,47,Man
67,631785,DepthScenes,duration_manipulation_targetAtFixation,jsons/v1_VE250_randls_26.json,http://54.235.29.9/FacialAge/BNav_EC2/DepthDuration/v2_depth_duration_MTurk/v2_DepthDuration_HTML.html#286,286,1920,1080,1920,1080,9-19-2022,19-21-50,68,depth_duration_stimuli/003495_2014-05-21_16-01-51_094959634447_rgbf000100-resize_3/003495_2014-05-21_16-01-51_094959634447_rgbf000100-resize_3-target.png,250,1.6255,1,2504,250,feet,jsons/v1_VE250_randls_26.json,603282,815324,47,Man
68,631785,DepthScenes,duration_manipulation_targetAtFixation,jsons/v1_VE250_randls_26.json,http://54.235.29.9/FacialAge/BNav_EC2/DepthDuration/v2_depth_duration_MTurk/v2_DepthDuration_HTML.html#286,286,1920,1080,1920,1080,9-19-2022,19-21-50,69,depth_duration_stimuli/000522_2014-06-08_13-35-06_260595134347_rgbf000244-resize_1/000522_2014-06-08_13-35-06_260595134347_rgbf000244-resize_1-target.png,250,2.3715,1,2542,250,feet,jsons/v1_VE250_randls_26.json,603282,815324,47,Man
69,631785,DepthScenes,duration_manipulation_targetAtFixation,jsons/v1_VE250_randls_26.json,http://54.235.29.9/FacialAge/BNav_EC2/DepthDuration/v2_depth_duration_MTurk/v2_DepthDuration_HTML.html#286,286,1920,1080,1920,1080,9-19-2022,19-21-50,70,depth_duration_stimuli/002949_2014-06-26_15-57-42_094959634447_rgbf000079-resize_1/002949_2014-06-26_15-57-42_094959634447_rgbf000079-resize_1-target.png,250,1.8915,2,2460,249,feet,jsons/v1_VE250_randls_26.json,603282,815324,47,Man
70,631785,DepthScenes,duration_manipulation_targetAtFixation,jsons/v1_VE250_randls_26.json,http://54.235.29.9/FacialAge/BNav_EC2/DepthDuration/v2_depth_duration_MTurk/v2_DepthDuration_HTML.html#286,286,1920,1080,1920,1080,9-19-2022,19-21-50,71,depth_duration_stimuli/001167_2014-06-17_15-38-07_260595134347_rgbf000108-resize_0/001167_2014-06-17_15-38-07_260595134347_rgbf000108-resize_0-target.png,250,1.8505,2,3258,235,feet,jsons/v1_VE250_randls_26.json,603282,815324,47,Man
71,631785,DepthScenes,duration_manipulation_targetAtFixation,jsons/v1_VE250_randls_26.json,http://54.235.29.9/FacialAge/BNav_EC2/DepthDuration/v2_depth_duration_MTurk/v2_DepthDuration_HTML.html#286,286,1920,1080,1920,1080,9-19-2022,19-21-50,72,depth_duration_stimuli/003587_2014-05-23_16-48-02_094959634447_rgbf002384-resize_2/003587_2014-05-23_16-48-02_094959634447_rgbf002384-resize_2-target.png,250,1.357,1,2912,243,feet,jsons/v1_VE250_randls_26.json,603282,815324,47,Man
72,631785,DepthScenes,duration_manipulation_targetAtFixation,jsons/v1_VE250_randls_26.json,http://54.235.29.9/FacialAge/BNav_EC2/DepthDuration/v2_depth_duration_MTurk/v2_DepthDuration_HTML.html#286,286,1920,1080,1920,1080,9-19-2022,19-21-50,73,depth_duration_stimuli/000773_2014-06-08_22-24-54_260595134347_rgbf000093-resize_1/000773_2014-06-08_22-24-54_260595134347_rgbf000093-resize_1-target.png,250,4.973,7,2726,249,feet,jsons/v1_VE250_randls_26.json,603282,815324,47,Man
73,631785,DepthScenes,duration_manipulation_targetAtFixation,jsons/v1_VE250_randls_26.json,http://54.235.29.9/FacialAge/BNav_EC2/DepthDuration/v2_depth_duration_MTurk/v2_DepthDuration_HTML.html#286,286,1920,1080,1920,1080,9-19-2022,19-21-50,74,depth_duration_stimuli/002414_2014-06-28_20-24-58_260595134347_rgbf000067-resize_4/002414_2014-06-28_20-24-58_260595134347_rgbf000067-resize_4-target.png,250,4.363,8,2470,249,feet,jsons/v1_VE250_randls_26.json,603282,815324,47,Man
74,631785,DepthScenes,duration_manipulation_targetAtFixation,jsons/v1_VE250_randls_26.json,http://54.235.29.9/FacialAge/BNav_EC2/DepthDuration/v2_depth_duration_MTurk/v2_DepthDuration_HTML.html#286,286,1920,1080,1920,1080,9-19-2022,19-21-50,75,depth_duration_stimuli/000414_2014-06-04_19-49-13_260595134347_rgbf000044-resize_0/000414_2014-06-04_19-49-13_260595134347_rgbf000044-resize_0-target.png,250,4.329,8,2563,250,feet,jsons/v1_VE250_randls_26.json,603282,815324,47,Man
75,631785,DepthScenes,duration_manipulation_targetAtFixation,jsons/v1_VE250_randls_26.json,http://54.235.29.9/FacialAge/BNav_EC2/DepthDuration/v2_depth_duration_MTurk/v2_DepthDuration_HTML.html#286,286,1920,1080,1920,1080,9-19-2022,19-21-50,76,depth_duration_stimuli/003129_2014-05-12_10-48-10_094959634447_rgbf000100-resize_0/003129_2014-05-12_10-48-10_094959634447_rgbf000100-resize_0-target.png,250,4.9305,10,3603,249,feet,jsons/v1_VE250_randls_26.json,603282,815324,47,Man
76,631785,DepthScenes,duration_manipulation_targetAtFixation,jsons/v1_VE250_randls_26.json,http://54.235.29.9/FacialAge/BNav_EC2/DepthDuration/v2_depth_duration_MTurk/v2_DepthDuration_HTML.html#286,286,1920,1080,1920,1080,9-19-2022,19-21-50,77,depth_duration_stimuli/000739_2014-06-08_18-45-58_260595134347_rgbf000068-resize_1/000739_2014-06-08_18-45-58_260595134347_rgbf000068-resize_1-target.png,250,3.534,8,2998,247,feet,jsons/v1_VE250_randls_26.json,603282,815324,47,Man
77,631785,DepthScenes,duration_manipulation_targetAtFixation,jsons/v1_VE250_randls_26.json,http://54.235.29.9/FacialAge/BNav_EC2/DepthDuration/v2_depth_duration_MTurk/v2_DepthDuration_HTML.html#286,286,1920,1080,1920,1080,9-19-2022,19-21-50,78,depth_duration_stimuli/000734_2014-06-08_17-39-11_260595134347_rgbf000128-resize_2/000734_2014-06-08_17-39-11_260595134347_rgbf000128-resize_2-target.png,250,4.098,7,2804,249,feet,jsons/v1_VE250_randls_26.json,603282,815324,47,Man
78,631785,DepthScenes,duration_manipulation_targetAtFixation,jsons/v1_VE250_randls_26.json,http://54.235.29.9/FacialAge/BNav_EC2/DepthDuration/v2_depth_duration_MTurk/v2_DepthDuration_HTML.html#286,286,1920,1080,1920,1080,9-19-2022,19-21-50,79,depth_duration_stimuli/000469_2014-06-09_19-42-10_260595134347_rgbf000081-resize_1/000469_2014-06-09_19-42-10_260595134347_rgbf000081-resize_1-target.png,250,1.652,2,2506,248,feet,jsons/v1_VE250_randls_26.json,603282,815324,47,Man
79,631785,DepthScenes,duration_manipulation_targetAtFixation,jsons/v1_VE250_randls_26.json,http://54.235.29.9/FacialAge/BNav_EC2/DepthDuration/v2_depth_duration_MTurk/v2_DepthDuration_HTML.html#286,286,1920,1080,1920,1080,9-19-2022,19-21-50,80,depth_duration_stimuli/000483_2014-06-09_20-41-45_260595134347_rgbf000116-resize_4/000483_2014-06-09_20-41-45_260595134347_rgbf000116-resize_4-target.png,250,1.337,2,2207,258,feet,jsons/v1_VE250_randls_26.json,603282,815324,47,Man
80,631785,DepthScenes,duration_manipulation_targetAtFixation,jsons/v1_VE250_randls_26.json,http://54.235.29.9/FacialAge/BNav_EC2/DepthDuration/v2_depth_duration_MTurk/v2_DepthDuration_HTML.html#286,286,1920,1080,1920,1080,9-19-2022,19-21-50,81,depth_duration_stimuli/003534_2014-05-22_15-06-10_094959634447_rgbf000102-resize_4/003534_2014-05-22_15-06-10_094959634447_rgbf000102-resize_4-target.png,250,1.426,1,2904,249,feet,jsons/v1_VE250_randls_26.json,603282,815324,47,Man
81,631785,DepthScenes,duration_manipulation_targetAtFixation,jsons/v1_VE250_randls_26.json,http://54.235.29.9/FacialAge/BNav_EC2/DepthDuration/v2_depth_duration_MTurk/v2_DepthDuration_HTML.html#286,286,1920,1080,1920,1080,9-19-2022,19-21-50,82,depth_duration_stimuli/002637_2014-06-24_14-51-13_094959634447_rgbf000066-resize_4/002637_2014-06-24_14-51-13_094959634447_rgbf000066-resize_4-target.png,250,1.9955,4,3288,250,feet,jsons/v1_VE250_randls_26.json,603282,815324,47,Man
82,631785,DepthScenes,duration_manipulation_targetAtFixation,jsons/v1_VE250_randls_26.json,http://54.235.29.9/FacialAge/BNav_EC2/DepthDuration/v2_depth_duration_MTurk/v2_DepthDuration_HTML.html#286,286,1920,1080,1920,1080,9-19-2022,19-21-50,83,depth_duration_stimuli/000642_2014-06-08_16-59-25_260595134347_rgbf000098-resize_2/000642_2014-06-08_16-59-25_260595134347_rgbf000098-resize_2-target.png,250,2.8815,4,2592,248,feet,jsons/v1_VE250_randls_26.json,603282,815324,47,Man
83,631785,DepthScenes,duration_manipulation_targetAtFixation,jsons/v1_VE250_randls_26.json,http://54.235.29.9/FacialAge/BNav_EC2/DepthDuration/v2_depth_duration_MTurk/v2_DepthDuration_HTML.html#286,286,1920,1080,1920,1080,9-19-2022,19-21-50,84,depth_duration_stimuli/002425_2014-06-28_20-27-29_260595134347_rgbf000031-resize_8/002425_2014-06-28_20-27-29_260595134347_rgbf000031-resize_8-target.png,250,3.8960000000000004,8,2902,250,feet,jsons/v1_VE250_randls_26.json,603282,815324,47,Man
84,631785,DepthScenes,duration_manipulation_targetAtFixation,jsons/v1_VE250_randls_26.json,http://54.235.29.9/FacialAge/BNav_EC2/DepthDuration/v2_depth_duration_MTurk/v2_DepthDuration_HTML.html#286,286,1920,1080,1920,1080,9-19-2022,19-21-50,85,depth_duration_stimuli/001011_2014-06-08_23-18-54_260595134347_rgbf000044-resize_4/001011_2014-06-08_23-18-54_260595134347_rgbf000044-resize_4-target.png,250,2.4730000000000003,7,3290,247,feet,jsons/v1_VE250_randls_26.json,603282,815324,47,Man
85,631785,DepthScenes,duration_manipulation_targetAtFixation,jsons/v1_VE250_randls_26.json,http://54.235.29.9/FacialAge/BNav_EC2/DepthDuration/v2_depth_duration_MTurk/v2_DepthDuration_HTML.html#286,286,1920,1080,1920,1080,9-19-2022,19-21-50,86,depth_duration_stimuli/002875_2014-06-01_15-19-00_094959634447_rgbf000151-resize_1/002875_2014-06-01_15-19-00_094959634447_rgbf000151-resize_1-target.png,250,1.9675,2,2466,262,feet,jsons/v1_VE250_randls_26.json,603282,815324,47,Man
86,631785,DepthScenes,duration_manipulation_targetAtFixation,jsons/v1_VE250_randls_26.json,http://54.235.29.9/FacialAge/BNav_EC2/DepthDuration/v2_depth_duration_MTurk/v2_DepthDuration_HTML.html#286,286,1920,1080,1920,1080,9-19-2022,19-21-50,87,depth_duration_stimuli/001092_2014-06-15_17-34-58_260595134347_rgbf000171-resize_3/001092_2014-06-15_17-34-58_260595134347_rgbf000171-resize_3-target.png,250,2.6935,4,3327,251,feet,jsons/v1_VE250_randls_26.json,603282,815324,47,Man
87,631785,DepthScenes,duration_manipulation_targetAtFixation,jsons/v1_VE250_randls_26.json,http://54.235.29.9/FacialAge/BNav_EC2/DepthDuration/v2_depth_duration_MTurk/v2_DepthDuration_HTML.html#286,286,1920,1080,1920,1080,9-19-2022,19-21-50,88,depth_duration_stimuli/002545_2014-06-24_13-38-53_094959634447_rgbf000080-resize_4/002545_2014-06-24_13-38-53_094959634447_rgbf000080-resize_4-target.png,250,1.9205,4,3174,250,feet,jsons/v1_VE250_randls_26.json,603282,815324,47,Man
88,631785,DepthScenes,duration_manipulation_targetAtFixation,jsons/v1_VE250_randls_26.json,http://54.235.29.9/FacialAge/BNav_EC2/DepthDuration/v2_depth_duration_MTurk/v2_DepthDuration_HTML.html#286,286,1920,1080,1920,1080,9-19-2022,19-21-50,89,depth_duration_stimuli/002375_2014-06-28_20-13-44_260595134347_rgbf000032-resize_1/002375_2014-06-28_20-13-44_260595134347_rgbf000032-resize_1-target.png,250,4.0175,5,3999,247,feet,jsons/v1_VE250_randls_26.json,603282,815324,47,Man
89,631785,DepthScenes,duration_manipulation_targetAtFixation,jsons/v1_VE250_randls_26.json,http://54.235.29.9/FacialAge/BNav_EC2/DepthDuration/v2_depth_duration_MTurk/v2_DepthDuration_HTML.html#286,286,1920,1080,1920,1080,9-19-2022,19-21-50,90,depth_duration_stimuli/002657_2014-06-13_15-29-54_094959634447_rgbf000150-resize_1/002657_2014-06-13_15-29-54_094959634447_rgbf000150-resize_1-target.png,250,4.919,8,2632,257,feet,jsons/v1_VE250_randls_26.json,603282,815324,47,Man
90,631785,DepthScenes,duration_manipulation_targetAtFixation,jsons/v1_VE250_randls_26.json,http://54.235.29.9/FacialAge/BNav_EC2/DepthDuration/v2_depth_duration_MTurk/v2_DepthDuration_HTML.html#286,286,1920,1080,1920,1080,9-19-2022,19-21-50,91,depth_duration_stimuli/000682_2014-06-08_23-14-58_260595134347_rgbf000041-resize_5/000682_2014-06-08_23-14-58_260595134347_rgbf000041-resize_5-target.png,250,2.7239999999999998,7,2788,250,feet,jsons/v1_VE250_randls_26.json,603282,815324,47,Man
91,631785,DepthScenes,duration_manipulation_targetAtFixation,jsons/v1_VE250_randls_26.json,http://54.235.29.9/FacialAge/BNav_EC2/DepthDuration/v2_depth_duration_MTurk/v2_DepthDuration_HTML.html#286,286,1920,1080,1920,1080,9-19-2022,19-21-50,92,depth_duration_stimuli/001650_2014-06-20_12-09-00_260595134347_rgbf000087-resize_3/001650_2014-06-20_12-09-00_260595134347_rgbf000087-resize_3-target.png,250,1.9505,2,2630,249,feet,jsons/v1_VE250_randls_26.json,603282,815324,47,Man
92,631785,DepthScenes,duration_manipulation_targetAtFixation,jsons/v1_VE250_randls_26.json,http://54.235.29.9/FacialAge/BNav_EC2/DepthDuration/v2_depth_duration_MTurk/v2_DepthDuration_HTML.html#286,286,1920,1080,1920,1080,9-19-2022,19-21-50,93,depth_duration_stimuli/003292_2014-05-14_21-53-49_094959634447_rgbf000100-resize_2/003292_2014-05-14_21-53-49_094959634447_rgbf000100-resize_2-target.png,250,3.4815,6,2454,248,feet,jsons/v1_VE250_randls_26.json,603282,815324,47,Man
93,631785,DepthScenes,duration_manipulation_targetAtFixation,jsons/v1_VE250_randls_26.json,http://54.235.29.9/FacialAge/BNav_EC2/DepthDuration/v2_depth_duration_MTurk/v2_DepthDuration_HTML.html#286,286,1920,1080,1920,1080,9-19-2022,19-21-50,94,depth_duration_stimuli/002639_2014-06-24_14-51-37_094959634447_rgbf000074-resize_4/002639_2014-06-24_14-51-37_094959634447_rgbf000074-resize_4-target.png,250,4.0375,8,2868,247,feet,jsons/v1_VE250_randls_26.json,603282,815324,47,Man
94,631785,DepthScenes,duration_manipulation_targetAtFixation,jsons/v1_VE250_randls_26.json,http://54.235.29.9/FacialAge/BNav_EC2/DepthDuration/v2_depth_duration_MTurk/v2_DepthDuration_HTML.html#286,286,1920,1080,1920,1080,9-19-2022,19-21-50,95,depth_duration_stimuli/000486_2014-06-09_20-47-20_260595134347_rgbf000143-resize_2/000486_2014-06-09_20-47-20_260595134347_rgbf000143-resize_2-target.png,250,4.8325,7,4470,251,feet,jsons/v1_VE250_randls_26.json,603282,815324,47,Man
95,631785,DepthScenes,duration_manipulation_targetAtFixation,jsons/v1_VE250_randls_26.json,http://54.235.29.9/FacialAge/BNav_EC2/DepthDuration/v2_depth_duration_MTurk/v2_DepthDuration_HTML.html#286,286,1920,1080,1920,1080,9-19-2022,19-21-50,96,depth_duration_stimuli/003083_2014-06-15_15-21-03_094959634447_rgbf000063-resize_1/003083_2014-06-15_15-21-03_094959634447_rgbf000063-resize_1-target.png,250,4.1405,9,3422,248,feet,jsons/v1_VE250_randls_26.json,603282,815324,47,Man
96,631785,DepthScenes,duration_manipulation_targetAtFixation,jsons/v1_VE250_randls_26.json,http://54.235.29.9/FacialAge/BNav_EC2/DepthDuration/v2_depth_duration_MTurk/v2_DepthDuration_HTML.html#286,286,1920,1080,1920,1080,9-19-2022,19-21-50,97,depth_duration_stimuli/001175_2014-06-17_15-45-55_260595134347_rgbf000129-resize_4/001175_2014-06-17_15-45-55_260595134347_rgbf000129-resize_4-target.png,250,4.255,10,3483,250,feet,jsons/v1_VE250_randls_26.json,603282,815324,47,Man
97,631785,DepthScenes,duration_manipulation_targetAtFixation,jsons/v1_VE250_randls_26.json,http://54.235.29.9/FacialAge/BNav_EC2/DepthDuration/v2_depth_duration_MTurk/v2_DepthDuration_HTML.html#286,286,1920,1080,1920,1080,9-19-2022,19-21-50,98,depth_duration_stimuli/003490_2014-05-21_15-50-11_094959634447_rgbf000101-resize_3/003490_2014-05-21_15-50-11_094959634447_rgbf000101-resize_3-target.png,250,3.6445,8,3129,250,feet,jsons/v1_VE250_randls_26.json,603282,815324,47,Man
98,631785,DepthScenes,duration_manipulation_targetAtFixation,jsons/v1_VE250_randls_26.json,http://54.235.29.9/FacialAge/BNav_EC2/DepthDuration/v2_depth_duration_MTurk/v2_DepthDuration_HTML.html#286,286,1920,1080,1920,1080,9-19-2022,19-21-50,99,depth_duration_stimuli/001540_2014-06-20_17-01-05_260595134347_rgbf000086-resize_2/001540_2014-06-20_17-01-05_260595134347_rgbf000086-resize-original.jpg,250,1.459,0,3081,248,feet,jsons/v1_VE250_randls_26.json,603282,815324,47,Man
99,631785,DepthScenes,duration_manipulation_targetAtFixation,jsons/v1_VE250_randls_26.json,http://54.235.29.9/FacialAge/BNav_EC2/DepthDuration/v2_depth_duration_MTurk/v2_DepthDuration_HTML.html#286,286,1920,1080,1920,1080,9-19-2022,19-21-50,100,depth_duration_stimuli/001808_2014-06-26_20-50-58_260595134347_rgbf000029-resize_1/001808_2014-06-26_20-50-58_260595134347_rgbf000029-resize_1-target.png,250,4.249,8,2975,249,feet,jsons/v1_VE250_randls_26.json,603282,815324,47,Man
100,631785,DepthScenes,duration_manipulation_targetAtFixation,jsons/v1_VE250_randls_26.json,http://54.235.29.9/FacialAge/BNav_EC2/DepthDuration/v2_depth_duration_MTurk/v2_DepthDuration_HTML.html#286,286,1920,1080,1920,1080,9-19-2022,19-21-50,101,depth_duration_stimuli/001815_2014-06-26_20-52-55_260595134347_rgbf000020-resize_0/001815_2014-06-26_20-52-55_260595134347_rgbf000020-resize_0-target.png,250,3.3865,8,4321,262,feet,jsons/v1_VE250_randls_26.json,603282,815324,47,Man
101,631785,DepthScenes,duration_manipulation_targetAtFixation,jsons/v1_VE250_randls_26.json,http://54.235.29.9/FacialAge/BNav_EC2/DepthDuration/v2_depth_duration_MTurk/v2_DepthDuration_HTML.html#286,286,1920,1080,1920,1080,9-19-2022,19-21-50,102,depth_duration_stimuli/003492_2014-05-21_15-50-55_094959634447_rgbf000828-resize_1/003492_2014-05-21_15-50-55_094959634447_rgbf000828-resize_1-target.png,250,4.06875,10,4841,249,feet,jsons/v1_VE250_randls_26.json,603282,815324,47,Man
102,631785,DepthScenes,duration_manipulation_targetAtFixation,jsons/v1_VE250_randls_26.json,http://54.235.29.9/FacialAge/BNav_EC2/DepthDuration/v2_depth_duration_MTurk/v2_DepthDuration_HTML.html#286,286,1920,1080,1920,1080,9-19-2022,19-21-50,103,depth_duration_stimuli/002568_2014-06-24_13-59-21_094959634447_rgbf000062-resize_4/002568_2014-06-24_13-59-21_094959634447_rgbf000062-resize_4-target.png,250,3.015,7,3189,257,feet,jsons/v1_VE250_randls_26.json,603282,815324,47,Man
103,631785,DepthScenes,duration_manipulation_targetAtFixation,jsons/v1_VE250_randls_26.json,http://54.235.29.9/FacialAge/BNav_EC2/DepthDuration/v2_depth_duration_MTurk/v2_DepthDuration_HTML.html#286,286,1920,1080,1920,1080,9-19-2022,19-21-50,104,depth_duration_stimuli/003621_2014-05-23_18-06-08_094959634447_rgbf000101-resize_1/003621_2014-05-23_18-06-08_094959634447_rgbf000101-resize_1-target.png,250,3.9835,8,3158,241,feet,jsons/v1_VE250_randls_26.json,603282,815324,47,Man
104,631785,DepthScenes,duration_manipulation_targetAtFixation,jsons/v1_VE250_randls_26.json,http://54.235.29.9/FacialAge/BNav_EC2/DepthDuration/v2_depth_duration_MTurk/v2_DepthDuration_HTML.html#286,286,1920,1080,1920,1080,9-19-2022,19-21-50,105,depth_duration_stimuli/001584_2014-06-20_11-07-43_260595134347_rgbf000002-resize_1/001584_2014-06-20_11-07-43_260595134347_rgbf000002-resize_1-target.png,250,3.53,4,3000,250,feet,jsons/v1_VE250_randls_26.json,603282,815324,47,Man
105,631785,DepthScenes,duration_manipulation_targetAtFixation,jsons/v1_VE250_randls_26.json,http://54.235.29.9/FacialAge/BNav_EC2/DepthDuration/v2_depth_duration_MTurk/v2_DepthDuration_HTML.html#286,286,1920,1080,1920,1080,9-19-2022,19-21-50,106,depth_duration_stimuli/001059_2014-06-08_21-53-27_260595134347_rgbf000061-resize_4/001059_2014-06-08_21-53-27_260595134347_rgbf000061-resize_4-target.png,250,2.4185,5,3083,249,feet,jsons/v1_VE250_randls_26.json,603282,815324,47,Man
106,631785,DepthScenes,duration_manipulation_targetAtFixation,jsons/v1_VE250_randls_26.json,http://54.235.29.9/FacialAge/BNav_EC2/DepthDuration/v2_depth_duration_MTurk/v2_DepthDuration_HTML.html#286,286,1920,1080,1920,1080,9-19-2022,19-21-50,107,depth_duration_stimuli/001032_2014-06-08_13-23-17_260595134347_rgbf000021-resize_3/001032_2014-06-08_13-23-17_260595134347_rgbf000021-resize_3-target.png,250,3.2725,6,3287,264,feet,jsons/v1_VE250_randls_26.json,603282,815324,47,Man
107,631785,DepthScenes,duration_manipulation_targetAtFixation,jsons/v1_VE250_randls_26.json,http://54.235.29.9/FacialAge/BNav_EC2/DepthDuration/v2_depth_duration_MTurk/v2_DepthDuration_HTML.html#286,286,1920,1080,1920,1080,9-19-2022,19-21-50,108,depth_duration_stimuli/002748_2014-06-22_19-07-22_094959634447_rgbf000078-resize_1/002748_2014-06-22_19-07-22_094959634447_rgbf000078-resize_1-target.png,250,4.6705,10,3365,251,feet,jsons/v1_VE250_randls_26.json,603282,815324,47,Man
108,631785,DepthScenes,duration_manipulation_targetAtFixation,jsons/v1_VE250_randls_26.json,http://54.235.29.9/FacialAge/BNav_EC2/DepthDuration/v2_depth_duration_MTurk/v2_DepthDuration_HTML.html#286,286,1920,1080,1920,1080,9-19-2022,19-21-50,109,depth_duration_stimuli/002995_2014-06-15_12-31-26_094959634447_rgbf000150-resize_1/002995_2014-06-15_12-31-26_094959634447_rgbf000150-resize_1-target.png,250,3.8360000000000003,12,4809,250,feet,jsons/v1_VE250_randls_26.json,603282,815324,47,Man
109,631785,DepthScenes,duration_manipulation_targetAtFixation,jsons/v1_VE250_randls_26.json,http://54.235.29.9/FacialAge/BNav_EC2/DepthDuration/v2_depth_duration_MTurk/v2_DepthDuration_HTML.html#286,286,1920,1080,1920,1080,9-19-2022,19-21-50,110,depth_duration_stimuli/002763_2014-06-22_19-13-10_094959634447_rgbf000075-resize_4/002763_2014-06-22_19-13-10_094959634447_rgbf000075-resize_4-target.png,250,1.68375,3,3231,250,feet,jsons/v1_VE250_randls_26.json,603282,815324,47,Man
110,631785,DepthScenes,duration_manipulation_targetAtFixation,jsons/v1_VE250_randls_26.json,http://54.235.29.9/FacialAge/BNav_EC2/DepthDuration/v2_depth_duration_MTurk/v2_DepthDuration_HTML.html#286,286,1920,1080,1920,1080,9-19-2022,19-21-50,111,depth_duration_stimuli/002209_2014-06-28_18-36-10_260595134347_rgbf000051-resize_1/002209_2014-06-28_18-36-10_260595134347_rgbf000051-resize_1-target.png,250,2.057,3,2784,248,feet,jsons/v1_VE250_randls_26.json,603282,815324,47,Man
111,631785,DepthScenes,duration_manipulation_targetAtFixation,jsons/v1_VE250_randls_26.json,http://54.235.29.9/FacialAge/BNav_EC2/DepthDuration/v2_depth_duration_MTurk/v2_DepthDuration_HTML.html#286,286,1920,1080,1920,1080,9-19-2022,19-21-50,112,depth_duration_stimuli/001417_2014-06-19_16-25-36_260595134347_rgbf000115-resize_5/001417_2014-06-19_16-25-36_260595134347_rgbf000115-resize_5-target.png,250,4.6255,8,2609,248,feet,jsons/v1_VE250_randls_26.json,603282,815324,47,Man
112,631785,DepthScenes,duration_manipulation_targetAtFixation,jsons/v1_VE250_randls_26.json,http://54.235.29.9/FacialAge/BNav_EC2/DepthDuration/v2_depth_duration_MTurk/v2_DepthDuration_HTML.html#286,286,1920,1080,1920,1080,9-19-2022,19-21-50,113,depth_duration_stimuli/003081_2014-06-15_15-19-16_094959634447_rgbf000150-resize_1/003081_2014-06-15_15-19-16_094959634447_rgbf000150-resize_1-target.png,250,3.9125,8,3420,249,feet,jsons/v1_VE250_randls_26.json,603282,815324,47,Man
113,631785,DepthScenes,duration_manipulation_targetAtFixation,jsons/v1_VE250_randls_26.json,http://54.235.29.9/FacialAge/BNav_EC2/DepthDuration/v2_depth_duration_MTurk/v2_DepthDuration_HTML.html#286,286,1920,1080,1920,1080,9-19-2022,19-21-50,114,depth_duration_stimuli/001056_2014-06-08_18-46-44_260595134347_rgbf000068-resize_0/001056_2014-06-08_18-46-44_260595134347_rgbf000068-resize_0-target.png,250,2.6625,6,2881,263,feet,jsons/v1_VE250_randls_26.json,603282,815324,47,Man
114,631785,DepthScenes,duration_manipulation_targetAtFixation,jsons/v1_VE250_randls_26.json,http://54.235.29.9/FacialAge/BNav_EC2/DepthDuration/v2_depth_duration_MTurk/v2_DepthDuration_HTML.html#286,286,1920,1080,1920,1080,9-19-2022,19-21-50,115,depth_duration_stimuli/002199_2014-06-28_18-33-56_260595134347_rgbf000074-resize_0/002199_2014-06-28_18-33-56_260595134347_rgbf000074-resize_0-target.png,250,1.996,2,2908,249,feet,jsons/v1_VE250_randls_26.json,603282,815324,47,Man
115,631785,DepthScenes,duration_manipulation_targetAtFixation,jsons/v1_VE250_randls_26.json,http://54.235.29.9/FacialAge/BNav_EC2/DepthDuration/v2_depth_duration_MTurk/v2_DepthDuration_HTML.html#286,286,1920,1080,1920,1080,9-19-2022,19-21-50,116,depth_duration_stimuli/001170_2014-06-17_15-43-44_260595134347_rgbf000096-resize_6/001170_2014-06-17_15-43-44_260595134347_rgbf000096-resize-original.jpg,250,1.1909999999999998,0,2583,250,feet,jsons/v1_VE250_randls_26.json,603282,815324,47,Man
116,631785,DepthScenes,duration_manipulation_targetAtFixation,jsons/v1_VE250_randls_26.json,http://54.235.29.9/FacialAge/BNav_EC2/DepthDuration/v2_depth_duration_MTurk/v2_DepthDuration_HTML.html#286,286,1920,1080,1920,1080,9-19-2022,19-21-50,117,depth_duration_stimuli/001199_2014-06-17_16-03-48_260595134347_rgbf000077-resize_0/001199_2014-06-17_16-03-48_260595134347_rgbf000077-resize_0-target.png,250,3.4375,8,3519,257,feet,jsons/v1_VE250_randls_26.json,603282,815324,47,Man
117,631785,DepthScenes,duration_manipulation_targetAtFixation,jsons/v1_VE250_randls_26.json,http://54.235.29.9/FacialAge/BNav_EC2/DepthDuration/v2_depth_duration_MTurk/v2_DepthDuration_HTML.html#286,286,1920,1080,1920,1080,9-19-2022,19-21-50,118,depth_duration_stimuli/000502_2014-06-08_23-02-32_260595134347_rgbf000063-resize_4/000502_2014-06-08_23-02-32_260595134347_rgbf000063-resize_4-target.png,250,2.431,5,2809,249,feet,jsons/v1_VE250_randls_26.json,603282,815324,47,Man
118,631785,DepthScenes,duration_manipulation_targetAtFixation,jsons/v1_VE250_randls_26.json,http://54.235.29.9/FacialAge/BNav_EC2/DepthDuration/v2_depth_duration_MTurk/v2_DepthDuration_HTML.html#286,286,1920,1080,1920,1080,9-19-2022,19-21-50,119,depth_duration_stimuli/000506_2014-06-08_23-21-00_260595134347_rgbf000070-resize_7/000506_2014-06-08_23-21-00_260595134347_rgbf000070-resize_7-target.png,250,4.0585,9,3233,248,feet,jsons/v1_VE250_randls_26.json,603282,815324,47,Man
119,631785,DepthScenes,duration_manipulation_targetAtFixation,jsons/v1_VE250_randls_26.json,http://54.235.29.9/FacialAge/BNav_EC2/DepthDuration/v2_depth_duration_MTurk/v2_DepthDuration_HTML.html#286,286,1920,1080,1920,1080,9-19-2022,19-21-50,120,depth_duration_stimuli/003079_2014-06-15_15-18-20_094959634447_rgbf000152-resize_8/003079_2014-06-15_15-18-20_094959634447_rgbf000152-resize_8-target.png,250,2.8775,8,2593,249,feet,jsons/v1_VE250_randls_26.json,603282,815324,47,Man
120,631785,DepthScenes,duration_manipulation_targetAtFixation,jsons/v1_VE250_randls_26.json,http://54.235.29.9/FacialAge/BNav_EC2/DepthDuration/v2_depth_duration_MTurk/v2_DepthDuration_HTML.html#286,286,1920,1080,1920,1080,9-19-2022,19-21-50,121,depth_duration_stimuli/002964_2014-06-08_17-46-11_094959634447_rgbf000091-resize_4/002964_2014-06-08_17-46-11_094959634447_rgbf000091-resize_4-target.png,250,1.6909999999999998,2,2478,249,feet,jsons/v1_VE250_randls_26.json,603282,815324,47,Man
121,631785,DepthScenes,duration_manipulation_targetAtFixation,jsons/v1_VE250_randls_26.json,http://54.235.29.9/FacialAge/BNav_EC2/DepthDuration/v2_depth_duration_MTurk/v2_DepthDuration_HTML.html#286,286,1920,1080,1920,1080,9-19-2022,19-21-50,122,depth_duration_stimuli/002136_2014-06-25_21-18-03_260595134347_rgbf000109-resize_3/002136_2014-06-25_21-18-03_260595134347_rgbf000109-resize_3-target.png,250,1.9569999999999999,3,2544,246,feet,jsons/v1_VE250_randls_26.json,603282,815324,47,Man
122,631785,DepthScenes,duration_manipulation_targetAtFixation,jsons/v1_VE250_randls_26.json,http://54.235.29.9/FacialAge/BNav_EC2/DepthDuration/v2_depth_duration_MTurk/v2_DepthDuration_HTML.html#286,286,1920,1080,1920,1080,9-19-2022,19-21-50,123,depth_duration_stimuli/000736_2014-06-08_18-24-15_260595134347_rgbf000206-resize_3/000736_2014-06-08_18-24-15_260595134347_rgbf000206-resize_3-target.png,250,3.515,4,3490,253,feet,jsons/v1_VE250_randls_26.json,603282,815324,47,Man
123,631785,DepthScenes,duration_manipulation_targetAtFixation,jsons/v1_VE250_randls_26.json,http://54.235.29.9/FacialAge/BNav_EC2/DepthDuration/v2_depth_duration_MTurk/v2_DepthDuration_HTML.html#286,286,1920,1080,1920,1080,9-19-2022,19-21-50,124,depth_duration_stimuli/000137_2014-05-20_17-04-49_260595134347_rgbf000120-resize_1/000137_2014-05-20_17-04-49_260595134347_rgbf000120-resize_1-target.png,250,3.786,6,2622,248,feet,jsons/v1_VE250_randls_26.json,603282,815324,47,Man
124,631785,DepthScenes,duration_manipulation_targetAtFixation,jsons/v1_VE250_randls_26.json,http://54.235.29.9/FacialAge/BNav_EC2/DepthDuration/v2_depth_duration_MTurk/v2_DepthDuration_HTML.html#286,286,1920,1080,1920,1080,9-19-2022,19-21-50,125,depth_duration_stimuli/002570_2014-06-24_13-59-54_094959634447_rgbf000059-resize_0/002570_2014-06-24_13-59-54_094959634447_rgbf000059-resize_0-target.png,250,4.037,6,2835,249,feet,jsons/v1_VE250_randls_26.json,603282,815324,47,Man
125,631785,DepthScenes,duration_manipulation_targetAtFixation,jsons/v1_VE250_randls_26.json,http://54.235.29.9/FacialAge/BNav_EC2/DepthDuration/v2_depth_duration_MTurk/v2_DepthDuration_HTML.html#286,286,1920,1080,1920,1080,9-19-2022,19-21-50,126,depth_duration_stimuli/002467_2014-06-28_20-38-07_260595134347_rgbf000026-resize_2/002467_2014-06-28_20-38-07_260595134347_rgbf000026-resize_2-target.png,250,4.742,9,2994,249,feet,jsons/v1_VE250_randls_26.json,603282,815324,47,Man
126,631785,DepthScenes,duration_manipulation_targetAtFixation,jsons/v1_VE250_randls_26.json,http://54.235.29.9/FacialAge/BNav_EC2/DepthDuration/v2_depth_duration_MTurk/v2_DepthDuration_HTML.html#286,286,1920,1080,1920,1080,9-19-2022,19-21-50,127,depth_duration_stimuli/001449_2014-06-19_17-01-27_260595134347_rgbf000116-resize_2/001449_2014-06-19_17-01-27_260595134347_rgbf000116-resize_2-target.png,250,3.452,6,9131,248,feet,jsons/v1_VE250_randls_26.json,603282,815324,47,Man
127,631785,DepthScenes,duration_manipulation_targetAtFixation,jsons/v1_VE250_randls_26.json,http://54.235.29.9/FacialAge/BNav_EC2/DepthDuration/v2_depth_duration_MTurk/v2_DepthDuration_HTML.html#286,286,1920,1080,1920,1080,9-19-2022,19-21-50,128,depth_duration_stimuli/001450_2014-06-19_17-02-03_260595134347_rgbf000203-resize_4/001450_2014-06-19_17-02-03_260595134347_rgbf000203-resize_4-target.png,250,4.0106666666667,8,3540,241,feet,jsons/v1_VE250_randls_26.json,603282,815324,47,Man
128,631785,DepthScenes,duration_manipulation_targetAtFixation,jsons/v1_VE250_randls_26.json,http://54.235.29.9/FacialAge/BNav_EC2/DepthDuration/v2_depth_duration_MTurk/v2_DepthDuration_HTML.html#286,286,1920,1080,1920,1080,9-19-2022,19-21-50,129,depth_duration_stimuli/001055_2014-06-08_18-45-35_260595134347_rgbf000111-resize_4/001055_2014-06-08_18-45-35_260595134347_rgbf000111-resize_4-target.png,250,2.4290000000000003,6,3117,248,feet,jsons/v1_VE250_randls_26.json,603282,815324,47,Man
129,631785,DepthScenes,duration_manipulation_targetAtFixation,jsons/v1_VE250_randls_26.json,http://54.235.29.9/FacialAge/BNav_EC2/DepthDuration/v2_depth_duration_MTurk/v2_DepthDuration_HTML.html#286,286,1920,1080,1920,1080,9-19-2022,19-21-50,130,depth_duration_stimuli/000549_2014-06-08_22-10-24_260595134347_rgbf000247-resize_3/000549_2014-06-08_22-10-24_260595134347_rgbf000247-resize_3-target.png,250,1.841,1,2406,250,feet,jsons/v1_VE250_randls_26.json,603282,815324,47,Man
130,631785,DepthScenes,duration_manipulation_targetAtFixation,jsons/v1_VE250_randls_26.json,http://54.235.29.9/FacialAge/BNav_EC2/DepthDuration/v2_depth_duration_MTurk/v2_DepthDuration_HTML.html#286,286,1920,1080,1920,1080,9-19-2022,19-21-50,131,depth_duration_stimuli/001029_2014-06-08_13-17-57_260595134347_rgbf000065-resize_1/001029_2014-06-08_13-17-57_260595134347_rgbf000065-resize_1-target.png,250,3.0835,5,2690,248,feet,jsons/v1_VE250_randls_26.json,603282,815324,47,Man
131,631785,DepthScenes,duration_manipulation_targetAtFixation,jsons/v1_VE250_randls_26.json,http://54.235.29.9/FacialAge/BNav_EC2/DepthDuration/v2_depth_duration_MTurk/v2_DepthDuration_HTML.html#286,286,1920,1080,1920,1080,9-19-2022,19-21-50,132,depth_duration_stimuli/000677_2014-06-08_23-10-32_260595134347_rgbf000158-resize_6/000677_2014-06-08_23-10-32_260595134347_rgbf000158-resize_6-target.png,250,3.556,6,1824,249,feet,jsons/v1_VE250_randls_26.json,603282,815324,47,Man
132,631785,DepthScenes,duration_manipulation_targetAtFixation,jsons/v1_VE250_randls_26.json,http://54.235.29.9/FacialAge/BNav_EC2/DepthDuration/v2_depth_duration_MTurk/v2_DepthDuration_HTML.html#286,286,1920,1080,1920,1080,9-19-2022,19-21-50,133,depth_duration_stimuli/002153_2014-06-25_21-27-18_260595134347_rgbf000038-resize_5/002153_2014-06-25_21-27-18_260595134347_rgbf000038-resize_5-target.png,250,2.505,3,2215,248,feet,jsons/v1_VE250_randls_26.json,603282,815324,47,Man
133,631785,DepthScenes,duration_manipulation_targetAtFixation,jsons/v1_VE250_randls_26.json,http://54.235.29.9/FacialAge/BNav_EC2/DepthDuration/v2_depth_duration_MTurk/v2_DepthDuration_HTML.html#286,286,1920,1080,1920,1080,9-19-2022,19-21-50,134,depth_duration_stimuli/002660_2014-06-13_15-44-18_094959634447_rgbf001878-resize_2/002660_2014-06-13_15-44-18_094959634447_rgbf001878-resize_2-target.png,250,3.576,5,2438,248,feet,jsons/v1_VE250_randls_26.json,603282,815324,47,Man
134,631785,DepthScenes,duration_manipulation_targetAtFixation,jsons/v1_VE250_randls_26.json,http://54.235.29.9/FacialAge/BNav_EC2/DepthDuration/v2_depth_duration_MTurk/v2_DepthDuration_HTML.html#286,286,1920,1080,1920,1080,9-19-2022,19-21-50,135,depth_duration_stimuli/002072_2014-06-24_21-48-06_260595134347_rgbf000115-resize_0/002072_2014-06-24_21-48-06_260595134347_rgbf000115-resize-original.jpg,250,4.702,0,2501,249,feet,jsons/v1_VE250_randls_26.json,603282,815324,47,Man
135,631785,DepthScenes,duration_manipulation_targetAtFixation,jsons/v1_VE250_randls_26.json,http://54.235.29.9/FacialAge/BNav_EC2/DepthDuration/v2_depth_duration_MTurk/v2_DepthDuration_HTML.html#286,286,1920,1080,1920,1080,9-19-2022,19-21-50,136,depth_duration_stimuli/000470_2014-06-09_19-42-40_260595134347_rgbf000094-resize_1/000470_2014-06-09_19-42-40_260595134347_rgbf000094-resize_1-target.png,250,1.831,2,2678,250,feet,jsons/v1_VE250_randls_26.json,603282,815324,47,Man
136,631785,DepthScenes,duration_manipulation_targetAtFixation,jsons/v1_VE250_randls_26.json,http://54.235.29.9/FacialAge/BNav_EC2/DepthDuration/v2_depth_duration_MTurk/v2_DepthDuration_HTML.html#286,286,1920,1080,1920,1080,9-19-2022,19-21-50,137,depth_duration_stimuli/000109_2014-05-14_23-41-52_260595134347_rgbf000035-resize_9/000109_2014-05-14_23-41-52_260595134347_rgbf000035-resize_9-target.png,250,1.3545,2,1814,249,feet,jsons/v1_VE250_randls_26.json,603282,815324,47,Man
137,631785,DepthScenes,duration_manipulation_targetAtFixation,jsons/v1_VE250_randls_26.json,http://54.235.29.9/FacialAge/BNav_EC2/DepthDuration/v2_depth_duration_MTurk/v2_DepthDuration_HTML.html#286,286,1920,1080,1920,1080,9-19-2022,19-21-50,138,depth_duration_stimuli/000692_2014-06-08_13-09-42_260595134347_rgbf000199-resize_2/000692_2014-06-08_13-09-42_260595134347_rgbf000199-resize_2-target.png,250,3.661,8,2509,248,feet,jsons/v1_VE250_randls_26.json,603282,815324,47,Man
138,631785,DepthScenes,duration_manipulation_targetAtFixation,jsons/v1_VE250_randls_26.json,http://54.235.29.9/FacialAge/BNav_EC2/DepthDuration/v2_depth_duration_MTurk/v2_DepthDuration_HTML.html#286,286,1920,1080,1920,1080,9-19-2022,19-21-50,139,depth_duration_stimuli/001094_2014-06-15_17-36-00_260595134347_rgbf000205-resize_0/001094_2014-06-15_17-36-00_260595134347_rgbf000205-resize_0-target.png,250,4.2175,7,2427,248,feet,jsons/v1_VE250_randls_26.json,603282,815324,47,Man
139,631785,DepthScenes,duration_manipulation_targetAtFixation,jsons/v1_VE250_randls_26.json,http://54.235.29.9/FacialAge/BNav_EC2/DepthDuration/v2_depth_duration_MTurk/v2_DepthDuration_HTML.html#286,286,1920,1080,1920,1080,9-19-2022,19-21-50,140,depth_duration_stimuli/002905_2014-06-03_18-04-43_094959634447_rgbf000151-resize_2/002905_2014-06-03_18-04-43_094959634447_rgbf000151-resize_2-target.png,250,2.0295,3,2899,245,feet,jsons/v1_VE250_randls_26.json,603282,815324,47,Man
140,631785,DepthScenes,duration_manipulation_targetAtFixation,jsons/v1_VE250_randls_26.json,http://54.235.29.9/FacialAge/BNav_EC2/DepthDuration/v2_depth_duration_MTurk/v2_DepthDuration_HTML.html#286,286,1920,1080,1920,1080,9-19-2022,19-21-50,141,depth_duration_stimuli/003423_2014-05-21_10-23-26_094959634447_rgbf002665-resize_2/003423_2014-05-21_10-23-26_094959634447_rgbf002665-resize_2-target.png,250,3.2575,8,2776,248,feet,jsons/v1_VE250_randls_26.json,603282,815324,47,Man
141,631785,DepthScenes,duration_manipulation_targetAtFixation,jsons/v1_VE250_randls_26.json,http://54.235.29.9/FacialAge/BNav_EC2/DepthDuration/v2_depth_duration_MTurk/v2_DepthDuration_HTML.html#286,286,1920,1080,1920,1080,9-19-2022,19-21-50,142,depth_duration_stimuli/002988_2014-06-15_12-24-20_094959634447_rgbf000150-resize_1/002988_2014-06-15_12-24-20_094959634447_rgbf000150-resize_1-target.png,250,4.7669999999999995,7,2865,248,feet,jsons/v1_VE250_randls_26.json,603282,815324,47,Man
142,631785,DepthScenes,duration_manipulation_targetAtFixation,jsons/v1_VE250_randls_26.json,http://54.235.29.9/FacialAge/BNav_EC2/DepthDuration/v2_depth_duration_MTurk/v2_DepthDuration_HTML.html#286,286,1920,1080,1920,1080,9-19-2022,19-21-50,143,depth_duration_stimuli/001052_2014-06-08_18-24-54_260595134347_rgbf000130-resize_1/001052_2014-06-08_18-24-54_260595134347_rgbf000130-resize_1-target.png,250,4.1045,7,3257,248,feet,jsons/v1_VE250_randls_26.json,603282,815324,47,Man
143,631785,DepthScenes,duration_manipulation_targetAtFixation,jsons/v1_VE250_randls_26.json,http://54.235.29.9/FacialAge/BNav_EC2/DepthDuration/v2_depth_duration_MTurk/v2_DepthDuration_HTML.html#286,286,1920,1080,1920,1080,9-19-2022,19-21-50,144,depth_duration_stimuli/001164_2014-06-17_15-35-46_260595134347_rgbf000085-resize_3/001164_2014-06-17_15-35-46_260595134347_rgbf000085-resize_3-target.png,250,2.354,5,2675,248,feet,jsons/v1_VE250_randls_26.json,603282,815324,47,Man
144,631785,DepthScenes,duration_manipulation_targetAtFixation,jsons/v1_VE250_randls_26.json,http://54.235.29.9/FacialAge/BNav_EC2/DepthDuration/v2_depth_duration_MTurk/v2_DepthDuration_HTML.html#286,286,1920,1080,1920,1080,9-19-2022,19-21-50,145,depth_duration_stimuli/001136_2014-06-17_15-19-41_260595134347_rgbf000076-resize_3/001136_2014-06-17_15-19-41_260595134347_rgbf000076-resize_3-target.png,250,1.8655,4,19172,251,feet,jsons/v1_VE250_randls_26.json,603282,815324,47,Man
145,631785,DepthScenes,duration_manipulation_targetAtFixation,jsons/v1_VE250_randls_26.json,http://54.235.29.9/FacialAge/BNav_EC2/DepthDuration/v2_depth_duration_MTurk/v2_DepthDuration_HTML.html#286,286,1920,1080,1920,1080,9-19-2022,19-21-50,146,depth_duration_stimuli/001498_2014-06-19_17-45-14_260595134347_rgbf000129-resize_4/001498_2014-06-19_17-45-14_260595134347_rgbf000129-resize-original.jpg,250,1.4075,0,2808,249,feet,jsons/v1_VE250_randls_26.json,603282,815324,47,Man
146,631785,DepthScenes,duration_manipulation_targetAtFixation,jsons/v1_VE250_randls_26.json,http://54.235.29.9/FacialAge/BNav_EC2/DepthDuration/v2_depth_duration_MTurk/v2_DepthDuration_HTML.html#286,286,1920,1080,1920,1080,9-19-2022,19-21-50,147,depth_duration_stimuli/002272_2014-06-28_18-53-56_260595134347_rgbf000067-resize_2/002272_2014-06-28_18-53-56_260595134347_rgbf000067-resize_2-target.png,250,1.138,2,2470,249,feet,jsons/v1_VE250_randls_26.json,603282,815324,47,Man
147,631785,DepthScenes,duration_manipulation_targetAtFixation,jsons/v1_VE250_randls_26.json,http://54.235.29.9/FacialAge/BNav_EC2/DepthDuration/v2_depth_duration_MTurk/v2_DepthDuration_HTML.html#286,286,1920,1080,1920,1080,9-19-2022,19-21-50,148,depth_duration_stimuli/001571_2014-06-20_17-21-32_260595134347_rgbf000089-resize_1/001571_2014-06-20_17-21-32_260595134347_rgbf000089-resize_1-target.png,250,1.86,2,2461,247,feet,jsons/v1_VE250_randls_26.json,603282,815324,47,Man
148,631785,DepthScenes,duration_manipulation_targetAtFixation,jsons/v1_VE250_randls_26.json,http://54.235.29.9/FacialAge/BNav_EC2/DepthDuration/v2_depth_duration_MTurk/v2_DepthDuration_HTML.html#286,286,1920,1080,1920,1080,9-19-2022,19-21-50,149,depth_duration_stimuli/000447_2014-06-08_16-15-46_260595134347_rgbf000130-resize_1/000447_2014-06-08_16-15-46_260595134347_rgbf000130-resize_1-target.png,250,4.479,6,2175,250,feet,jsons/v1_VE250_randls_26.json,603282,815324,47,Man
149,631785,DepthScenes,duration_manipulation_targetAtFixation,jsons/v1_VE250_randls_26.json,http://54.235.29.9/FacialAge/BNav_EC2/DepthDuration/v2_depth_duration_MTurk/v2_DepthDuration_HTML.html#286,286,1920,1080,1920,1080,9-19-2022,19-21-50,150,depth_duration_stimuli/001447_2014-06-19_17-00-32_260595134347_rgbf000082-resize_5/001447_2014-06-19_17-00-32_260595134347_rgbf000082-resize_5-target.png,250,4.13775,6,1944,250,feet,jsons/v1_VE250_randls_26.json,603282,815324,47,Man
150,631785,DepthScenes,duration_manipulation_targetAtFixation,jsons/v1_VE250_randls_26.json,http://54.235.29.9/FacialAge/BNav_EC2/DepthDuration/v2_depth_duration_MTurk/v2_DepthDuration_HTML.html#286,286,1920,1080,1920,1080,9-19-2022,19-21-50,151,depth_duration_stimuli/000758_2014-06-08_22-05-08_260595134347_rgbf000085-resize_0/000758_2014-06-08_22-05-08_260595134347_rgbf000085-resize_0-target.png,250,3.3810000000000002,8,2333,251,feet,jsons/v1_VE250_randls_26.json,603282,815324,47,Man
151,631785,DepthScenes,duration_manipulation_targetAtFixation,jsons/v1_VE250_randls_26.json,http://54.235.29.9/FacialAge/BNav_EC2/DepthDuration/v2_depth_duration_MTurk/v2_DepthDuration_HTML.html#286,286,1920,1080,1920,1080,9-19-2022,19-21-50,152,depth_duration_stimuli/000854_2014-06-09_19-43-13_260595134347_rgbf000066-resize_0/000854_2014-06-09_19-43-13_260595134347_rgbf000066-resize_0-target.png,250,3.068,3,2347,262,feet,jsons/v1_VE250_randls_26.json,603282,815324,47,Man
152,631785,DepthScenes,duration_manipulation_targetAtFixation,jsons/v1_VE250_randls_26.json,http://54.235.29.9/FacialAge/BNav_EC2/DepthDuration/v2_depth_duration_MTurk/v2_DepthDuration_HTML.html#286,286,1920,1080,1920,1080,9-19-2022,19-21-50,153,depth_duration_stimuli/002509_2014-06-24_13-19-22_094959634447_rgbf000077-resize_0/002509_2014-06-24_13-19-22_094959634447_rgbf000077-resize_0-target.png,250,1.3065,3,2094,252,feet,jsons/v1_VE250_randls_26.json,603282,815324,47,Man
153,631785,DepthScenes,duration_manipulation_targetAtFixation,jsons/v1_VE250_randls_26.json,http://54.235.29.9/FacialAge/BNav_EC2/DepthDuration/v2_depth_duration_MTurk/v2_DepthDuration_HTML.html#286,286,1920,1080,1920,1080,9-19-2022,19-21-50,154,depth_duration_stimuli/003338_2014-05-20_11-01-23_094959634447_rgbf000051-resize_6/003338_2014-05-20_11-01-23_094959634447_rgbf000051-resize_6-target.png,250,1.693,3,2055,249,feet,jsons/v1_VE250_randls_26.json,603282,815324,47,Man
154,631785,DepthScenes,duration_manipulation_targetAtFixation,jsons/v1_VE250_randls_26.json,http://54.235.29.9/FacialAge/BNav_EC2/DepthDuration/v2_depth_duration_MTurk/v2_DepthDuration_HTML.html#286,286,1920,1080,1920,1080,9-19-2022,19-21-50,155,depth_duration_stimuli/002279_2014-06-28_18-55-32_260595134347_rgbf000040-resize_5/002279_2014-06-28_18-55-32_260595134347_rgbf000040-resize_5-target.png,250,1.5043333333333,2,2283,248,feet,jsons/v1_VE250_randls_26.json,603282,815324,47,Man
155,631785,DepthScenes,duration_manipulation_targetAtFixation,jsons/v1_VE250_randls_26.json,http://54.235.29.9/FacialAge/BNav_EC2/DepthDuration/v2_depth_duration_MTurk/v2_DepthDuration_HTML.html#286,286,1920,1080,1920,1080,9-19-2022,19-21-50,156,depth_duration_stimuli/000635_2014-06-08_16-38-42_260595134347_rgbf000106-resize_1/000635_2014-06-08_16-38-42_260595134347_rgbf000106-resize_1-target.png,250,2.074,5,2251,250,feet,jsons/v1_VE250_randls_26.json,603282,815324,47,Man
156,631785,DepthScenes,duration_manipulation_targetAtFixation,jsons/v1_VE250_randls_26.json,http://54.235.29.9/FacialAge/BNav_EC2/DepthDuration/v2_depth_duration_MTurk/v2_DepthDuration_HTML.html#286,286,1920,1080,1920,1080,9-19-2022,19-21-50,157,depth_duration_stimuli/002039_2014-06-24_20-22-38_260595134347_rgbf000084-resize_1/002039_2014-06-24_20-22-38_260595134347_rgbf000084-resize_1-target.png,250,4.408,7,2484,250,feet,jsons/v1_VE250_randls_26.json,603282,815324,47,Man
157,631785,DepthScenes,duration_manipulation_targetAtFixation,jsons/v1_VE250_randls_26.json,http://54.235.29.9/FacialAge/BNav_EC2/DepthDuration/v2_depth_duration_MTurk/v2_DepthDuration_HTML.html#286,286,1920,1080,1920,1080,9-19-2022,19-21-50,158,depth_duration_stimuli/002103_2014-06-25_20-00-40_260595134347_rgbf000049-resize_0/002103_2014-06-25_20-00-40_260595134347_rgbf000049-resize_0-target.png,250,4.105,6,1662,249,feet,jsons/v1_VE250_randls_26.json,603282,815324,47,Man
158,631785,DepthScenes,duration_manipulation_targetAtFixation,jsons/v1_VE250_randls_26.json,http://54.235.29.9/FacialAge/BNav_EC2/DepthDuration/v2_depth_duration_MTurk/v2_DepthDuration_HTML.html#286,286,1920,1080,1920,1080,9-19-2022,19-21-50,159,depth_duration_stimuli/000009_2014-05-26_14-32-05_260595134347_rgbf000034-resize_3/000009_2014-05-26_14-32-05_260595134347_rgbf000034-resize_3-target.png,250,3.8715,8,2267,249,feet,jsons/v1_VE250_randls_26.json,603282,815324,47,Man
159,631785,DepthScenes,duration_manipulation_targetAtFixation,jsons/v1_VE250_randls_26.json,http://54.235.29.9/FacialAge/BNav_EC2/DepthDuration/v2_depth_duration_MTurk/v2_DepthDuration_HTML.html#286,286,1920,1080,1920,1080,9-19-2022,19-21-50,160,depth_duration_stimuli/001828_2014-06-26_21-40-03_260595134347_rgbf000024-resize_0/001828_2014-06-26_21-40-03_260595134347_rgbf000024-resize_0-target.png,250,4.8260000000000005,6,3560,249,feet,jsons/v1_VE250_randls_26.json,603282,815324,47,Man
160,631785,DepthScenes,duration_manipulation_targetAtFixation,jsons/v1_VE250_randls_26.json,http://54.235.29.9/FacialAge/BNav_EC2/DepthDuration/v2_depth_duration_MTurk/v2_DepthDuration_HTML.html#286,286,1920,1080,1920,1080,9-19-2022,19-21-50,161,depth_duration_stimuli/001016_2014-06-09_16-16-10_260595134347_rgbf000112-resize_5/001016_2014-06-09_16-16-10_260595134347_rgbf000112-resize_5-target.png,250,1.6565,4,2845,248,feet,jsons/v1_VE250_randls_26.json,603282,815324,47,Man
161,631785,DepthScenes,duration_manipulation_targetAtFixation,jsons/v1_VE250_randls_26.json,http://54.235.29.9/FacialAge/BNav_EC2/DepthDuration/v2_depth_duration_MTurk/v2_DepthDuration_HTML.html#286,286,1920,1080,1920,1080,9-19-2022,19-21-50,162,depth_duration_stimuli/002340_2014-06-28_20-05-46_260595134347_rgbf000113-resize_0/002340_2014-06-28_20-05-46_260595134347_rgbf000113-resize_0-target.png,250,2.4735,6,2927,252,feet,jsons/v1_VE250_randls_26.json,603282,815324,47,Man
162,631785,DepthScenes,duration_manipulation_targetAtFixation,jsons/v1_VE250_randls_26.json,http://54.235.29.9/FacialAge/BNav_EC2/DepthDuration/v2_depth_duration_MTurk/v2_DepthDuration_HTML.html#286,286,1920,1080,1920,1080,9-19-2022,19-21-50,163,depth_duration_stimuli/000917_2014-06-09_22-45-29_260595134347_rgbf000149-resize_3/000917_2014-06-09_22-45-29_260595134347_rgbf000149-resize_3-target.png,250,4.1865,7,2213,250,feet,jsons/v1_VE250_randls_26.json,603282,815324,47,Man
163,631785,DepthScenes,duration_manipulation_targetAtFixation,jsons/v1_VE250_randls_26.json,http://54.235.29.9/FacialAge/BNav_EC2/DepthDuration/v2_depth_duration_MTurk/v2_DepthDuration_HTML.html#286,286,1920,1080,1920,1080,9-19-2022,19-21-50,164,depth_duration_stimuli/002323_2014-06-28_20-01-54_260595134347_rgbf000051-resize_4/002323_2014-06-28_20-01-54_260595134347_rgbf000051-resize_4-target.png,250,3.7310000000000003,7,2014,248,feet,jsons/v1_VE250_randls_26.json,603282,815324,47,Man
