,subjID,experimentName,versionName,sequenceName,url,selected_row,windowWidth,windowHeight,screenWidth,screenHeight,startDate,startTime,trial,stimulus,duration,actual_depth,depth_estimate,trial_RT,log_sceneDuration,unitSelection,seq_filepath,experimentTime,totalTime,age,gender
0,632936,DepthScenes,duration_manipulation_targetAtFixation,jsons/v1_VE1000_randls_11.json,http://54.235.29.9/FacialAge/BNav_EC2/DepthDuration/v2_depth_duration_MTurk/v2_DepthDuration_HTML.html#169,169,1366,625,1366,768,8-29-2022,10-17-0,1,depth_duration_stimuli/000414_2014-06-04_19-49-13_260595134347_rgbf000044-resize_0/000414_2014-06-04_19-49-13_260595134347_rgbf000044-resize_0-target.png,1000,4.329,8,3553,999,feet,jsons/v1_VE1000_randls_11.json,858722,943802,25,Man
1,632936,DepthScenes,duration_manipulation_targetAtFixation,jsons/v1_VE1000_randls_11.json,http://54.235.29.9/FacialAge/BNav_EC2/DepthDuration/v2_depth_duration_MTurk/v2_DepthDuration_HTML.html#169,169,1366,625,1366,768,8-29-2022,10-17-0,2,depth_duration_stimuli/003129_2014-05-12_10-48-10_094959634447_rgbf000100-resize_0/003129_2014-05-12_10-48-10_094959634447_rgbf000100-resize_0-target.png,1000,4.9305,8,3465,1000,feet,jsons/v1_VE1000_randls_11.json,858722,943802,25,Man
2,632936,DepthScenes,duration_manipulation_targetAtFixation,jsons/v1_VE1000_randls_11.json,http://54.235.29.9/FacialAge/BNav_EC2/DepthDuration/v2_depth_duration_MTurk/v2_DepthDuration_HTML.html#169,169,1366,625,1366,768,8-29-2022,10-17-0,3,depth_duration_stimuli/002153_2014-06-25_21-27-18_260595134347_rgbf000038-resize_5/002153_2014-06-25_21-27-18_260595134347_rgbf000038-resize_5-target.png,1000,2.505,4,4076,999,feet,jsons/v1_VE1000_randls_11.json,858722,943802,25,Man
3,632936,DepthScenes,duration_manipulation_targetAtFixation,jsons/v1_VE1000_randls_11.json,http://54.235.29.9/FacialAge/BNav_EC2/DepthDuration/v2_depth_duration_MTurk/v2_DepthDuration_HTML.html#169,169,1366,625,1366,768,8-29-2022,10-17-0,4,depth_duration_stimuli/002660_2014-06-13_15-44-18_094959634447_rgbf001878-resize_2/002660_2014-06-13_15-44-18_094959634447_rgbf001878-resize_2-target.png,1000,3.576,5,4314,999,feet,jsons/v1_VE1000_randls_11.json,858722,943802,25,Man
4,632936,DepthScenes,duration_manipulation_targetAtFixation,jsons/v1_VE1000_randls_11.json,http://54.235.29.9/FacialAge/BNav_EC2/DepthDuration/v2_depth_duration_MTurk/v2_DepthDuration_HTML.html#169,169,1366,625,1366,768,8-29-2022,10-17-0,5,depth_duration_stimuli/002788_2014-06-22_19-36-03_094959634447_rgbf000088-resize_2/002788_2014-06-22_19-36-03_094959634447_rgbf000088-resize_2-target.png,1000,1.6465,5,5858,999,feet,jsons/v1_VE1000_randls_11.json,858722,943802,25,Man
5,632936,DepthScenes,duration_manipulation_targetAtFixation,jsons/v1_VE1000_randls_11.json,http://54.235.29.9/FacialAge/BNav_EC2/DepthDuration/v2_depth_duration_MTurk/v2_DepthDuration_HTML.html#169,169,1366,625,1366,768,8-29-2022,10-17-0,6,depth_duration_stimuli/000749_2014-06-08_21-55-06_260595134347_rgbf000070-resize_2/000749_2014-06-08_21-55-06_260595134347_rgbf000070-resize_2-target.png,1000,2.331,4,3699,999,feet,jsons/v1_VE1000_randls_11.json,858722,943802,25,Man
6,632936,DepthScenes,duration_manipulation_targetAtFixation,jsons/v1_VE1000_randls_11.json,http://54.235.29.9/FacialAge/BNav_EC2/DepthDuration/v2_depth_duration_MTurk/v2_DepthDuration_HTML.html#169,169,1366,625,1366,768,8-29-2022,10-17-0,7,depth_duration_stimuli/000810_2014-06-08_17-20-01_260595134347_rgbf000105-resize_0/000810_2014-06-08_17-20-01_260595134347_rgbf000105-resize_0-target.png,1000,1.4865,5,5786,999,feet,jsons/v1_VE1000_randls_11.json,858722,943802,25,Man
7,632936,DepthScenes,duration_manipulation_targetAtFixation,jsons/v1_VE1000_randls_11.json,http://54.235.29.9/FacialAge/BNav_EC2/DepthDuration/v2_depth_duration_MTurk/v2_DepthDuration_HTML.html#169,169,1366,625,1366,768,8-29-2022,10-17-0,8,depth_duration_stimuli/001214_2014-06-17_16-13-55_260595134347_rgbf000111-resize_0/001214_2014-06-17_16-13-55_260595134347_rgbf000111-resize_0-target.png,1000,2.6505,6,4043,999,feet,jsons/v1_VE1000_randls_11.json,858722,943802,25,Man
8,632936,DepthScenes,duration_manipulation_targetAtFixation,jsons/v1_VE1000_randls_11.json,http://54.235.29.9/FacialAge/BNav_EC2/DepthDuration/v2_depth_duration_MTurk/v2_DepthDuration_HTML.html#169,169,1366,625,1366,768,8-29-2022,10-17-0,9,depth_duration_stimuli/000736_2014-06-08_18-24-15_260595134347_rgbf000206-resize_3/000736_2014-06-08_18-24-15_260595134347_rgbf000206-resize_3-target.png,1000,3.515,5,9963,999,feet,jsons/v1_VE1000_randls_11.json,858722,943802,25,Man
9,632936,DepthScenes,duration_manipulation_targetAtFixation,jsons/v1_VE1000_randls_11.json,http://54.235.29.9/FacialAge/BNav_EC2/DepthDuration/v2_depth_duration_MTurk/v2_DepthDuration_HTML.html#169,169,1366,625,1366,768,8-29-2022,10-17-0,10,depth_duration_stimuli/000137_2014-05-20_17-04-49_260595134347_rgbf000120-resize_1/000137_2014-05-20_17-04-49_260595134347_rgbf000120-resize_1-target.png,1000,3.786,5,3693,999,feet,jsons/v1_VE1000_randls_11.json,858722,943802,25,Man
10,632936,DepthScenes,duration_manipulation_targetAtFixation,jsons/v1_VE1000_randls_11.json,http://54.235.29.9/FacialAge/BNav_EC2/DepthDuration/v2_depth_duration_MTurk/v2_DepthDuration_HTML.html#169,169,1366,625,1366,768,8-29-2022,10-17-0,11,depth_duration_stimuli/001110_2014-06-15_17-25-28_260595134347_rgbf000150-resize_1/001110_2014-06-15_17-25-28_260595134347_rgbf000150-resize_1-target.png,1000,1.7115,6,4135,999,feet,jsons/v1_VE1000_randls_11.json,858722,943802,25,Man
11,632936,DepthScenes,duration_manipulation_targetAtFixation,jsons/v1_VE1000_randls_11.json,http://54.235.29.9/FacialAge/BNav_EC2/DepthDuration/v2_depth_duration_MTurk/v2_DepthDuration_HTML.html#169,169,1366,625,1366,768,8-29-2022,10-17-0,12,depth_duration_stimuli/000927_2014-06-09_16-32-30_260595134347_rgbf000123-resize_3/000927_2014-06-09_16-32-30_260595134347_rgbf000123-resize_3-target.png,1000,2.6785,5,5946,1001,feet,jsons/v1_VE1000_randls_11.json,858722,943802,25,Man
12,632936,DepthScenes,duration_manipulation_targetAtFixation,jsons/v1_VE1000_randls_11.json,http://54.235.29.9/FacialAge/BNav_EC2/DepthDuration/v2_depth_duration_MTurk/v2_DepthDuration_HTML.html#169,169,1366,625,1366,768,8-29-2022,10-17-0,13,depth_duration_stimuli/000569_2014-06-09_22-51-47_260595134347_rgbf000141-resize_3/000569_2014-06-09_22-51-47_260595134347_rgbf000141-resize-original.jpg,1000,4.512,0,3451,1000,feet,jsons/v1_VE1000_randls_11.json,858722,943802,25,Man
13,632936,DepthScenes,duration_manipulation_targetAtFixation,jsons/v1_VE1000_randls_11.json,http://54.235.29.9/FacialAge/BNav_EC2/DepthDuration/v2_depth_duration_MTurk/v2_DepthDuration_HTML.html#169,169,1366,625,1366,768,8-29-2022,10-17-0,14,depth_duration_stimuli/002509_2014-06-24_13-19-22_094959634447_rgbf000077-resize_0/002509_2014-06-24_13-19-22_094959634447_rgbf000077-resize_0-target.png,1000,1.3065,5,3410,998,feet,jsons/v1_VE1000_randls_11.json,858722,943802,25,Man
14,632936,DepthScenes,duration_manipulation_targetAtFixation,jsons/v1_VE1000_randls_11.json,http://54.235.29.9/FacialAge/BNav_EC2/DepthDuration/v2_depth_duration_MTurk/v2_DepthDuration_HTML.html#169,169,1366,625,1366,768,8-29-2022,10-17-0,15,depth_duration_stimuli/003338_2014-05-20_11-01-23_094959634447_rgbf000051-resize_6/003338_2014-05-20_11-01-23_094959634447_rgbf000051-resize_6-target.png,1000,1.693,5,3760,999,feet,jsons/v1_VE1000_randls_11.json,858722,943802,25,Man
15,632936,DepthScenes,duration_manipulation_targetAtFixation,jsons/v1_VE1000_randls_11.json,http://54.235.29.9/FacialAge/BNav_EC2/DepthDuration/v2_depth_duration_MTurk/v2_DepthDuration_HTML.html#169,169,1366,625,1366,768,8-29-2022,10-17-0,16,depth_duration_stimuli/002905_2014-06-03_18-04-43_094959634447_rgbf000151-resize_2/002905_2014-06-03_18-04-43_094959634447_rgbf000151-resize_2-target.png,1000,2.0295,5,5883,999,feet,jsons/v1_VE1000_randls_11.json,858722,943802,25,Man
16,632936,DepthScenes,duration_manipulation_targetAtFixation,jsons/v1_VE1000_randls_11.json,http://54.235.29.9/FacialAge/BNav_EC2/DepthDuration/v2_depth_duration_MTurk/v2_DepthDuration_HTML.html#169,169,1366,625,1366,768,8-29-2022,10-17-0,17,depth_duration_stimuli/003423_2014-05-21_10-23-26_094959634447_rgbf002665-resize_2/003423_2014-05-21_10-23-26_094959634447_rgbf002665-resize_2-target.png,1000,3.2575,6,4146,1000,feet,jsons/v1_VE1000_randls_11.json,858722,943802,25,Man
17,632936,DepthScenes,duration_manipulation_targetAtFixation,jsons/v1_VE1000_randls_11.json,http://54.235.29.9/FacialAge/BNav_EC2/DepthDuration/v2_depth_duration_MTurk/v2_DepthDuration_HTML.html#169,169,1366,625,1366,768,8-29-2022,10-17-0,18,depth_duration_stimuli/000878_2014-06-08_22-52-45_260595134347_rgbf000045-resize_2/000878_2014-06-08_22-52-45_260595134347_rgbf000045-resize_2-target.png,1000,2.092,5,3634,999,feet,jsons/v1_VE1000_randls_11.json,858722,943802,25,Man
18,632936,DepthScenes,duration_manipulation_targetAtFixation,jsons/v1_VE1000_randls_11.json,http://54.235.29.9/FacialAge/BNav_EC2/DepthDuration/v2_depth_duration_MTurk/v2_DepthDuration_HTML.html#169,169,1366,625,1366,768,8-29-2022,10-17-0,19,depth_duration_stimuli/002953_2014-06-08_17-32-18_094959634447_rgbf000059-resize_5/002953_2014-06-08_17-32-18_094959634447_rgbf000059-resize_5-target.png,1000,1.551,5,4027,1000,feet,jsons/v1_VE1000_randls_11.json,858722,943802,25,Man
19,632936,DepthScenes,duration_manipulation_targetAtFixation,jsons/v1_VE1000_randls_11.json,http://54.235.29.9/FacialAge/BNav_EC2/DepthDuration/v2_depth_duration_MTurk/v2_DepthDuration_HTML.html#169,169,1366,625,1366,768,8-29-2022,10-17-0,20,depth_duration_stimuli/002272_2014-06-28_18-53-56_260595134347_rgbf000067-resize_2/002272_2014-06-28_18-53-56_260595134347_rgbf000067-resize_2-target.png,1000,1.138,2,3259,1000,feet,jsons/v1_VE1000_randls_11.json,858722,943802,25,Man
20,632936,DepthScenes,duration_manipulation_targetAtFixation,jsons/v1_VE1000_randls_11.json,http://54.235.29.9/FacialAge/BNav_EC2/DepthDuration/v2_depth_duration_MTurk/v2_DepthDuration_HTML.html#169,169,1366,625,1366,768,8-29-2022,10-17-0,21,depth_duration_stimuli/001571_2014-06-20_17-21-32_260595134347_rgbf000089-resize_1/001571_2014-06-20_17-21-32_260595134347_rgbf000089-resize_1-target.png,1000,1.86,3,3161,1000,feet,jsons/v1_VE1000_randls_11.json,858722,943802,25,Man
21,632936,DepthScenes,duration_manipulation_targetAtFixation,jsons/v1_VE1000_randls_11.json,http://54.235.29.9/FacialAge/BNav_EC2/DepthDuration/v2_depth_duration_MTurk/v2_DepthDuration_HTML.html#169,169,1366,625,1366,768,8-29-2022,10-17-0,22,depth_duration_stimuli/001055_2014-06-08_18-45-35_260595134347_rgbf000111-resize_4/001055_2014-06-08_18-45-35_260595134347_rgbf000111-resize_4-target.png,1000,2.4290000000000003,7,3595,999,feet,jsons/v1_VE1000_randls_11.json,858722,943802,25,Man
22,632936,DepthScenes,duration_manipulation_targetAtFixation,jsons/v1_VE1000_randls_11.json,http://54.235.29.9/FacialAge/BNav_EC2/DepthDuration/v2_depth_duration_MTurk/v2_DepthDuration_HTML.html#169,169,1366,625,1366,768,8-29-2022,10-17-0,23,depth_duration_stimuli/000549_2014-06-08_22-10-24_260595134347_rgbf000247-resize_3/000549_2014-06-08_22-10-24_260595134347_rgbf000247-resize_3-target.png,1000,1.841,2,67211,998,feet,jsons/v1_VE1000_randls_11.json,858722,943802,25,Man
23,632936,DepthScenes,duration_manipulation_targetAtFixation,jsons/v1_VE1000_randls_11.json,http://54.235.29.9/FacialAge/BNav_EC2/DepthDuration/v2_depth_duration_MTurk/v2_DepthDuration_HTML.html#169,169,1366,625,1366,768,8-29-2022,10-17-0,24,depth_duration_stimuli/002725_2014-06-22_11-47-51_094959634447_rgbf000070-resize_1/002725_2014-06-22_11-47-51_094959634447_rgbf000070-resize_1-target.png,1000,2.195,3,5331,1000,feet,jsons/v1_VE1000_randls_11.json,858722,943802,25,Man
24,632936,DepthScenes,duration_manipulation_targetAtFixation,jsons/v1_VE1000_randls_11.json,http://54.235.29.9/FacialAge/BNav_EC2/DepthDuration/v2_depth_duration_MTurk/v2_DepthDuration_HTML.html#169,169,1366,625,1366,768,8-29-2022,10-17-0,25,depth_duration_stimuli/002344_2014-06-28_20-06-29_260595134347_rgbf000030-resize_1/002344_2014-06-28_20-06-29_260595134347_rgbf000030-resize_1-target.png,1000,1.5795,5,3361,998,feet,jsons/v1_VE1000_randls_11.json,858722,943802,25,Man
25,632936,DepthScenes,duration_manipulation_targetAtFixation,jsons/v1_VE1000_randls_11.json,http://54.235.29.9/FacialAge/BNav_EC2/DepthDuration/v2_depth_duration_MTurk/v2_DepthDuration_HTML.html#169,169,1366,625,1366,768,8-29-2022,10-17-0,26,depth_duration_stimuli/003292_2014-05-14_21-53-49_094959634447_rgbf000100-resize_2/003292_2014-05-14_21-53-49_094959634447_rgbf000100-resize_2-target.png,1000,3.4815,7,3603,999,feet,jsons/v1_VE1000_randls_11.json,858722,943802,25,Man
26,632936,DepthScenes,duration_manipulation_targetAtFixation,jsons/v1_VE1000_randls_11.json,http://54.235.29.9/FacialAge/BNav_EC2/DepthDuration/v2_depth_duration_MTurk/v2_DepthDuration_HTML.html#169,169,1366,625,1366,768,8-29-2022,10-17-0,27,depth_duration_stimuli/002639_2014-06-24_14-51-37_094959634447_rgbf000074-resize_4/002639_2014-06-24_14-51-37_094959634447_rgbf000074-resize_4-target.png,1000,4.0375,8,3042,1000,feet,jsons/v1_VE1000_randls_11.json,858722,943802,25,Man
27,632936,DepthScenes,duration_manipulation_targetAtFixation,jsons/v1_VE1000_randls_11.json,http://54.235.29.9/FacialAge/BNav_EC2/DepthDuration/v2_depth_duration_MTurk/v2_DepthDuration_HTML.html#169,169,1366,625,1366,768,8-29-2022,10-17-0,28,depth_duration_stimuli/000739_2014-06-08_18-45-58_260595134347_rgbf000068-resize_1/000739_2014-06-08_18-45-58_260595134347_rgbf000068-resize_1-target.png,1000,3.534,8,2955,999,feet,jsons/v1_VE1000_randls_11.json,858722,943802,25,Man
28,632936,DepthScenes,duration_manipulation_targetAtFixation,jsons/v1_VE1000_randls_11.json,http://54.235.29.9/FacialAge/BNav_EC2/DepthDuration/v2_depth_duration_MTurk/v2_DepthDuration_HTML.html#169,169,1366,625,1366,768,8-29-2022,10-17-0,29,depth_duration_stimuli/000734_2014-06-08_17-39-11_260595134347_rgbf000128-resize_2/000734_2014-06-08_17-39-11_260595134347_rgbf000128-resize_2-target.png,1000,4.098,6,20690,1000,feet,jsons/v1_VE1000_randls_11.json,858722,943802,25,Man
29,632936,DepthScenes,duration_manipulation_targetAtFixation,jsons/v1_VE1000_randls_11.json,http://54.235.29.9/FacialAge/BNav_EC2/DepthDuration/v2_depth_duration_MTurk/v2_DepthDuration_HTML.html#169,169,1366,625,1366,768,8-29-2022,10-17-0,30,depth_duration_stimuli/000375_2014-06-08_11-17-29_260595134347_rgbf000133-resize_2/000375_2014-06-08_11-17-29_260595134347_rgbf000133-resize-original.jpg,1000,4.718,0,3826,999,feet,jsons/v1_VE1000_randls_11.json,858722,943802,25,Man
30,632936,DepthScenes,duration_manipulation_targetAtFixation,jsons/v1_VE1000_randls_11.json,http://54.235.29.9/FacialAge/BNav_EC2/DepthDuration/v2_depth_duration_MTurk/v2_DepthDuration_HTML.html#169,169,1366,625,1366,768,8-29-2022,10-17-0,31,depth_duration_stimuli/002630_2014-06-24_14-47-50_094959634447_rgbf000055-resize_1/002630_2014-06-24_14-47-50_094959634447_rgbf000055-resize_1-target.png,1000,3.0095,8,4521,999,feet,jsons/v1_VE1000_randls_11.json,858722,943802,25,Man
31,632936,DepthScenes,duration_manipulation_targetAtFixation,jsons/v1_VE1000_randls_11.json,http://54.235.29.9/FacialAge/BNav_EC2/DepthDuration/v2_depth_duration_MTurk/v2_DepthDuration_HTML.html#169,169,1366,625,1366,768,8-29-2022,10-17-0,32,depth_duration_stimuli/002758_2014-06-22_19-11-20_094959634447_rgbf000128-resize_1/002758_2014-06-22_19-11-20_094959634447_rgbf000128-resize_1-target.png,1000,2.555,6,3803,999,feet,jsons/v1_VE1000_randls_11.json,858722,943802,25,Man
32,632936,DepthScenes,duration_manipulation_targetAtFixation,jsons/v1_VE1000_randls_11.json,http://54.235.29.9/FacialAge/BNav_EC2/DepthDuration/v2_depth_duration_MTurk/v2_DepthDuration_HTML.html#169,169,1366,625,1366,768,8-29-2022,10-17-0,33,depth_duration_stimuli/000447_2014-06-08_16-15-46_260595134347_rgbf000130-resize_1/000447_2014-06-08_16-15-46_260595134347_rgbf000130-resize_1-target.png,1000,4.479,7,3333,1000,feet,jsons/v1_VE1000_randls_11.json,858722,943802,25,Man
33,632936,DepthScenes,duration_manipulation_targetAtFixation,jsons/v1_VE1000_randls_11.json,http://54.235.29.9/FacialAge/BNav_EC2/DepthDuration/v2_depth_duration_MTurk/v2_DepthDuration_HTML.html#169,169,1366,625,1366,768,8-29-2022,10-17-0,34,depth_duration_stimuli/001447_2014-06-19_17-00-32_260595134347_rgbf000082-resize_5/001447_2014-06-19_17-00-32_260595134347_rgbf000082-resize_5-target.png,1000,4.13775,8,3432,999,feet,jsons/v1_VE1000_randls_11.json,858722,943802,25,Man
34,632936,DepthScenes,duration_manipulation_targetAtFixation,jsons/v1_VE1000_randls_11.json,http://54.235.29.9/FacialAge/BNav_EC2/DepthDuration/v2_depth_duration_MTurk/v2_DepthDuration_HTML.html#169,169,1366,625,1366,768,8-29-2022,10-17-0,35,depth_duration_stimuli/000906_2014-06-08_13-35-43_260595134347_rgbf000155-resize_1/000906_2014-06-08_13-35-43_260595134347_rgbf000155-resize_1-target.png,1000,2.8489999999999998,8,3041,999,feet,jsons/v1_VE1000_randls_11.json,858722,943802,25,Man
35,632936,DepthScenes,duration_manipulation_targetAtFixation,jsons/v1_VE1000_randls_11.json,http://54.235.29.9/FacialAge/BNav_EC2/DepthDuration/v2_depth_duration_MTurk/v2_DepthDuration_HTML.html#169,169,1366,625,1366,768,8-29-2022,10-17-0,36,depth_duration_stimuli/002805_2014-06-22_19-54-03_094959634447_rgbf000079-resize_1/002805_2014-06-22_19-54-03_094959634447_rgbf000079-resize_1-target.png,1000,3.1439999999999997,8,3010,1000,feet,jsons/v1_VE1000_randls_11.json,858722,943802,25,Man
36,632936,DepthScenes,duration_manipulation_targetAtFixation,jsons/v1_VE1000_randls_11.json,http://54.235.29.9/FacialAge/BNav_EC2/DepthDuration/v2_depth_duration_MTurk/v2_DepthDuration_HTML.html#169,169,1366,625,1366,768,8-29-2022,10-17-0,37,depth_duration_stimuli/002445_2014-06-28_20-32-16_260595134347_rgbf000029-resize_4/002445_2014-06-28_20-32-16_260595134347_rgbf000029-resize_4-target.png,1000,2.5315,6,3010,999,feet,jsons/v1_VE1000_randls_11.json,858722,943802,25,Man
37,632936,DepthScenes,duration_manipulation_targetAtFixation,jsons/v1_VE1000_randls_11.json,http://54.235.29.9/FacialAge/BNav_EC2/DepthDuration/v2_depth_duration_MTurk/v2_DepthDuration_HTML.html#169,169,1366,625,1366,768,8-29-2022,10-17-0,38,depth_duration_stimuli/000780_2014-06-08_22-28-29_260595134347_rgbf000126-resize_1/000780_2014-06-08_22-28-29_260595134347_rgbf000126-resize_1-target.png,1000,3.3825,7,4026,1000,feet,jsons/v1_VE1000_randls_11.json,858722,943802,25,Man
38,632936,DepthScenes,duration_manipulation_targetAtFixation,jsons/v1_VE1000_randls_11.json,http://54.235.29.9/FacialAge/BNav_EC2/DepthDuration/v2_depth_duration_MTurk/v2_DepthDuration_HTML.html#169,169,1366,625,1366,768,8-29-2022,10-17-0,39,depth_duration_stimuli/002279_2014-06-28_18-55-32_260595134347_rgbf000040-resize_5/002279_2014-06-28_18-55-32_260595134347_rgbf000040-resize_5-target.png,1000,1.5043333333333,3,3149,999,feet,jsons/v1_VE1000_randls_11.json,858722,943802,25,Man
39,632936,DepthScenes,duration_manipulation_targetAtFixation,jsons/v1_VE1000_randls_11.json,http://54.235.29.9/FacialAge/BNav_EC2/DepthDuration/v2_depth_duration_MTurk/v2_DepthDuration_HTML.html#169,169,1366,625,1366,768,8-29-2022,10-17-0,40,depth_duration_stimuli/000635_2014-06-08_16-38-42_260595134347_rgbf000106-resize_1/000635_2014-06-08_16-38-42_260595134347_rgbf000106-resize_1-target.png,1000,2.074,6,3399,1000,feet,jsons/v1_VE1000_randls_11.json,858722,943802,25,Man
40,632936,DepthScenes,duration_manipulation_targetAtFixation,jsons/v1_VE1000_randls_11.json,http://54.235.29.9/FacialAge/BNav_EC2/DepthDuration/v2_depth_duration_MTurk/v2_DepthDuration_HTML.html#169,169,1366,625,1366,768,8-29-2022,10-17-0,41,depth_duration_stimuli/001175_2014-06-17_15-45-55_260595134347_rgbf000129-resize_4/001175_2014-06-17_15-45-55_260595134347_rgbf000129-resize_4-target.png,1000,4.255,8,3410,999,feet,jsons/v1_VE1000_randls_11.json,858722,943802,25,Man
41,632936,DepthScenes,duration_manipulation_targetAtFixation,jsons/v1_VE1000_randls_11.json,http://54.235.29.9/FacialAge/BNav_EC2/DepthDuration/v2_depth_duration_MTurk/v2_DepthDuration_HTML.html#169,169,1366,625,1366,768,8-29-2022,10-17-0,42,depth_duration_stimuli/003490_2014-05-21_15-50-11_094959634447_rgbf000101-resize_3/003490_2014-05-21_15-50-11_094959634447_rgbf000101-resize_3-target.png,1000,3.6445,7,3362,999,feet,jsons/v1_VE1000_randls_11.json,858722,943802,25,Man
42,632936,DepthScenes,duration_manipulation_targetAtFixation,jsons/v1_VE1000_randls_11.json,http://54.235.29.9/FacialAge/BNav_EC2/DepthDuration/v2_depth_duration_MTurk/v2_DepthDuration_HTML.html#169,169,1366,625,1366,768,8-29-2022,10-17-0,43,depth_duration_stimuli/002964_2014-06-08_17-46-11_094959634447_rgbf000091-resize_4/002964_2014-06-08_17-46-11_094959634447_rgbf000091-resize_4-target.png,1000,1.6909999999999998,6,3098,999,feet,jsons/v1_VE1000_randls_11.json,858722,943802,25,Man
43,632936,DepthScenes,duration_manipulation_targetAtFixation,jsons/v1_VE1000_randls_11.json,http://54.235.29.9/FacialAge/BNav_EC2/DepthDuration/v2_depth_duration_MTurk/v2_DepthDuration_HTML.html#169,169,1366,625,1366,768,8-29-2022,10-17-0,44,depth_duration_stimuli/002136_2014-06-25_21-18-03_260595134347_rgbf000109-resize_3/002136_2014-06-25_21-18-03_260595134347_rgbf000109-resize_3-target.png,1000,1.9569999999999999,4,3330,998,feet,jsons/v1_VE1000_randls_11.json,858722,943802,25,Man
44,632936,DepthScenes,duration_manipulation_targetAtFixation,jsons/v1_VE1000_randls_11.json,http://54.235.29.9/FacialAge/BNav_EC2/DepthDuration/v2_depth_duration_MTurk/v2_DepthDuration_HTML.html#169,169,1366,625,1366,768,8-29-2022,10-17-0,45,depth_duration_stimuli/000787_2014-06-08_22-33-53_260595134347_rgbf000175-resize_1/000787_2014-06-08_22-33-53_260595134347_rgbf000175-resize-original.jpg,1000,4.784,0,3954,1000,feet,jsons/v1_VE1000_randls_11.json,858722,943802,25,Man
45,632936,DepthScenes,duration_manipulation_targetAtFixation,jsons/v1_VE1000_randls_11.json,http://54.235.29.9/FacialAge/BNav_EC2/DepthDuration/v2_depth_duration_MTurk/v2_DepthDuration_HTML.html#169,169,1366,625,1366,768,8-29-2022,10-17-0,46,depth_duration_stimuli/000682_2014-06-08_23-14-58_260595134347_rgbf000041-resize_5/000682_2014-06-08_23-14-58_260595134347_rgbf000041-resize_5-target.png,1000,2.7239999999999998,6,4027,1000,feet,jsons/v1_VE1000_randls_11.json,858722,943802,25,Man
46,632936,DepthScenes,duration_manipulation_targetAtFixation,jsons/v1_VE1000_randls_11.json,http://54.235.29.9/FacialAge/BNav_EC2/DepthDuration/v2_depth_duration_MTurk/v2_DepthDuration_HTML.html#169,169,1366,625,1366,768,8-29-2022,10-17-0,47,depth_duration_stimuli/001650_2014-06-20_12-09-00_260595134347_rgbf000087-resize_3/001650_2014-06-20_12-09-00_260595134347_rgbf000087-resize_3-target.png,1000,1.9505,3,3273,999,feet,jsons/v1_VE1000_randls_11.json,858722,943802,25,Man
47,632936,DepthScenes,duration_manipulation_targetAtFixation,jsons/v1_VE1000_randls_11.json,http://54.235.29.9/FacialAge/BNav_EC2/DepthDuration/v2_depth_duration_MTurk/v2_DepthDuration_HTML.html#169,169,1366,625,1366,768,8-29-2022,10-17-0,48,depth_duration_stimuli/001059_2014-06-08_21-53-27_260595134347_rgbf000061-resize_4/001059_2014-06-08_21-53-27_260595134347_rgbf000061-resize_4-target.png,1000,2.4185,6,3267,1000,feet,jsons/v1_VE1000_randls_11.json,858722,943802,25,Man
48,632936,DepthScenes,duration_manipulation_targetAtFixation,jsons/v1_VE1000_randls_11.json,http://54.235.29.9/FacialAge/BNav_EC2/DepthDuration/v2_depth_duration_MTurk/v2_DepthDuration_HTML.html#169,169,1366,625,1366,768,8-29-2022,10-17-0,49,depth_duration_stimuli/001032_2014-06-08_13-23-17_260595134347_rgbf000021-resize_3/001032_2014-06-08_13-23-17_260595134347_rgbf000021-resize_3-target.png,1000,3.2725,6,3497,1000,feet,jsons/v1_VE1000_randls_11.json,858722,943802,25,Man
49,632936,DepthScenes,duration_manipulation_targetAtFixation,jsons/v1_VE1000_randls_11.json,http://54.235.29.9/FacialAge/BNav_EC2/DepthDuration/v2_depth_duration_MTurk/v2_DepthDuration_HTML.html#169,169,1366,625,1366,768,8-29-2022,10-17-0,50,depth_duration_stimuli/000929_2014-06-09_16-33-19_260595134347_rgbf000139-resize_0/000929_2014-06-09_16-33-19_260595134347_rgbf000139-resize_0-target.png,1000,2.8680000000000003,5,3131,999,feet,jsons/v1_VE1000_randls_11.json,858722,943802,25,Man
50,632936,DepthScenes,duration_manipulation_targetAtFixation,jsons/v1_VE1000_randls_11.json,http://54.235.29.9/FacialAge/BNav_EC2/DepthDuration/v2_depth_duration_MTurk/v2_DepthDuration_HTML.html#169,169,1366,625,1366,768,8-29-2022,10-17-0,51,depth_duration_stimuli/000457_2014-06-08_16-52-43_260595134347_rgbf000199-resize_1/000457_2014-06-08_16-52-43_260595134347_rgbf000199-resize_1-target.png,1000,3.6489999999999996,7,3137,999,feet,jsons/v1_VE1000_randls_11.json,858722,943802,25,Man
51,632936,DepthScenes,duration_manipulation_targetAtFixation,jsons/v1_VE1000_randls_11.json,http://54.235.29.9/FacialAge/BNav_EC2/DepthDuration/v2_depth_duration_MTurk/v2_DepthDuration_HTML.html#169,169,1366,625,1366,768,8-29-2022,10-17-0,52,depth_duration_stimuli/000692_2014-06-08_13-09-42_260595134347_rgbf000199-resize_2/000692_2014-06-08_13-09-42_260595134347_rgbf000199-resize_2-target.png,1000,3.661,8,3003,999,feet,jsons/v1_VE1000_randls_11.json,858722,943802,25,Man
52,632936,DepthScenes,duration_manipulation_targetAtFixation,jsons/v1_VE1000_randls_11.json,http://54.235.29.9/FacialAge/BNav_EC2/DepthDuration/v2_depth_duration_MTurk/v2_DepthDuration_HTML.html#169,169,1366,625,1366,768,8-29-2022,10-17-0,53,depth_duration_stimuli/001094_2014-06-15_17-36-00_260595134347_rgbf000205-resize_0/001094_2014-06-15_17-36-00_260595134347_rgbf000205-resize_0-target.png,1000,4.2175,8,3018,1000,feet,jsons/v1_VE1000_randls_11.json,858722,943802,25,Man
53,632936,DepthScenes,duration_manipulation_targetAtFixation,jsons/v1_VE1000_randls_11.json,http://54.235.29.9/FacialAge/BNav_EC2/DepthDuration/v2_depth_duration_MTurk/v2_DepthDuration_HTML.html#169,169,1366,625,1366,768,8-29-2022,10-17-0,54,depth_duration_stimuli/000493_2014-06-09_21-01-18_260595134347_rgbf000196-resize_3/000493_2014-06-09_21-01-18_260595134347_rgbf000196-resize_3-target.png,1000,3.44,7,2986,998,feet,jsons/v1_VE1000_randls_11.json,858722,943802,25,Man
54,632936,DepthScenes,duration_manipulation_targetAtFixation,jsons/v1_VE1000_randls_11.json,http://54.235.29.9/FacialAge/BNav_EC2/DepthDuration/v2_depth_duration_MTurk/v2_DepthDuration_HTML.html#169,169,1366,625,1366,768,8-29-2022,10-17-0,55,depth_duration_stimuli/000191_2014-05-12_17-07-38_260595134347_rgbf000199-resize_0/000191_2014-05-12_17-07-38_260595134347_rgbf000199-resize_0-target.png,1000,3.7995,8,3002,998,feet,jsons/v1_VE1000_randls_11.json,858722,943802,25,Man
55,632936,DepthScenes,duration_manipulation_targetAtFixation,jsons/v1_VE1000_randls_11.json,http://54.235.29.9/FacialAge/BNav_EC2/DepthDuration/v2_depth_duration_MTurk/v2_DepthDuration_HTML.html#169,169,1366,625,1366,768,8-29-2022,10-17-0,56,depth_duration_stimuli/001449_2014-06-19_17-01-27_260595134347_rgbf000116-resize_2/001449_2014-06-19_17-01-27_260595134347_rgbf000116-resize_2-target.png,1000,3.452,8,3202,1000,feet,jsons/v1_VE1000_randls_11.json,858722,943802,25,Man
56,632936,DepthScenes,duration_manipulation_targetAtFixation,jsons/v1_VE1000_randls_11.json,http://54.235.29.9/FacialAge/BNav_EC2/DepthDuration/v2_depth_duration_MTurk/v2_DepthDuration_HTML.html#169,169,1366,625,1366,768,8-29-2022,10-17-0,57,depth_duration_stimuli/001450_2014-06-19_17-02-03_260595134347_rgbf000203-resize_4/001450_2014-06-19_17-02-03_260595134347_rgbf000203-resize_4-target.png,1000,4.0106666666667,7,3657,999,feet,jsons/v1_VE1000_randls_11.json,858722,943802,25,Man
57,632936,DepthScenes,duration_manipulation_targetAtFixation,jsons/v1_VE1000_randls_11.json,http://54.235.29.9/FacialAge/BNav_EC2/DepthDuration/v2_depth_duration_MTurk/v2_DepthDuration_HTML.html#169,169,1366,625,1366,768,8-29-2022,10-17-0,58,depth_duration_stimuli/001199_2014-06-17_16-03-48_260595134347_rgbf000077-resize_0/001199_2014-06-17_16-03-48_260595134347_rgbf000077-resize_0-target.png,1000,3.4375,8,3197,1001,feet,jsons/v1_VE1000_randls_11.json,858722,943802,25,Man
58,632936,DepthScenes,duration_manipulation_targetAtFixation,jsons/v1_VE1000_randls_11.json,http://54.235.29.9/FacialAge/BNav_EC2/DepthDuration/v2_depth_duration_MTurk/v2_DepthDuration_HTML.html#169,169,1366,625,1366,768,8-29-2022,10-17-0,59,depth_duration_stimuli/000502_2014-06-08_23-02-32_260595134347_rgbf000063-resize_4/000502_2014-06-08_23-02-32_260595134347_rgbf000063-resize_4-target.png,1000,2.431,4,110077,999,feet,jsons/v1_VE1000_randls_11.json,858722,943802,25,Man
59,632936,DepthScenes,duration_manipulation_targetAtFixation,jsons/v1_VE1000_randls_11.json,http://54.235.29.9/FacialAge/BNav_EC2/DepthDuration/v2_depth_duration_MTurk/v2_DepthDuration_HTML.html#169,169,1366,625,1366,768,8-29-2022,10-17-0,60,depth_duration_stimuli/001016_2014-06-09_16-16-10_260595134347_rgbf000112-resize_5/001016_2014-06-09_16-16-10_260595134347_rgbf000112-resize_5-target.png,1000,1.6565,5,3401,999,feet,jsons/v1_VE1000_randls_11.json,858722,943802,25,Man
60,632936,DepthScenes,duration_manipulation_targetAtFixation,jsons/v1_VE1000_randls_11.json,http://54.235.29.9/FacialAge/BNav_EC2/DepthDuration/v2_depth_duration_MTurk/v2_DepthDuration_HTML.html#169,169,1366,625,1366,768,8-29-2022,10-17-0,61,depth_duration_stimuli/002340_2014-06-28_20-05-46_260595134347_rgbf000113-resize_0/002340_2014-06-28_20-05-46_260595134347_rgbf000113-resize_0-target.png,1000,2.4735,8,3035,999,feet,jsons/v1_VE1000_randls_11.json,858722,943802,25,Man
61,632936,DepthScenes,duration_manipulation_targetAtFixation,jsons/v1_VE1000_randls_11.json,http://54.235.29.9/FacialAge/BNav_EC2/DepthDuration/v2_depth_duration_MTurk/v2_DepthDuration_HTML.html#169,169,1366,625,1366,768,8-29-2022,10-17-0,62,depth_duration_stimuli/000469_2014-06-09_19-42-10_260595134347_rgbf000081-resize_1/000469_2014-06-09_19-42-10_260595134347_rgbf000081-resize_1-target.png,1000,1.652,4,3209,1000,feet,jsons/v1_VE1000_randls_11.json,858722,943802,25,Man
62,632936,DepthScenes,duration_manipulation_targetAtFixation,jsons/v1_VE1000_randls_11.json,http://54.235.29.9/FacialAge/BNav_EC2/DepthDuration/v2_depth_duration_MTurk/v2_DepthDuration_HTML.html#169,169,1366,625,1366,768,8-29-2022,10-17-0,63,depth_duration_stimuli/000483_2014-06-09_20-41-45_260595134347_rgbf000116-resize_4/000483_2014-06-09_20-41-45_260595134347_rgbf000116-resize_4-target.png,1000,1.337,4,3186,1001,feet,jsons/v1_VE1000_randls_11.json,858722,943802,25,Man
63,632936,DepthScenes,duration_manipulation_targetAtFixation,jsons/v1_VE1000_randls_11.json,http://54.235.29.9/FacialAge/BNav_EC2/DepthDuration/v2_depth_duration_MTurk/v2_DepthDuration_HTML.html#169,169,1366,625,1366,768,8-29-2022,10-17-0,64,depth_duration_stimuli/002570_2014-06-24_13-59-54_094959634447_rgbf000059-resize_0/002570_2014-06-24_13-59-54_094959634447_rgbf000059-resize_0-target.png,1000,4.037,6,2946,1000,feet,jsons/v1_VE1000_randls_11.json,858722,943802,25,Man
64,632936,DepthScenes,duration_manipulation_targetAtFixation,jsons/v1_VE1000_randls_11.json,http://54.235.29.9/FacialAge/BNav_EC2/DepthDuration/v2_depth_duration_MTurk/v2_DepthDuration_HTML.html#169,169,1366,625,1366,768,8-29-2022,10-17-0,65,depth_duration_stimuli/002467_2014-06-28_20-38-07_260595134347_rgbf000026-resize_2/002467_2014-06-28_20-38-07_260595134347_rgbf000026-resize_2-target.png,1000,4.742,8,3001,999,feet,jsons/v1_VE1000_randls_11.json,858722,943802,25,Man
65,632936,DepthScenes,duration_manipulation_targetAtFixation,jsons/v1_VE1000_randls_11.json,http://54.235.29.9/FacialAge/BNav_EC2/DepthDuration/v2_depth_duration_MTurk/v2_DepthDuration_HTML.html#169,169,1366,625,1366,768,8-29-2022,10-17-0,66,depth_duration_stimuli/001222_2014-06-17_16-24-06_260595134347_rgbf000073-resize_0/001222_2014-06-17_16-24-06_260595134347_rgbf000073-resize-original.jpg,1000,1.4385,0,2907,999,feet,jsons/v1_VE1000_randls_11.json,858722,943802,25,Man
66,632936,DepthScenes,duration_manipulation_targetAtFixation,jsons/v1_VE1000_randls_11.json,http://54.235.29.9/FacialAge/BNav_EC2/DepthDuration/v2_depth_duration_MTurk/v2_DepthDuration_HTML.html#169,169,1366,625,1366,768,8-29-2022,10-17-0,67,depth_duration_stimuli/001066_2014-06-08_22-03-20_260595134347_rgbf000066-resize_4/001066_2014-06-08_22-03-20_260595134347_rgbf000066-resize_4-target.png,1000,4.2330000000000005,7,3050,999,feet,jsons/v1_VE1000_randls_11.json,858722,943802,25,Man
67,632936,DepthScenes,duration_manipulation_targetAtFixation,jsons/v1_VE1000_randls_11.json,http://54.235.29.9/FacialAge/BNav_EC2/DepthDuration/v2_depth_duration_MTurk/v2_DepthDuration_HTML.html#169,169,1366,625,1366,768,8-29-2022,10-17-0,68,depth_duration_stimuli/000742_2014-06-08_18-48-09_260595134347_rgbf000164-resize_4/000742_2014-06-08_18-48-09_260595134347_rgbf000164-resize_4-target.png,1000,4.632,7,3010,1000,feet,jsons/v1_VE1000_randls_11.json,858722,943802,25,Man
68,632936,DepthScenes,duration_manipulation_targetAtFixation,jsons/v1_VE1000_randls_11.json,http://54.235.29.9/FacialAge/BNav_EC2/DepthDuration/v2_depth_duration_MTurk/v2_DepthDuration_HTML.html#169,169,1366,625,1366,768,8-29-2022,10-17-0,69,depth_duration_stimuli/000436_2014-06-09_22-25-11_260595134347_rgbf000137-resize_1/000436_2014-06-09_22-25-11_260595134347_rgbf000137-resize_1-target.png,1000,4.0705,8,3003,1000,feet,jsons/v1_VE1000_randls_11.json,858722,943802,25,Man
69,632936,DepthScenes,duration_manipulation_targetAtFixation,jsons/v1_VE1000_randls_11.json,http://54.235.29.9/FacialAge/BNav_EC2/DepthDuration/v2_depth_duration_MTurk/v2_DepthDuration_HTML.html#169,169,1366,625,1366,768,8-29-2022,10-17-0,70,depth_duration_stimuli/002444_2014-06-28_20-32-08_260595134347_rgbf000027-resize_0/002444_2014-06-28_20-32-08_260595134347_rgbf000027-resize_0-target.png,1000,4.388999999999999,7,3145,1000,feet,jsons/v1_VE1000_randls_11.json,858722,943802,25,Man
70,632936,DepthScenes,duration_manipulation_targetAtFixation,jsons/v1_VE1000_randls_11.json,http://54.235.29.9/FacialAge/BNav_EC2/DepthDuration/v2_depth_duration_MTurk/v2_DepthDuration_HTML.html#169,169,1366,625,1366,768,8-29-2022,10-17-0,71,depth_duration_stimuli/001056_2014-06-08_18-46-44_260595134347_rgbf000068-resize_0/001056_2014-06-08_18-46-44_260595134347_rgbf000068-resize_0-target.png,1000,2.6625,6,3115,1001,feet,jsons/v1_VE1000_randls_11.json,858722,943802,25,Man
71,632936,DepthScenes,duration_manipulation_targetAtFixation,jsons/v1_VE1000_randls_11.json,http://54.235.29.9/FacialAge/BNav_EC2/DepthDuration/v2_depth_duration_MTurk/v2_DepthDuration_HTML.html#169,169,1366,625,1366,768,8-29-2022,10-17-0,72,depth_duration_stimuli/002199_2014-06-28_18-33-56_260595134347_rgbf000074-resize_0/002199_2014-06-28_18-33-56_260595134347_rgbf000074-resize_0-target.png,1000,1.996,3,3003,1000,feet,jsons/v1_VE1000_randls_11.json,858722,943802,25,Man
72,632936,DepthScenes,duration_manipulation_targetAtFixation,jsons/v1_VE1000_randls_11.json,http://54.235.29.9/FacialAge/BNav_EC2/DepthDuration/v2_depth_duration_MTurk/v2_DepthDuration_HTML.html#169,169,1366,625,1366,768,8-29-2022,10-17-0,73,depth_duration_stimuli/001164_2014-06-17_15-35-46_260595134347_rgbf000085-resize_3/001164_2014-06-17_15-35-46_260595134347_rgbf000085-resize_3-target.png,1000,2.354,7,3153,999,feet,jsons/v1_VE1000_randls_11.json,858722,943802,25,Man
73,632936,DepthScenes,duration_manipulation_targetAtFixation,jsons/v1_VE1000_randls_11.json,http://54.235.29.9/FacialAge/BNav_EC2/DepthDuration/v2_depth_duration_MTurk/v2_DepthDuration_HTML.html#169,169,1366,625,1366,768,8-29-2022,10-17-0,74,depth_duration_stimuli/001136_2014-06-17_15-19-41_260595134347_rgbf000076-resize_3/001136_2014-06-17_15-19-41_260595134347_rgbf000076-resize_3-target.png,1000,1.8655,8,3203,999,feet,jsons/v1_VE1000_randls_11.json,858722,943802,25,Man
74,632936,DepthScenes,duration_manipulation_targetAtFixation,jsons/v1_VE1000_randls_11.json,http://54.235.29.9/FacialAge/BNav_EC2/DepthDuration/v2_depth_duration_MTurk/v2_DepthDuration_HTML.html#169,169,1366,625,1366,768,8-29-2022,10-17-0,75,depth_duration_stimuli/003492_2014-05-21_15-50-55_094959634447_rgbf000828-resize_1/003492_2014-05-21_15-50-55_094959634447_rgbf000828-resize_1-target.png,1000,4.06875,8,2985,999,feet,jsons/v1_VE1000_randls_11.json,858722,943802,25,Man
75,632936,DepthScenes,duration_manipulation_targetAtFixation,jsons/v1_VE1000_randls_11.json,http://54.235.29.9/FacialAge/BNav_EC2/DepthDuration/v2_depth_duration_MTurk/v2_DepthDuration_HTML.html#169,169,1366,625,1366,768,8-29-2022,10-17-0,76,depth_duration_stimuli/002568_2014-06-24_13-59-21_094959634447_rgbf000062-resize_4/002568_2014-06-24_13-59-21_094959634447_rgbf000062-resize_4-target.png,1000,3.015,6,3602,999,feet,jsons/v1_VE1000_randls_11.json,858722,943802,25,Man
76,632936,DepthScenes,duration_manipulation_targetAtFixation,jsons/v1_VE1000_randls_11.json,http://54.235.29.9/FacialAge/BNav_EC2/DepthDuration/v2_depth_duration_MTurk/v2_DepthDuration_HTML.html#169,169,1366,625,1366,768,8-29-2022,10-17-0,77,depth_duration_stimuli/002748_2014-06-22_19-07-22_094959634447_rgbf000078-resize_1/002748_2014-06-22_19-07-22_094959634447_rgbf000078-resize_1-target.png,1000,4.6705,8,3034,1000,feet,jsons/v1_VE1000_randls_11.json,858722,943802,25,Man
77,632936,DepthScenes,duration_manipulation_targetAtFixation,jsons/v1_VE1000_randls_11.json,http://54.235.29.9/FacialAge/BNav_EC2/DepthDuration/v2_depth_duration_MTurk/v2_DepthDuration_HTML.html#169,169,1366,625,1366,768,8-29-2022,10-17-0,78,depth_duration_stimuli/002995_2014-06-15_12-31-26_094959634447_rgbf000150-resize_1/002995_2014-06-15_12-31-26_094959634447_rgbf000150-resize_1-target.png,1000,3.8360000000000003,7,3146,1000,feet,jsons/v1_VE1000_randls_11.json,858722,943802,25,Man
78,632936,DepthScenes,duration_manipulation_targetAtFixation,jsons/v1_VE1000_randls_11.json,http://54.235.29.9/FacialAge/BNav_EC2/DepthDuration/v2_depth_duration_MTurk/v2_DepthDuration_HTML.html#169,169,1366,625,1366,768,8-29-2022,10-17-0,79,depth_duration_stimuli/002988_2014-06-15_12-24-20_094959634447_rgbf000150-resize_1/002988_2014-06-15_12-24-20_094959634447_rgbf000150-resize_1-target.png,1000,4.7669999999999995,7,6267,999,feet,jsons/v1_VE1000_randls_11.json,858722,943802,25,Man
79,632936,DepthScenes,duration_manipulation_targetAtFixation,jsons/v1_VE1000_randls_11.json,http://54.235.29.9/FacialAge/BNav_EC2/DepthDuration/v2_depth_duration_MTurk/v2_DepthDuration_HTML.html#169,169,1366,625,1366,768,8-29-2022,10-17-0,80,depth_duration_stimuli/001052_2014-06-08_18-24-54_260595134347_rgbf000130-resize_1/001052_2014-06-08_18-24-54_260595134347_rgbf000130-resize_1-target.png,1000,4.1045,8,7905,999,feet,jsons/v1_VE1000_randls_11.json,858722,943802,25,Man
80,632936,DepthScenes,duration_manipulation_targetAtFixation,jsons/v1_VE1000_randls_11.json,http://54.235.29.9/FacialAge/BNav_EC2/DepthDuration/v2_depth_duration_MTurk/v2_DepthDuration_HTML.html#169,169,1366,625,1366,768,8-29-2022,10-17-0,81,depth_duration_stimuli/001808_2014-06-26_20-50-58_260595134347_rgbf000029-resize_1/001808_2014-06-26_20-50-58_260595134347_rgbf000029-resize_1-target.png,1000,4.249,8,3010,999,feet,jsons/v1_VE1000_randls_11.json,858722,943802,25,Man
81,632936,DepthScenes,duration_manipulation_targetAtFixation,jsons/v1_VE1000_randls_11.json,http://54.235.29.9/FacialAge/BNav_EC2/DepthDuration/v2_depth_duration_MTurk/v2_DepthDuration_HTML.html#169,169,1366,625,1366,768,8-29-2022,10-17-0,82,depth_duration_stimuli/001815_2014-06-26_20-52-55_260595134347_rgbf000020-resize_0/001815_2014-06-26_20-52-55_260595134347_rgbf000020-resize_0-target.png,1000,3.3865,8,3121,999,feet,jsons/v1_VE1000_randls_11.json,858722,943802,25,Man
82,632936,DepthScenes,duration_manipulation_targetAtFixation,jsons/v1_VE1000_randls_11.json,http://54.235.29.9/FacialAge/BNav_EC2/DepthDuration/v2_depth_duration_MTurk/v2_DepthDuration_HTML.html#169,169,1366,625,1366,768,8-29-2022,10-17-0,83,depth_duration_stimuli/001806_2014-06-26_20-50-20_260595134347_rgbf000091-resize_1/001806_2014-06-26_20-50-20_260595134347_rgbf000091-resize_1-target.png,1000,2.7305,8,3104,998,feet,jsons/v1_VE1000_randls_11.json,858722,943802,25,Man
83,632936,DepthScenes,duration_manipulation_targetAtFixation,jsons/v1_VE1000_randls_11.json,http://54.235.29.9/FacialAge/BNav_EC2/DepthDuration/v2_depth_duration_MTurk/v2_DepthDuration_HTML.html#169,169,1366,625,1366,768,8-29-2022,10-17-0,84,depth_duration_stimuli/001617_2014-06-20_11-35-32_260595134347_rgbf000066-resize_1/001617_2014-06-20_11-35-32_260595134347_rgbf000066-resize_1-target.png,1000,3.7910000000000004,8,16418,999,feet,jsons/v1_VE1000_randls_11.json,858722,943802,25,Man
84,632936,DepthScenes,duration_manipulation_targetAtFixation,jsons/v1_VE1000_randls_11.json,http://54.235.29.9/FacialAge/BNav_EC2/DepthDuration/v2_depth_duration_MTurk/v2_DepthDuration_HTML.html#169,169,1366,625,1366,768,8-29-2022,10-17-0,85,depth_duration_stimuli/000758_2014-06-08_22-05-08_260595134347_rgbf000085-resize_0/000758_2014-06-08_22-05-08_260595134347_rgbf000085-resize_0-target.png,1000,3.3810000000000002,8,3051,1000,feet,jsons/v1_VE1000_randls_11.json,858722,943802,25,Man
85,632936,DepthScenes,duration_manipulation_targetAtFixation,jsons/v1_VE1000_randls_11.json,http://54.235.29.9/FacialAge/BNav_EC2/DepthDuration/v2_depth_duration_MTurk/v2_DepthDuration_HTML.html#169,169,1366,625,1366,768,8-29-2022,10-17-0,86,depth_duration_stimuli/000854_2014-06-09_19-43-13_260595134347_rgbf000066-resize_0/000854_2014-06-09_19-43-13_260595134347_rgbf000066-resize_0-target.png,1000,3.068,6,2995,999,feet,jsons/v1_VE1000_randls_11.json,858722,943802,25,Man
86,632936,DepthScenes,duration_manipulation_targetAtFixation,jsons/v1_VE1000_randls_11.json,http://54.235.29.9/FacialAge/BNav_EC2/DepthDuration/v2_depth_duration_MTurk/v2_DepthDuration_HTML.html#169,169,1366,625,1366,768,8-29-2022,10-17-0,87,depth_duration_stimuli/002600_2014-06-24_14-27-04_094959634447_rgbf000074-resize_2/002600_2014-06-24_14-27-04_094959634447_rgbf000074-resize_2-target.png,1000,2.7575,6,3169,999,feet,jsons/v1_VE1000_randls_11.json,858722,943802,25,Man
87,632936,DepthScenes,duration_manipulation_targetAtFixation,jsons/v1_VE1000_randls_11.json,http://54.235.29.9/FacialAge/BNav_EC2/DepthDuration/v2_depth_duration_MTurk/v2_DepthDuration_HTML.html#169,169,1366,625,1366,768,8-29-2022,10-17-0,88,depth_duration_stimuli/003228_2014-05-14_13-42-35_094959634447_rgbf000101-resize_1/003228_2014-05-14_13-42-35_094959634447_rgbf000101-resize_1-target.png,1000,1.9680000000000002,4,3034,999,feet,jsons/v1_VE1000_randls_11.json,858722,943802,25,Man
88,632936,DepthScenes,duration_manipulation_targetAtFixation,jsons/v1_VE1000_randls_11.json,http://54.235.29.9/FacialAge/BNav_EC2/DepthDuration/v2_depth_duration_MTurk/v2_DepthDuration_HTML.html#169,169,1366,625,1366,768,8-29-2022,10-17-0,89,depth_duration_stimuli/001244_2014-06-17_16-47-45_260595134347_rgbf000030-resize_4/001244_2014-06-17_16-47-45_260595134347_rgbf000030-resize_4-target.png,1000,2.0425,6,4179,999,feet,jsons/v1_VE1000_randls_11.json,858722,943802,25,Man
89,632936,DepthScenes,duration_manipulation_targetAtFixation,jsons/v1_VE1000_randls_11.json,http://54.235.29.9/FacialAge/BNav_EC2/DepthDuration/v2_depth_duration_MTurk/v2_DepthDuration_HTML.html#169,169,1366,625,1366,768,8-29-2022,10-17-0,90,depth_duration_stimuli/003495_2014-05-21_16-01-51_094959634447_rgbf000100-resize_3/003495_2014-05-21_16-01-51_094959634447_rgbf000100-resize_3-target.png,1000,1.6255,6,3066,1000,feet,jsons/v1_VE1000_randls_11.json,858722,943802,25,Man
90,632936,DepthScenes,duration_manipulation_targetAtFixation,jsons/v1_VE1000_randls_11.json,http://54.235.29.9/FacialAge/BNav_EC2/DepthDuration/v2_depth_duration_MTurk/v2_DepthDuration_HTML.html#169,169,1366,625,1366,768,8-29-2022,10-17-0,91,depth_duration_stimuli/000506_2014-06-08_23-21-00_260595134347_rgbf000070-resize_7/000506_2014-06-08_23-21-00_260595134347_rgbf000070-resize_7-target.png,1000,4.0585,6,3369,1000,feet,jsons/v1_VE1000_randls_11.json,858722,943802,25,Man
91,632936,DepthScenes,duration_manipulation_targetAtFixation,jsons/v1_VE1000_randls_11.json,http://54.235.29.9/FacialAge/BNav_EC2/DepthDuration/v2_depth_duration_MTurk/v2_DepthDuration_HTML.html#169,169,1366,625,1366,768,8-29-2022,10-17-0,92,depth_duration_stimuli/003079_2014-06-15_15-18-20_094959634447_rgbf000152-resize_8/003079_2014-06-15_15-18-20_094959634447_rgbf000152-resize_8-target.png,1000,2.8775,8,3194,999,feet,jsons/v1_VE1000_randls_11.json,858722,943802,25,Man
92,632936,DepthScenes,duration_manipulation_targetAtFixation,jsons/v1_VE1000_randls_11.json,http://54.235.29.9/FacialAge/BNav_EC2/DepthDuration/v2_depth_duration_MTurk/v2_DepthDuration_HTML.html#169,169,1366,625,1366,768,8-29-2022,10-17-0,93,depth_duration_stimuli/002989_2014-06-15_12-25-03_094959634447_rgbf000150-resize_3/002989_2014-06-15_12-25-03_094959634447_rgbf000150-resize_3-target.png,1000,4.1975,8,3218,999,feet,jsons/v1_VE1000_randls_11.json,858722,943802,25,Man
93,632936,DepthScenes,duration_manipulation_targetAtFixation,jsons/v1_VE1000_randls_11.json,http://54.235.29.9/FacialAge/BNav_EC2/DepthDuration/v2_depth_duration_MTurk/v2_DepthDuration_HTML.html#169,169,1366,625,1366,768,8-29-2022,10-17-0,94,depth_duration_stimuli/000866_2014-06-09_20-45-42_260595134347_rgbf000139-resize_1/000866_2014-06-09_20-45-42_260595134347_rgbf000139-resize_1-target.png,1000,3.2155,6,3699,999,feet,jsons/v1_VE1000_randls_11.json,858722,943802,25,Man
94,632936,DepthScenes,duration_manipulation_targetAtFixation,jsons/v1_VE1000_randls_11.json,http://54.235.29.9/FacialAge/BNav_EC2/DepthDuration/v2_depth_duration_MTurk/v2_DepthDuration_HTML.html#169,169,1366,625,1366,768,8-29-2022,10-17-0,95,depth_duration_stimuli/001029_2014-06-08_13-17-57_260595134347_rgbf000065-resize_1/001029_2014-06-08_13-17-57_260595134347_rgbf000065-resize_1-target.png,1000,3.0835,8,3321,999,feet,jsons/v1_VE1000_randls_11.json,858722,943802,25,Man
95,632936,DepthScenes,duration_manipulation_targetAtFixation,jsons/v1_VE1000_randls_11.json,http://54.235.29.9/FacialAge/BNav_EC2/DepthDuration/v2_depth_duration_MTurk/v2_DepthDuration_HTML.html#169,169,1366,625,1366,768,8-29-2022,10-17-0,96,depth_duration_stimuli/000677_2014-06-08_23-10-32_260595134347_rgbf000158-resize_6/000677_2014-06-08_23-10-32_260595134347_rgbf000158-resize_6-target.png,1000,3.556,7,3610,999,feet,jsons/v1_VE1000_randls_11.json,858722,943802,25,Man
96,632936,DepthScenes,duration_manipulation_targetAtFixation,jsons/v1_VE1000_randls_11.json,http://54.235.29.9/FacialAge/BNav_EC2/DepthDuration/v2_depth_duration_MTurk/v2_DepthDuration_HTML.html#169,169,1366,625,1366,768,8-29-2022,10-17-0,97,depth_duration_stimuli/002549_2014-06-24_13-41-39_094959634447_rgbf000022-resize_3/002549_2014-06-24_13-41-39_094959634447_rgbf000022-resize_3-target.png,1000,1.476,3,3204,1000,feet,jsons/v1_VE1000_randls_11.json,858722,943802,25,Man
97,632936,DepthScenes,duration_manipulation_targetAtFixation,jsons/v1_VE1000_randls_11.json,http://54.235.29.9/FacialAge/BNav_EC2/DepthDuration/v2_depth_duration_MTurk/v2_DepthDuration_HTML.html#169,169,1366,625,1366,768,8-29-2022,10-17-0,98,depth_duration_stimuli/002750_2014-06-22_19-08-03_094959634447_rgbf000094-resize_4/002750_2014-06-22_19-08-03_094959634447_rgbf000094-resize_4-target.png,1000,2.354,4,3458,999,feet,jsons/v1_VE1000_randls_11.json,858722,943802,25,Man
98,632936,DepthScenes,duration_manipulation_targetAtFixation,jsons/v1_VE1000_randls_11.json,http://54.235.29.9/FacialAge/BNav_EC2/DepthDuration/v2_depth_duration_MTurk/v2_DepthDuration_HTML.html#169,169,1366,625,1366,768,8-29-2022,10-17-0,99,depth_duration_stimuli/001540_2014-06-20_17-01-05_260595134347_rgbf000086-resize_2/001540_2014-06-20_17-01-05_260595134347_rgbf000086-resize-original.jpg,1000,1.459,0,4266,998,feet,jsons/v1_VE1000_randls_11.json,858722,943802,25,Man
99,632936,DepthScenes,duration_manipulation_targetAtFixation,jsons/v1_VE1000_randls_11.json,http://54.235.29.9/FacialAge/BNav_EC2/DepthDuration/v2_depth_duration_MTurk/v2_DepthDuration_HTML.html#169,169,1366,625,1366,768,8-29-2022,10-17-0,100,depth_duration_stimuli/001417_2014-06-19_16-25-36_260595134347_rgbf000115-resize_5/001417_2014-06-19_16-25-36_260595134347_rgbf000115-resize_5-target.png,1000,4.6255,7,3691,999,feet,jsons/v1_VE1000_randls_11.json,858722,943802,25,Man
100,632936,DepthScenes,duration_manipulation_targetAtFixation,jsons/v1_VE1000_randls_11.json,http://54.235.29.9/FacialAge/BNav_EC2/DepthDuration/v2_depth_duration_MTurk/v2_DepthDuration_HTML.html#169,169,1366,625,1366,768,8-29-2022,10-17-0,101,depth_duration_stimuli/003081_2014-06-15_15-19-16_094959634447_rgbf000150-resize_1/003081_2014-06-15_15-19-16_094959634447_rgbf000150-resize_1-target.png,1000,3.9125,7,3025,999,feet,jsons/v1_VE1000_randls_11.json,858722,943802,25,Man
101,632936,DepthScenes,duration_manipulation_targetAtFixation,jsons/v1_VE1000_randls_11.json,http://54.235.29.9/FacialAge/BNav_EC2/DepthDuration/v2_depth_duration_MTurk/v2_DepthDuration_HTML.html#169,169,1366,625,1366,768,8-29-2022,10-17-0,102,depth_duration_stimuli/000522_2014-06-08_13-35-06_260595134347_rgbf000244-resize_1/000522_2014-06-08_13-35-06_260595134347_rgbf000244-resize_1-target.png,1000,2.3715,3,3042,999,feet,jsons/v1_VE1000_randls_11.json,858722,943802,25,Man
102,632936,DepthScenes,duration_manipulation_targetAtFixation,jsons/v1_VE1000_randls_11.json,http://54.235.29.9/FacialAge/BNav_EC2/DepthDuration/v2_depth_duration_MTurk/v2_DepthDuration_HTML.html#169,169,1366,625,1366,768,8-29-2022,10-17-0,103,depth_duration_stimuli/002949_2014-06-26_15-57-42_094959634447_rgbf000079-resize_1/002949_2014-06-26_15-57-42_094959634447_rgbf000079-resize_1-target.png,1000,1.8915,4,3054,999,feet,jsons/v1_VE1000_randls_11.json,858722,943802,25,Man
103,632936,DepthScenes,duration_manipulation_targetAtFixation,jsons/v1_VE1000_randls_11.json,http://54.235.29.9/FacialAge/BNav_EC2/DepthDuration/v2_depth_duration_MTurk/v2_DepthDuration_HTML.html#169,169,1366,625,1366,768,8-29-2022,10-17-0,104,depth_duration_stimuli/002375_2014-06-28_20-13-44_260595134347_rgbf000032-resize_1/002375_2014-06-28_20-13-44_260595134347_rgbf000032-resize_1-target.png,1000,4.0175,6,2903,999,feet,jsons/v1_VE1000_randls_11.json,858722,943802,25,Man
104,632936,DepthScenes,duration_manipulation_targetAtFixation,jsons/v1_VE1000_randls_11.json,http://54.235.29.9/FacialAge/BNav_EC2/DepthDuration/v2_depth_duration_MTurk/v2_DepthDuration_HTML.html#169,169,1366,625,1366,768,8-29-2022,10-17-0,105,depth_duration_stimuli/002657_2014-06-13_15-29-54_094959634447_rgbf000150-resize_1/002657_2014-06-13_15-29-54_094959634447_rgbf000150-resize_1-target.png,1000,4.919,8,2962,999,feet,jsons/v1_VE1000_randls_11.json,858722,943802,25,Man
105,632936,DepthScenes,duration_manipulation_targetAtFixation,jsons/v1_VE1000_randls_11.json,http://54.235.29.9/FacialAge/BNav_EC2/DepthDuration/v2_depth_duration_MTurk/v2_DepthDuration_HTML.html#169,169,1366,625,1366,768,8-29-2022,10-17-0,106,depth_duration_stimuli/002213_2014-06-28_18-37-58_260595134347_rgbf000055-resize_1/002213_2014-06-28_18-37-58_260595134347_rgbf000055-resize_1-target.png,1000,3.62,8,2961,1000,feet,jsons/v1_VE1000_randls_11.json,858722,943802,25,Man
106,632936,DepthScenes,duration_manipulation_targetAtFixation,jsons/v1_VE1000_randls_11.json,http://54.235.29.9/FacialAge/BNav_EC2/DepthDuration/v2_depth_duration_MTurk/v2_DepthDuration_HTML.html#169,169,1366,625,1366,768,8-29-2022,10-17-0,107,depth_duration_stimuli/000691_2014-06-08_13-08-50_260595134347_rgbf000132-resize_3/000691_2014-06-08_13-08-50_260595134347_rgbf000132-resize_3-target.png,1000,4.1530000000000005,7,3131,1000,feet,jsons/v1_VE1000_randls_11.json,858722,943802,25,Man
107,632936,DepthScenes,duration_manipulation_targetAtFixation,jsons/v1_VE1000_randls_11.json,http://54.235.29.9/FacialAge/BNav_EC2/DepthDuration/v2_depth_duration_MTurk/v2_DepthDuration_HTML.html#169,169,1366,625,1366,768,8-29-2022,10-17-0,108,depth_duration_stimuli/001570_2014-06-20_17-21-09_260595134347_rgbf000135-resize_4/001570_2014-06-20_17-21-09_260595134347_rgbf000135-resize_4-target.png,1000,4.467,8,2930,999,feet,jsons/v1_VE1000_randls_11.json,858722,943802,25,Man
108,632936,DepthScenes,duration_manipulation_targetAtFixation,jsons/v1_VE1000_randls_11.json,http://54.235.29.9/FacialAge/BNav_EC2/DepthDuration/v2_depth_duration_MTurk/v2_DepthDuration_HTML.html#169,169,1366,625,1366,768,8-29-2022,10-17-0,109,depth_duration_stimuli/001392_2014-06-19_16-07-59_260595134347_rgbf000046-resize_1/001392_2014-06-19_16-07-59_260595134347_rgbf000046-resize_1-target.png,1000,4.135,8,3066,999,feet,jsons/v1_VE1000_randls_11.json,858722,943802,25,Man
109,632936,DepthScenes,duration_manipulation_targetAtFixation,jsons/v1_VE1000_randls_11.json,http://54.235.29.9/FacialAge/BNav_EC2/DepthDuration/v2_depth_duration_MTurk/v2_DepthDuration_HTML.html#169,169,1366,625,1366,768,8-29-2022,10-17-0,110,depth_duration_stimuli/001150_2014-06-17_15-27-34_260595134347_rgbf000108-resize_2/001150_2014-06-17_15-27-34_260595134347_rgbf000108-resize_2-target.png,1000,4.0325,8,3161,999,feet,jsons/v1_VE1000_randls_11.json,858722,943802,25,Man
110,632936,DepthScenes,duration_manipulation_targetAtFixation,jsons/v1_VE1000_randls_11.json,http://54.235.29.9/FacialAge/BNav_EC2/DepthDuration/v2_depth_duration_MTurk/v2_DepthDuration_HTML.html#169,169,1366,625,1366,768,8-29-2022,10-17-0,111,depth_duration_stimuli/000665_2014-06-09_20-42-35_260595134347_rgbf000110-resize_1/000665_2014-06-09_20-42-35_260595134347_rgbf000110-resize_1-target.png,1000,3.057,6,3266,999,feet,jsons/v1_VE1000_randls_11.json,858722,943802,25,Man
111,632936,DepthScenes,duration_manipulation_targetAtFixation,jsons/v1_VE1000_randls_11.json,http://54.235.29.9/FacialAge/BNav_EC2/DepthDuration/v2_depth_duration_MTurk/v2_DepthDuration_HTML.html#169,169,1366,625,1366,768,8-29-2022,10-17-0,112,depth_duration_stimuli/001133_2014-06-17_14-49-16_260595134347_rgbf000100-resize_0/001133_2014-06-17_14-49-16_260595134347_rgbf000100-resize_0-target.png,1000,4.2115,7,2932,999,feet,jsons/v1_VE1000_randls_11.json,858722,943802,25,Man
112,632936,DepthScenes,duration_manipulation_targetAtFixation,jsons/v1_VE1000_randls_11.json,http://54.235.29.9/FacialAge/BNav_EC2/DepthDuration/v2_depth_duration_MTurk/v2_DepthDuration_HTML.html#169,169,1366,625,1366,768,8-29-2022,10-17-0,113,depth_duration_stimuli/001132_2014-06-17_14-48-54_260595134347_rgbf000100-resize_2/001132_2014-06-17_14-48-54_260595134347_rgbf000100-resize_2-target.png,1000,3.753,8,2953,999,feet,jsons/v1_VE1000_randls_11.json,858722,943802,25,Man
113,632936,DepthScenes,duration_manipulation_targetAtFixation,jsons/v1_VE1000_randls_11.json,http://54.235.29.9/FacialAge/BNav_EC2/DepthDuration/v2_depth_duration_MTurk/v2_DepthDuration_HTML.html#169,169,1366,625,1366,768,8-29-2022,10-17-0,114,depth_duration_stimuli/001011_2014-06-08_23-18-54_260595134347_rgbf000044-resize_4/001011_2014-06-08_23-18-54_260595134347_rgbf000044-resize_4-target.png,1000,2.4730000000000003,7,4611,1000,feet,jsons/v1_VE1000_randls_11.json,858722,943802,25,Man
114,632936,DepthScenes,duration_manipulation_targetAtFixation,jsons/v1_VE1000_randls_11.json,http://54.235.29.9/FacialAge/BNav_EC2/DepthDuration/v2_depth_duration_MTurk/v2_DepthDuration_HTML.html#169,169,1366,625,1366,768,8-29-2022,10-17-0,115,depth_duration_stimuli/002875_2014-06-01_15-19-00_094959634447_rgbf000151-resize_1/002875_2014-06-01_15-19-00_094959634447_rgbf000151-resize_1-target.png,1000,1.9675,8,3202,1000,feet,jsons/v1_VE1000_randls_11.json,858722,943802,25,Man
115,632936,DepthScenes,duration_manipulation_targetAtFixation,jsons/v1_VE1000_randls_11.json,http://54.235.29.9/FacialAge/BNav_EC2/DepthDuration/v2_depth_duration_MTurk/v2_DepthDuration_HTML.html#169,169,1366,625,1366,768,8-29-2022,10-17-0,116,depth_duration_stimuli/001170_2014-06-17_15-43-44_260595134347_rgbf000096-resize_6/001170_2014-06-17_15-43-44_260595134347_rgbf000096-resize-original.jpg,1000,1.1909999999999998,0,2859,1000,feet,jsons/v1_VE1000_randls_11.json,858722,943802,25,Man
116,632936,DepthScenes,duration_manipulation_targetAtFixation,jsons/v1_VE1000_randls_11.json,http://54.235.29.9/FacialAge/BNav_EC2/DepthDuration/v2_depth_duration_MTurk/v2_DepthDuration_HTML.html#169,169,1366,625,1366,768,8-29-2022,10-17-0,117,depth_duration_stimuli/002784_2014-06-22_19-26-30_094959634447_rgbf000083-resize_3/002784_2014-06-22_19-26-30_094959634447_rgbf000083-resize_3-target.png,1000,1.8046666666667,4,3418,1000,feet,jsons/v1_VE1000_randls_11.json,858722,943802,25,Man
117,632936,DepthScenes,duration_manipulation_targetAtFixation,jsons/v1_VE1000_randls_11.json,http://54.235.29.9/FacialAge/BNav_EC2/DepthDuration/v2_depth_duration_MTurk/v2_DepthDuration_HTML.html#169,169,1366,625,1366,768,8-29-2022,10-17-0,118,depth_duration_stimuli/001100_2014-06-15_17-46-26_260595134347_rgbf000225-resize_2/001100_2014-06-15_17-46-26_260595134347_rgbf000225-resize_2-target.png,1000,2.24,4,3018,1000,feet,jsons/v1_VE1000_randls_11.json,858722,943802,25,Man
118,632936,DepthScenes,duration_manipulation_targetAtFixation,jsons/v1_VE1000_randls_11.json,http://54.235.29.9/FacialAge/BNav_EC2/DepthDuration/v2_depth_duration_MTurk/v2_DepthDuration_HTML.html#169,169,1366,625,1366,768,8-29-2022,10-17-0,119,depth_duration_stimuli/000470_2014-06-09_19-42-40_260595134347_rgbf000094-resize_1/000470_2014-06-09_19-42-40_260595134347_rgbf000094-resize_1-target.png,1000,1.831,4,3026,999,feet,jsons/v1_VE1000_randls_11.json,858722,943802,25,Man
119,632936,DepthScenes,duration_manipulation_targetAtFixation,jsons/v1_VE1000_randls_11.json,http://54.235.29.9/FacialAge/BNav_EC2/DepthDuration/v2_depth_duration_MTurk/v2_DepthDuration_HTML.html#169,169,1366,625,1366,768,8-29-2022,10-17-0,120,depth_duration_stimuli/000109_2014-05-14_23-41-52_260595134347_rgbf000035-resize_9/000109_2014-05-14_23-41-52_260595134347_rgbf000035-resize_9-target.png,1000,1.3545,4,2986,1000,feet,jsons/v1_VE1000_randls_11.json,858722,943802,25,Man
120,632936,DepthScenes,duration_manipulation_targetAtFixation,jsons/v1_VE1000_randls_11.json,http://54.235.29.9/FacialAge/BNav_EC2/DepthDuration/v2_depth_duration_MTurk/v2_DepthDuration_HTML.html#169,169,1366,625,1366,768,8-29-2022,10-17-0,121,depth_duration_stimuli/002663_2014-06-13_15-50-26_094959634447_rgbf000075-resize_1/002663_2014-06-13_15-50-26_094959634447_rgbf000075-resize_1-target.png,1000,4.7495,6,3058,1000,feet,jsons/v1_VE1000_randls_11.json,858722,943802,25,Man
121,632936,DepthScenes,duration_manipulation_targetAtFixation,jsons/v1_VE1000_randls_11.json,http://54.235.29.9/FacialAge/BNav_EC2/DepthDuration/v2_depth_duration_MTurk/v2_DepthDuration_HTML.html#169,169,1366,625,1366,768,8-29-2022,10-17-0,122,depth_duration_stimuli/000409_2014-06-04_19-23-33_260595134347_rgbf000067-resize_0/000409_2014-06-04_19-23-33_260595134347_rgbf000067-resize_0-target.png,1000,3.7335,6,2899,999,feet,jsons/v1_VE1000_randls_11.json,858722,943802,25,Man
122,632936,DepthScenes,duration_manipulation_targetAtFixation,jsons/v1_VE1000_randls_11.json,http://54.235.29.9/FacialAge/BNav_EC2/DepthDuration/v2_depth_duration_MTurk/v2_DepthDuration_HTML.html#169,169,1366,625,1366,768,8-29-2022,10-17-0,123,depth_duration_stimuli/001158_2014-06-17_15-32-16_260595134347_rgbf000138-resize_2/001158_2014-06-17_15-32-16_260595134347_rgbf000138-resize_2-target.png,1000,4.5315,8,3042,1000,feet,jsons/v1_VE1000_randls_11.json,858722,943802,25,Man
123,632936,DepthScenes,duration_manipulation_targetAtFixation,jsons/v1_VE1000_randls_11.json,http://54.235.29.9/FacialAge/BNav_EC2/DepthDuration/v2_depth_duration_MTurk/v2_DepthDuration_HTML.html#169,169,1366,625,1366,768,8-29-2022,10-17-0,124,depth_duration_stimuli/000556_2014-06-09_22-42-56_260595134347_rgbf000214-resize_1/000556_2014-06-09_22-42-56_260595134347_rgbf000214-resize_1-target.png,1000,4.8415,8,3425,998,feet,jsons/v1_VE1000_randls_11.json,858722,943802,25,Man
124,632936,DepthScenes,duration_manipulation_targetAtFixation,jsons/v1_VE1000_randls_11.json,http://54.235.29.9/FacialAge/BNav_EC2/DepthDuration/v2_depth_duration_MTurk/v2_DepthDuration_HTML.html#169,169,1366,625,1366,768,8-29-2022,10-17-0,125,depth_duration_stimuli/002763_2014-06-22_19-13-10_094959634447_rgbf000075-resize_4/002763_2014-06-22_19-13-10_094959634447_rgbf000075-resize_4-target.png,1000,1.68375,7,4186,1000,feet,jsons/v1_VE1000_randls_11.json,858722,943802,25,Man
125,632936,DepthScenes,duration_manipulation_targetAtFixation,jsons/v1_VE1000_randls_11.json,http://54.235.29.9/FacialAge/BNav_EC2/DepthDuration/v2_depth_duration_MTurk/v2_DepthDuration_HTML.html#169,169,1366,625,1366,768,8-29-2022,10-17-0,126,depth_duration_stimuli/002209_2014-06-28_18-36-10_260595134347_rgbf000051-resize_1/002209_2014-06-28_18-36-10_260595134347_rgbf000051-resize_1-target.png,1000,2.057,7,8154,1000,feet,jsons/v1_VE1000_randls_11.json,858722,943802,25,Man
126,632936,DepthScenes,duration_manipulation_targetAtFixation,jsons/v1_VE1000_randls_11.json,http://54.235.29.9/FacialAge/BNav_EC2/DepthDuration/v2_depth_duration_MTurk/v2_DepthDuration_HTML.html#169,169,1366,625,1366,768,8-29-2022,10-17-0,127,depth_duration_stimuli/000773_2014-06-08_22-24-54_260595134347_rgbf000093-resize_1/000773_2014-06-08_22-24-54_260595134347_rgbf000093-resize_1-target.png,1000,4.973,8,3842,1000,feet,jsons/v1_VE1000_randls_11.json,858722,943802,25,Man
127,632936,DepthScenes,duration_manipulation_targetAtFixation,jsons/v1_VE1000_randls_11.json,http://54.235.29.9/FacialAge/BNav_EC2/DepthDuration/v2_depth_duration_MTurk/v2_DepthDuration_HTML.html#169,169,1366,625,1366,768,8-29-2022,10-17-0,128,depth_duration_stimuli/002414_2014-06-28_20-24-58_260595134347_rgbf000067-resize_4/002414_2014-06-28_20-24-58_260595134347_rgbf000067-resize_4-target.png,1000,4.363,8,6642,999,feet,jsons/v1_VE1000_randls_11.json,858722,943802,25,Man
128,632936,DepthScenes,duration_manipulation_targetAtFixation,jsons/v1_VE1000_randls_11.json,http://54.235.29.9/FacialAge/BNav_EC2/DepthDuration/v2_depth_duration_MTurk/v2_DepthDuration_HTML.html#169,169,1366,625,1366,768,8-29-2022,10-17-0,129,depth_duration_stimuli/000642_2014-06-08_16-59-25_260595134347_rgbf000098-resize_2/000642_2014-06-08_16-59-25_260595134347_rgbf000098-resize_2-target.png,1000,2.8815,6,3307,999,feet,jsons/v1_VE1000_randls_11.json,858722,943802,25,Man
129,632936,DepthScenes,duration_manipulation_targetAtFixation,jsons/v1_VE1000_randls_11.json,http://54.235.29.9/FacialAge/BNav_EC2/DepthDuration/v2_depth_duration_MTurk/v2_DepthDuration_HTML.html#169,169,1366,625,1366,768,8-29-2022,10-17-0,130,depth_duration_stimuli/002425_2014-06-28_20-27-29_260595134347_rgbf000031-resize_8/002425_2014-06-28_20-27-29_260595134347_rgbf000031-resize_8-target.png,1000,3.8960000000000004,8,3010,999,feet,jsons/v1_VE1000_randls_11.json,858722,943802,25,Man
130,632936,DepthScenes,duration_manipulation_targetAtFixation,jsons/v1_VE1000_randls_11.json,http://54.235.29.9/FacialAge/BNav_EC2/DepthDuration/v2_depth_duration_MTurk/v2_DepthDuration_HTML.html#169,169,1366,625,1366,768,8-29-2022,10-17-0,131,depth_duration_stimuli/003070_2014-06-15_14-58-27_094959634447_rgbf000150-resize_3/003070_2014-06-15_14-58-27_094959634447_rgbf000150-resize_3-target.png,1000,2.9415,7,3395,1000,feet,jsons/v1_VE1000_randls_11.json,858722,943802,25,Man
131,632936,DepthScenes,duration_manipulation_targetAtFixation,jsons/v1_VE1000_randls_11.json,http://54.235.29.9/FacialAge/BNav_EC2/DepthDuration/v2_depth_duration_MTurk/v2_DepthDuration_HTML.html#169,169,1366,625,1366,768,8-29-2022,10-17-0,132,depth_duration_stimuli/000943_2014-06-09_19-31-07_260595134347_rgbf000128-resize_1/000943_2014-06-09_19-31-07_260595134347_rgbf000128-resize_1-target.png,1000,1.9765,6,2989,999,feet,jsons/v1_VE1000_randls_11.json,858722,943802,25,Man
132,632936,DepthScenes,duration_manipulation_targetAtFixation,jsons/v1_VE1000_randls_11.json,http://54.235.29.9/FacialAge/BNav_EC2/DepthDuration/v2_depth_duration_MTurk/v2_DepthDuration_HTML.html#169,169,1366,625,1366,768,8-29-2022,10-17-0,133,depth_duration_stimuli/002039_2014-06-24_20-22-38_260595134347_rgbf000084-resize_1/002039_2014-06-24_20-22-38_260595134347_rgbf000084-resize_1-target.png,1000,4.408,7,3119,999,feet,jsons/v1_VE1000_randls_11.json,858722,943802,25,Man
133,632936,DepthScenes,duration_manipulation_targetAtFixation,jsons/v1_VE1000_randls_11.json,http://54.235.29.9/FacialAge/BNav_EC2/DepthDuration/v2_depth_duration_MTurk/v2_DepthDuration_HTML.html#169,169,1366,625,1366,768,8-29-2022,10-17-0,134,depth_duration_stimuli/002103_2014-06-25_20-00-40_260595134347_rgbf000049-resize_0/002103_2014-06-25_20-00-40_260595134347_rgbf000049-resize_0-target.png,1000,4.105,7,3052,1000,feet,jsons/v1_VE1000_randls_11.json,858722,943802,25,Man
134,632936,DepthScenes,duration_manipulation_targetAtFixation,jsons/v1_VE1000_randls_11.json,http://54.235.29.9/FacialAge/BNav_EC2/DepthDuration/v2_depth_duration_MTurk/v2_DepthDuration_HTML.html#169,169,1366,625,1366,768,8-29-2022,10-17-0,135,depth_duration_stimuli/002072_2014-06-24_21-48-06_260595134347_rgbf000115-resize_0/002072_2014-06-24_21-48-06_260595134347_rgbf000115-resize-original.jpg,1000,4.702,0,2953,999,feet,jsons/v1_VE1000_randls_11.json,858722,943802,25,Man
135,632936,DepthScenes,duration_manipulation_targetAtFixation,jsons/v1_VE1000_randls_11.json,http://54.235.29.9/FacialAge/BNav_EC2/DepthDuration/v2_depth_duration_MTurk/v2_DepthDuration_HTML.html#169,169,1366,625,1366,768,8-29-2022,10-17-0,136,depth_duration_stimuli/003621_2014-05-23_18-06-08_094959634447_rgbf000101-resize_1/003621_2014-05-23_18-06-08_094959634447_rgbf000101-resize_1-target.png,1000,3.9835,7,3049,1000,feet,jsons/v1_VE1000_randls_11.json,858722,943802,25,Man
136,632936,DepthScenes,duration_manipulation_targetAtFixation,jsons/v1_VE1000_randls_11.json,http://54.235.29.9/FacialAge/BNav_EC2/DepthDuration/v2_depth_duration_MTurk/v2_DepthDuration_HTML.html#169,169,1366,625,1366,768,8-29-2022,10-17-0,137,depth_duration_stimuli/001584_2014-06-20_11-07-43_260595134347_rgbf000002-resize_1/001584_2014-06-20_11-07-43_260595134347_rgbf000002-resize_1-target.png,1000,3.53,8,3017,999,feet,jsons/v1_VE1000_randls_11.json,858722,943802,25,Man
137,632936,DepthScenes,duration_manipulation_targetAtFixation,jsons/v1_VE1000_randls_11.json,http://54.235.29.9/FacialAge/BNav_EC2/DepthDuration/v2_depth_duration_MTurk/v2_DepthDuration_HTML.html#169,169,1366,625,1366,768,8-29-2022,10-17-0,138,depth_duration_stimuli/003534_2014-05-22_15-06-10_094959634447_rgbf000102-resize_4/003534_2014-05-22_15-06-10_094959634447_rgbf000102-resize_4-target.png,1000,1.426,4,3002,999,feet,jsons/v1_VE1000_randls_11.json,858722,943802,25,Man
138,632936,DepthScenes,duration_manipulation_targetAtFixation,jsons/v1_VE1000_randls_11.json,http://54.235.29.9/FacialAge/BNav_EC2/DepthDuration/v2_depth_duration_MTurk/v2_DepthDuration_HTML.html#169,169,1366,625,1366,768,8-29-2022,10-17-0,139,depth_duration_stimuli/002637_2014-06-24_14-51-13_094959634447_rgbf000066-resize_4/002637_2014-06-24_14-51-13_094959634447_rgbf000066-resize_4-target.png,1000,1.9955,5,2971,999,feet,jsons/v1_VE1000_randls_11.json,858722,943802,25,Man
139,632936,DepthScenes,duration_manipulation_targetAtFixation,jsons/v1_VE1000_randls_11.json,http://54.235.29.9/FacialAge/BNav_EC2/DepthDuration/v2_depth_duration_MTurk/v2_DepthDuration_HTML.html#169,169,1366,625,1366,768,8-29-2022,10-17-0,140,depth_duration_stimuli/000486_2014-06-09_20-47-20_260595134347_rgbf000143-resize_2/000486_2014-06-09_20-47-20_260595134347_rgbf000143-resize_2-target.png,1000,4.8325,5,3038,1000,feet,jsons/v1_VE1000_randls_11.json,858722,943802,25,Man
140,632936,DepthScenes,duration_manipulation_targetAtFixation,jsons/v1_VE1000_randls_11.json,http://54.235.29.9/FacialAge/BNav_EC2/DepthDuration/v2_depth_duration_MTurk/v2_DepthDuration_HTML.html#169,169,1366,625,1366,768,8-29-2022,10-17-0,141,depth_duration_stimuli/003083_2014-06-15_15-21-03_094959634447_rgbf000063-resize_1/003083_2014-06-15_15-21-03_094959634447_rgbf000063-resize_1-target.png,1000,4.1405,7,3550,1000,feet,jsons/v1_VE1000_randls_11.json,858722,943802,25,Man
141,632936,DepthScenes,duration_manipulation_targetAtFixation,jsons/v1_VE1000_randls_11.json,http://54.235.29.9/FacialAge/BNav_EC2/DepthDuration/v2_depth_duration_MTurk/v2_DepthDuration_HTML.html#169,169,1366,625,1366,768,8-29-2022,10-17-0,142,depth_duration_stimuli/000788_2014-06-08_22-34-36_260595134347_rgbf000131-resize_1/000788_2014-06-08_22-34-36_260595134347_rgbf000131-resize_1-target.png,1000,3.359,7,3161,999,feet,jsons/v1_VE1000_randls_11.json,858722,943802,25,Man
142,632936,DepthScenes,duration_manipulation_targetAtFixation,jsons/v1_VE1000_randls_11.json,http://54.235.29.9/FacialAge/BNav_EC2/DepthDuration/v2_depth_duration_MTurk/v2_DepthDuration_HTML.html#169,169,1366,625,1366,768,8-29-2022,10-17-0,143,depth_duration_stimuli/001235_2014-06-17_16-37-36_260595134347_rgbf000084-resize_4/001235_2014-06-17_16-37-36_260595134347_rgbf000084-resize_4-target.png,1000,3.6605,7,2945,999,feet,jsons/v1_VE1000_randls_11.json,858722,943802,25,Man
143,632936,DepthScenes,duration_manipulation_targetAtFixation,jsons/v1_VE1000_randls_11.json,http://54.235.29.9/FacialAge/BNav_EC2/DepthDuration/v2_depth_duration_MTurk/v2_DepthDuration_HTML.html#169,169,1366,625,1366,768,8-29-2022,10-17-0,144,depth_duration_stimuli/000368_2014-06-09_15-53-01_260595134347_rgbf000155-resize_2/000368_2014-06-09_15-53-01_260595134347_rgbf000155-resize_2-target.png,1000,2.4859999999999998,6,2936,1000,feet,jsons/v1_VE1000_randls_11.json,858722,943802,25,Man
144,632936,DepthScenes,duration_manipulation_targetAtFixation,jsons/v1_VE1000_randls_11.json,http://54.235.29.9/FacialAge/BNav_EC2/DepthDuration/v2_depth_duration_MTurk/v2_DepthDuration_HTML.html#169,169,1366,625,1366,768,8-29-2022,10-17-0,145,depth_duration_stimuli/002678_2014-06-13_16-15-32_094959634447_rgbf000151-resize_6/002678_2014-06-13_16-15-32_094959634447_rgbf000151-resize_6-target.png,1000,2.1830000000000003,6,2925,999,feet,jsons/v1_VE1000_randls_11.json,858722,943802,25,Man
145,632936,DepthScenes,duration_manipulation_targetAtFixation,jsons/v1_VE1000_randls_11.json,http://54.235.29.9/FacialAge/BNav_EC2/DepthDuration/v2_depth_duration_MTurk/v2_DepthDuration_HTML.html#169,169,1366,625,1366,768,8-29-2022,10-17-0,146,depth_duration_stimuli/001498_2014-06-19_17-45-14_260595134347_rgbf000129-resize_4/001498_2014-06-19_17-45-14_260595134347_rgbf000129-resize-original.jpg,1000,1.4075,5,4378,999,feet,jsons/v1_VE1000_randls_11.json,858722,943802,25,Man
146,632936,DepthScenes,duration_manipulation_targetAtFixation,jsons/v1_VE1000_randls_11.json,http://54.235.29.9/FacialAge/BNav_EC2/DepthDuration/v2_depth_duration_MTurk/v2_DepthDuration_HTML.html#169,169,1366,625,1366,768,8-29-2022,10-17-0,147,depth_duration_stimuli/001167_2014-06-17_15-38-07_260595134347_rgbf000108-resize_0/001167_2014-06-17_15-38-07_260595134347_rgbf000108-resize_0-target.png,1000,1.8505,3,2922,999,feet,jsons/v1_VE1000_randls_11.json,858722,943802,25,Man
147,632936,DepthScenes,duration_manipulation_targetAtFixation,jsons/v1_VE1000_randls_11.json,http://54.235.29.9/FacialAge/BNav_EC2/DepthDuration/v2_depth_duration_MTurk/v2_DepthDuration_HTML.html#169,169,1366,625,1366,768,8-29-2022,10-17-0,148,depth_duration_stimuli/003587_2014-05-23_16-48-02_094959634447_rgbf002384-resize_2/003587_2014-05-23_16-48-02_094959634447_rgbf002384-resize_2-target.png,1000,1.357,2,2914,1000,feet,jsons/v1_VE1000_randls_11.json,858722,943802,25,Man
148,632936,DepthScenes,duration_manipulation_targetAtFixation,jsons/v1_VE1000_randls_11.json,http://54.235.29.9/FacialAge/BNav_EC2/DepthDuration/v2_depth_duration_MTurk/v2_DepthDuration_HTML.html#169,169,1366,625,1366,768,8-29-2022,10-17-0,149,depth_duration_stimuli/002118_2014-06-25_20-32-08_260595134347_rgbf000078-resize_1/002118_2014-06-25_20-32-08_260595134347_rgbf000078-resize_1-target.png,1000,2.6460000000000004,3,2851,1001,feet,jsons/v1_VE1000_randls_11.json,858722,943802,25,Man
149,632936,DepthScenes,duration_manipulation_targetAtFixation,jsons/v1_VE1000_randls_11.json,http://54.235.29.9/FacialAge/BNav_EC2/DepthDuration/v2_depth_duration_MTurk/v2_DepthDuration_HTML.html#169,169,1366,625,1366,768,8-29-2022,10-17-0,150,depth_duration_stimuli/001516_2014-06-20_16-25-09_260595134347_rgbf000076-resize_2/001516_2014-06-20_16-25-09_260595134347_rgbf000076-resize_2-target.png,1000,1.7445,7,3009,999,feet,jsons/v1_VE1000_randls_11.json,858722,943802,25,Man
150,632936,DepthScenes,duration_manipulation_targetAtFixation,jsons/v1_VE1000_randls_11.json,http://54.235.29.9/FacialAge/BNav_EC2/DepthDuration/v2_depth_duration_MTurk/v2_DepthDuration_HTML.html#169,169,1366,625,1366,768,8-29-2022,10-17-0,151,depth_duration_stimuli/002057_2014-06-24_21-00-13_260595134347_rgbf000120-resize_1/002057_2014-06-24_21-00-13_260595134347_rgbf000120-resize_1-target.png,1000,2.967,8,2965,999,feet,jsons/v1_VE1000_randls_11.json,858722,943802,25,Man
151,632936,DepthScenes,duration_manipulation_targetAtFixation,jsons/v1_VE1000_randls_11.json,http://54.235.29.9/FacialAge/BNav_EC2/DepthDuration/v2_depth_duration_MTurk/v2_DepthDuration_HTML.html#169,169,1366,625,1366,768,8-29-2022,10-17-0,152,depth_duration_stimuli/000709_2014-06-08_13-51-55_260595134347_rgbf000068-resize_3/000709_2014-06-08_13-51-55_260595134347_rgbf000068-resize_3-target.png,1000,1.8030000000000002,8,2968,999,feet,jsons/v1_VE1000_randls_11.json,858722,943802,25,Man
152,632936,DepthScenes,duration_manipulation_targetAtFixation,jsons/v1_VE1000_randls_11.json,http://54.235.29.9/FacialAge/BNav_EC2/DepthDuration/v2_depth_duration_MTurk/v2_DepthDuration_HTML.html#169,169,1366,625,1366,768,8-29-2022,10-17-0,153,depth_duration_stimuli/000009_2014-05-26_14-32-05_260595134347_rgbf000034-resize_3/000009_2014-05-26_14-32-05_260595134347_rgbf000034-resize_3-target.png,1000,3.8715,8,2933,999,feet,jsons/v1_VE1000_randls_11.json,858722,943802,25,Man
153,632936,DepthScenes,duration_manipulation_targetAtFixation,jsons/v1_VE1000_randls_11.json,http://54.235.29.9/FacialAge/BNav_EC2/DepthDuration/v2_depth_duration_MTurk/v2_DepthDuration_HTML.html#169,169,1366,625,1366,768,8-29-2022,10-17-0,154,depth_duration_stimuli/001828_2014-06-26_21-40-03_260595134347_rgbf000024-resize_0/001828_2014-06-26_21-40-03_260595134347_rgbf000024-resize_0-target.png,1000,4.8260000000000005,8,2888,1000,feet,jsons/v1_VE1000_randls_11.json,858722,943802,25,Man
154,632936,DepthScenes,duration_manipulation_targetAtFixation,jsons/v1_VE1000_randls_11.json,http://54.235.29.9/FacialAge/BNav_EC2/DepthDuration/v2_depth_duration_MTurk/v2_DepthDuration_HTML.html#169,169,1366,625,1366,768,8-29-2022,10-17-0,155,depth_duration_stimuli/000917_2014-06-09_22-45-29_260595134347_rgbf000149-resize_3/000917_2014-06-09_22-45-29_260595134347_rgbf000149-resize_3-target.png,1000,4.1865,8,2883,1001,feet,jsons/v1_VE1000_randls_11.json,858722,943802,25,Man
155,632936,DepthScenes,duration_manipulation_targetAtFixation,jsons/v1_VE1000_randls_11.json,http://54.235.29.9/FacialAge/BNav_EC2/DepthDuration/v2_depth_duration_MTurk/v2_DepthDuration_HTML.html#169,169,1366,625,1366,768,8-29-2022,10-17-0,156,depth_duration_stimuli/002323_2014-06-28_20-01-54_260595134347_rgbf000051-resize_4/002323_2014-06-28_20-01-54_260595134347_rgbf000051-resize_4-target.png,1000,3.7310000000000003,7,3129,1000,feet,jsons/v1_VE1000_randls_11.json,858722,943802,25,Man
156,632936,DepthScenes,duration_manipulation_targetAtFixation,jsons/v1_VE1000_randls_11.json,http://54.235.29.9/FacialAge/BNav_EC2/DepthDuration/v2_depth_duration_MTurk/v2_DepthDuration_HTML.html#169,169,1366,625,1366,768,8-29-2022,10-17-0,157,depth_duration_stimuli/001092_2014-06-15_17-34-58_260595134347_rgbf000171-resize_3/001092_2014-06-15_17-34-58_260595134347_rgbf000171-resize_3-target.png,1000,2.6935,7,5506,1000,feet,jsons/v1_VE1000_randls_11.json,858722,943802,25,Man
157,632936,DepthScenes,duration_manipulation_targetAtFixation,jsons/v1_VE1000_randls_11.json,http://54.235.29.9/FacialAge/BNav_EC2/DepthDuration/v2_depth_duration_MTurk/v2_DepthDuration_HTML.html#169,169,1366,625,1366,768,8-29-2022,10-17-0,158,depth_duration_stimuli/002545_2014-06-24_13-38-53_094959634447_rgbf000080-resize_4/002545_2014-06-24_13-38-53_094959634447_rgbf000080-resize_4-target.png,1000,1.9205,6,3989,1000,feet,jsons/v1_VE1000_randls_11.json,858722,943802,25,Man
158,632936,DepthScenes,duration_manipulation_targetAtFixation,jsons/v1_VE1000_randls_11.json,http://54.235.29.9/FacialAge/BNav_EC2/DepthDuration/v2_depth_duration_MTurk/v2_DepthDuration_HTML.html#169,169,1366,625,1366,768,8-29-2022,10-17-0,159,depth_duration_stimuli/002043_2014-06-24_20-29-38_260595134347_rgbf000039-resize_4/002043_2014-06-24_20-29-38_260595134347_rgbf000039-resize_4-target.png,1000,2.8435,6,3032,999,feet,jsons/v1_VE1000_randls_11.json,858722,943802,25,Man
159,632936,DepthScenes,duration_manipulation_targetAtFixation,jsons/v1_VE1000_randls_11.json,http://54.235.29.9/FacialAge/BNav_EC2/DepthDuration/v2_depth_duration_MTurk/v2_DepthDuration_HTML.html#169,169,1366,625,1366,768,8-29-2022,10-17-0,160,depth_duration_stimuli/003048_2014-06-15_13-49-43_094959634447_rgbf000150-resize_1/003048_2014-06-15_13-49-43_094959634447_rgbf000150-resize_1-target.png,1000,4.0035,7,3155,1000,feet,jsons/v1_VE1000_randls_11.json,858722,943802,25,Man
160,632936,DepthScenes,duration_manipulation_targetAtFixation,jsons/v1_VE1000_randls_11.json,http://54.235.29.9/FacialAge/BNav_EC2/DepthDuration/v2_depth_duration_MTurk/v2_DepthDuration_HTML.html#169,169,1366,625,1366,768,8-29-2022,10-17-0,161,depth_duration_stimuli/001555_2014-06-20_17-12-10_260595134347_rgbf000065-resize_4/001555_2014-06-20_17-12-10_260595134347_rgbf000065-resize_4-target.png,1000,1.633,4,3066,1000,feet,jsons/v1_VE1000_randls_11.json,858722,943802,25,Man
161,632936,DepthScenes,duration_manipulation_targetAtFixation,jsons/v1_VE1000_randls_11.json,http://54.235.29.9/FacialAge/BNav_EC2/DepthDuration/v2_depth_duration_MTurk/v2_DepthDuration_HTML.html#169,169,1366,625,1366,768,8-29-2022,10-17-0,162,depth_duration_stimuli/000103_2014-05-14_22-01-17_260595134347_rgbf000152-resize_5/000103_2014-05-14_22-01-17_260595134347_rgbf000152-resize_5-target.png,1000,1.993,6,2932,999,feet,jsons/v1_VE1000_randls_11.json,858722,943802,25,Man
162,632936,DepthScenes,duration_manipulation_targetAtFixation,jsons/v1_VE1000_randls_11.json,http://54.235.29.9/FacialAge/BNav_EC2/DepthDuration/v2_depth_duration_MTurk/v2_DepthDuration_HTML.html#169,169,1366,625,1366,768,8-29-2022,10-17-0,163,depth_duration_stimuli/001810_2014-06-26_20-51-35_260595134347_rgbf000040-resize_3/001810_2014-06-26_20-51-35_260595134347_rgbf000040-resize_3-target.png,1000,2.2525,4,3071,1000,feet,jsons/v1_VE1000_randls_11.json,858722,943802,25,Man
163,632936,DepthScenes,duration_manipulation_targetAtFixation,jsons/v1_VE1000_randls_11.json,http://54.235.29.9/FacialAge/BNav_EC2/DepthDuration/v2_depth_duration_MTurk/v2_DepthDuration_HTML.html#169,169,1366,625,1366,768,8-29-2022,10-17-0,164,depth_duration_stimuli/003010_2014-06-15_12-54-35_094959634447_rgbf000112-resize_0/003010_2014-06-15_12-54-35_094959634447_rgbf000112-resize_0-target.png,1000,3.1185,8,2938,998,feet,jsons/v1_VE1000_randls_11.json,858722,943802,25,Man
