,subjID,experimentName,versionName,sequenceName,url,selected_row,windowWidth,windowHeight,screenWidth,screenHeight,startDate,startTime,trial,stimulus,duration,actual_depth,depth_estimate,trial_RT,log_sceneDuration,unitSelection,seq_filepath,experimentTime,totalTime,age,gender
0,634447,DepthScenes,duration_manipulation_targetAtFixation,jsons/VE125_randls_16.json,http://54.235.29.9/FacialAge/BNav_EC2/DepthDuration/v2_depth_duration_MTurk/v2_DepthDuration_HTML.html#463,463,1366,625,1366,768,8-29-2022,14-40-6,1,depth_duration_stimuli/002748_2014-06-22_19-07-22_094959634447_rgbf000078-resize_1/002748_2014-06-22_19-07-22_094959634447_rgbf000078-resize_1-target.png,125,4.6705,6,5583,124,meters,jsons/VE125_randls_16.json,564467,983791,47,Woman
1,634447,DepthScenes,duration_manipulation_targetAtFixation,jsons/VE125_randls_16.json,http://54.235.29.9/FacialAge/BNav_EC2/DepthDuration/v2_depth_duration_MTurk/v2_DepthDuration_HTML.html#463,463,1366,625,1366,768,8-29-2022,14-40-6,2,depth_duration_stimuli/002995_2014-06-15_12-31-26_094959634447_rgbf000150-resize_1/002995_2014-06-15_12-31-26_094959634447_rgbf000150-resize_1-target.png,125,3.8360000000000003,7,2369,120,meters,jsons/VE125_randls_16.json,564467,983791,47,Woman
2,634447,DepthScenes,duration_manipulation_targetAtFixation,jsons/VE125_randls_16.json,http://54.235.29.9/FacialAge/BNav_EC2/DepthDuration/v2_depth_duration_MTurk/v2_DepthDuration_HTML.html#463,463,1366,625,1366,768,8-29-2022,14-40-6,3,depth_duration_stimuli/002663_2014-06-13_15-50-26_094959634447_rgbf000075-resize_1/002663_2014-06-13_15-50-26_094959634447_rgbf000075-resize_1-target.png,125,4.7495,7,2058,136,meters,jsons/VE125_randls_16.json,564467,983791,47,Woman
3,634447,DepthScenes,duration_manipulation_targetAtFixation,jsons/VE125_randls_16.json,http://54.235.29.9/FacialAge/BNav_EC2/DepthDuration/v2_depth_duration_MTurk/v2_DepthDuration_HTML.html#463,463,1366,625,1366,768,8-29-2022,14-40-6,4,depth_duration_stimuli/000409_2014-06-04_19-23-33_260595134347_rgbf000067-resize_0/000409_2014-06-04_19-23-33_260595134347_rgbf000067-resize_0-target.png,125,3.7335,8,2212,110,meters,jsons/VE125_randls_16.json,564467,983791,47,Woman
4,634447,DepthScenes,duration_manipulation_targetAtFixation,jsons/VE125_randls_16.json,http://54.235.29.9/FacialAge/BNav_EC2/DepthDuration/v2_depth_duration_MTurk/v2_DepthDuration_HTML.html#463,463,1366,625,1366,768,8-29-2022,14-40-6,5,depth_duration_stimuli/000758_2014-06-08_22-05-08_260595134347_rgbf000085-resize_0/000758_2014-06-08_22-05-08_260595134347_rgbf000085-resize_0-target.png,125,3.3810000000000002,6,3026,137,meters,jsons/VE125_randls_16.json,564467,983791,47,Woman
5,634447,DepthScenes,duration_manipulation_targetAtFixation,jsons/VE125_randls_16.json,http://54.235.29.9/FacialAge/BNav_EC2/DepthDuration/v2_depth_duration_MTurk/v2_DepthDuration_HTML.html#463,463,1366,625,1366,768,8-29-2022,14-40-6,6,depth_duration_stimuli/000854_2014-06-09_19-43-13_260595134347_rgbf000066-resize_0/000854_2014-06-09_19-43-13_260595134347_rgbf000066-resize_0-target.png,125,3.068,7,3581,115,meters,jsons/VE125_randls_16.json,564467,983791,47,Woman
6,634447,DepthScenes,duration_manipulation_targetAtFixation,jsons/VE125_randls_16.json,http://54.235.29.9/FacialAge/BNav_EC2/DepthDuration/v2_depth_duration_MTurk/v2_DepthDuration_HTML.html#463,463,1366,625,1366,768,8-29-2022,14-40-6,7,depth_duration_stimuli/000009_2014-05-26_14-32-05_260595134347_rgbf000034-resize_3/000009_2014-05-26_14-32-05_260595134347_rgbf000034-resize_3-target.png,125,3.8715,8,2182,121,meters,jsons/VE125_randls_16.json,564467,983791,47,Woman
7,634447,DepthScenes,duration_manipulation_targetAtFixation,jsons/VE125_randls_16.json,http://54.235.29.9/FacialAge/BNav_EC2/DepthDuration/v2_depth_duration_MTurk/v2_DepthDuration_HTML.html#463,463,1366,625,1366,768,8-29-2022,14-40-6,8,depth_duration_stimuli/001828_2014-06-26_21-40-03_260595134347_rgbf000024-resize_0/001828_2014-06-26_21-40-03_260595134347_rgbf000024-resize_0-target.png,125,4.8260000000000005,6,2350,125,meters,jsons/VE125_randls_16.json,564467,983791,47,Woman
8,634447,DepthScenes,duration_manipulation_targetAtFixation,jsons/VE125_randls_16.json,http://54.235.29.9/FacialAge/BNav_EC2/DepthDuration/v2_depth_duration_MTurk/v2_DepthDuration_HTML.html#463,463,1366,625,1366,768,8-29-2022,14-40-6,9,depth_duration_stimuli/002213_2014-06-28_18-37-58_260595134347_rgbf000055-resize_1/002213_2014-06-28_18-37-58_260595134347_rgbf000055-resize_1-target.png,125,3.62,9,2351,122,meters,jsons/VE125_randls_16.json,564467,983791,47,Woman
9,634447,DepthScenes,duration_manipulation_targetAtFixation,jsons/VE125_randls_16.json,http://54.235.29.9/FacialAge/BNav_EC2/DepthDuration/v2_depth_duration_MTurk/v2_DepthDuration_HTML.html#463,463,1366,625,1366,768,8-29-2022,14-40-6,10,depth_duration_stimuli/000691_2014-06-08_13-08-50_260595134347_rgbf000132-resize_3/000691_2014-06-08_13-08-50_260595134347_rgbf000132-resize_3-target.png,125,4.1530000000000005,8,2318,125,meters,jsons/VE125_randls_16.json,564467,983791,47,Woman
10,634447,DepthScenes,duration_manipulation_targetAtFixation,jsons/VE125_randls_16.json,http://54.235.29.9/FacialAge/BNav_EC2/DepthDuration/v2_depth_duration_MTurk/v2_DepthDuration_HTML.html#463,463,1366,625,1366,768,8-29-2022,14-40-6,11,depth_duration_stimuli/000506_2014-06-08_23-21-00_260595134347_rgbf000070-resize_7/000506_2014-06-08_23-21-00_260595134347_rgbf000070-resize_7-target.png,125,4.0585,7,2168,118,meters,jsons/VE125_randls_16.json,564467,983791,47,Woman
11,634447,DepthScenes,duration_manipulation_targetAtFixation,jsons/VE125_randls_16.json,http://54.235.29.9/FacialAge/BNav_EC2/DepthDuration/v2_depth_duration_MTurk/v2_DepthDuration_HTML.html#463,463,1366,625,1366,768,8-29-2022,14-40-6,12,depth_duration_stimuli/003079_2014-06-15_15-18-20_094959634447_rgbf000152-resize_8/003079_2014-06-15_15-18-20_094959634447_rgbf000152-resize_8-target.png,125,2.8775,7,2478,129,meters,jsons/VE125_randls_16.json,564467,983791,47,Woman
12,634447,DepthScenes,duration_manipulation_targetAtFixation,jsons/VE125_randls_16.json,http://54.235.29.9/FacialAge/BNav_EC2/DepthDuration/v2_depth_duration_MTurk/v2_DepthDuration_HTML.html#463,463,1366,625,1366,768,8-29-2022,14-40-6,13,depth_duration_stimuli/000569_2014-06-09_22-51-47_260595134347_rgbf000141-resize_3/000569_2014-06-09_22-51-47_260595134347_rgbf000141-resize-original.jpg,125,4.512,7,3310,120,meters,jsons/VE125_randls_16.json,564467,983791,47,Woman
13,634447,DepthScenes,duration_manipulation_targetAtFixation,jsons/VE125_randls_16.json,http://54.235.29.9/FacialAge/BNav_EC2/DepthDuration/v2_depth_duration_MTurk/v2_DepthDuration_HTML.html#463,463,1366,625,1366,768,8-29-2022,14-40-6,14,depth_duration_stimuli/001110_2014-06-15_17-25-28_260595134347_rgbf000150-resize_1/001110_2014-06-15_17-25-28_260595134347_rgbf000150-resize_1-target.png,125,1.7115,8,2336,115,meters,jsons/VE125_randls_16.json,564467,983791,47,Woman
14,634447,DepthScenes,duration_manipulation_targetAtFixation,jsons/VE125_randls_16.json,http://54.235.29.9/FacialAge/BNav_EC2/DepthDuration/v2_depth_duration_MTurk/v2_DepthDuration_HTML.html#463,463,1366,625,1366,768,8-29-2022,14-40-6,15,depth_duration_stimuli/000927_2014-06-09_16-32-30_260595134347_rgbf000123-resize_3/000927_2014-06-09_16-32-30_260595134347_rgbf000123-resize_3-target.png,125,2.6785,9,2300,116,meters,jsons/VE125_randls_16.json,564467,983791,47,Woman
15,634447,DepthScenes,duration_manipulation_targetAtFixation,jsons/VE125_randls_16.json,http://54.235.29.9/FacialAge/BNav_EC2/DepthDuration/v2_depth_duration_MTurk/v2_DepthDuration_HTML.html#463,463,1366,625,1366,768,8-29-2022,14-40-6,16,depth_duration_stimuli/001810_2014-06-26_20-51-35_260595134347_rgbf000040-resize_3/001810_2014-06-26_20-51-35_260595134347_rgbf000040-resize_3-target.png,125,2.2525,5,2881,122,meters,jsons/VE125_randls_16.json,564467,983791,47,Woman
16,634447,DepthScenes,duration_manipulation_targetAtFixation,jsons/VE125_randls_16.json,http://54.235.29.9/FacialAge/BNav_EC2/DepthDuration/v2_depth_duration_MTurk/v2_DepthDuration_HTML.html#463,463,1366,625,1366,768,8-29-2022,14-40-6,17,depth_duration_stimuli/003010_2014-06-15_12-54-35_094959634447_rgbf000112-resize_0/003010_2014-06-15_12-54-35_094959634447_rgbf000112-resize_0-target.png,125,3.1185,6,2075,123,meters,jsons/VE125_randls_16.json,564467,983791,47,Woman
17,634447,DepthScenes,duration_manipulation_targetAtFixation,jsons/VE125_randls_16.json,http://54.235.29.9/FacialAge/BNav_EC2/DepthDuration/v2_depth_duration_MTurk/v2_DepthDuration_HTML.html#463,463,1366,625,1366,768,8-29-2022,14-40-6,18,depth_duration_stimuli/000642_2014-06-08_16-59-25_260595134347_rgbf000098-resize_2/000642_2014-06-08_16-59-25_260595134347_rgbf000098-resize_2-target.png,125,2.8815,7,2611,124,meters,jsons/VE125_randls_16.json,564467,983791,47,Woman
18,634447,DepthScenes,duration_manipulation_targetAtFixation,jsons/VE125_randls_16.json,http://54.235.29.9/FacialAge/BNav_EC2/DepthDuration/v2_depth_duration_MTurk/v2_DepthDuration_HTML.html#463,463,1366,625,1366,768,8-29-2022,14-40-6,19,depth_duration_stimuli/002425_2014-06-28_20-27-29_260595134347_rgbf000031-resize_8/002425_2014-06-28_20-27-29_260595134347_rgbf000031-resize_8-target.png,125,3.8960000000000004,8,2410,125,meters,jsons/VE125_randls_16.json,564467,983791,47,Woman
19,634447,DepthScenes,duration_manipulation_targetAtFixation,jsons/VE125_randls_16.json,http://54.235.29.9/FacialAge/BNav_EC2/DepthDuration/v2_depth_duration_MTurk/v2_DepthDuration_HTML.html#463,463,1366,625,1366,768,8-29-2022,14-40-6,20,depth_duration_stimuli/000469_2014-06-09_19-42-10_260595134347_rgbf000081-resize_1/000469_2014-06-09_19-42-10_260595134347_rgbf000081-resize_1-target.png,125,1.652,8,2764,127,meters,jsons/VE125_randls_16.json,564467,983791,47,Woman
20,634447,DepthScenes,duration_manipulation_targetAtFixation,jsons/VE125_randls_16.json,http://54.235.29.9/FacialAge/BNav_EC2/DepthDuration/v2_depth_duration_MTurk/v2_DepthDuration_HTML.html#463,463,1366,625,1366,768,8-29-2022,14-40-6,21,depth_duration_stimuli/000483_2014-06-09_20-41-45_260595134347_rgbf000116-resize_4/000483_2014-06-09_20-41-45_260595134347_rgbf000116-resize_4-target.png,125,1.337,9,2003,119,meters,jsons/VE125_randls_16.json,564467,983791,47,Woman
21,634447,DepthScenes,duration_manipulation_targetAtFixation,jsons/VE125_randls_16.json,http://54.235.29.9/FacialAge/BNav_EC2/DepthDuration/v2_depth_duration_MTurk/v2_DepthDuration_HTML.html#463,463,1366,625,1366,768,8-29-2022,14-40-6,22,depth_duration_stimuli/001150_2014-06-17_15-27-34_260595134347_rgbf000108-resize_2/001150_2014-06-17_15-27-34_260595134347_rgbf000108-resize_2-target.png,125,4.0325,8,2122,117,meters,jsons/VE125_randls_16.json,564467,983791,47,Woman
22,634447,DepthScenes,duration_manipulation_targetAtFixation,jsons/VE125_randls_16.json,http://54.235.29.9/FacialAge/BNav_EC2/DepthDuration/v2_depth_duration_MTurk/v2_DepthDuration_HTML.html#463,463,1366,625,1366,768,8-29-2022,14-40-6,23,depth_duration_stimuli/000665_2014-06-09_20-42-35_260595134347_rgbf000110-resize_1/000665_2014-06-09_20-42-35_260595134347_rgbf000110-resize_1-target.png,125,3.057,8,2457,115,meters,jsons/VE125_randls_16.json,564467,983791,47,Woman
23,634447,DepthScenes,duration_manipulation_targetAtFixation,jsons/VE125_randls_16.json,http://54.235.29.9/FacialAge/BNav_EC2/DepthDuration/v2_depth_duration_MTurk/v2_DepthDuration_HTML.html#463,463,1366,625,1366,768,8-29-2022,14-40-6,24,depth_duration_stimuli/001555_2014-06-20_17-12-10_260595134347_rgbf000065-resize_4/001555_2014-06-20_17-12-10_260595134347_rgbf000065-resize_4-target.png,125,1.633,6,3028,125,meters,jsons/VE125_randls_16.json,564467,983791,47,Woman
24,634447,DepthScenes,duration_manipulation_targetAtFixation,jsons/VE125_randls_16.json,http://54.235.29.9/FacialAge/BNav_EC2/DepthDuration/v2_depth_duration_MTurk/v2_DepthDuration_HTML.html#463,463,1366,625,1366,768,8-29-2022,14-40-6,25,depth_duration_stimuli/000103_2014-05-14_22-01-17_260595134347_rgbf000152-resize_5/000103_2014-05-14_22-01-17_260595134347_rgbf000152-resize_5-target.png,125,1.993,7,2690,126,meters,jsons/VE125_randls_16.json,564467,983791,47,Woman
25,634447,DepthScenes,duration_manipulation_targetAtFixation,jsons/VE125_randls_16.json,http://54.235.29.9/FacialAge/BNav_EC2/DepthDuration/v2_depth_duration_MTurk/v2_DepthDuration_HTML.html#463,463,1366,625,1366,768,8-29-2022,14-40-6,26,depth_duration_stimuli/001016_2014-06-09_16-16-10_260595134347_rgbf000112-resize_5/001016_2014-06-09_16-16-10_260595134347_rgbf000112-resize_5-target.png,125,1.6565,5,2425,136,meters,jsons/VE125_randls_16.json,564467,983791,47,Woman
26,634447,DepthScenes,duration_manipulation_targetAtFixation,jsons/VE125_randls_16.json,http://54.235.29.9/FacialAge/BNav_EC2/DepthDuration/v2_depth_duration_MTurk/v2_DepthDuration_HTML.html#463,463,1366,625,1366,768,8-29-2022,14-40-6,27,depth_duration_stimuli/002340_2014-06-28_20-05-46_260595134347_rgbf000113-resize_0/002340_2014-06-28_20-05-46_260595134347_rgbf000113-resize_0-target.png,125,2.4735,6,3335,123,meters,jsons/VE125_randls_16.json,564467,983791,47,Woman
27,634447,DepthScenes,duration_manipulation_targetAtFixation,jsons/VE125_randls_16.json,http://54.235.29.9/FacialAge/BNav_EC2/DepthDuration/v2_depth_duration_MTurk/v2_DepthDuration_HTML.html#463,463,1366,625,1366,768,8-29-2022,14-40-6,28,depth_duration_stimuli/000736_2014-06-08_18-24-15_260595134347_rgbf000206-resize_3/000736_2014-06-08_18-24-15_260595134347_rgbf000206-resize_3-target.png,125,3.515,7,3239,121,meters,jsons/VE125_randls_16.json,564467,983791,47,Woman
28,634447,DepthScenes,duration_manipulation_targetAtFixation,jsons/VE125_randls_16.json,http://54.235.29.9/FacialAge/BNav_EC2/DepthDuration/v2_depth_duration_MTurk/v2_DepthDuration_HTML.html#463,463,1366,625,1366,768,8-29-2022,14-40-6,29,depth_duration_stimuli/000137_2014-05-20_17-04-49_260595134347_rgbf000120-resize_1/000137_2014-05-20_17-04-49_260595134347_rgbf000120-resize_1-target.png,125,3.786,7,3017,128,meters,jsons/VE125_randls_16.json,564467,983791,47,Woman
29,634447,DepthScenes,duration_manipulation_targetAtFixation,jsons/VE125_randls_16.json,http://54.235.29.9/FacialAge/BNav_EC2/DepthDuration/v2_depth_duration_MTurk/v2_DepthDuration_HTML.html#463,463,1366,625,1366,768,8-29-2022,14-40-6,30,depth_duration_stimuli/000375_2014-06-08_11-17-29_260595134347_rgbf000133-resize_2/000375_2014-06-08_11-17-29_260595134347_rgbf000133-resize-original.jpg,125,4.718,8,2090,127,meters,jsons/VE125_randls_16.json,564467,983791,47,Woman
30,634447,DepthScenes,duration_manipulation_targetAtFixation,jsons/VE125_randls_16.json,http://54.235.29.9/FacialAge/BNav_EC2/DepthDuration/v2_depth_duration_MTurk/v2_DepthDuration_HTML.html#463,463,1366,625,1366,768,8-29-2022,14-40-6,31,depth_duration_stimuli/002570_2014-06-24_13-59-54_094959634447_rgbf000059-resize_0/002570_2014-06-24_13-59-54_094959634447_rgbf000059-resize_0-target.png,125,4.037,6,2562,125,meters,jsons/VE125_randls_16.json,564467,983791,47,Woman
31,634447,DepthScenes,duration_manipulation_targetAtFixation,jsons/VE125_randls_16.json,http://54.235.29.9/FacialAge/BNav_EC2/DepthDuration/v2_depth_duration_MTurk/v2_DepthDuration_HTML.html#463,463,1366,625,1366,768,8-29-2022,14-40-6,32,depth_duration_stimuli/002467_2014-06-28_20-38-07_260595134347_rgbf000026-resize_2/002467_2014-06-28_20-38-07_260595134347_rgbf000026-resize_2-target.png,125,4.742,7,2666,122,meters,jsons/VE125_randls_16.json,564467,983791,47,Woman
32,634447,DepthScenes,duration_manipulation_targetAtFixation,jsons/VE125_randls_16.json,http://54.235.29.9/FacialAge/BNav_EC2/DepthDuration/v2_depth_duration_MTurk/v2_DepthDuration_HTML.html#463,463,1366,625,1366,768,8-29-2022,14-40-6,33,depth_duration_stimuli/001133_2014-06-17_14-49-16_260595134347_rgbf000100-resize_0/001133_2014-06-17_14-49-16_260595134347_rgbf000100-resize_0-target.png,125,4.2115,8,2324,119,meters,jsons/VE125_randls_16.json,564467,983791,47,Woman
33,634447,DepthScenes,duration_manipulation_targetAtFixation,jsons/VE125_randls_16.json,http://54.235.29.9/FacialAge/BNav_EC2/DepthDuration/v2_depth_duration_MTurk/v2_DepthDuration_HTML.html#463,463,1366,625,1366,768,8-29-2022,14-40-6,34,depth_duration_stimuli/001132_2014-06-17_14-48-54_260595134347_rgbf000100-resize_2/001132_2014-06-17_14-48-54_260595134347_rgbf000100-resize_2-target.png,125,3.753,6,3538,143,meters,jsons/VE125_randls_16.json,564467,983791,47,Woman
34,634447,DepthScenes,duration_manipulation_targetAtFixation,jsons/VE125_randls_16.json,http://54.235.29.9/FacialAge/BNav_EC2/DepthDuration/v2_depth_duration_MTurk/v2_DepthDuration_HTML.html#463,463,1366,625,1366,768,8-29-2022,14-40-6,35,depth_duration_stimuli/002272_2014-06-28_18-53-56_260595134347_rgbf000067-resize_2/002272_2014-06-28_18-53-56_260595134347_rgbf000067-resize_2-target.png,125,1.138,7,7880,128,meters,jsons/VE125_randls_16.json,564467,983791,47,Woman
35,634447,DepthScenes,duration_manipulation_targetAtFixation,jsons/VE125_randls_16.json,http://54.235.29.9/FacialAge/BNav_EC2/DepthDuration/v2_depth_duration_MTurk/v2_DepthDuration_HTML.html#463,463,1366,625,1366,768,8-29-2022,14-40-6,36,depth_duration_stimuli/001571_2014-06-20_17-21-32_260595134347_rgbf000089-resize_1/001571_2014-06-20_17-21-32_260595134347_rgbf000089-resize_1-target.png,125,1.86,7,6851,125,meters,jsons/VE125_randls_16.json,564467,983791,47,Woman
36,634447,DepthScenes,duration_manipulation_targetAtFixation,jsons/VE125_randls_16.json,http://54.235.29.9/FacialAge/BNav_EC2/DepthDuration/v2_depth_duration_MTurk/v2_DepthDuration_HTML.html#463,463,1366,625,1366,768,8-29-2022,14-40-6,37,depth_duration_stimuli/001449_2014-06-19_17-01-27_260595134347_rgbf000116-resize_2/001449_2014-06-19_17-01-27_260595134347_rgbf000116-resize_2-target.png,125,3.452,6,10020,113,meters,jsons/VE125_randls_16.json,564467,983791,47,Woman
37,634447,DepthScenes,duration_manipulation_targetAtFixation,jsons/VE125_randls_16.json,http://54.235.29.9/FacialAge/BNav_EC2/DepthDuration/v2_depth_duration_MTurk/v2_DepthDuration_HTML.html#463,463,1366,625,1366,768,8-29-2022,14-40-6,38,depth_duration_stimuli/001450_2014-06-19_17-02-03_260595134347_rgbf000203-resize_4/001450_2014-06-19_17-02-03_260595134347_rgbf000203-resize_4-target.png,125,4.0106666666667,4,6864,114,meters,jsons/VE125_randls_16.json,564467,983791,47,Woman
38,634447,DepthScenes,duration_manipulation_targetAtFixation,jsons/VE125_randls_16.json,http://54.235.29.9/FacialAge/BNav_EC2/DepthDuration/v2_depth_duration_MTurk/v2_DepthDuration_HTML.html#463,463,1366,625,1366,768,8-29-2022,14-40-6,39,depth_duration_stimuli/001059_2014-06-08_21-53-27_260595134347_rgbf000061-resize_4/001059_2014-06-08_21-53-27_260595134347_rgbf000061-resize_4-target.png,125,2.4185,5,3099,102,meters,jsons/VE125_randls_16.json,564467,983791,47,Woman
39,634447,DepthScenes,duration_manipulation_targetAtFixation,jsons/VE125_randls_16.json,http://54.235.29.9/FacialAge/BNav_EC2/DepthDuration/v2_depth_duration_MTurk/v2_DepthDuration_HTML.html#463,463,1366,625,1366,768,8-29-2022,14-40-6,40,depth_duration_stimuli/001032_2014-06-08_13-23-17_260595134347_rgbf000021-resize_3/001032_2014-06-08_13-23-17_260595134347_rgbf000021-resize_3-target.png,125,3.2725,4,2393,125,meters,jsons/VE125_randls_16.json,564467,983791,47,Woman
40,634447,DepthScenes,duration_manipulation_targetAtFixation,jsons/VE125_randls_16.json,http://54.235.29.9/FacialAge/BNav_EC2/DepthDuration/v2_depth_duration_MTurk/v2_DepthDuration_HTML.html#463,463,1366,625,1366,768,8-29-2022,14-40-6,41,depth_duration_stimuli/002788_2014-06-22_19-36-03_094959634447_rgbf000088-resize_2/002788_2014-06-22_19-36-03_094959634447_rgbf000088-resize_2-target.png,125,1.6465,5,2140,116,meters,jsons/VE125_randls_16.json,564467,983791,47,Woman
41,634447,DepthScenes,duration_manipulation_targetAtFixation,jsons/VE125_randls_16.json,http://54.235.29.9/FacialAge/BNav_EC2/DepthDuration/v2_depth_duration_MTurk/v2_DepthDuration_HTML.html#463,463,1366,625,1366,768,8-29-2022,14-40-6,42,depth_duration_stimuli/000749_2014-06-08_21-55-06_260595134347_rgbf000070-resize_2/000749_2014-06-08_21-55-06_260595134347_rgbf000070-resize_2-target.png,125,2.331,6,2467,113,meters,jsons/VE125_randls_16.json,564467,983791,47,Woman
42,634447,DepthScenes,duration_manipulation_targetAtFixation,jsons/VE125_randls_16.json,http://54.235.29.9/FacialAge/BNav_EC2/DepthDuration/v2_depth_duration_MTurk/v2_DepthDuration_HTML.html#463,463,1366,625,1366,768,8-29-2022,14-40-6,43,depth_duration_stimuli/002375_2014-06-28_20-13-44_260595134347_rgbf000032-resize_1/002375_2014-06-28_20-13-44_260595134347_rgbf000032-resize_1-target.png,125,4.0175,7,2064,121,meters,jsons/VE125_randls_16.json,564467,983791,47,Woman
43,634447,DepthScenes,duration_manipulation_targetAtFixation,jsons/VE125_randls_16.json,http://54.235.29.9/FacialAge/BNav_EC2/DepthDuration/v2_depth_duration_MTurk/v2_DepthDuration_HTML.html#463,463,1366,625,1366,768,8-29-2022,14-40-6,44,depth_duration_stimuli/002657_2014-06-13_15-29-54_094959634447_rgbf000150-resize_1/002657_2014-06-13_15-29-54_094959634447_rgbf000150-resize_1-target.png,125,4.919,5,2143,119,meters,jsons/VE125_randls_16.json,564467,983791,47,Woman
44,634447,DepthScenes,duration_manipulation_targetAtFixation,jsons/VE125_randls_16.json,http://54.235.29.9/FacialAge/BNav_EC2/DepthDuration/v2_depth_duration_MTurk/v2_DepthDuration_HTML.html#463,463,1366,625,1366,768,8-29-2022,14-40-6,45,depth_duration_stimuli/000787_2014-06-08_22-33-53_260595134347_rgbf000175-resize_1/000787_2014-06-08_22-33-53_260595134347_rgbf000175-resize-original.jpg,125,4.784,6,3425,123,meters,jsons/VE125_randls_16.json,564467,983791,47,Woman
45,634447,DepthScenes,duration_manipulation_targetAtFixation,jsons/VE125_randls_16.json,http://54.235.29.9/FacialAge/BNav_EC2/DepthDuration/v2_depth_duration_MTurk/v2_DepthDuration_HTML.html#463,463,1366,625,1366,768,8-29-2022,14-40-6,46,depth_duration_stimuli/001029_2014-06-08_13-17-57_260595134347_rgbf000065-resize_1/001029_2014-06-08_13-17-57_260595134347_rgbf000065-resize_1-target.png,125,3.0835,4,3136,125,meters,jsons/VE125_randls_16.json,564467,983791,47,Woman
46,634447,DepthScenes,duration_manipulation_targetAtFixation,jsons/VE125_randls_16.json,http://54.235.29.9/FacialAge/BNav_EC2/DepthDuration/v2_depth_duration_MTurk/v2_DepthDuration_HTML.html#463,463,1366,625,1366,768,8-29-2022,14-40-6,47,depth_duration_stimuli/000677_2014-06-08_23-10-32_260595134347_rgbf000158-resize_6/000677_2014-06-08_23-10-32_260595134347_rgbf000158-resize_6-target.png,125,3.556,6,6591,122,meters,jsons/VE125_randls_16.json,564467,983791,47,Woman
47,634447,DepthScenes,duration_manipulation_targetAtFixation,jsons/VE125_randls_16.json,http://54.235.29.9/FacialAge/BNav_EC2/DepthDuration/v2_depth_duration_MTurk/v2_DepthDuration_HTML.html#463,463,1366,625,1366,768,8-29-2022,14-40-6,48,depth_duration_stimuli/000810_2014-06-08_17-20-01_260595134347_rgbf000105-resize_0/000810_2014-06-08_17-20-01_260595134347_rgbf000105-resize_0-target.png,125,1.4865,6,3567,124,meters,jsons/VE125_randls_16.json,564467,983791,47,Woman
48,634447,DepthScenes,duration_manipulation_targetAtFixation,jsons/VE125_randls_16.json,http://54.235.29.9/FacialAge/BNav_EC2/DepthDuration/v2_depth_duration_MTurk/v2_DepthDuration_HTML.html#463,463,1366,625,1366,768,8-29-2022,14-40-6,49,depth_duration_stimuli/001214_2014-06-17_16-13-55_260595134347_rgbf000111-resize_0/001214_2014-06-17_16-13-55_260595134347_rgbf000111-resize_0-target.png,125,2.6505,6,1979,203,meters,jsons/VE125_randls_16.json,564467,983791,47,Woman
49,634447,DepthScenes,duration_manipulation_targetAtFixation,jsons/VE125_randls_16.json,http://54.235.29.9/FacialAge/BNav_EC2/DepthDuration/v2_depth_duration_MTurk/v2_DepthDuration_HTML.html#463,463,1366,625,1366,768,8-29-2022,14-40-6,50,depth_duration_stimuli/003292_2014-05-14_21-53-49_094959634447_rgbf000100-resize_2/003292_2014-05-14_21-53-49_094959634447_rgbf000100-resize_2-target.png,125,3.4815,7,2197,119,meters,jsons/VE125_randls_16.json,564467,983791,47,Woman
50,634447,DepthScenes,duration_manipulation_targetAtFixation,jsons/VE125_randls_16.json,http://54.235.29.9/FacialAge/BNav_EC2/DepthDuration/v2_depth_duration_MTurk/v2_DepthDuration_HTML.html#463,463,1366,625,1366,768,8-29-2022,14-40-6,51,depth_duration_stimuli/002639_2014-06-24_14-51-37_094959634447_rgbf000074-resize_4/002639_2014-06-24_14-51-37_094959634447_rgbf000074-resize_4-target.png,125,4.0375,8,2032,125,meters,jsons/VE125_randls_16.json,564467,983791,47,Woman
51,634447,DepthScenes,duration_manipulation_targetAtFixation,jsons/VE125_randls_16.json,http://54.235.29.9/FacialAge/BNav_EC2/DepthDuration/v2_depth_duration_MTurk/v2_DepthDuration_HTML.html#463,463,1366,625,1366,768,8-29-2022,14-40-6,52,depth_duration_stimuli/002763_2014-06-22_19-13-10_094959634447_rgbf000075-resize_4/002763_2014-06-22_19-13-10_094959634447_rgbf000075-resize_4-target.png,125,1.68375,9,2368,125,meters,jsons/VE125_randls_16.json,564467,983791,47,Woman
52,634447,DepthScenes,duration_manipulation_targetAtFixation,jsons/VE125_randls_16.json,http://54.235.29.9/FacialAge/BNav_EC2/DepthDuration/v2_depth_duration_MTurk/v2_DepthDuration_HTML.html#463,463,1366,625,1366,768,8-29-2022,14-40-6,53,depth_duration_stimuli/002209_2014-06-28_18-36-10_260595134347_rgbf000051-resize_1/002209_2014-06-28_18-36-10_260595134347_rgbf000051-resize_1-target.png,125,2.057,7,3456,123,meters,jsons/VE125_randls_16.json,564467,983791,47,Woman
53,634447,DepthScenes,duration_manipulation_targetAtFixation,jsons/VE125_randls_16.json,http://54.235.29.9/FacialAge/BNav_EC2/DepthDuration/v2_depth_duration_MTurk/v2_DepthDuration_HTML.html#463,463,1366,625,1366,768,8-29-2022,14-40-6,54,depth_duration_stimuli/001808_2014-06-26_20-50-58_260595134347_rgbf000029-resize_1/001808_2014-06-26_20-50-58_260595134347_rgbf000029-resize_1-target.png,125,4.249,6,3456,129,meters,jsons/VE125_randls_16.json,564467,983791,47,Woman
54,634447,DepthScenes,duration_manipulation_targetAtFixation,jsons/VE125_randls_16.json,http://54.235.29.9/FacialAge/BNav_EC2/DepthDuration/v2_depth_duration_MTurk/v2_DepthDuration_HTML.html#463,463,1366,625,1366,768,8-29-2022,14-40-6,55,depth_duration_stimuli/001815_2014-06-26_20-52-55_260595134347_rgbf000020-resize_0/001815_2014-06-26_20-52-55_260595134347_rgbf000020-resize_0-target.png,125,3.3865,6,2457,124,meters,jsons/VE125_randls_16.json,564467,983791,47,Woman
55,634447,DepthScenes,duration_manipulation_targetAtFixation,jsons/VE125_randls_16.json,http://54.235.29.9/FacialAge/BNav_EC2/DepthDuration/v2_depth_duration_MTurk/v2_DepthDuration_HTML.html#463,463,1366,625,1366,768,8-29-2022,14-40-6,56,depth_duration_stimuli/002057_2014-06-24_21-00-13_260595134347_rgbf000120-resize_1/002057_2014-06-24_21-00-13_260595134347_rgbf000120-resize_1-target.png,125,2.967,5,2091,124,meters,jsons/VE125_randls_16.json,564467,983791,47,Woman
56,634447,DepthScenes,duration_manipulation_targetAtFixation,jsons/VE125_randls_16.json,http://54.235.29.9/FacialAge/BNav_EC2/DepthDuration/v2_depth_duration_MTurk/v2_DepthDuration_HTML.html#463,463,1366,625,1366,768,8-29-2022,14-40-6,57,depth_duration_stimuli/000709_2014-06-08_13-51-55_260595134347_rgbf000068-resize_3/000709_2014-06-08_13-51-55_260595134347_rgbf000068-resize_3-target.png,125,1.8030000000000002,7,2010,119,meters,jsons/VE125_randls_16.json,564467,983791,47,Woman
57,634447,DepthScenes,duration_manipulation_targetAtFixation,jsons/VE125_randls_16.json,http://54.235.29.9/FacialAge/BNav_EC2/DepthDuration/v2_depth_duration_MTurk/v2_DepthDuration_HTML.html#463,463,1366,625,1366,768,8-29-2022,14-40-6,58,depth_duration_stimuli/000917_2014-06-09_22-45-29_260595134347_rgbf000149-resize_3/000917_2014-06-09_22-45-29_260595134347_rgbf000149-resize_3-target.png,125,4.1865,7,2517,114,meters,jsons/VE125_randls_16.json,564467,983791,47,Woman
58,634447,DepthScenes,duration_manipulation_targetAtFixation,jsons/VE125_randls_16.json,http://54.235.29.9/FacialAge/BNav_EC2/DepthDuration/v2_depth_duration_MTurk/v2_DepthDuration_HTML.html#463,463,1366,625,1366,768,8-29-2022,14-40-6,59,depth_duration_stimuli/002323_2014-06-28_20-01-54_260595134347_rgbf000051-resize_4/002323_2014-06-28_20-01-54_260595134347_rgbf000051-resize_4-target.png,125,3.7310000000000003,8,2294,121,meters,jsons/VE125_randls_16.json,564467,983791,47,Woman
59,634447,DepthScenes,duration_manipulation_targetAtFixation,jsons/VE125_randls_16.json,http://54.235.29.9/FacialAge/BNav_EC2/DepthDuration/v2_depth_duration_MTurk/v2_DepthDuration_HTML.html#463,463,1366,625,1366,768,8-29-2022,14-40-6,60,depth_duration_stimuli/001175_2014-06-17_15-45-55_260595134347_rgbf000129-resize_4/001175_2014-06-17_15-45-55_260595134347_rgbf000129-resize_4-target.png,125,4.255,6,2760,114,meters,jsons/VE125_randls_16.json,564467,983791,47,Woman
60,634447,DepthScenes,duration_manipulation_targetAtFixation,jsons/VE125_randls_16.json,http://54.235.29.9/FacialAge/BNav_EC2/DepthDuration/v2_depth_duration_MTurk/v2_DepthDuration_HTML.html#463,463,1366,625,1366,768,8-29-2022,14-40-6,61,depth_duration_stimuli/003490_2014-05-21_15-50-11_094959634447_rgbf000101-resize_3/003490_2014-05-21_15-50-11_094959634447_rgbf000101-resize_3-target.png,125,3.6445,5,2226,132,meters,jsons/VE125_randls_16.json,564467,983791,47,Woman
61,634447,DepthScenes,duration_manipulation_targetAtFixation,jsons/VE125_randls_16.json,http://54.235.29.9/FacialAge/BNav_EC2/DepthDuration/v2_depth_duration_MTurk/v2_DepthDuration_HTML.html#463,463,1366,625,1366,768,8-29-2022,14-40-6,62,depth_duration_stimuli/000436_2014-06-09_22-25-11_260595134347_rgbf000137-resize_1/000436_2014-06-09_22-25-11_260595134347_rgbf000137-resize_1-target.png,125,4.0705,7,2072,125,meters,jsons/VE125_randls_16.json,564467,983791,47,Woman
62,634447,DepthScenes,duration_manipulation_targetAtFixation,jsons/VE125_randls_16.json,http://54.235.29.9/FacialAge/BNav_EC2/DepthDuration/v2_depth_duration_MTurk/v2_DepthDuration_HTML.html#463,463,1366,625,1366,768,8-29-2022,14-40-6,63,depth_duration_stimuli/002444_2014-06-28_20-32-08_260595134347_rgbf000027-resize_0/002444_2014-06-28_20-32-08_260595134347_rgbf000027-resize_0-target.png,125,4.388999999999999,5,2201,122,meters,jsons/VE125_randls_16.json,564467,983791,47,Woman
63,634447,DepthScenes,duration_manipulation_targetAtFixation,jsons/VE125_randls_16.json,http://54.235.29.9/FacialAge/BNav_EC2/DepthDuration/v2_depth_duration_MTurk/v2_DepthDuration_HTML.html#463,463,1366,625,1366,768,8-29-2022,14-40-6,64,depth_duration_stimuli/003070_2014-06-15_14-58-27_094959634447_rgbf000150-resize_3/003070_2014-06-15_14-58-27_094959634447_rgbf000150-resize_3-target.png,125,2.9415,8,2183,110,meters,jsons/VE125_randls_16.json,564467,983791,47,Woman
64,634447,DepthScenes,duration_manipulation_targetAtFixation,jsons/VE125_randls_16.json,http://54.235.29.9/FacialAge/BNav_EC2/DepthDuration/v2_depth_duration_MTurk/v2_DepthDuration_HTML.html#463,463,1366,625,1366,768,8-29-2022,14-40-6,65,depth_duration_stimuli/000943_2014-06-09_19-31-07_260595134347_rgbf000128-resize_1/000943_2014-06-09_19-31-07_260595134347_rgbf000128-resize_1-target.png,125,1.9765,6,2698,124,meters,jsons/VE125_randls_16.json,564467,983791,47,Woman
65,634447,DepthScenes,duration_manipulation_targetAtFixation,jsons/VE125_randls_16.json,http://54.235.29.9/FacialAge/BNav_EC2/DepthDuration/v2_depth_duration_MTurk/v2_DepthDuration_HTML.html#463,463,1366,625,1366,768,8-29-2022,14-40-6,66,depth_duration_stimuli/001222_2014-06-17_16-24-06_260595134347_rgbf000073-resize_0/001222_2014-06-17_16-24-06_260595134347_rgbf000073-resize-original.jpg,125,1.4385,5,3994,109,meters,jsons/VE125_randls_16.json,564467,983791,47,Woman
66,634447,DepthScenes,duration_manipulation_targetAtFixation,jsons/VE125_randls_16.json,http://54.235.29.9/FacialAge/BNav_EC2/DepthDuration/v2_depth_duration_MTurk/v2_DepthDuration_HTML.html#463,463,1366,625,1366,768,8-29-2022,14-40-6,67,depth_duration_stimuli/001164_2014-06-17_15-35-46_260595134347_rgbf000085-resize_3/001164_2014-06-17_15-35-46_260595134347_rgbf000085-resize_3-target.png,125,2.354,4,3300,122,meters,jsons/VE125_randls_16.json,564467,983791,47,Woman
67,634447,DepthScenes,duration_manipulation_targetAtFixation,jsons/VE125_randls_16.json,http://54.235.29.9/FacialAge/BNav_EC2/DepthDuration/v2_depth_duration_MTurk/v2_DepthDuration_HTML.html#463,463,1366,625,1366,768,8-29-2022,14-40-6,68,depth_duration_stimuli/001136_2014-06-17_15-19-41_260595134347_rgbf000076-resize_3/001136_2014-06-17_15-19-41_260595134347_rgbf000076-resize_3-target.png,125,1.8655,4,1959,134,meters,jsons/VE125_randls_16.json,564467,983791,47,Woman
68,634447,DepthScenes,duration_manipulation_targetAtFixation,jsons/VE125_randls_16.json,http://54.235.29.9/FacialAge/BNav_EC2/DepthDuration/v2_depth_duration_MTurk/v2_DepthDuration_HTML.html#463,463,1366,625,1366,768,8-29-2022,14-40-6,69,depth_duration_stimuli/000414_2014-06-04_19-49-13_260595134347_rgbf000044-resize_0/000414_2014-06-04_19-49-13_260595134347_rgbf000044-resize_0-target.png,125,4.329,5,2108,125,meters,jsons/VE125_randls_16.json,564467,983791,47,Woman
69,634447,DepthScenes,duration_manipulation_targetAtFixation,jsons/VE125_randls_16.json,http://54.235.29.9/FacialAge/BNav_EC2/DepthDuration/v2_depth_duration_MTurk/v2_DepthDuration_HTML.html#463,463,1366,625,1366,768,8-29-2022,14-40-6,70,depth_duration_stimuli/003129_2014-05-12_10-48-10_094959634447_rgbf000100-resize_0/003129_2014-05-12_10-48-10_094959634447_rgbf000100-resize_0-target.png,125,4.9305,6,2098,128,meters,jsons/VE125_randls_16.json,564467,983791,47,Woman
70,634447,DepthScenes,duration_manipulation_targetAtFixation,jsons/VE125_randls_16.json,http://54.235.29.9/FacialAge/BNav_EC2/DepthDuration/v2_depth_duration_MTurk/v2_DepthDuration_HTML.html#463,463,1366,625,1366,768,8-29-2022,14-40-6,71,depth_duration_stimuli/001158_2014-06-17_15-32-16_260595134347_rgbf000138-resize_2/001158_2014-06-17_15-32-16_260595134347_rgbf000138-resize_2-target.png,125,4.5315,4,2275,122,meters,jsons/VE125_randls_16.json,564467,983791,47,Woman
71,634447,DepthScenes,duration_manipulation_targetAtFixation,jsons/VE125_randls_16.json,http://54.235.29.9/FacialAge/BNav_EC2/DepthDuration/v2_depth_duration_MTurk/v2_DepthDuration_HTML.html#463,463,1366,625,1366,768,8-29-2022,14-40-6,72,depth_duration_stimuli/000556_2014-06-09_22-42-56_260595134347_rgbf000214-resize_1/000556_2014-06-09_22-42-56_260595134347_rgbf000214-resize_1-target.png,125,4.8415,5,2505,123,meters,jsons/VE125_randls_16.json,564467,983791,47,Woman
72,634447,DepthScenes,duration_manipulation_targetAtFixation,jsons/VE125_randls_16.json,http://54.235.29.9/FacialAge/BNav_EC2/DepthDuration/v2_depth_duration_MTurk/v2_DepthDuration_HTML.html#463,463,1366,625,1366,768,8-29-2022,14-40-6,73,depth_duration_stimuli/001167_2014-06-17_15-38-07_260595134347_rgbf000108-resize_0/001167_2014-06-17_15-38-07_260595134347_rgbf000108-resize_0-target.png,125,1.8505,6,2440,119,meters,jsons/VE125_randls_16.json,564467,983791,47,Woman
73,634447,DepthScenes,duration_manipulation_targetAtFixation,jsons/VE125_randls_16.json,http://54.235.29.9/FacialAge/BNav_EC2/DepthDuration/v2_depth_duration_MTurk/v2_DepthDuration_HTML.html#463,463,1366,625,1366,768,8-29-2022,14-40-6,74,depth_duration_stimuli/003587_2014-05-23_16-48-02_094959634447_rgbf002384-resize_2/003587_2014-05-23_16-48-02_094959634447_rgbf002384-resize_2-target.png,125,1.357,7,2298,125,meters,jsons/VE125_randls_16.json,564467,983791,47,Woman
74,634447,DepthScenes,duration_manipulation_targetAtFixation,jsons/VE125_randls_16.json,http://54.235.29.9/FacialAge/BNav_EC2/DepthDuration/v2_depth_duration_MTurk/v2_DepthDuration_HTML.html#463,463,1366,625,1366,768,8-29-2022,14-40-6,75,depth_duration_stimuli/000522_2014-06-08_13-35-06_260595134347_rgbf000244-resize_1/000522_2014-06-08_13-35-06_260595134347_rgbf000244-resize_1-target.png,125,2.3715,6,2192,126,meters,jsons/VE125_randls_16.json,564467,983791,47,Woman
75,634447,DepthScenes,duration_manipulation_targetAtFixation,jsons/VE125_randls_16.json,http://54.235.29.9/FacialAge/BNav_EC2/DepthDuration/v2_depth_duration_MTurk/v2_DepthDuration_HTML.html#463,463,1366,625,1366,768,8-29-2022,14-40-6,76,depth_duration_stimuli/002949_2014-06-26_15-57-42_094959634447_rgbf000079-resize_1/002949_2014-06-26_15-57-42_094959634447_rgbf000079-resize_1-target.png,125,1.8915,5,1919,125,meters,jsons/VE125_randls_16.json,564467,983791,47,Woman
76,634447,DepthScenes,duration_manipulation_targetAtFixation,jsons/VE125_randls_16.json,http://54.235.29.9/FacialAge/BNav_EC2/DepthDuration/v2_depth_duration_MTurk/v2_DepthDuration_HTML.html#463,463,1366,625,1366,768,8-29-2022,14-40-6,77,depth_duration_stimuli/000493_2014-06-09_21-01-18_260595134347_rgbf000196-resize_3/000493_2014-06-09_21-01-18_260595134347_rgbf000196-resize_3-target.png,125,3.44,6,2317,131,meters,jsons/VE125_randls_16.json,564467,983791,47,Woman
77,634447,DepthScenes,duration_manipulation_targetAtFixation,jsons/VE125_randls_16.json,http://54.235.29.9/FacialAge/BNav_EC2/DepthDuration/v2_depth_duration_MTurk/v2_DepthDuration_HTML.html#463,463,1366,625,1366,768,8-29-2022,14-40-6,78,depth_duration_stimuli/000191_2014-05-12_17-07-38_260595134347_rgbf000199-resize_0/000191_2014-05-12_17-07-38_260595134347_rgbf000199-resize_0-target.png,125,3.7995,5,2005,121,meters,jsons/VE125_randls_16.json,564467,983791,47,Woman
78,634447,DepthScenes,duration_manipulation_targetAtFixation,jsons/VE125_randls_16.json,http://54.235.29.9/FacialAge/BNav_EC2/DepthDuration/v2_depth_duration_MTurk/v2_DepthDuration_HTML.html#463,463,1366,625,1366,768,8-29-2022,14-40-6,79,depth_duration_stimuli/000878_2014-06-08_22-52-45_260595134347_rgbf000045-resize_2/000878_2014-06-08_22-52-45_260595134347_rgbf000045-resize_2-target.png,125,2.092,6,3029,114,meters,jsons/VE125_randls_16.json,564467,983791,47,Woman
79,634447,DepthScenes,duration_manipulation_targetAtFixation,jsons/VE125_randls_16.json,http://54.235.29.9/FacialAge/BNav_EC2/DepthDuration/v2_depth_duration_MTurk/v2_DepthDuration_HTML.html#463,463,1366,625,1366,768,8-29-2022,14-40-6,80,depth_duration_stimuli/002953_2014-06-08_17-32-18_094959634447_rgbf000059-resize_5/002953_2014-06-08_17-32-18_094959634447_rgbf000059-resize_5-target.png,125,1.551,5,2241,136,meters,jsons/VE125_randls_16.json,564467,983791,47,Woman
80,634447,DepthScenes,duration_manipulation_targetAtFixation,jsons/VE125_randls_16.json,http://54.235.29.9/FacialAge/BNav_EC2/DepthDuration/v2_depth_duration_MTurk/v2_DepthDuration_HTML.html#463,463,1366,625,1366,768,8-29-2022,14-40-6,81,depth_duration_stimuli/003492_2014-05-21_15-50-55_094959634447_rgbf000828-resize_1/003492_2014-05-21_15-50-55_094959634447_rgbf000828-resize_1-target.png,125,4.06875,7,2693,127,meters,jsons/VE125_randls_16.json,564467,983791,47,Woman
81,634447,DepthScenes,duration_manipulation_targetAtFixation,jsons/VE125_randls_16.json,http://54.235.29.9/FacialAge/BNav_EC2/DepthDuration/v2_depth_duration_MTurk/v2_DepthDuration_HTML.html#463,463,1366,625,1366,768,8-29-2022,14-40-6,82,depth_duration_stimuli/002568_2014-06-24_13-59-21_094959634447_rgbf000062-resize_4/002568_2014-06-24_13-59-21_094959634447_rgbf000062-resize_4-target.png,125,3.015,6,1964,124,meters,jsons/VE125_randls_16.json,564467,983791,47,Woman
82,634447,DepthScenes,duration_manipulation_targetAtFixation,jsons/VE125_randls_16.json,http://54.235.29.9/FacialAge/BNav_EC2/DepthDuration/v2_depth_duration_MTurk/v2_DepthDuration_HTML.html#463,463,1366,625,1366,768,8-29-2022,14-40-6,83,depth_duration_stimuli/000682_2014-06-08_23-14-58_260595134347_rgbf000041-resize_5/000682_2014-06-08_23-14-58_260595134347_rgbf000041-resize_5-target.png,125,2.7239999999999998,5,2145,125,meters,jsons/VE125_randls_16.json,564467,983791,47,Woman
83,634447,DepthScenes,duration_manipulation_targetAtFixation,jsons/VE125_randls_16.json,http://54.235.29.9/FacialAge/BNav_EC2/DepthDuration/v2_depth_duration_MTurk/v2_DepthDuration_HTML.html#463,463,1366,625,1366,768,8-29-2022,14-40-6,84,depth_duration_stimuli/001650_2014-06-20_12-09-00_260595134347_rgbf000087-resize_3/001650_2014-06-20_12-09-00_260595134347_rgbf000087-resize_3-target.png,125,1.9505,4,2328,128,meters,jsons/VE125_randls_16.json,564467,983791,47,Woman
84,634447,DepthScenes,duration_manipulation_targetAtFixation,jsons/VE125_randls_16.json,http://54.235.29.9/FacialAge/BNav_EC2/DepthDuration/v2_depth_duration_MTurk/v2_DepthDuration_HTML.html#463,463,1366,625,1366,768,8-29-2022,14-40-6,85,depth_duration_stimuli/001570_2014-06-20_17-21-09_260595134347_rgbf000135-resize_4/001570_2014-06-20_17-21-09_260595134347_rgbf000135-resize_4-target.png,125,4.467,6,2667,126,meters,jsons/VE125_randls_16.json,564467,983791,47,Woman
85,634447,DepthScenes,duration_manipulation_targetAtFixation,jsons/VE125_randls_16.json,http://54.235.29.9/FacialAge/BNav_EC2/DepthDuration/v2_depth_duration_MTurk/v2_DepthDuration_HTML.html#463,463,1366,625,1366,768,8-29-2022,14-40-6,86,depth_duration_stimuli/001392_2014-06-19_16-07-59_260595134347_rgbf000046-resize_1/001392_2014-06-19_16-07-59_260595134347_rgbf000046-resize_1-target.png,125,4.135,4,2952,130,meters,jsons/VE125_randls_16.json,564467,983791,47,Woman
86,634447,DepthScenes,duration_manipulation_targetAtFixation,jsons/VE125_randls_16.json,http://54.235.29.9/FacialAge/BNav_EC2/DepthDuration/v2_depth_duration_MTurk/v2_DepthDuration_HTML.html#463,463,1366,625,1366,768,8-29-2022,14-40-6,87,depth_duration_stimuli/000447_2014-06-08_16-15-46_260595134347_rgbf000130-resize_1/000447_2014-06-08_16-15-46_260595134347_rgbf000130-resize_1-target.png,125,4.479,5,2160,121,meters,jsons/VE125_randls_16.json,564467,983791,47,Woman
87,634447,DepthScenes,duration_manipulation_targetAtFixation,jsons/VE125_randls_16.json,http://54.235.29.9/FacialAge/BNav_EC2/DepthDuration/v2_depth_duration_MTurk/v2_DepthDuration_HTML.html#463,463,1366,625,1366,768,8-29-2022,14-40-6,88,depth_duration_stimuli/001447_2014-06-19_17-00-32_260595134347_rgbf000082-resize_5/001447_2014-06-19_17-00-32_260595134347_rgbf000082-resize_5-target.png,125,4.13775,7,2034,121,meters,jsons/VE125_randls_16.json,564467,983791,47,Woman
88,634447,DepthScenes,duration_manipulation_targetAtFixation,jsons/VE125_randls_16.json,http://54.235.29.9/FacialAge/BNav_EC2/DepthDuration/v2_depth_duration_MTurk/v2_DepthDuration_HTML.html#463,463,1366,625,1366,768,8-29-2022,14-40-6,89,depth_duration_stimuli/001199_2014-06-17_16-03-48_260595134347_rgbf000077-resize_0/001199_2014-06-17_16-03-48_260595134347_rgbf000077-resize_0-target.png,125,3.4375,6,1918,126,meters,jsons/VE125_randls_16.json,564467,983791,47,Woman
89,634447,DepthScenes,duration_manipulation_targetAtFixation,jsons/VE125_randls_16.json,http://54.235.29.9/FacialAge/BNav_EC2/DepthDuration/v2_depth_duration_MTurk/v2_DepthDuration_HTML.html#463,463,1366,625,1366,768,8-29-2022,14-40-6,90,depth_duration_stimuli/000502_2014-06-08_23-02-32_260595134347_rgbf000063-resize_4/000502_2014-06-08_23-02-32_260595134347_rgbf000063-resize_4-target.png,125,2.431,5,2107,121,meters,jsons/VE125_randls_16.json,564467,983791,47,Woman
90,634447,DepthScenes,duration_manipulation_targetAtFixation,jsons/VE125_randls_16.json,http://54.235.29.9/FacialAge/BNav_EC2/DepthDuration/v2_depth_duration_MTurk/v2_DepthDuration_HTML.html#463,463,1366,625,1366,768,8-29-2022,14-40-6,91,depth_duration_stimuli/000368_2014-06-09_15-53-01_260595134347_rgbf000155-resize_2/000368_2014-06-09_15-53-01_260595134347_rgbf000155-resize_2-target.png,125,2.4859999999999998,4,2166,130,meters,jsons/VE125_randls_16.json,564467,983791,47,Woman
91,634447,DepthScenes,duration_manipulation_targetAtFixation,jsons/VE125_randls_16.json,http://54.235.29.9/FacialAge/BNav_EC2/DepthDuration/v2_depth_duration_MTurk/v2_DepthDuration_HTML.html#463,463,1366,625,1366,768,8-29-2022,14-40-6,92,depth_duration_stimuli/002678_2014-06-13_16-15-32_094959634447_rgbf000151-resize_6/002678_2014-06-13_16-15-32_094959634447_rgbf000151-resize_6-target.png,125,2.1830000000000003,4,5041,118,meters,jsons/VE125_randls_16.json,564467,983791,47,Woman
92,634447,DepthScenes,duration_manipulation_targetAtFixation,jsons/VE125_randls_16.json,http://54.235.29.9/FacialAge/BNav_EC2/DepthDuration/v2_depth_duration_MTurk/v2_DepthDuration_HTML.html#463,463,1366,625,1366,768,8-29-2022,14-40-6,93,depth_duration_stimuli/001244_2014-06-17_16-47-45_260595134347_rgbf000030-resize_4/001244_2014-06-17_16-47-45_260595134347_rgbf000030-resize_4-target.png,125,2.0425,5,2372,111,meters,jsons/VE125_randls_16.json,564467,983791,47,Woman
93,634447,DepthScenes,duration_manipulation_targetAtFixation,jsons/VE125_randls_16.json,http://54.235.29.9/FacialAge/BNav_EC2/DepthDuration/v2_depth_duration_MTurk/v2_DepthDuration_HTML.html#463,463,1366,625,1366,768,8-29-2022,14-40-6,94,depth_duration_stimuli/003495_2014-05-21_16-01-51_094959634447_rgbf000100-resize_3/003495_2014-05-21_16-01-51_094959634447_rgbf000100-resize_3-target.png,125,1.6255,6,2155,120,meters,jsons/VE125_randls_16.json,564467,983791,47,Woman
94,634447,DepthScenes,duration_manipulation_targetAtFixation,jsons/VE125_randls_16.json,http://54.235.29.9/FacialAge/BNav_EC2/DepthDuration/v2_depth_duration_MTurk/v2_DepthDuration_HTML.html#463,463,1366,625,1366,768,8-29-2022,14-40-6,95,depth_duration_stimuli/002039_2014-06-24_20-22-38_260595134347_rgbf000084-resize_1/002039_2014-06-24_20-22-38_260595134347_rgbf000084-resize_1-target.png,125,4.408,5,1903,114,meters,jsons/VE125_randls_16.json,564467,983791,47,Woman
95,634447,DepthScenes,duration_manipulation_targetAtFixation,jsons/VE125_randls_16.json,http://54.235.29.9/FacialAge/BNav_EC2/DepthDuration/v2_depth_duration_MTurk/v2_DepthDuration_HTML.html#463,463,1366,625,1366,768,8-29-2022,14-40-6,96,depth_duration_stimuli/002103_2014-06-25_20-00-40_260595134347_rgbf000049-resize_0/002103_2014-06-25_20-00-40_260595134347_rgbf000049-resize_0-target.png,125,4.105,7,2086,124,meters,jsons/VE125_randls_16.json,564467,983791,47,Woman
96,634447,DepthScenes,duration_manipulation_targetAtFixation,jsons/VE125_randls_16.json,http://54.235.29.9/FacialAge/BNav_EC2/DepthDuration/v2_depth_duration_MTurk/v2_DepthDuration_HTML.html#463,463,1366,625,1366,768,8-29-2022,14-40-6,97,depth_duration_stimuli/002988_2014-06-15_12-24-20_094959634447_rgbf000150-resize_1/002988_2014-06-15_12-24-20_094959634447_rgbf000150-resize_1-target.png,125,4.7669999999999995,6,2278,163,meters,jsons/VE125_randls_16.json,564467,983791,47,Woman
97,634447,DepthScenes,duration_manipulation_targetAtFixation,jsons/VE125_randls_16.json,http://54.235.29.9/FacialAge/BNav_EC2/DepthDuration/v2_depth_duration_MTurk/v2_DepthDuration_HTML.html#463,463,1366,625,1366,768,8-29-2022,14-40-6,98,depth_duration_stimuli/001052_2014-06-08_18-24-54_260595134347_rgbf000130-resize_1/001052_2014-06-08_18-24-54_260595134347_rgbf000130-resize_1-target.png,125,4.1045,7,2376,110,meters,jsons/VE125_randls_16.json,564467,983791,47,Woman
98,634447,DepthScenes,duration_manipulation_targetAtFixation,jsons/VE125_randls_16.json,http://54.235.29.9/FacialAge/BNav_EC2/DepthDuration/v2_depth_duration_MTurk/v2_DepthDuration_HTML.html#463,463,1366,625,1366,768,8-29-2022,14-40-6,99,depth_duration_stimuli/001540_2014-06-20_17-01-05_260595134347_rgbf000086-resize_2/001540_2014-06-20_17-01-05_260595134347_rgbf000086-resize-original.jpg,125,1.459,6,2277,119,meters,jsons/VE125_randls_16.json,564467,983791,47,Woman
99,634447,DepthScenes,duration_manipulation_targetAtFixation,jsons/VE125_randls_16.json,http://54.235.29.9/FacialAge/BNav_EC2/DepthDuration/v2_depth_duration_MTurk/v2_DepthDuration_HTML.html#463,463,1366,625,1366,768,8-29-2022,14-40-6,100,depth_duration_stimuli/000470_2014-06-09_19-42-40_260595134347_rgbf000094-resize_1/000470_2014-06-09_19-42-40_260595134347_rgbf000094-resize_1-target.png,125,1.831,6,2563,125,meters,jsons/VE125_randls_16.json,564467,983791,47,Woman
100,634447,DepthScenes,duration_manipulation_targetAtFixation,jsons/VE125_randls_16.json,http://54.235.29.9/FacialAge/BNav_EC2/DepthDuration/v2_depth_duration_MTurk/v2_DepthDuration_HTML.html#463,463,1366,625,1366,768,8-29-2022,14-40-6,101,depth_duration_stimuli/000109_2014-05-14_23-41-52_260595134347_rgbf000035-resize_9/000109_2014-05-14_23-41-52_260595134347_rgbf000035-resize_9-target.png,125,1.3545,7,2896,113,meters,jsons/VE125_randls_16.json,564467,983791,47,Woman
101,634447,DepthScenes,duration_manipulation_targetAtFixation,jsons/VE125_randls_16.json,http://54.235.29.9/FacialAge/BNav_EC2/DepthDuration/v2_depth_duration_MTurk/v2_DepthDuration_HTML.html#463,463,1366,625,1366,768,8-29-2022,14-40-6,102,depth_duration_stimuli/001806_2014-06-26_20-50-20_260595134347_rgbf000091-resize_1/001806_2014-06-26_20-50-20_260595134347_rgbf000091-resize_1-target.png,125,2.7305,6,2149,121,meters,jsons/VE125_randls_16.json,564467,983791,47,Woman
102,634447,DepthScenes,duration_manipulation_targetAtFixation,jsons/VE125_randls_16.json,http://54.235.29.9/FacialAge/BNav_EC2/DepthDuration/v2_depth_duration_MTurk/v2_DepthDuration_HTML.html#463,463,1366,625,1366,768,8-29-2022,14-40-6,103,depth_duration_stimuli/001617_2014-06-20_11-35-32_260595134347_rgbf000066-resize_1/001617_2014-06-20_11-35-32_260595134347_rgbf000066-resize_1-target.png,125,3.7910000000000004,5,2275,121,meters,jsons/VE125_randls_16.json,564467,983791,47,Woman
103,634447,DepthScenes,duration_manipulation_targetAtFixation,jsons/VE125_randls_16.json,http://54.235.29.9/FacialAge/BNav_EC2/DepthDuration/v2_depth_duration_MTurk/v2_DepthDuration_HTML.html#463,463,1366,625,1366,768,8-29-2022,14-40-6,104,depth_duration_stimuli/000929_2014-06-09_16-33-19_260595134347_rgbf000139-resize_0/000929_2014-06-09_16-33-19_260595134347_rgbf000139-resize_0-target.png,125,2.8680000000000003,6,2678,122,meters,jsons/VE125_randls_16.json,564467,983791,47,Woman
104,634447,DepthScenes,duration_manipulation_targetAtFixation,jsons/VE125_randls_16.json,http://54.235.29.9/FacialAge/BNav_EC2/DepthDuration/v2_depth_duration_MTurk/v2_DepthDuration_HTML.html#463,463,1366,625,1366,768,8-29-2022,14-40-6,105,depth_duration_stimuli/000457_2014-06-08_16-52-43_260595134347_rgbf000199-resize_1/000457_2014-06-08_16-52-43_260595134347_rgbf000199-resize_1-target.png,125,3.6489999999999996,5,1808,117,meters,jsons/VE125_randls_16.json,564467,983791,47,Woman
105,634447,DepthScenes,duration_manipulation_targetAtFixation,jsons/VE125_randls_16.json,http://54.235.29.9/FacialAge/BNav_EC2/DepthDuration/v2_depth_duration_MTurk/v2_DepthDuration_HTML.html#463,463,1366,625,1366,768,8-29-2022,14-40-6,106,depth_duration_stimuli/002989_2014-06-15_12-25-03_094959634447_rgbf000150-resize_3/002989_2014-06-15_12-25-03_094959634447_rgbf000150-resize_3-target.png,125,4.1975,5,2890,112,meters,jsons/VE125_randls_16.json,564467,983791,47,Woman
106,634447,DepthScenes,duration_manipulation_targetAtFixation,jsons/VE125_randls_16.json,http://54.235.29.9/FacialAge/BNav_EC2/DepthDuration/v2_depth_duration_MTurk/v2_DepthDuration_HTML.html#463,463,1366,625,1366,768,8-29-2022,14-40-6,107,depth_duration_stimuli/000866_2014-06-09_20-45-42_260595134347_rgbf000139-resize_1/000866_2014-06-09_20-45-42_260595134347_rgbf000139-resize_1-target.png,125,3.2155,6,1717,132,meters,jsons/VE125_randls_16.json,564467,983791,47,Woman
107,634447,DepthScenes,duration_manipulation_targetAtFixation,jsons/VE125_randls_16.json,http://54.235.29.9/FacialAge/BNav_EC2/DepthDuration/v2_depth_duration_MTurk/v2_DepthDuration_HTML.html#463,463,1366,625,1366,768,8-29-2022,14-40-6,108,depth_duration_stimuli/002279_2014-06-28_18-55-32_260595134347_rgbf000040-resize_5/002279_2014-06-28_18-55-32_260595134347_rgbf000040-resize_5-target.png,125,1.5043333333333,5,2088,119,meters,jsons/VE125_randls_16.json,564467,983791,47,Woman
108,634447,DepthScenes,duration_manipulation_targetAtFixation,jsons/VE125_randls_16.json,http://54.235.29.9/FacialAge/BNav_EC2/DepthDuration/v2_depth_duration_MTurk/v2_DepthDuration_HTML.html#463,463,1366,625,1366,768,8-29-2022,14-40-6,109,depth_duration_stimuli/000635_2014-06-08_16-38-42_260595134347_rgbf000106-resize_1/000635_2014-06-08_16-38-42_260595134347_rgbf000106-resize_1-target.png,125,2.074,6,2062,116,meters,jsons/VE125_randls_16.json,564467,983791,47,Woman
109,634447,DepthScenes,duration_manipulation_targetAtFixation,jsons/VE125_randls_16.json,http://54.235.29.9/FacialAge/BNav_EC2/DepthDuration/v2_depth_duration_MTurk/v2_DepthDuration_HTML.html#463,463,1366,625,1366,768,8-29-2022,14-40-6,110,depth_duration_stimuli/000739_2014-06-08_18-45-58_260595134347_rgbf000068-resize_1/000739_2014-06-08_18-45-58_260595134347_rgbf000068-resize_1-target.png,125,3.534,7,3117,116,meters,jsons/VE125_randls_16.json,564467,983791,47,Woman
110,634447,DepthScenes,duration_manipulation_targetAtFixation,jsons/VE125_randls_16.json,http://54.235.29.9/FacialAge/BNav_EC2/DepthDuration/v2_depth_duration_MTurk/v2_DepthDuration_HTML.html#463,463,1366,625,1366,768,8-29-2022,14-40-6,111,depth_duration_stimuli/000734_2014-06-08_17-39-11_260595134347_rgbf000128-resize_2/000734_2014-06-08_17-39-11_260595134347_rgbf000128-resize_2-target.png,125,4.098,7,2867,134,meters,jsons/VE125_randls_16.json,564467,983791,47,Woman
111,634447,DepthScenes,duration_manipulation_targetAtFixation,jsons/VE125_randls_16.json,http://54.235.29.9/FacialAge/BNav_EC2/DepthDuration/v2_depth_duration_MTurk/v2_DepthDuration_HTML.html#463,463,1366,625,1366,768,8-29-2022,14-40-6,112,depth_duration_stimuli/002043_2014-06-24_20-29-38_260595134347_rgbf000039-resize_4/002043_2014-06-24_20-29-38_260595134347_rgbf000039-resize_4-target.png,125,2.8435,6,1701,129,meters,jsons/VE125_randls_16.json,564467,983791,47,Woman
112,634447,DepthScenes,duration_manipulation_targetAtFixation,jsons/VE125_randls_16.json,http://54.235.29.9/FacialAge/BNav_EC2/DepthDuration/v2_depth_duration_MTurk/v2_DepthDuration_HTML.html#463,463,1366,625,1366,768,8-29-2022,14-40-6,113,depth_duration_stimuli/003048_2014-06-15_13-49-43_094959634447_rgbf000150-resize_1/003048_2014-06-15_13-49-43_094959634447_rgbf000150-resize_1-target.png,125,4.0035,6,1925,114,meters,jsons/VE125_randls_16.json,564467,983791,47,Woman
113,634447,DepthScenes,duration_manipulation_targetAtFixation,jsons/VE125_randls_16.json,http://54.235.29.9/FacialAge/BNav_EC2/DepthDuration/v2_depth_duration_MTurk/v2_DepthDuration_HTML.html#463,463,1366,625,1366,768,8-29-2022,14-40-6,114,depth_duration_stimuli/003534_2014-05-22_15-06-10_094959634447_rgbf000102-resize_4/003534_2014-05-22_15-06-10_094959634447_rgbf000102-resize_4-target.png,125,1.426,7,2356,130,meters,jsons/VE125_randls_16.json,564467,983791,47,Woman
114,634447,DepthScenes,duration_manipulation_targetAtFixation,jsons/VE125_randls_16.json,http://54.235.29.9/FacialAge/BNav_EC2/DepthDuration/v2_depth_duration_MTurk/v2_DepthDuration_HTML.html#463,463,1366,625,1366,768,8-29-2022,14-40-6,115,depth_duration_stimuli/002637_2014-06-24_14-51-13_094959634447_rgbf000066-resize_4/002637_2014-06-24_14-51-13_094959634447_rgbf000066-resize_4-target.png,125,1.9955,6,2210,124,meters,jsons/VE125_randls_16.json,564467,983791,47,Woman
115,634447,DepthScenes,duration_manipulation_targetAtFixation,jsons/VE125_randls_16.json,http://54.235.29.9/FacialAge/BNav_EC2/DepthDuration/v2_depth_duration_MTurk/v2_DepthDuration_HTML.html#463,463,1366,625,1366,768,8-29-2022,14-40-6,116,depth_duration_stimuli/001170_2014-06-17_15-43-44_260595134347_rgbf000096-resize_6/001170_2014-06-17_15-43-44_260595134347_rgbf000096-resize-original.jpg,125,1.1909999999999998,7,2167,57,meters,jsons/VE125_randls_16.json,564467,983791,47,Woman
116,634447,DepthScenes,duration_manipulation_targetAtFixation,jsons/VE125_randls_16.json,http://54.235.29.9/FacialAge/BNav_EC2/DepthDuration/v2_depth_duration_MTurk/v2_DepthDuration_HTML.html#463,463,1366,625,1366,768,8-29-2022,14-40-6,117,depth_duration_stimuli/002153_2014-06-25_21-27-18_260595134347_rgbf000038-resize_5/002153_2014-06-25_21-27-18_260595134347_rgbf000038-resize_5-target.png,125,2.505,6,2639,125,meters,jsons/VE125_randls_16.json,564467,983791,47,Woman
117,634447,DepthScenes,duration_manipulation_targetAtFixation,jsons/VE125_randls_16.json,http://54.235.29.9/FacialAge/BNav_EC2/DepthDuration/v2_depth_duration_MTurk/v2_DepthDuration_HTML.html#463,463,1366,625,1366,768,8-29-2022,14-40-6,118,depth_duration_stimuli/002660_2014-06-13_15-44-18_094959634447_rgbf001878-resize_2/002660_2014-06-13_15-44-18_094959634447_rgbf001878-resize_2-target.png,125,3.576,7,2730,107,meters,jsons/VE125_randls_16.json,564467,983791,47,Woman
118,634447,DepthScenes,duration_manipulation_targetAtFixation,jsons/VE125_randls_16.json,http://54.235.29.9/FacialAge/BNav_EC2/DepthDuration/v2_depth_duration_MTurk/v2_DepthDuration_HTML.html#463,463,1366,625,1366,768,8-29-2022,14-40-6,119,depth_duration_stimuli/001066_2014-06-08_22-03-20_260595134347_rgbf000066-resize_4/001066_2014-06-08_22-03-20_260595134347_rgbf000066-resize_4-target.png,125,4.2330000000000005,6,4716,121,meters,jsons/VE125_randls_16.json,564467,983791,47,Woman
119,634447,DepthScenes,duration_manipulation_targetAtFixation,jsons/VE125_randls_16.json,http://54.235.29.9/FacialAge/BNav_EC2/DepthDuration/v2_depth_duration_MTurk/v2_DepthDuration_HTML.html#463,463,1366,625,1366,768,8-29-2022,14-40-6,120,depth_duration_stimuli/000742_2014-06-08_18-48-09_260595134347_rgbf000164-resize_4/000742_2014-06-08_18-48-09_260595134347_rgbf000164-resize_4-target.png,125,4.632,8,2098,137,meters,jsons/VE125_randls_16.json,564467,983791,47,Woman
120,634447,DepthScenes,duration_manipulation_targetAtFixation,jsons/VE125_randls_16.json,http://54.235.29.9/FacialAge/BNav_EC2/DepthDuration/v2_depth_duration_MTurk/v2_DepthDuration_HTML.html#463,463,1366,625,1366,768,8-29-2022,14-40-6,121,depth_duration_stimuli/001092_2014-06-15_17-34-58_260595134347_rgbf000171-resize_3/001092_2014-06-15_17-34-58_260595134347_rgbf000171-resize_3-target.png,125,2.6935,8,1849,114,meters,jsons/VE125_randls_16.json,564467,983791,47,Woman
121,634447,DepthScenes,duration_manipulation_targetAtFixation,jsons/VE125_randls_16.json,http://54.235.29.9/FacialAge/BNav_EC2/DepthDuration/v2_depth_duration_MTurk/v2_DepthDuration_HTML.html#463,463,1366,625,1366,768,8-29-2022,14-40-6,122,depth_duration_stimuli/002545_2014-06-24_13-38-53_094959634447_rgbf000080-resize_4/002545_2014-06-24_13-38-53_094959634447_rgbf000080-resize_4-target.png,125,1.9205,8,1827,115,meters,jsons/VE125_randls_16.json,564467,983791,47,Woman
122,634447,DepthScenes,duration_manipulation_targetAtFixation,jsons/VE125_randls_16.json,http://54.235.29.9/FacialAge/BNav_EC2/DepthDuration/v2_depth_duration_MTurk/v2_DepthDuration_HTML.html#463,463,1366,625,1366,768,8-29-2022,14-40-6,123,depth_duration_stimuli/002964_2014-06-08_17-46-11_094959634447_rgbf000091-resize_4/002964_2014-06-08_17-46-11_094959634447_rgbf000091-resize_4-target.png,125,1.6909999999999998,7,1871,120,meters,jsons/VE125_randls_16.json,564467,983791,47,Woman
123,634447,DepthScenes,duration_manipulation_targetAtFixation,jsons/VE125_randls_16.json,http://54.235.29.9/FacialAge/BNav_EC2/DepthDuration/v2_depth_duration_MTurk/v2_DepthDuration_HTML.html#463,463,1366,625,1366,768,8-29-2022,14-40-6,124,depth_duration_stimuli/002136_2014-06-25_21-18-03_260595134347_rgbf000109-resize_3/002136_2014-06-25_21-18-03_260595134347_rgbf000109-resize_3-target.png,125,1.9569999999999999,7,2089,117,meters,jsons/VE125_randls_16.json,564467,983791,47,Woman
124,634447,DepthScenes,duration_manipulation_targetAtFixation,jsons/VE125_randls_16.json,http://54.235.29.9/FacialAge/BNav_EC2/DepthDuration/v2_depth_duration_MTurk/v2_DepthDuration_HTML.html#463,463,1366,625,1366,768,8-29-2022,14-40-6,125,depth_duration_stimuli/001055_2014-06-08_18-45-35_260595134347_rgbf000111-resize_4/001055_2014-06-08_18-45-35_260595134347_rgbf000111-resize_4-target.png,125,2.4290000000000003,8,2684,133,meters,jsons/VE125_randls_16.json,564467,983791,47,Woman
125,634447,DepthScenes,duration_manipulation_targetAtFixation,jsons/VE125_randls_16.json,http://54.235.29.9/FacialAge/BNav_EC2/DepthDuration/v2_depth_duration_MTurk/v2_DepthDuration_HTML.html#463,463,1366,625,1366,768,8-29-2022,14-40-6,126,depth_duration_stimuli/000549_2014-06-08_22-10-24_260595134347_rgbf000247-resize_3/000549_2014-06-08_22-10-24_260595134347_rgbf000247-resize_3-target.png,125,1.841,8,4020,118,meters,jsons/VE125_randls_16.json,564467,983791,47,Woman
126,634447,DepthScenes,duration_manipulation_targetAtFixation,jsons/VE125_randls_16.json,http://54.235.29.9/FacialAge/BNav_EC2/DepthDuration/v2_depth_duration_MTurk/v2_DepthDuration_HTML.html#463,463,1366,625,1366,768,8-29-2022,14-40-6,127,depth_duration_stimuli/001011_2014-06-08_23-18-54_260595134347_rgbf000044-resize_4/001011_2014-06-08_23-18-54_260595134347_rgbf000044-resize_4-target.png,125,2.4730000000000003,7,2217,125,meters,jsons/VE125_randls_16.json,564467,983791,47,Woman
127,634447,DepthScenes,duration_manipulation_targetAtFixation,jsons/VE125_randls_16.json,http://54.235.29.9/FacialAge/BNav_EC2/DepthDuration/v2_depth_duration_MTurk/v2_DepthDuration_HTML.html#463,463,1366,625,1366,768,8-29-2022,14-40-6,128,depth_duration_stimuli/002875_2014-06-01_15-19-00_094959634447_rgbf000151-resize_1/002875_2014-06-01_15-19-00_094959634447_rgbf000151-resize_1-target.png,125,1.9675,5,2693,136,meters,jsons/VE125_randls_16.json,564467,983791,47,Woman
128,634447,DepthScenes,duration_manipulation_targetAtFixation,jsons/VE125_randls_16.json,http://54.235.29.9/FacialAge/BNav_EC2/DepthDuration/v2_depth_duration_MTurk/v2_DepthDuration_HTML.html#463,463,1366,625,1366,768,8-29-2022,14-40-6,129,depth_duration_stimuli/002784_2014-06-22_19-26-30_094959634447_rgbf000083-resize_3/002784_2014-06-22_19-26-30_094959634447_rgbf000083-resize_3-target.png,125,1.8046666666667,6,2936,131,meters,jsons/VE125_randls_16.json,564467,983791,47,Woman
129,634447,DepthScenes,duration_manipulation_targetAtFixation,jsons/VE125_randls_16.json,http://54.235.29.9/FacialAge/BNav_EC2/DepthDuration/v2_depth_duration_MTurk/v2_DepthDuration_HTML.html#463,463,1366,625,1366,768,8-29-2022,14-40-6,130,depth_duration_stimuli/001100_2014-06-15_17-46-26_260595134347_rgbf000225-resize_2/001100_2014-06-15_17-46-26_260595134347_rgbf000225-resize_2-target.png,125,2.24,7,1801,135,meters,jsons/VE125_randls_16.json,564467,983791,47,Woman
130,634447,DepthScenes,duration_manipulation_targetAtFixation,jsons/VE125_randls_16.json,http://54.235.29.9/FacialAge/BNav_EC2/DepthDuration/v2_depth_duration_MTurk/v2_DepthDuration_HTML.html#463,463,1366,625,1366,768,8-29-2022,14-40-6,131,depth_duration_stimuli/001056_2014-06-08_18-46-44_260595134347_rgbf000068-resize_0/001056_2014-06-08_18-46-44_260595134347_rgbf000068-resize_0-target.png,125,2.6625,7,2808,113,meters,jsons/VE125_randls_16.json,564467,983791,47,Woman
131,634447,DepthScenes,duration_manipulation_targetAtFixation,jsons/VE125_randls_16.json,http://54.235.29.9/FacialAge/BNav_EC2/DepthDuration/v2_depth_duration_MTurk/v2_DepthDuration_HTML.html#463,463,1366,625,1366,768,8-29-2022,14-40-6,132,depth_duration_stimuli/002199_2014-06-28_18-33-56_260595134347_rgbf000074-resize_0/002199_2014-06-28_18-33-56_260595134347_rgbf000074-resize_0-target.png,125,1.996,8,4459,128,meters,jsons/VE125_randls_16.json,564467,983791,47,Woman
132,634447,DepthScenes,duration_manipulation_targetAtFixation,jsons/VE125_randls_16.json,http://54.235.29.9/FacialAge/BNav_EC2/DepthDuration/v2_depth_duration_MTurk/v2_DepthDuration_HTML.html#463,463,1366,625,1366,768,8-29-2022,14-40-6,133,depth_duration_stimuli/002509_2014-06-24_13-19-22_094959634447_rgbf000077-resize_0/002509_2014-06-24_13-19-22_094959634447_rgbf000077-resize_0-target.png,125,1.3065,8,3487,145,meters,jsons/VE125_randls_16.json,564467,983791,47,Woman
133,634447,DepthScenes,duration_manipulation_targetAtFixation,jsons/VE125_randls_16.json,http://54.235.29.9/FacialAge/BNav_EC2/DepthDuration/v2_depth_duration_MTurk/v2_DepthDuration_HTML.html#463,463,1366,625,1366,768,8-29-2022,14-40-6,134,depth_duration_stimuli/003338_2014-05-20_11-01-23_094959634447_rgbf000051-resize_6/003338_2014-05-20_11-01-23_094959634447_rgbf000051-resize_6-target.png,125,1.693,7,3799,124,meters,jsons/VE125_randls_16.json,564467,983791,47,Woman
134,634447,DepthScenes,duration_manipulation_targetAtFixation,jsons/VE125_randls_16.json,http://54.235.29.9/FacialAge/BNav_EC2/DepthDuration/v2_depth_duration_MTurk/v2_DepthDuration_HTML.html#463,463,1366,625,1366,768,8-29-2022,14-40-6,135,depth_duration_stimuli/002072_2014-06-24_21-48-06_260595134347_rgbf000115-resize_0/002072_2014-06-24_21-48-06_260595134347_rgbf000115-resize-original.jpg,125,4.702,6,2801,75,meters,jsons/VE125_randls_16.json,564467,983791,47,Woman
135,634447,DepthScenes,duration_manipulation_targetAtFixation,jsons/VE125_randls_16.json,http://54.235.29.9/FacialAge/BNav_EC2/DepthDuration/v2_depth_duration_MTurk/v2_DepthDuration_HTML.html#463,463,1366,625,1366,768,8-29-2022,14-40-6,136,depth_duration_stimuli/002630_2014-06-24_14-47-50_094959634447_rgbf000055-resize_1/002630_2014-06-24_14-47-50_094959634447_rgbf000055-resize_1-target.png,125,3.0095,6,2500,122,meters,jsons/VE125_randls_16.json,564467,983791,47,Woman
136,634447,DepthScenes,duration_manipulation_targetAtFixation,jsons/VE125_randls_16.json,http://54.235.29.9/FacialAge/BNav_EC2/DepthDuration/v2_depth_duration_MTurk/v2_DepthDuration_HTML.html#463,463,1366,625,1366,768,8-29-2022,14-40-6,137,depth_duration_stimuli/002758_2014-06-22_19-11-20_094959634447_rgbf000128-resize_1/002758_2014-06-22_19-11-20_094959634447_rgbf000128-resize_1-target.png,125,2.555,5,2391,122,meters,jsons/VE125_randls_16.json,564467,983791,47,Woman
137,634447,DepthScenes,duration_manipulation_targetAtFixation,jsons/VE125_randls_16.json,http://54.235.29.9/FacialAge/BNav_EC2/DepthDuration/v2_depth_duration_MTurk/v2_DepthDuration_HTML.html#463,463,1366,625,1366,768,8-29-2022,14-40-6,138,depth_duration_stimuli/000906_2014-06-08_13-35-43_260595134347_rgbf000155-resize_1/000906_2014-06-08_13-35-43_260595134347_rgbf000155-resize_1-target.png,125,2.8489999999999998,7,1983,109,meters,jsons/VE125_randls_16.json,564467,983791,47,Woman
138,634447,DepthScenes,duration_manipulation_targetAtFixation,jsons/VE125_randls_16.json,http://54.235.29.9/FacialAge/BNav_EC2/DepthDuration/v2_depth_duration_MTurk/v2_DepthDuration_HTML.html#463,463,1366,625,1366,768,8-29-2022,14-40-6,139,depth_duration_stimuli/002805_2014-06-22_19-54-03_094959634447_rgbf000079-resize_1/002805_2014-06-22_19-54-03_094959634447_rgbf000079-resize_1-target.png,125,3.1439999999999997,8,2487,121,meters,jsons/VE125_randls_16.json,564467,983791,47,Woman
139,634447,DepthScenes,duration_manipulation_targetAtFixation,jsons/VE125_randls_16.json,http://54.235.29.9/FacialAge/BNav_EC2/DepthDuration/v2_depth_duration_MTurk/v2_DepthDuration_HTML.html#463,463,1366,625,1366,768,8-29-2022,14-40-6,140,depth_duration_stimuli/002118_2014-06-25_20-32-08_260595134347_rgbf000078-resize_1/002118_2014-06-25_20-32-08_260595134347_rgbf000078-resize_1-target.png,125,2.6460000000000004,9,2016,131,meters,jsons/VE125_randls_16.json,564467,983791,47,Woman
140,634447,DepthScenes,duration_manipulation_targetAtFixation,jsons/VE125_randls_16.json,http://54.235.29.9/FacialAge/BNav_EC2/DepthDuration/v2_depth_duration_MTurk/v2_DepthDuration_HTML.html#463,463,1366,625,1366,768,8-29-2022,14-40-6,141,depth_duration_stimuli/001516_2014-06-20_16-25-09_260595134347_rgbf000076-resize_2/001516_2014-06-20_16-25-09_260595134347_rgbf000076-resize_2-target.png,125,1.7445,8,7080,18,meters,jsons/VE125_randls_16.json,564467,983791,47,Woman
141,634447,DepthScenes,duration_manipulation_targetAtFixation,jsons/VE125_randls_16.json,http://54.235.29.9/FacialAge/BNav_EC2/DepthDuration/v2_depth_duration_MTurk/v2_DepthDuration_HTML.html#463,463,1366,625,1366,768,8-29-2022,14-40-6,142,depth_duration_stimuli/002600_2014-06-24_14-27-04_094959634447_rgbf000074-resize_2/002600_2014-06-24_14-27-04_094959634447_rgbf000074-resize_2-target.png,125,2.7575,9,6736,114,meters,jsons/VE125_randls_16.json,564467,983791,47,Woman
142,634447,DepthScenes,duration_manipulation_targetAtFixation,jsons/VE125_randls_16.json,http://54.235.29.9/FacialAge/BNav_EC2/DepthDuration/v2_depth_duration_MTurk/v2_DepthDuration_HTML.html#463,463,1366,625,1366,768,8-29-2022,14-40-6,143,depth_duration_stimuli/003228_2014-05-14_13-42-35_094959634447_rgbf000101-resize_1/003228_2014-05-14_13-42-35_094959634447_rgbf000101-resize_1-target.png,125,1.9680000000000002,8,1905,116,meters,jsons/VE125_randls_16.json,564467,983791,47,Woman
143,634447,DepthScenes,duration_manipulation_targetAtFixation,jsons/VE125_randls_16.json,http://54.235.29.9/FacialAge/BNav_EC2/DepthDuration/v2_depth_duration_MTurk/v2_DepthDuration_HTML.html#463,463,1366,625,1366,768,8-29-2022,14-40-6,144,depth_duration_stimuli/000788_2014-06-08_22-34-36_260595134347_rgbf000131-resize_1/000788_2014-06-08_22-34-36_260595134347_rgbf000131-resize_1-target.png,125,3.359,7,3059,121,meters,jsons/VE125_randls_16.json,564467,983791,47,Woman
144,634447,DepthScenes,duration_manipulation_targetAtFixation,jsons/VE125_randls_16.json,http://54.235.29.9/FacialAge/BNav_EC2/DepthDuration/v2_depth_duration_MTurk/v2_DepthDuration_HTML.html#463,463,1366,625,1366,768,8-29-2022,14-40-6,145,depth_duration_stimuli/001235_2014-06-17_16-37-36_260595134347_rgbf000084-resize_4/001235_2014-06-17_16-37-36_260595134347_rgbf000084-resize_4-target.png,125,3.6605,7,3888,119,meters,jsons/VE125_randls_16.json,564467,983791,47,Woman
145,634447,DepthScenes,duration_manipulation_targetAtFixation,jsons/VE125_randls_16.json,http://54.235.29.9/FacialAge/BNav_EC2/DepthDuration/v2_depth_duration_MTurk/v2_DepthDuration_HTML.html#463,463,1366,625,1366,768,8-29-2022,14-40-6,146,depth_duration_stimuli/001498_2014-06-19_17-45-14_260595134347_rgbf000129-resize_4/001498_2014-06-19_17-45-14_260595134347_rgbf000129-resize-original.jpg,125,1.4075,8,3987,115,meters,jsons/VE125_randls_16.json,564467,983791,47,Woman
146,634447,DepthScenes,duration_manipulation_targetAtFixation,jsons/VE125_randls_16.json,http://54.235.29.9/FacialAge/BNav_EC2/DepthDuration/v2_depth_duration_MTurk/v2_DepthDuration_HTML.html#463,463,1366,625,1366,768,8-29-2022,14-40-6,147,depth_duration_stimuli/001417_2014-06-19_16-25-36_260595134347_rgbf000115-resize_5/001417_2014-06-19_16-25-36_260595134347_rgbf000115-resize_5-target.png,125,4.6255,7,2422,123,meters,jsons/VE125_randls_16.json,564467,983791,47,Woman
147,634447,DepthScenes,duration_manipulation_targetAtFixation,jsons/VE125_randls_16.json,http://54.235.29.9/FacialAge/BNav_EC2/DepthDuration/v2_depth_duration_MTurk/v2_DepthDuration_HTML.html#463,463,1366,625,1366,768,8-29-2022,14-40-6,148,depth_duration_stimuli/003081_2014-06-15_15-19-16_094959634447_rgbf000150-resize_1/003081_2014-06-15_15-19-16_094959634447_rgbf000150-resize_1-target.png,125,3.9125,7,2371,132,meters,jsons/VE125_randls_16.json,564467,983791,47,Woman
148,634447,DepthScenes,duration_manipulation_targetAtFixation,jsons/VE125_randls_16.json,http://54.235.29.9/FacialAge/BNav_EC2/DepthDuration/v2_depth_duration_MTurk/v2_DepthDuration_HTML.html#463,463,1366,625,1366,768,8-29-2022,14-40-6,149,depth_duration_stimuli/002905_2014-06-03_18-04-43_094959634447_rgbf000151-resize_2/002905_2014-06-03_18-04-43_094959634447_rgbf000151-resize_2-target.png,125,2.0295,7,2363,126,meters,jsons/VE125_randls_16.json,564467,983791,47,Woman
149,634447,DepthScenes,duration_manipulation_targetAtFixation,jsons/VE125_randls_16.json,http://54.235.29.9/FacialAge/BNav_EC2/DepthDuration/v2_depth_duration_MTurk/v2_DepthDuration_HTML.html#463,463,1366,625,1366,768,8-29-2022,14-40-6,150,depth_duration_stimuli/003423_2014-05-21_10-23-26_094959634447_rgbf002665-resize_2/003423_2014-05-21_10-23-26_094959634447_rgbf002665-resize_2-target.png,125,3.2575,6,2406,124,meters,jsons/VE125_randls_16.json,564467,983791,47,Woman
150,634447,DepthScenes,duration_manipulation_targetAtFixation,jsons/VE125_randls_16.json,http://54.235.29.9/FacialAge/BNav_EC2/DepthDuration/v2_depth_duration_MTurk/v2_DepthDuration_HTML.html#463,463,1366,625,1366,768,8-29-2022,14-40-6,151,depth_duration_stimuli/000692_2014-06-08_13-09-42_260595134347_rgbf000199-resize_2/000692_2014-06-08_13-09-42_260595134347_rgbf000199-resize_2-target.png,125,3.661,7,1944,130,meters,jsons/VE125_randls_16.json,564467,983791,47,Woman
151,634447,DepthScenes,duration_manipulation_targetAtFixation,jsons/VE125_randls_16.json,http://54.235.29.9/FacialAge/BNav_EC2/DepthDuration/v2_depth_duration_MTurk/v2_DepthDuration_HTML.html#463,463,1366,625,1366,768,8-29-2022,14-40-6,152,depth_duration_stimuli/001094_2014-06-15_17-36-00_260595134347_rgbf000205-resize_0/001094_2014-06-15_17-36-00_260595134347_rgbf000205-resize_0-target.png,125,4.2175,8,1964,190,meters,jsons/VE125_randls_16.json,564467,983791,47,Woman
152,634447,DepthScenes,duration_manipulation_targetAtFixation,jsons/VE125_randls_16.json,http://54.235.29.9/FacialAge/BNav_EC2/DepthDuration/v2_depth_duration_MTurk/v2_DepthDuration_HTML.html#463,463,1366,625,1366,768,8-29-2022,14-40-6,153,depth_duration_stimuli/002445_2014-06-28_20-32-16_260595134347_rgbf000029-resize_4/002445_2014-06-28_20-32-16_260595134347_rgbf000029-resize_4-target.png,125,2.5315,7,2010,140,meters,jsons/VE125_randls_16.json,564467,983791,47,Woman
153,634447,DepthScenes,duration_manipulation_targetAtFixation,jsons/VE125_randls_16.json,http://54.235.29.9/FacialAge/BNav_EC2/DepthDuration/v2_depth_duration_MTurk/v2_DepthDuration_HTML.html#463,463,1366,625,1366,768,8-29-2022,14-40-6,154,depth_duration_stimuli/000780_2014-06-08_22-28-29_260595134347_rgbf000126-resize_1/000780_2014-06-08_22-28-29_260595134347_rgbf000126-resize_1-target.png,125,3.3825,6,1892,126,meters,jsons/VE125_randls_16.json,564467,983791,47,Woman
154,634447,DepthScenes,duration_manipulation_targetAtFixation,jsons/VE125_randls_16.json,http://54.235.29.9/FacialAge/BNav_EC2/DepthDuration/v2_depth_duration_MTurk/v2_DepthDuration_HTML.html#463,463,1366,625,1366,768,8-29-2022,14-40-6,155,depth_duration_stimuli/000773_2014-06-08_22-24-54_260595134347_rgbf000093-resize_1/000773_2014-06-08_22-24-54_260595134347_rgbf000093-resize_1-target.png,125,4.973,7,2349,124,meters,jsons/VE125_randls_16.json,564467,983791,47,Woman
155,634447,DepthScenes,duration_manipulation_targetAtFixation,jsons/VE125_randls_16.json,http://54.235.29.9/FacialAge/BNav_EC2/DepthDuration/v2_depth_duration_MTurk/v2_DepthDuration_HTML.html#463,463,1366,625,1366,768,8-29-2022,14-40-6,156,depth_duration_stimuli/002414_2014-06-28_20-24-58_260595134347_rgbf000067-resize_4/002414_2014-06-28_20-24-58_260595134347_rgbf000067-resize_4-target.png,125,4.363,8,2068,128,meters,jsons/VE125_randls_16.json,564467,983791,47,Woman
156,634447,DepthScenes,duration_manipulation_targetAtFixation,jsons/VE125_randls_16.json,http://54.235.29.9/FacialAge/BNav_EC2/DepthDuration/v2_depth_duration_MTurk/v2_DepthDuration_HTML.html#463,463,1366,625,1366,768,8-29-2022,14-40-6,157,depth_duration_stimuli/000486_2014-06-09_20-47-20_260595134347_rgbf000143-resize_2/000486_2014-06-09_20-47-20_260595134347_rgbf000143-resize_2-target.png,125,4.8325,9,7274,122,meters,jsons/VE125_randls_16.json,564467,983791,47,Woman
157,634447,DepthScenes,duration_manipulation_targetAtFixation,jsons/VE125_randls_16.json,http://54.235.29.9/FacialAge/BNav_EC2/DepthDuration/v2_depth_duration_MTurk/v2_DepthDuration_HTML.html#463,463,1366,625,1366,768,8-29-2022,14-40-6,158,depth_duration_stimuli/003083_2014-06-15_15-21-03_094959634447_rgbf000063-resize_1/003083_2014-06-15_15-21-03_094959634447_rgbf000063-resize_1-target.png,125,4.1405,5,8170,125,meters,jsons/VE125_randls_16.json,564467,983791,47,Woman
158,634447,DepthScenes,duration_manipulation_targetAtFixation,jsons/VE125_randls_16.json,http://54.235.29.9/FacialAge/BNav_EC2/DepthDuration/v2_depth_duration_MTurk/v2_DepthDuration_HTML.html#463,463,1366,625,1366,768,8-29-2022,14-40-6,159,depth_duration_stimuli/002549_2014-06-24_13-41-39_094959634447_rgbf000022-resize_3/002549_2014-06-24_13-41-39_094959634447_rgbf000022-resize_3-target.png,125,1.476,5,5428,131,meters,jsons/VE125_randls_16.json,564467,983791,47,Woman
159,634447,DepthScenes,duration_manipulation_targetAtFixation,jsons/VE125_randls_16.json,http://54.235.29.9/FacialAge/BNav_EC2/DepthDuration/v2_depth_duration_MTurk/v2_DepthDuration_HTML.html#463,463,1366,625,1366,768,8-29-2022,14-40-6,160,depth_duration_stimuli/002750_2014-06-22_19-08-03_094959634447_rgbf000094-resize_4/002750_2014-06-22_19-08-03_094959634447_rgbf000094-resize_4-target.png,125,2.354,6,11564,116,meters,jsons/VE125_randls_16.json,564467,983791,47,Woman
160,634447,DepthScenes,duration_manipulation_targetAtFixation,jsons/VE125_randls_16.json,http://54.235.29.9/FacialAge/BNav_EC2/DepthDuration/v2_depth_duration_MTurk/v2_DepthDuration_HTML.html#463,463,1366,625,1366,768,8-29-2022,14-40-6,161,depth_duration_stimuli/003621_2014-05-23_18-06-08_094959634447_rgbf000101-resize_1/003621_2014-05-23_18-06-08_094959634447_rgbf000101-resize_1-target.png,125,3.9835,6,2142,132,meters,jsons/VE125_randls_16.json,564467,983791,47,Woman
161,634447,DepthScenes,duration_manipulation_targetAtFixation,jsons/VE125_randls_16.json,http://54.235.29.9/FacialAge/BNav_EC2/DepthDuration/v2_depth_duration_MTurk/v2_DepthDuration_HTML.html#463,463,1366,625,1366,768,8-29-2022,14-40-6,162,depth_duration_stimuli/001584_2014-06-20_11-07-43_260595134347_rgbf000002-resize_1/001584_2014-06-20_11-07-43_260595134347_rgbf000002-resize_1-target.png,125,3.53,7,6093,126,meters,jsons/VE125_randls_16.json,564467,983791,47,Woman
162,634447,DepthScenes,duration_manipulation_targetAtFixation,jsons/VE125_randls_16.json,http://54.235.29.9/FacialAge/BNav_EC2/DepthDuration/v2_depth_duration_MTurk/v2_DepthDuration_HTML.html#463,463,1366,625,1366,768,8-29-2022,14-40-6,163,depth_duration_stimuli/002725_2014-06-22_11-47-51_094959634447_rgbf000070-resize_1/002725_2014-06-22_11-47-51_094959634447_rgbf000070-resize_1-target.png,125,2.195,8,4260,124,meters,jsons/VE125_randls_16.json,564467,983791,47,Woman
163,634447,DepthScenes,duration_manipulation_targetAtFixation,jsons/VE125_randls_16.json,http://54.235.29.9/FacialAge/BNav_EC2/DepthDuration/v2_depth_duration_MTurk/v2_DepthDuration_HTML.html#463,463,1366,625,1366,768,8-29-2022,14-40-6,164,depth_duration_stimuli/002344_2014-06-28_20-06-29_260595134347_rgbf000030-resize_1/002344_2014-06-28_20-06-29_260595134347_rgbf000030-resize_1-target.png,125,1.5795,6,6248,119,meters,jsons/VE125_randls_16.json,564467,983791,47,Woman
