,subjID,experimentName,versionName,sequenceName,url,selected_row,windowWidth,windowHeight,screenWidth,screenHeight,startDate,startTime,trial,stimulus,duration,actual_depth,depth_estimate,trial_RT,log_sceneDuration,unitSelection,seq_filepath,experimentTime,totalTime,age,gender
0,636755,DepthScenes,duration_manipulation_targetAtFixation,jsons/v1_VE250_randls_71_rotated.json,http://54.235.29.9/FacialAge/BNav_EC2/DepthDuration/v2_depth_duration_MTurk/v2_DepthDuration_HTML.html#11,11,1366,768,1366,768,8-20-2022,11-30-22,1,depth_duration_stimuli/003228_2014-05-14_13-42-35_094959634447_rgbf000101-resize_1/003228_2014-05-14_13-42-35_094959634447_rgbf000101-resize_1-target.png,250,1.9680000000000002,1,3333,249,feet,jsons/v1_VE250_randls_71_rotated.json,665526,842663,62,Woman
1,636755,DepthScenes,duration_manipulation_targetAtFixation,jsons/v1_VE250_randls_71_rotated.json,http://54.235.29.9/FacialAge/BNav_EC2/DepthDuration/v2_depth_duration_MTurk/v2_DepthDuration_HTML.html#11,11,1366,768,1366,768,8-20-2022,11-30-22,2,depth_duration_stimuli/002600_2014-06-24_14-27-04_094959634447_rgbf000074-resize_2/002600_2014-06-24_14-27-04_094959634447_rgbf000074-resize_2-target.png,250,2.7575,1,3405,249,feet,jsons/v1_VE250_randls_71_rotated.json,665526,842663,62,Woman
2,636755,DepthScenes,duration_manipulation_targetAtFixation,jsons/v1_VE250_randls_71_rotated.json,http://54.235.29.9/FacialAge/BNav_EC2/DepthDuration/v2_depth_duration_MTurk/v2_DepthDuration_HTML.html#11,11,1366,768,1366,768,8-20-2022,11-30-22,3,depth_duration_stimuli/002805_2014-06-22_19-54-03_094959634447_rgbf000079-resize_1/002805_2014-06-22_19-54-03_094959634447_rgbf000079-resize_1-target.png,250,3.1439999999999997,1,2299,250,feet,jsons/v1_VE250_randls_71_rotated.json,665526,842663,62,Woman
3,636755,DepthScenes,duration_manipulation_targetAtFixation,jsons/v1_VE250_randls_71_rotated.json,http://54.235.29.9/FacialAge/BNav_EC2/DepthDuration/v2_depth_duration_MTurk/v2_DepthDuration_HTML.html#11,11,1366,768,1366,768,8-20-2022,11-30-22,4,depth_duration_stimuli/000906_2014-06-08_13-35-43_260595134347_rgbf000155-resize_1/000906_2014-06-08_13-35-43_260595134347_rgbf000155-resize_1-target.png,250,2.8489999999999998,1,2874,242,feet,jsons/v1_VE250_randls_71_rotated.json,665526,842663,62,Woman
4,636755,DepthScenes,duration_manipulation_targetAtFixation,jsons/v1_VE250_randls_71_rotated.json,http://54.235.29.9/FacialAge/BNav_EC2/DepthDuration/v2_depth_duration_MTurk/v2_DepthDuration_HTML.html#11,11,1366,768,1366,768,8-20-2022,11-30-22,5,depth_duration_stimuli/001052_2014-06-08_18-24-54_260595134347_rgbf000130-resize_1/001052_2014-06-08_18-24-54_260595134347_rgbf000130-resize_1-target.png,250,4.1045,0,2682,251,feet,jsons/v1_VE250_randls_71_rotated.json,665526,842663,62,Woman
5,636755,DepthScenes,duration_manipulation_targetAtFixation,jsons/v1_VE250_randls_71_rotated.json,http://54.235.29.9/FacialAge/BNav_EC2/DepthDuration/v2_depth_duration_MTurk/v2_DepthDuration_HTML.html#11,11,1366,768,1366,768,8-20-2022,11-30-22,6,depth_duration_stimuli/002988_2014-06-15_12-24-20_094959634447_rgbf000150-resize_1/002988_2014-06-15_12-24-20_094959634447_rgbf000150-resize_1-target.png,250,4.7669999999999995,2,4873,260,feet,jsons/v1_VE250_randls_71_rotated.json,665526,842663,62,Woman
6,636755,DepthScenes,duration_manipulation_targetAtFixation,jsons/v1_VE250_randls_71_rotated.json,http://54.235.29.9/FacialAge/BNav_EC2/DepthDuration/v2_depth_duration_MTurk/v2_DepthDuration_HTML.html#11,11,1366,768,1366,768,8-20-2022,11-30-22,7,depth_duration_stimuli/000677_2014-06-08_23-10-32_260595134347_rgbf000158-resize_6/000677_2014-06-08_23-10-32_260595134347_rgbf000158-resize_6-target.png,250,3.556,1,2963,249,feet,jsons/v1_VE250_randls_71_rotated.json,665526,842663,62,Woman
7,636755,DepthScenes,duration_manipulation_targetAtFixation,jsons/v1_VE250_randls_71_rotated.json,http://54.235.29.9/FacialAge/BNav_EC2/DepthDuration/v2_depth_duration_MTurk/v2_DepthDuration_HTML.html#11,11,1366,768,1366,768,8-20-2022,11-30-22,8,depth_duration_stimuli/001029_2014-06-08_13-17-57_260595134347_rgbf000065-resize_1/001029_2014-06-08_13-17-57_260595134347_rgbf000065-resize_1-target.png,250,3.0835,1,2198,250,feet,jsons/v1_VE250_randls_71_rotated.json,665526,842663,62,Woman
8,636755,DepthScenes,duration_manipulation_targetAtFixation,jsons/v1_VE250_randls_71_rotated.json,http://54.235.29.9/FacialAge/BNav_EC2/DepthDuration/v2_depth_duration_MTurk/v2_DepthDuration_HTML.html#11,11,1366,768,1366,768,8-20-2022,11-30-22,9,depth_duration_stimuli/000780_2014-06-08_22-28-29_260595134347_rgbf000126-resize_1/000780_2014-06-08_22-28-29_260595134347_rgbf000126-resize_1-target.png,250,3.3825,2,2730,250,feet,jsons/v1_VE250_randls_71_rotated.json,665526,842663,62,Woman
9,636755,DepthScenes,duration_manipulation_targetAtFixation,jsons/v1_VE250_randls_71_rotated.json,http://54.235.29.9/FacialAge/BNav_EC2/DepthDuration/v2_depth_duration_MTurk/v2_DepthDuration_HTML.html#11,11,1366,768,1366,768,8-20-2022,11-30-22,10,depth_duration_stimuli/002445_2014-06-28_20-32-16_260595134347_rgbf000029-resize_4/002445_2014-06-28_20-32-16_260595134347_rgbf000029-resize_4-target.png,250,2.5315,1,2328,250,feet,jsons/v1_VE250_randls_71_rotated.json,665526,842663,62,Woman
10,636755,DepthScenes,duration_manipulation_targetAtFixation,jsons/v1_VE250_randls_71_rotated.json,http://54.235.29.9/FacialAge/BNav_EC2/DepthDuration/v2_depth_duration_MTurk/v2_DepthDuration_HTML.html#11,11,1366,768,1366,768,8-20-2022,11-30-22,11,depth_duration_stimuli/003048_2014-06-15_13-49-43_094959634447_rgbf000150-resize_1/003048_2014-06-15_13-49-43_094959634447_rgbf000150-resize_1-target.png,250,4.0035,1,2679,249,feet,jsons/v1_VE250_randls_71_rotated.json,665526,842663,62,Woman
11,636755,DepthScenes,duration_manipulation_targetAtFixation,jsons/v1_VE250_randls_71_rotated.json,http://54.235.29.9/FacialAge/BNav_EC2/DepthDuration/v2_depth_duration_MTurk/v2_DepthDuration_HTML.html#11,11,1366,768,1366,768,8-20-2022,11-30-22,12,depth_duration_stimuli/002043_2014-06-24_20-29-38_260595134347_rgbf000039-resize_4/002043_2014-06-24_20-29-38_260595134347_rgbf000039-resize_4-target.png,250,2.8435,2,2234,250,feet,jsons/v1_VE250_randls_71_rotated.json,665526,842663,62,Woman
12,636755,DepthScenes,duration_manipulation_targetAtFixation,jsons/v1_VE250_randls_71_rotated.json,http://54.235.29.9/FacialAge/BNav_EC2/DepthDuration/v2_depth_duration_MTurk/v2_DepthDuration_HTML.html#11,11,1366,768,1366,768,8-20-2022,11-30-22,13,depth_duration_stimuli/002344_2014-06-28_20-06-29_260595134347_rgbf000030-resize_1/002344_2014-06-28_20-06-29_260595134347_rgbf000030-resize_1-target.png,250,1.5795,2,2198,250,feet,jsons/v1_VE250_randls_71_rotated.json,665526,842663,62,Woman
13,636755,DepthScenes,duration_manipulation_targetAtFixation,jsons/v1_VE250_randls_71_rotated.json,http://54.235.29.9/FacialAge/BNav_EC2/DepthDuration/v2_depth_duration_MTurk/v2_DepthDuration_HTML.html#11,11,1366,768,1366,768,8-20-2022,11-30-22,14,depth_duration_stimuli/002725_2014-06-22_11-47-51_094959634447_rgbf000070-resize_1/002725_2014-06-22_11-47-51_094959634447_rgbf000070-resize_1-target.png,250,2.195,1,3810,249,feet,jsons/v1_VE250_randls_71_rotated.json,665526,842663,62,Woman
14,636755,DepthScenes,duration_manipulation_targetAtFixation,jsons/v1_VE250_randls_71_rotated.json,http://54.235.29.9/FacialAge/BNav_EC2/DepthDuration/v2_depth_duration_MTurk/v2_DepthDuration_HTML.html#11,11,1366,768,1366,768,8-20-2022,11-30-22,15,depth_duration_stimuli/000709_2014-06-08_13-51-55_260595134347_rgbf000068-resize_3/000709_2014-06-08_13-51-55_260595134347_rgbf000068-resize_3-target.png,250,1.8030000000000002,1,2129,247,feet,jsons/v1_VE250_randls_71_rotated.json,665526,842663,62,Woman
15,636755,DepthScenes,duration_manipulation_targetAtFixation,jsons/v1_VE250_randls_71_rotated.json,http://54.235.29.9/FacialAge/BNav_EC2/DepthDuration/v2_depth_duration_MTurk/v2_DepthDuration_HTML.html#11,11,1366,768,1366,768,8-20-2022,11-30-22,16,depth_duration_stimuli/002057_2014-06-24_21-00-13_260595134347_rgbf000120-resize_1/002057_2014-06-24_21-00-13_260595134347_rgbf000120-resize_1-target.png,250,2.967,1,2609,249,feet,jsons/v1_VE250_randls_71_rotated.json,665526,842663,62,Woman
16,636755,DepthScenes,duration_manipulation_targetAtFixation,jsons/v1_VE250_randls_71_rotated.json,http://54.235.29.9/FacialAge/BNav_EC2/DepthDuration/v2_depth_duration_MTurk/v2_DepthDuration_HTML.html#11,11,1366,768,1366,768,8-20-2022,11-30-22,17,depth_duration_stimuli/001815_2014-06-26_20-52-55_260595134347_rgbf000020-resize_0/001815_2014-06-26_20-52-55_260595134347_rgbf000020-resize_0-target.png,250,3.3865,1,2799,249,feet,jsons/v1_VE250_randls_71_rotated.json,665526,842663,62,Woman
17,636755,DepthScenes,duration_manipulation_targetAtFixation,jsons/v1_VE250_randls_71_rotated.json,http://54.235.29.9/FacialAge/BNav_EC2/DepthDuration/v2_depth_duration_MTurk/v2_DepthDuration_HTML.html#11,11,1366,768,1366,768,8-20-2022,11-30-22,18,depth_duration_stimuli/001808_2014-06-26_20-50-58_260595134347_rgbf000029-resize_1/001808_2014-06-26_20-50-58_260595134347_rgbf000029-resize_1-target.png,250,4.249,1,2178,249,feet,jsons/v1_VE250_randls_71_rotated.json,665526,842663,62,Woman
18,636755,DepthScenes,duration_manipulation_targetAtFixation,jsons/v1_VE250_randls_71_rotated.json,http://54.235.29.9/FacialAge/BNav_EC2/DepthDuration/v2_depth_duration_MTurk/v2_DepthDuration_HTML.html#11,11,1366,768,1366,768,8-20-2022,11-30-22,19,depth_duration_stimuli/001498_2014-06-19_17-45-14_260595134347_rgbf000129-resize_4/001498_2014-06-19_17-45-14_260595134347_rgbf000129-resize-original.jpg,250,1.4075,0,3426,249,feet,jsons/v1_VE250_randls_71_rotated.json,665526,842663,62,Woman
19,636755,DepthScenes,duration_manipulation_targetAtFixation,jsons/v1_VE250_randls_71_rotated.json,http://54.235.29.9/FacialAge/BNav_EC2/DepthDuration/v2_depth_duration_MTurk/v2_DepthDuration_HTML.html#11,11,1366,768,1366,768,8-20-2022,11-30-22,20,depth_duration_stimuli/003423_2014-05-21_10-23-26_094959634447_rgbf002665-resize_2/003423_2014-05-21_10-23-26_094959634447_rgbf002665-resize_2-target.png,250,3.2575,0,2480,249,feet,jsons/v1_VE250_randls_71_rotated.json,665526,842663,62,Woman
20,636755,DepthScenes,duration_manipulation_targetAtFixation,jsons/v1_VE250_randls_71_rotated.json,http://54.235.29.9/FacialAge/BNav_EC2/DepthDuration/v2_depth_duration_MTurk/v2_DepthDuration_HTML.html#11,11,1366,768,1366,768,8-20-2022,11-30-22,21,depth_duration_stimuli/002905_2014-06-03_18-04-43_094959634447_rgbf000151-resize_2/002905_2014-06-03_18-04-43_094959634447_rgbf000151-resize_2-target.png,250,2.0295,0,2665,249,feet,jsons/v1_VE250_randls_71_rotated.json,665526,842663,62,Woman
21,636755,DepthScenes,duration_manipulation_targetAtFixation,jsons/v1_VE250_randls_71_rotated.json,http://54.235.29.9/FacialAge/BNav_EC2/DepthDuration/v2_depth_duration_MTurk/v2_DepthDuration_HTML.html#11,11,1366,768,1366,768,8-20-2022,11-30-22,22,depth_duration_stimuli/001094_2014-06-15_17-36-00_260595134347_rgbf000205-resize_0/001094_2014-06-15_17-36-00_260595134347_rgbf000205-resize_0-target.png,250,4.2175,1,2497,255,feet,jsons/v1_VE250_randls_71_rotated.json,665526,842663,62,Woman
22,636755,DepthScenes,duration_manipulation_targetAtFixation,jsons/v1_VE250_randls_71_rotated.json,http://54.235.29.9/FacialAge/BNav_EC2/DepthDuration/v2_depth_duration_MTurk/v2_DepthDuration_HTML.html#11,11,1366,768,1366,768,8-20-2022,11-30-22,23,depth_duration_stimuli/000692_2014-06-08_13-09-42_260595134347_rgbf000199-resize_2/000692_2014-06-08_13-09-42_260595134347_rgbf000199-resize_2-target.png,250,3.661,1,2580,249,feet,jsons/v1_VE250_randls_71_rotated.json,665526,842663,62,Woman
23,636755,DepthScenes,duration_manipulation_targetAtFixation,jsons/v1_VE250_randls_71_rotated.json,http://54.235.29.9/FacialAge/BNav_EC2/DepthDuration/v2_depth_duration_MTurk/v2_DepthDuration_HTML.html#11,11,1366,768,1366,768,8-20-2022,11-30-22,24,depth_duration_stimuli/000409_2014-06-04_19-23-33_260595134347_rgbf000067-resize_0/000409_2014-06-04_19-23-33_260595134347_rgbf000067-resize_0-target.png,250,3.7335,1,3792,249,feet,jsons/v1_VE250_randls_71_rotated.json,665526,842663,62,Woman
24,636755,DepthScenes,duration_manipulation_targetAtFixation,jsons/v1_VE250_randls_71_rotated.json,http://54.235.29.9/FacialAge/BNav_EC2/DepthDuration/v2_depth_duration_MTurk/v2_DepthDuration_HTML.html#11,11,1366,768,1366,768,8-20-2022,11-30-22,25,depth_duration_stimuli/002663_2014-06-13_15-50-26_094959634447_rgbf000075-resize_1/002663_2014-06-13_15-50-26_094959634447_rgbf000075-resize_1-target.png,250,4.7495,1,2354,250,feet,jsons/v1_VE250_randls_71_rotated.json,665526,842663,62,Woman
25,636755,DepthScenes,duration_manipulation_targetAtFixation,jsons/v1_VE250_randls_71_rotated.json,http://54.235.29.9/FacialAge/BNav_EC2/DepthDuration/v2_depth_duration_MTurk/v2_DepthDuration_HTML.html#11,11,1366,768,1366,768,8-20-2022,11-30-22,26,depth_duration_stimuli/000749_2014-06-08_21-55-06_260595134347_rgbf000070-resize_2/000749_2014-06-08_21-55-06_260595134347_rgbf000070-resize_2-target.png,250,2.331,1,1955,250,feet,jsons/v1_VE250_randls_71_rotated.json,665526,842663,62,Woman
26,636755,DepthScenes,duration_manipulation_targetAtFixation,jsons/v1_VE250_randls_71_rotated.json,http://54.235.29.9/FacialAge/BNav_EC2/DepthDuration/v2_depth_duration_MTurk/v2_DepthDuration_HTML.html#11,11,1366,768,1366,768,8-20-2022,11-30-22,27,depth_duration_stimuli/002788_2014-06-22_19-36-03_094959634447_rgbf000088-resize_2/002788_2014-06-22_19-36-03_094959634447_rgbf000088-resize_2-target.png,250,1.6465,1,2012,248,feet,jsons/v1_VE250_randls_71_rotated.json,665526,842663,62,Woman
27,636755,DepthScenes,duration_manipulation_targetAtFixation,jsons/v1_VE250_randls_71_rotated.json,http://54.235.29.9/FacialAge/BNav_EC2/DepthDuration/v2_depth_duration_MTurk/v2_DepthDuration_HTML.html#11,11,1366,768,1366,768,8-20-2022,11-30-22,28,depth_duration_stimuli/001617_2014-06-20_11-35-32_260595134347_rgbf000066-resize_1/001617_2014-06-20_11-35-32_260595134347_rgbf000066-resize_1-target.png,250,3.7910000000000004,1,2387,247,feet,jsons/v1_VE250_randls_71_rotated.json,665526,842663,62,Woman
28,636755,DepthScenes,duration_manipulation_targetAtFixation,jsons/v1_VE250_randls_71_rotated.json,http://54.235.29.9/FacialAge/BNav_EC2/DepthDuration/v2_depth_duration_MTurk/v2_DepthDuration_HTML.html#11,11,1366,768,1366,768,8-20-2022,11-30-22,29,depth_duration_stimuli/001806_2014-06-26_20-50-20_260595134347_rgbf000091-resize_1/001806_2014-06-26_20-50-20_260595134347_rgbf000091-resize_1-target.png,250,2.7305,1,11221,250,feet,jsons/v1_VE250_randls_71_rotated.json,665526,842663,62,Woman
29,636755,DepthScenes,duration_manipulation_targetAtFixation,jsons/v1_VE250_randls_71_rotated.json,http://54.235.29.9/FacialAge/BNav_EC2/DepthDuration/v2_depth_duration_MTurk/v2_DepthDuration_HTML.html#11,11,1366,768,1366,768,8-20-2022,11-30-22,30,depth_duration_stimuli/002072_2014-06-24_21-48-06_260595134347_rgbf000115-resize_0/002072_2014-06-24_21-48-06_260595134347_rgbf000115-resize-original.jpg,250,4.702,1,2462,247,feet,jsons/v1_VE250_randls_71_rotated.json,665526,842663,62,Woman
30,636755,DepthScenes,duration_manipulation_targetAtFixation,jsons/v1_VE250_randls_71_rotated.json,http://54.235.29.9/FacialAge/BNav_EC2/DepthDuration/v2_depth_duration_MTurk/v2_DepthDuration_HTML.html#11,11,1366,768,1366,768,8-20-2022,11-30-22,31,depth_duration_stimuli/001214_2014-06-17_16-13-55_260595134347_rgbf000111-resize_0/001214_2014-06-17_16-13-55_260595134347_rgbf000111-resize_0-target.png,250,2.6505,1,2259,244,feet,jsons/v1_VE250_randls_71_rotated.json,665526,842663,62,Woman
31,636755,DepthScenes,duration_manipulation_targetAtFixation,jsons/v1_VE250_randls_71_rotated.json,http://54.235.29.9/FacialAge/BNav_EC2/DepthDuration/v2_depth_duration_MTurk/v2_DepthDuration_HTML.html#11,11,1366,768,1366,768,8-20-2022,11-30-22,32,depth_duration_stimuli/000810_2014-06-08_17-20-01_260595134347_rgbf000105-resize_0/000810_2014-06-08_17-20-01_260595134347_rgbf000105-resize_0-target.png,250,1.4865,1,3893,260,feet,jsons/v1_VE250_randls_71_rotated.json,665526,842663,62,Woman
32,636755,DepthScenes,duration_manipulation_targetAtFixation,jsons/v1_VE250_randls_71_rotated.json,http://54.235.29.9/FacialAge/BNav_EC2/DepthDuration/v2_depth_duration_MTurk/v2_DepthDuration_HTML.html#11,11,1366,768,1366,768,8-20-2022,11-30-22,33,depth_duration_stimuli/003587_2014-05-23_16-48-02_094959634447_rgbf002384-resize_2/003587_2014-05-23_16-48-02_094959634447_rgbf002384-resize_2-target.png,250,1.357,1,3477,250,feet,jsons/v1_VE250_randls_71_rotated.json,665526,842663,62,Woman
33,636755,DepthScenes,duration_manipulation_targetAtFixation,jsons/v1_VE250_randls_71_rotated.json,http://54.235.29.9/FacialAge/BNav_EC2/DepthDuration/v2_depth_duration_MTurk/v2_DepthDuration_HTML.html#11,11,1366,768,1366,768,8-20-2022,11-30-22,34,depth_duration_stimuli/001167_2014-06-17_15-38-07_260595134347_rgbf000108-resize_0/001167_2014-06-17_15-38-07_260595134347_rgbf000108-resize_0-target.png,250,1.8505,1,3266,255,feet,jsons/v1_VE250_randls_71_rotated.json,665526,842663,62,Woman
34,636755,DepthScenes,duration_manipulation_targetAtFixation,jsons/v1_VE250_randls_71_rotated.json,http://54.235.29.9/FacialAge/BNav_EC2/DepthDuration/v2_depth_duration_MTurk/v2_DepthDuration_HTML.html#11,11,1366,768,1366,768,8-20-2022,11-30-22,35,depth_duration_stimuli/001650_2014-06-20_12-09-00_260595134347_rgbf000087-resize_3/001650_2014-06-20_12-09-00_260595134347_rgbf000087-resize_3-target.png,250,1.9505,1,69027,254,feet,jsons/v1_VE250_randls_71_rotated.json,665526,842663,62,Woman
35,636755,DepthScenes,duration_manipulation_targetAtFixation,jsons/v1_VE250_randls_71_rotated.json,http://54.235.29.9/FacialAge/BNav_EC2/DepthDuration/v2_depth_duration_MTurk/v2_DepthDuration_HTML.html#11,11,1366,768,1366,768,8-20-2022,11-30-22,36,depth_duration_stimuli/000682_2014-06-08_23-14-58_260595134347_rgbf000041-resize_5/000682_2014-06-08_23-14-58_260595134347_rgbf000041-resize_5-target.png,250,2.7239999999999998,1,2315,250,feet,jsons/v1_VE250_randls_71_rotated.json,665526,842663,62,Woman
36,636755,DepthScenes,duration_manipulation_targetAtFixation,jsons/v1_VE250_randls_71_rotated.json,http://54.235.29.9/FacialAge/BNav_EC2/DepthDuration/v2_depth_duration_MTurk/v2_DepthDuration_HTML.html#11,11,1366,768,1366,768,8-20-2022,11-30-22,37,depth_duration_stimuli/000742_2014-06-08_18-48-09_260595134347_rgbf000164-resize_4/000742_2014-06-08_18-48-09_260595134347_rgbf000164-resize_4-target.png,250,4.632,1,2021,250,feet,jsons/v1_VE250_randls_71_rotated.json,665526,842663,62,Woman
37,636755,DepthScenes,duration_manipulation_targetAtFixation,jsons/v1_VE250_randls_71_rotated.json,http://54.235.29.9/FacialAge/BNav_EC2/DepthDuration/v2_depth_duration_MTurk/v2_DepthDuration_HTML.html#11,11,1366,768,1366,768,8-20-2022,11-30-22,38,depth_duration_stimuli/001066_2014-06-08_22-03-20_260595134347_rgbf000066-resize_4/001066_2014-06-08_22-03-20_260595134347_rgbf000066-resize_4-target.png,250,4.2330000000000005,1,2427,248,feet,jsons/v1_VE250_randls_71_rotated.json,665526,842663,62,Woman
38,636755,DepthScenes,duration_manipulation_targetAtFixation,jsons/v1_VE250_randls_71_rotated.json,http://54.235.29.9/FacialAge/BNav_EC2/DepthDuration/v2_depth_duration_MTurk/v2_DepthDuration_HTML.html#11,11,1366,768,1366,768,8-20-2022,11-30-22,39,depth_duration_stimuli/001392_2014-06-19_16-07-59_260595134347_rgbf000046-resize_1/001392_2014-06-19_16-07-59_260595134347_rgbf000046-resize_1-target.png,250,4.135,1,2155,249,feet,jsons/v1_VE250_randls_71_rotated.json,665526,842663,62,Woman
39,636755,DepthScenes,duration_manipulation_targetAtFixation,jsons/v1_VE250_randls_71_rotated.json,http://54.235.29.9/FacialAge/BNav_EC2/DepthDuration/v2_depth_duration_MTurk/v2_DepthDuration_HTML.html#11,11,1366,768,1366,768,8-20-2022,11-30-22,40,depth_duration_stimuli/001570_2014-06-20_17-21-09_260595134347_rgbf000135-resize_4/001570_2014-06-20_17-21-09_260595134347_rgbf000135-resize_4-target.png,250,4.467,1,2179,250,feet,jsons/v1_VE250_randls_71_rotated.json,665526,842663,62,Woman
40,636755,DepthScenes,duration_manipulation_targetAtFixation,jsons/v1_VE250_randls_71_rotated.json,http://54.235.29.9/FacialAge/BNav_EC2/DepthDuration/v2_depth_duration_MTurk/v2_DepthDuration_HTML.html#11,11,1366,768,1366,768,8-20-2022,11-30-22,41,depth_duration_stimuli/002678_2014-06-13_16-15-32_094959634447_rgbf000151-resize_6/002678_2014-06-13_16-15-32_094959634447_rgbf000151-resize_6-target.png,250,2.1830000000000003,1,2117,250,feet,jsons/v1_VE250_randls_71_rotated.json,665526,842663,62,Woman
41,636755,DepthScenes,duration_manipulation_targetAtFixation,jsons/v1_VE250_randls_71_rotated.json,http://54.235.29.9/FacialAge/BNav_EC2/DepthDuration/v2_depth_duration_MTurk/v2_DepthDuration_HTML.html#11,11,1366,768,1366,768,8-20-2022,11-30-22,42,depth_duration_stimuli/000368_2014-06-09_15-53-01_260595134347_rgbf000155-resize_2/000368_2014-06-09_15-53-01_260595134347_rgbf000155-resize_2-target.png,250,2.4859999999999998,1,2097,250,feet,jsons/v1_VE250_randls_71_rotated.json,665526,842663,62,Woman
42,636755,DepthScenes,duration_manipulation_targetAtFixation,jsons/v1_VE250_randls_71_rotated.json,http://54.235.29.9/FacialAge/BNav_EC2/DepthDuration/v2_depth_duration_MTurk/v2_DepthDuration_HTML.html#11,11,1366,768,1366,768,8-20-2022,11-30-22,43,depth_duration_stimuli/002953_2014-06-08_17-32-18_094959634447_rgbf000059-resize_5/002953_2014-06-08_17-32-18_094959634447_rgbf000059-resize_5-target.png,250,1.551,1,2084,249,feet,jsons/v1_VE250_randls_71_rotated.json,665526,842663,62,Woman
43,636755,DepthScenes,duration_manipulation_targetAtFixation,jsons/v1_VE250_randls_71_rotated.json,http://54.235.29.9/FacialAge/BNav_EC2/DepthDuration/v2_depth_duration_MTurk/v2_DepthDuration_HTML.html#11,11,1366,768,1366,768,8-20-2022,11-30-22,44,depth_duration_stimuli/000878_2014-06-08_22-52-45_260595134347_rgbf000045-resize_2/000878_2014-06-08_22-52-45_260595134347_rgbf000045-resize_2-target.png,250,2.092,1,2061,250,feet,jsons/v1_VE250_randls_71_rotated.json,665526,842663,62,Woman
44,636755,DepthScenes,duration_manipulation_targetAtFixation,jsons/v1_VE250_randls_71_rotated.json,http://54.235.29.9/FacialAge/BNav_EC2/DepthDuration/v2_depth_duration_MTurk/v2_DepthDuration_HTML.html#11,11,1366,768,1366,768,8-20-2022,11-30-22,45,depth_duration_stimuli/000549_2014-06-08_22-10-24_260595134347_rgbf000247-resize_3/000549_2014-06-08_22-10-24_260595134347_rgbf000247-resize_3-target.png,250,1.841,1,2734,248,feet,jsons/v1_VE250_randls_71_rotated.json,665526,842663,62,Woman
45,636755,DepthScenes,duration_manipulation_targetAtFixation,jsons/v1_VE250_randls_71_rotated.json,http://54.235.29.9/FacialAge/BNav_EC2/DepthDuration/v2_depth_duration_MTurk/v2_DepthDuration_HTML.html#11,11,1366,768,1366,768,8-20-2022,11-30-22,46,depth_duration_stimuli/001055_2014-06-08_18-45-35_260595134347_rgbf000111-resize_4/001055_2014-06-08_18-45-35_260595134347_rgbf000111-resize_4-target.png,250,2.4290000000000003,1,28963,250,feet,jsons/v1_VE250_randls_71_rotated.json,665526,842663,62,Woman
46,636755,DepthScenes,duration_manipulation_targetAtFixation,jsons/v1_VE250_randls_71_rotated.json,http://54.235.29.9/FacialAge/BNav_EC2/DepthDuration/v2_depth_duration_MTurk/v2_DepthDuration_HTML.html#11,11,1366,768,1366,768,8-20-2022,11-30-22,47,depth_duration_stimuli/001447_2014-06-19_17-00-32_260595134347_rgbf000082-resize_5/001447_2014-06-19_17-00-32_260595134347_rgbf000082-resize_5-target.png,250,4.13775,1,3039,246,feet,jsons/v1_VE250_randls_71_rotated.json,665526,842663,62,Woman
47,636755,DepthScenes,duration_manipulation_targetAtFixation,jsons/v1_VE250_randls_71_rotated.json,http://54.235.29.9/FacialAge/BNav_EC2/DepthDuration/v2_depth_duration_MTurk/v2_DepthDuration_HTML.html#11,11,1366,768,1366,768,8-20-2022,11-30-22,48,depth_duration_stimuli/000447_2014-06-08_16-15-46_260595134347_rgbf000130-resize_1/000447_2014-06-08_16-15-46_260595134347_rgbf000130-resize_1-target.png,250,4.479,1,2514,249,feet,jsons/v1_VE250_randls_71_rotated.json,665526,842663,62,Woman
48,636755,DepthScenes,duration_manipulation_targetAtFixation,jsons/v1_VE250_randls_71_rotated.json,http://54.235.29.9/FacialAge/BNav_EC2/DepthDuration/v2_depth_duration_MTurk/v2_DepthDuration_HTML.html#11,11,1366,768,1366,768,8-20-2022,11-30-22,49,depth_duration_stimuli/001170_2014-06-17_15-43-44_260595134347_rgbf000096-resize_6/001170_2014-06-17_15-43-44_260595134347_rgbf000096-resize-original.jpg,250,1.1909999999999998,1,2417,251,feet,jsons/v1_VE250_randls_71_rotated.json,665526,842663,62,Woman
49,636755,DepthScenes,duration_manipulation_targetAtFixation,jsons/v1_VE250_randls_71_rotated.json,http://54.235.29.9/FacialAge/BNav_EC2/DepthDuration/v2_depth_duration_MTurk/v2_DepthDuration_HTML.html#11,11,1366,768,1366,768,8-20-2022,11-30-22,50,depth_duration_stimuli/002425_2014-06-28_20-27-29_260595134347_rgbf000031-resize_8/002425_2014-06-28_20-27-29_260595134347_rgbf000031-resize_8-target.png,250,3.8960000000000004,1,2339,249,feet,jsons/v1_VE250_randls_71_rotated.json,665526,842663,62,Woman
50,636755,DepthScenes,duration_manipulation_targetAtFixation,jsons/v1_VE250_randls_71_rotated.json,http://54.235.29.9/FacialAge/BNav_EC2/DepthDuration/v2_depth_duration_MTurk/v2_DepthDuration_HTML.html#11,11,1366,768,1366,768,8-20-2022,11-30-22,51,depth_duration_stimuli/000642_2014-06-08_16-59-25_260595134347_rgbf000098-resize_2/000642_2014-06-08_16-59-25_260595134347_rgbf000098-resize_2-target.png,250,2.8815,1,3874,250,feet,jsons/v1_VE250_randls_71_rotated.json,665526,842663,62,Woman
51,636755,DepthScenes,duration_manipulation_targetAtFixation,jsons/v1_VE250_randls_71_rotated.json,http://54.235.29.9/FacialAge/BNav_EC2/DepthDuration/v2_depth_duration_MTurk/v2_DepthDuration_HTML.html#11,11,1366,768,1366,768,8-20-2022,11-30-22,52,depth_duration_stimuli/003079_2014-06-15_15-18-20_094959634447_rgbf000152-resize_8/003079_2014-06-15_15-18-20_094959634447_rgbf000152-resize_8-target.png,250,2.8775,1,2425,250,feet,jsons/v1_VE250_randls_71_rotated.json,665526,842663,62,Woman
52,636755,DepthScenes,duration_manipulation_targetAtFixation,jsons/v1_VE250_randls_71_rotated.json,http://54.235.29.9/FacialAge/BNav_EC2/DepthDuration/v2_depth_duration_MTurk/v2_DepthDuration_HTML.html#11,11,1366,768,1366,768,8-20-2022,11-30-22,53,depth_duration_stimuli/000506_2014-06-08_23-21-00_260595134347_rgbf000070-resize_7/000506_2014-06-08_23-21-00_260595134347_rgbf000070-resize_7-target.png,250,4.0585,1,2246,257,feet,jsons/v1_VE250_randls_71_rotated.json,665526,842663,62,Woman
53,636755,DepthScenes,duration_manipulation_targetAtFixation,jsons/v1_VE250_randls_71_rotated.json,http://54.235.29.9/FacialAge/BNav_EC2/DepthDuration/v2_depth_duration_MTurk/v2_DepthDuration_HTML.html#11,11,1366,768,1366,768,8-20-2022,11-30-22,54,depth_duration_stimuli/002136_2014-06-25_21-18-03_260595134347_rgbf000109-resize_3/002136_2014-06-25_21-18-03_260595134347_rgbf000109-resize_3-target.png,250,1.9569999999999999,1,2627,250,feet,jsons/v1_VE250_randls_71_rotated.json,665526,842663,62,Woman
54,636755,DepthScenes,duration_manipulation_targetAtFixation,jsons/v1_VE250_randls_71_rotated.json,http://54.235.29.9/FacialAge/BNav_EC2/DepthDuration/v2_depth_duration_MTurk/v2_DepthDuration_HTML.html#11,11,1366,768,1366,768,8-20-2022,11-30-22,55,depth_duration_stimuli/002964_2014-06-08_17-46-11_094959634447_rgbf000091-resize_4/002964_2014-06-08_17-46-11_094959634447_rgbf000091-resize_4-target.png,250,1.6909999999999998,1,5481,246,feet,jsons/v1_VE250_randls_71_rotated.json,665526,842663,62,Woman
55,636755,DepthScenes,duration_manipulation_targetAtFixation,jsons/v1_VE250_randls_71_rotated.json,http://54.235.29.9/FacialAge/BNav_EC2/DepthDuration/v2_depth_duration_MTurk/v2_DepthDuration_HTML.html#11,11,1366,768,1366,768,8-20-2022,11-30-22,56,depth_duration_stimuli/002467_2014-06-28_20-38-07_260595134347_rgbf000026-resize_2/002467_2014-06-28_20-38-07_260595134347_rgbf000026-resize_2-target.png,250,4.742,1,3134,241,feet,jsons/v1_VE250_randls_71_rotated.json,665526,842663,62,Woman
56,636755,DepthScenes,duration_manipulation_targetAtFixation,jsons/v1_VE250_randls_71_rotated.json,http://54.235.29.9/FacialAge/BNav_EC2/DepthDuration/v2_depth_duration_MTurk/v2_DepthDuration_HTML.html#11,11,1366,768,1366,768,8-20-2022,11-30-22,57,depth_duration_stimuli/002570_2014-06-24_13-59-54_094959634447_rgbf000059-resize_0/002570_2014-06-24_13-59-54_094959634447_rgbf000059-resize_0-target.png,250,4.037,1,2852,256,feet,jsons/v1_VE250_randls_71_rotated.json,665526,842663,62,Woman
57,636755,DepthScenes,duration_manipulation_targetAtFixation,jsons/v1_VE250_randls_71_rotated.json,http://54.235.29.9/FacialAge/BNav_EC2/DepthDuration/v2_depth_duration_MTurk/v2_DepthDuration_HTML.html#11,11,1366,768,1366,768,8-20-2022,11-30-22,58,depth_duration_stimuli/000635_2014-06-08_16-38-42_260595134347_rgbf000106-resize_1/000635_2014-06-08_16-38-42_260595134347_rgbf000106-resize_1-target.png,250,2.074,1,2549,236,feet,jsons/v1_VE250_randls_71_rotated.json,665526,842663,62,Woman
58,636755,DepthScenes,duration_manipulation_targetAtFixation,jsons/v1_VE250_randls_71_rotated.json,http://54.235.29.9/FacialAge/BNav_EC2/DepthDuration/v2_depth_duration_MTurk/v2_DepthDuration_HTML.html#11,11,1366,768,1366,768,8-20-2022,11-30-22,59,depth_duration_stimuli/002279_2014-06-28_18-55-32_260595134347_rgbf000040-resize_5/002279_2014-06-28_18-55-32_260595134347_rgbf000040-resize_5-target.png,250,1.5043333333333,1,2667,257,feet,jsons/v1_VE250_randls_71_rotated.json,665526,842663,62,Woman
59,636755,DepthScenes,duration_manipulation_targetAtFixation,jsons/v1_VE250_randls_71_rotated.json,http://54.235.29.9/FacialAge/BNav_EC2/DepthDuration/v2_depth_duration_MTurk/v2_DepthDuration_HTML.html#11,11,1366,768,1366,768,8-20-2022,11-30-22,60,depth_duration_stimuli/003338_2014-05-20_11-01-23_094959634447_rgbf000051-resize_6/003338_2014-05-20_11-01-23_094959634447_rgbf000051-resize_6-target.png,250,1.693,1,2525,238,feet,jsons/v1_VE250_randls_71_rotated.json,665526,842663,62,Woman
60,636755,DepthScenes,duration_manipulation_targetAtFixation,jsons/v1_VE250_randls_71_rotated.json,http://54.235.29.9/FacialAge/BNav_EC2/DepthDuration/v2_depth_duration_MTurk/v2_DepthDuration_HTML.html#11,11,1366,768,1366,768,8-20-2022,11-30-22,61,depth_duration_stimuli/002509_2014-06-24_13-19-22_094959634447_rgbf000077-resize_0/002509_2014-06-24_13-19-22_094959634447_rgbf000077-resize_0-target.png,250,1.3065,1,2475,250,feet,jsons/v1_VE250_randls_71_rotated.json,665526,842663,62,Woman
61,636755,DepthScenes,duration_manipulation_targetAtFixation,jsons/v1_VE250_randls_71_rotated.json,http://54.235.29.9/FacialAge/BNav_EC2/DepthDuration/v2_depth_duration_MTurk/v2_DepthDuration_HTML.html#11,11,1366,768,1366,768,8-20-2022,11-30-22,62,depth_duration_stimuli/000191_2014-05-12_17-07-38_260595134347_rgbf000199-resize_0/000191_2014-05-12_17-07-38_260595134347_rgbf000199-resize_0-target.png,250,3.7995,1,2414,255,feet,jsons/v1_VE250_randls_71_rotated.json,665526,842663,62,Woman
62,636755,DepthScenes,duration_manipulation_targetAtFixation,jsons/v1_VE250_randls_71_rotated.json,http://54.235.29.9/FacialAge/BNav_EC2/DepthDuration/v2_depth_duration_MTurk/v2_DepthDuration_HTML.html#11,11,1366,768,1366,768,8-20-2022,11-30-22,63,depth_duration_stimuli/000493_2014-06-09_21-01-18_260595134347_rgbf000196-resize_3/000493_2014-06-09_21-01-18_260595134347_rgbf000196-resize_3-target.png,250,3.44,1,2208,256,feet,jsons/v1_VE250_randls_71_rotated.json,665526,842663,62,Woman
63,636755,DepthScenes,duration_manipulation_targetAtFixation,jsons/v1_VE250_randls_71_rotated.json,http://54.235.29.9/FacialAge/BNav_EC2/DepthDuration/v2_depth_duration_MTurk/v2_DepthDuration_HTML.html#11,11,1366,768,1366,768,8-20-2022,11-30-22,64,depth_duration_stimuli/000691_2014-06-08_13-08-50_260595134347_rgbf000132-resize_3/000691_2014-06-08_13-08-50_260595134347_rgbf000132-resize_3-target.png,250,4.1530000000000005,1,2057,241,feet,jsons/v1_VE250_randls_71_rotated.json,665526,842663,62,Woman
64,636755,DepthScenes,duration_manipulation_targetAtFixation,jsons/v1_VE250_randls_71_rotated.json,http://54.235.29.9/FacialAge/BNav_EC2/DepthDuration/v2_depth_duration_MTurk/v2_DepthDuration_HTML.html#11,11,1366,768,1366,768,8-20-2022,11-30-22,65,depth_duration_stimuli/002213_2014-06-28_18-37-58_260595134347_rgbf000055-resize_1/002213_2014-06-28_18-37-58_260595134347_rgbf000055-resize_1-target.png,250,3.62,1,2639,250,feet,jsons/v1_VE250_randls_71_rotated.json,665526,842663,62,Woman
65,636755,DepthScenes,duration_manipulation_targetAtFixation,jsons/v1_VE250_randls_71_rotated.json,http://54.235.29.9/FacialAge/BNav_EC2/DepthDuration/v2_depth_duration_MTurk/v2_DepthDuration_HTML.html#11,11,1366,768,1366,768,8-20-2022,11-30-22,66,depth_duration_stimuli/001540_2014-06-20_17-01-05_260595134347_rgbf000086-resize_2/001540_2014-06-20_17-01-05_260595134347_rgbf000086-resize-original.jpg,250,1.459,1,18976,249,feet,jsons/v1_VE250_randls_71_rotated.json,665526,842663,62,Woman
66,636755,DepthScenes,duration_manipulation_targetAtFixation,jsons/v1_VE250_randls_71_rotated.json,http://54.235.29.9/FacialAge/BNav_EC2/DepthDuration/v2_depth_duration_MTurk/v2_DepthDuration_HTML.html#11,11,1366,768,1366,768,8-20-2022,11-30-22,67,depth_duration_stimuli/000137_2014-05-20_17-04-49_260595134347_rgbf000120-resize_1/000137_2014-05-20_17-04-49_260595134347_rgbf000120-resize_1-target.png,250,3.786,1,3053,250,feet,jsons/v1_VE250_randls_71_rotated.json,665526,842663,62,Woman
67,636755,DepthScenes,duration_manipulation_targetAtFixation,jsons/v1_VE250_randls_71_rotated.json,http://54.235.29.9/FacialAge/BNav_EC2/DepthDuration/v2_depth_duration_MTurk/v2_DepthDuration_HTML.html#11,11,1366,768,1366,768,8-20-2022,11-30-22,68,depth_duration_stimuli/000736_2014-06-08_18-24-15_260595134347_rgbf000206-resize_3/000736_2014-06-08_18-24-15_260595134347_rgbf000206-resize_3-target.png,250,3.515,1,2065,249,feet,jsons/v1_VE250_randls_71_rotated.json,665526,842663,62,Woman
68,636755,DepthScenes,duration_manipulation_targetAtFixation,jsons/v1_VE250_randls_71_rotated.json,http://54.235.29.9/FacialAge/BNav_EC2/DepthDuration/v2_depth_duration_MTurk/v2_DepthDuration_HTML.html#11,11,1366,768,1366,768,8-20-2022,11-30-22,69,depth_duration_stimuli/001100_2014-06-15_17-46-26_260595134347_rgbf000225-resize_2/001100_2014-06-15_17-46-26_260595134347_rgbf000225-resize_2-target.png,250,2.24,1,2080,248,feet,jsons/v1_VE250_randls_71_rotated.json,665526,842663,62,Woman
69,636755,DepthScenes,duration_manipulation_targetAtFixation,jsons/v1_VE250_randls_71_rotated.json,http://54.235.29.9/FacialAge/BNav_EC2/DepthDuration/v2_depth_duration_MTurk/v2_DepthDuration_HTML.html#11,11,1366,768,1366,768,8-20-2022,11-30-22,70,depth_duration_stimuli/002784_2014-06-22_19-26-30_094959634447_rgbf000083-resize_3/002784_2014-06-22_19-26-30_094959634447_rgbf000083-resize_3-target.png,250,1.8046666666667,0,2670,251,feet,jsons/v1_VE250_randls_71_rotated.json,665526,842663,62,Woman
70,636755,DepthScenes,duration_manipulation_targetAtFixation,jsons/v1_VE250_randls_71_rotated.json,http://54.235.29.9/FacialAge/BNav_EC2/DepthDuration/v2_depth_duration_MTurk/v2_DepthDuration_HTML.html#11,11,1366,768,1366,768,8-20-2022,11-30-22,71,depth_duration_stimuli/001032_2014-06-08_13-23-17_260595134347_rgbf000021-resize_3/001032_2014-06-08_13-23-17_260595134347_rgbf000021-resize_3-target.png,250,3.2725,1,2072,249,feet,jsons/v1_VE250_randls_71_rotated.json,665526,842663,62,Woman
71,636755,DepthScenes,duration_manipulation_targetAtFixation,jsons/v1_VE250_randls_71_rotated.json,http://54.235.29.9/FacialAge/BNav_EC2/DepthDuration/v2_depth_duration_MTurk/v2_DepthDuration_HTML.html#11,11,1366,768,1366,768,8-20-2022,11-30-22,72,depth_duration_stimuli/001059_2014-06-08_21-53-27_260595134347_rgbf000061-resize_4/001059_2014-06-08_21-53-27_260595134347_rgbf000061-resize_4-target.png,250,2.4185,1,4124,251,feet,jsons/v1_VE250_randls_71_rotated.json,665526,842663,62,Woman
72,636755,DepthScenes,duration_manipulation_targetAtFixation,jsons/v1_VE250_randls_71_rotated.json,http://54.235.29.9/FacialAge/BNav_EC2/DepthDuration/v2_depth_duration_MTurk/v2_DepthDuration_HTML.html#11,11,1366,768,1366,768,8-20-2022,11-30-22,73,depth_duration_stimuli/002414_2014-06-28_20-24-58_260595134347_rgbf000067-resize_4/002414_2014-06-28_20-24-58_260595134347_rgbf000067-resize_4-target.png,250,4.363,1,2555,246,feet,jsons/v1_VE250_randls_71_rotated.json,665526,842663,62,Woman
73,636755,DepthScenes,duration_manipulation_targetAtFixation,jsons/v1_VE250_randls_71_rotated.json,http://54.235.29.9/FacialAge/BNav_EC2/DepthDuration/v2_depth_duration_MTurk/v2_DepthDuration_HTML.html#11,11,1366,768,1366,768,8-20-2022,11-30-22,74,depth_duration_stimuli/000773_2014-06-08_22-24-54_260595134347_rgbf000093-resize_1/000773_2014-06-08_22-24-54_260595134347_rgbf000093-resize_1-target.png,250,4.973,1,2330,258,feet,jsons/v1_VE250_randls_71_rotated.json,665526,842663,62,Woman
74,636755,DepthScenes,duration_manipulation_targetAtFixation,jsons/v1_VE250_randls_71_rotated.json,http://54.235.29.9/FacialAge/BNav_EC2/DepthDuration/v2_depth_duration_MTurk/v2_DepthDuration_HTML.html#11,11,1366,768,1366,768,8-20-2022,11-30-22,75,depth_duration_stimuli/003081_2014-06-15_15-19-16_094959634447_rgbf000150-resize_1/003081_2014-06-15_15-19-16_094959634447_rgbf000150-resize_1-target.png,250,3.9125,1,2322,240,feet,jsons/v1_VE250_randls_71_rotated.json,665526,842663,62,Woman
75,636755,DepthScenes,duration_manipulation_targetAtFixation,jsons/v1_VE250_randls_71_rotated.json,http://54.235.29.9/FacialAge/BNav_EC2/DepthDuration/v2_depth_duration_MTurk/v2_DepthDuration_HTML.html#11,11,1366,768,1366,768,8-20-2022,11-30-22,76,depth_duration_stimuli/001417_2014-06-19_16-25-36_260595134347_rgbf000115-resize_5/001417_2014-06-19_16-25-36_260595134347_rgbf000115-resize_5-target.png,250,4.6255,0,2409,251,feet,jsons/v1_VE250_randls_71_rotated.json,665526,842663,62,Woman
76,636755,DepthScenes,duration_manipulation_targetAtFixation,jsons/v1_VE250_randls_71_rotated.json,http://54.235.29.9/FacialAge/BNav_EC2/DepthDuration/v2_depth_duration_MTurk/v2_DepthDuration_HTML.html#11,11,1366,768,1366,768,8-20-2022,11-30-22,77,depth_duration_stimuli/000502_2014-06-08_23-02-32_260595134347_rgbf000063-resize_4/000502_2014-06-08_23-02-32_260595134347_rgbf000063-resize_4-target.png,250,2.431,1,2707,250,feet,jsons/v1_VE250_randls_71_rotated.json,665526,842663,62,Woman
77,636755,DepthScenes,duration_manipulation_targetAtFixation,jsons/v1_VE250_randls_71_rotated.json,http://54.235.29.9/FacialAge/BNav_EC2/DepthDuration/v2_depth_duration_MTurk/v2_DepthDuration_HTML.html#11,11,1366,768,1366,768,8-20-2022,11-30-22,78,depth_duration_stimuli/001199_2014-06-17_16-03-48_260595134347_rgbf000077-resize_0/001199_2014-06-17_16-03-48_260595134347_rgbf000077-resize_0-target.png,250,3.4375,1,2418,246,feet,jsons/v1_VE250_randls_71_rotated.json,665526,842663,62,Woman
78,636755,DepthScenes,duration_manipulation_targetAtFixation,jsons/v1_VE250_randls_71_rotated.json,http://54.235.29.9/FacialAge/BNav_EC2/DepthDuration/v2_depth_duration_MTurk/v2_DepthDuration_HTML.html#11,11,1366,768,1366,768,8-20-2022,11-30-22,79,depth_duration_stimuli/003129_2014-05-12_10-48-10_094959634447_rgbf000100-resize_0/003129_2014-05-12_10-48-10_094959634447_rgbf000100-resize_0-target.png,250,4.9305,1,2491,249,feet,jsons/v1_VE250_randls_71_rotated.json,665526,842663,62,Woman
79,636755,DepthScenes,duration_manipulation_targetAtFixation,jsons/v1_VE250_randls_71_rotated.json,http://54.235.29.9/FacialAge/BNav_EC2/DepthDuration/v2_depth_duration_MTurk/v2_DepthDuration_HTML.html#11,11,1366,768,1366,768,8-20-2022,11-30-22,80,depth_duration_stimuli/000414_2014-06-04_19-49-13_260595134347_rgbf000044-resize_0/000414_2014-06-04_19-49-13_260595134347_rgbf000044-resize_0-target.png,250,4.329,1,2379,254,feet,jsons/v1_VE250_randls_71_rotated.json,665526,842663,62,Woman
80,636755,DepthScenes,duration_manipulation_targetAtFixation,jsons/v1_VE250_randls_71_rotated.json,http://54.235.29.9/FacialAge/BNav_EC2/DepthDuration/v2_depth_duration_MTurk/v2_DepthDuration_HTML.html#11,11,1366,768,1366,768,8-20-2022,11-30-22,81,depth_duration_stimuli/001450_2014-06-19_17-02-03_260595134347_rgbf000203-resize_4/001450_2014-06-19_17-02-03_260595134347_rgbf000203-resize_4-target.png,250,4.0106666666667,1,2791,249,feet,jsons/v1_VE250_randls_71_rotated.json,665526,842663,62,Woman
81,636755,DepthScenes,duration_manipulation_targetAtFixation,jsons/v1_VE250_randls_71_rotated.json,http://54.235.29.9/FacialAge/BNav_EC2/DepthDuration/v2_depth_duration_MTurk/v2_DepthDuration_HTML.html#11,11,1366,768,1366,768,8-20-2022,11-30-22,82,depth_duration_stimuli/001449_2014-06-19_17-01-27_260595134347_rgbf000116-resize_2/001449_2014-06-19_17-01-27_260595134347_rgbf000116-resize_2-target.png,250,3.452,1,2441,262,feet,jsons/v1_VE250_randls_71_rotated.json,665526,842663,62,Woman
82,636755,DepthScenes,duration_manipulation_targetAtFixation,jsons/v1_VE250_randls_71_rotated.json,http://54.235.29.9/FacialAge/BNav_EC2/DepthDuration/v2_depth_duration_MTurk/v2_DepthDuration_HTML.html#11,11,1366,768,1366,768,8-20-2022,11-30-22,83,depth_duration_stimuli/002949_2014-06-26_15-57-42_094959634447_rgbf000079-resize_1/002949_2014-06-26_15-57-42_094959634447_rgbf000079-resize_1-target.png,250,1.8915,1,2962,251,feet,jsons/v1_VE250_randls_71_rotated.json,665526,842663,62,Woman
83,636755,DepthScenes,duration_manipulation_targetAtFixation,jsons/v1_VE250_randls_71_rotated.json,http://54.235.29.9/FacialAge/BNav_EC2/DepthDuration/v2_depth_duration_MTurk/v2_DepthDuration_HTML.html#11,11,1366,768,1366,768,8-20-2022,11-30-22,84,depth_duration_stimuli/000522_2014-06-08_13-35-06_260595134347_rgbf000244-resize_1/000522_2014-06-08_13-35-06_260595134347_rgbf000244-resize_1-target.png,250,2.3715,1,2630,240,feet,jsons/v1_VE250_randls_71_rotated.json,665526,842663,62,Woman
84,636755,DepthScenes,duration_manipulation_targetAtFixation,jsons/v1_VE250_randls_71_rotated.json,http://54.235.29.9/FacialAge/BNav_EC2/DepthDuration/v2_depth_duration_MTurk/v2_DepthDuration_HTML.html#11,11,1366,768,1366,768,8-20-2022,11-30-22,85,depth_duration_stimuli/003490_2014-05-21_15-50-11_094959634447_rgbf000101-resize_3/003490_2014-05-21_15-50-11_094959634447_rgbf000101-resize_3-target.png,250,3.6445,1,2706,262,feet,jsons/v1_VE250_randls_71_rotated.json,665526,842663,62,Woman
85,636755,DepthScenes,duration_manipulation_targetAtFixation,jsons/v1_VE250_randls_71_rotated.json,http://54.235.29.9/FacialAge/BNav_EC2/DepthDuration/v2_depth_duration_MTurk/v2_DepthDuration_HTML.html#11,11,1366,768,1366,768,8-20-2022,11-30-22,86,depth_duration_stimuli/001175_2014-06-17_15-45-55_260595134347_rgbf000129-resize_4/001175_2014-06-17_15-45-55_260595134347_rgbf000129-resize_4-target.png,250,4.255,1,2165,245,feet,jsons/v1_VE250_randls_71_rotated.json,665526,842663,62,Woman
86,636755,DepthScenes,duration_manipulation_targetAtFixation,jsons/v1_VE250_randls_71_rotated.json,http://54.235.29.9/FacialAge/BNav_EC2/DepthDuration/v2_depth_duration_MTurk/v2_DepthDuration_HTML.html#11,11,1366,768,1366,768,8-20-2022,11-30-22,87,depth_duration_stimuli/000927_2014-06-09_16-32-30_260595134347_rgbf000123-resize_3/000927_2014-06-09_16-32-30_260595134347_rgbf000123-resize_3-target.png,250,2.6785,1,4956,248,feet,jsons/v1_VE250_randls_71_rotated.json,665526,842663,62,Woman
87,636755,DepthScenes,duration_manipulation_targetAtFixation,jsons/v1_VE250_randls_71_rotated.json,http://54.235.29.9/FacialAge/BNav_EC2/DepthDuration/v2_depth_duration_MTurk/v2_DepthDuration_HTML.html#11,11,1366,768,1366,768,8-20-2022,11-30-22,88,depth_duration_stimuli/001110_2014-06-15_17-25-28_260595134347_rgbf000150-resize_1/001110_2014-06-15_17-25-28_260595134347_rgbf000150-resize_1-target.png,250,1.7115,1,3055,237,feet,jsons/v1_VE250_randls_71_rotated.json,665526,842663,62,Woman
88,636755,DepthScenes,duration_manipulation_targetAtFixation,jsons/v1_VE250_randls_71_rotated.json,http://54.235.29.9/FacialAge/BNav_EC2/DepthDuration/v2_depth_duration_MTurk/v2_DepthDuration_HTML.html#11,11,1366,768,1366,768,8-20-2022,11-30-22,89,depth_duration_stimuli/000109_2014-05-14_23-41-52_260595134347_rgbf000035-resize_9/000109_2014-05-14_23-41-52_260595134347_rgbf000035-resize_9-target.png,250,1.3545,1,2398,248,feet,jsons/v1_VE250_randls_71_rotated.json,665526,842663,62,Woman
89,636755,DepthScenes,duration_manipulation_targetAtFixation,jsons/v1_VE250_randls_71_rotated.json,http://54.235.29.9/FacialAge/BNav_EC2/DepthDuration/v2_depth_duration_MTurk/v2_DepthDuration_HTML.html#11,11,1366,768,1366,768,8-20-2022,11-30-22,90,depth_duration_stimuli/000470_2014-06-09_19-42-40_260595134347_rgbf000094-resize_1/000470_2014-06-09_19-42-40_260595134347_rgbf000094-resize_1-target.png,250,1.831,1,2047,257,feet,jsons/v1_VE250_randls_71_rotated.json,665526,842663,62,Woman
90,636755,DepthScenes,duration_manipulation_targetAtFixation,jsons/v1_VE250_randls_71_rotated.json,http://54.235.29.9/FacialAge/BNav_EC2/DepthDuration/v2_depth_duration_MTurk/v2_DepthDuration_HTML.html#11,11,1366,768,1366,768,8-20-2022,11-30-22,91,depth_duration_stimuli/003495_2014-05-21_16-01-51_094959634447_rgbf000100-resize_3/003495_2014-05-21_16-01-51_094959634447_rgbf000100-resize_3-target.png,250,1.6255,1,2269,256,feet,jsons/v1_VE250_randls_71_rotated.json,665526,842663,62,Woman
91,636755,DepthScenes,duration_manipulation_targetAtFixation,jsons/v1_VE250_randls_71_rotated.json,http://54.235.29.9/FacialAge/BNav_EC2/DepthDuration/v2_depth_duration_MTurk/v2_DepthDuration_HTML.html#11,11,1366,768,1366,768,8-20-2022,11-30-22,92,depth_duration_stimuli/001244_2014-06-17_16-47-45_260595134347_rgbf000030-resize_4/001244_2014-06-17_16-47-45_260595134347_rgbf000030-resize_4-target.png,250,2.0425,1,2095,253,feet,jsons/v1_VE250_randls_71_rotated.json,665526,842663,62,Woman
92,636755,DepthScenes,duration_manipulation_targetAtFixation,jsons/v1_VE250_randls_71_rotated.json,http://54.235.29.9/FacialAge/BNav_EC2/DepthDuration/v2_depth_duration_MTurk/v2_DepthDuration_HTML.html#11,11,1366,768,1366,768,8-20-2022,11-30-22,93,depth_duration_stimuli/002340_2014-06-28_20-05-46_260595134347_rgbf000113-resize_0/002340_2014-06-28_20-05-46_260595134347_rgbf000113-resize_0-target.png,250,2.4735,1,1832,249,feet,jsons/v1_VE250_randls_71_rotated.json,665526,842663,62,Woman
93,636755,DepthScenes,duration_manipulation_targetAtFixation,jsons/v1_VE250_randls_71_rotated.json,http://54.235.29.9/FacialAge/BNav_EC2/DepthDuration/v2_depth_duration_MTurk/v2_DepthDuration_HTML.html#11,11,1366,768,1366,768,8-20-2022,11-30-22,94,depth_duration_stimuli/001016_2014-06-09_16-16-10_260595134347_rgbf000112-resize_5/001016_2014-06-09_16-16-10_260595134347_rgbf000112-resize_5-target.png,250,1.6565,1,2563,236,feet,jsons/v1_VE250_randls_71_rotated.json,665526,842663,62,Woman
94,636755,DepthScenes,duration_manipulation_targetAtFixation,jsons/v1_VE250_randls_71_rotated.json,http://54.235.29.9/FacialAge/BNav_EC2/DepthDuration/v2_depth_duration_MTurk/v2_DepthDuration_HTML.html#11,11,1366,768,1366,768,8-20-2022,11-30-22,95,depth_duration_stimuli/001136_2014-06-17_15-19-41_260595134347_rgbf000076-resize_3/001136_2014-06-17_15-19-41_260595134347_rgbf000076-resize_3-target.png,250,1.8655,1,2451,247,feet,jsons/v1_VE250_randls_71_rotated.json,665526,842663,62,Woman
95,636755,DepthScenes,duration_manipulation_targetAtFixation,jsons/v1_VE250_randls_71_rotated.json,http://54.235.29.9/FacialAge/BNav_EC2/DepthDuration/v2_depth_duration_MTurk/v2_DepthDuration_HTML.html#11,11,1366,768,1366,768,8-20-2022,11-30-22,96,depth_duration_stimuli/001164_2014-06-17_15-35-46_260595134347_rgbf000085-resize_3/001164_2014-06-17_15-35-46_260595134347_rgbf000085-resize_3-target.png,250,2.354,1,9552,243,feet,jsons/v1_VE250_randls_71_rotated.json,665526,842663,62,Woman
96,636755,DepthScenes,duration_manipulation_targetAtFixation,jsons/v1_VE250_randls_71_rotated.json,http://54.235.29.9/FacialAge/BNav_EC2/DepthDuration/v2_depth_duration_MTurk/v2_DepthDuration_HTML.html#11,11,1366,768,1366,768,8-20-2022,11-30-22,97,depth_duration_stimuli/003083_2014-06-15_15-21-03_094959634447_rgbf000063-resize_1/003083_2014-06-15_15-21-03_094959634447_rgbf000063-resize_1-target.png,250,4.1405,1,2200,241,feet,jsons/v1_VE250_randls_71_rotated.json,665526,842663,62,Woman
97,636755,DepthScenes,duration_manipulation_targetAtFixation,jsons/v1_VE250_randls_71_rotated.json,http://54.235.29.9/FacialAge/BNav_EC2/DepthDuration/v2_depth_duration_MTurk/v2_DepthDuration_HTML.html#11,11,1366,768,1366,768,8-20-2022,11-30-22,98,depth_duration_stimuli/000486_2014-06-09_20-47-20_260595134347_rgbf000143-resize_2/000486_2014-06-09_20-47-20_260595134347_rgbf000143-resize_2-target.png,250,4.8325,1,2260,243,feet,jsons/v1_VE250_randls_71_rotated.json,665526,842663,62,Woman
98,636755,DepthScenes,duration_manipulation_targetAtFixation,jsons/v1_VE250_randls_71_rotated.json,http://54.235.29.9/FacialAge/BNav_EC2/DepthDuration/v2_depth_duration_MTurk/v2_DepthDuration_HTML.html#11,11,1366,768,1366,768,8-20-2022,11-30-22,99,depth_duration_stimuli/001222_2014-06-17_16-24-06_260595134347_rgbf000073-resize_0/001222_2014-06-17_16-24-06_260595134347_rgbf000073-resize-original.jpg,250,1.4385,1,3882,246,feet,jsons/v1_VE250_randls_71_rotated.json,665526,842663,62,Woman
99,636755,DepthScenes,duration_manipulation_targetAtFixation,jsons/v1_VE250_randls_71_rotated.json,http://54.235.29.9/FacialAge/BNav_EC2/DepthDuration/v2_depth_duration_MTurk/v2_DepthDuration_HTML.html#11,11,1366,768,1366,768,8-20-2022,11-30-22,100,depth_duration_stimuli/002758_2014-06-22_19-11-20_094959634447_rgbf000128-resize_1/002758_2014-06-22_19-11-20_094959634447_rgbf000128-resize_1-target.png,250,2.555,1,2228,251,feet,jsons/v1_VE250_randls_71_rotated.json,665526,842663,62,Woman
100,636755,DepthScenes,duration_manipulation_targetAtFixation,jsons/v1_VE250_randls_71_rotated.json,http://54.235.29.9/FacialAge/BNav_EC2/DepthDuration/v2_depth_duration_MTurk/v2_DepthDuration_HTML.html#11,11,1366,768,1366,768,8-20-2022,11-30-22,101,depth_duration_stimuli/002630_2014-06-24_14-47-50_094959634447_rgbf000055-resize_1/002630_2014-06-24_14-47-50_094959634447_rgbf000055-resize_1-target.png,250,3.0095,1,2000,236,feet,jsons/v1_VE250_randls_71_rotated.json,665526,842663,62,Woman
101,636755,DepthScenes,duration_manipulation_targetAtFixation,jsons/v1_VE250_randls_71_rotated.json,http://54.235.29.9/FacialAge/BNav_EC2/DepthDuration/v2_depth_duration_MTurk/v2_DepthDuration_HTML.html#11,11,1366,768,1366,768,8-20-2022,11-30-22,102,depth_duration_stimuli/002639_2014-06-24_14-51-37_094959634447_rgbf000074-resize_4/002639_2014-06-24_14-51-37_094959634447_rgbf000074-resize_4-target.png,250,4.0375,1,1923,248,feet,jsons/v1_VE250_randls_71_rotated.json,665526,842663,62,Woman
102,636755,DepthScenes,duration_manipulation_targetAtFixation,jsons/v1_VE250_randls_71_rotated.json,http://54.235.29.9/FacialAge/BNav_EC2/DepthDuration/v2_depth_duration_MTurk/v2_DepthDuration_HTML.html#11,11,1366,768,1366,768,8-20-2022,11-30-22,103,depth_duration_stimuli/003292_2014-05-14_21-53-49_094959634447_rgbf000100-resize_2/003292_2014-05-14_21-53-49_094959634447_rgbf000100-resize_2-target.png,250,3.4815,1,2151,256,feet,jsons/v1_VE250_randls_71_rotated.json,665526,842663,62,Woman
103,636755,DepthScenes,duration_manipulation_targetAtFixation,jsons/v1_VE250_randls_71_rotated.json,http://54.235.29.9/FacialAge/BNav_EC2/DepthDuration/v2_depth_duration_MTurk/v2_DepthDuration_HTML.html#11,11,1366,768,1366,768,8-20-2022,11-30-22,104,depth_duration_stimuli/001235_2014-06-17_16-37-36_260595134347_rgbf000084-resize_4/001235_2014-06-17_16-37-36_260595134347_rgbf000084-resize_4-target.png,250,3.6605,1,2803,247,feet,jsons/v1_VE250_randls_71_rotated.json,665526,842663,62,Woman
104,636755,DepthScenes,duration_manipulation_targetAtFixation,jsons/v1_VE250_randls_71_rotated.json,http://54.235.29.9/FacialAge/BNav_EC2/DepthDuration/v2_depth_duration_MTurk/v2_DepthDuration_HTML.html#11,11,1366,768,1366,768,8-20-2022,11-30-22,105,depth_duration_stimuli/000788_2014-06-08_22-34-36_260595134347_rgbf000131-resize_1/000788_2014-06-08_22-34-36_260595134347_rgbf000131-resize_1-target.png,250,3.359,1,2670,246,feet,jsons/v1_VE250_randls_71_rotated.json,665526,842663,62,Woman
105,636755,DepthScenes,duration_manipulation_targetAtFixation,jsons/v1_VE250_randls_71_rotated.json,http://54.235.29.9/FacialAge/BNav_EC2/DepthDuration/v2_depth_duration_MTurk/v2_DepthDuration_HTML.html#11,11,1366,768,1366,768,8-20-2022,11-30-22,106,depth_duration_stimuli/003010_2014-06-15_12-54-35_094959634447_rgbf000112-resize_0/003010_2014-06-15_12-54-35_094959634447_rgbf000112-resize_0-target.png,250,3.1185,1,2447,251,feet,jsons/v1_VE250_randls_71_rotated.json,665526,842663,62,Woman
106,636755,DepthScenes,duration_manipulation_targetAtFixation,jsons/v1_VE250_randls_71_rotated.json,http://54.235.29.9/FacialAge/BNav_EC2/DepthDuration/v2_depth_duration_MTurk/v2_DepthDuration_HTML.html#11,11,1366,768,1366,768,8-20-2022,11-30-22,107,depth_duration_stimuli/001810_2014-06-26_20-51-35_260595134347_rgbf000040-resize_3/001810_2014-06-26_20-51-35_260595134347_rgbf000040-resize_3-target.png,250,2.2525,1,1941,243,feet,jsons/v1_VE250_randls_71_rotated.json,665526,842663,62,Woman
107,636755,DepthScenes,duration_manipulation_targetAtFixation,jsons/v1_VE250_randls_71_rotated.json,http://54.235.29.9/FacialAge/BNav_EC2/DepthDuration/v2_depth_duration_MTurk/v2_DepthDuration_HTML.html#11,11,1366,768,1366,768,8-20-2022,11-30-22,108,depth_duration_stimuli/002657_2014-06-13_15-29-54_094959634447_rgbf000150-resize_1/002657_2014-06-13_15-29-54_094959634447_rgbf000150-resize_1-target.png,250,4.919,1,2339,244,feet,jsons/v1_VE250_randls_71_rotated.json,665526,842663,62,Woman
108,636755,DepthScenes,duration_manipulation_targetAtFixation,jsons/v1_VE250_randls_71_rotated.json,http://54.235.29.9/FacialAge/BNav_EC2/DepthDuration/v2_depth_duration_MTurk/v2_DepthDuration_HTML.html#11,11,1366,768,1366,768,8-20-2022,11-30-22,109,depth_duration_stimuli/002375_2014-06-28_20-13-44_260595134347_rgbf000032-resize_1/002375_2014-06-28_20-13-44_260595134347_rgbf000032-resize_1-target.png,250,4.0175,1,2158,254,feet,jsons/v1_VE250_randls_71_rotated.json,665526,842663,62,Woman
109,636755,DepthScenes,duration_manipulation_targetAtFixation,jsons/v1_VE250_randls_71_rotated.json,http://54.235.29.9/FacialAge/BNav_EC2/DepthDuration/v2_depth_duration_MTurk/v2_DepthDuration_HTML.html#11,11,1366,768,1366,768,8-20-2022,11-30-22,110,depth_duration_stimuli/002660_2014-06-13_15-44-18_094959634447_rgbf001878-resize_2/002660_2014-06-13_15-44-18_094959634447_rgbf001878-resize_2-target.png,250,3.576,1,2446,249,feet,jsons/v1_VE250_randls_71_rotated.json,665526,842663,62,Woman
110,636755,DepthScenes,duration_manipulation_targetAtFixation,jsons/v1_VE250_randls_71_rotated.json,http://54.235.29.9/FacialAge/BNav_EC2/DepthDuration/v2_depth_duration_MTurk/v2_DepthDuration_HTML.html#11,11,1366,768,1366,768,8-20-2022,11-30-22,111,depth_duration_stimuli/002153_2014-06-25_21-27-18_260595134347_rgbf000038-resize_5/002153_2014-06-25_21-27-18_260595134347_rgbf000038-resize_5-target.png,250,2.505,1,2547,251,feet,jsons/v1_VE250_randls_71_rotated.json,665526,842663,62,Woman
111,636755,DepthScenes,duration_manipulation_targetAtFixation,jsons/v1_VE250_randls_71_rotated.json,http://54.235.29.9/FacialAge/BNav_EC2/DepthDuration/v2_depth_duration_MTurk/v2_DepthDuration_HTML.html#11,11,1366,768,1366,768,8-20-2022,11-30-22,112,depth_duration_stimuli/000556_2014-06-09_22-42-56_260595134347_rgbf000214-resize_1/000556_2014-06-09_22-42-56_260595134347_rgbf000214-resize_1-target.png,250,4.8415,1,2552,251,feet,jsons/v1_VE250_randls_71_rotated.json,665526,842663,62,Woman
112,636755,DepthScenes,duration_manipulation_targetAtFixation,jsons/v1_VE250_randls_71_rotated.json,http://54.235.29.9/FacialAge/BNav_EC2/DepthDuration/v2_depth_duration_MTurk/v2_DepthDuration_HTML.html#11,11,1366,768,1366,768,8-20-2022,11-30-22,113,depth_duration_stimuli/001158_2014-06-17_15-32-16_260595134347_rgbf000138-resize_2/001158_2014-06-17_15-32-16_260595134347_rgbf000138-resize_2-target.png,250,4.5315,1,2189,254,feet,jsons/v1_VE250_randls_71_rotated.json,665526,842663,62,Woman
113,636755,DepthScenes,duration_manipulation_targetAtFixation,jsons/v1_VE250_randls_71_rotated.json,http://54.235.29.9/FacialAge/BNav_EC2/DepthDuration/v2_depth_duration_MTurk/v2_DepthDuration_HTML.html#11,11,1366,768,1366,768,8-20-2022,11-30-22,114,depth_duration_stimuli/001828_2014-06-26_21-40-03_260595134347_rgbf000024-resize_0/001828_2014-06-26_21-40-03_260595134347_rgbf000024-resize_0-target.png,250,4.8260000000000005,1,1869,249,feet,jsons/v1_VE250_randls_71_rotated.json,665526,842663,62,Woman
114,636755,DepthScenes,duration_manipulation_targetAtFixation,jsons/v1_VE250_randls_71_rotated.json,http://54.235.29.9/FacialAge/BNav_EC2/DepthDuration/v2_depth_duration_MTurk/v2_DepthDuration_HTML.html#11,11,1366,768,1366,768,8-20-2022,11-30-22,115,depth_duration_stimuli/000009_2014-05-26_14-32-05_260595134347_rgbf000034-resize_3/000009_2014-05-26_14-32-05_260595134347_rgbf000034-resize_3-target.png,250,3.8715,1,2796,250,feet,jsons/v1_VE250_randls_71_rotated.json,665526,842663,62,Woman
115,636755,DepthScenes,duration_manipulation_targetAtFixation,jsons/v1_VE250_randls_71_rotated.json,http://54.235.29.9/FacialAge/BNav_EC2/DepthDuration/v2_depth_duration_MTurk/v2_DepthDuration_HTML.html#11,11,1366,768,1366,768,8-20-2022,11-30-22,116,depth_duration_stimuli/000943_2014-06-09_19-31-07_260595134347_rgbf000128-resize_1/000943_2014-06-09_19-31-07_260595134347_rgbf000128-resize_1-target.png,250,1.9765,1,2316,244,feet,jsons/v1_VE250_randls_71_rotated.json,665526,842663,62,Woman
116,636755,DepthScenes,duration_manipulation_targetAtFixation,jsons/v1_VE250_randls_71_rotated.json,http://54.235.29.9/FacialAge/BNav_EC2/DepthDuration/v2_depth_duration_MTurk/v2_DepthDuration_HTML.html#11,11,1366,768,1366,768,8-20-2022,11-30-22,117,depth_duration_stimuli/003070_2014-06-15_14-58-27_094959634447_rgbf000150-resize_3/003070_2014-06-15_14-58-27_094959634447_rgbf000150-resize_3-target.png,250,2.9415,1,2488,247,feet,jsons/v1_VE250_randls_71_rotated.json,665526,842663,62,Woman
117,636755,DepthScenes,duration_manipulation_targetAtFixation,jsons/v1_VE250_randls_71_rotated.json,http://54.235.29.9/FacialAge/BNav_EC2/DepthDuration/v2_depth_duration_MTurk/v2_DepthDuration_HTML.html#11,11,1366,768,1366,768,8-20-2022,11-30-22,118,depth_duration_stimuli/002875_2014-06-01_15-19-00_094959634447_rgbf000151-resize_1/002875_2014-06-01_15-19-00_094959634447_rgbf000151-resize_1-target.png,250,1.9675,1,2418,251,feet,jsons/v1_VE250_randls_71_rotated.json,665526,842663,62,Woman
118,636755,DepthScenes,duration_manipulation_targetAtFixation,jsons/v1_VE250_randls_71_rotated.json,http://54.235.29.9/FacialAge/BNav_EC2/DepthDuration/v2_depth_duration_MTurk/v2_DepthDuration_HTML.html#11,11,1366,768,1366,768,8-20-2022,11-30-22,119,depth_duration_stimuli/001011_2014-06-08_23-18-54_260595134347_rgbf000044-resize_4/001011_2014-06-08_23-18-54_260595134347_rgbf000044-resize_4-target.png,250,2.4730000000000003,1,2189,257,feet,jsons/v1_VE250_randls_71_rotated.json,665526,842663,62,Woman
119,636755,DepthScenes,duration_manipulation_targetAtFixation,jsons/v1_VE250_randls_71_rotated.json,http://54.235.29.9/FacialAge/BNav_EC2/DepthDuration/v2_depth_duration_MTurk/v2_DepthDuration_HTML.html#11,11,1366,768,1366,768,8-20-2022,11-30-22,120,depth_duration_stimuli/000787_2014-06-08_22-33-53_260595134347_rgbf000175-resize_1/000787_2014-06-08_22-33-53_260595134347_rgbf000175-resize-original.jpg,250,4.784,1,2271,253,feet,jsons/v1_VE250_randls_71_rotated.json,665526,842663,62,Woman
120,636755,DepthScenes,duration_manipulation_targetAtFixation,jsons/v1_VE250_randls_71_rotated.json,http://54.235.29.9/FacialAge/BNav_EC2/DepthDuration/v2_depth_duration_MTurk/v2_DepthDuration_HTML.html#11,11,1366,768,1366,768,8-20-2022,11-30-22,121,depth_duration_stimuli/002568_2014-06-24_13-59-21_094959634447_rgbf000062-resize_4/002568_2014-06-24_13-59-21_094959634447_rgbf000062-resize_4-target.png,250,3.015,1,2048,262,feet,jsons/v1_VE250_randls_71_rotated.json,665526,842663,62,Woman
121,636755,DepthScenes,duration_manipulation_targetAtFixation,jsons/v1_VE250_randls_71_rotated.json,http://54.235.29.9/FacialAge/BNav_EC2/DepthDuration/v2_depth_duration_MTurk/v2_DepthDuration_HTML.html#11,11,1366,768,1366,768,8-20-2022,11-30-22,122,depth_duration_stimuli/003492_2014-05-21_15-50-55_094959634447_rgbf000828-resize_1/003492_2014-05-21_15-50-55_094959634447_rgbf000828-resize_1-target.png,250,4.06875,1,2211,261,feet,jsons/v1_VE250_randls_71_rotated.json,665526,842663,62,Woman
122,636755,DepthScenes,duration_manipulation_targetAtFixation,jsons/v1_VE250_randls_71_rotated.json,http://54.235.29.9/FacialAge/BNav_EC2/DepthDuration/v2_depth_duration_MTurk/v2_DepthDuration_HTML.html#11,11,1366,768,1366,768,8-20-2022,11-30-22,123,depth_duration_stimuli/001516_2014-06-20_16-25-09_260595134347_rgbf000076-resize_2/001516_2014-06-20_16-25-09_260595134347_rgbf000076-resize_2-target.png,250,1.7445,1,2688,246,feet,jsons/v1_VE250_randls_71_rotated.json,665526,842663,62,Woman
123,636755,DepthScenes,duration_manipulation_targetAtFixation,jsons/v1_VE250_randls_71_rotated.json,http://54.235.29.9/FacialAge/BNav_EC2/DepthDuration/v2_depth_duration_MTurk/v2_DepthDuration_HTML.html#11,11,1366,768,1366,768,8-20-2022,11-30-22,124,depth_duration_stimuli/002118_2014-06-25_20-32-08_260595134347_rgbf000078-resize_1/002118_2014-06-25_20-32-08_260595134347_rgbf000078-resize_1-target.png,250,2.6460000000000004,1,2145,248,feet,jsons/v1_VE250_randls_71_rotated.json,665526,842663,62,Woman
124,636755,DepthScenes,duration_manipulation_targetAtFixation,jsons/v1_VE250_randls_71_rotated.json,http://54.235.29.9/FacialAge/BNav_EC2/DepthDuration/v2_depth_duration_MTurk/v2_DepthDuration_HTML.html#11,11,1366,768,1366,768,8-20-2022,11-30-22,125,depth_duration_stimuli/000457_2014-06-08_16-52-43_260595134347_rgbf000199-resize_1/000457_2014-06-08_16-52-43_260595134347_rgbf000199-resize_1-target.png,250,3.6489999999999996,1,2406,251,feet,jsons/v1_VE250_randls_71_rotated.json,665526,842663,62,Woman
125,636755,DepthScenes,duration_manipulation_targetAtFixation,jsons/v1_VE250_randls_71_rotated.json,http://54.235.29.9/FacialAge/BNav_EC2/DepthDuration/v2_depth_duration_MTurk/v2_DepthDuration_HTML.html#11,11,1366,768,1366,768,8-20-2022,11-30-22,126,depth_duration_stimuli/000929_2014-06-09_16-33-19_260595134347_rgbf000139-resize_0/000929_2014-06-09_16-33-19_260595134347_rgbf000139-resize_0-target.png,250,2.8680000000000003,1,3484,248,feet,jsons/v1_VE250_randls_71_rotated.json,665526,842663,62,Woman
126,636755,DepthScenes,duration_manipulation_targetAtFixation,jsons/v1_VE250_randls_71_rotated.json,http://54.235.29.9/FacialAge/BNav_EC2/DepthDuration/v2_depth_duration_MTurk/v2_DepthDuration_HTML.html#11,11,1366,768,1366,768,8-20-2022,11-30-22,127,depth_duration_stimuli/001132_2014-06-17_14-48-54_260595134347_rgbf000100-resize_2/001132_2014-06-17_14-48-54_260595134347_rgbf000100-resize_2-target.png,250,3.753,1,2808,259,feet,jsons/v1_VE250_randls_71_rotated.json,665526,842663,62,Woman
127,636755,DepthScenes,duration_manipulation_targetAtFixation,jsons/v1_VE250_randls_71_rotated.json,http://54.235.29.9/FacialAge/BNav_EC2/DepthDuration/v2_depth_duration_MTurk/v2_DepthDuration_HTML.html#11,11,1366,768,1366,768,8-20-2022,11-30-22,128,depth_duration_stimuli/001133_2014-06-17_14-49-16_260595134347_rgbf000100-resize_0/001133_2014-06-17_14-49-16_260595134347_rgbf000100-resize_0-target.png,250,4.2115,1,3554,249,feet,jsons/v1_VE250_randls_71_rotated.json,665526,842663,62,Woman
128,636755,DepthScenes,duration_manipulation_targetAtFixation,jsons/v1_VE250_randls_71_rotated.json,http://54.235.29.9/FacialAge/BNav_EC2/DepthDuration/v2_depth_duration_MTurk/v2_DepthDuration_HTML.html#11,11,1366,768,1366,768,8-20-2022,11-30-22,129,depth_duration_stimuli/002444_2014-06-28_20-32-08_260595134347_rgbf000027-resize_0/002444_2014-06-28_20-32-08_260595134347_rgbf000027-resize_0-target.png,250,4.388999999999999,1,4027,246,feet,jsons/v1_VE250_randls_71_rotated.json,665526,842663,62,Woman
129,636755,DepthScenes,duration_manipulation_targetAtFixation,jsons/v1_VE250_randls_71_rotated.json,http://54.235.29.9/FacialAge/BNav_EC2/DepthDuration/v2_depth_duration_MTurk/v2_DepthDuration_HTML.html#11,11,1366,768,1366,768,8-20-2022,11-30-22,130,depth_duration_stimuli/000436_2014-06-09_22-25-11_260595134347_rgbf000137-resize_1/000436_2014-06-09_22-25-11_260595134347_rgbf000137-resize_1-target.png,250,4.0705,1,9294,256,feet,jsons/v1_VE250_randls_71_rotated.json,665526,842663,62,Woman
130,636755,DepthScenes,duration_manipulation_targetAtFixation,jsons/v1_VE250_randls_71_rotated.json,http://54.235.29.9/FacialAge/BNav_EC2/DepthDuration/v2_depth_duration_MTurk/v2_DepthDuration_HTML.html#11,11,1366,768,1366,768,8-20-2022,11-30-22,131,depth_duration_stimuli/002995_2014-06-15_12-31-26_094959634447_rgbf000150-resize_1/002995_2014-06-15_12-31-26_094959634447_rgbf000150-resize_1-target.png,250,3.8360000000000003,1,18633,246,feet,jsons/v1_VE250_randls_71_rotated.json,665526,842663,62,Woman
131,636755,DepthScenes,duration_manipulation_targetAtFixation,jsons/v1_VE250_randls_71_rotated.json,http://54.235.29.9/FacialAge/BNav_EC2/DepthDuration/v2_depth_duration_MTurk/v2_DepthDuration_HTML.html#11,11,1366,768,1366,768,8-20-2022,11-30-22,132,depth_duration_stimuli/002748_2014-06-22_19-07-22_094959634447_rgbf000078-resize_1/002748_2014-06-22_19-07-22_094959634447_rgbf000078-resize_1-target.png,250,4.6705,1,2659,242,feet,jsons/v1_VE250_randls_71_rotated.json,665526,842663,62,Woman
132,636755,DepthScenes,duration_manipulation_targetAtFixation,jsons/v1_VE250_randls_71_rotated.json,http://54.235.29.9/FacialAge/BNav_EC2/DepthDuration/v2_depth_duration_MTurk/v2_DepthDuration_HTML.html#11,11,1366,768,1366,768,8-20-2022,11-30-22,133,depth_duration_stimuli/001571_2014-06-20_17-21-32_260595134347_rgbf000089-resize_1/001571_2014-06-20_17-21-32_260595134347_rgbf000089-resize_1-target.png,250,1.86,1,2805,244,feet,jsons/v1_VE250_randls_71_rotated.json,665526,842663,62,Woman
133,636755,DepthScenes,duration_manipulation_targetAtFixation,jsons/v1_VE250_randls_71_rotated.json,http://54.235.29.9/FacialAge/BNav_EC2/DepthDuration/v2_depth_duration_MTurk/v2_DepthDuration_HTML.html#11,11,1366,768,1366,768,8-20-2022,11-30-22,134,depth_duration_stimuli/002272_2014-06-28_18-53-56_260595134347_rgbf000067-resize_2/002272_2014-06-28_18-53-56_260595134347_rgbf000067-resize_2-target.png,250,1.138,1,4538,250,feet,jsons/v1_VE250_randls_71_rotated.json,665526,842663,62,Woman
134,636755,DepthScenes,duration_manipulation_targetAtFixation,jsons/v1_VE250_randls_71_rotated.json,http://54.235.29.9/FacialAge/BNav_EC2/DepthDuration/v2_depth_duration_MTurk/v2_DepthDuration_HTML.html#11,11,1366,768,1366,768,8-20-2022,11-30-22,135,depth_duration_stimuli/000375_2014-06-08_11-17-29_260595134347_rgbf000133-resize_2/000375_2014-06-08_11-17-29_260595134347_rgbf000133-resize-original.jpg,250,4.718,1,3955,250,feet,jsons/v1_VE250_randls_71_rotated.json,665526,842663,62,Woman
135,636755,DepthScenes,duration_manipulation_targetAtFixation,jsons/v1_VE250_randls_71_rotated.json,http://54.235.29.9/FacialAge/BNav_EC2/DepthDuration/v2_depth_duration_MTurk/v2_DepthDuration_HTML.html#11,11,1366,768,1366,768,8-20-2022,11-30-22,136,depth_duration_stimuli/000866_2014-06-09_20-45-42_260595134347_rgbf000139-resize_1/000866_2014-06-09_20-45-42_260595134347_rgbf000139-resize_1-target.png,250,3.2155,1,2625,248,feet,jsons/v1_VE250_randls_71_rotated.json,665526,842663,62,Woman
136,636755,DepthScenes,duration_manipulation_targetAtFixation,jsons/v1_VE250_randls_71_rotated.json,http://54.235.29.9/FacialAge/BNav_EC2/DepthDuration/v2_depth_duration_MTurk/v2_DepthDuration_HTML.html#11,11,1366,768,1366,768,8-20-2022,11-30-22,137,depth_duration_stimuli/002989_2014-06-15_12-25-03_094959634447_rgbf000150-resize_3/002989_2014-06-15_12-25-03_094959634447_rgbf000150-resize_3-target.png,250,4.1975,1,2642,235,feet,jsons/v1_VE250_randls_71_rotated.json,665526,842663,62,Woman
137,636755,DepthScenes,duration_manipulation_targetAtFixation,jsons/v1_VE250_randls_71_rotated.json,http://54.235.29.9/FacialAge/BNav_EC2/DepthDuration/v2_depth_duration_MTurk/v2_DepthDuration_HTML.html#11,11,1366,768,1366,768,8-20-2022,11-30-22,138,depth_duration_stimuli/002199_2014-06-28_18-33-56_260595134347_rgbf000074-resize_0/002199_2014-06-28_18-33-56_260595134347_rgbf000074-resize_0-target.png,250,1.996,1,2417,256,feet,jsons/v1_VE250_randls_71_rotated.json,665526,842663,62,Woman
138,636755,DepthScenes,duration_manipulation_targetAtFixation,jsons/v1_VE250_randls_71_rotated.json,http://54.235.29.9/FacialAge/BNav_EC2/DepthDuration/v2_depth_duration_MTurk/v2_DepthDuration_HTML.html#11,11,1366,768,1366,768,8-20-2022,11-30-22,139,depth_duration_stimuli/001056_2014-06-08_18-46-44_260595134347_rgbf000068-resize_0/001056_2014-06-08_18-46-44_260595134347_rgbf000068-resize_0-target.png,250,2.6625,1,2957,255,feet,jsons/v1_VE250_randls_71_rotated.json,665526,842663,62,Woman
139,636755,DepthScenes,duration_manipulation_targetAtFixation,jsons/v1_VE250_randls_71_rotated.json,http://54.235.29.9/FacialAge/BNav_EC2/DepthDuration/v2_depth_duration_MTurk/v2_DepthDuration_HTML.html#11,11,1366,768,1366,768,8-20-2022,11-30-22,140,depth_duration_stimuli/002637_2014-06-24_14-51-13_094959634447_rgbf000066-resize_4/002637_2014-06-24_14-51-13_094959634447_rgbf000066-resize_4-target.png,250,1.9955,1,2500,244,feet,jsons/v1_VE250_randls_71_rotated.json,665526,842663,62,Woman
140,636755,DepthScenes,duration_manipulation_targetAtFixation,jsons/v1_VE250_randls_71_rotated.json,http://54.235.29.9/FacialAge/BNav_EC2/DepthDuration/v2_depth_duration_MTurk/v2_DepthDuration_HTML.html#11,11,1366,768,1366,768,8-20-2022,11-30-22,141,depth_duration_stimuli/003534_2014-05-22_15-06-10_094959634447_rgbf000102-resize_4/003534_2014-05-22_15-06-10_094959634447_rgbf000102-resize_4-target.png,250,1.426,1,2680,246,feet,jsons/v1_VE250_randls_71_rotated.json,665526,842663,62,Woman
141,636755,DepthScenes,duration_manipulation_targetAtFixation,jsons/v1_VE250_randls_71_rotated.json,http://54.235.29.9/FacialAge/BNav_EC2/DepthDuration/v2_depth_duration_MTurk/v2_DepthDuration_HTML.html#11,11,1366,768,1366,768,8-20-2022,11-30-22,142,depth_duration_stimuli/000483_2014-06-09_20-41-45_260595134347_rgbf000116-resize_4/000483_2014-06-09_20-41-45_260595134347_rgbf000116-resize_4-target.png,250,1.337,1,2437,237,feet,jsons/v1_VE250_randls_71_rotated.json,665526,842663,62,Woman
142,636755,DepthScenes,duration_manipulation_targetAtFixation,jsons/v1_VE250_randls_71_rotated.json,http://54.235.29.9/FacialAge/BNav_EC2/DepthDuration/v2_depth_duration_MTurk/v2_DepthDuration_HTML.html#11,11,1366,768,1366,768,8-20-2022,11-30-22,143,depth_duration_stimuli/000469_2014-06-09_19-42-10_260595134347_rgbf000081-resize_1/000469_2014-06-09_19-42-10_260595134347_rgbf000081-resize_1-target.png,250,1.652,1,2432,247,feet,jsons/v1_VE250_randls_71_rotated.json,665526,842663,62,Woman
143,636755,DepthScenes,duration_manipulation_targetAtFixation,jsons/v1_VE250_randls_71_rotated.json,http://54.235.29.9/FacialAge/BNav_EC2/DepthDuration/v2_depth_duration_MTurk/v2_DepthDuration_HTML.html#11,11,1366,768,1366,768,8-20-2022,11-30-22,144,depth_duration_stimuli/002209_2014-06-28_18-36-10_260595134347_rgbf000051-resize_1/002209_2014-06-28_18-36-10_260595134347_rgbf000051-resize_1-target.png,250,2.057,1,3038,251,feet,jsons/v1_VE250_randls_71_rotated.json,665526,842663,62,Woman
144,636755,DepthScenes,duration_manipulation_targetAtFixation,jsons/v1_VE250_randls_71_rotated.json,http://54.235.29.9/FacialAge/BNav_EC2/DepthDuration/v2_depth_duration_MTurk/v2_DepthDuration_HTML.html#11,11,1366,768,1366,768,8-20-2022,11-30-22,145,depth_duration_stimuli/002763_2014-06-22_19-13-10_094959634447_rgbf000075-resize_4/002763_2014-06-22_19-13-10_094959634447_rgbf000075-resize_4-target.png,250,1.68375,1,5483,258,feet,jsons/v1_VE250_randls_71_rotated.json,665526,842663,62,Woman
145,636755,DepthScenes,duration_manipulation_targetAtFixation,jsons/v1_VE250_randls_71_rotated.json,http://54.235.29.9/FacialAge/BNav_EC2/DepthDuration/v2_depth_duration_MTurk/v2_DepthDuration_HTML.html#11,11,1366,768,1366,768,8-20-2022,11-30-22,146,depth_duration_stimuli/000103_2014-05-14_22-01-17_260595134347_rgbf000152-resize_5/000103_2014-05-14_22-01-17_260595134347_rgbf000152-resize_5-target.png,250,1.993,1,2816,262,feet,jsons/v1_VE250_randls_71_rotated.json,665526,842663,62,Woman
146,636755,DepthScenes,duration_manipulation_targetAtFixation,jsons/v1_VE250_randls_71_rotated.json,http://54.235.29.9/FacialAge/BNav_EC2/DepthDuration/v2_depth_duration_MTurk/v2_DepthDuration_HTML.html#11,11,1366,768,1366,768,8-20-2022,11-30-22,147,depth_duration_stimuli/001555_2014-06-20_17-12-10_260595134347_rgbf000065-resize_4/001555_2014-06-20_17-12-10_260595134347_rgbf000065-resize_4-target.png,250,1.633,1,2580,255,feet,jsons/v1_VE250_randls_71_rotated.json,665526,842663,62,Woman
147,636755,DepthScenes,duration_manipulation_targetAtFixation,jsons/v1_VE250_randls_71_rotated.json,http://54.235.29.9/FacialAge/BNav_EC2/DepthDuration/v2_depth_duration_MTurk/v2_DepthDuration_HTML.html#11,11,1366,768,1366,768,8-20-2022,11-30-22,148,depth_duration_stimuli/000854_2014-06-09_19-43-13_260595134347_rgbf000066-resize_0/000854_2014-06-09_19-43-13_260595134347_rgbf000066-resize_0-target.png,250,3.068,1,2494,250,feet,jsons/v1_VE250_randls_71_rotated.json,665526,842663,62,Woman
148,636755,DepthScenes,duration_manipulation_targetAtFixation,jsons/v1_VE250_randls_71_rotated.json,http://54.235.29.9/FacialAge/BNav_EC2/DepthDuration/v2_depth_duration_MTurk/v2_DepthDuration_HTML.html#11,11,1366,768,1366,768,8-20-2022,11-30-22,149,depth_duration_stimuli/000758_2014-06-08_22-05-08_260595134347_rgbf000085-resize_0/000758_2014-06-08_22-05-08_260595134347_rgbf000085-resize_0-target.png,250,3.3810000000000002,1,2275,247,feet,jsons/v1_VE250_randls_71_rotated.json,665526,842663,62,Woman
149,636755,DepthScenes,duration_manipulation_targetAtFixation,jsons/v1_VE250_randls_71_rotated.json,http://54.235.29.9/FacialAge/BNav_EC2/DepthDuration/v2_depth_duration_MTurk/v2_DepthDuration_HTML.html#11,11,1366,768,1366,768,8-20-2022,11-30-22,150,depth_duration_stimuli/000734_2014-06-08_17-39-11_260595134347_rgbf000128-resize_2/000734_2014-06-08_17-39-11_260595134347_rgbf000128-resize_2-target.png,250,4.098,1,3619,251,feet,jsons/v1_VE250_randls_71_rotated.json,665526,842663,62,Woman
150,636755,DepthScenes,duration_manipulation_targetAtFixation,jsons/v1_VE250_randls_71_rotated.json,http://54.235.29.9/FacialAge/BNav_EC2/DepthDuration/v2_depth_duration_MTurk/v2_DepthDuration_HTML.html#11,11,1366,768,1366,768,8-20-2022,11-30-22,151,depth_duration_stimuli/000739_2014-06-08_18-45-58_260595134347_rgbf000068-resize_1/000739_2014-06-08_18-45-58_260595134347_rgbf000068-resize_1-target.png,250,3.534,1,3543,246,feet,jsons/v1_VE250_randls_71_rotated.json,665526,842663,62,Woman
151,636755,DepthScenes,duration_manipulation_targetAtFixation,jsons/v1_VE250_randls_71_rotated.json,http://54.235.29.9/FacialAge/BNav_EC2/DepthDuration/v2_depth_duration_MTurk/v2_DepthDuration_HTML.html#11,11,1366,768,1366,768,8-20-2022,11-30-22,152,depth_duration_stimuli/000569_2014-06-09_22-51-47_260595134347_rgbf000141-resize_3/000569_2014-06-09_22-51-47_260595134347_rgbf000141-resize-original.jpg,250,4.512,1,2378,248,feet,jsons/v1_VE250_randls_71_rotated.json,665526,842663,62,Woman
152,636755,DepthScenes,duration_manipulation_targetAtFixation,jsons/v1_VE250_randls_71_rotated.json,http://54.235.29.9/FacialAge/BNav_EC2/DepthDuration/v2_depth_duration_MTurk/v2_DepthDuration_HTML.html#11,11,1366,768,1366,768,8-20-2022,11-30-22,153,depth_duration_stimuli/002103_2014-06-25_20-00-40_260595134347_rgbf000049-resize_0/002103_2014-06-25_20-00-40_260595134347_rgbf000049-resize_0-target.png,250,4.105,1,2218,257,feet,jsons/v1_VE250_randls_71_rotated.json,665526,842663,62,Woman
153,636755,DepthScenes,duration_manipulation_targetAtFixation,jsons/v1_VE250_randls_71_rotated.json,http://54.235.29.9/FacialAge/BNav_EC2/DepthDuration/v2_depth_duration_MTurk/v2_DepthDuration_HTML.html#11,11,1366,768,1366,768,8-20-2022,11-30-22,154,depth_duration_stimuli/002039_2014-06-24_20-22-38_260595134347_rgbf000084-resize_1/002039_2014-06-24_20-22-38_260595134347_rgbf000084-resize_1-target.png,250,4.408,1,2131,257,feet,jsons/v1_VE250_randls_71_rotated.json,665526,842663,62,Woman
154,636755,DepthScenes,duration_manipulation_targetAtFixation,jsons/v1_VE250_randls_71_rotated.json,http://54.235.29.9/FacialAge/BNav_EC2/DepthDuration/v2_depth_duration_MTurk/v2_DepthDuration_HTML.html#11,11,1366,768,1366,768,8-20-2022,11-30-22,155,depth_duration_stimuli/002545_2014-06-24_13-38-53_094959634447_rgbf000080-resize_4/002545_2014-06-24_13-38-53_094959634447_rgbf000080-resize_4-target.png,250,1.9205,1,2179,262,feet,jsons/v1_VE250_randls_71_rotated.json,665526,842663,62,Woman
155,636755,DepthScenes,duration_manipulation_targetAtFixation,jsons/v1_VE250_randls_71_rotated.json,http://54.235.29.9/FacialAge/BNav_EC2/DepthDuration/v2_depth_duration_MTurk/v2_DepthDuration_HTML.html#11,11,1366,768,1366,768,8-20-2022,11-30-22,156,depth_duration_stimuli/001092_2014-06-15_17-34-58_260595134347_rgbf000171-resize_3/001092_2014-06-15_17-34-58_260595134347_rgbf000171-resize_3-target.png,250,2.6935,1,2101,249,feet,jsons/v1_VE250_randls_71_rotated.json,665526,842663,62,Woman
156,636755,DepthScenes,duration_manipulation_targetAtFixation,jsons/v1_VE250_randls_71_rotated.json,http://54.235.29.9/FacialAge/BNav_EC2/DepthDuration/v2_depth_duration_MTurk/v2_DepthDuration_HTML.html#11,11,1366,768,1366,768,8-20-2022,11-30-22,157,depth_duration_stimuli/001584_2014-06-20_11-07-43_260595134347_rgbf000002-resize_1/001584_2014-06-20_11-07-43_260595134347_rgbf000002-resize_1-target.png,250,3.53,1,1956,251,feet,jsons/v1_VE250_randls_71_rotated.json,665526,842663,62,Woman
157,636755,DepthScenes,duration_manipulation_targetAtFixation,jsons/v1_VE250_randls_71_rotated.json,http://54.235.29.9/FacialAge/BNav_EC2/DepthDuration/v2_depth_duration_MTurk/v2_DepthDuration_HTML.html#11,11,1366,768,1366,768,8-20-2022,11-30-22,158,depth_duration_stimuli/003621_2014-05-23_18-06-08_094959634447_rgbf000101-resize_1/003621_2014-05-23_18-06-08_094959634447_rgbf000101-resize_1-target.png,250,3.9835,1,2224,239,feet,jsons/v1_VE250_randls_71_rotated.json,665526,842663,62,Woman
158,636755,DepthScenes,duration_manipulation_targetAtFixation,jsons/v1_VE250_randls_71_rotated.json,http://54.235.29.9/FacialAge/BNav_EC2/DepthDuration/v2_depth_duration_MTurk/v2_DepthDuration_HTML.html#11,11,1366,768,1366,768,8-20-2022,11-30-22,159,depth_duration_stimuli/000665_2014-06-09_20-42-35_260595134347_rgbf000110-resize_1/000665_2014-06-09_20-42-35_260595134347_rgbf000110-resize_1-target.png,250,3.057,1,4528,263,feet,jsons/v1_VE250_randls_71_rotated.json,665526,842663,62,Woman
159,636755,DepthScenes,duration_manipulation_targetAtFixation,jsons/v1_VE250_randls_71_rotated.json,http://54.235.29.9/FacialAge/BNav_EC2/DepthDuration/v2_depth_duration_MTurk/v2_DepthDuration_HTML.html#11,11,1366,768,1366,768,8-20-2022,11-30-22,160,depth_duration_stimuli/001150_2014-06-17_15-27-34_260595134347_rgbf000108-resize_2/001150_2014-06-17_15-27-34_260595134347_rgbf000108-resize_2-target.png,250,4.0325,1,3167,251,feet,jsons/v1_VE250_randls_71_rotated.json,665526,842663,62,Woman
160,636755,DepthScenes,duration_manipulation_targetAtFixation,jsons/v1_VE250_randls_71_rotated.json,http://54.235.29.9/FacialAge/BNav_EC2/DepthDuration/v2_depth_duration_MTurk/v2_DepthDuration_HTML.html#11,11,1366,768,1366,768,8-20-2022,11-30-22,161,depth_duration_stimuli/002323_2014-06-28_20-01-54_260595134347_rgbf000051-resize_4/002323_2014-06-28_20-01-54_260595134347_rgbf000051-resize_4-target.png,250,3.7310000000000003,1,2679,249,feet,jsons/v1_VE250_randls_71_rotated.json,665526,842663,62,Woman
161,636755,DepthScenes,duration_manipulation_targetAtFixation,jsons/v1_VE250_randls_71_rotated.json,http://54.235.29.9/FacialAge/BNav_EC2/DepthDuration/v2_depth_duration_MTurk/v2_DepthDuration_HTML.html#11,11,1366,768,1366,768,8-20-2022,11-30-22,162,depth_duration_stimuli/000917_2014-06-09_22-45-29_260595134347_rgbf000149-resize_3/000917_2014-06-09_22-45-29_260595134347_rgbf000149-resize_3-target.png,250,4.1865,1,2486,239,feet,jsons/v1_VE250_randls_71_rotated.json,665526,842663,62,Woman
162,636755,DepthScenes,duration_manipulation_targetAtFixation,jsons/v1_VE250_randls_71_rotated.json,http://54.235.29.9/FacialAge/BNav_EC2/DepthDuration/v2_depth_duration_MTurk/v2_DepthDuration_HTML.html#11,11,1366,768,1366,768,8-20-2022,11-30-22,163,depth_duration_stimuli/002750_2014-06-22_19-08-03_094959634447_rgbf000094-resize_4/002750_2014-06-22_19-08-03_094959634447_rgbf000094-resize_4-target.png,250,2.354,1,2274,239,feet,jsons/v1_VE250_randls_71_rotated.json,665526,842663,62,Woman
163,636755,DepthScenes,duration_manipulation_targetAtFixation,jsons/v1_VE250_randls_71_rotated.json,http://54.235.29.9/FacialAge/BNav_EC2/DepthDuration/v2_depth_duration_MTurk/v2_DepthDuration_HTML.html#11,11,1366,768,1366,768,8-20-2022,11-30-22,164,depth_duration_stimuli/002549_2014-06-24_13-41-39_094959634447_rgbf000022-resize_3/002549_2014-06-24_13-41-39_094959634447_rgbf000022-resize_3-target.png,250,1.476,1,2090,250,feet,jsons/v1_VE250_randls_71_rotated.json,665526,842663,62,Woman
