,subjID,experimentName,versionName,sequenceName,url,selected_row,windowWidth,windowHeight,screenWidth,screenHeight,startDate,startTime,trial,stimulus,duration,actual_depth,depth_estimate,trial_RT,log_sceneDuration,unitSelection,seq_filepath,experimentTime,totalTime,age,gender
0,636815,DepthScenes,duration_manipulation_targetAtFixation,jsons/v1_VE1000_randls_3.json,http://54.235.29.9/FacialAge/BNav_EC2/DepthDuration/v2_depth_duration_MTurk/v2_DepthDuration_HTML.html#450,450,1920,937,1920,1080,8-30-2022,7-8-44,1,depth_duration_stimuli/000368_2014-06-09_15-53-01_260595134347_rgbf000155-resize_2/000368_2014-06-09_15-53-01_260595134347_rgbf000155-resize_2-target.png,1000,2.4859999999999998,4,3503,1004,feet,jsons/v1_VE1000_randls_3.json,628624,865462,35,Man
1,636815,DepthScenes,duration_manipulation_targetAtFixation,jsons/v1_VE1000_randls_3.json,http://54.235.29.9/FacialAge/BNav_EC2/DepthDuration/v2_depth_duration_MTurk/v2_DepthDuration_HTML.html#450,450,1920,937,1920,1080,8-30-2022,7-8-44,2,depth_duration_stimuli/002678_2014-06-13_16-15-32_094959634447_rgbf000151-resize_6/002678_2014-06-13_16-15-32_094959634447_rgbf000151-resize_6-target.png,1000,2.1830000000000003,89,4484,1002,feet,jsons/v1_VE1000_randls_3.json,628624,865462,35,Man
2,636815,DepthScenes,duration_manipulation_targetAtFixation,jsons/v1_VE1000_randls_3.json,http://54.235.29.9/FacialAge/BNav_EC2/DepthDuration/v2_depth_duration_MTurk/v2_DepthDuration_HTML.html#450,450,1920,937,1920,1080,8-30-2022,7-8-44,3,depth_duration_stimuli/002445_2014-06-28_20-32-16_260595134347_rgbf000029-resize_4/002445_2014-06-28_20-32-16_260595134347_rgbf000029-resize_4-target.png,1000,2.5315,6,2951,995,feet,jsons/v1_VE1000_randls_3.json,628624,865462,35,Man
3,636815,DepthScenes,duration_manipulation_targetAtFixation,jsons/v1_VE1000_randls_3.json,http://54.235.29.9/FacialAge/BNav_EC2/DepthDuration/v2_depth_duration_MTurk/v2_DepthDuration_HTML.html#450,450,1920,937,1920,1080,8-30-2022,7-8-44,4,depth_duration_stimuli/000780_2014-06-08_22-28-29_260595134347_rgbf000126-resize_1/000780_2014-06-08_22-28-29_260595134347_rgbf000126-resize_1-target.png,1000,3.3825,12,2372,988,feet,jsons/v1_VE1000_randls_3.json,628624,865462,35,Man
4,636815,DepthScenes,duration_manipulation_targetAtFixation,jsons/v1_VE1000_randls_3.json,http://54.235.29.9/FacialAge/BNav_EC2/DepthDuration/v2_depth_duration_MTurk/v2_DepthDuration_HTML.html#450,450,1920,937,1920,1080,8-30-2022,7-8-44,5,depth_duration_stimuli/001167_2014-06-17_15-38-07_260595134347_rgbf000108-resize_0/001167_2014-06-17_15-38-07_260595134347_rgbf000108-resize_0-target.png,1000,1.8505,3,2203,999,feet,jsons/v1_VE1000_randls_3.json,628624,865462,35,Man
5,636815,DepthScenes,duration_manipulation_targetAtFixation,jsons/v1_VE1000_randls_3.json,http://54.235.29.9/FacialAge/BNav_EC2/DepthDuration/v2_depth_duration_MTurk/v2_DepthDuration_HTML.html#450,450,1920,937,1920,1080,8-30-2022,7-8-44,6,depth_duration_stimuli/003587_2014-05-23_16-48-02_094959634447_rgbf002384-resize_2/003587_2014-05-23_16-48-02_094959634447_rgbf002384-resize_2-target.png,1000,1.357,3,2636,998,feet,jsons/v1_VE1000_randls_3.json,628624,865462,35,Man
6,636815,DepthScenes,duration_manipulation_targetAtFixation,jsons/v1_VE1000_randls_3.json,http://54.235.29.9/FacialAge/BNav_EC2/DepthDuration/v2_depth_duration_MTurk/v2_DepthDuration_HTML.html#450,450,1920,937,1920,1080,8-30-2022,7-8-44,7,depth_duration_stimuli/002784_2014-06-22_19-26-30_094959634447_rgbf000083-resize_3/002784_2014-06-22_19-26-30_094959634447_rgbf000083-resize_3-target.png,1000,1.8046666666667,7,2193,995,feet,jsons/v1_VE1000_randls_3.json,628624,865462,35,Man
7,636815,DepthScenes,duration_manipulation_targetAtFixation,jsons/v1_VE1000_randls_3.json,http://54.235.29.9/FacialAge/BNav_EC2/DepthDuration/v2_depth_duration_MTurk/v2_DepthDuration_HTML.html#450,450,1920,937,1920,1080,8-30-2022,7-8-44,8,depth_duration_stimuli/001100_2014-06-15_17-46-26_260595134347_rgbf000225-resize_2/001100_2014-06-15_17-46-26_260595134347_rgbf000225-resize_2-target.png,1000,2.24,4,3096,998,feet,jsons/v1_VE1000_randls_3.json,628624,865462,35,Man
8,636815,DepthScenes,duration_manipulation_targetAtFixation,jsons/v1_VE1000_randls_3.json,http://54.235.29.9/FacialAge/BNav_EC2/DepthDuration/v2_depth_duration_MTurk/v2_DepthDuration_HTML.html#450,450,1920,937,1920,1080,8-30-2022,7-8-44,9,depth_duration_stimuli/001055_2014-06-08_18-45-35_260595134347_rgbf000111-resize_4/001055_2014-06-08_18-45-35_260595134347_rgbf000111-resize_4-target.png,1000,2.4290000000000003,11,3164,1008,feet,jsons/v1_VE1000_randls_3.json,628624,865462,35,Man
9,636815,DepthScenes,duration_manipulation_targetAtFixation,jsons/v1_VE1000_randls_3.json,http://54.235.29.9/FacialAge/BNav_EC2/DepthDuration/v2_depth_duration_MTurk/v2_DepthDuration_HTML.html#450,450,1920,937,1920,1080,8-30-2022,7-8-44,10,depth_duration_stimuli/000549_2014-06-08_22-10-24_260595134347_rgbf000247-resize_3/000549_2014-06-08_22-10-24_260595134347_rgbf000247-resize_3-target.png,1000,1.841,4,3045,994,feet,jsons/v1_VE1000_randls_3.json,628624,865462,35,Man
10,636815,DepthScenes,duration_manipulation_targetAtFixation,jsons/v1_VE1000_randls_3.json,http://54.235.29.9/FacialAge/BNav_EC2/DepthDuration/v2_depth_duration_MTurk/v2_DepthDuration_HTML.html#450,450,1920,937,1920,1080,8-30-2022,7-8-44,11,depth_duration_stimuli/002788_2014-06-22_19-36-03_094959634447_rgbf000088-resize_2/002788_2014-06-22_19-36-03_094959634447_rgbf000088-resize_2-target.png,1000,1.6465,8,2784,1000,feet,jsons/v1_VE1000_randls_3.json,628624,865462,35,Man
11,636815,DepthScenes,duration_manipulation_targetAtFixation,jsons/v1_VE1000_randls_3.json,http://54.235.29.9/FacialAge/BNav_EC2/DepthDuration/v2_depth_duration_MTurk/v2_DepthDuration_HTML.html#450,450,1920,937,1920,1080,8-30-2022,7-8-44,12,depth_duration_stimuli/000749_2014-06-08_21-55-06_260595134347_rgbf000070-resize_2/000749_2014-06-08_21-55-06_260595134347_rgbf000070-resize_2-target.png,1000,2.331,7,2693,988,feet,jsons/v1_VE1000_randls_3.json,628624,865462,35,Man
12,636815,DepthScenes,duration_manipulation_targetAtFixation,jsons/v1_VE1000_randls_3.json,http://54.235.29.9/FacialAge/BNav_EC2/DepthDuration/v2_depth_duration_MTurk/v2_DepthDuration_HTML.html#450,450,1920,937,1920,1080,8-30-2022,7-8-44,13,depth_duration_stimuli/000569_2014-06-09_22-51-47_260595134347_rgbf000141-resize_3/000569_2014-06-09_22-51-47_260595134347_rgbf000141-resize-original.jpg,1000,4.512,0,2788,995,feet,jsons/v1_VE1000_randls_3.json,628624,865462,35,Man
13,636815,DepthScenes,duration_manipulation_targetAtFixation,jsons/v1_VE1000_randls_3.json,http://54.235.29.9/FacialAge/BNav_EC2/DepthDuration/v2_depth_duration_MTurk/v2_DepthDuration_HTML.html#450,450,1920,937,1920,1080,8-30-2022,7-8-44,14,depth_duration_stimuli/003534_2014-05-22_15-06-10_094959634447_rgbf000102-resize_4/003534_2014-05-22_15-06-10_094959634447_rgbf000102-resize_4-target.png,1000,1.426,3,2193,1005,feet,jsons/v1_VE1000_randls_3.json,628624,865462,35,Man
14,636815,DepthScenes,duration_manipulation_targetAtFixation,jsons/v1_VE1000_randls_3.json,http://54.235.29.9/FacialAge/BNav_EC2/DepthDuration/v2_depth_duration_MTurk/v2_DepthDuration_HTML.html#450,450,1920,937,1920,1080,8-30-2022,7-8-44,15,depth_duration_stimuli/002637_2014-06-24_14-51-13_094959634447_rgbf000066-resize_4/002637_2014-06-24_14-51-13_094959634447_rgbf000066-resize_4-target.png,1000,1.9955,8,2528,989,feet,jsons/v1_VE1000_randls_3.json,628624,865462,35,Man
15,636815,DepthScenes,duration_manipulation_targetAtFixation,jsons/v1_VE1000_randls_3.json,http://54.235.29.9/FacialAge/BNav_EC2/DepthDuration/v2_depth_duration_MTurk/v2_DepthDuration_HTML.html#450,450,1920,937,1920,1080,8-30-2022,7-8-44,16,depth_duration_stimuli/000773_2014-06-08_22-24-54_260595134347_rgbf000093-resize_1/000773_2014-06-08_22-24-54_260595134347_rgbf000093-resize_1-target.png,1000,4.973,10,3445,999,feet,jsons/v1_VE1000_randls_3.json,628624,865462,35,Man
16,636815,DepthScenes,duration_manipulation_targetAtFixation,jsons/v1_VE1000_randls_3.json,http://54.235.29.9/FacialAge/BNav_EC2/DepthDuration/v2_depth_duration_MTurk/v2_DepthDuration_HTML.html#450,450,1920,937,1920,1080,8-30-2022,7-8-44,17,depth_duration_stimuli/002414_2014-06-28_20-24-58_260595134347_rgbf000067-resize_4/002414_2014-06-28_20-24-58_260595134347_rgbf000067-resize_4-target.png,1000,4.363,7,5982,997,feet,jsons/v1_VE1000_randls_3.json,628624,865462,35,Man
17,636815,DepthScenes,duration_manipulation_targetAtFixation,jsons/v1_VE1000_randls_3.json,http://54.235.29.9/FacialAge/BNav_EC2/DepthDuration/v2_depth_duration_MTurk/v2_DepthDuration_HTML.html#450,450,1920,937,1920,1080,8-30-2022,7-8-44,18,depth_duration_stimuli/002153_2014-06-25_21-27-18_260595134347_rgbf000038-resize_5/002153_2014-06-25_21-27-18_260595134347_rgbf000038-resize_5-target.png,1000,2.505,5,3835,1007,feet,jsons/v1_VE1000_randls_3.json,628624,865462,35,Man
18,636815,DepthScenes,duration_manipulation_targetAtFixation,jsons/v1_VE1000_randls_3.json,http://54.235.29.9/FacialAge/BNav_EC2/DepthDuration/v2_depth_duration_MTurk/v2_DepthDuration_HTML.html#450,450,1920,937,1920,1080,8-30-2022,7-8-44,19,depth_duration_stimuli/002660_2014-06-13_15-44-18_094959634447_rgbf001878-resize_2/002660_2014-06-13_15-44-18_094959634447_rgbf001878-resize_2-target.png,1000,3.576,8,4219,1000,feet,jsons/v1_VE1000_randls_3.json,628624,865462,35,Man
19,636815,DepthScenes,duration_manipulation_targetAtFixation,jsons/v1_VE1000_randls_3.json,http://54.235.29.9/FacialAge/BNav_EC2/DepthDuration/v2_depth_duration_MTurk/v2_DepthDuration_HTML.html#450,450,1920,937,1920,1080,8-30-2022,7-8-44,20,depth_duration_stimuli/000788_2014-06-08_22-34-36_260595134347_rgbf000131-resize_1/000788_2014-06-08_22-34-36_260595134347_rgbf000131-resize_1-target.png,1000,3.359,8,3170,994,feet,jsons/v1_VE1000_randls_3.json,628624,865462,35,Man
20,636815,DepthScenes,duration_manipulation_targetAtFixation,jsons/v1_VE1000_randls_3.json,http://54.235.29.9/FacialAge/BNav_EC2/DepthDuration/v2_depth_duration_MTurk/v2_DepthDuration_HTML.html#450,450,1920,937,1920,1080,8-30-2022,7-8-44,21,depth_duration_stimuli/001235_2014-06-17_16-37-36_260595134347_rgbf000084-resize_4/001235_2014-06-17_16-37-36_260595134347_rgbf000084-resize_4-target.png,1000,3.6605,10,3149,993,feet,jsons/v1_VE1000_randls_3.json,628624,865462,35,Man
21,636815,DepthScenes,duration_manipulation_targetAtFixation,jsons/v1_VE1000_randls_3.json,http://54.235.29.9/FacialAge/BNav_EC2/DepthDuration/v2_depth_duration_MTurk/v2_DepthDuration_HTML.html#450,450,1920,937,1920,1080,8-30-2022,7-8-44,22,depth_duration_stimuli/002272_2014-06-28_18-53-56_260595134347_rgbf000067-resize_2/002272_2014-06-28_18-53-56_260595134347_rgbf000067-resize_2-target.png,1000,1.138,5,3435,1000,feet,jsons/v1_VE1000_randls_3.json,628624,865462,35,Man
22,636815,DepthScenes,duration_manipulation_targetAtFixation,jsons/v1_VE1000_randls_3.json,http://54.235.29.9/FacialAge/BNav_EC2/DepthDuration/v2_depth_duration_MTurk/v2_DepthDuration_HTML.html#450,450,1920,937,1920,1080,8-30-2022,7-8-44,23,depth_duration_stimuli/001571_2014-06-20_17-21-32_260595134347_rgbf000089-resize_1/001571_2014-06-20_17-21-32_260595134347_rgbf000089-resize_1-target.png,1000,1.86,4,2277,982,feet,jsons/v1_VE1000_randls_3.json,628624,865462,35,Man
23,636815,DepthScenes,duration_manipulation_targetAtFixation,jsons/v1_VE1000_randls_3.json,http://54.235.29.9/FacialAge/BNav_EC2/DepthDuration/v2_depth_duration_MTurk/v2_DepthDuration_HTML.html#450,450,1920,937,1920,1080,8-30-2022,7-8-44,24,depth_duration_stimuli/002057_2014-06-24_21-00-13_260595134347_rgbf000120-resize_1/002057_2014-06-24_21-00-13_260595134347_rgbf000120-resize_1-target.png,1000,2.967,9,2640,1001,feet,jsons/v1_VE1000_randls_3.json,628624,865462,35,Man
24,636815,DepthScenes,duration_manipulation_targetAtFixation,jsons/v1_VE1000_randls_3.json,http://54.235.29.9/FacialAge/BNav_EC2/DepthDuration/v2_depth_duration_MTurk/v2_DepthDuration_HTML.html#450,450,1920,937,1920,1080,8-30-2022,7-8-44,25,depth_duration_stimuli/000709_2014-06-08_13-51-55_260595134347_rgbf000068-resize_3/000709_2014-06-08_13-51-55_260595134347_rgbf000068-resize_3-target.png,1000,1.8030000000000002,5,2448,1011,feet,jsons/v1_VE1000_randls_3.json,628624,865462,35,Man
25,636815,DepthScenes,duration_manipulation_targetAtFixation,jsons/v1_VE1000_randls_3.json,http://54.235.29.9/FacialAge/BNav_EC2/DepthDuration/v2_depth_duration_MTurk/v2_DepthDuration_HTML.html#450,450,1920,937,1920,1080,8-30-2022,7-8-44,26,depth_duration_stimuli/000736_2014-06-08_18-24-15_260595134347_rgbf000206-resize_3/000736_2014-06-08_18-24-15_260595134347_rgbf000206-resize_3-target.png,1000,3.515,8,2359,1008,feet,jsons/v1_VE1000_randls_3.json,628624,865462,35,Man
26,636815,DepthScenes,duration_manipulation_targetAtFixation,jsons/v1_VE1000_randls_3.json,http://54.235.29.9/FacialAge/BNav_EC2/DepthDuration/v2_depth_duration_MTurk/v2_DepthDuration_HTML.html#450,450,1920,937,1920,1080,8-30-2022,7-8-44,27,depth_duration_stimuli/000137_2014-05-20_17-04-49_260595134347_rgbf000120-resize_1/000137_2014-05-20_17-04-49_260595134347_rgbf000120-resize_1-target.png,1000,3.786,11,2887,996,feet,jsons/v1_VE1000_randls_3.json,628624,865462,35,Man
27,636815,DepthScenes,duration_manipulation_targetAtFixation,jsons/v1_VE1000_randls_3.json,http://54.235.29.9/FacialAge/BNav_EC2/DepthDuration/v2_depth_duration_MTurk/v2_DepthDuration_HTML.html#450,450,1920,937,1920,1080,8-30-2022,7-8-44,28,depth_duration_stimuli/001449_2014-06-19_17-01-27_260595134347_rgbf000116-resize_2/001449_2014-06-19_17-01-27_260595134347_rgbf000116-resize_2-target.png,1000,3.452,8,2255,1013,feet,jsons/v1_VE1000_randls_3.json,628624,865462,35,Man
28,636815,DepthScenes,duration_manipulation_targetAtFixation,jsons/v1_VE1000_randls_3.json,http://54.235.29.9/FacialAge/BNav_EC2/DepthDuration/v2_depth_duration_MTurk/v2_DepthDuration_HTML.html#450,450,1920,937,1920,1080,8-30-2022,7-8-44,29,depth_duration_stimuli/001450_2014-06-19_17-02-03_260595134347_rgbf000203-resize_4/001450_2014-06-19_17-02-03_260595134347_rgbf000203-resize_4-target.png,1000,4.0106666666667,14,2648,1003,feet,jsons/v1_VE1000_randls_3.json,628624,865462,35,Man
29,636815,DepthScenes,duration_manipulation_targetAtFixation,jsons/v1_VE1000_randls_3.json,http://54.235.29.9/FacialAge/BNav_EC2/DepthDuration/v2_depth_duration_MTurk/v2_DepthDuration_HTML.html#450,450,1920,937,1920,1080,8-30-2022,7-8-44,30,depth_duration_stimuli/000375_2014-06-08_11-17-29_260595134347_rgbf000133-resize_2/000375_2014-06-08_11-17-29_260595134347_rgbf000133-resize-original.jpg,1000,4.718,0,9362,1002,feet,jsons/v1_VE1000_randls_3.json,628624,865462,35,Man
30,636815,DepthScenes,duration_manipulation_targetAtFixation,jsons/v1_VE1000_randls_3.json,http://54.235.29.9/FacialAge/BNav_EC2/DepthDuration/v2_depth_duration_MTurk/v2_DepthDuration_HTML.html#450,450,1920,937,1920,1080,8-30-2022,7-8-44,31,depth_duration_stimuli/000009_2014-05-26_14-32-05_260595134347_rgbf000034-resize_3/000009_2014-05-26_14-32-05_260595134347_rgbf000034-resize_3-target.png,1000,3.8715,11,3370,1005,feet,jsons/v1_VE1000_randls_3.json,628624,865462,35,Man
31,636815,DepthScenes,duration_manipulation_targetAtFixation,jsons/v1_VE1000_randls_3.json,http://54.235.29.9/FacialAge/BNav_EC2/DepthDuration/v2_depth_duration_MTurk/v2_DepthDuration_HTML.html#450,450,1920,937,1920,1080,8-30-2022,7-8-44,32,depth_duration_stimuli/001828_2014-06-26_21-40-03_260595134347_rgbf000024-resize_0/001828_2014-06-26_21-40-03_260595134347_rgbf000024-resize_0-target.png,1000,4.8260000000000005,15,3000,999,feet,jsons/v1_VE1000_randls_3.json,628624,865462,35,Man
32,636815,DepthScenes,duration_manipulation_targetAtFixation,jsons/v1_VE1000_randls_3.json,http://54.235.29.9/FacialAge/BNav_EC2/DepthDuration/v2_depth_duration_MTurk/v2_DepthDuration_HTML.html#450,450,1920,937,1920,1080,8-30-2022,7-8-44,33,depth_duration_stimuli/001056_2014-06-08_18-46-44_260595134347_rgbf000068-resize_0/001056_2014-06-08_18-46-44_260595134347_rgbf000068-resize_0-target.png,1000,2.6625,8,9982,1006,feet,jsons/v1_VE1000_randls_3.json,628624,865462,35,Man
33,636815,DepthScenes,duration_manipulation_targetAtFixation,jsons/v1_VE1000_randls_3.json,http://54.235.29.9/FacialAge/BNav_EC2/DepthDuration/v2_depth_duration_MTurk/v2_DepthDuration_HTML.html#450,450,1920,937,1920,1080,8-30-2022,7-8-44,34,depth_duration_stimuli/002199_2014-06-28_18-33-56_260595134347_rgbf000074-resize_0/002199_2014-06-28_18-33-56_260595134347_rgbf000074-resize_0-target.png,1000,1.996,4,2833,998,feet,jsons/v1_VE1000_randls_3.json,628624,865462,35,Man
34,636815,DepthScenes,duration_manipulation_targetAtFixation,jsons/v1_VE1000_randls_3.json,http://54.235.29.9/FacialAge/BNav_EC2/DepthDuration/v2_depth_duration_MTurk/v2_DepthDuration_HTML.html#450,450,1920,937,1920,1080,8-30-2022,7-8-44,35,depth_duration_stimuli/000414_2014-06-04_19-49-13_260595134347_rgbf000044-resize_0/000414_2014-06-04_19-49-13_260595134347_rgbf000044-resize_0-target.png,1000,4.329,12,2654,992,feet,jsons/v1_VE1000_randls_3.json,628624,865462,35,Man
35,636815,DepthScenes,duration_manipulation_targetAtFixation,jsons/v1_VE1000_randls_3.json,http://54.235.29.9/FacialAge/BNav_EC2/DepthDuration/v2_depth_duration_MTurk/v2_DepthDuration_HTML.html#450,450,1920,937,1920,1080,8-30-2022,7-8-44,36,depth_duration_stimuli/003129_2014-05-12_10-48-10_094959634447_rgbf000100-resize_0/003129_2014-05-12_10-48-10_094959634447_rgbf000100-resize_0-target.png,1000,4.9305,14,2844,996,feet,jsons/v1_VE1000_randls_3.json,628624,865462,35,Man
36,636815,DepthScenes,duration_manipulation_targetAtFixation,jsons/v1_VE1000_randls_3.json,http://54.235.29.9/FacialAge/BNav_EC2/DepthDuration/v2_depth_duration_MTurk/v2_DepthDuration_HTML.html#450,450,1920,937,1920,1080,8-30-2022,7-8-44,37,depth_duration_stimuli/002043_2014-06-24_20-29-38_260595134347_rgbf000039-resize_4/002043_2014-06-24_20-29-38_260595134347_rgbf000039-resize_4-target.png,1000,2.8435,10,3301,993,feet,jsons/v1_VE1000_randls_3.json,628624,865462,35,Man
37,636815,DepthScenes,duration_manipulation_targetAtFixation,jsons/v1_VE1000_randls_3.json,http://54.235.29.9/FacialAge/BNav_EC2/DepthDuration/v2_depth_duration_MTurk/v2_DepthDuration_HTML.html#450,450,1920,937,1920,1080,8-30-2022,7-8-44,38,depth_duration_stimuli/003048_2014-06-15_13-49-43_094959634447_rgbf000150-resize_1/003048_2014-06-15_13-49-43_094959634447_rgbf000150-resize_1-target.png,1000,4.0035,10,4637,996,feet,jsons/v1_VE1000_randls_3.json,628624,865462,35,Man
38,636815,DepthScenes,duration_manipulation_targetAtFixation,jsons/v1_VE1000_randls_3.json,http://54.235.29.9/FacialAge/BNav_EC2/DepthDuration/v2_depth_duration_MTurk/v2_DepthDuration_HTML.html#450,450,1920,937,1920,1080,8-30-2022,7-8-44,39,depth_duration_stimuli/001806_2014-06-26_20-50-20_260595134347_rgbf000091-resize_1/001806_2014-06-26_20-50-20_260595134347_rgbf000091-resize_1-target.png,1000,2.7305,6,2658,1005,feet,jsons/v1_VE1000_randls_3.json,628624,865462,35,Man
39,636815,DepthScenes,duration_manipulation_targetAtFixation,jsons/v1_VE1000_randls_3.json,http://54.235.29.9/FacialAge/BNav_EC2/DepthDuration/v2_depth_duration_MTurk/v2_DepthDuration_HTML.html#450,450,1920,937,1920,1080,8-30-2022,7-8-44,40,depth_duration_stimuli/001617_2014-06-20_11-35-32_260595134347_rgbf000066-resize_1/001617_2014-06-20_11-35-32_260595134347_rgbf000066-resize_1-target.png,1000,3.7910000000000004,12,2665,1014,feet,jsons/v1_VE1000_randls_3.json,628624,865462,35,Man
40,636815,DepthScenes,duration_manipulation_targetAtFixation,jsons/v1_VE1000_randls_3.json,http://54.235.29.9/FacialAge/BNav_EC2/DepthDuration/v2_depth_duration_MTurk/v2_DepthDuration_HTML.html#450,450,1920,937,1920,1080,8-30-2022,7-8-44,41,depth_duration_stimuli/001810_2014-06-26_20-51-35_260595134347_rgbf000040-resize_3/001810_2014-06-26_20-51-35_260595134347_rgbf000040-resize_3-target.png,1000,2.2525,8,2944,1013,feet,jsons/v1_VE1000_randls_3.json,628624,865462,35,Man
41,636815,DepthScenes,duration_manipulation_targetAtFixation,jsons/v1_VE1000_randls_3.json,http://54.235.29.9/FacialAge/BNav_EC2/DepthDuration/v2_depth_duration_MTurk/v2_DepthDuration_HTML.html#450,450,1920,937,1920,1080,8-30-2022,7-8-44,42,depth_duration_stimuli/003010_2014-06-15_12-54-35_094959634447_rgbf000112-resize_0/003010_2014-06-15_12-54-35_094959634447_rgbf000112-resize_0-target.png,1000,3.1185,14,3085,1012,feet,jsons/v1_VE1000_randls_3.json,628624,865462,35,Man
42,636815,DepthScenes,duration_manipulation_targetAtFixation,jsons/v1_VE1000_randls_3.json,http://54.235.29.9/FacialAge/BNav_EC2/DepthDuration/v2_depth_duration_MTurk/v2_DepthDuration_HTML.html#450,450,1920,937,1920,1080,8-30-2022,7-8-44,43,depth_duration_stimuli/002600_2014-06-24_14-27-04_094959634447_rgbf000074-resize_2/002600_2014-06-24_14-27-04_094959634447_rgbf000074-resize_2-target.png,1000,2.7575,10,2746,997,feet,jsons/v1_VE1000_randls_3.json,628624,865462,35,Man
43,636815,DepthScenes,duration_manipulation_targetAtFixation,jsons/v1_VE1000_randls_3.json,http://54.235.29.9/FacialAge/BNav_EC2/DepthDuration/v2_depth_duration_MTurk/v2_DepthDuration_HTML.html#450,450,1920,937,1920,1080,8-30-2022,7-8-44,44,depth_duration_stimuli/003228_2014-05-14_13-42-35_094959634447_rgbf000101-resize_1/003228_2014-05-14_13-42-35_094959634447_rgbf000101-resize_1-target.png,1000,1.9680000000000002,6,3343,997,feet,jsons/v1_VE1000_randls_3.json,628624,865462,35,Man
44,636815,DepthScenes,duration_manipulation_targetAtFixation,jsons/v1_VE1000_randls_3.json,http://54.235.29.9/FacialAge/BNav_EC2/DepthDuration/v2_depth_duration_MTurk/v2_DepthDuration_HTML.html#450,450,1920,937,1920,1080,8-30-2022,7-8-44,45,depth_duration_stimuli/000787_2014-06-08_22-33-53_260595134347_rgbf000175-resize_1/000787_2014-06-08_22-33-53_260595134347_rgbf000175-resize-original.jpg,1000,4.784,0,2875,987,feet,jsons/v1_VE1000_randls_3.json,628624,865462,35,Man
45,636815,DepthScenes,duration_manipulation_targetAtFixation,jsons/v1_VE1000_randls_3.json,http://54.235.29.9/FacialAge/BNav_EC2/DepthDuration/v2_depth_duration_MTurk/v2_DepthDuration_HTML.html#450,450,1920,937,1920,1080,8-30-2022,7-8-44,46,depth_duration_stimuli/002905_2014-06-03_18-04-43_094959634447_rgbf000151-resize_2/002905_2014-06-03_18-04-43_094959634447_rgbf000151-resize_2-target.png,1000,2.0295,6,2239,988,feet,jsons/v1_VE1000_randls_3.json,628624,865462,35,Man
46,636815,DepthScenes,duration_manipulation_targetAtFixation,jsons/v1_VE1000_randls_3.json,http://54.235.29.9/FacialAge/BNav_EC2/DepthDuration/v2_depth_duration_MTurk/v2_DepthDuration_HTML.html#450,450,1920,937,1920,1080,8-30-2022,7-8-44,47,depth_duration_stimuli/003423_2014-05-21_10-23-26_094959634447_rgbf002665-resize_2/003423_2014-05-21_10-23-26_094959634447_rgbf002665-resize_2-target.png,1000,3.2575,11,3324,1000,feet,jsons/v1_VE1000_randls_3.json,628624,865462,35,Man
47,636815,DepthScenes,duration_manipulation_targetAtFixation,jsons/v1_VE1000_randls_3.json,http://54.235.29.9/FacialAge/BNav_EC2/DepthDuration/v2_depth_duration_MTurk/v2_DepthDuration_HTML.html#450,450,1920,937,1920,1080,8-30-2022,7-8-44,48,depth_duration_stimuli/000469_2014-06-09_19-42-10_260595134347_rgbf000081-resize_1/000469_2014-06-09_19-42-10_260595134347_rgbf000081-resize_1-target.png,1000,1.652,7,2341,998,feet,jsons/v1_VE1000_randls_3.json,628624,865462,35,Man
48,636815,DepthScenes,duration_manipulation_targetAtFixation,jsons/v1_VE1000_randls_3.json,http://54.235.29.9/FacialAge/BNav_EC2/DepthDuration/v2_depth_duration_MTurk/v2_DepthDuration_HTML.html#450,450,1920,937,1920,1080,8-30-2022,7-8-44,49,depth_duration_stimuli/000483_2014-06-09_20-41-45_260595134347_rgbf000116-resize_4/000483_2014-06-09_20-41-45_260595134347_rgbf000116-resize_4-target.png,1000,1.337,4,2239,995,feet,jsons/v1_VE1000_randls_3.json,628624,865462,35,Man
49,636815,DepthScenes,duration_manipulation_targetAtFixation,jsons/v1_VE1000_randls_3.json,http://54.235.29.9/FacialAge/BNav_EC2/DepthDuration/v2_depth_duration_MTurk/v2_DepthDuration_HTML.html#450,450,1920,937,1920,1080,8-30-2022,7-8-44,50,depth_duration_stimuli/000906_2014-06-08_13-35-43_260595134347_rgbf000155-resize_1/000906_2014-06-08_13-35-43_260595134347_rgbf000155-resize_1-target.png,1000,2.8489999999999998,12,2640,1001,feet,jsons/v1_VE1000_randls_3.json,628624,865462,35,Man
50,636815,DepthScenes,duration_manipulation_targetAtFixation,jsons/v1_VE1000_randls_3.json,http://54.235.29.9/FacialAge/BNav_EC2/DepthDuration/v2_depth_duration_MTurk/v2_DepthDuration_HTML.html#450,450,1920,937,1920,1080,8-30-2022,7-8-44,51,depth_duration_stimuli/002805_2014-06-22_19-54-03_094959634447_rgbf000079-resize_1/002805_2014-06-22_19-54-03_094959634447_rgbf000079-resize_1-target.png,1000,3.1439999999999997,10,2879,999,feet,jsons/v1_VE1000_randls_3.json,628624,865462,35,Man
51,636815,DepthScenes,duration_manipulation_targetAtFixation,jsons/v1_VE1000_randls_3.json,http://54.235.29.9/FacialAge/BNav_EC2/DepthDuration/v2_depth_duration_MTurk/v2_DepthDuration_HTML.html#450,450,1920,937,1920,1080,8-30-2022,7-8-44,52,depth_duration_stimuli/002989_2014-06-15_12-25-03_094959634447_rgbf000150-resize_3/002989_2014-06-15_12-25-03_094959634447_rgbf000150-resize_3-target.png,1000,4.1975,20,3415,998,feet,jsons/v1_VE1000_randls_3.json,628624,865462,35,Man
52,636815,DepthScenes,duration_manipulation_targetAtFixation,jsons/v1_VE1000_randls_3.json,http://54.235.29.9/FacialAge/BNav_EC2/DepthDuration/v2_depth_duration_MTurk/v2_DepthDuration_HTML.html#450,450,1920,937,1920,1080,8-30-2022,7-8-44,53,depth_duration_stimuli/000866_2014-06-09_20-45-42_260595134347_rgbf000139-resize_1/000866_2014-06-09_20-45-42_260595134347_rgbf000139-resize_1-target.png,1000,3.2155,8,2343,998,feet,jsons/v1_VE1000_randls_3.json,628624,865462,35,Man
53,636815,DepthScenes,duration_manipulation_targetAtFixation,jsons/v1_VE1000_randls_3.json,http://54.235.29.9/FacialAge/BNav_EC2/DepthDuration/v2_depth_duration_MTurk/v2_DepthDuration_HTML.html#450,450,1920,937,1920,1080,8-30-2022,7-8-44,54,depth_duration_stimuli/000758_2014-06-08_22-05-08_260595134347_rgbf000085-resize_0/000758_2014-06-08_22-05-08_260595134347_rgbf000085-resize_0-target.png,1000,3.3810000000000002,14,2863,994,feet,jsons/v1_VE1000_randls_3.json,628624,865462,35,Man
54,636815,DepthScenes,duration_manipulation_targetAtFixation,jsons/v1_VE1000_randls_3.json,http://54.235.29.9/FacialAge/BNav_EC2/DepthDuration/v2_depth_duration_MTurk/v2_DepthDuration_HTML.html#450,450,1920,937,1920,1080,8-30-2022,7-8-44,55,depth_duration_stimuli/000854_2014-06-09_19-43-13_260595134347_rgbf000066-resize_0/000854_2014-06-09_19-43-13_260595134347_rgbf000066-resize_0-target.png,1000,3.068,6,2341,997,feet,jsons/v1_VE1000_randls_3.json,628624,865462,35,Man
55,636815,DepthScenes,duration_manipulation_targetAtFixation,jsons/v1_VE1000_randls_3.json,http://54.235.29.9/FacialAge/BNav_EC2/DepthDuration/v2_depth_duration_MTurk/v2_DepthDuration_HTML.html#450,450,1920,937,1920,1080,8-30-2022,7-8-44,56,depth_duration_stimuli/001066_2014-06-08_22-03-20_260595134347_rgbf000066-resize_4/001066_2014-06-08_22-03-20_260595134347_rgbf000066-resize_4-target.png,1000,4.2330000000000005,18,5028,993,feet,jsons/v1_VE1000_randls_3.json,628624,865462,35,Man
56,636815,DepthScenes,duration_manipulation_targetAtFixation,jsons/v1_VE1000_randls_3.json,http://54.235.29.9/FacialAge/BNav_EC2/DepthDuration/v2_depth_duration_MTurk/v2_DepthDuration_HTML.html#450,450,1920,937,1920,1080,8-30-2022,7-8-44,57,depth_duration_stimuli/000742_2014-06-08_18-48-09_260595134347_rgbf000164-resize_4/000742_2014-06-08_18-48-09_260595134347_rgbf000164-resize_4-target.png,1000,4.632,15,3138,994,feet,jsons/v1_VE1000_randls_3.json,628624,865462,35,Man
57,636815,DepthScenes,duration_manipulation_targetAtFixation,jsons/v1_VE1000_randls_3.json,http://54.235.29.9/FacialAge/BNav_EC2/DepthDuration/v2_depth_duration_MTurk/v2_DepthDuration_HTML.html#450,450,1920,937,1920,1080,8-30-2022,7-8-44,58,depth_duration_stimuli/000692_2014-06-08_13-09-42_260595134347_rgbf000199-resize_2/000692_2014-06-08_13-09-42_260595134347_rgbf000199-resize_2-target.png,1000,3.661,30,4144,993,feet,jsons/v1_VE1000_randls_3.json,628624,865462,35,Man
58,636815,DepthScenes,duration_manipulation_targetAtFixation,jsons/v1_VE1000_randls_3.json,http://54.235.29.9/FacialAge/BNav_EC2/DepthDuration/v2_depth_duration_MTurk/v2_DepthDuration_HTML.html#450,450,1920,937,1920,1080,8-30-2022,7-8-44,59,depth_duration_stimuli/001094_2014-06-15_17-36-00_260595134347_rgbf000205-resize_0/001094_2014-06-15_17-36-00_260595134347_rgbf000205-resize_0-target.png,1000,4.2175,15,2961,1014,feet,jsons/v1_VE1000_randls_3.json,628624,865462,35,Man
59,636815,DepthScenes,duration_manipulation_targetAtFixation,jsons/v1_VE1000_randls_3.json,http://54.235.29.9/FacialAge/BNav_EC2/DepthDuration/v2_depth_duration_MTurk/v2_DepthDuration_HTML.html#450,450,1920,937,1920,1080,8-30-2022,7-8-44,60,depth_duration_stimuli/001158_2014-06-17_15-32-16_260595134347_rgbf000138-resize_2/001158_2014-06-17_15-32-16_260595134347_rgbf000138-resize_2-target.png,1000,4.5315,13,2589,999,feet,jsons/v1_VE1000_randls_3.json,628624,865462,35,Man
60,636815,DepthScenes,duration_manipulation_targetAtFixation,jsons/v1_VE1000_randls_3.json,http://54.235.29.9/FacialAge/BNav_EC2/DepthDuration/v2_depth_duration_MTurk/v2_DepthDuration_HTML.html#450,450,1920,937,1920,1080,8-30-2022,7-8-44,61,depth_duration_stimuli/000556_2014-06-09_22-42-56_260595134347_rgbf000214-resize_1/000556_2014-06-09_22-42-56_260595134347_rgbf000214-resize_1-target.png,1000,4.8415,11,2441,1013,feet,jsons/v1_VE1000_randls_3.json,628624,865462,35,Man
61,636815,DepthScenes,duration_manipulation_targetAtFixation,jsons/v1_VE1000_randls_3.json,http://54.235.29.9/FacialAge/BNav_EC2/DepthDuration/v2_depth_duration_MTurk/v2_DepthDuration_HTML.html#450,450,1920,937,1920,1080,8-30-2022,7-8-44,62,depth_duration_stimuli/001808_2014-06-26_20-50-58_260595134347_rgbf000029-resize_1/001808_2014-06-26_20-50-58_260595134347_rgbf000029-resize_1-target.png,1000,4.249,16,7746,998,feet,jsons/v1_VE1000_randls_3.json,628624,865462,35,Man
62,636815,DepthScenes,duration_manipulation_targetAtFixation,jsons/v1_VE1000_randls_3.json,http://54.235.29.9/FacialAge/BNav_EC2/DepthDuration/v2_depth_duration_MTurk/v2_DepthDuration_HTML.html#450,450,1920,937,1920,1080,8-30-2022,7-8-44,63,depth_duration_stimuli/001815_2014-06-26_20-52-55_260595134347_rgbf000020-resize_0/001815_2014-06-26_20-52-55_260595134347_rgbf000020-resize_0-target.png,1000,3.3865,14,3796,1001,feet,jsons/v1_VE1000_randls_3.json,628624,865462,35,Man
63,636815,DepthScenes,duration_manipulation_targetAtFixation,jsons/v1_VE1000_randls_3.json,http://54.235.29.9/FacialAge/BNav_EC2/DepthDuration/v2_depth_duration_MTurk/v2_DepthDuration_HTML.html#450,450,1920,937,1920,1080,8-30-2022,7-8-44,64,depth_duration_stimuli/003492_2014-05-21_15-50-55_094959634447_rgbf000828-resize_1/003492_2014-05-21_15-50-55_094959634447_rgbf000828-resize_1-target.png,1000,4.06875,12,3145,1000,feet,jsons/v1_VE1000_randls_3.json,628624,865462,35,Man
64,636815,DepthScenes,duration_manipulation_targetAtFixation,jsons/v1_VE1000_randls_3.json,http://54.235.29.9/FacialAge/BNav_EC2/DepthDuration/v2_depth_duration_MTurk/v2_DepthDuration_HTML.html#450,450,1920,937,1920,1080,8-30-2022,7-8-44,65,depth_duration_stimuli/002568_2014-06-24_13-59-21_094959634447_rgbf000062-resize_4/002568_2014-06-24_13-59-21_094959634447_rgbf000062-resize_4-target.png,1000,3.015,7,2379,995,feet,jsons/v1_VE1000_randls_3.json,628624,865462,35,Man
65,636815,DepthScenes,duration_manipulation_targetAtFixation,jsons/v1_VE1000_randls_3.json,http://54.235.29.9/FacialAge/BNav_EC2/DepthDuration/v2_depth_duration_MTurk/v2_DepthDuration_HTML.html#450,450,1920,937,1920,1080,8-30-2022,7-8-44,66,depth_duration_stimuli/001222_2014-06-17_16-24-06_260595134347_rgbf000073-resize_0/001222_2014-06-17_16-24-06_260595134347_rgbf000073-resize-original.jpg,1000,1.4385,0,10477,986,feet,jsons/v1_VE1000_randls_3.json,628624,865462,35,Man
66,636815,DepthScenes,duration_manipulation_targetAtFixation,jsons/v1_VE1000_randls_3.json,http://54.235.29.9/FacialAge/BNav_EC2/DepthDuration/v2_depth_duration_MTurk/v2_DepthDuration_HTML.html#450,450,1920,937,1920,1080,8-30-2022,7-8-44,67,depth_duration_stimuli/000470_2014-06-09_19-42-40_260595134347_rgbf000094-resize_1/000470_2014-06-09_19-42-40_260595134347_rgbf000094-resize_1-target.png,1000,1.831,5,3797,1003,feet,jsons/v1_VE1000_randls_3.json,628624,865462,35,Man
67,636815,DepthScenes,duration_manipulation_targetAtFixation,jsons/v1_VE1000_randls_3.json,http://54.235.29.9/FacialAge/BNav_EC2/DepthDuration/v2_depth_duration_MTurk/v2_DepthDuration_HTML.html#450,450,1920,937,1920,1080,8-30-2022,7-8-44,68,depth_duration_stimuli/000109_2014-05-14_23-41-52_260595134347_rgbf000035-resize_9/000109_2014-05-14_23-41-52_260595134347_rgbf000035-resize_9-target.png,1000,1.3545,4,2871,988,feet,jsons/v1_VE1000_randls_3.json,628624,865462,35,Man
68,636815,DepthScenes,duration_manipulation_targetAtFixation,jsons/v1_VE1000_randls_3.json,http://54.235.29.9/FacialAge/BNav_EC2/DepthDuration/v2_depth_duration_MTurk/v2_DepthDuration_HTML.html#450,450,1920,937,1920,1080,8-30-2022,7-8-44,69,depth_duration_stimuli/001059_2014-06-08_21-53-27_260595134347_rgbf000061-resize_4/001059_2014-06-08_21-53-27_260595134347_rgbf000061-resize_4-target.png,1000,2.4185,7,2802,997,feet,jsons/v1_VE1000_randls_3.json,628624,865462,35,Man
69,636815,DepthScenes,duration_manipulation_targetAtFixation,jsons/v1_VE1000_randls_3.json,http://54.235.29.9/FacialAge/BNav_EC2/DepthDuration/v2_depth_duration_MTurk/v2_DepthDuration_HTML.html#450,450,1920,937,1920,1080,8-30-2022,7-8-44,70,depth_duration_stimuli/001032_2014-06-08_13-23-17_260595134347_rgbf000021-resize_3/001032_2014-06-08_13-23-17_260595134347_rgbf000021-resize_3-target.png,1000,3.2725,11,2873,998,feet,jsons/v1_VE1000_randls_3.json,628624,865462,35,Man
70,636815,DepthScenes,duration_manipulation_targetAtFixation,jsons/v1_VE1000_randls_3.json,http://54.235.29.9/FacialAge/BNav_EC2/DepthDuration/v2_depth_duration_MTurk/v2_DepthDuration_HTML.html#450,450,1920,937,1920,1080,8-30-2022,7-8-44,71,depth_duration_stimuli/002663_2014-06-13_15-50-26_094959634447_rgbf000075-resize_1/002663_2014-06-13_15-50-26_094959634447_rgbf000075-resize_1-target.png,1000,4.7495,22,3129,999,feet,jsons/v1_VE1000_randls_3.json,628624,865462,35,Man
71,636815,DepthScenes,duration_manipulation_targetAtFixation,jsons/v1_VE1000_randls_3.json,http://54.235.29.9/FacialAge/BNav_EC2/DepthDuration/v2_depth_duration_MTurk/v2_DepthDuration_HTML.html#450,450,1920,937,1920,1080,8-30-2022,7-8-44,72,depth_duration_stimuli/000409_2014-06-04_19-23-33_260595134347_rgbf000067-resize_0/000409_2014-06-04_19-23-33_260595134347_rgbf000067-resize_0-target.png,1000,3.7335,12,2701,997,feet,jsons/v1_VE1000_randls_3.json,628624,865462,35,Man
72,636815,DepthScenes,duration_manipulation_targetAtFixation,jsons/v1_VE1000_randls_3.json,http://54.235.29.9/FacialAge/BNav_EC2/DepthDuration/v2_depth_duration_MTurk/v2_DepthDuration_HTML.html#450,450,1920,937,1920,1080,8-30-2022,7-8-44,73,depth_duration_stimuli/002570_2014-06-24_13-59-54_094959634447_rgbf000059-resize_0/002570_2014-06-24_13-59-54_094959634447_rgbf000059-resize_0-target.png,1000,4.037,12,2888,989,feet,jsons/v1_VE1000_randls_3.json,628624,865462,35,Man
73,636815,DepthScenes,duration_manipulation_targetAtFixation,jsons/v1_VE1000_randls_3.json,http://54.235.29.9/FacialAge/BNav_EC2/DepthDuration/v2_depth_duration_MTurk/v2_DepthDuration_HTML.html#450,450,1920,937,1920,1080,8-30-2022,7-8-44,74,depth_duration_stimuli/002467_2014-06-28_20-38-07_260595134347_rgbf000026-resize_2/002467_2014-06-28_20-38-07_260595134347_rgbf000026-resize_2-target.png,1000,4.742,20,3201,1000,feet,jsons/v1_VE1000_randls_3.json,628624,865462,35,Man
74,636815,DepthScenes,duration_manipulation_targetAtFixation,jsons/v1_VE1000_randls_3.json,http://54.235.29.9/FacialAge/BNav_EC2/DepthDuration/v2_depth_duration_MTurk/v2_DepthDuration_HTML.html#450,450,1920,937,1920,1080,8-30-2022,7-8-44,75,depth_duration_stimuli/001092_2014-06-15_17-34-58_260595134347_rgbf000171-resize_3/001092_2014-06-15_17-34-58_260595134347_rgbf000171-resize_3-target.png,1000,2.6935,7,2431,1004,feet,jsons/v1_VE1000_randls_3.json,628624,865462,35,Man
75,636815,DepthScenes,duration_manipulation_targetAtFixation,jsons/v1_VE1000_randls_3.json,http://54.235.29.9/FacialAge/BNav_EC2/DepthDuration/v2_depth_duration_MTurk/v2_DepthDuration_HTML.html#450,450,1920,937,1920,1080,8-30-2022,7-8-44,76,depth_duration_stimuli/002545_2014-06-24_13-38-53_094959634447_rgbf000080-resize_4/002545_2014-06-24_13-38-53_094959634447_rgbf000080-resize_4-target.png,1000,1.9205,6,2367,1003,feet,jsons/v1_VE1000_randls_3.json,628624,865462,35,Man
76,636815,DepthScenes,duration_manipulation_targetAtFixation,jsons/v1_VE1000_randls_3.json,http://54.235.29.9/FacialAge/BNav_EC2/DepthDuration/v2_depth_duration_MTurk/v2_DepthDuration_HTML.html#450,450,1920,937,1920,1080,8-30-2022,7-8-44,77,depth_duration_stimuli/001150_2014-06-17_15-27-34_260595134347_rgbf000108-resize_2/001150_2014-06-17_15-27-34_260595134347_rgbf000108-resize_2-target.png,1000,4.0325,11,2641,999,feet,jsons/v1_VE1000_randls_3.json,628624,865462,35,Man
77,636815,DepthScenes,duration_manipulation_targetAtFixation,jsons/v1_VE1000_randls_3.json,http://54.235.29.9/FacialAge/BNav_EC2/DepthDuration/v2_depth_duration_MTurk/v2_DepthDuration_HTML.html#450,450,1920,937,1920,1080,8-30-2022,7-8-44,78,depth_duration_stimuli/000665_2014-06-09_20-42-35_260595134347_rgbf000110-resize_1/000665_2014-06-09_20-42-35_260595134347_rgbf000110-resize_1-target.png,1000,3.057,8,3272,992,feet,jsons/v1_VE1000_randls_3.json,628624,865462,35,Man
78,636815,DepthScenes,duration_manipulation_targetAtFixation,jsons/v1_VE1000_randls_3.json,http://54.235.29.9/FacialAge/BNav_EC2/DepthDuration/v2_depth_duration_MTurk/v2_DepthDuration_HTML.html#450,450,1920,937,1920,1080,8-30-2022,7-8-44,79,depth_duration_stimuli/001011_2014-06-08_23-18-54_260595134347_rgbf000044-resize_4/001011_2014-06-08_23-18-54_260595134347_rgbf000044-resize_4-target.png,1000,2.4730000000000003,10,3076,1001,feet,jsons/v1_VE1000_randls_3.json,628624,865462,35,Man
79,636815,DepthScenes,duration_manipulation_targetAtFixation,jsons/v1_VE1000_randls_3.json,http://54.235.29.9/FacialAge/BNav_EC2/DepthDuration/v2_depth_duration_MTurk/v2_DepthDuration_HTML.html#450,450,1920,937,1920,1080,8-30-2022,7-8-44,80,depth_duration_stimuli/002875_2014-06-01_15-19-00_094959634447_rgbf000151-resize_1/002875_2014-06-01_15-19-00_094959634447_rgbf000151-resize_1-target.png,1000,1.9675,5,8029,1000,feet,jsons/v1_VE1000_randls_3.json,628624,865462,35,Man
80,636815,DepthScenes,duration_manipulation_targetAtFixation,jsons/v1_VE1000_randls_3.json,http://54.235.29.9/FacialAge/BNav_EC2/DepthDuration/v2_depth_duration_MTurk/v2_DepthDuration_HTML.html#450,450,1920,937,1920,1080,8-30-2022,7-8-44,81,depth_duration_stimuli/000486_2014-06-09_20-47-20_260595134347_rgbf000143-resize_2/000486_2014-06-09_20-47-20_260595134347_rgbf000143-resize_2-target.png,1000,4.8325,14,4214,998,feet,jsons/v1_VE1000_randls_3.json,628624,865462,35,Man
81,636815,DepthScenes,duration_manipulation_targetAtFixation,jsons/v1_VE1000_randls_3.json,http://54.235.29.9/FacialAge/BNav_EC2/DepthDuration/v2_depth_duration_MTurk/v2_DepthDuration_HTML.html#450,450,1920,937,1920,1080,8-30-2022,7-8-44,82,depth_duration_stimuli/003083_2014-06-15_15-21-03_094959634447_rgbf000063-resize_1/003083_2014-06-15_15-21-03_094959634447_rgbf000063-resize_1-target.png,1000,4.1405,18,3490,987,feet,jsons/v1_VE1000_randls_3.json,628624,865462,35,Man
82,636815,DepthScenes,duration_manipulation_targetAtFixation,jsons/v1_VE1000_randls_3.json,http://54.235.29.9/FacialAge/BNav_EC2/DepthDuration/v2_depth_duration_MTurk/v2_DepthDuration_HTML.html#450,450,1920,937,1920,1080,8-30-2022,7-8-44,83,depth_duration_stimuli/001244_2014-06-17_16-47-45_260595134347_rgbf000030-resize_4/001244_2014-06-17_16-47-45_260595134347_rgbf000030-resize_4-target.png,1000,2.0425,6,2987,1004,feet,jsons/v1_VE1000_randls_3.json,628624,865462,35,Man
83,636815,DepthScenes,duration_manipulation_targetAtFixation,jsons/v1_VE1000_randls_3.json,http://54.235.29.9/FacialAge/BNav_EC2/DepthDuration/v2_depth_duration_MTurk/v2_DepthDuration_HTML.html#450,450,1920,937,1920,1080,8-30-2022,7-8-44,84,depth_duration_stimuli/003495_2014-05-21_16-01-51_094959634447_rgbf000100-resize_3/003495_2014-05-21_16-01-51_094959634447_rgbf000100-resize_3-target.png,1000,1.6255,4,2779,1012,feet,jsons/v1_VE1000_randls_3.json,628624,865462,35,Man
84,636815,DepthScenes,duration_manipulation_targetAtFixation,jsons/v1_VE1000_randls_3.json,http://54.235.29.9/FacialAge/BNav_EC2/DepthDuration/v2_depth_duration_MTurk/v2_DepthDuration_HTML.html#450,450,1920,937,1920,1080,8-30-2022,7-8-44,85,depth_duration_stimuli/002630_2014-06-24_14-47-50_094959634447_rgbf000055-resize_1/002630_2014-06-24_14-47-50_094959634447_rgbf000055-resize_1-target.png,1000,3.0095,12,2610,1005,feet,jsons/v1_VE1000_randls_3.json,628624,865462,35,Man
85,636815,DepthScenes,duration_manipulation_targetAtFixation,jsons/v1_VE1000_randls_3.json,http://54.235.29.9/FacialAge/BNav_EC2/DepthDuration/v2_depth_duration_MTurk/v2_DepthDuration_HTML.html#450,450,1920,937,1920,1080,8-30-2022,7-8-44,86,depth_duration_stimuli/002758_2014-06-22_19-11-20_094959634447_rgbf000128-resize_1/002758_2014-06-22_19-11-20_094959634447_rgbf000128-resize_1-target.png,1000,2.555,7,2833,994,feet,jsons/v1_VE1000_randls_3.json,628624,865462,35,Man
86,636815,DepthScenes,duration_manipulation_targetAtFixation,jsons/v1_VE1000_randls_3.json,http://54.235.29.9/FacialAge/BNav_EC2/DepthDuration/v2_depth_duration_MTurk/v2_DepthDuration_HTML.html#450,450,1920,937,1920,1080,8-30-2022,7-8-44,87,depth_duration_stimuli/002279_2014-06-28_18-55-32_260595134347_rgbf000040-resize_5/002279_2014-06-28_18-55-32_260595134347_rgbf000040-resize_5-target.png,1000,1.5043333333333,5,2366,996,feet,jsons/v1_VE1000_randls_3.json,628624,865462,35,Man
87,636815,DepthScenes,duration_manipulation_targetAtFixation,jsons/v1_VE1000_randls_3.json,http://54.235.29.9/FacialAge/BNav_EC2/DepthDuration/v2_depth_duration_MTurk/v2_DepthDuration_HTML.html#450,450,1920,937,1920,1080,8-30-2022,7-8-44,88,depth_duration_stimuli/000635_2014-06-08_16-38-42_260595134347_rgbf000106-resize_1/000635_2014-06-08_16-38-42_260595134347_rgbf000106-resize_1-target.png,1000,2.074,8,2568,1010,feet,jsons/v1_VE1000_randls_3.json,628624,865462,35,Man
88,636815,DepthScenes,duration_manipulation_targetAtFixation,jsons/v1_VE1000_randls_3.json,http://54.235.29.9/FacialAge/BNav_EC2/DepthDuration/v2_depth_duration_MTurk/v2_DepthDuration_HTML.html#450,450,1920,937,1920,1080,8-30-2022,7-8-44,89,depth_duration_stimuli/002213_2014-06-28_18-37-58_260595134347_rgbf000055-resize_1/002213_2014-06-28_18-37-58_260595134347_rgbf000055-resize_1-target.png,1000,3.62,12,2534,997,feet,jsons/v1_VE1000_randls_3.json,628624,865462,35,Man
89,636815,DepthScenes,duration_manipulation_targetAtFixation,jsons/v1_VE1000_randls_3.json,http://54.235.29.9/FacialAge/BNav_EC2/DepthDuration/v2_depth_duration_MTurk/v2_DepthDuration_HTML.html#450,450,1920,937,1920,1080,8-30-2022,7-8-44,90,depth_duration_stimuli/000691_2014-06-08_13-08-50_260595134347_rgbf000132-resize_3/000691_2014-06-08_13-08-50_260595134347_rgbf000132-resize_3-target.png,1000,4.1530000000000005,16,3420,994,feet,jsons/v1_VE1000_randls_3.json,628624,865462,35,Man
90,636815,DepthScenes,duration_manipulation_targetAtFixation,jsons/v1_VE1000_randls_3.json,http://54.235.29.9/FacialAge/BNav_EC2/DepthDuration/v2_depth_duration_MTurk/v2_DepthDuration_HTML.html#450,450,1920,937,1920,1080,8-30-2022,7-8-44,91,depth_duration_stimuli/000642_2014-06-08_16-59-25_260595134347_rgbf000098-resize_2/000642_2014-06-08_16-59-25_260595134347_rgbf000098-resize_2-target.png,1000,2.8815,8,2448,1009,feet,jsons/v1_VE1000_randls_3.json,628624,865462,35,Man
91,636815,DepthScenes,duration_manipulation_targetAtFixation,jsons/v1_VE1000_randls_3.json,http://54.235.29.9/FacialAge/BNav_EC2/DepthDuration/v2_depth_duration_MTurk/v2_DepthDuration_HTML.html#450,450,1920,937,1920,1080,8-30-2022,7-8-44,92,depth_duration_stimuli/002425_2014-06-28_20-27-29_260595134347_rgbf000031-resize_8/002425_2014-06-28_20-27-29_260595134347_rgbf000031-resize_8-target.png,1000,3.8960000000000004,15,2867,999,feet,jsons/v1_VE1000_randls_3.json,628624,865462,35,Man
92,636815,DepthScenes,duration_manipulation_targetAtFixation,jsons/v1_VE1000_randls_3.json,http://54.235.29.9/FacialAge/BNav_EC2/DepthDuration/v2_depth_duration_MTurk/v2_DepthDuration_HTML.html#450,450,1920,937,1920,1080,8-30-2022,7-8-44,93,depth_duration_stimuli/003621_2014-05-23_18-06-08_094959634447_rgbf000101-resize_1/003621_2014-05-23_18-06-08_094959634447_rgbf000101-resize_1-target.png,1000,3.9835,15,2551,1005,feet,jsons/v1_VE1000_randls_3.json,628624,865462,35,Man
93,636815,DepthScenes,duration_manipulation_targetAtFixation,jsons/v1_VE1000_randls_3.json,http://54.235.29.9/FacialAge/BNav_EC2/DepthDuration/v2_depth_duration_MTurk/v2_DepthDuration_HTML.html#450,450,1920,937,1920,1080,8-30-2022,7-8-44,94,depth_duration_stimuli/001584_2014-06-20_11-07-43_260595134347_rgbf000002-resize_1/001584_2014-06-20_11-07-43_260595134347_rgbf000002-resize_1-target.png,1000,3.53,9,4375,1001,feet,jsons/v1_VE1000_randls_3.json,628624,865462,35,Man
94,636815,DepthScenes,duration_manipulation_targetAtFixation,jsons/v1_VE1000_randls_3.json,http://54.235.29.9/FacialAge/BNav_EC2/DepthDuration/v2_depth_duration_MTurk/v2_DepthDuration_HTML.html#450,450,1920,937,1920,1080,8-30-2022,7-8-44,95,depth_duration_stimuli/000878_2014-06-08_22-52-45_260595134347_rgbf000045-resize_2/000878_2014-06-08_22-52-45_260595134347_rgbf000045-resize_2-target.png,1000,2.092,8,2552,998,feet,jsons/v1_VE1000_randls_3.json,628624,865462,35,Man
95,636815,DepthScenes,duration_manipulation_targetAtFixation,jsons/v1_VE1000_randls_3.json,http://54.235.29.9/FacialAge/BNav_EC2/DepthDuration/v2_depth_duration_MTurk/v2_DepthDuration_HTML.html#450,450,1920,937,1920,1080,8-30-2022,7-8-44,96,depth_duration_stimuli/002953_2014-06-08_17-32-18_094959634447_rgbf000059-resize_5/002953_2014-06-08_17-32-18_094959634447_rgbf000059-resize_5-target.png,1000,1.551,5,2618,999,feet,jsons/v1_VE1000_randls_3.json,628624,865462,35,Man
96,636815,DepthScenes,duration_manipulation_targetAtFixation,jsons/v1_VE1000_randls_3.json,http://54.235.29.9/FacialAge/BNav_EC2/DepthDuration/v2_depth_duration_MTurk/v2_DepthDuration_HTML.html#450,450,1920,937,1920,1080,8-30-2022,7-8-44,97,depth_duration_stimuli/000447_2014-06-08_16-15-46_260595134347_rgbf000130-resize_1/000447_2014-06-08_16-15-46_260595134347_rgbf000130-resize_1-target.png,1000,4.479,14,9990,997,feet,jsons/v1_VE1000_randls_3.json,628624,865462,35,Man
97,636815,DepthScenes,duration_manipulation_targetAtFixation,jsons/v1_VE1000_randls_3.json,http://54.235.29.9/FacialAge/BNav_EC2/DepthDuration/v2_depth_duration_MTurk/v2_DepthDuration_HTML.html#450,450,1920,937,1920,1080,8-30-2022,7-8-44,98,depth_duration_stimuli/001447_2014-06-19_17-00-32_260595134347_rgbf000082-resize_5/001447_2014-06-19_17-00-32_260595134347_rgbf000082-resize_5-target.png,1000,4.13775,10,3855,1000,feet,jsons/v1_VE1000_randls_3.json,628624,865462,35,Man
98,636815,DepthScenes,duration_manipulation_targetAtFixation,jsons/v1_VE1000_randls_3.json,http://54.235.29.9/FacialAge/BNav_EC2/DepthDuration/v2_depth_duration_MTurk/v2_DepthDuration_HTML.html#450,450,1920,937,1920,1080,8-30-2022,7-8-44,99,depth_duration_stimuli/001540_2014-06-20_17-01-05_260595134347_rgbf000086-resize_2/001540_2014-06-20_17-01-05_260595134347_rgbf000086-resize-original.jpg,1000,1.459,0,3209,998,feet,jsons/v1_VE1000_randls_3.json,628624,865462,35,Man
99,636815,DepthScenes,duration_manipulation_targetAtFixation,jsons/v1_VE1000_randls_3.json,http://54.235.29.9/FacialAge/BNav_EC2/DepthDuration/v2_depth_duration_MTurk/v2_DepthDuration_HTML.html#450,450,1920,937,1920,1080,8-30-2022,7-8-44,100,depth_duration_stimuli/000929_2014-06-09_16-33-19_260595134347_rgbf000139-resize_0/000929_2014-06-09_16-33-19_260595134347_rgbf000139-resize_0-target.png,1000,2.8680000000000003,10,3271,988,feet,jsons/v1_VE1000_randls_3.json,628624,865462,35,Man
100,636815,DepthScenes,duration_manipulation_targetAtFixation,jsons/v1_VE1000_randls_3.json,http://54.235.29.9/FacialAge/BNav_EC2/DepthDuration/v2_depth_duration_MTurk/v2_DepthDuration_HTML.html#450,450,1920,937,1920,1080,8-30-2022,7-8-44,101,depth_duration_stimuli/000457_2014-06-08_16-52-43_260595134347_rgbf000199-resize_1/000457_2014-06-08_16-52-43_260595134347_rgbf000199-resize_1-target.png,1000,3.6489999999999996,12,2952,998,feet,jsons/v1_VE1000_randls_3.json,628624,865462,35,Man
101,636815,DepthScenes,duration_manipulation_targetAtFixation,jsons/v1_VE1000_randls_3.json,http://54.235.29.9/FacialAge/BNav_EC2/DepthDuration/v2_depth_duration_MTurk/v2_DepthDuration_HTML.html#450,450,1920,937,1920,1080,8-30-2022,7-8-44,102,depth_duration_stimuli/002964_2014-06-08_17-46-11_094959634447_rgbf000091-resize_4/002964_2014-06-08_17-46-11_094959634447_rgbf000091-resize_4-target.png,1000,1.6909999999999998,8,2948,998,feet,jsons/v1_VE1000_randls_3.json,628624,865462,35,Man
102,636815,DepthScenes,duration_manipulation_targetAtFixation,jsons/v1_VE1000_randls_3.json,http://54.235.29.9/FacialAge/BNav_EC2/DepthDuration/v2_depth_duration_MTurk/v2_DepthDuration_HTML.html#450,450,1920,937,1920,1080,8-30-2022,7-8-44,103,depth_duration_stimuli/002136_2014-06-25_21-18-03_260595134347_rgbf000109-resize_3/002136_2014-06-25_21-18-03_260595134347_rgbf000109-resize_3-target.png,1000,1.9569999999999999,6,2674,1001,feet,jsons/v1_VE1000_randls_3.json,628624,865462,35,Man
103,636815,DepthScenes,duration_manipulation_targetAtFixation,jsons/v1_VE1000_randls_3.json,http://54.235.29.9/FacialAge/BNav_EC2/DepthDuration/v2_depth_duration_MTurk/v2_DepthDuration_HTML.html#450,450,1920,937,1920,1080,8-30-2022,7-8-44,104,depth_duration_stimuli/000917_2014-06-09_22-45-29_260595134347_rgbf000149-resize_3/000917_2014-06-09_22-45-29_260595134347_rgbf000149-resize_3-target.png,1000,4.1865,20,3706,995,feet,jsons/v1_VE1000_randls_3.json,628624,865462,35,Man
104,636815,DepthScenes,duration_manipulation_targetAtFixation,jsons/v1_VE1000_randls_3.json,http://54.235.29.9/FacialAge/BNav_EC2/DepthDuration/v2_depth_duration_MTurk/v2_DepthDuration_HTML.html#450,450,1920,937,1920,1080,8-30-2022,7-8-44,105,depth_duration_stimuli/002323_2014-06-28_20-01-54_260595134347_rgbf000051-resize_4/002323_2014-06-28_20-01-54_260595134347_rgbf000051-resize_4-target.png,1000,3.7310000000000003,25,3413,1000,feet,jsons/v1_VE1000_randls_3.json,628624,865462,35,Man
105,636815,DepthScenes,duration_manipulation_targetAtFixation,jsons/v1_VE1000_randls_3.json,http://54.235.29.9/FacialAge/BNav_EC2/DepthDuration/v2_depth_duration_MTurk/v2_DepthDuration_HTML.html#450,450,1920,937,1920,1080,8-30-2022,7-8-44,106,depth_duration_stimuli/001199_2014-06-17_16-03-48_260595134347_rgbf000077-resize_0/001199_2014-06-17_16-03-48_260595134347_rgbf000077-resize_0-target.png,1000,3.4375,40,3229,999,feet,jsons/v1_VE1000_randls_3.json,628624,865462,35,Man
106,636815,DepthScenes,duration_manipulation_targetAtFixation,jsons/v1_VE1000_randls_3.json,http://54.235.29.9/FacialAge/BNav_EC2/DepthDuration/v2_depth_duration_MTurk/v2_DepthDuration_HTML.html#450,450,1920,937,1920,1080,8-30-2022,7-8-44,107,depth_duration_stimuli/000502_2014-06-08_23-02-32_260595134347_rgbf000063-resize_4/000502_2014-06-08_23-02-32_260595134347_rgbf000063-resize_4-target.png,1000,2.431,8,2397,994,feet,jsons/v1_VE1000_randls_3.json,628624,865462,35,Man
107,636815,DepthScenes,duration_manipulation_targetAtFixation,jsons/v1_VE1000_randls_3.json,http://54.235.29.9/FacialAge/BNav_EC2/DepthDuration/v2_depth_duration_MTurk/v2_DepthDuration_HTML.html#450,450,1920,937,1920,1080,8-30-2022,7-8-44,108,depth_duration_stimuli/001555_2014-06-20_17-12-10_260595134347_rgbf000065-resize_4/001555_2014-06-20_17-12-10_260595134347_rgbf000065-resize_4-target.png,1000,1.633,5,2261,997,feet,jsons/v1_VE1000_randls_3.json,628624,865462,35,Man
108,636815,DepthScenes,duration_manipulation_targetAtFixation,jsons/v1_VE1000_randls_3.json,http://54.235.29.9/FacialAge/BNav_EC2/DepthDuration/v2_depth_duration_MTurk/v2_DepthDuration_HTML.html#450,450,1920,937,1920,1080,8-30-2022,7-8-44,109,depth_duration_stimuli/000103_2014-05-14_22-01-17_260595134347_rgbf000152-resize_5/000103_2014-05-14_22-01-17_260595134347_rgbf000152-resize_5-target.png,1000,1.993,8,5094,1014,feet,jsons/v1_VE1000_randls_3.json,628624,865462,35,Man
109,636815,DepthScenes,duration_manipulation_targetAtFixation,jsons/v1_VE1000_randls_3.json,http://54.235.29.9/FacialAge/BNav_EC2/DepthDuration/v2_depth_duration_MTurk/v2_DepthDuration_HTML.html#450,450,1920,937,1920,1080,8-30-2022,7-8-44,110,depth_duration_stimuli/000436_2014-06-09_22-25-11_260595134347_rgbf000137-resize_1/000436_2014-06-09_22-25-11_260595134347_rgbf000137-resize_1-target.png,1000,4.0705,18,3194,1000,feet,jsons/v1_VE1000_randls_3.json,628624,865462,35,Man
110,636815,DepthScenes,duration_manipulation_targetAtFixation,jsons/v1_VE1000_randls_3.json,http://54.235.29.9/FacialAge/BNav_EC2/DepthDuration/v2_depth_duration_MTurk/v2_DepthDuration_HTML.html#450,450,1920,937,1920,1080,8-30-2022,7-8-44,111,depth_duration_stimuli/002444_2014-06-28_20-32-08_260595134347_rgbf000027-resize_0/002444_2014-06-28_20-32-08_260595134347_rgbf000027-resize_0-target.png,1000,4.388999999999999,14,6019,999,feet,jsons/v1_VE1000_randls_3.json,628624,865462,35,Man
111,636815,DepthScenes,duration_manipulation_targetAtFixation,jsons/v1_VE1000_randls_3.json,http://54.235.29.9/FacialAge/BNav_EC2/DepthDuration/v2_depth_duration_MTurk/v2_DepthDuration_HTML.html#450,450,1920,937,1920,1080,8-30-2022,7-8-44,112,depth_duration_stimuli/002725_2014-06-22_11-47-51_094959634447_rgbf000070-resize_1/002725_2014-06-22_11-47-51_094959634447_rgbf000070-resize_1-target.png,1000,2.195,10,3059,1000,feet,jsons/v1_VE1000_randls_3.json,628624,865462,35,Man
112,636815,DepthScenes,duration_manipulation_targetAtFixation,jsons/v1_VE1000_randls_3.json,http://54.235.29.9/FacialAge/BNav_EC2/DepthDuration/v2_depth_duration_MTurk/v2_DepthDuration_HTML.html#450,450,1920,937,1920,1080,8-30-2022,7-8-44,113,depth_duration_stimuli/002344_2014-06-28_20-06-29_260595134347_rgbf000030-resize_1/002344_2014-06-28_20-06-29_260595134347_rgbf000030-resize_1-target.png,1000,1.5795,4,7876,1000,feet,jsons/v1_VE1000_randls_3.json,628624,865462,35,Man
113,636815,DepthScenes,duration_manipulation_targetAtFixation,jsons/v1_VE1000_randls_3.json,http://54.235.29.9/FacialAge/BNav_EC2/DepthDuration/v2_depth_duration_MTurk/v2_DepthDuration_HTML.html#450,450,1920,937,1920,1080,8-30-2022,7-8-44,114,depth_duration_stimuli/000739_2014-06-08_18-45-58_260595134347_rgbf000068-resize_1/000739_2014-06-08_18-45-58_260595134347_rgbf000068-resize_1-target.png,1000,3.534,9,2777,1001,feet,jsons/v1_VE1000_randls_3.json,628624,865462,35,Man
114,636815,DepthScenes,duration_manipulation_targetAtFixation,jsons/v1_VE1000_randls_3.json,http://54.235.29.9/FacialAge/BNav_EC2/DepthDuration/v2_depth_duration_MTurk/v2_DepthDuration_HTML.html#450,450,1920,937,1920,1080,8-30-2022,7-8-44,115,depth_duration_stimuli/000734_2014-06-08_17-39-11_260595134347_rgbf000128-resize_2/000734_2014-06-08_17-39-11_260595134347_rgbf000128-resize_2-target.png,1000,4.098,10,5531,994,feet,jsons/v1_VE1000_randls_3.json,628624,865462,35,Man
115,636815,DepthScenes,duration_manipulation_targetAtFixation,jsons/v1_VE1000_randls_3.json,http://54.235.29.9/FacialAge/BNav_EC2/DepthDuration/v2_depth_duration_MTurk/v2_DepthDuration_HTML.html#450,450,1920,937,1920,1080,8-30-2022,7-8-44,116,depth_duration_stimuli/001170_2014-06-17_15-43-44_260595134347_rgbf000096-resize_6/001170_2014-06-17_15-43-44_260595134347_rgbf000096-resize-original.jpg,1000,1.1909999999999998,0,5749,991,feet,jsons/v1_VE1000_randls_3.json,628624,865462,35,Man
116,636815,DepthScenes,duration_manipulation_targetAtFixation,jsons/v1_VE1000_randls_3.json,http://54.235.29.9/FacialAge/BNav_EC2/DepthDuration/v2_depth_duration_MTurk/v2_DepthDuration_HTML.html#450,450,1920,937,1920,1080,8-30-2022,7-8-44,117,depth_duration_stimuli/001175_2014-06-17_15-45-55_260595134347_rgbf000129-resize_4/001175_2014-06-17_15-45-55_260595134347_rgbf000129-resize_4-target.png,1000,4.255,22,3095,989,feet,jsons/v1_VE1000_randls_3.json,628624,865462,35,Man
117,636815,DepthScenes,duration_manipulation_targetAtFixation,jsons/v1_VE1000_randls_3.json,http://54.235.29.9/FacialAge/BNav_EC2/DepthDuration/v2_depth_duration_MTurk/v2_DepthDuration_HTML.html#450,450,1920,937,1920,1080,8-30-2022,7-8-44,118,depth_duration_stimuli/003490_2014-05-21_15-50-11_094959634447_rgbf000101-resize_3/003490_2014-05-21_15-50-11_094959634447_rgbf000101-resize_3-target.png,1000,3.6445,15,2569,1000,feet,jsons/v1_VE1000_randls_3.json,628624,865462,35,Man
118,636815,DepthScenes,duration_manipulation_targetAtFixation,jsons/v1_VE1000_randls_3.json,http://54.235.29.9/FacialAge/BNav_EC2/DepthDuration/v2_depth_duration_MTurk/v2_DepthDuration_HTML.html#450,450,1920,937,1920,1080,8-30-2022,7-8-44,119,depth_duration_stimuli/002375_2014-06-28_20-13-44_260595134347_rgbf000032-resize_1/002375_2014-06-28_20-13-44_260595134347_rgbf000032-resize_1-target.png,1000,4.0175,12,2787,1005,feet,jsons/v1_VE1000_randls_3.json,628624,865462,35,Man
119,636815,DepthScenes,duration_manipulation_targetAtFixation,jsons/v1_VE1000_randls_3.json,http://54.235.29.9/FacialAge/BNav_EC2/DepthDuration/v2_depth_duration_MTurk/v2_DepthDuration_HTML.html#450,450,1920,937,1920,1080,8-30-2022,7-8-44,120,depth_duration_stimuli/002657_2014-06-13_15-29-54_094959634447_rgbf000150-resize_1/002657_2014-06-13_15-29-54_094959634447_rgbf000150-resize_1-target.png,1000,4.919,12,2475,1003,feet,jsons/v1_VE1000_randls_3.json,628624,865462,35,Man
120,636815,DepthScenes,duration_manipulation_targetAtFixation,jsons/v1_VE1000_randls_3.json,http://54.235.29.9/FacialAge/BNav_EC2/DepthDuration/v2_depth_duration_MTurk/v2_DepthDuration_HTML.html#450,450,1920,937,1920,1080,8-30-2022,7-8-44,121,depth_duration_stimuli/001016_2014-06-09_16-16-10_260595134347_rgbf000112-resize_5/001016_2014-06-09_16-16-10_260595134347_rgbf000112-resize_5-target.png,1000,1.6565,8,3220,999,feet,jsons/v1_VE1000_randls_3.json,628624,865462,35,Man
121,636815,DepthScenes,duration_manipulation_targetAtFixation,jsons/v1_VE1000_randls_3.json,http://54.235.29.9/FacialAge/BNav_EC2/DepthDuration/v2_depth_duration_MTurk/v2_DepthDuration_HTML.html#450,450,1920,937,1920,1080,8-30-2022,7-8-44,122,depth_duration_stimuli/002340_2014-06-28_20-05-46_260595134347_rgbf000113-resize_0/002340_2014-06-28_20-05-46_260595134347_rgbf000113-resize_0-target.png,1000,2.4735,0,6040,999,feet,jsons/v1_VE1000_randls_3.json,628624,865462,35,Man
122,636815,DepthScenes,duration_manipulation_targetAtFixation,jsons/v1_VE1000_randls_3.json,http://54.235.29.9/FacialAge/BNav_EC2/DepthDuration/v2_depth_duration_MTurk/v2_DepthDuration_HTML.html#450,450,1920,937,1920,1080,8-30-2022,7-8-44,123,depth_duration_stimuli/000506_2014-06-08_23-21-00_260595134347_rgbf000070-resize_7/000506_2014-06-08_23-21-00_260595134347_rgbf000070-resize_7-target.png,1000,4.0585,12,3565,1000,feet,jsons/v1_VE1000_randls_3.json,628624,865462,35,Man
123,636815,DepthScenes,duration_manipulation_targetAtFixation,jsons/v1_VE1000_randls_3.json,http://54.235.29.9/FacialAge/BNav_EC2/DepthDuration/v2_depth_duration_MTurk/v2_DepthDuration_HTML.html#450,450,1920,937,1920,1080,8-30-2022,7-8-44,124,depth_duration_stimuli/003079_2014-06-15_15-18-20_094959634447_rgbf000152-resize_8/003079_2014-06-15_15-18-20_094959634447_rgbf000152-resize_8-target.png,1000,2.8775,11,2705,1003,feet,jsons/v1_VE1000_randls_3.json,628624,865462,35,Man
124,636815,DepthScenes,duration_manipulation_targetAtFixation,jsons/v1_VE1000_randls_3.json,http://54.235.29.9/FacialAge/BNav_EC2/DepthDuration/v2_depth_duration_MTurk/v2_DepthDuration_HTML.html#450,450,1920,937,1920,1080,8-30-2022,7-8-44,125,depth_duration_stimuli/000493_2014-06-09_21-01-18_260595134347_rgbf000196-resize_3/000493_2014-06-09_21-01-18_260595134347_rgbf000196-resize_3-target.png,1000,3.44,13,3126,988,feet,jsons/v1_VE1000_randls_3.json,628624,865462,35,Man
125,636815,DepthScenes,duration_manipulation_targetAtFixation,jsons/v1_VE1000_randls_3.json,http://54.235.29.9/FacialAge/BNav_EC2/DepthDuration/v2_depth_duration_MTurk/v2_DepthDuration_HTML.html#450,450,1920,937,1920,1080,8-30-2022,7-8-44,126,depth_duration_stimuli/000191_2014-05-12_17-07-38_260595134347_rgbf000199-resize_0/000191_2014-05-12_17-07-38_260595134347_rgbf000199-resize_0-target.png,1000,3.7995,15,2807,986,feet,jsons/v1_VE1000_randls_3.json,628624,865462,35,Man
126,636815,DepthScenes,duration_manipulation_targetAtFixation,jsons/v1_VE1000_randls_3.json,http://54.235.29.9/FacialAge/BNav_EC2/DepthDuration/v2_depth_duration_MTurk/v2_DepthDuration_HTML.html#450,450,1920,937,1920,1080,8-30-2022,7-8-44,127,depth_duration_stimuli/002763_2014-06-22_19-13-10_094959634447_rgbf000075-resize_4/002763_2014-06-22_19-13-10_094959634447_rgbf000075-resize_4-target.png,1000,1.68375,7,2412,999,feet,jsons/v1_VE1000_randls_3.json,628624,865462,35,Man
127,636815,DepthScenes,duration_manipulation_targetAtFixation,jsons/v1_VE1000_randls_3.json,http://54.235.29.9/FacialAge/BNav_EC2/DepthDuration/v2_depth_duration_MTurk/v2_DepthDuration_HTML.html#450,450,1920,937,1920,1080,8-30-2022,7-8-44,128,depth_duration_stimuli/002209_2014-06-28_18-36-10_260595134347_rgbf000051-resize_1/002209_2014-06-28_18-36-10_260595134347_rgbf000051-resize_1-target.png,1000,2.057,6,2382,1008,feet,jsons/v1_VE1000_randls_3.json,628624,865462,35,Man
128,636815,DepthScenes,duration_manipulation_targetAtFixation,jsons/v1_VE1000_randls_3.json,http://54.235.29.9/FacialAge/BNav_EC2/DepthDuration/v2_depth_duration_MTurk/v2_DepthDuration_HTML.html#450,450,1920,937,1920,1080,8-30-2022,7-8-44,129,depth_duration_stimuli/003292_2014-05-14_21-53-49_094959634447_rgbf000100-resize_2/003292_2014-05-14_21-53-49_094959634447_rgbf000100-resize_2-target.png,1000,3.4815,10,3259,989,feet,jsons/v1_VE1000_randls_3.json,628624,865462,35,Man
129,636815,DepthScenes,duration_manipulation_targetAtFixation,jsons/v1_VE1000_randls_3.json,http://54.235.29.9/FacialAge/BNav_EC2/DepthDuration/v2_depth_duration_MTurk/v2_DepthDuration_HTML.html#450,450,1920,937,1920,1080,8-30-2022,7-8-44,130,depth_duration_stimuli/002639_2014-06-24_14-51-37_094959634447_rgbf000074-resize_4/002639_2014-06-24_14-51-37_094959634447_rgbf000074-resize_4-target.png,1000,4.0375,15,3178,993,feet,jsons/v1_VE1000_randls_3.json,628624,865462,35,Man
130,636815,DepthScenes,duration_manipulation_targetAtFixation,jsons/v1_VE1000_randls_3.json,http://54.235.29.9/FacialAge/BNav_EC2/DepthDuration/v2_depth_duration_MTurk/v2_DepthDuration_HTML.html#450,450,1920,937,1920,1080,8-30-2022,7-8-44,131,depth_duration_stimuli/001133_2014-06-17_14-49-16_260595134347_rgbf000100-resize_0/001133_2014-06-17_14-49-16_260595134347_rgbf000100-resize_0-target.png,1000,4.2115,15,2521,994,feet,jsons/v1_VE1000_randls_3.json,628624,865462,35,Man
131,636815,DepthScenes,duration_manipulation_targetAtFixation,jsons/v1_VE1000_randls_3.json,http://54.235.29.9/FacialAge/BNav_EC2/DepthDuration/v2_depth_duration_MTurk/v2_DepthDuration_HTML.html#450,450,1920,937,1920,1080,8-30-2022,7-8-44,132,depth_duration_stimuli/001132_2014-06-17_14-48-54_260595134347_rgbf000100-resize_2/001132_2014-06-17_14-48-54_260595134347_rgbf000100-resize_2-target.png,1000,3.753,12,2505,1000,feet,jsons/v1_VE1000_randls_3.json,628624,865462,35,Man
132,636815,DepthScenes,duration_manipulation_targetAtFixation,jsons/v1_VE1000_randls_3.json,http://54.235.29.9/FacialAge/BNav_EC2/DepthDuration/v2_depth_duration_MTurk/v2_DepthDuration_HTML.html#450,450,1920,937,1920,1080,8-30-2022,7-8-44,133,depth_duration_stimuli/002988_2014-06-15_12-24-20_094959634447_rgbf000150-resize_1/002988_2014-06-15_12-24-20_094959634447_rgbf000150-resize_1-target.png,1000,4.7669999999999995,18,2878,999,feet,jsons/v1_VE1000_randls_3.json,628624,865462,35,Man
133,636815,DepthScenes,duration_manipulation_targetAtFixation,jsons/v1_VE1000_randls_3.json,http://54.235.29.9/FacialAge/BNav_EC2/DepthDuration/v2_depth_duration_MTurk/v2_DepthDuration_HTML.html#450,450,1920,937,1920,1080,8-30-2022,7-8-44,134,depth_duration_stimuli/001052_2014-06-08_18-24-54_260595134347_rgbf000130-resize_1/001052_2014-06-08_18-24-54_260595134347_rgbf000130-resize_1-target.png,1000,4.1045,20,3795,996,feet,jsons/v1_VE1000_randls_3.json,628624,865462,35,Man
134,636815,DepthScenes,duration_manipulation_targetAtFixation,jsons/v1_VE1000_randls_3.json,http://54.235.29.9/FacialAge/BNav_EC2/DepthDuration/v2_depth_duration_MTurk/v2_DepthDuration_HTML.html#450,450,1920,937,1920,1080,8-30-2022,7-8-44,135,depth_duration_stimuli/002072_2014-06-24_21-48-06_260595134347_rgbf000115-resize_0/002072_2014-06-24_21-48-06_260595134347_rgbf000115-resize-original.jpg,1000,4.702,0,3057,989,feet,jsons/v1_VE1000_randls_3.json,628624,865462,35,Man
135,636815,DepthScenes,duration_manipulation_targetAtFixation,jsons/v1_VE1000_randls_3.json,http://54.235.29.9/FacialAge/BNav_EC2/DepthDuration/v2_depth_duration_MTurk/v2_DepthDuration_HTML.html#450,450,1920,937,1920,1080,8-30-2022,7-8-44,136,depth_duration_stimuli/002118_2014-06-25_20-32-08_260595134347_rgbf000078-resize_1/002118_2014-06-25_20-32-08_260595134347_rgbf000078-resize_1-target.png,1000,2.6460000000000004,8,3291,1000,feet,jsons/v1_VE1000_randls_3.json,628624,865462,35,Man
136,636815,DepthScenes,duration_manipulation_targetAtFixation,jsons/v1_VE1000_randls_3.json,http://54.235.29.9/FacialAge/BNav_EC2/DepthDuration/v2_depth_duration_MTurk/v2_DepthDuration_HTML.html#450,450,1920,937,1920,1080,8-30-2022,7-8-44,137,depth_duration_stimuli/001516_2014-06-20_16-25-09_260595134347_rgbf000076-resize_2/001516_2014-06-20_16-25-09_260595134347_rgbf000076-resize_2-target.png,1000,1.7445,6,2774,1001,feet,jsons/v1_VE1000_randls_3.json,628624,865462,35,Man
137,636815,DepthScenes,duration_manipulation_targetAtFixation,jsons/v1_VE1000_randls_3.json,http://54.235.29.9/FacialAge/BNav_EC2/DepthDuration/v2_depth_duration_MTurk/v2_DepthDuration_HTML.html#450,450,1920,937,1920,1080,8-30-2022,7-8-44,138,depth_duration_stimuli/002039_2014-06-24_20-22-38_260595134347_rgbf000084-resize_1/002039_2014-06-24_20-22-38_260595134347_rgbf000084-resize_1-target.png,1000,4.408,14,4801,1000,feet,jsons/v1_VE1000_randls_3.json,628624,865462,35,Man
138,636815,DepthScenes,duration_manipulation_targetAtFixation,jsons/v1_VE1000_randls_3.json,http://54.235.29.9/FacialAge/BNav_EC2/DepthDuration/v2_depth_duration_MTurk/v2_DepthDuration_HTML.html#450,450,1920,937,1920,1080,8-30-2022,7-8-44,139,depth_duration_stimuli/002103_2014-06-25_20-00-40_260595134347_rgbf000049-resize_0/002103_2014-06-25_20-00-40_260595134347_rgbf000049-resize_0-target.png,1000,4.105,18,3398,1000,feet,jsons/v1_VE1000_randls_3.json,628624,865462,35,Man
139,636815,DepthScenes,duration_manipulation_targetAtFixation,jsons/v1_VE1000_randls_3.json,http://54.235.29.9/FacialAge/BNav_EC2/DepthDuration/v2_depth_duration_MTurk/v2_DepthDuration_HTML.html#450,450,1920,937,1920,1080,8-30-2022,7-8-44,140,depth_duration_stimuli/002748_2014-06-22_19-07-22_094959634447_rgbf000078-resize_1/002748_2014-06-22_19-07-22_094959634447_rgbf000078-resize_1-target.png,1000,4.6705,25,3225,999,feet,jsons/v1_VE1000_randls_3.json,628624,865462,35,Man
140,636815,DepthScenes,duration_manipulation_targetAtFixation,jsons/v1_VE1000_randls_3.json,http://54.235.29.9/FacialAge/BNav_EC2/DepthDuration/v2_depth_duration_MTurk/v2_DepthDuration_HTML.html#450,450,1920,937,1920,1080,8-30-2022,7-8-44,141,depth_duration_stimuli/002995_2014-06-15_12-31-26_094959634447_rgbf000150-resize_1/002995_2014-06-15_12-31-26_094959634447_rgbf000150-resize_1-target.png,1000,3.8360000000000003,20,3850,997,feet,jsons/v1_VE1000_randls_3.json,628624,865462,35,Man
141,636815,DepthScenes,duration_manipulation_targetAtFixation,jsons/v1_VE1000_randls_3.json,http://54.235.29.9/FacialAge/BNav_EC2/DepthDuration/v2_depth_duration_MTurk/v2_DepthDuration_HTML.html#450,450,1920,937,1920,1080,8-30-2022,7-8-44,142,depth_duration_stimuli/001417_2014-06-19_16-25-36_260595134347_rgbf000115-resize_5/001417_2014-06-19_16-25-36_260595134347_rgbf000115-resize_5-target.png,1000,4.6255,16,3319,999,feet,jsons/v1_VE1000_randls_3.json,628624,865462,35,Man
142,636815,DepthScenes,duration_manipulation_targetAtFixation,jsons/v1_VE1000_randls_3.json,http://54.235.29.9/FacialAge/BNav_EC2/DepthDuration/v2_depth_duration_MTurk/v2_DepthDuration_HTML.html#450,450,1920,937,1920,1080,8-30-2022,7-8-44,143,depth_duration_stimuli/003081_2014-06-15_15-19-16_094959634447_rgbf000150-resize_1/003081_2014-06-15_15-19-16_094959634447_rgbf000150-resize_1-target.png,1000,3.9125,14,3873,1002,feet,jsons/v1_VE1000_randls_3.json,628624,865462,35,Man
143,636815,DepthScenes,duration_manipulation_targetAtFixation,jsons/v1_VE1000_randls_3.json,http://54.235.29.9/FacialAge/BNav_EC2/DepthDuration/v2_depth_duration_MTurk/v2_DepthDuration_HTML.html#450,450,1920,937,1920,1080,8-30-2022,7-8-44,144,depth_duration_stimuli/000522_2014-06-08_13-35-06_260595134347_rgbf000244-resize_1/000522_2014-06-08_13-35-06_260595134347_rgbf000244-resize_1-target.png,1000,2.3715,3,2584,992,feet,jsons/v1_VE1000_randls_3.json,628624,865462,35,Man
144,636815,DepthScenes,duration_manipulation_targetAtFixation,jsons/v1_VE1000_randls_3.json,http://54.235.29.9/FacialAge/BNav_EC2/DepthDuration/v2_depth_duration_MTurk/v2_DepthDuration_HTML.html#450,450,1920,937,1920,1080,8-30-2022,7-8-44,145,depth_duration_stimuli/002949_2014-06-26_15-57-42_094959634447_rgbf000079-resize_1/002949_2014-06-26_15-57-42_094959634447_rgbf000079-resize_1-target.png,1000,1.8915,5,2256,1001,feet,jsons/v1_VE1000_randls_3.json,628624,865462,35,Man
145,636815,DepthScenes,duration_manipulation_targetAtFixation,jsons/v1_VE1000_randls_3.json,http://54.235.29.9/FacialAge/BNav_EC2/DepthDuration/v2_depth_duration_MTurk/v2_DepthDuration_HTML.html#450,450,1920,937,1920,1080,8-30-2022,7-8-44,146,depth_duration_stimuli/001498_2014-06-19_17-45-14_260595134347_rgbf000129-resize_4/001498_2014-06-19_17-45-14_260595134347_rgbf000129-resize-original.jpg,1000,1.4075,0,4632,1011,feet,jsons/v1_VE1000_randls_3.json,628624,865462,35,Man
146,636815,DepthScenes,duration_manipulation_targetAtFixation,jsons/v1_VE1000_randls_3.json,http://54.235.29.9/FacialAge/BNav_EC2/DepthDuration/v2_depth_duration_MTurk/v2_DepthDuration_HTML.html#450,450,1920,937,1920,1080,8-30-2022,7-8-44,147,depth_duration_stimuli/002549_2014-06-24_13-41-39_094959634447_rgbf000022-resize_3/002549_2014-06-24_13-41-39_094959634447_rgbf000022-resize_3-target.png,1000,1.476,5,2745,1001,feet,jsons/v1_VE1000_randls_3.json,628624,865462,35,Man
147,636815,DepthScenes,duration_manipulation_targetAtFixation,jsons/v1_VE1000_randls_3.json,http://54.235.29.9/FacialAge/BNav_EC2/DepthDuration/v2_depth_duration_MTurk/v2_DepthDuration_HTML.html#450,450,1920,937,1920,1080,8-30-2022,7-8-44,148,depth_duration_stimuli/002750_2014-06-22_19-08-03_094959634447_rgbf000094-resize_4/002750_2014-06-22_19-08-03_094959634447_rgbf000094-resize_4-target.png,1000,2.354,8,2426,1006,feet,jsons/v1_VE1000_randls_3.json,628624,865462,35,Man
148,636815,DepthScenes,duration_manipulation_targetAtFixation,jsons/v1_VE1000_randls_3.json,http://54.235.29.9/FacialAge/BNav_EC2/DepthDuration/v2_depth_duration_MTurk/v2_DepthDuration_HTML.html#450,450,1920,937,1920,1080,8-30-2022,7-8-44,149,depth_duration_stimuli/001570_2014-06-20_17-21-09_260595134347_rgbf000135-resize_4/001570_2014-06-20_17-21-09_260595134347_rgbf000135-resize_4-target.png,1000,4.467,14,2967,998,feet,jsons/v1_VE1000_randls_3.json,628624,865462,35,Man
149,636815,DepthScenes,duration_manipulation_targetAtFixation,jsons/v1_VE1000_randls_3.json,http://54.235.29.9/FacialAge/BNav_EC2/DepthDuration/v2_depth_duration_MTurk/v2_DepthDuration_HTML.html#450,450,1920,937,1920,1080,8-30-2022,7-8-44,150,depth_duration_stimuli/001392_2014-06-19_16-07-59_260595134347_rgbf000046-resize_1/001392_2014-06-19_16-07-59_260595134347_rgbf000046-resize_1-target.png,1000,4.135,15,2413,993,feet,jsons/v1_VE1000_randls_3.json,628624,865462,35,Man
150,636815,DepthScenes,duration_manipulation_targetAtFixation,jsons/v1_VE1000_randls_3.json,http://54.235.29.9/FacialAge/BNav_EC2/DepthDuration/v2_depth_duration_MTurk/v2_DepthDuration_HTML.html#450,450,1920,937,1920,1080,8-30-2022,7-8-44,151,depth_duration_stimuli/003070_2014-06-15_14-58-27_094959634447_rgbf000150-resize_3/003070_2014-06-15_14-58-27_094959634447_rgbf000150-resize_3-target.png,1000,2.9415,11,5808,1009,feet,jsons/v1_VE1000_randls_3.json,628624,865462,35,Man
151,636815,DepthScenes,duration_manipulation_targetAtFixation,jsons/v1_VE1000_randls_3.json,http://54.235.29.9/FacialAge/BNav_EC2/DepthDuration/v2_depth_duration_MTurk/v2_DepthDuration_HTML.html#450,450,1920,937,1920,1080,8-30-2022,7-8-44,152,depth_duration_stimuli/000943_2014-06-09_19-31-07_260595134347_rgbf000128-resize_1/000943_2014-06-09_19-31-07_260595134347_rgbf000128-resize_1-target.png,1000,1.9765,6,2523,1000,feet,jsons/v1_VE1000_randls_3.json,628624,865462,35,Man
152,636815,DepthScenes,duration_manipulation_targetAtFixation,jsons/v1_VE1000_randls_3.json,http://54.235.29.9/FacialAge/BNav_EC2/DepthDuration/v2_depth_duration_MTurk/v2_DepthDuration_HTML.html#450,450,1920,937,1920,1080,8-30-2022,7-8-44,153,depth_duration_stimuli/000682_2014-06-08_23-14-58_260595134347_rgbf000041-resize_5/000682_2014-06-08_23-14-58_260595134347_rgbf000041-resize_5-target.png,1000,2.7239999999999998,8,2835,998,feet,jsons/v1_VE1000_randls_3.json,628624,865462,35,Man
153,636815,DepthScenes,duration_manipulation_targetAtFixation,jsons/v1_VE1000_randls_3.json,http://54.235.29.9/FacialAge/BNav_EC2/DepthDuration/v2_depth_duration_MTurk/v2_DepthDuration_HTML.html#450,450,1920,937,1920,1080,8-30-2022,7-8-44,154,depth_duration_stimuli/001650_2014-06-20_12-09-00_260595134347_rgbf000087-resize_3/001650_2014-06-20_12-09-00_260595134347_rgbf000087-resize_3-target.png,1000,1.9505,3,2682,1012,feet,jsons/v1_VE1000_randls_3.json,628624,865462,35,Man
154,636815,DepthScenes,duration_manipulation_targetAtFixation,jsons/v1_VE1000_randls_3.json,http://54.235.29.9/FacialAge/BNav_EC2/DepthDuration/v2_depth_duration_MTurk/v2_DepthDuration_HTML.html#450,450,1920,937,1920,1080,8-30-2022,7-8-44,155,depth_duration_stimuli/001029_2014-06-08_13-17-57_260595134347_rgbf000065-resize_1/001029_2014-06-08_13-17-57_260595134347_rgbf000065-resize_1-target.png,1000,3.0835,8,2488,995,feet,jsons/v1_VE1000_randls_3.json,628624,865462,35,Man
155,636815,DepthScenes,duration_manipulation_targetAtFixation,jsons/v1_VE1000_randls_3.json,http://54.235.29.9/FacialAge/BNav_EC2/DepthDuration/v2_depth_duration_MTurk/v2_DepthDuration_HTML.html#450,450,1920,937,1920,1080,8-30-2022,7-8-44,156,depth_duration_stimuli/000677_2014-06-08_23-10-32_260595134347_rgbf000158-resize_6/000677_2014-06-08_23-10-32_260595134347_rgbf000158-resize_6-target.png,1000,3.556,11,2749,996,feet,jsons/v1_VE1000_randls_3.json,628624,865462,35,Man
156,636815,DepthScenes,duration_manipulation_targetAtFixation,jsons/v1_VE1000_randls_3.json,http://54.235.29.9/FacialAge/BNav_EC2/DepthDuration/v2_depth_duration_MTurk/v2_DepthDuration_HTML.html#450,450,1920,937,1920,1080,8-30-2022,7-8-44,157,depth_duration_stimuli/002509_2014-06-24_13-19-22_094959634447_rgbf000077-resize_0/002509_2014-06-24_13-19-22_094959634447_rgbf000077-resize_0-target.png,1000,1.3065,6,2304,1001,feet,jsons/v1_VE1000_randls_3.json,628624,865462,35,Man
157,636815,DepthScenes,duration_manipulation_targetAtFixation,jsons/v1_VE1000_randls_3.json,http://54.235.29.9/FacialAge/BNav_EC2/DepthDuration/v2_depth_duration_MTurk/v2_DepthDuration_HTML.html#450,450,1920,937,1920,1080,8-30-2022,7-8-44,158,depth_duration_stimuli/003338_2014-05-20_11-01-23_094959634447_rgbf000051-resize_6/003338_2014-05-20_11-01-23_094959634447_rgbf000051-resize_6-target.png,1000,1.693,5,2167,990,feet,jsons/v1_VE1000_randls_3.json,628624,865462,35,Man
158,636815,DepthScenes,duration_manipulation_targetAtFixation,jsons/v1_VE1000_randls_3.json,http://54.235.29.9/FacialAge/BNav_EC2/DepthDuration/v2_depth_duration_MTurk/v2_DepthDuration_HTML.html#450,450,1920,937,1920,1080,8-30-2022,7-8-44,159,depth_duration_stimuli/001164_2014-06-17_15-35-46_260595134347_rgbf000085-resize_3/001164_2014-06-17_15-35-46_260595134347_rgbf000085-resize_3-target.png,1000,2.354,7,2321,989,feet,jsons/v1_VE1000_randls_3.json,628624,865462,35,Man
159,636815,DepthScenes,duration_manipulation_targetAtFixation,jsons/v1_VE1000_randls_3.json,http://54.235.29.9/FacialAge/BNav_EC2/DepthDuration/v2_depth_duration_MTurk/v2_DepthDuration_HTML.html#450,450,1920,937,1920,1080,8-30-2022,7-8-44,160,depth_duration_stimuli/001136_2014-06-17_15-19-41_260595134347_rgbf000076-resize_3/001136_2014-06-17_15-19-41_260595134347_rgbf000076-resize_3-target.png,1000,1.8655,9,2310,1000,feet,jsons/v1_VE1000_randls_3.json,628624,865462,35,Man
160,636815,DepthScenes,duration_manipulation_targetAtFixation,jsons/v1_VE1000_randls_3.json,http://54.235.29.9/FacialAge/BNav_EC2/DepthDuration/v2_depth_duration_MTurk/v2_DepthDuration_HTML.html#450,450,1920,937,1920,1080,8-30-2022,7-8-44,161,depth_duration_stimuli/000810_2014-06-08_17-20-01_260595134347_rgbf000105-resize_0/000810_2014-06-08_17-20-01_260595134347_rgbf000105-resize_0-target.png,1000,1.4865,6,2270,1001,feet,jsons/v1_VE1000_randls_3.json,628624,865462,35,Man
161,636815,DepthScenes,duration_manipulation_targetAtFixation,jsons/v1_VE1000_randls_3.json,http://54.235.29.9/FacialAge/BNav_EC2/DepthDuration/v2_depth_duration_MTurk/v2_DepthDuration_HTML.html#450,450,1920,937,1920,1080,8-30-2022,7-8-44,162,depth_duration_stimuli/001214_2014-06-17_16-13-55_260595134347_rgbf000111-resize_0/001214_2014-06-17_16-13-55_260595134347_rgbf000111-resize_0-target.png,1000,2.6505,12,2276,998,feet,jsons/v1_VE1000_randls_3.json,628624,865462,35,Man
162,636815,DepthScenes,duration_manipulation_targetAtFixation,jsons/v1_VE1000_randls_3.json,http://54.235.29.9/FacialAge/BNav_EC2/DepthDuration/v2_depth_duration_MTurk/v2_DepthDuration_HTML.html#450,450,1920,937,1920,1080,8-30-2022,7-8-44,163,depth_duration_stimuli/001110_2014-06-15_17-25-28_260595134347_rgbf000150-resize_1/001110_2014-06-15_17-25-28_260595134347_rgbf000150-resize_1-target.png,1000,1.7115,8,2834,991,feet,jsons/v1_VE1000_randls_3.json,628624,865462,35,Man
163,636815,DepthScenes,duration_manipulation_targetAtFixation,jsons/v1_VE1000_randls_3.json,http://54.235.29.9/FacialAge/BNav_EC2/DepthDuration/v2_depth_duration_MTurk/v2_DepthDuration_HTML.html#450,450,1920,937,1920,1080,8-30-2022,7-8-44,164,depth_duration_stimuli/000927_2014-06-09_16-32-30_260595134347_rgbf000123-resize_3/000927_2014-06-09_16-32-30_260595134347_rgbf000123-resize_3-target.png,1000,2.6785,14,2309,998,feet,jsons/v1_VE1000_randls_3.json,628624,865462,35,Man
