,subjID,experimentName,versionName,sequenceName,url,selected_row,windowWidth,windowHeight,screenWidth,screenHeight,startDate,startTime,trial,stimulus,duration,actual_depth,depth_estimate,trial_RT,log_sceneDuration,unitSelection,seq_filepath,experimentTime,totalTime,age,gender
0,637876,DepthScenes,duration_manipulation_targetAtFixation,jsons/v1_VE250_randls_15.json,http://54.235.29.9/FacialAge/BNav_EC2/DepthDuration/v2_depth_duration_MTurk/v2_DepthDuration_HTML.html#73,73,1366,625,1366,768,8-30-2022,9-56-52,1,depth_duration_stimuli/002964_2014-06-08_17-46-11_094959634447_rgbf000091-resize_4/002964_2014-06-08_17-46-11_094959634447_rgbf000091-resize_4-target.png,250,1.6909999999999998,5,9492,193,meters,jsons/v1_VE250_randls_15.json,1463014,2108184,65,Man
1,637876,DepthScenes,duration_manipulation_targetAtFixation,jsons/v1_VE250_randls_15.json,http://54.235.29.9/FacialAge/BNav_EC2/DepthDuration/v2_depth_duration_MTurk/v2_DepthDuration_HTML.html#73,73,1366,625,1366,768,8-30-2022,9-56-52,2,depth_duration_stimuli/002136_2014-06-25_21-18-03_260595134347_rgbf000109-resize_3/002136_2014-06-25_21-18-03_260595134347_rgbf000109-resize_3-target.png,250,1.9569999999999999,3,7213,309,meters,jsons/v1_VE250_randls_15.json,1463014,2108184,65,Man
2,637876,DepthScenes,duration_manipulation_targetAtFixation,jsons/v1_VE250_randls_15.json,http://54.235.29.9/FacialAge/BNav_EC2/DepthDuration/v2_depth_duration_MTurk/v2_DepthDuration_HTML.html#73,73,1366,625,1366,768,8-30-2022,9-56-52,3,depth_duration_stimuli/002272_2014-06-28_18-53-56_260595134347_rgbf000067-resize_2/002272_2014-06-28_18-53-56_260595134347_rgbf000067-resize_2-target.png,250,1.138,2,7894,369,meters,jsons/v1_VE250_randls_15.json,1463014,2108184,65,Man
3,637876,DepthScenes,duration_manipulation_targetAtFixation,jsons/v1_VE250_randls_15.json,http://54.235.29.9/FacialAge/BNav_EC2/DepthDuration/v2_depth_duration_MTurk/v2_DepthDuration_HTML.html#73,73,1366,625,1366,768,8-30-2022,9-56-52,4,depth_duration_stimuli/001571_2014-06-20_17-21-32_260595134347_rgbf000089-resize_1/001571_2014-06-20_17-21-32_260595134347_rgbf000089-resize_1-target.png,250,1.86,2,7342,0,meters,jsons/v1_VE250_randls_15.json,1463014,2108184,65,Man
4,637876,DepthScenes,duration_manipulation_targetAtFixation,jsons/v1_VE250_randls_15.json,http://54.235.29.9/FacialAge/BNav_EC2/DepthDuration/v2_depth_duration_MTurk/v2_DepthDuration_HTML.html#73,73,1366,625,1366,768,8-30-2022,9-56-52,5,depth_duration_stimuli/002988_2014-06-15_12-24-20_094959634447_rgbf000150-resize_1/002988_2014-06-15_12-24-20_094959634447_rgbf000150-resize_1-target.png,250,4.7669999999999995,6,11030,252,meters,jsons/v1_VE250_randls_15.json,1463014,2108184,65,Man
5,637876,DepthScenes,duration_manipulation_targetAtFixation,jsons/v1_VE250_randls_15.json,http://54.235.29.9/FacialAge/BNav_EC2/DepthDuration/v2_depth_duration_MTurk/v2_DepthDuration_HTML.html#73,73,1366,625,1366,768,8-30-2022,9-56-52,6,depth_duration_stimuli/001052_2014-06-08_18-24-54_260595134347_rgbf000130-resize_1/001052_2014-06-08_18-24-54_260595134347_rgbf000130-resize_1-target.png,250,4.1045,5,5826,472,meters,jsons/v1_VE250_randls_15.json,1463014,2108184,65,Man
6,637876,DepthScenes,duration_manipulation_targetAtFixation,jsons/v1_VE250_randls_15.json,http://54.235.29.9/FacialAge/BNav_EC2/DepthDuration/v2_depth_duration_MTurk/v2_DepthDuration_HTML.html#73,73,1366,625,1366,768,8-30-2022,9-56-52,7,depth_duration_stimuli/001110_2014-06-15_17-25-28_260595134347_rgbf000150-resize_1/001110_2014-06-15_17-25-28_260595134347_rgbf000150-resize_1-target.png,250,1.7115,3,6711,111,meters,jsons/v1_VE250_randls_15.json,1463014,2108184,65,Man
7,637876,DepthScenes,duration_manipulation_targetAtFixation,jsons/v1_VE250_randls_15.json,http://54.235.29.9/FacialAge/BNav_EC2/DepthDuration/v2_depth_duration_MTurk/v2_DepthDuration_HTML.html#73,73,1366,625,1366,768,8-30-2022,9-56-52,8,depth_duration_stimuli/000927_2014-06-09_16-32-30_260595134347_rgbf000123-resize_3/000927_2014-06-09_16-32-30_260595134347_rgbf000123-resize_3-target.png,250,2.6785,4,4854,320,meters,jsons/v1_VE250_randls_15.json,1463014,2108184,65,Man
8,637876,DepthScenes,duration_manipulation_targetAtFixation,jsons/v1_VE250_randls_15.json,http://54.235.29.9/FacialAge/BNav_EC2/DepthDuration/v2_depth_duration_MTurk/v2_DepthDuration_HTML.html#73,73,1366,625,1366,768,8-30-2022,9-56-52,9,depth_duration_stimuli/002748_2014-06-22_19-07-22_094959634447_rgbf000078-resize_1/002748_2014-06-22_19-07-22_094959634447_rgbf000078-resize_1-target.png,250,4.6705,2,8050,0,meters,jsons/v1_VE250_randls_15.json,1463014,2108184,65,Man
9,637876,DepthScenes,duration_manipulation_targetAtFixation,jsons/v1_VE250_randls_15.json,http://54.235.29.9/FacialAge/BNav_EC2/DepthDuration/v2_depth_duration_MTurk/v2_DepthDuration_HTML.html#73,73,1366,625,1366,768,8-30-2022,9-56-52,10,depth_duration_stimuli/002995_2014-06-15_12-31-26_094959634447_rgbf000150-resize_1/002995_2014-06-15_12-31-26_094959634447_rgbf000150-resize_1-target.png,250,3.8360000000000003,4,5416,692,meters,jsons/v1_VE250_randls_15.json,1463014,2108184,65,Man
10,637876,DepthScenes,duration_manipulation_targetAtFixation,jsons/v1_VE250_randls_15.json,http://54.235.29.9/FacialAge/BNav_EC2/DepthDuration/v2_depth_duration_MTurk/v2_DepthDuration_HTML.html#73,73,1366,625,1366,768,8-30-2022,9-56-52,11,depth_duration_stimuli/000773_2014-06-08_22-24-54_260595134347_rgbf000093-resize_1/000773_2014-06-08_22-24-54_260595134347_rgbf000093-resize_1-target.png,250,4.973,3,9914,0,meters,jsons/v1_VE250_randls_15.json,1463014,2108184,65,Man
11,637876,DepthScenes,duration_manipulation_targetAtFixation,jsons/v1_VE250_randls_15.json,http://54.235.29.9/FacialAge/BNav_EC2/DepthDuration/v2_depth_duration_MTurk/v2_DepthDuration_HTML.html#73,73,1366,625,1366,768,8-30-2022,9-56-52,12,depth_duration_stimuli/002414_2014-06-28_20-24-58_260595134347_rgbf000067-resize_4/002414_2014-06-28_20-24-58_260595134347_rgbf000067-resize_4-target.png,250,4.363,4,6644,395,meters,jsons/v1_VE250_randls_15.json,1463014,2108184,65,Man
12,637876,DepthScenes,duration_manipulation_targetAtFixation,jsons/v1_VE250_randls_15.json,http://54.235.29.9/FacialAge/BNav_EC2/DepthDuration/v2_depth_duration_MTurk/v2_DepthDuration_HTML.html#73,73,1366,625,1366,768,8-30-2022,9-56-52,13,depth_duration_stimuli/000569_2014-06-09_22-51-47_260595134347_rgbf000141-resize_3/000569_2014-06-09_22-51-47_260595134347_rgbf000141-resize-original.jpg,250,4.512,3,5528,511,meters,jsons/v1_VE250_randls_15.json,1463014,2108184,65,Man
13,637876,DepthScenes,duration_manipulation_targetAtFixation,jsons/v1_VE250_randls_15.json,http://54.235.29.9/FacialAge/BNav_EC2/DepthDuration/v2_depth_duration_MTurk/v2_DepthDuration_HTML.html#73,73,1366,625,1366,768,8-30-2022,9-56-52,14,depth_duration_stimuli/002279_2014-06-28_18-55-32_260595134347_rgbf000040-resize_5/002279_2014-06-28_18-55-32_260595134347_rgbf000040-resize_5-target.png,250,1.5043333333333,2,6475,155,meters,jsons/v1_VE250_randls_15.json,1463014,2108184,65,Man
14,637876,DepthScenes,duration_manipulation_targetAtFixation,jsons/v1_VE250_randls_15.json,http://54.235.29.9/FacialAge/BNav_EC2/DepthDuration/v2_depth_duration_MTurk/v2_DepthDuration_HTML.html#73,73,1366,625,1366,768,8-30-2022,9-56-52,15,depth_duration_stimuli/000635_2014-06-08_16-38-42_260595134347_rgbf000106-resize_1/000635_2014-06-08_16-38-42_260595134347_rgbf000106-resize_1-target.png,250,2.074,3,4662,345,meters,jsons/v1_VE250_randls_15.json,1463014,2108184,65,Man
15,637876,DepthScenes,duration_manipulation_targetAtFixation,jsons/v1_VE250_randls_15.json,http://54.235.29.9/FacialAge/BNav_EC2/DepthDuration/v2_depth_duration_MTurk/v2_DepthDuration_HTML.html#73,73,1366,625,1366,768,8-30-2022,9-56-52,16,depth_duration_stimuli/001417_2014-06-19_16-25-36_260595134347_rgbf000115-resize_5/001417_2014-06-19_16-25-36_260595134347_rgbf000115-resize_5-target.png,250,4.6255,4,7967,93,meters,jsons/v1_VE250_randls_15.json,1463014,2108184,65,Man
16,637876,DepthScenes,duration_manipulation_targetAtFixation,jsons/v1_VE250_randls_15.json,http://54.235.29.9/FacialAge/BNav_EC2/DepthDuration/v2_depth_duration_MTurk/v2_DepthDuration_HTML.html#73,73,1366,625,1366,768,8-30-2022,9-56-52,17,depth_duration_stimuli/003081_2014-06-15_15-19-16_094959634447_rgbf000150-resize_1/003081_2014-06-15_15-19-16_094959634447_rgbf000150-resize_1-target.png,250,3.9125,3,6976,336,meters,jsons/v1_VE250_randls_15.json,1463014,2108184,65,Man
17,637876,DepthScenes,duration_manipulation_targetAtFixation,jsons/v1_VE250_randls_15.json,http://54.235.29.9/FacialAge/BNav_EC2/DepthDuration/v2_depth_duration_MTurk/v2_DepthDuration_HTML.html#73,73,1366,625,1366,768,8-30-2022,9-56-52,18,depth_duration_stimuli/003492_2014-05-21_15-50-55_094959634447_rgbf000828-resize_1/003492_2014-05-21_15-50-55_094959634447_rgbf000828-resize_1-target.png,250,4.06875,4,6203,257,meters,jsons/v1_VE250_randls_15.json,1463014,2108184,65,Man
18,637876,DepthScenes,duration_manipulation_targetAtFixation,jsons/v1_VE250_randls_15.json,http://54.235.29.9/FacialAge/BNav_EC2/DepthDuration/v2_depth_duration_MTurk/v2_DepthDuration_HTML.html#73,73,1366,625,1366,768,8-30-2022,9-56-52,19,depth_duration_stimuli/002568_2014-06-24_13-59-21_094959634447_rgbf000062-resize_4/002568_2014-06-24_13-59-21_094959634447_rgbf000062-resize_4-target.png,250,3.015,4,5191,116,meters,jsons/v1_VE250_randls_15.json,1463014,2108184,65,Man
19,637876,DepthScenes,duration_manipulation_targetAtFixation,jsons/v1_VE250_randls_15.json,http://54.235.29.9/FacialAge/BNav_EC2/DepthDuration/v2_depth_duration_MTurk/v2_DepthDuration_HTML.html#73,73,1366,625,1366,768,8-30-2022,9-56-52,20,depth_duration_stimuli/002989_2014-06-15_12-25-03_094959634447_rgbf000150-resize_3/002989_2014-06-15_12-25-03_094959634447_rgbf000150-resize_3-target.png,250,4.1975,3,4519,0,meters,jsons/v1_VE250_randls_15.json,1463014,2108184,65,Man
20,637876,DepthScenes,duration_manipulation_targetAtFixation,jsons/v1_VE250_randls_15.json,http://54.235.29.9/FacialAge/BNav_EC2/DepthDuration/v2_depth_duration_MTurk/v2_DepthDuration_HTML.html#73,73,1366,625,1366,768,8-30-2022,9-56-52,21,depth_duration_stimuli/000866_2014-06-09_20-45-42_260595134347_rgbf000139-resize_1/000866_2014-06-09_20-45-42_260595134347_rgbf000139-resize_1-target.png,250,3.2155,4,4889,137,meters,jsons/v1_VE250_randls_15.json,1463014,2108184,65,Man
21,637876,DepthScenes,duration_manipulation_targetAtFixation,jsons/v1_VE250_randls_15.json,http://54.235.29.9/FacialAge/BNav_EC2/DepthDuration/v2_depth_duration_MTurk/v2_DepthDuration_HTML.html#73,73,1366,625,1366,768,8-30-2022,9-56-52,22,depth_duration_stimuli/001810_2014-06-26_20-51-35_260595134347_rgbf000040-resize_3/001810_2014-06-26_20-51-35_260595134347_rgbf000040-resize_3-target.png,250,2.2525,2,5167,188,meters,jsons/v1_VE250_randls_15.json,1463014,2108184,65,Man
22,637876,DepthScenes,duration_manipulation_targetAtFixation,jsons/v1_VE250_randls_15.json,http://54.235.29.9/FacialAge/BNav_EC2/DepthDuration/v2_depth_duration_MTurk/v2_DepthDuration_HTML.html#73,73,1366,625,1366,768,8-30-2022,9-56-52,23,depth_duration_stimuli/003010_2014-06-15_12-54-35_094959634447_rgbf000112-resize_0/003010_2014-06-15_12-54-35_094959634447_rgbf000112-resize_0-target.png,250,3.1185,4,9644,1037,meters,jsons/v1_VE250_randls_15.json,1463014,2108184,65,Man
23,637876,DepthScenes,duration_manipulation_targetAtFixation,jsons/v1_VE250_randls_15.json,http://54.235.29.9/FacialAge/BNav_EC2/DepthDuration/v2_depth_duration_MTurk/v2_DepthDuration_HTML.html#73,73,1366,625,1366,768,8-30-2022,9-56-52,24,depth_duration_stimuli/000486_2014-06-09_20-47-20_260595134347_rgbf000143-resize_2/000486_2014-06-09_20-47-20_260595134347_rgbf000143-resize_2-target.png,250,4.8325,5,7324,742,meters,jsons/v1_VE250_randls_15.json,1463014,2108184,65,Man
24,637876,DepthScenes,duration_manipulation_targetAtFixation,jsons/v1_VE250_randls_15.json,http://54.235.29.9/FacialAge/BNav_EC2/DepthDuration/v2_depth_duration_MTurk/v2_DepthDuration_HTML.html#73,73,1366,625,1366,768,8-30-2022,9-56-52,25,depth_duration_stimuli/003083_2014-06-15_15-21-03_094959634447_rgbf000063-resize_1/003083_2014-06-15_15-21-03_094959634447_rgbf000063-resize_1-target.png,250,4.1405,2,7861,17,meters,jsons/v1_VE250_randls_15.json,1463014,2108184,65,Man
25,637876,DepthScenes,duration_manipulation_targetAtFixation,jsons/v1_VE250_randls_15.json,http://54.235.29.9/FacialAge/BNav_EC2/DepthDuration/v2_depth_duration_MTurk/v2_DepthDuration_HTML.html#73,73,1366,625,1366,768,8-30-2022,9-56-52,26,depth_duration_stimuli/002375_2014-06-28_20-13-44_260595134347_rgbf000032-resize_1/002375_2014-06-28_20-13-44_260595134347_rgbf000032-resize_1-target.png,250,4.0175,3,9785,2,meters,jsons/v1_VE250_randls_15.json,1463014,2108184,65,Man
26,637876,DepthScenes,duration_manipulation_targetAtFixation,jsons/v1_VE250_randls_15.json,http://54.235.29.9/FacialAge/BNav_EC2/DepthDuration/v2_depth_duration_MTurk/v2_DepthDuration_HTML.html#73,73,1366,625,1366,768,8-30-2022,9-56-52,27,depth_duration_stimuli/002657_2014-06-13_15-29-54_094959634447_rgbf000150-resize_1/002657_2014-06-13_15-29-54_094959634447_rgbf000150-resize_1-target.png,250,4.919,3,11792,253,meters,jsons/v1_VE250_randls_15.json,1463014,2108184,65,Man
27,637876,DepthScenes,duration_manipulation_targetAtFixation,jsons/v1_VE250_randls_15.json,http://54.235.29.9/FacialAge/BNav_EC2/DepthDuration/v2_depth_duration_MTurk/v2_DepthDuration_HTML.html#73,73,1366,625,1366,768,8-30-2022,9-56-52,28,depth_duration_stimuli/001199_2014-06-17_16-03-48_260595134347_rgbf000077-resize_0/001199_2014-06-17_16-03-48_260595134347_rgbf000077-resize_0-target.png,250,3.4375,4,6184,98,meters,jsons/v1_VE250_randls_15.json,1463014,2108184,65,Man
28,637876,DepthScenes,duration_manipulation_targetAtFixation,jsons/v1_VE250_randls_15.json,http://54.235.29.9/FacialAge/BNav_EC2/DepthDuration/v2_depth_duration_MTurk/v2_DepthDuration_HTML.html#73,73,1366,625,1366,768,8-30-2022,9-56-52,29,depth_duration_stimuli/000502_2014-06-08_23-02-32_260595134347_rgbf000063-resize_4/000502_2014-06-08_23-02-32_260595134347_rgbf000063-resize_4-target.png,250,2.431,3,6063,154,meters,jsons/v1_VE250_randls_15.json,1463014,2108184,65,Man
29,637876,DepthScenes,duration_manipulation_targetAtFixation,jsons/v1_VE250_randls_15.json,http://54.235.29.9/FacialAge/BNav_EC2/DepthDuration/v2_depth_duration_MTurk/v2_DepthDuration_HTML.html#73,73,1366,625,1366,768,8-30-2022,9-56-52,30,depth_duration_stimuli/000375_2014-06-08_11-17-29_260595134347_rgbf000133-resize_2/000375_2014-06-08_11-17-29_260595134347_rgbf000133-resize-original.jpg,250,4.718,4,8859,50,meters,jsons/v1_VE250_randls_15.json,1463014,2108184,65,Man
30,637876,DepthScenes,duration_manipulation_targetAtFixation,jsons/v1_VE250_randls_15.json,http://54.235.29.9/FacialAge/BNav_EC2/DepthDuration/v2_depth_duration_MTurk/v2_DepthDuration_HTML.html#73,73,1366,625,1366,768,8-30-2022,9-56-52,31,depth_duration_stimuli/001066_2014-06-08_22-03-20_260595134347_rgbf000066-resize_4/001066_2014-06-08_22-03-20_260595134347_rgbf000066-resize_4-target.png,250,4.2330000000000005,4,7396,230,meters,jsons/v1_VE250_randls_15.json,1463014,2108184,65,Man
31,637876,DepthScenes,duration_manipulation_targetAtFixation,jsons/v1_VE250_randls_15.json,http://54.235.29.9/FacialAge/BNav_EC2/DepthDuration/v2_depth_duration_MTurk/v2_DepthDuration_HTML.html#73,73,1366,625,1366,768,8-30-2022,9-56-52,32,depth_duration_stimuli/000742_2014-06-08_18-48-09_260595134347_rgbf000164-resize_4/000742_2014-06-08_18-48-09_260595134347_rgbf000164-resize_4-target.png,250,4.632,4,9893,484,meters,jsons/v1_VE250_randls_15.json,1463014,2108184,65,Man
32,637876,DepthScenes,duration_manipulation_targetAtFixation,jsons/v1_VE250_randls_15.json,http://54.235.29.9/FacialAge/BNav_EC2/DepthDuration/v2_depth_duration_MTurk/v2_DepthDuration_HTML.html#73,73,1366,625,1366,768,8-30-2022,9-56-52,33,depth_duration_stimuli/001806_2014-06-26_20-50-20_260595134347_rgbf000091-resize_1/001806_2014-06-26_20-50-20_260595134347_rgbf000091-resize_1-target.png,250,2.7305,3,9707,136,meters,jsons/v1_VE250_randls_15.json,1463014,2108184,65,Man
33,637876,DepthScenes,duration_manipulation_targetAtFixation,jsons/v1_VE250_randls_15.json,http://54.235.29.9/FacialAge/BNav_EC2/DepthDuration/v2_depth_duration_MTurk/v2_DepthDuration_HTML.html#73,73,1366,625,1366,768,8-30-2022,9-56-52,34,depth_duration_stimuli/001617_2014-06-20_11-35-32_260595134347_rgbf000066-resize_1/001617_2014-06-20_11-35-32_260595134347_rgbf000066-resize_1-target.png,250,3.7910000000000004,3,5812,152,meters,jsons/v1_VE250_randls_15.json,1463014,2108184,65,Man
34,637876,DepthScenes,duration_manipulation_targetAtFixation,jsons/v1_VE250_randls_15.json,http://54.235.29.9/FacialAge/BNav_EC2/DepthDuration/v2_depth_duration_MTurk/v2_DepthDuration_HTML.html#73,73,1366,625,1366,768,8-30-2022,9-56-52,35,depth_duration_stimuli/002763_2014-06-22_19-13-10_094959634447_rgbf000075-resize_4/002763_2014-06-22_19-13-10_094959634447_rgbf000075-resize_4-target.png,250,1.68375,2,8339,0,meters,jsons/v1_VE250_randls_15.json,1463014,2108184,65,Man
35,637876,DepthScenes,duration_manipulation_targetAtFixation,jsons/v1_VE250_randls_15.json,http://54.235.29.9/FacialAge/BNav_EC2/DepthDuration/v2_depth_duration_MTurk/v2_DepthDuration_HTML.html#73,73,1366,625,1366,768,8-30-2022,9-56-52,36,depth_duration_stimuli/002209_2014-06-28_18-36-10_260595134347_rgbf000051-resize_1/002209_2014-06-28_18-36-10_260595134347_rgbf000051-resize_1-target.png,250,2.057,2,4981,453,meters,jsons/v1_VE250_randls_15.json,1463014,2108184,65,Man
36,637876,DepthScenes,duration_manipulation_targetAtFixation,jsons/v1_VE250_randls_15.json,http://54.235.29.9/FacialAge/BNav_EC2/DepthDuration/v2_depth_duration_MTurk/v2_DepthDuration_HTML.html#73,73,1366,625,1366,768,8-30-2022,9-56-52,37,depth_duration_stimuli/002905_2014-06-03_18-04-43_094959634447_rgbf000151-resize_2/002905_2014-06-03_18-04-43_094959634447_rgbf000151-resize_2-target.png,250,2.0295,4,7843,0,meters,jsons/v1_VE250_randls_15.json,1463014,2108184,65,Man
37,637876,DepthScenes,duration_manipulation_targetAtFixation,jsons/v1_VE250_randls_15.json,http://54.235.29.9/FacialAge/BNav_EC2/DepthDuration/v2_depth_duration_MTurk/v2_DepthDuration_HTML.html#73,73,1366,625,1366,768,8-30-2022,9-56-52,38,depth_duration_stimuli/003423_2014-05-21_10-23-26_094959634447_rgbf002665-resize_2/003423_2014-05-21_10-23-26_094959634447_rgbf002665-resize_2-target.png,250,3.2575,4,5587,691,meters,jsons/v1_VE250_randls_15.json,1463014,2108184,65,Man
38,637876,DepthScenes,duration_manipulation_targetAtFixation,jsons/v1_VE250_randls_15.json,http://54.235.29.9/FacialAge/BNav_EC2/DepthDuration/v2_depth_duration_MTurk/v2_DepthDuration_HTML.html#73,73,1366,625,1366,768,8-30-2022,9-56-52,39,depth_duration_stimuli/001011_2014-06-08_23-18-54_260595134347_rgbf000044-resize_4/001011_2014-06-08_23-18-54_260595134347_rgbf000044-resize_4-target.png,250,2.4730000000000003,2,6960,419,meters,jsons/v1_VE250_randls_15.json,1463014,2108184,65,Man
39,637876,DepthScenes,duration_manipulation_targetAtFixation,jsons/v1_VE250_randls_15.json,http://54.235.29.9/FacialAge/BNav_EC2/DepthDuration/v2_depth_duration_MTurk/v2_DepthDuration_HTML.html#73,73,1366,625,1366,768,8-30-2022,9-56-52,40,depth_duration_stimuli/002875_2014-06-01_15-19-00_094959634447_rgbf000151-resize_1/002875_2014-06-01_15-19-00_094959634447_rgbf000151-resize_1-target.png,250,1.9675,5,7113,215,meters,jsons/v1_VE250_randls_15.json,1463014,2108184,65,Man
40,637876,DepthScenes,duration_manipulation_targetAtFixation,jsons/v1_VE250_randls_15.json,http://54.235.29.9/FacialAge/BNav_EC2/DepthDuration/v2_depth_duration_MTurk/v2_DepthDuration_HTML.html#73,73,1366,625,1366,768,8-30-2022,9-56-52,41,depth_duration_stimuli/000414_2014-06-04_19-49-13_260595134347_rgbf000044-resize_0/000414_2014-06-04_19-49-13_260595134347_rgbf000044-resize_0-target.png,250,4.329,4,6039,397,meters,jsons/v1_VE250_randls_15.json,1463014,2108184,65,Man
41,637876,DepthScenes,duration_manipulation_targetAtFixation,jsons/v1_VE250_randls_15.json,http://54.235.29.9/FacialAge/BNav_EC2/DepthDuration/v2_depth_duration_MTurk/v2_DepthDuration_HTML.html#73,73,1366,625,1366,768,8-30-2022,9-56-52,42,depth_duration_stimuli/003129_2014-05-12_10-48-10_094959634447_rgbf000100-resize_0/003129_2014-05-12_10-48-10_094959634447_rgbf000100-resize_0-target.png,250,4.9305,3,15050,123,meters,jsons/v1_VE250_randls_15.json,1463014,2108184,65,Man
42,637876,DepthScenes,duration_manipulation_targetAtFixation,jsons/v1_VE250_randls_15.json,http://54.235.29.9/FacialAge/BNav_EC2/DepthDuration/v2_depth_duration_MTurk/v2_DepthDuration_HTML.html#73,73,1366,625,1366,768,8-30-2022,9-56-52,43,depth_duration_stimuli/000506_2014-06-08_23-21-00_260595134347_rgbf000070-resize_7/000506_2014-06-08_23-21-00_260595134347_rgbf000070-resize_7-target.png,250,4.0585,4,5383,259,meters,jsons/v1_VE250_randls_15.json,1463014,2108184,65,Man
43,637876,DepthScenes,duration_manipulation_targetAtFixation,jsons/v1_VE250_randls_15.json,http://54.235.29.9/FacialAge/BNav_EC2/DepthDuration/v2_depth_duration_MTurk/v2_DepthDuration_HTML.html#73,73,1366,625,1366,768,8-30-2022,9-56-52,44,depth_duration_stimuli/003079_2014-06-15_15-18-20_094959634447_rgbf000152-resize_8/003079_2014-06-15_15-18-20_094959634447_rgbf000152-resize_8-target.png,250,2.8775,2,7081,43,meters,jsons/v1_VE250_randls_15.json,1463014,2108184,65,Man
44,637876,DepthScenes,duration_manipulation_targetAtFixation,jsons/v1_VE250_randls_15.json,http://54.235.29.9/FacialAge/BNav_EC2/DepthDuration/v2_depth_duration_MTurk/v2_DepthDuration_HTML.html#73,73,1366,625,1366,768,8-30-2022,9-56-52,45,depth_duration_stimuli/000787_2014-06-08_22-33-53_260595134347_rgbf000175-resize_1/000787_2014-06-08_22-33-53_260595134347_rgbf000175-resize-original.jpg,250,4.784,0,9802,292,meters,jsons/v1_VE250_randls_15.json,1463014,2108184,65,Man
45,637876,DepthScenes,duration_manipulation_targetAtFixation,jsons/v1_VE250_randls_15.json,http://54.235.29.9/FacialAge/BNav_EC2/DepthDuration/v2_depth_duration_MTurk/v2_DepthDuration_HTML.html#73,73,1366,625,1366,768,8-30-2022,9-56-52,46,depth_duration_stimuli/001016_2014-06-09_16-16-10_260595134347_rgbf000112-resize_5/001016_2014-06-09_16-16-10_260595134347_rgbf000112-resize_5-target.png,250,1.6565,3,7486,0,meters,jsons/v1_VE250_randls_15.json,1463014,2108184,65,Man
46,637876,DepthScenes,duration_manipulation_targetAtFixation,jsons/v1_VE250_randls_15.json,http://54.235.29.9/FacialAge/BNav_EC2/DepthDuration/v2_depth_duration_MTurk/v2_DepthDuration_HTML.html#73,73,1366,625,1366,768,8-30-2022,9-56-52,47,depth_duration_stimuli/002340_2014-06-28_20-05-46_260595134347_rgbf000113-resize_0/002340_2014-06-28_20-05-46_260595134347_rgbf000113-resize_0-target.png,250,2.4735,3,7924,0,meters,jsons/v1_VE250_randls_15.json,1463014,2108184,65,Man
47,637876,DepthScenes,duration_manipulation_targetAtFixation,jsons/v1_VE250_randls_15.json,http://54.235.29.9/FacialAge/BNav_EC2/DepthDuration/v2_depth_duration_MTurk/v2_DepthDuration_HTML.html#73,73,1366,625,1366,768,8-30-2022,9-56-52,48,depth_duration_stimuli/000368_2014-06-09_15-53-01_260595134347_rgbf000155-resize_2/000368_2014-06-09_15-53-01_260595134347_rgbf000155-resize_2-target.png,250,2.4859999999999998,2,8514,0,meters,jsons/v1_VE250_randls_15.json,1463014,2108184,65,Man
48,637876,DepthScenes,duration_manipulation_targetAtFixation,jsons/v1_VE250_randls_15.json,http://54.235.29.9/FacialAge/BNav_EC2/DepthDuration/v2_depth_duration_MTurk/v2_DepthDuration_HTML.html#73,73,1366,625,1366,768,8-30-2022,9-56-52,49,depth_duration_stimuli/002678_2014-06-13_16-15-32_094959634447_rgbf000151-resize_6/002678_2014-06-13_16-15-32_094959634447_rgbf000151-resize_6-target.png,250,2.1830000000000003,3,7079,0,meters,jsons/v1_VE250_randls_15.json,1463014,2108184,65,Man
49,637876,DepthScenes,duration_manipulation_targetAtFixation,jsons/v1_VE250_randls_15.json,http://54.235.29.9/FacialAge/BNav_EC2/DepthDuration/v2_depth_duration_MTurk/v2_DepthDuration_HTML.html#73,73,1366,625,1366,768,8-30-2022,9-56-52,50,depth_duration_stimuli/000917_2014-06-09_22-45-29_260595134347_rgbf000149-resize_3/000917_2014-06-09_22-45-29_260595134347_rgbf000149-resize_3-target.png,250,4.1865,4,8566,241,meters,jsons/v1_VE250_randls_15.json,1463014,2108184,65,Man
50,637876,DepthScenes,duration_manipulation_targetAtFixation,jsons/v1_VE250_randls_15.json,http://54.235.29.9/FacialAge/BNav_EC2/DepthDuration/v2_depth_duration_MTurk/v2_DepthDuration_HTML.html#73,73,1366,625,1366,768,8-30-2022,9-56-52,51,depth_duration_stimuli/002323_2014-06-28_20-01-54_260595134347_rgbf000051-resize_4/002323_2014-06-28_20-01-54_260595134347_rgbf000051-resize_4-target.png,250,3.7310000000000003,2,10854,0,meters,jsons/v1_VE250_randls_15.json,1463014,2108184,65,Man
51,637876,DepthScenes,duration_manipulation_targetAtFixation,jsons/v1_VE250_randls_15.json,http://54.235.29.9/FacialAge/BNav_EC2/DepthDuration/v2_depth_duration_MTurk/v2_DepthDuration_HTML.html#73,73,1366,625,1366,768,8-30-2022,9-56-52,52,depth_duration_stimuli/001150_2014-06-17_15-27-34_260595134347_rgbf000108-resize_2/001150_2014-06-17_15-27-34_260595134347_rgbf000108-resize_2-target.png,250,4.0325,0,6746,176,meters,jsons/v1_VE250_randls_15.json,1463014,2108184,65,Man
52,637876,DepthScenes,duration_manipulation_targetAtFixation,jsons/v1_VE250_randls_15.json,http://54.235.29.9/FacialAge/BNav_EC2/DepthDuration/v2_depth_duration_MTurk/v2_DepthDuration_HTML.html#73,73,1366,625,1366,768,8-30-2022,9-56-52,53,depth_duration_stimuli/000665_2014-06-09_20-42-35_260595134347_rgbf000110-resize_1/000665_2014-06-09_20-42-35_260595134347_rgbf000110-resize_1-target.png,250,3.057,3,5869,0,meters,jsons/v1_VE250_randls_15.json,1463014,2108184,65,Man
53,637876,DepthScenes,duration_manipulation_targetAtFixation,jsons/v1_VE250_randls_15.json,http://54.235.29.9/FacialAge/BNav_EC2/DepthDuration/v2_depth_duration_MTurk/v2_DepthDuration_HTML.html#73,73,1366,625,1366,768,8-30-2022,9-56-52,54,depth_duration_stimuli/001244_2014-06-17_16-47-45_260595134347_rgbf000030-resize_4/001244_2014-06-17_16-47-45_260595134347_rgbf000030-resize_4-target.png,250,2.0425,5,9142,0,meters,jsons/v1_VE250_randls_15.json,1463014,2108184,65,Man
54,637876,DepthScenes,duration_manipulation_targetAtFixation,jsons/v1_VE250_randls_15.json,http://54.235.29.9/FacialAge/BNav_EC2/DepthDuration/v2_depth_duration_MTurk/v2_DepthDuration_HTML.html#73,73,1366,625,1366,768,8-30-2022,9-56-52,55,depth_duration_stimuli/003495_2014-05-21_16-01-51_094959634447_rgbf000100-resize_3/003495_2014-05-21_16-01-51_094959634447_rgbf000100-resize_3-target.png,250,1.6255,3,6920,353,meters,jsons/v1_VE250_randls_15.json,1463014,2108184,65,Man
55,637876,DepthScenes,duration_manipulation_targetAtFixation,jsons/v1_VE250_randls_15.json,http://54.235.29.9/FacialAge/BNav_EC2/DepthDuration/v2_depth_duration_MTurk/v2_DepthDuration_HTML.html#73,73,1366,625,1366,768,8-30-2022,9-56-52,56,depth_duration_stimuli/003534_2014-05-22_15-06-10_094959634447_rgbf000102-resize_4/003534_2014-05-22_15-06-10_094959634447_rgbf000102-resize_4-target.png,250,1.426,4,12217,267,meters,jsons/v1_VE250_randls_15.json,1463014,2108184,65,Man
56,637876,DepthScenes,duration_manipulation_targetAtFixation,jsons/v1_VE250_randls_15.json,http://54.235.29.9/FacialAge/BNav_EC2/DepthDuration/v2_depth_duration_MTurk/v2_DepthDuration_HTML.html#73,73,1366,625,1366,768,8-30-2022,9-56-52,57,depth_duration_stimuli/002637_2014-06-24_14-51-13_094959634447_rgbf000066-resize_4/002637_2014-06-24_14-51-13_094959634447_rgbf000066-resize_4-target.png,250,1.9955,2,5504,0,meters,jsons/v1_VE250_randls_15.json,1463014,2108184,65,Man
57,637876,DepthScenes,duration_manipulation_targetAtFixation,jsons/v1_VE250_randls_15.json,http://54.235.29.9/FacialAge/BNav_EC2/DepthDuration/v2_depth_duration_MTurk/v2_DepthDuration_HTML.html#73,73,1366,625,1366,768,8-30-2022,9-56-52,58,depth_duration_stimuli/003621_2014-05-23_18-06-08_094959634447_rgbf000101-resize_1/003621_2014-05-23_18-06-08_094959634447_rgbf000101-resize_1-target.png,250,3.9835,3,10444,161,meters,jsons/v1_VE250_randls_15.json,1463014,2108184,65,Man
58,637876,DepthScenes,duration_manipulation_targetAtFixation,jsons/v1_VE250_randls_15.json,http://54.235.29.9/FacialAge/BNav_EC2/DepthDuration/v2_depth_duration_MTurk/v2_DepthDuration_HTML.html#73,73,1366,625,1366,768,8-30-2022,9-56-52,59,depth_duration_stimuli/001584_2014-06-20_11-07-43_260595134347_rgbf000002-resize_1/001584_2014-06-20_11-07-43_260595134347_rgbf000002-resize_1-target.png,250,3.53,2,4390,15,meters,jsons/v1_VE250_randls_15.json,1463014,2108184,65,Man
59,637876,DepthScenes,duration_manipulation_targetAtFixation,jsons/v1_VE250_randls_15.json,http://54.235.29.9/FacialAge/BNav_EC2/DepthDuration/v2_depth_duration_MTurk/v2_DepthDuration_HTML.html#73,73,1366,625,1366,768,8-30-2022,9-56-52,60,depth_duration_stimuli/000522_2014-06-08_13-35-06_260595134347_rgbf000244-resize_1/000522_2014-06-08_13-35-06_260595134347_rgbf000244-resize_1-target.png,250,2.3715,5,5662,0,meters,jsons/v1_VE250_randls_15.json,1463014,2108184,65,Man
60,637876,DepthScenes,duration_manipulation_targetAtFixation,jsons/v1_VE250_randls_15.json,http://54.235.29.9/FacialAge/BNav_EC2/DepthDuration/v2_depth_duration_MTurk/v2_DepthDuration_HTML.html#73,73,1366,625,1366,768,8-30-2022,9-56-52,61,depth_duration_stimuli/002949_2014-06-26_15-57-42_094959634447_rgbf000079-resize_1/002949_2014-06-26_15-57-42_094959634447_rgbf000079-resize_1-target.png,250,1.8915,3,7959,0,meters,jsons/v1_VE250_randls_15.json,1463014,2108184,65,Man
61,637876,DepthScenes,duration_manipulation_targetAtFixation,jsons/v1_VE250_randls_15.json,http://54.235.29.9/FacialAge/BNav_EC2/DepthDuration/v2_depth_duration_MTurk/v2_DepthDuration_HTML.html#73,73,1366,625,1366,768,8-30-2022,9-56-52,62,depth_duration_stimuli/001055_2014-06-08_18-45-35_260595134347_rgbf000111-resize_4/001055_2014-06-08_18-45-35_260595134347_rgbf000111-resize_4-target.png,250,2.4290000000000003,4,7500,0,meters,jsons/v1_VE250_randls_15.json,1463014,2108184,65,Man
62,637876,DepthScenes,duration_manipulation_targetAtFixation,jsons/v1_VE250_randls_15.json,http://54.235.29.9/FacialAge/BNav_EC2/DepthDuration/v2_depth_duration_MTurk/v2_DepthDuration_HTML.html#73,73,1366,625,1366,768,8-30-2022,9-56-52,63,depth_duration_stimuli/000549_2014-06-08_22-10-24_260595134347_rgbf000247-resize_3/000549_2014-06-08_22-10-24_260595134347_rgbf000247-resize_3-target.png,250,1.841,1,9935,39,meters,jsons/v1_VE250_randls_15.json,1463014,2108184,65,Man
63,637876,DepthScenes,duration_manipulation_targetAtFixation,jsons/v1_VE250_randls_15.json,http://54.235.29.9/FacialAge/BNav_EC2/DepthDuration/v2_depth_duration_MTurk/v2_DepthDuration_HTML.html#73,73,1366,625,1366,768,8-30-2022,9-56-52,64,depth_duration_stimuli/001808_2014-06-26_20-50-58_260595134347_rgbf000029-resize_1/001808_2014-06-26_20-50-58_260595134347_rgbf000029-resize_1-target.png,250,4.249,3,9018,280,meters,jsons/v1_VE250_randls_15.json,1463014,2108184,65,Man
64,637876,DepthScenes,duration_manipulation_targetAtFixation,jsons/v1_VE250_randls_15.json,http://54.235.29.9/FacialAge/BNav_EC2/DepthDuration/v2_depth_duration_MTurk/v2_DepthDuration_HTML.html#73,73,1366,625,1366,768,8-30-2022,9-56-52,65,depth_duration_stimuli/001815_2014-06-26_20-52-55_260595134347_rgbf000020-resize_0/001815_2014-06-26_20-52-55_260595134347_rgbf000020-resize_0-target.png,250,3.3865,4,4304,0,meters,jsons/v1_VE250_randls_15.json,1463014,2108184,65,Man
65,637876,DepthScenes,duration_manipulation_targetAtFixation,jsons/v1_VE250_randls_15.json,http://54.235.29.9/FacialAge/BNav_EC2/DepthDuration/v2_depth_duration_MTurk/v2_DepthDuration_HTML.html#73,73,1366,625,1366,768,8-30-2022,9-56-52,66,depth_duration_stimuli/001222_2014-06-17_16-24-06_260595134347_rgbf000073-resize_0/001222_2014-06-17_16-24-06_260595134347_rgbf000073-resize-original.jpg,250,1.4385,0,7732,239,meters,jsons/v1_VE250_randls_15.json,1463014,2108184,65,Man
66,637876,DepthScenes,duration_manipulation_targetAtFixation,jsons/v1_VE250_randls_15.json,http://54.235.29.9/FacialAge/BNav_EC2/DepthDuration/v2_depth_duration_MTurk/v2_DepthDuration_HTML.html#73,73,1366,625,1366,768,8-30-2022,9-56-52,67,depth_duration_stimuli/002153_2014-06-25_21-27-18_260595134347_rgbf000038-resize_5/002153_2014-06-25_21-27-18_260595134347_rgbf000038-resize_5-target.png,250,2.505,3,9443,0,meters,jsons/v1_VE250_randls_15.json,1463014,2108184,65,Man
67,637876,DepthScenes,duration_manipulation_targetAtFixation,jsons/v1_VE250_randls_15.json,http://54.235.29.9/FacialAge/BNav_EC2/DepthDuration/v2_depth_duration_MTurk/v2_DepthDuration_HTML.html#73,73,1366,625,1366,768,8-30-2022,9-56-52,68,depth_duration_stimuli/002660_2014-06-13_15-44-18_094959634447_rgbf001878-resize_2/002660_2014-06-13_15-44-18_094959634447_rgbf001878-resize_2-target.png,250,3.576,3,11257,225,meters,jsons/v1_VE250_randls_15.json,1463014,2108184,65,Man
68,637876,DepthScenes,duration_manipulation_targetAtFixation,jsons/v1_VE250_randls_15.json,http://54.235.29.9/FacialAge/BNav_EC2/DepthDuration/v2_depth_duration_MTurk/v2_DepthDuration_HTML.html#73,73,1366,625,1366,768,8-30-2022,9-56-52,69,depth_duration_stimuli/002509_2014-06-24_13-19-22_094959634447_rgbf000077-resize_0/002509_2014-06-24_13-19-22_094959634447_rgbf000077-resize_0-target.png,250,1.3065,2,7956,533,meters,jsons/v1_VE250_randls_15.json,1463014,2108184,65,Man
69,637876,DepthScenes,duration_manipulation_targetAtFixation,jsons/v1_VE250_randls_15.json,http://54.235.29.9/FacialAge/BNav_EC2/DepthDuration/v2_depth_duration_MTurk/v2_DepthDuration_HTML.html#73,73,1366,625,1366,768,8-30-2022,9-56-52,70,depth_duration_stimuli/003338_2014-05-20_11-01-23_094959634447_rgbf000051-resize_6/003338_2014-05-20_11-01-23_094959634447_rgbf000051-resize_6-target.png,250,1.693,3,6028,64,meters,jsons/v1_VE250_randls_15.json,1463014,2108184,65,Man
70,637876,DepthScenes,duration_manipulation_targetAtFixation,jsons/v1_VE250_randls_15.json,http://54.235.29.9/FacialAge/BNav_EC2/DepthDuration/v2_depth_duration_MTurk/v2_DepthDuration_HTML.html#73,73,1366,625,1366,768,8-30-2022,9-56-52,71,depth_duration_stimuli/003070_2014-06-15_14-58-27_094959634447_rgbf000150-resize_3/003070_2014-06-15_14-58-27_094959634447_rgbf000150-resize_3-target.png,250,2.9415,3,7243,331,meters,jsons/v1_VE250_randls_15.json,1463014,2108184,65,Man
71,637876,DepthScenes,duration_manipulation_targetAtFixation,jsons/v1_VE250_randls_15.json,http://54.235.29.9/FacialAge/BNav_EC2/DepthDuration/v2_depth_duration_MTurk/v2_DepthDuration_HTML.html#73,73,1366,625,1366,768,8-30-2022,9-56-52,72,depth_duration_stimuli/000943_2014-06-09_19-31-07_260595134347_rgbf000128-resize_1/000943_2014-06-09_19-31-07_260595134347_rgbf000128-resize_1-target.png,250,1.9765,3,7489,295,meters,jsons/v1_VE250_randls_15.json,1463014,2108184,65,Man
72,637876,DepthScenes,duration_manipulation_targetAtFixation,jsons/v1_VE250_randls_15.json,http://54.235.29.9/FacialAge/BNav_EC2/DepthDuration/v2_depth_duration_MTurk/v2_DepthDuration_HTML.html#73,73,1366,625,1366,768,8-30-2022,9-56-52,73,depth_duration_stimuli/001555_2014-06-20_17-12-10_260595134347_rgbf000065-resize_4/001555_2014-06-20_17-12-10_260595134347_rgbf000065-resize_4-target.png,250,1.633,4,4821,43,meters,jsons/v1_VE250_randls_15.json,1463014,2108184,65,Man
73,637876,DepthScenes,duration_manipulation_targetAtFixation,jsons/v1_VE250_randls_15.json,http://54.235.29.9/FacialAge/BNav_EC2/DepthDuration/v2_depth_duration_MTurk/v2_DepthDuration_HTML.html#73,73,1366,625,1366,768,8-30-2022,9-56-52,74,depth_duration_stimuli/000103_2014-05-14_22-01-17_260595134347_rgbf000152-resize_5/000103_2014-05-14_22-01-17_260595134347_rgbf000152-resize_5-target.png,250,1.993,4,8962,113,meters,jsons/v1_VE250_randls_15.json,1463014,2108184,65,Man
74,637876,DepthScenes,duration_manipulation_targetAtFixation,jsons/v1_VE250_randls_15.json,http://54.235.29.9/FacialAge/BNav_EC2/DepthDuration/v2_depth_duration_MTurk/v2_DepthDuration_HTML.html#73,73,1366,625,1366,768,8-30-2022,9-56-52,75,depth_duration_stimuli/000009_2014-05-26_14-32-05_260595134347_rgbf000034-resize_3/000009_2014-05-26_14-32-05_260595134347_rgbf000034-resize_3-target.png,250,3.8715,5,6943,45,meters,jsons/v1_VE250_randls_15.json,1463014,2108184,65,Man
75,637876,DepthScenes,duration_manipulation_targetAtFixation,jsons/v1_VE250_randls_15.json,http://54.235.29.9/FacialAge/BNav_EC2/DepthDuration/v2_depth_duration_MTurk/v2_DepthDuration_HTML.html#73,73,1366,625,1366,768,8-30-2022,9-56-52,76,depth_duration_stimuli/001828_2014-06-26_21-40-03_260595134347_rgbf000024-resize_0/001828_2014-06-26_21-40-03_260595134347_rgbf000024-resize_0-target.png,250,4.8260000000000005,2,4866,442,meters,jsons/v1_VE250_randls_15.json,1463014,2108184,65,Man
76,637876,DepthScenes,duration_manipulation_targetAtFixation,jsons/v1_VE250_randls_15.json,http://54.235.29.9/FacialAge/BNav_EC2/DepthDuration/v2_depth_duration_MTurk/v2_DepthDuration_HTML.html#73,73,1366,625,1366,768,8-30-2022,9-56-52,77,depth_duration_stimuli/000642_2014-06-08_16-59-25_260595134347_rgbf000098-resize_2/000642_2014-06-08_16-59-25_260595134347_rgbf000098-resize_2-target.png,250,2.8815,4,7651,192,meters,jsons/v1_VE250_randls_15.json,1463014,2108184,65,Man
77,637876,DepthScenes,duration_manipulation_targetAtFixation,jsons/v1_VE250_randls_15.json,http://54.235.29.9/FacialAge/BNav_EC2/DepthDuration/v2_depth_duration_MTurk/v2_DepthDuration_HTML.html#73,73,1366,625,1366,768,8-30-2022,9-56-52,78,depth_duration_stimuli/002425_2014-06-28_20-27-29_260595134347_rgbf000031-resize_8/002425_2014-06-28_20-27-29_260595134347_rgbf000031-resize_8-target.png,250,3.8960000000000004,4,7810,674,meters,jsons/v1_VE250_randls_15.json,1463014,2108184,65,Man
78,637876,DepthScenes,duration_manipulation_targetAtFixation,jsons/v1_VE250_randls_15.json,http://54.235.29.9/FacialAge/BNav_EC2/DepthDuration/v2_depth_duration_MTurk/v2_DepthDuration_HTML.html#73,73,1366,625,1366,768,8-30-2022,9-56-52,79,depth_duration_stimuli/002630_2014-06-24_14-47-50_094959634447_rgbf000055-resize_1/002630_2014-06-24_14-47-50_094959634447_rgbf000055-resize_1-target.png,250,3.0095,3,3331,1,meters,jsons/v1_VE250_randls_15.json,1463014,2108184,65,Man
79,637876,DepthScenes,duration_manipulation_targetAtFixation,jsons/v1_VE250_randls_15.json,http://54.235.29.9/FacialAge/BNav_EC2/DepthDuration/v2_depth_duration_MTurk/v2_DepthDuration_HTML.html#73,73,1366,625,1366,768,8-30-2022,9-56-52,80,depth_duration_stimuli/002758_2014-06-22_19-11-20_094959634447_rgbf000128-resize_1/002758_2014-06-22_19-11-20_094959634447_rgbf000128-resize_1-target.png,250,2.555,4,7645,434,meters,jsons/v1_VE250_randls_15.json,1463014,2108184,65,Man
80,637876,DepthScenes,duration_manipulation_targetAtFixation,jsons/v1_VE250_randls_15.json,http://54.235.29.9/FacialAge/BNav_EC2/DepthDuration/v2_depth_duration_MTurk/v2_DepthDuration_HTML.html#73,73,1366,625,1366,768,8-30-2022,9-56-52,81,depth_duration_stimuli/001158_2014-06-17_15-32-16_260595134347_rgbf000138-resize_2/001158_2014-06-17_15-32-16_260595134347_rgbf000138-resize_2-target.png,250,4.5315,3,12757,0,meters,jsons/v1_VE250_randls_15.json,1463014,2108184,65,Man
81,637876,DepthScenes,duration_manipulation_targetAtFixation,jsons/v1_VE250_randls_15.json,http://54.235.29.9/FacialAge/BNav_EC2/DepthDuration/v2_depth_duration_MTurk/v2_DepthDuration_HTML.html#73,73,1366,625,1366,768,8-30-2022,9-56-52,82,depth_duration_stimuli/000556_2014-06-09_22-42-56_260595134347_rgbf000214-resize_1/000556_2014-06-09_22-42-56_260595134347_rgbf000214-resize_1-target.png,250,4.8415,4,6454,489,meters,jsons/v1_VE250_randls_15.json,1463014,2108184,65,Man
82,637876,DepthScenes,duration_manipulation_targetAtFixation,jsons/v1_VE250_randls_15.json,http://54.235.29.9/FacialAge/BNav_EC2/DepthDuration/v2_depth_duration_MTurk/v2_DepthDuration_HTML.html#73,73,1366,625,1366,768,8-30-2022,9-56-52,83,depth_duration_stimuli/001167_2014-06-17_15-38-07_260595134347_rgbf000108-resize_0/001167_2014-06-17_15-38-07_260595134347_rgbf000108-resize_0-target.png,250,1.8505,3,6660,192,meters,jsons/v1_VE250_randls_15.json,1463014,2108184,65,Man
83,637876,DepthScenes,duration_manipulation_targetAtFixation,jsons/v1_VE250_randls_15.json,http://54.235.29.9/FacialAge/BNav_EC2/DepthDuration/v2_depth_duration_MTurk/v2_DepthDuration_HTML.html#73,73,1366,625,1366,768,8-30-2022,9-56-52,84,depth_duration_stimuli/003587_2014-05-23_16-48-02_094959634447_rgbf002384-resize_2/003587_2014-05-23_16-48-02_094959634447_rgbf002384-resize_2-target.png,250,1.357,2,6001,258,meters,jsons/v1_VE250_randls_15.json,1463014,2108184,65,Man
84,637876,DepthScenes,duration_manipulation_targetAtFixation,jsons/v1_VE250_randls_15.json,http://54.235.29.9/FacialAge/BNav_EC2/DepthDuration/v2_depth_duration_MTurk/v2_DepthDuration_HTML.html#73,73,1366,625,1366,768,8-30-2022,9-56-52,85,depth_duration_stimuli/002725_2014-06-22_11-47-51_094959634447_rgbf000070-resize_1/002725_2014-06-22_11-47-51_094959634447_rgbf000070-resize_1-target.png,250,2.195,2,6534,61,meters,jsons/v1_VE250_randls_15.json,1463014,2108184,65,Man
85,637876,DepthScenes,duration_manipulation_targetAtFixation,jsons/v1_VE250_randls_15.json,http://54.235.29.9/FacialAge/BNav_EC2/DepthDuration/v2_depth_duration_MTurk/v2_DepthDuration_HTML.html#73,73,1366,625,1366,768,8-30-2022,9-56-52,86,depth_duration_stimuli/002344_2014-06-28_20-06-29_260595134347_rgbf000030-resize_1/002344_2014-06-28_20-06-29_260595134347_rgbf000030-resize_1-target.png,250,1.5795,3,8757,0,meters,jsons/v1_VE250_randls_15.json,1463014,2108184,65,Man
86,637876,DepthScenes,duration_manipulation_targetAtFixation,jsons/v1_VE250_randls_15.json,http://54.235.29.9/FacialAge/BNav_EC2/DepthDuration/v2_depth_duration_MTurk/v2_DepthDuration_HTML.html#73,73,1366,625,1366,768,8-30-2022,9-56-52,87,depth_duration_stimuli/000736_2014-06-08_18-24-15_260595134347_rgbf000206-resize_3/000736_2014-06-08_18-24-15_260595134347_rgbf000206-resize_3-target.png,250,3.515,3,9324,308,meters,jsons/v1_VE250_randls_15.json,1463014,2108184,65,Man
87,637876,DepthScenes,duration_manipulation_targetAtFixation,jsons/v1_VE250_randls_15.json,http://54.235.29.9/FacialAge/BNav_EC2/DepthDuration/v2_depth_duration_MTurk/v2_DepthDuration_HTML.html#73,73,1366,625,1366,768,8-30-2022,9-56-52,88,depth_duration_stimuli/000137_2014-05-20_17-04-49_260595134347_rgbf000120-resize_1/000137_2014-05-20_17-04-49_260595134347_rgbf000120-resize_1-target.png,250,3.786,2,7842,336,meters,jsons/v1_VE250_randls_15.json,1463014,2108184,65,Man
88,637876,DepthScenes,duration_manipulation_targetAtFixation,jsons/v1_VE250_randls_15.json,http://54.235.29.9/FacialAge/BNav_EC2/DepthDuration/v2_depth_duration_MTurk/v2_DepthDuration_HTML.html#73,73,1366,625,1366,768,8-30-2022,9-56-52,89,depth_duration_stimuli/000436_2014-06-09_22-25-11_260595134347_rgbf000137-resize_1/000436_2014-06-09_22-25-11_260595134347_rgbf000137-resize_1-target.png,250,4.0705,3,9582,126,meters,jsons/v1_VE250_randls_15.json,1463014,2108184,65,Man
89,637876,DepthScenes,duration_manipulation_targetAtFixation,jsons/v1_VE250_randls_15.json,http://54.235.29.9/FacialAge/BNav_EC2/DepthDuration/v2_depth_duration_MTurk/v2_DepthDuration_HTML.html#73,73,1366,625,1366,768,8-30-2022,9-56-52,90,depth_duration_stimuli/002444_2014-06-28_20-32-08_260595134347_rgbf000027-resize_0/002444_2014-06-28_20-32-08_260595134347_rgbf000027-resize_0-target.png,250,4.388999999999999,3,7718,0,meters,jsons/v1_VE250_randls_15.json,1463014,2108184,65,Man
90,637876,DepthScenes,duration_manipulation_targetAtFixation,jsons/v1_VE250_randls_15.json,http://54.235.29.9/FacialAge/BNav_EC2/DepthDuration/v2_depth_duration_MTurk/v2_DepthDuration_HTML.html#73,73,1366,625,1366,768,8-30-2022,9-56-52,91,depth_duration_stimuli/002600_2014-06-24_14-27-04_094959634447_rgbf000074-resize_2/002600_2014-06-24_14-27-04_094959634447_rgbf000074-resize_2-target.png,250,2.7575,2,11392,0,meters,jsons/v1_VE250_randls_15.json,1463014,2108184,65,Man
91,637876,DepthScenes,duration_manipulation_targetAtFixation,jsons/v1_VE250_randls_15.json,http://54.235.29.9/FacialAge/BNav_EC2/DepthDuration/v2_depth_duration_MTurk/v2_DepthDuration_HTML.html#73,73,1366,625,1366,768,8-30-2022,9-56-52,92,depth_duration_stimuli/003228_2014-05-14_13-42-35_094959634447_rgbf000101-resize_1/003228_2014-05-14_13-42-35_094959634447_rgbf000101-resize_1-target.png,250,1.9680000000000002,3,5184,109,meters,jsons/v1_VE250_randls_15.json,1463014,2108184,65,Man
92,637876,DepthScenes,duration_manipulation_targetAtFixation,jsons/v1_VE250_randls_15.json,http://54.235.29.9/FacialAge/BNav_EC2/DepthDuration/v2_depth_duration_MTurk/v2_DepthDuration_HTML.html#73,73,1366,625,1366,768,8-30-2022,9-56-52,93,depth_duration_stimuli/000682_2014-06-08_23-14-58_260595134347_rgbf000041-resize_5/000682_2014-06-08_23-14-58_260595134347_rgbf000041-resize_5-target.png,250,2.7239999999999998,3,8102,1,meters,jsons/v1_VE250_randls_15.json,1463014,2108184,65,Man
93,637876,DepthScenes,duration_manipulation_targetAtFixation,jsons/v1_VE250_randls_15.json,http://54.235.29.9/FacialAge/BNav_EC2/DepthDuration/v2_depth_duration_MTurk/v2_DepthDuration_HTML.html#73,73,1366,625,1366,768,8-30-2022,9-56-52,94,depth_duration_stimuli/001650_2014-06-20_12-09-00_260595134347_rgbf000087-resize_3/001650_2014-06-20_12-09-00_260595134347_rgbf000087-resize_3-target.png,250,1.9505,2,7091,198,meters,jsons/v1_VE250_randls_15.json,1463014,2108184,65,Man
94,637876,DepthScenes,duration_manipulation_targetAtFixation,jsons/v1_VE250_randls_15.json,http://54.235.29.9/FacialAge/BNav_EC2/DepthDuration/v2_depth_duration_MTurk/v2_DepthDuration_HTML.html#73,73,1366,625,1366,768,8-30-2022,9-56-52,95,depth_duration_stimuli/002445_2014-06-28_20-32-16_260595134347_rgbf000029-resize_4/002445_2014-06-28_20-32-16_260595134347_rgbf000029-resize_4-target.png,250,2.5315,2,6174,139,meters,jsons/v1_VE250_randls_15.json,1463014,2108184,65,Man
95,637876,DepthScenes,duration_manipulation_targetAtFixation,jsons/v1_VE250_randls_15.json,http://54.235.29.9/FacialAge/BNav_EC2/DepthDuration/v2_depth_duration_MTurk/v2_DepthDuration_HTML.html#73,73,1366,625,1366,768,8-30-2022,9-56-52,96,depth_duration_stimuli/000780_2014-06-08_22-28-29_260595134347_rgbf000126-resize_1/000780_2014-06-08_22-28-29_260595134347_rgbf000126-resize_1-target.png,250,3.3825,3,4613,516,meters,jsons/v1_VE250_randls_15.json,1463014,2108184,65,Man
96,637876,DepthScenes,duration_manipulation_targetAtFixation,jsons/v1_VE250_randls_15.json,http://54.235.29.9/FacialAge/BNav_EC2/DepthDuration/v2_depth_duration_MTurk/v2_DepthDuration_HTML.html#73,73,1366,625,1366,768,8-30-2022,9-56-52,97,depth_duration_stimuli/000788_2014-06-08_22-34-36_260595134347_rgbf000131-resize_1/000788_2014-06-08_22-34-36_260595134347_rgbf000131-resize_1-target.png,250,3.359,3,3879,0,meters,jsons/v1_VE250_randls_15.json,1463014,2108184,65,Man
97,637876,DepthScenes,duration_manipulation_targetAtFixation,jsons/v1_VE250_randls_15.json,http://54.235.29.9/FacialAge/BNav_EC2/DepthDuration/v2_depth_duration_MTurk/v2_DepthDuration_HTML.html#73,73,1366,625,1366,768,8-30-2022,9-56-52,98,depth_duration_stimuli/001235_2014-06-17_16-37-36_260595134347_rgbf000084-resize_4/001235_2014-06-17_16-37-36_260595134347_rgbf000084-resize_4-target.png,250,3.6605,4,10935,0,meters,jsons/v1_VE250_randls_15.json,1463014,2108184,65,Man
98,637876,DepthScenes,duration_manipulation_targetAtFixation,jsons/v1_VE250_randls_15.json,http://54.235.29.9/FacialAge/BNav_EC2/DepthDuration/v2_depth_duration_MTurk/v2_DepthDuration_HTML.html#73,73,1366,625,1366,768,8-30-2022,9-56-52,99,depth_duration_stimuli/001540_2014-06-20_17-01-05_260595134347_rgbf000086-resize_2/001540_2014-06-20_17-01-05_260595134347_rgbf000086-resize-original.jpg,250,1.459,0,17242,170,meters,jsons/v1_VE250_randls_15.json,1463014,2108184,65,Man
99,637876,DepthScenes,duration_manipulation_targetAtFixation,jsons/v1_VE250_randls_15.json,http://54.235.29.9/FacialAge/BNav_EC2/DepthDuration/v2_depth_duration_MTurk/v2_DepthDuration_HTML.html#73,73,1366,625,1366,768,8-30-2022,9-56-52,100,depth_duration_stimuli/000692_2014-06-08_13-09-42_260595134347_rgbf000199-resize_2/000692_2014-06-08_13-09-42_260595134347_rgbf000199-resize_2-target.png,250,3.661,2,7766,1,meters,jsons/v1_VE250_randls_15.json,1463014,2108184,65,Man
100,637876,DepthScenes,duration_manipulation_targetAtFixation,jsons/v1_VE250_randls_15.json,http://54.235.29.9/FacialAge/BNav_EC2/DepthDuration/v2_depth_duration_MTurk/v2_DepthDuration_HTML.html#73,73,1366,625,1366,768,8-30-2022,9-56-52,101,depth_duration_stimuli/001094_2014-06-15_17-36-00_260595134347_rgbf000205-resize_0/001094_2014-06-15_17-36-00_260595134347_rgbf000205-resize_0-target.png,250,4.2175,3,14703,248,meters,jsons/v1_VE250_randls_15.json,1463014,2108184,65,Man
101,637876,DepthScenes,duration_manipulation_targetAtFixation,jsons/v1_VE250_randls_15.json,http://54.235.29.9/FacialAge/BNav_EC2/DepthDuration/v2_depth_duration_MTurk/v2_DepthDuration_HTML.html#73,73,1366,625,1366,768,8-30-2022,9-56-52,102,depth_duration_stimuli/000810_2014-06-08_17-20-01_260595134347_rgbf000105-resize_0/000810_2014-06-08_17-20-01_260595134347_rgbf000105-resize_0-target.png,250,1.4865,2,18244,635,meters,jsons/v1_VE250_randls_15.json,1463014,2108184,65,Man
102,637876,DepthScenes,duration_manipulation_targetAtFixation,jsons/v1_VE250_randls_15.json,http://54.235.29.9/FacialAge/BNav_EC2/DepthDuration/v2_depth_duration_MTurk/v2_DepthDuration_HTML.html#73,73,1366,625,1366,768,8-30-2022,9-56-52,103,depth_duration_stimuli/001214_2014-06-17_16-13-55_260595134347_rgbf000111-resize_0/001214_2014-06-17_16-13-55_260595134347_rgbf000111-resize_0-target.png,250,2.6505,3,5621,162,meters,jsons/v1_VE250_randls_15.json,1463014,2108184,65,Man
103,637876,DepthScenes,duration_manipulation_targetAtFixation,jsons/v1_VE250_randls_15.json,http://54.235.29.9/FacialAge/BNav_EC2/DepthDuration/v2_depth_duration_MTurk/v2_DepthDuration_HTML.html#73,73,1366,625,1366,768,8-30-2022,9-56-52,104,depth_duration_stimuli/003292_2014-05-14_21-53-49_094959634447_rgbf000100-resize_2/003292_2014-05-14_21-53-49_094959634447_rgbf000100-resize_2-target.png,250,3.4815,3,8914,33,meters,jsons/v1_VE250_randls_15.json,1463014,2108184,65,Man
104,637876,DepthScenes,duration_manipulation_targetAtFixation,jsons/v1_VE250_randls_15.json,http://54.235.29.9/FacialAge/BNav_EC2/DepthDuration/v2_depth_duration_MTurk/v2_DepthDuration_HTML.html#73,73,1366,625,1366,768,8-30-2022,9-56-52,105,depth_duration_stimuli/002639_2014-06-24_14-51-37_094959634447_rgbf000074-resize_4/002639_2014-06-24_14-51-37_094959634447_rgbf000074-resize_4-target.png,250,4.0375,3,18550,0,meters,jsons/v1_VE250_randls_15.json,1463014,2108184,65,Man
105,637876,DepthScenes,duration_manipulation_targetAtFixation,jsons/v1_VE250_randls_15.json,http://54.235.29.9/FacialAge/BNav_EC2/DepthDuration/v2_depth_duration_MTurk/v2_DepthDuration_HTML.html#73,73,1366,625,1366,768,8-30-2022,9-56-52,106,depth_duration_stimuli/002118_2014-06-25_20-32-08_260595134347_rgbf000078-resize_1/002118_2014-06-25_20-32-08_260595134347_rgbf000078-resize_1-target.png,250,2.6460000000000004,3,11321,205,meters,jsons/v1_VE250_randls_15.json,1463014,2108184,65,Man
106,637876,DepthScenes,duration_manipulation_targetAtFixation,jsons/v1_VE250_randls_15.json,http://54.235.29.9/FacialAge/BNav_EC2/DepthDuration/v2_depth_duration_MTurk/v2_DepthDuration_HTML.html#73,73,1366,625,1366,768,8-30-2022,9-56-52,107,depth_duration_stimuli/001516_2014-06-20_16-25-09_260595134347_rgbf000076-resize_2/001516_2014-06-20_16-25-09_260595134347_rgbf000076-resize_2-target.png,250,1.7445,3,22314,481,meters,jsons/v1_VE250_randls_15.json,1463014,2108184,65,Man
107,637876,DepthScenes,duration_manipulation_targetAtFixation,jsons/v1_VE250_randls_15.json,http://54.235.29.9/FacialAge/BNav_EC2/DepthDuration/v2_depth_duration_MTurk/v2_DepthDuration_HTML.html#73,73,1366,625,1366,768,8-30-2022,9-56-52,108,depth_duration_stimuli/000469_2014-06-09_19-42-10_260595134347_rgbf000081-resize_1/000469_2014-06-09_19-42-10_260595134347_rgbf000081-resize_1-target.png,250,1.652,2,12145,0,meters,jsons/v1_VE250_randls_15.json,1463014,2108184,65,Man
108,637876,DepthScenes,duration_manipulation_targetAtFixation,jsons/v1_VE250_randls_15.json,http://54.235.29.9/FacialAge/BNav_EC2/DepthDuration/v2_depth_duration_MTurk/v2_DepthDuration_HTML.html#73,73,1366,625,1366,768,8-30-2022,9-56-52,109,depth_duration_stimuli/000483_2014-06-09_20-41-45_260595134347_rgbf000116-resize_4/000483_2014-06-09_20-41-45_260595134347_rgbf000116-resize_4-target.png,250,1.337,3,7139,502,meters,jsons/v1_VE250_randls_15.json,1463014,2108184,65,Man
109,637876,DepthScenes,duration_manipulation_targetAtFixation,jsons/v1_VE250_randls_15.json,http://54.235.29.9/FacialAge/BNav_EC2/DepthDuration/v2_depth_duration_MTurk/v2_DepthDuration_HTML.html#73,73,1366,625,1366,768,8-30-2022,9-56-52,110,depth_duration_stimuli/001056_2014-06-08_18-46-44_260595134347_rgbf000068-resize_0/001056_2014-06-08_18-46-44_260595134347_rgbf000068-resize_0-target.png,250,2.6625,4,8568,43,meters,jsons/v1_VE250_randls_15.json,1463014,2108184,65,Man
110,637876,DepthScenes,duration_manipulation_targetAtFixation,jsons/v1_VE250_randls_15.json,http://54.235.29.9/FacialAge/BNav_EC2/DepthDuration/v2_depth_duration_MTurk/v2_DepthDuration_HTML.html#73,73,1366,625,1366,768,8-30-2022,9-56-52,111,depth_duration_stimuli/002199_2014-06-28_18-33-56_260595134347_rgbf000074-resize_0/002199_2014-06-28_18-33-56_260595134347_rgbf000074-resize_0-target.png,250,1.996,3,6869,265,meters,jsons/v1_VE250_randls_15.json,1463014,2108184,65,Man
111,637876,DepthScenes,duration_manipulation_targetAtFixation,jsons/v1_VE250_randls_15.json,http://54.235.29.9/FacialAge/BNav_EC2/DepthDuration/v2_depth_duration_MTurk/v2_DepthDuration_HTML.html#73,73,1366,625,1366,768,8-30-2022,9-56-52,112,depth_duration_stimuli/000470_2014-06-09_19-42-40_260595134347_rgbf000094-resize_1/000470_2014-06-09_19-42-40_260595134347_rgbf000094-resize_1-target.png,250,1.831,2,6979,0,meters,jsons/v1_VE250_randls_15.json,1463014,2108184,65,Man
112,637876,DepthScenes,duration_manipulation_targetAtFixation,jsons/v1_VE250_randls_15.json,http://54.235.29.9/FacialAge/BNav_EC2/DepthDuration/v2_depth_duration_MTurk/v2_DepthDuration_HTML.html#73,73,1366,625,1366,768,8-30-2022,9-56-52,113,depth_duration_stimuli/000109_2014-05-14_23-41-52_260595134347_rgbf000035-resize_9/000109_2014-05-14_23-41-52_260595134347_rgbf000035-resize_9-target.png,250,1.3545,3,7180,319,meters,jsons/v1_VE250_randls_15.json,1463014,2108184,65,Man
113,637876,DepthScenes,duration_manipulation_targetAtFixation,jsons/v1_VE250_randls_15.json,http://54.235.29.9/FacialAge/BNav_EC2/DepthDuration/v2_depth_duration_MTurk/v2_DepthDuration_HTML.html#73,73,1366,625,1366,768,8-30-2022,9-56-52,114,depth_duration_stimuli/001059_2014-06-08_21-53-27_260595134347_rgbf000061-resize_4/001059_2014-06-08_21-53-27_260595134347_rgbf000061-resize_4-target.png,250,2.4185,4,7216,210,meters,jsons/v1_VE250_randls_15.json,1463014,2108184,65,Man
114,637876,DepthScenes,duration_manipulation_targetAtFixation,jsons/v1_VE250_randls_15.json,http://54.235.29.9/FacialAge/BNav_EC2/DepthDuration/v2_depth_duration_MTurk/v2_DepthDuration_HTML.html#73,73,1366,625,1366,768,8-30-2022,9-56-52,115,depth_duration_stimuli/001032_2014-06-08_13-23-17_260595134347_rgbf000021-resize_3/001032_2014-06-08_13-23-17_260595134347_rgbf000021-resize_3-target.png,250,3.2725,3,12653,0,meters,jsons/v1_VE250_randls_15.json,1463014,2108184,65,Man
115,637876,DepthScenes,duration_manipulation_targetAtFixation,jsons/v1_VE250_randls_15.json,http://54.235.29.9/FacialAge/BNav_EC2/DepthDuration/v2_depth_duration_MTurk/v2_DepthDuration_HTML.html#73,73,1366,625,1366,768,8-30-2022,9-56-52,116,depth_duration_stimuli/001170_2014-06-17_15-43-44_260595134347_rgbf000096-resize_6/001170_2014-06-17_15-43-44_260595134347_rgbf000096-resize-original.jpg,250,1.1909999999999998,0,10824,267,meters,jsons/v1_VE250_randls_15.json,1463014,2108184,65,Man
116,637876,DepthScenes,duration_manipulation_targetAtFixation,jsons/v1_VE250_randls_15.json,http://54.235.29.9/FacialAge/BNav_EC2/DepthDuration/v2_depth_duration_MTurk/v2_DepthDuration_HTML.html#73,73,1366,625,1366,768,8-30-2022,9-56-52,117,depth_duration_stimuli/002549_2014-06-24_13-41-39_094959634447_rgbf000022-resize_3/002549_2014-06-24_13-41-39_094959634447_rgbf000022-resize_3-target.png,250,1.476,3,5810,29,meters,jsons/v1_VE250_randls_15.json,1463014,2108184,65,Man
117,637876,DepthScenes,duration_manipulation_targetAtFixation,jsons/v1_VE250_randls_15.json,http://54.235.29.9/FacialAge/BNav_EC2/DepthDuration/v2_depth_duration_MTurk/v2_DepthDuration_HTML.html#73,73,1366,625,1366,768,8-30-2022,9-56-52,118,depth_duration_stimuli/002750_2014-06-22_19-08-03_094959634447_rgbf000094-resize_4/002750_2014-06-22_19-08-03_094959634447_rgbf000094-resize_4-target.png,250,2.354,3,8210,0,meters,jsons/v1_VE250_randls_15.json,1463014,2108184,65,Man
118,637876,DepthScenes,duration_manipulation_targetAtFixation,jsons/v1_VE250_randls_15.json,http://54.235.29.9/FacialAge/BNav_EC2/DepthDuration/v2_depth_duration_MTurk/v2_DepthDuration_HTML.html#73,73,1366,625,1366,768,8-30-2022,9-56-52,119,depth_duration_stimuli/001092_2014-06-15_17-34-58_260595134347_rgbf000171-resize_3/001092_2014-06-15_17-34-58_260595134347_rgbf000171-resize_3-target.png,250,2.6935,4,5885,559,meters,jsons/v1_VE250_randls_15.json,1463014,2108184,65,Man
119,637876,DepthScenes,duration_manipulation_targetAtFixation,jsons/v1_VE250_randls_15.json,http://54.235.29.9/FacialAge/BNav_EC2/DepthDuration/v2_depth_duration_MTurk/v2_DepthDuration_HTML.html#73,73,1366,625,1366,768,8-30-2022,9-56-52,120,depth_duration_stimuli/002545_2014-06-24_13-38-53_094959634447_rgbf000080-resize_4/002545_2014-06-24_13-38-53_094959634447_rgbf000080-resize_4-target.png,250,1.9205,2,6276,0,meters,jsons/v1_VE250_randls_15.json,1463014,2108184,65,Man
120,637876,DepthScenes,duration_manipulation_targetAtFixation,jsons/v1_VE250_randls_15.json,http://54.235.29.9/FacialAge/BNav_EC2/DepthDuration/v2_depth_duration_MTurk/v2_DepthDuration_HTML.html#73,73,1366,625,1366,768,8-30-2022,9-56-52,121,depth_duration_stimuli/001164_2014-06-17_15-35-46_260595134347_rgbf000085-resize_3/001164_2014-06-17_15-35-46_260595134347_rgbf000085-resize_3-target.png,250,2.354,4,7314,0,meters,jsons/v1_VE250_randls_15.json,1463014,2108184,65,Man
121,637876,DepthScenes,duration_manipulation_targetAtFixation,jsons/v1_VE250_randls_15.json,http://54.235.29.9/FacialAge/BNav_EC2/DepthDuration/v2_depth_duration_MTurk/v2_DepthDuration_HTML.html#73,73,1366,625,1366,768,8-30-2022,9-56-52,122,depth_duration_stimuli/001136_2014-06-17_15-19-41_260595134347_rgbf000076-resize_3/001136_2014-06-17_15-19-41_260595134347_rgbf000076-resize_3-target.png,250,1.8655,3,8580,10,meters,jsons/v1_VE250_randls_15.json,1463014,2108184,65,Man
122,637876,DepthScenes,duration_manipulation_targetAtFixation,jsons/v1_VE250_randls_15.json,http://54.235.29.9/FacialAge/BNav_EC2/DepthDuration/v2_depth_duration_MTurk/v2_DepthDuration_HTML.html#73,73,1366,625,1366,768,8-30-2022,9-56-52,123,depth_duration_stimuli/002043_2014-06-24_20-29-38_260595134347_rgbf000039-resize_4/002043_2014-06-24_20-29-38_260595134347_rgbf000039-resize_4-target.png,250,2.8435,2,9046,0,meters,jsons/v1_VE250_randls_15.json,1463014,2108184,65,Man
123,637876,DepthScenes,duration_manipulation_targetAtFixation,jsons/v1_VE250_randls_15.json,http://54.235.29.9/FacialAge/BNav_EC2/DepthDuration/v2_depth_duration_MTurk/v2_DepthDuration_HTML.html#73,73,1366,625,1366,768,8-30-2022,9-56-52,124,depth_duration_stimuli/003048_2014-06-15_13-49-43_094959634447_rgbf000150-resize_1/003048_2014-06-15_13-49-43_094959634447_rgbf000150-resize_1-target.png,250,4.0035,4,6699,1289,meters,jsons/v1_VE250_randls_15.json,1463014,2108184,65,Man
124,637876,DepthScenes,duration_manipulation_targetAtFixation,jsons/v1_VE250_randls_15.json,http://54.235.29.9/FacialAge/BNav_EC2/DepthDuration/v2_depth_duration_MTurk/v2_DepthDuration_HTML.html#73,73,1366,625,1366,768,8-30-2022,9-56-52,125,depth_duration_stimuli/002039_2014-06-24_20-22-38_260595134347_rgbf000084-resize_1/002039_2014-06-24_20-22-38_260595134347_rgbf000084-resize_1-target.png,250,4.408,3,11132,0,meters,jsons/v1_VE250_randls_15.json,1463014,2108184,65,Man
125,637876,DepthScenes,duration_manipulation_targetAtFixation,jsons/v1_VE250_randls_15.json,http://54.235.29.9/FacialAge/BNav_EC2/DepthDuration/v2_depth_duration_MTurk/v2_DepthDuration_HTML.html#73,73,1366,625,1366,768,8-30-2022,9-56-52,126,depth_duration_stimuli/002103_2014-06-25_20-00-40_260595134347_rgbf000049-resize_0/002103_2014-06-25_20-00-40_260595134347_rgbf000049-resize_0-target.png,250,4.105,3,6393,542,meters,jsons/v1_VE250_randls_15.json,1463014,2108184,65,Man
126,637876,DepthScenes,duration_manipulation_targetAtFixation,jsons/v1_VE250_randls_15.json,http://54.235.29.9/FacialAge/BNav_EC2/DepthDuration/v2_depth_duration_MTurk/v2_DepthDuration_HTML.html#73,73,1366,625,1366,768,8-30-2022,9-56-52,127,depth_duration_stimuli/002213_2014-06-28_18-37-58_260595134347_rgbf000055-resize_1/002213_2014-06-28_18-37-58_260595134347_rgbf000055-resize_1-target.png,250,3.62,5,14080,230,meters,jsons/v1_VE250_randls_15.json,1463014,2108184,65,Man
127,637876,DepthScenes,duration_manipulation_targetAtFixation,jsons/v1_VE250_randls_15.json,http://54.235.29.9/FacialAge/BNav_EC2/DepthDuration/v2_depth_duration_MTurk/v2_DepthDuration_HTML.html#73,73,1366,625,1366,768,8-30-2022,9-56-52,128,depth_duration_stimuli/000691_2014-06-08_13-08-50_260595134347_rgbf000132-resize_3/000691_2014-06-08_13-08-50_260595134347_rgbf000132-resize_3-target.png,250,4.1530000000000005,6,7331,0,meters,jsons/v1_VE250_randls_15.json,1463014,2108184,65,Man
128,637876,DepthScenes,duration_manipulation_targetAtFixation,jsons/v1_VE250_randls_15.json,http://54.235.29.9/FacialAge/BNav_EC2/DepthDuration/v2_depth_duration_MTurk/v2_DepthDuration_HTML.html#73,73,1366,625,1366,768,8-30-2022,9-56-52,129,depth_duration_stimuli/000493_2014-06-09_21-01-18_260595134347_rgbf000196-resize_3/000493_2014-06-09_21-01-18_260595134347_rgbf000196-resize_3-target.png,250,3.44,4,7604,62,meters,jsons/v1_VE250_randls_15.json,1463014,2108184,65,Man
129,637876,DepthScenes,duration_manipulation_targetAtFixation,jsons/v1_VE250_randls_15.json,http://54.235.29.9/FacialAge/BNav_EC2/DepthDuration/v2_depth_duration_MTurk/v2_DepthDuration_HTML.html#73,73,1366,625,1366,768,8-30-2022,9-56-52,130,depth_duration_stimuli/000191_2014-05-12_17-07-38_260595134347_rgbf000199-resize_0/000191_2014-05-12_17-07-38_260595134347_rgbf000199-resize_0-target.png,250,3.7995,4,7850,120,meters,jsons/v1_VE250_randls_15.json,1463014,2108184,65,Man
130,637876,DepthScenes,duration_manipulation_targetAtFixation,jsons/v1_VE250_randls_15.json,http://54.235.29.9/FacialAge/BNav_EC2/DepthDuration/v2_depth_duration_MTurk/v2_DepthDuration_HTML.html#73,73,1366,625,1366,768,8-30-2022,9-56-52,131,depth_duration_stimuli/000447_2014-06-08_16-15-46_260595134347_rgbf000130-resize_1/000447_2014-06-08_16-15-46_260595134347_rgbf000130-resize_1-target.png,250,4.479,3,5481,423,meters,jsons/v1_VE250_randls_15.json,1463014,2108184,65,Man
131,637876,DepthScenes,duration_manipulation_targetAtFixation,jsons/v1_VE250_randls_15.json,http://54.235.29.9/FacialAge/BNav_EC2/DepthDuration/v2_depth_duration_MTurk/v2_DepthDuration_HTML.html#73,73,1366,625,1366,768,8-30-2022,9-56-52,132,depth_duration_stimuli/001447_2014-06-19_17-00-32_260595134347_rgbf000082-resize_5/001447_2014-06-19_17-00-32_260595134347_rgbf000082-resize_5-target.png,250,4.13775,5,5409,252,meters,jsons/v1_VE250_randls_15.json,1463014,2108184,65,Man
132,637876,DepthScenes,duration_manipulation_targetAtFixation,jsons/v1_VE250_randls_15.json,http://54.235.29.9/FacialAge/BNav_EC2/DepthDuration/v2_depth_duration_MTurk/v2_DepthDuration_HTML.html#73,73,1366,625,1366,768,8-30-2022,9-56-52,133,depth_duration_stimuli/001133_2014-06-17_14-49-16_260595134347_rgbf000100-resize_0/001133_2014-06-17_14-49-16_260595134347_rgbf000100-resize_0-target.png,250,4.2115,3,8371,0,meters,jsons/v1_VE250_randls_15.json,1463014,2108184,65,Man
133,637876,DepthScenes,duration_manipulation_targetAtFixation,jsons/v1_VE250_randls_15.json,http://54.235.29.9/FacialAge/BNav_EC2/DepthDuration/v2_depth_duration_MTurk/v2_DepthDuration_HTML.html#73,73,1366,625,1366,768,8-30-2022,9-56-52,134,depth_duration_stimuli/001132_2014-06-17_14-48-54_260595134347_rgbf000100-resize_2/001132_2014-06-17_14-48-54_260595134347_rgbf000100-resize_2-target.png,250,3.753,5,10430,0,meters,jsons/v1_VE250_randls_15.json,1463014,2108184,65,Man
134,637876,DepthScenes,duration_manipulation_targetAtFixation,jsons/v1_VE250_randls_15.json,http://54.235.29.9/FacialAge/BNav_EC2/DepthDuration/v2_depth_duration_MTurk/v2_DepthDuration_HTML.html#73,73,1366,625,1366,768,8-30-2022,9-56-52,135,depth_duration_stimuli/002072_2014-06-24_21-48-06_260595134347_rgbf000115-resize_0/002072_2014-06-24_21-48-06_260595134347_rgbf000115-resize-original.jpg,250,4.702,3,4857,0,meters,jsons/v1_VE250_randls_15.json,1463014,2108184,65,Man
135,637876,DepthScenes,duration_manipulation_targetAtFixation,jsons/v1_VE250_randls_15.json,http://54.235.29.9/FacialAge/BNav_EC2/DepthDuration/v2_depth_duration_MTurk/v2_DepthDuration_HTML.html#73,73,1366,625,1366,768,8-30-2022,9-56-52,136,depth_duration_stimuli/000758_2014-06-08_22-05-08_260595134347_rgbf000085-resize_0/000758_2014-06-08_22-05-08_260595134347_rgbf000085-resize_0-target.png,250,3.3810000000000002,3,4330,214,meters,jsons/v1_VE250_randls_15.json,1463014,2108184,65,Man
136,637876,DepthScenes,duration_manipulation_targetAtFixation,jsons/v1_VE250_randls_15.json,http://54.235.29.9/FacialAge/BNav_EC2/DepthDuration/v2_depth_duration_MTurk/v2_DepthDuration_HTML.html#73,73,1366,625,1366,768,8-30-2022,9-56-52,137,depth_duration_stimuli/000854_2014-06-09_19-43-13_260595134347_rgbf000066-resize_0/000854_2014-06-09_19-43-13_260595134347_rgbf000066-resize_0-target.png,250,3.068,4,6098,366,meters,jsons/v1_VE250_randls_15.json,1463014,2108184,65,Man
137,637876,DepthScenes,duration_manipulation_targetAtFixation,jsons/v1_VE250_randls_15.json,http://54.235.29.9/FacialAge/BNav_EC2/DepthDuration/v2_depth_duration_MTurk/v2_DepthDuration_HTML.html#73,73,1366,625,1366,768,8-30-2022,9-56-52,138,depth_duration_stimuli/000878_2014-06-08_22-52-45_260595134347_rgbf000045-resize_2/000878_2014-06-08_22-52-45_260595134347_rgbf000045-resize_2-target.png,250,2.092,4,6759,247,meters,jsons/v1_VE250_randls_15.json,1463014,2108184,65,Man
138,637876,DepthScenes,duration_manipulation_targetAtFixation,jsons/v1_VE250_randls_15.json,http://54.235.29.9/FacialAge/BNav_EC2/DepthDuration/v2_depth_duration_MTurk/v2_DepthDuration_HTML.html#73,73,1366,625,1366,768,8-30-2022,9-56-52,139,depth_duration_stimuli/002953_2014-06-08_17-32-18_094959634447_rgbf000059-resize_5/002953_2014-06-08_17-32-18_094959634447_rgbf000059-resize_5-target.png,250,1.551,3,6124,145,meters,jsons/v1_VE250_randls_15.json,1463014,2108184,65,Man
139,637876,DepthScenes,duration_manipulation_targetAtFixation,jsons/v1_VE250_randls_15.json,http://54.235.29.9/FacialAge/BNav_EC2/DepthDuration/v2_depth_duration_MTurk/v2_DepthDuration_HTML.html#73,73,1366,625,1366,768,8-30-2022,9-56-52,140,depth_duration_stimuli/001449_2014-06-19_17-01-27_260595134347_rgbf000116-resize_2/001449_2014-06-19_17-01-27_260595134347_rgbf000116-resize_2-target.png,250,3.452,4,6235,399,meters,jsons/v1_VE250_randls_15.json,1463014,2108184,65,Man
140,637876,DepthScenes,duration_manipulation_targetAtFixation,jsons/v1_VE250_randls_15.json,http://54.235.29.9/FacialAge/BNav_EC2/DepthDuration/v2_depth_duration_MTurk/v2_DepthDuration_HTML.html#73,73,1366,625,1366,768,8-30-2022,9-56-52,141,depth_duration_stimuli/001450_2014-06-19_17-02-03_260595134347_rgbf000203-resize_4/001450_2014-06-19_17-02-03_260595134347_rgbf000203-resize_4-target.png,250,4.0106666666667,3,5420,0,meters,jsons/v1_VE250_randls_15.json,1463014,2108184,65,Man
141,637876,DepthScenes,duration_manipulation_targetAtFixation,jsons/v1_VE250_randls_15.json,http://54.235.29.9/FacialAge/BNav_EC2/DepthDuration/v2_depth_duration_MTurk/v2_DepthDuration_HTML.html#73,73,1366,625,1366,768,8-30-2022,9-56-52,142,depth_duration_stimuli/002570_2014-06-24_13-59-54_094959634447_rgbf000059-resize_0/002570_2014-06-24_13-59-54_094959634447_rgbf000059-resize_0-target.png,250,4.037,4,9758,137,meters,jsons/v1_VE250_randls_15.json,1463014,2108184,65,Man
142,637876,DepthScenes,duration_manipulation_targetAtFixation,jsons/v1_VE250_randls_15.json,http://54.235.29.9/FacialAge/BNav_EC2/DepthDuration/v2_depth_duration_MTurk/v2_DepthDuration_HTML.html#73,73,1366,625,1366,768,8-30-2022,9-56-52,143,depth_duration_stimuli/002467_2014-06-28_20-38-07_260595134347_rgbf000026-resize_2/002467_2014-06-28_20-38-07_260595134347_rgbf000026-resize_2-target.png,250,4.742,4,11088,258,meters,jsons/v1_VE250_randls_15.json,1463014,2108184,65,Man
143,637876,DepthScenes,duration_manipulation_targetAtFixation,jsons/v1_VE250_randls_15.json,http://54.235.29.9/FacialAge/BNav_EC2/DepthDuration/v2_depth_duration_MTurk/v2_DepthDuration_HTML.html#73,73,1366,625,1366,768,8-30-2022,9-56-52,144,depth_duration_stimuli/000929_2014-06-09_16-33-19_260595134347_rgbf000139-resize_0/000929_2014-06-09_16-33-19_260595134347_rgbf000139-resize_0-target.png,250,2.8680000000000003,4,10023,130,meters,jsons/v1_VE250_randls_15.json,1463014,2108184,65,Man
144,637876,DepthScenes,duration_manipulation_targetAtFixation,jsons/v1_VE250_randls_15.json,http://54.235.29.9/FacialAge/BNav_EC2/DepthDuration/v2_depth_duration_MTurk/v2_DepthDuration_HTML.html#73,73,1366,625,1366,768,8-30-2022,9-56-52,145,depth_duration_stimuli/000457_2014-06-08_16-52-43_260595134347_rgbf000199-resize_1/000457_2014-06-08_16-52-43_260595134347_rgbf000199-resize_1-target.png,250,3.6489999999999996,3,13749,1,meters,jsons/v1_VE250_randls_15.json,1463014,2108184,65,Man
145,637876,DepthScenes,duration_manipulation_targetAtFixation,jsons/v1_VE250_randls_15.json,http://54.235.29.9/FacialAge/BNav_EC2/DepthDuration/v2_depth_duration_MTurk/v2_DepthDuration_HTML.html#73,73,1366,625,1366,768,8-30-2022,9-56-52,146,depth_duration_stimuli/001498_2014-06-19_17-45-14_260595134347_rgbf000129-resize_4/001498_2014-06-19_17-45-14_260595134347_rgbf000129-resize-original.jpg,250,1.4075,0,7998,278,meters,jsons/v1_VE250_randls_15.json,1463014,2108184,65,Man
146,637876,DepthScenes,duration_manipulation_targetAtFixation,jsons/v1_VE250_randls_15.json,http://54.235.29.9/FacialAge/BNav_EC2/DepthDuration/v2_depth_duration_MTurk/v2_DepthDuration_HTML.html#73,73,1366,625,1366,768,8-30-2022,9-56-52,147,depth_duration_stimuli/001029_2014-06-08_13-17-57_260595134347_rgbf000065-resize_1/001029_2014-06-08_13-17-57_260595134347_rgbf000065-resize_1-target.png,250,3.0835,4,10994,0,meters,jsons/v1_VE250_randls_15.json,1463014,2108184,65,Man
147,637876,DepthScenes,duration_manipulation_targetAtFixation,jsons/v1_VE250_randls_15.json,http://54.235.29.9/FacialAge/BNav_EC2/DepthDuration/v2_depth_duration_MTurk/v2_DepthDuration_HTML.html#73,73,1366,625,1366,768,8-30-2022,9-56-52,148,depth_duration_stimuli/000677_2014-06-08_23-10-32_260595134347_rgbf000158-resize_6/000677_2014-06-08_23-10-32_260595134347_rgbf000158-resize_6-target.png,250,3.556,3,6610,209,meters,jsons/v1_VE250_randls_15.json,1463014,2108184,65,Man
148,637876,DepthScenes,duration_manipulation_targetAtFixation,jsons/v1_VE250_randls_15.json,http://54.235.29.9/FacialAge/BNav_EC2/DepthDuration/v2_depth_duration_MTurk/v2_DepthDuration_HTML.html#73,73,1366,625,1366,768,8-30-2022,9-56-52,149,depth_duration_stimuli/002788_2014-06-22_19-36-03_094959634447_rgbf000088-resize_2/002788_2014-06-22_19-36-03_094959634447_rgbf000088-resize_2-target.png,250,1.6465,3,8447,0,meters,jsons/v1_VE250_randls_15.json,1463014,2108184,65,Man
149,637876,DepthScenes,duration_manipulation_targetAtFixation,jsons/v1_VE250_randls_15.json,http://54.235.29.9/FacialAge/BNav_EC2/DepthDuration/v2_depth_duration_MTurk/v2_DepthDuration_HTML.html#73,73,1366,625,1366,768,8-30-2022,9-56-52,150,depth_duration_stimuli/000749_2014-06-08_21-55-06_260595134347_rgbf000070-resize_2/000749_2014-06-08_21-55-06_260595134347_rgbf000070-resize_2-target.png,250,2.331,4,8420,248,meters,jsons/v1_VE250_randls_15.json,1463014,2108184,65,Man
150,637876,DepthScenes,duration_manipulation_targetAtFixation,jsons/v1_VE250_randls_15.json,http://54.235.29.9/FacialAge/BNav_EC2/DepthDuration/v2_depth_duration_MTurk/v2_DepthDuration_HTML.html#73,73,1366,625,1366,768,8-30-2022,9-56-52,151,depth_duration_stimuli/000739_2014-06-08_18-45-58_260595134347_rgbf000068-resize_1/000739_2014-06-08_18-45-58_260595134347_rgbf000068-resize_1-target.png,250,3.534,4,7753,521,meters,jsons/v1_VE250_randls_15.json,1463014,2108184,65,Man
151,637876,DepthScenes,duration_manipulation_targetAtFixation,jsons/v1_VE250_randls_15.json,http://54.235.29.9/FacialAge/BNav_EC2/DepthDuration/v2_depth_duration_MTurk/v2_DepthDuration_HTML.html#73,73,1366,625,1366,768,8-30-2022,9-56-52,152,depth_duration_stimuli/000734_2014-06-08_17-39-11_260595134347_rgbf000128-resize_2/000734_2014-06-08_17-39-11_260595134347_rgbf000128-resize_2-target.png,250,4.098,3,6621,229,meters,jsons/v1_VE250_randls_15.json,1463014,2108184,65,Man
152,637876,DepthScenes,duration_manipulation_targetAtFixation,jsons/v1_VE250_randls_15.json,http://54.235.29.9/FacialAge/BNav_EC2/DepthDuration/v2_depth_duration_MTurk/v2_DepthDuration_HTML.html#73,73,1366,625,1366,768,8-30-2022,9-56-52,153,depth_duration_stimuli/002784_2014-06-22_19-26-30_094959634447_rgbf000083-resize_3/002784_2014-06-22_19-26-30_094959634447_rgbf000083-resize_3-target.png,250,1.8046666666667,3,5778,144,meters,jsons/v1_VE250_randls_15.json,1463014,2108184,65,Man
153,637876,DepthScenes,duration_manipulation_targetAtFixation,jsons/v1_VE250_randls_15.json,http://54.235.29.9/FacialAge/BNav_EC2/DepthDuration/v2_depth_duration_MTurk/v2_DepthDuration_HTML.html#73,73,1366,625,1366,768,8-30-2022,9-56-52,154,depth_duration_stimuli/001100_2014-06-15_17-46-26_260595134347_rgbf000225-resize_2/001100_2014-06-15_17-46-26_260595134347_rgbf000225-resize_2-target.png,250,2.24,4,9268,0,meters,jsons/v1_VE250_randls_15.json,1463014,2108184,65,Man
154,637876,DepthScenes,duration_manipulation_targetAtFixation,jsons/v1_VE250_randls_15.json,http://54.235.29.9/FacialAge/BNav_EC2/DepthDuration/v2_depth_duration_MTurk/v2_DepthDuration_HTML.html#73,73,1366,625,1366,768,8-30-2022,9-56-52,155,depth_duration_stimuli/001570_2014-06-20_17-21-09_260595134347_rgbf000135-resize_4/001570_2014-06-20_17-21-09_260595134347_rgbf000135-resize_4-target.png,250,4.467,4,7618,197,meters,jsons/v1_VE250_randls_15.json,1463014,2108184,65,Man
155,637876,DepthScenes,duration_manipulation_targetAtFixation,jsons/v1_VE250_randls_15.json,http://54.235.29.9/FacialAge/BNav_EC2/DepthDuration/v2_depth_duration_MTurk/v2_DepthDuration_HTML.html#73,73,1366,625,1366,768,8-30-2022,9-56-52,156,depth_duration_stimuli/001392_2014-06-19_16-07-59_260595134347_rgbf000046-resize_1/001392_2014-06-19_16-07-59_260595134347_rgbf000046-resize_1-target.png,250,4.135,2,14500,16,meters,jsons/v1_VE250_randls_15.json,1463014,2108184,65,Man
156,637876,DepthScenes,duration_manipulation_targetAtFixation,jsons/v1_VE250_randls_15.json,http://54.235.29.9/FacialAge/BNav_EC2/DepthDuration/v2_depth_duration_MTurk/v2_DepthDuration_HTML.html#73,73,1366,625,1366,768,8-30-2022,9-56-52,157,depth_duration_stimuli/000906_2014-06-08_13-35-43_260595134347_rgbf000155-resize_1/000906_2014-06-08_13-35-43_260595134347_rgbf000155-resize_1-target.png,250,2.8489999999999998,4,8231,286,meters,jsons/v1_VE250_randls_15.json,1463014,2108184,65,Man
157,637876,DepthScenes,duration_manipulation_targetAtFixation,jsons/v1_VE250_randls_15.json,http://54.235.29.9/FacialAge/BNav_EC2/DepthDuration/v2_depth_duration_MTurk/v2_DepthDuration_HTML.html#73,73,1366,625,1366,768,8-30-2022,9-56-52,158,depth_duration_stimuli/002805_2014-06-22_19-54-03_094959634447_rgbf000079-resize_1/002805_2014-06-22_19-54-03_094959634447_rgbf000079-resize_1-target.png,250,3.1439999999999997,4,23552,1073,meters,jsons/v1_VE250_randls_15.json,1463014,2108184,65,Man
158,637876,DepthScenes,duration_manipulation_targetAtFixation,jsons/v1_VE250_randls_15.json,http://54.235.29.9/FacialAge/BNav_EC2/DepthDuration/v2_depth_duration_MTurk/v2_DepthDuration_HTML.html#73,73,1366,625,1366,768,8-30-2022,9-56-52,159,depth_duration_stimuli/001175_2014-06-17_15-45-55_260595134347_rgbf000129-resize_4/001175_2014-06-17_15-45-55_260595134347_rgbf000129-resize_4-target.png,250,4.255,2,9797,0,meters,jsons/v1_VE250_randls_15.json,1463014,2108184,65,Man
159,637876,DepthScenes,duration_manipulation_targetAtFixation,jsons/v1_VE250_randls_15.json,http://54.235.29.9/FacialAge/BNav_EC2/DepthDuration/v2_depth_duration_MTurk/v2_DepthDuration_HTML.html#73,73,1366,625,1366,768,8-30-2022,9-56-52,160,depth_duration_stimuli/003490_2014-05-21_15-50-11_094959634447_rgbf000101-resize_3/003490_2014-05-21_15-50-11_094959634447_rgbf000101-resize_3-target.png,250,3.6445,4,7827,654,meters,jsons/v1_VE250_randls_15.json,1463014,2108184,65,Man
160,637876,DepthScenes,duration_manipulation_targetAtFixation,jsons/v1_VE250_randls_15.json,http://54.235.29.9/FacialAge/BNav_EC2/DepthDuration/v2_depth_duration_MTurk/v2_DepthDuration_HTML.html#73,73,1366,625,1366,768,8-30-2022,9-56-52,161,depth_duration_stimuli/002057_2014-06-24_21-00-13_260595134347_rgbf000120-resize_1/002057_2014-06-24_21-00-13_260595134347_rgbf000120-resize_1-target.png,250,2.967,3,7366,0,meters,jsons/v1_VE250_randls_15.json,1463014,2108184,65,Man
161,637876,DepthScenes,duration_manipulation_targetAtFixation,jsons/v1_VE250_randls_15.json,http://54.235.29.9/FacialAge/BNav_EC2/DepthDuration/v2_depth_duration_MTurk/v2_DepthDuration_HTML.html#73,73,1366,625,1366,768,8-30-2022,9-56-52,162,depth_duration_stimuli/000709_2014-06-08_13-51-55_260595134347_rgbf000068-resize_3/000709_2014-06-08_13-51-55_260595134347_rgbf000068-resize_3-target.png,250,1.8030000000000002,2,8440,0,meters,jsons/v1_VE250_randls_15.json,1463014,2108184,65,Man
162,637876,DepthScenes,duration_manipulation_targetAtFixation,jsons/v1_VE250_randls_15.json,http://54.235.29.9/FacialAge/BNav_EC2/DepthDuration/v2_depth_duration_MTurk/v2_DepthDuration_HTML.html#73,73,1366,625,1366,768,8-30-2022,9-56-52,163,depth_duration_stimuli/002663_2014-06-13_15-50-26_094959634447_rgbf000075-resize_1/002663_2014-06-13_15-50-26_094959634447_rgbf000075-resize_1-target.png,250,4.7495,4,9805,431,meters,jsons/v1_VE250_randls_15.json,1463014,2108184,65,Man
163,637876,DepthScenes,duration_manipulation_targetAtFixation,jsons/v1_VE250_randls_15.json,http://54.235.29.9/FacialAge/BNav_EC2/DepthDuration/v2_depth_duration_MTurk/v2_DepthDuration_HTML.html#73,73,1366,625,1366,768,8-30-2022,9-56-52,164,depth_duration_stimuli/000409_2014-06-04_19-23-33_260595134347_rgbf000067-resize_0/000409_2014-06-04_19-23-33_260595134347_rgbf000067-resize_0-target.png,250,3.7335,3,7423,78,meters,jsons/v1_VE250_randls_15.json,1463014,2108184,65,Man
