,subjID,experimentName,versionName,sequenceName,url,selected_row,windowWidth,windowHeight,screenWidth,screenHeight,startDate,startTime,trial,stimulus,duration,actual_depth,depth_estimate,trial_RT,log_sceneDuration,unitSelection,seq_filepath,experimentTime,totalTime,age,gender
0,638287,DepthScenes,duration_manipulation_targetAtFixation,jsons/VE125_randls_29.json,http://54.235.29.9/FacialAge/BNav_EC2/DepthDuration/v2_depth_duration_MTurk/v2_DepthDuration_HTML.html#159,159,1304,697,1366,768,8-29-2022,9-57-30,1,depth_duration_stimuli/000486_2014-06-09_20-47-20_260595134347_rgbf000143-resize_2/000486_2014-06-09_20-47-20_260595134347_rgbf000143-resize_2-target.png,125,4.8325,6,4094,119,feet,jsons/VE125_randls_29.json,518481,1563352,60,Woman
1,638287,DepthScenes,duration_manipulation_targetAtFixation,jsons/VE125_randls_29.json,http://54.235.29.9/FacialAge/BNav_EC2/DepthDuration/v2_depth_duration_MTurk/v2_DepthDuration_HTML.html#159,159,1304,697,1366,768,8-29-2022,9-57-30,2,depth_duration_stimuli/003083_2014-06-15_15-21-03_094959634447_rgbf000063-resize_1/003083_2014-06-15_15-21-03_094959634447_rgbf000063-resize_1-target.png,125,4.1405,5,4036,124,feet,jsons/VE125_randls_29.json,518481,1563352,60,Woman
2,638287,DepthScenes,duration_manipulation_targetAtFixation,jsons/VE125_randls_29.json,http://54.235.29.9/FacialAge/BNav_EC2/DepthDuration/v2_depth_duration_MTurk/v2_DepthDuration_HTML.html#159,159,1304,697,1366,768,8-29-2022,9-57-30,3,depth_duration_stimuli/001158_2014-06-17_15-32-16_260595134347_rgbf000138-resize_2/001158_2014-06-17_15-32-16_260595134347_rgbf000138-resize_2-target.png,125,4.5315,7,4769,136,feet,jsons/VE125_randls_29.json,518481,1563352,60,Woman
3,638287,DepthScenes,duration_manipulation_targetAtFixation,jsons/VE125_randls_29.json,http://54.235.29.9/FacialAge/BNav_EC2/DepthDuration/v2_depth_duration_MTurk/v2_DepthDuration_HTML.html#159,159,1304,697,1366,768,8-29-2022,9-57-30,4,depth_duration_stimuli/000556_2014-06-09_22-42-56_260595134347_rgbf000214-resize_1/000556_2014-06-09_22-42-56_260595134347_rgbf000214-resize_1-target.png,125,4.8415,6,4116,139,feet,jsons/VE125_randls_29.json,518481,1563352,60,Woman
4,638287,DepthScenes,duration_manipulation_targetAtFixation,jsons/VE125_randls_29.json,http://54.235.29.9/FacialAge/BNav_EC2/DepthDuration/v2_depth_duration_MTurk/v2_DepthDuration_HTML.html#159,159,1304,697,1366,768,8-29-2022,9-57-30,5,depth_duration_stimuli/003492_2014-05-21_15-50-55_094959634447_rgbf000828-resize_1/003492_2014-05-21_15-50-55_094959634447_rgbf000828-resize_1-target.png,125,4.06875,7,3374,120,feet,jsons/VE125_randls_29.json,518481,1563352,60,Woman
5,638287,DepthScenes,duration_manipulation_targetAtFixation,jsons/VE125_randls_29.json,http://54.235.29.9/FacialAge/BNav_EC2/DepthDuration/v2_depth_duration_MTurk/v2_DepthDuration_HTML.html#159,159,1304,697,1366,768,8-29-2022,9-57-30,6,depth_duration_stimuli/002568_2014-06-24_13-59-21_094959634447_rgbf000062-resize_4/002568_2014-06-24_13-59-21_094959634447_rgbf000062-resize_4-target.png,125,3.015,7,3193,118,feet,jsons/VE125_randls_29.json,518481,1563352,60,Woman
6,638287,DepthScenes,duration_manipulation_targetAtFixation,jsons/VE125_randls_29.json,http://54.235.29.9/FacialAge/BNav_EC2/DepthDuration/v2_depth_duration_MTurk/v2_DepthDuration_HTML.html#159,159,1304,697,1366,768,8-29-2022,9-57-30,7,depth_duration_stimuli/001029_2014-06-08_13-17-57_260595134347_rgbf000065-resize_1/001029_2014-06-08_13-17-57_260595134347_rgbf000065-resize_1-target.png,125,3.0835,6,3284,133,feet,jsons/VE125_randls_29.json,518481,1563352,60,Woman
7,638287,DepthScenes,duration_manipulation_targetAtFixation,jsons/VE125_randls_29.json,http://54.235.29.9/FacialAge/BNav_EC2/DepthDuration/v2_depth_duration_MTurk/v2_DepthDuration_HTML.html#159,159,1304,697,1366,768,8-29-2022,9-57-30,8,depth_duration_stimuli/000677_2014-06-08_23-10-32_260595134347_rgbf000158-resize_6/000677_2014-06-08_23-10-32_260595134347_rgbf000158-resize_6-target.png,125,3.556,6,2926,128,feet,jsons/VE125_randls_29.json,518481,1563352,60,Woman
8,638287,DepthScenes,duration_manipulation_targetAtFixation,jsons/VE125_randls_29.json,http://54.235.29.9/FacialAge/BNav_EC2/DepthDuration/v2_depth_duration_MTurk/v2_DepthDuration_HTML.html#159,159,1304,697,1366,768,8-29-2022,9-57-30,9,depth_duration_stimuli/000493_2014-06-09_21-01-18_260595134347_rgbf000196-resize_3/000493_2014-06-09_21-01-18_260595134347_rgbf000196-resize_3-target.png,125,3.44,5,3615,126,feet,jsons/VE125_randls_29.json,518481,1563352,60,Woman
9,638287,DepthScenes,duration_manipulation_targetAtFixation,jsons/VE125_randls_29.json,http://54.235.29.9/FacialAge/BNav_EC2/DepthDuration/v2_depth_duration_MTurk/v2_DepthDuration_HTML.html#159,159,1304,697,1366,768,8-29-2022,9-57-30,10,depth_duration_stimuli/000191_2014-05-12_17-07-38_260595134347_rgbf000199-resize_0/000191_2014-05-12_17-07-38_260595134347_rgbf000199-resize_0-target.png,125,3.7995,0,3044,57,feet,jsons/VE125_randls_29.json,518481,1563352,60,Woman
10,638287,DepthScenes,duration_manipulation_targetAtFixation,jsons/VE125_randls_29.json,http://54.235.29.9/FacialAge/BNav_EC2/DepthDuration/v2_depth_duration_MTurk/v2_DepthDuration_HTML.html#159,159,1304,697,1366,768,8-29-2022,9-57-30,11,depth_duration_stimuli/000368_2014-06-09_15-53-01_260595134347_rgbf000155-resize_2/000368_2014-06-09_15-53-01_260595134347_rgbf000155-resize_2-target.png,125,2.4859999999999998,4,3155,137,feet,jsons/VE125_randls_29.json,518481,1563352,60,Woman
11,638287,DepthScenes,duration_manipulation_targetAtFixation,jsons/VE125_randls_29.json,http://54.235.29.9/FacialAge/BNav_EC2/DepthDuration/v2_depth_duration_MTurk/v2_DepthDuration_HTML.html#159,159,1304,697,1366,768,8-29-2022,9-57-30,12,depth_duration_stimuli/002678_2014-06-13_16-15-32_094959634447_rgbf000151-resize_6/002678_2014-06-13_16-15-32_094959634447_rgbf000151-resize_6-target.png,125,2.1830000000000003,6,2750,130,feet,jsons/VE125_randls_29.json,518481,1563352,60,Woman
12,638287,DepthScenes,duration_manipulation_targetAtFixation,jsons/VE125_randls_29.json,http://54.235.29.9/FacialAge/BNav_EC2/DepthDuration/v2_depth_duration_MTurk/v2_DepthDuration_HTML.html#159,159,1304,697,1366,768,8-29-2022,9-57-30,13,depth_duration_stimuli/000569_2014-06-09_22-51-47_260595134347_rgbf000141-resize_3/000569_2014-06-09_22-51-47_260595134347_rgbf000141-resize-original.jpg,125,4.512,5,2997,117,feet,jsons/VE125_randls_29.json,518481,1563352,60,Woman
13,638287,DepthScenes,duration_manipulation_targetAtFixation,jsons/VE125_randls_29.json,http://54.235.29.9/FacialAge/BNav_EC2/DepthDuration/v2_depth_duration_MTurk/v2_DepthDuration_HTML.html#159,159,1304,697,1366,768,8-29-2022,9-57-30,14,depth_duration_stimuli/002445_2014-06-28_20-32-16_260595134347_rgbf000029-resize_4/002445_2014-06-28_20-32-16_260595134347_rgbf000029-resize_4-target.png,125,2.5315,3,2988,124,feet,jsons/VE125_randls_29.json,518481,1563352,60,Woman
14,638287,DepthScenes,duration_manipulation_targetAtFixation,jsons/VE125_randls_29.json,http://54.235.29.9/FacialAge/BNav_EC2/DepthDuration/v2_depth_duration_MTurk/v2_DepthDuration_HTML.html#159,159,1304,697,1366,768,8-29-2022,9-57-30,15,depth_duration_stimuli/000780_2014-06-08_22-28-29_260595134347_rgbf000126-resize_1/000780_2014-06-08_22-28-29_260595134347_rgbf000126-resize_1-target.png,125,3.3825,5,2492,119,feet,jsons/VE125_randls_29.json,518481,1563352,60,Woman
15,638287,DepthScenes,duration_manipulation_targetAtFixation,jsons/VE125_randls_29.json,http://54.235.29.9/FacialAge/BNav_EC2/DepthDuration/v2_depth_duration_MTurk/v2_DepthDuration_HTML.html#159,159,1304,697,1366,768,8-29-2022,9-57-30,16,depth_duration_stimuli/003621_2014-05-23_18-06-08_094959634447_rgbf000101-resize_1/003621_2014-05-23_18-06-08_094959634447_rgbf000101-resize_1-target.png,125,3.9835,7,3152,123,feet,jsons/VE125_randls_29.json,518481,1563352,60,Woman
16,638287,DepthScenes,duration_manipulation_targetAtFixation,jsons/VE125_randls_29.json,http://54.235.29.9/FacialAge/BNav_EC2/DepthDuration/v2_depth_duration_MTurk/v2_DepthDuration_HTML.html#159,159,1304,697,1366,768,8-29-2022,9-57-30,17,depth_duration_stimuli/001584_2014-06-20_11-07-43_260595134347_rgbf000002-resize_1/001584_2014-06-20_11-07-43_260595134347_rgbf000002-resize_1-target.png,125,3.53,6,2616,124,feet,jsons/VE125_randls_29.json,518481,1563352,60,Woman
17,638287,DepthScenes,duration_manipulation_targetAtFixation,jsons/VE125_randls_29.json,http://54.235.29.9/FacialAge/BNav_EC2/DepthDuration/v2_depth_duration_MTurk/v2_DepthDuration_HTML.html#159,159,1304,697,1366,768,8-29-2022,9-57-30,18,depth_duration_stimuli/003534_2014-05-22_15-06-10_094959634447_rgbf000102-resize_4/003534_2014-05-22_15-06-10_094959634447_rgbf000102-resize_4-target.png,125,1.426,4,2940,124,feet,jsons/VE125_randls_29.json,518481,1563352,60,Woman
18,638287,DepthScenes,duration_manipulation_targetAtFixation,jsons/VE125_randls_29.json,http://54.235.29.9/FacialAge/BNav_EC2/DepthDuration/v2_depth_duration_MTurk/v2_DepthDuration_HTML.html#159,159,1304,697,1366,768,8-29-2022,9-57-30,19,depth_duration_stimuli/002637_2014-06-24_14-51-13_094959634447_rgbf000066-resize_4/002637_2014-06-24_14-51-13_094959634447_rgbf000066-resize_4-target.png,125,1.9955,3,2761,127,feet,jsons/VE125_randls_29.json,518481,1563352,60,Woman
19,638287,DepthScenes,duration_manipulation_targetAtFixation,jsons/VE125_randls_29.json,http://54.235.29.9/FacialAge/BNav_EC2/DepthDuration/v2_depth_duration_MTurk/v2_DepthDuration_HTML.html#159,159,1304,697,1366,768,8-29-2022,9-57-30,20,depth_duration_stimuli/002549_2014-06-24_13-41-39_094959634447_rgbf000022-resize_3/002549_2014-06-24_13-41-39_094959634447_rgbf000022-resize_3-target.png,125,1.476,3,2281,129,feet,jsons/VE125_randls_29.json,518481,1563352,60,Woman
20,638287,DepthScenes,duration_manipulation_targetAtFixation,jsons/VE125_randls_29.json,http://54.235.29.9/FacialAge/BNav_EC2/DepthDuration/v2_depth_duration_MTurk/v2_DepthDuration_HTML.html#159,159,1304,697,1366,768,8-29-2022,9-57-30,21,depth_duration_stimuli/002750_2014-06-22_19-08-03_094959634447_rgbf000094-resize_4/002750_2014-06-22_19-08-03_094959634447_rgbf000094-resize_4-target.png,125,2.354,5,3414,117,feet,jsons/VE125_randls_29.json,518481,1563352,60,Woman
21,638287,DepthScenes,duration_manipulation_targetAtFixation,jsons/VE125_randls_29.json,http://54.235.29.9/FacialAge/BNav_EC2/DepthDuration/v2_depth_duration_MTurk/v2_DepthDuration_HTML.html#159,159,1304,697,1366,768,8-29-2022,9-57-30,22,depth_duration_stimuli/001175_2014-06-17_15-45-55_260595134347_rgbf000129-resize_4/001175_2014-06-17_15-45-55_260595134347_rgbf000129-resize_4-target.png,125,4.255,7,3665,125,feet,jsons/VE125_randls_29.json,518481,1563352,60,Woman
22,638287,DepthScenes,duration_manipulation_targetAtFixation,jsons/VE125_randls_29.json,http://54.235.29.9/FacialAge/BNav_EC2/DepthDuration/v2_depth_duration_MTurk/v2_DepthDuration_HTML.html#159,159,1304,697,1366,768,8-29-2022,9-57-30,23,depth_duration_stimuli/003490_2014-05-21_15-50-11_094959634447_rgbf000101-resize_3/003490_2014-05-21_15-50-11_094959634447_rgbf000101-resize_3-target.png,125,3.6445,6,2263,130,feet,jsons/VE125_randls_29.json,518481,1563352,60,Woman
23,638287,DepthScenes,duration_manipulation_targetAtFixation,jsons/VE125_randls_29.json,http://54.235.29.9/FacialAge/BNav_EC2/DepthDuration/v2_depth_duration_MTurk/v2_DepthDuration_HTML.html#159,159,1304,697,1366,768,8-29-2022,9-57-30,24,depth_duration_stimuli/001164_2014-06-17_15-35-46_260595134347_rgbf000085-resize_3/001164_2014-06-17_15-35-46_260595134347_rgbf000085-resize_3-target.png,125,2.354,5,2565,126,feet,jsons/VE125_randls_29.json,518481,1563352,60,Woman
24,638287,DepthScenes,duration_manipulation_targetAtFixation,jsons/VE125_randls_29.json,http://54.235.29.9/FacialAge/BNav_EC2/DepthDuration/v2_depth_duration_MTurk/v2_DepthDuration_HTML.html#159,159,1304,697,1366,768,8-29-2022,9-57-30,25,depth_duration_stimuli/001136_2014-06-17_15-19-41_260595134347_rgbf000076-resize_3/001136_2014-06-17_15-19-41_260595134347_rgbf000076-resize_3-target.png,125,1.8655,5,2266,111,feet,jsons/VE125_randls_29.json,518481,1563352,60,Woman
25,638287,DepthScenes,duration_manipulation_targetAtFixation,jsons/VE125_randls_29.json,http://54.235.29.9/FacialAge/BNav_EC2/DepthDuration/v2_depth_duration_MTurk/v2_DepthDuration_HTML.html#159,159,1304,697,1366,768,8-29-2022,9-57-30,26,depth_duration_stimuli/002213_2014-06-28_18-37-58_260595134347_rgbf000055-resize_1/002213_2014-06-28_18-37-58_260595134347_rgbf000055-resize_1-target.png,125,3.62,6,2560,135,feet,jsons/VE125_randls_29.json,518481,1563352,60,Woman
26,638287,DepthScenes,duration_manipulation_targetAtFixation,jsons/VE125_randls_29.json,http://54.235.29.9/FacialAge/BNav_EC2/DepthDuration/v2_depth_duration_MTurk/v2_DepthDuration_HTML.html#159,159,1304,697,1366,768,8-29-2022,9-57-30,27,depth_duration_stimuli/000691_2014-06-08_13-08-50_260595134347_rgbf000132-resize_3/000691_2014-06-08_13-08-50_260595134347_rgbf000132-resize_3-target.png,125,4.1530000000000005,7,2706,118,feet,jsons/VE125_randls_29.json,518481,1563352,60,Woman
27,638287,DepthScenes,duration_manipulation_targetAtFixation,jsons/VE125_randls_29.json,http://54.235.29.9/FacialAge/BNav_EC2/DepthDuration/v2_depth_duration_MTurk/v2_DepthDuration_HTML.html#159,159,1304,697,1366,768,8-29-2022,9-57-30,28,depth_duration_stimuli/000692_2014-06-08_13-09-42_260595134347_rgbf000199-resize_2/000692_2014-06-08_13-09-42_260595134347_rgbf000199-resize_2-target.png,125,3.661,7,2311,124,feet,jsons/VE125_randls_29.json,518481,1563352,60,Woman
28,638287,DepthScenes,duration_manipulation_targetAtFixation,jsons/VE125_randls_29.json,http://54.235.29.9/FacialAge/BNav_EC2/DepthDuration/v2_depth_duration_MTurk/v2_DepthDuration_HTML.html#159,159,1304,697,1366,768,8-29-2022,9-57-30,29,depth_duration_stimuli/001094_2014-06-15_17-36-00_260595134347_rgbf000205-resize_0/001094_2014-06-15_17-36-00_260595134347_rgbf000205-resize_0-target.png,125,4.2175,4,2518,123,feet,jsons/VE125_randls_29.json,518481,1563352,60,Woman
29,638287,DepthScenes,duration_manipulation_targetAtFixation,jsons/VE125_randls_29.json,http://54.235.29.9/FacialAge/BNav_EC2/DepthDuration/v2_depth_duration_MTurk/v2_DepthDuration_HTML.html#159,159,1304,697,1366,768,8-29-2022,9-57-30,30,depth_duration_stimuli/000375_2014-06-08_11-17-29_260595134347_rgbf000133-resize_2/000375_2014-06-08_11-17-29_260595134347_rgbf000133-resize-original.jpg,125,4.718,4,2363,123,feet,jsons/VE125_randls_29.json,518481,1563352,60,Woman
30,638287,DepthScenes,duration_manipulation_targetAtFixation,jsons/VE125_randls_29.json,http://54.235.29.9/FacialAge/BNav_EC2/DepthDuration/v2_depth_duration_MTurk/v2_DepthDuration_HTML.html#159,159,1304,697,1366,768,8-29-2022,9-57-30,31,depth_duration_stimuli/002988_2014-06-15_12-24-20_094959634447_rgbf000150-resize_1/002988_2014-06-15_12-24-20_094959634447_rgbf000150-resize_1-target.png,125,4.7669999999999995,7,2589,132,feet,jsons/VE125_randls_29.json,518481,1563352,60,Woman
31,638287,DepthScenes,duration_manipulation_targetAtFixation,jsons/VE125_randls_29.json,http://54.235.29.9/FacialAge/BNav_EC2/DepthDuration/v2_depth_duration_MTurk/v2_DepthDuration_HTML.html#159,159,1304,697,1366,768,8-29-2022,9-57-30,32,depth_duration_stimuli/001052_2014-06-08_18-24-54_260595134347_rgbf000130-resize_1/001052_2014-06-08_18-24-54_260595134347_rgbf000130-resize_1-target.png,125,4.1045,7,2174,124,feet,jsons/VE125_randls_29.json,518481,1563352,60,Woman
32,638287,DepthScenes,duration_manipulation_targetAtFixation,jsons/VE125_randls_29.json,http://54.235.29.9/FacialAge/BNav_EC2/DepthDuration/v2_depth_duration_MTurk/v2_DepthDuration_HTML.html#159,159,1304,697,1366,768,8-29-2022,9-57-30,33,depth_duration_stimuli/002057_2014-06-24_21-00-13_260595134347_rgbf000120-resize_1/002057_2014-06-24_21-00-13_260595134347_rgbf000120-resize_1-target.png,125,2.967,6,2389,116,feet,jsons/VE125_randls_29.json,518481,1563352,60,Woman
33,638287,DepthScenes,duration_manipulation_targetAtFixation,jsons/VE125_randls_29.json,http://54.235.29.9/FacialAge/BNav_EC2/DepthDuration/v2_depth_duration_MTurk/v2_DepthDuration_HTML.html#159,159,1304,697,1366,768,8-29-2022,9-57-30,34,depth_duration_stimuli/000709_2014-06-08_13-51-55_260595134347_rgbf000068-resize_3/000709_2014-06-08_13-51-55_260595134347_rgbf000068-resize_3-target.png,125,1.8030000000000002,5,2574,111,feet,jsons/VE125_randls_29.json,518481,1563352,60,Woman
34,638287,DepthScenes,duration_manipulation_targetAtFixation,jsons/VE125_randls_29.json,http://54.235.29.9/FacialAge/BNav_EC2/DepthDuration/v2_depth_duration_MTurk/v2_DepthDuration_HTML.html#159,159,1304,697,1366,768,8-29-2022,9-57-30,35,depth_duration_stimuli/001092_2014-06-15_17-34-58_260595134347_rgbf000171-resize_3/001092_2014-06-15_17-34-58_260595134347_rgbf000171-resize_3-target.png,125,2.6935,5,2556,131,feet,jsons/VE125_randls_29.json,518481,1563352,60,Woman
35,638287,DepthScenes,duration_manipulation_targetAtFixation,jsons/VE125_randls_29.json,http://54.235.29.9/FacialAge/BNav_EC2/DepthDuration/v2_depth_duration_MTurk/v2_DepthDuration_HTML.html#159,159,1304,697,1366,768,8-29-2022,9-57-30,36,depth_duration_stimuli/002545_2014-06-24_13-38-53_094959634447_rgbf000080-resize_4/002545_2014-06-24_13-38-53_094959634447_rgbf000080-resize_4-target.png,125,1.9205,4,2387,135,feet,jsons/VE125_randls_29.json,518481,1563352,60,Woman
36,638287,DepthScenes,duration_manipulation_targetAtFixation,jsons/VE125_randls_29.json,http://54.235.29.9/FacialAge/BNav_EC2/DepthDuration/v2_depth_duration_MTurk/v2_DepthDuration_HTML.html#159,159,1304,697,1366,768,8-29-2022,9-57-30,37,depth_duration_stimuli/001055_2014-06-08_18-45-35_260595134347_rgbf000111-resize_4/001055_2014-06-08_18-45-35_260595134347_rgbf000111-resize_4-target.png,125,2.4290000000000003,6,2397,128,feet,jsons/VE125_randls_29.json,518481,1563352,60,Woman
37,638287,DepthScenes,duration_manipulation_targetAtFixation,jsons/VE125_randls_29.json,http://54.235.29.9/FacialAge/BNav_EC2/DepthDuration/v2_depth_duration_MTurk/v2_DepthDuration_HTML.html#159,159,1304,697,1366,768,8-29-2022,9-57-30,38,depth_duration_stimuli/000549_2014-06-08_22-10-24_260595134347_rgbf000247-resize_3/000549_2014-06-08_22-10-24_260595134347_rgbf000247-resize_3-target.png,125,1.841,3,3105,119,feet,jsons/VE125_randls_29.json,518481,1563352,60,Woman
38,638287,DepthScenes,duration_manipulation_targetAtFixation,jsons/VE125_randls_29.json,http://54.235.29.9/FacialAge/BNav_EC2/DepthDuration/v2_depth_duration_MTurk/v2_DepthDuration_HTML.html#159,159,1304,697,1366,768,8-29-2022,9-57-30,39,depth_duration_stimuli/002570_2014-06-24_13-59-54_094959634447_rgbf000059-resize_0/002570_2014-06-24_13-59-54_094959634447_rgbf000059-resize_0-target.png,125,4.037,4,1989,125,feet,jsons/VE125_randls_29.json,518481,1563352,60,Woman
39,638287,DepthScenes,duration_manipulation_targetAtFixation,jsons/VE125_randls_29.json,http://54.235.29.9/FacialAge/BNav_EC2/DepthDuration/v2_depth_duration_MTurk/v2_DepthDuration_HTML.html#159,159,1304,697,1366,768,8-29-2022,9-57-30,40,depth_duration_stimuli/002467_2014-06-28_20-38-07_260595134347_rgbf000026-resize_2/002467_2014-06-28_20-38-07_260595134347_rgbf000026-resize_2-target.png,125,4.742,4,2547,111,feet,jsons/VE125_randls_29.json,518481,1563352,60,Woman
40,638287,DepthScenes,duration_manipulation_targetAtFixation,jsons/VE125_randls_29.json,http://54.235.29.9/FacialAge/BNav_EC2/DepthDuration/v2_depth_duration_MTurk/v2_DepthDuration_HTML.html#159,159,1304,697,1366,768,8-29-2022,9-57-30,41,depth_duration_stimuli/000917_2014-06-09_22-45-29_260595134347_rgbf000149-resize_3/000917_2014-06-09_22-45-29_260595134347_rgbf000149-resize_3-target.png,125,4.1865,5,2546,124,feet,jsons/VE125_randls_29.json,518481,1563352,60,Woman
41,638287,DepthScenes,duration_manipulation_targetAtFixation,jsons/VE125_randls_29.json,http://54.235.29.9/FacialAge/BNav_EC2/DepthDuration/v2_depth_duration_MTurk/v2_DepthDuration_HTML.html#159,159,1304,697,1366,768,8-29-2022,9-57-30,42,depth_duration_stimuli/002323_2014-06-28_20-01-54_260595134347_rgbf000051-resize_4/002323_2014-06-28_20-01-54_260595134347_rgbf000051-resize_4-target.png,125,3.7310000000000003,6,2317,125,feet,jsons/VE125_randls_29.json,518481,1563352,60,Woman
42,638287,DepthScenes,duration_manipulation_targetAtFixation,jsons/VE125_randls_29.json,http://54.235.29.9/FacialAge/BNav_EC2/DepthDuration/v2_depth_duration_MTurk/v2_DepthDuration_HTML.html#159,159,1304,697,1366,768,8-29-2022,9-57-30,43,depth_duration_stimuli/001066_2014-06-08_22-03-20_260595134347_rgbf000066-resize_4/001066_2014-06-08_22-03-20_260595134347_rgbf000066-resize_4-target.png,125,4.2330000000000005,5,2278,124,feet,jsons/VE125_randls_29.json,518481,1563352,60,Woman
43,638287,DepthScenes,duration_manipulation_targetAtFixation,jsons/VE125_randls_29.json,http://54.235.29.9/FacialAge/BNav_EC2/DepthDuration/v2_depth_duration_MTurk/v2_DepthDuration_HTML.html#159,159,1304,697,1366,768,8-29-2022,9-57-30,44,depth_duration_stimuli/000742_2014-06-08_18-48-09_260595134347_rgbf000164-resize_4/000742_2014-06-08_18-48-09_260595134347_rgbf000164-resize_4-target.png,125,4.632,5,2062,131,feet,jsons/VE125_randls_29.json,518481,1563352,60,Woman
44,638287,DepthScenes,duration_manipulation_targetAtFixation,jsons/VE125_randls_29.json,http://54.235.29.9/FacialAge/BNav_EC2/DepthDuration/v2_depth_duration_MTurk/v2_DepthDuration_HTML.html#159,159,1304,697,1366,768,8-29-2022,9-57-30,45,depth_duration_stimuli/000787_2014-06-08_22-33-53_260595134347_rgbf000175-resize_1/000787_2014-06-08_22-33-53_260595134347_rgbf000175-resize-original.jpg,125,4.784,3,2324,108,feet,jsons/VE125_randls_29.json,518481,1563352,60,Woman
45,638287,DepthScenes,duration_manipulation_targetAtFixation,jsons/VE125_randls_29.json,http://54.235.29.9/FacialAge/BNav_EC2/DepthDuration/v2_depth_duration_MTurk/v2_DepthDuration_HTML.html#159,159,1304,697,1366,768,8-29-2022,9-57-30,46,depth_duration_stimuli/000414_2014-06-04_19-49-13_260595134347_rgbf000044-resize_0/000414_2014-06-04_19-49-13_260595134347_rgbf000044-resize_0-target.png,125,4.329,6,2671,123,feet,jsons/VE125_randls_29.json,518481,1563352,60,Woman
46,638287,DepthScenes,duration_manipulation_targetAtFixation,jsons/VE125_randls_29.json,http://54.235.29.9/FacialAge/BNav_EC2/DepthDuration/v2_depth_duration_MTurk/v2_DepthDuration_HTML.html#159,159,1304,697,1366,768,8-29-2022,9-57-30,47,depth_duration_stimuli/003129_2014-05-12_10-48-10_094959634447_rgbf000100-resize_0/003129_2014-05-12_10-48-10_094959634447_rgbf000100-resize_0-target.png,125,4.9305,6,2825,121,feet,jsons/VE125_randls_29.json,518481,1563352,60,Woman
47,638287,DepthScenes,duration_manipulation_targetAtFixation,jsons/VE125_randls_29.json,http://54.235.29.9/FacialAge/BNav_EC2/DepthDuration/v2_depth_duration_MTurk/v2_DepthDuration_HTML.html#159,159,1304,697,1366,768,8-29-2022,9-57-30,48,depth_duration_stimuli/002039_2014-06-24_20-22-38_260595134347_rgbf000084-resize_1/002039_2014-06-24_20-22-38_260595134347_rgbf000084-resize_1-target.png,125,4.408,6,3042,123,feet,jsons/VE125_randls_29.json,518481,1563352,60,Woman
48,638287,DepthScenes,duration_manipulation_targetAtFixation,jsons/VE125_randls_29.json,http://54.235.29.9/FacialAge/BNav_EC2/DepthDuration/v2_depth_duration_MTurk/v2_DepthDuration_HTML.html#159,159,1304,697,1366,768,8-29-2022,9-57-30,49,depth_duration_stimuli/002103_2014-06-25_20-00-40_260595134347_rgbf000049-resize_0/002103_2014-06-25_20-00-40_260595134347_rgbf000049-resize_0-target.png,125,4.105,4,2268,126,feet,jsons/VE125_randls_29.json,518481,1563352,60,Woman
49,638287,DepthScenes,duration_manipulation_targetAtFixation,jsons/VE125_randls_29.json,http://54.235.29.9/FacialAge/BNav_EC2/DepthDuration/v2_depth_duration_MTurk/v2_DepthDuration_HTML.html#159,159,1304,697,1366,768,8-29-2022,9-57-30,50,depth_duration_stimuli/001555_2014-06-20_17-12-10_260595134347_rgbf000065-resize_4/001555_2014-06-20_17-12-10_260595134347_rgbf000065-resize_4-target.png,125,1.633,3,2672,128,feet,jsons/VE125_randls_29.json,518481,1563352,60,Woman
50,638287,DepthScenes,duration_manipulation_targetAtFixation,jsons/VE125_randls_29.json,http://54.235.29.9/FacialAge/BNav_EC2/DepthDuration/v2_depth_duration_MTurk/v2_DepthDuration_HTML.html#159,159,1304,697,1366,768,8-29-2022,9-57-30,51,depth_duration_stimuli/000103_2014-05-14_22-01-17_260595134347_rgbf000152-resize_5/000103_2014-05-14_22-01-17_260595134347_rgbf000152-resize_5-target.png,125,1.993,5,3179,121,feet,jsons/VE125_randls_29.json,518481,1563352,60,Woman
51,638287,DepthScenes,duration_manipulation_targetAtFixation,jsons/VE125_randls_29.json,http://54.235.29.9/FacialAge/BNav_EC2/DepthDuration/v2_depth_duration_MTurk/v2_DepthDuration_HTML.html#159,159,1304,697,1366,768,8-29-2022,9-57-30,52,depth_duration_stimuli/000906_2014-06-08_13-35-43_260595134347_rgbf000155-resize_1/000906_2014-06-08_13-35-43_260595134347_rgbf000155-resize_1-target.png,125,2.8489999999999998,6,2197,125,feet,jsons/VE125_randls_29.json,518481,1563352,60,Woman
52,638287,DepthScenes,duration_manipulation_targetAtFixation,jsons/VE125_randls_29.json,http://54.235.29.9/FacialAge/BNav_EC2/DepthDuration/v2_depth_duration_MTurk/v2_DepthDuration_HTML.html#159,159,1304,697,1366,768,8-29-2022,9-57-30,53,depth_duration_stimuli/002805_2014-06-22_19-54-03_094959634447_rgbf000079-resize_1/002805_2014-06-22_19-54-03_094959634447_rgbf000079-resize_1-target.png,125,3.1439999999999997,6,4451,126,feet,jsons/VE125_randls_29.json,518481,1563352,60,Woman
53,638287,DepthScenes,duration_manipulation_targetAtFixation,jsons/VE125_randls_29.json,http://54.235.29.9/FacialAge/BNav_EC2/DepthDuration/v2_depth_duration_MTurk/v2_DepthDuration_HTML.html#159,159,1304,697,1366,768,8-29-2022,9-57-30,54,depth_duration_stimuli/002788_2014-06-22_19-36-03_094959634447_rgbf000088-resize_2/002788_2014-06-22_19-36-03_094959634447_rgbf000088-resize_2-target.png,125,1.6465,5,2650,130,feet,jsons/VE125_randls_29.json,518481,1563352,60,Woman
54,638287,DepthScenes,duration_manipulation_targetAtFixation,jsons/VE125_randls_29.json,http://54.235.29.9/FacialAge/BNav_EC2/DepthDuration/v2_depth_duration_MTurk/v2_DepthDuration_HTML.html#159,159,1304,697,1366,768,8-29-2022,9-57-30,55,depth_duration_stimuli/000749_2014-06-08_21-55-06_260595134347_rgbf000070-resize_2/000749_2014-06-08_21-55-06_260595134347_rgbf000070-resize_2-target.png,125,2.331,4,2529,133,feet,jsons/VE125_randls_29.json,518481,1563352,60,Woman
55,638287,DepthScenes,duration_manipulation_targetAtFixation,jsons/VE125_randls_29.json,http://54.235.29.9/FacialAge/BNav_EC2/DepthDuration/v2_depth_duration_MTurk/v2_DepthDuration_HTML.html#159,159,1304,697,1366,768,8-29-2022,9-57-30,56,depth_duration_stimuli/000447_2014-06-08_16-15-46_260595134347_rgbf000130-resize_1/000447_2014-06-08_16-15-46_260595134347_rgbf000130-resize_1-target.png,125,4.479,6,2385,135,feet,jsons/VE125_randls_29.json,518481,1563352,60,Woman
56,638287,DepthScenes,duration_manipulation_targetAtFixation,jsons/VE125_randls_29.json,http://54.235.29.9/FacialAge/BNav_EC2/DepthDuration/v2_depth_duration_MTurk/v2_DepthDuration_HTML.html#159,159,1304,697,1366,768,8-29-2022,9-57-30,57,depth_duration_stimuli/001447_2014-06-19_17-00-32_260595134347_rgbf000082-resize_5/001447_2014-06-19_17-00-32_260595134347_rgbf000082-resize_5-target.png,125,4.13775,5,2580,125,feet,jsons/VE125_randls_29.json,518481,1563352,60,Woman
57,638287,DepthScenes,duration_manipulation_targetAtFixation,jsons/VE125_randls_29.json,http://54.235.29.9/FacialAge/BNav_EC2/DepthDuration/v2_depth_duration_MTurk/v2_DepthDuration_HTML.html#159,159,1304,697,1366,768,8-29-2022,9-57-30,58,depth_duration_stimuli/000739_2014-06-08_18-45-58_260595134347_rgbf000068-resize_1/000739_2014-06-08_18-45-58_260595134347_rgbf000068-resize_1-target.png,125,3.534,7,2487,121,feet,jsons/VE125_randls_29.json,518481,1563352,60,Woman
58,638287,DepthScenes,duration_manipulation_targetAtFixation,jsons/VE125_randls_29.json,http://54.235.29.9/FacialAge/BNav_EC2/DepthDuration/v2_depth_duration_MTurk/v2_DepthDuration_HTML.html#159,159,1304,697,1366,768,8-29-2022,9-57-30,59,depth_duration_stimuli/000734_2014-06-08_17-39-11_260595134347_rgbf000128-resize_2/000734_2014-06-08_17-39-11_260595134347_rgbf000128-resize_2-target.png,125,4.098,6,2662,123,feet,jsons/VE125_randls_29.json,518481,1563352,60,Woman
59,638287,DepthScenes,duration_manipulation_targetAtFixation,jsons/VE125_randls_29.json,http://54.235.29.9/FacialAge/BNav_EC2/DepthDuration/v2_depth_duration_MTurk/v2_DepthDuration_HTML.html#159,159,1304,697,1366,768,8-29-2022,9-57-30,60,depth_duration_stimuli/002663_2014-06-13_15-50-26_094959634447_rgbf000075-resize_1/002663_2014-06-13_15-50-26_094959634447_rgbf000075-resize_1-target.png,125,4.7495,6,2491,128,feet,jsons/VE125_randls_29.json,518481,1563352,60,Woman
60,638287,DepthScenes,duration_manipulation_targetAtFixation,jsons/VE125_randls_29.json,http://54.235.29.9/FacialAge/BNav_EC2/DepthDuration/v2_depth_duration_MTurk/v2_DepthDuration_HTML.html#159,159,1304,697,1366,768,8-29-2022,9-57-30,61,depth_duration_stimuli/000409_2014-06-04_19-23-33_260595134347_rgbf000067-resize_0/000409_2014-06-04_19-23-33_260595134347_rgbf000067-resize_0-target.png,125,3.7335,6,2172,125,feet,jsons/VE125_randls_29.json,518481,1563352,60,Woman
61,638287,DepthScenes,duration_manipulation_targetAtFixation,jsons/VE125_randls_29.json,http://54.235.29.9/FacialAge/BNav_EC2/DepthDuration/v2_depth_duration_MTurk/v2_DepthDuration_HTML.html#159,159,1304,697,1366,768,8-29-2022,9-57-30,62,depth_duration_stimuli/001810_2014-06-26_20-51-35_260595134347_rgbf000040-resize_3/001810_2014-06-26_20-51-35_260595134347_rgbf000040-resize_3-target.png,125,2.2525,3,2662,118,feet,jsons/VE125_randls_29.json,518481,1563352,60,Woman
62,638287,DepthScenes,duration_manipulation_targetAtFixation,jsons/VE125_randls_29.json,http://54.235.29.9/FacialAge/BNav_EC2/DepthDuration/v2_depth_duration_MTurk/v2_DepthDuration_HTML.html#159,159,1304,697,1366,768,8-29-2022,9-57-30,63,depth_duration_stimuli/003010_2014-06-15_12-54-35_094959634447_rgbf000112-resize_0/003010_2014-06-15_12-54-35_094959634447_rgbf000112-resize_0-target.png,125,3.1185,7,2662,137,feet,jsons/VE125_randls_29.json,518481,1563352,60,Woman
63,638287,DepthScenes,duration_manipulation_targetAtFixation,jsons/VE125_randls_29.json,http://54.235.29.9/FacialAge/BNav_EC2/DepthDuration/v2_depth_duration_MTurk/v2_DepthDuration_HTML.html#159,159,1304,697,1366,768,8-29-2022,9-57-30,64,depth_duration_stimuli/001133_2014-06-17_14-49-16_260595134347_rgbf000100-resize_0/001133_2014-06-17_14-49-16_260595134347_rgbf000100-resize_0-target.png,125,4.2115,7,2709,124,feet,jsons/VE125_randls_29.json,518481,1563352,60,Woman
64,638287,DepthScenes,duration_manipulation_targetAtFixation,jsons/VE125_randls_29.json,http://54.235.29.9/FacialAge/BNav_EC2/DepthDuration/v2_depth_duration_MTurk/v2_DepthDuration_HTML.html#159,159,1304,697,1366,768,8-29-2022,9-57-30,65,depth_duration_stimuli/001132_2014-06-17_14-48-54_260595134347_rgbf000100-resize_2/001132_2014-06-17_14-48-54_260595134347_rgbf000100-resize_2-target.png,125,3.753,6,2448,119,feet,jsons/VE125_randls_29.json,518481,1563352,60,Woman
65,638287,DepthScenes,duration_manipulation_targetAtFixation,jsons/VE125_randls_29.json,http://54.235.29.9/FacialAge/BNav_EC2/DepthDuration/v2_depth_duration_MTurk/v2_DepthDuration_HTML.html#159,159,1304,697,1366,768,8-29-2022,9-57-30,66,depth_duration_stimuli/001222_2014-06-17_16-24-06_260595134347_rgbf000073-resize_0/001222_2014-06-17_16-24-06_260595134347_rgbf000073-resize-original.jpg,125,1.4385,0,3731,129,feet,jsons/VE125_randls_29.json,518481,1563352,60,Woman
66,638287,DepthScenes,duration_manipulation_targetAtFixation,jsons/VE125_randls_29.json,http://54.235.29.9/FacialAge/BNav_EC2/DepthDuration/v2_depth_duration_MTurk/v2_DepthDuration_HTML.html#159,159,1304,697,1366,768,8-29-2022,9-57-30,67,depth_duration_stimuli/002600_2014-06-24_14-27-04_094959634447_rgbf000074-resize_2/002600_2014-06-24_14-27-04_094959634447_rgbf000074-resize_2-target.png,125,2.7575,4,3105,129,feet,jsons/VE125_randls_29.json,518481,1563352,60,Woman
67,638287,DepthScenes,duration_manipulation_targetAtFixation,jsons/VE125_randls_29.json,http://54.235.29.9/FacialAge/BNav_EC2/DepthDuration/v2_depth_duration_MTurk/v2_DepthDuration_HTML.html#159,159,1304,697,1366,768,8-29-2022,9-57-30,68,depth_duration_stimuli/003228_2014-05-14_13-42-35_094959634447_rgbf000101-resize_1/003228_2014-05-14_13-42-35_094959634447_rgbf000101-resize_1-target.png,125,1.9680000000000002,3,2420,122,feet,jsons/VE125_randls_29.json,518481,1563352,60,Woman
68,638287,DepthScenes,duration_manipulation_targetAtFixation,jsons/VE125_randls_29.json,http://54.235.29.9/FacialAge/BNav_EC2/DepthDuration/v2_depth_duration_MTurk/v2_DepthDuration_HTML.html#159,159,1304,697,1366,768,8-29-2022,9-57-30,69,depth_duration_stimuli/001417_2014-06-19_16-25-36_260595134347_rgbf000115-resize_5/001417_2014-06-19_16-25-36_260595134347_rgbf000115-resize_5-target.png,125,4.6255,5,3043,117,feet,jsons/VE125_randls_29.json,518481,1563352,60,Woman
69,638287,DepthScenes,duration_manipulation_targetAtFixation,jsons/VE125_randls_29.json,http://54.235.29.9/FacialAge/BNav_EC2/DepthDuration/v2_depth_duration_MTurk/v2_DepthDuration_HTML.html#159,159,1304,697,1366,768,8-29-2022,9-57-30,70,depth_duration_stimuli/003081_2014-06-15_15-19-16_094959634447_rgbf000150-resize_1/003081_2014-06-15_15-19-16_094959634447_rgbf000150-resize_1-target.png,125,3.9125,5,2154,122,feet,jsons/VE125_randls_29.json,518481,1563352,60,Woman
70,638287,DepthScenes,duration_manipulation_targetAtFixation,jsons/VE125_randls_29.json,http://54.235.29.9/FacialAge/BNav_EC2/DepthDuration/v2_depth_duration_MTurk/v2_DepthDuration_HTML.html#159,159,1304,697,1366,768,8-29-2022,9-57-30,71,depth_duration_stimuli/002905_2014-06-03_18-04-43_094959634447_rgbf000151-resize_2/002905_2014-06-03_18-04-43_094959634447_rgbf000151-resize_2-target.png,125,2.0295,4,2966,114,feet,jsons/VE125_randls_29.json,518481,1563352,60,Woman
71,638287,DepthScenes,duration_manipulation_targetAtFixation,jsons/VE125_randls_29.json,http://54.235.29.9/FacialAge/BNav_EC2/DepthDuration/v2_depth_duration_MTurk/v2_DepthDuration_HTML.html#159,159,1304,697,1366,768,8-29-2022,9-57-30,72,depth_duration_stimuli/003423_2014-05-21_10-23-26_094959634447_rgbf002665-resize_2/003423_2014-05-21_10-23-26_094959634447_rgbf002665-resize_2-target.png,125,3.2575,5,3159,128,feet,jsons/VE125_randls_29.json,518481,1563352,60,Woman
72,638287,DepthScenes,duration_manipulation_targetAtFixation,jsons/VE125_randls_29.json,http://54.235.29.9/FacialAge/BNav_EC2/DepthDuration/v2_depth_duration_MTurk/v2_DepthDuration_HTML.html#159,159,1304,697,1366,768,8-29-2022,9-57-30,73,depth_duration_stimuli/000436_2014-06-09_22-25-11_260595134347_rgbf000137-resize_1/000436_2014-06-09_22-25-11_260595134347_rgbf000137-resize_1-target.png,125,4.0705,7,2366,117,feet,jsons/VE125_randls_29.json,518481,1563352,60,Woman
73,638287,DepthScenes,duration_manipulation_targetAtFixation,jsons/VE125_randls_29.json,http://54.235.29.9/FacialAge/BNav_EC2/DepthDuration/v2_depth_duration_MTurk/v2_DepthDuration_HTML.html#159,159,1304,697,1366,768,8-29-2022,9-57-30,74,depth_duration_stimuli/002444_2014-06-28_20-32-08_260595134347_rgbf000027-resize_0/002444_2014-06-28_20-32-08_260595134347_rgbf000027-resize_0-target.png,125,4.388999999999999,7,2080,121,feet,jsons/VE125_randls_29.json,518481,1563352,60,Woman
74,638287,DepthScenes,duration_manipulation_targetAtFixation,jsons/VE125_randls_29.json,http://54.235.29.9/FacialAge/BNav_EC2/DepthDuration/v2_depth_duration_MTurk/v2_DepthDuration_HTML.html#159,159,1304,697,1366,768,8-29-2022,9-57-30,75,depth_duration_stimuli/002989_2014-06-15_12-25-03_094959634447_rgbf000150-resize_3/002989_2014-06-15_12-25-03_094959634447_rgbf000150-resize_3-target.png,125,4.1975,7,2191,120,feet,jsons/VE125_randls_29.json,518481,1563352,60,Woman
75,638287,DepthScenes,duration_manipulation_targetAtFixation,jsons/VE125_randls_29.json,http://54.235.29.9/FacialAge/BNav_EC2/DepthDuration/v2_depth_duration_MTurk/v2_DepthDuration_HTML.html#159,159,1304,697,1366,768,8-29-2022,9-57-30,76,depth_duration_stimuli/000866_2014-06-09_20-45-42_260595134347_rgbf000139-resize_1/000866_2014-06-09_20-45-42_260595134347_rgbf000139-resize_1-target.png,125,3.2155,6,2332,108,feet,jsons/VE125_randls_29.json,518481,1563352,60,Woman
76,638287,DepthScenes,duration_manipulation_targetAtFixation,jsons/VE125_randls_29.json,http://54.235.29.9/FacialAge/BNav_EC2/DepthDuration/v2_depth_duration_MTurk/v2_DepthDuration_HTML.html#159,159,1304,697,1366,768,8-29-2022,9-57-30,77,depth_duration_stimuli/003292_2014-05-14_21-53-49_094959634447_rgbf000100-resize_2/003292_2014-05-14_21-53-49_094959634447_rgbf000100-resize_2-target.png,125,3.4815,4,2379,121,feet,jsons/VE125_randls_29.json,518481,1563352,60,Woman
77,638287,DepthScenes,duration_manipulation_targetAtFixation,jsons/VE125_randls_29.json,http://54.235.29.9/FacialAge/BNav_EC2/DepthDuration/v2_depth_duration_MTurk/v2_DepthDuration_HTML.html#159,159,1304,697,1366,768,8-29-2022,9-57-30,78,depth_duration_stimuli/002639_2014-06-24_14-51-37_094959634447_rgbf000074-resize_4/002639_2014-06-24_14-51-37_094959634447_rgbf000074-resize_4-target.png,125,4.0375,5,2343,108,feet,jsons/VE125_randls_29.json,518481,1563352,60,Woman
78,638287,DepthScenes,duration_manipulation_targetAtFixation,jsons/VE125_randls_29.json,http://54.235.29.9/FacialAge/BNav_EC2/DepthDuration/v2_depth_duration_MTurk/v2_DepthDuration_HTML.html#159,159,1304,697,1366,768,8-29-2022,9-57-30,79,depth_duration_stimuli/002725_2014-06-22_11-47-51_094959634447_rgbf000070-resize_1/002725_2014-06-22_11-47-51_094959634447_rgbf000070-resize_1-target.png,125,2.195,5,2222,124,feet,jsons/VE125_randls_29.json,518481,1563352,60,Woman
79,638287,DepthScenes,duration_manipulation_targetAtFixation,jsons/VE125_randls_29.json,http://54.235.29.9/FacialAge/BNav_EC2/DepthDuration/v2_depth_duration_MTurk/v2_DepthDuration_HTML.html#159,159,1304,697,1366,768,8-29-2022,9-57-30,80,depth_duration_stimuli/002344_2014-06-28_20-06-29_260595134347_rgbf000030-resize_1/002344_2014-06-28_20-06-29_260595134347_rgbf000030-resize_1-target.png,125,1.5795,3,2469,126,feet,jsons/VE125_randls_29.json,518481,1563352,60,Woman
80,638287,DepthScenes,duration_manipulation_targetAtFixation,jsons/VE125_randls_29.json,http://54.235.29.9/FacialAge/BNav_EC2/DepthDuration/v2_depth_duration_MTurk/v2_DepthDuration_HTML.html#159,159,1304,697,1366,768,8-29-2022,9-57-30,81,depth_duration_stimuli/000736_2014-06-08_18-24-15_260595134347_rgbf000206-resize_3/000736_2014-06-08_18-24-15_260595134347_rgbf000206-resize_3-target.png,125,3.515,4,2404,125,feet,jsons/VE125_randls_29.json,518481,1563352,60,Woman
81,638287,DepthScenes,duration_manipulation_targetAtFixation,jsons/VE125_randls_29.json,http://54.235.29.9/FacialAge/BNav_EC2/DepthDuration/v2_depth_duration_MTurk/v2_DepthDuration_HTML.html#159,159,1304,697,1366,768,8-29-2022,9-57-30,82,depth_duration_stimuli/000137_2014-05-20_17-04-49_260595134347_rgbf000120-resize_1/000137_2014-05-20_17-04-49_260595134347_rgbf000120-resize_1-target.png,125,3.786,5,2407,116,feet,jsons/VE125_randls_29.json,518481,1563352,60,Woman
82,638287,DepthScenes,duration_manipulation_targetAtFixation,jsons/VE125_randls_29.json,http://54.235.29.9/FacialAge/BNav_EC2/DepthDuration/v2_depth_duration_MTurk/v2_DepthDuration_HTML.html#159,159,1304,697,1366,768,8-29-2022,9-57-30,83,depth_duration_stimuli/002748_2014-06-22_19-07-22_094959634447_rgbf000078-resize_1/002748_2014-06-22_19-07-22_094959634447_rgbf000078-resize_1-target.png,125,4.6705,7,5147,131,feet,jsons/VE125_randls_29.json,518481,1563352,60,Woman
83,638287,DepthScenes,duration_manipulation_targetAtFixation,jsons/VE125_randls_29.json,http://54.235.29.9/FacialAge/BNav_EC2/DepthDuration/v2_depth_duration_MTurk/v2_DepthDuration_HTML.html#159,159,1304,697,1366,768,8-29-2022,9-57-30,84,depth_duration_stimuli/002995_2014-06-15_12-31-26_094959634447_rgbf000150-resize_1/002995_2014-06-15_12-31-26_094959634447_rgbf000150-resize_1-target.png,125,3.8360000000000003,7,2153,111,feet,jsons/VE125_randls_29.json,518481,1563352,60,Woman
84,638287,DepthScenes,duration_manipulation_targetAtFixation,jsons/VE125_randls_29.json,http://54.235.29.9/FacialAge/BNav_EC2/DepthDuration/v2_depth_duration_MTurk/v2_DepthDuration_HTML.html#159,159,1304,697,1366,768,8-29-2022,9-57-30,85,depth_duration_stimuli/000773_2014-06-08_22-24-54_260595134347_rgbf000093-resize_1/000773_2014-06-08_22-24-54_260595134347_rgbf000093-resize_1-target.png,125,4.973,8,2374,123,feet,jsons/VE125_randls_29.json,518481,1563352,60,Woman
85,638287,DepthScenes,duration_manipulation_targetAtFixation,jsons/VE125_randls_29.json,http://54.235.29.9/FacialAge/BNav_EC2/DepthDuration/v2_depth_duration_MTurk/v2_DepthDuration_HTML.html#159,159,1304,697,1366,768,8-29-2022,9-57-30,86,depth_duration_stimuli/002414_2014-06-28_20-24-58_260595134347_rgbf000067-resize_4/002414_2014-06-28_20-24-58_260595134347_rgbf000067-resize_4-target.png,125,4.363,6,2561,122,feet,jsons/VE125_randls_29.json,518481,1563352,60,Woman
86,638287,DepthScenes,duration_manipulation_targetAtFixation,jsons/VE125_randls_29.json,http://54.235.29.9/FacialAge/BNav_EC2/DepthDuration/v2_depth_duration_MTurk/v2_DepthDuration_HTML.html#159,159,1304,697,1366,768,8-29-2022,9-57-30,87,depth_duration_stimuli/000469_2014-06-09_19-42-10_260595134347_rgbf000081-resize_1/000469_2014-06-09_19-42-10_260595134347_rgbf000081-resize_1-target.png,125,1.652,3,2498,124,feet,jsons/VE125_randls_29.json,518481,1563352,60,Woman
87,638287,DepthScenes,duration_manipulation_targetAtFixation,jsons/VE125_randls_29.json,http://54.235.29.9/FacialAge/BNav_EC2/DepthDuration/v2_depth_duration_MTurk/v2_DepthDuration_HTML.html#159,159,1304,697,1366,768,8-29-2022,9-57-30,88,depth_duration_stimuli/000483_2014-06-09_20-41-45_260595134347_rgbf000116-resize_4/000483_2014-06-09_20-41-45_260595134347_rgbf000116-resize_4-target.png,125,1.337,3,2082,120,feet,jsons/VE125_randls_29.json,518481,1563352,60,Woman
88,638287,DepthScenes,duration_manipulation_targetAtFixation,jsons/VE125_randls_29.json,http://54.235.29.9/FacialAge/BNav_EC2/DepthDuration/v2_depth_duration_MTurk/v2_DepthDuration_HTML.html#159,159,1304,697,1366,768,8-29-2022,9-57-30,89,depth_duration_stimuli/000506_2014-06-08_23-21-00_260595134347_rgbf000070-resize_7/000506_2014-06-08_23-21-00_260595134347_rgbf000070-resize_7-target.png,125,4.0585,5,2327,116,feet,jsons/VE125_randls_29.json,518481,1563352,60,Woman
89,638287,DepthScenes,duration_manipulation_targetAtFixation,jsons/VE125_randls_29.json,http://54.235.29.9/FacialAge/BNav_EC2/DepthDuration/v2_depth_duration_MTurk/v2_DepthDuration_HTML.html#159,159,1304,697,1366,768,8-29-2022,9-57-30,90,depth_duration_stimuli/003079_2014-06-15_15-18-20_094959634447_rgbf000152-resize_8/003079_2014-06-15_15-18-20_094959634447_rgbf000152-resize_8-target.png,125,2.8775,7,2363,134,feet,jsons/VE125_randls_29.json,518481,1563352,60,Woman
90,638287,DepthScenes,duration_manipulation_targetAtFixation,jsons/VE125_randls_29.json,http://54.235.29.9/FacialAge/BNav_EC2/DepthDuration/v2_depth_duration_MTurk/v2_DepthDuration_HTML.html#159,159,1304,697,1366,768,8-29-2022,9-57-30,91,depth_duration_stimuli/002043_2014-06-24_20-29-38_260595134347_rgbf000039-resize_4/002043_2014-06-24_20-29-38_260595134347_rgbf000039-resize_4-target.png,125,2.8435,6,4632,125,feet,jsons/VE125_randls_29.json,518481,1563352,60,Woman
91,638287,DepthScenes,duration_manipulation_targetAtFixation,jsons/VE125_randls_29.json,http://54.235.29.9/FacialAge/BNav_EC2/DepthDuration/v2_depth_duration_MTurk/v2_DepthDuration_HTML.html#159,159,1304,697,1366,768,8-29-2022,9-57-30,92,depth_duration_stimuli/003048_2014-06-15_13-49-43_094959634447_rgbf000150-resize_1/003048_2014-06-15_13-49-43_094959634447_rgbf000150-resize_1-target.png,125,4.0035,7,2492,137,feet,jsons/VE125_randls_29.json,518481,1563352,60,Woman
92,638287,DepthScenes,duration_manipulation_targetAtFixation,jsons/VE125_randls_29.json,http://54.235.29.9/FacialAge/BNav_EC2/DepthDuration/v2_depth_duration_MTurk/v2_DepthDuration_HTML.html#159,159,1304,697,1366,768,8-29-2022,9-57-30,93,depth_duration_stimuli/002784_2014-06-22_19-26-30_094959634447_rgbf000083-resize_3/002784_2014-06-22_19-26-30_094959634447_rgbf000083-resize_3-target.png,125,1.8046666666667,4,2288,118,feet,jsons/VE125_randls_29.json,518481,1563352,60,Woman
93,638287,DepthScenes,duration_manipulation_targetAtFixation,jsons/VE125_randls_29.json,http://54.235.29.9/FacialAge/BNav_EC2/DepthDuration/v2_depth_duration_MTurk/v2_DepthDuration_HTML.html#159,159,1304,697,1366,768,8-29-2022,9-57-30,94,depth_duration_stimuli/001100_2014-06-15_17-46-26_260595134347_rgbf000225-resize_2/001100_2014-06-15_17-46-26_260595134347_rgbf000225-resize_2-target.png,125,2.24,3,2363,132,feet,jsons/VE125_randls_29.json,518481,1563352,60,Woman
94,638287,DepthScenes,duration_manipulation_targetAtFixation,jsons/VE125_randls_29.json,http://54.235.29.9/FacialAge/BNav_EC2/DepthDuration/v2_depth_duration_MTurk/v2_DepthDuration_HTML.html#159,159,1304,697,1366,768,8-29-2022,9-57-30,95,depth_duration_stimuli/001244_2014-06-17_16-47-45_260595134347_rgbf000030-resize_4/001244_2014-06-17_16-47-45_260595134347_rgbf000030-resize_4-target.png,125,2.0425,4,2355,126,feet,jsons/VE125_randls_29.json,518481,1563352,60,Woman
95,638287,DepthScenes,duration_manipulation_targetAtFixation,jsons/VE125_randls_29.json,http://54.235.29.9/FacialAge/BNav_EC2/DepthDuration/v2_depth_duration_MTurk/v2_DepthDuration_HTML.html#159,159,1304,697,1366,768,8-29-2022,9-57-30,96,depth_duration_stimuli/003495_2014-05-21_16-01-51_094959634447_rgbf000100-resize_3/003495_2014-05-21_16-01-51_094959634447_rgbf000100-resize_3-target.png,125,1.6255,2,2137,120,feet,jsons/VE125_randls_29.json,518481,1563352,60,Woman
96,638287,DepthScenes,duration_manipulation_targetAtFixation,jsons/VE125_randls_29.json,http://54.235.29.9/FacialAge/BNav_EC2/DepthDuration/v2_depth_duration_MTurk/v2_DepthDuration_HTML.html#159,159,1304,697,1366,768,8-29-2022,9-57-30,97,depth_duration_stimuli/001056_2014-06-08_18-46-44_260595134347_rgbf000068-resize_0/001056_2014-06-08_18-46-44_260595134347_rgbf000068-resize_0-target.png,125,2.6625,4,2427,133,feet,jsons/VE125_randls_29.json,518481,1563352,60,Woman
97,638287,DepthScenes,duration_manipulation_targetAtFixation,jsons/VE125_randls_29.json,http://54.235.29.9/FacialAge/BNav_EC2/DepthDuration/v2_depth_duration_MTurk/v2_DepthDuration_HTML.html#159,159,1304,697,1366,768,8-29-2022,9-57-30,98,depth_duration_stimuli/002199_2014-06-28_18-33-56_260595134347_rgbf000074-resize_0/002199_2014-06-28_18-33-56_260595134347_rgbf000074-resize_0-target.png,125,1.996,3,2463,115,feet,jsons/VE125_randls_29.json,518481,1563352,60,Woman
98,638287,DepthScenes,duration_manipulation_targetAtFixation,jsons/VE125_randls_29.json,http://54.235.29.9/FacialAge/BNav_EC2/DepthDuration/v2_depth_duration_MTurk/v2_DepthDuration_HTML.html#159,159,1304,697,1366,768,8-29-2022,9-57-30,99,depth_duration_stimuli/001540_2014-06-20_17-01-05_260595134347_rgbf000086-resize_2/001540_2014-06-20_17-01-05_260595134347_rgbf000086-resize-original.jpg,125,1.459,0,3580,125,feet,jsons/VE125_randls_29.json,518481,1563352,60,Woman
99,638287,DepthScenes,duration_manipulation_targetAtFixation,jsons/VE125_randls_29.json,http://54.235.29.9/FacialAge/BNav_EC2/DepthDuration/v2_depth_duration_MTurk/v2_DepthDuration_HTML.html#159,159,1304,697,1366,768,8-29-2022,9-57-30,100,depth_duration_stimuli/001570_2014-06-20_17-21-09_260595134347_rgbf000135-resize_4/001570_2014-06-20_17-21-09_260595134347_rgbf000135-resize_4-target.png,125,4.467,6,2534,128,feet,jsons/VE125_randls_29.json,518481,1563352,60,Woman
100,638287,DepthScenes,duration_manipulation_targetAtFixation,jsons/VE125_randls_29.json,http://54.235.29.9/FacialAge/BNav_EC2/DepthDuration/v2_depth_duration_MTurk/v2_DepthDuration_HTML.html#159,159,1304,697,1366,768,8-29-2022,9-57-30,101,depth_duration_stimuli/001392_2014-06-19_16-07-59_260595134347_rgbf000046-resize_1/001392_2014-06-19_16-07-59_260595134347_rgbf000046-resize_1-target.png,125,4.135,7,2350,124,feet,jsons/VE125_randls_29.json,518481,1563352,60,Woman
101,638287,DepthScenes,duration_manipulation_targetAtFixation,jsons/VE125_randls_29.json,http://54.235.29.9/FacialAge/BNav_EC2/DepthDuration/v2_depth_duration_MTurk/v2_DepthDuration_HTML.html#159,159,1304,697,1366,768,8-29-2022,9-57-30,102,depth_duration_stimuli/000929_2014-06-09_16-33-19_260595134347_rgbf000139-resize_0/000929_2014-06-09_16-33-19_260595134347_rgbf000139-resize_0-target.png,125,2.8680000000000003,4,2403,124,feet,jsons/VE125_randls_29.json,518481,1563352,60,Woman
102,638287,DepthScenes,duration_manipulation_targetAtFixation,jsons/VE125_randls_29.json,http://54.235.29.9/FacialAge/BNav_EC2/DepthDuration/v2_depth_duration_MTurk/v2_DepthDuration_HTML.html#159,159,1304,697,1366,768,8-29-2022,9-57-30,103,depth_duration_stimuli/000457_2014-06-08_16-52-43_260595134347_rgbf000199-resize_1/000457_2014-06-08_16-52-43_260595134347_rgbf000199-resize_1-target.png,125,3.6489999999999996,6,2387,139,feet,jsons/VE125_randls_29.json,518481,1563352,60,Woman
103,638287,DepthScenes,duration_manipulation_targetAtFixation,jsons/VE125_randls_29.json,http://54.235.29.9/FacialAge/BNav_EC2/DepthDuration/v2_depth_duration_MTurk/v2_DepthDuration_HTML.html#159,159,1304,697,1366,768,8-29-2022,9-57-30,104,depth_duration_stimuli/000522_2014-06-08_13-35-06_260595134347_rgbf000244-resize_1/000522_2014-06-08_13-35-06_260595134347_rgbf000244-resize_1-target.png,125,2.3715,3,2208,110,feet,jsons/VE125_randls_29.json,518481,1563352,60,Woman
104,638287,DepthScenes,duration_manipulation_targetAtFixation,jsons/VE125_randls_29.json,http://54.235.29.9/FacialAge/BNav_EC2/DepthDuration/v2_depth_duration_MTurk/v2_DepthDuration_HTML.html#159,159,1304,697,1366,768,8-29-2022,9-57-30,105,depth_duration_stimuli/002949_2014-06-26_15-57-42_094959634447_rgbf000079-resize_1/002949_2014-06-26_15-57-42_094959634447_rgbf000079-resize_1-target.png,125,1.8915,4,2071,126,feet,jsons/VE125_randls_29.json,518481,1563352,60,Woman
105,638287,DepthScenes,duration_manipulation_targetAtFixation,jsons/VE125_randls_29.json,http://54.235.29.9/FacialAge/BNav_EC2/DepthDuration/v2_depth_duration_MTurk/v2_DepthDuration_HTML.html#159,159,1304,697,1366,768,8-29-2022,9-57-30,106,depth_duration_stimuli/003070_2014-06-15_14-58-27_094959634447_rgbf000150-resize_3/003070_2014-06-15_14-58-27_094959634447_rgbf000150-resize_3-target.png,125,2.9415,5,2403,125,feet,jsons/VE125_randls_29.json,518481,1563352,60,Woman
106,638287,DepthScenes,duration_manipulation_targetAtFixation,jsons/VE125_randls_29.json,http://54.235.29.9/FacialAge/BNav_EC2/DepthDuration/v2_depth_duration_MTurk/v2_DepthDuration_HTML.html#159,159,1304,697,1366,768,8-29-2022,9-57-30,107,depth_duration_stimuli/000943_2014-06-09_19-31-07_260595134347_rgbf000128-resize_1/000943_2014-06-09_19-31-07_260595134347_rgbf000128-resize_1-target.png,125,1.9765,3,2231,123,feet,jsons/VE125_randls_29.json,518481,1563352,60,Woman
107,638287,DepthScenes,duration_manipulation_targetAtFixation,jsons/VE125_randls_29.json,http://54.235.29.9/FacialAge/BNav_EC2/DepthDuration/v2_depth_duration_MTurk/v2_DepthDuration_HTML.html#159,159,1304,697,1366,768,8-29-2022,9-57-30,108,depth_duration_stimuli/001199_2014-06-17_16-03-48_260595134347_rgbf000077-resize_0/001199_2014-06-17_16-03-48_260595134347_rgbf000077-resize_0-target.png,125,3.4375,5,2533,123,feet,jsons/VE125_randls_29.json,518481,1563352,60,Woman
108,638287,DepthScenes,duration_manipulation_targetAtFixation,jsons/VE125_randls_29.json,http://54.235.29.9/FacialAge/BNav_EC2/DepthDuration/v2_depth_duration_MTurk/v2_DepthDuration_HTML.html#159,159,1304,697,1366,768,8-29-2022,9-57-30,109,depth_duration_stimuli/000502_2014-06-08_23-02-32_260595134347_rgbf000063-resize_4/000502_2014-06-08_23-02-32_260595134347_rgbf000063-resize_4-target.png,125,2.431,3,6380,134,feet,jsons/VE125_randls_29.json,518481,1563352,60,Woman
109,638287,DepthScenes,duration_manipulation_targetAtFixation,jsons/VE125_randls_29.json,http://54.235.29.9/FacialAge/BNav_EC2/DepthDuration/v2_depth_duration_MTurk/v2_DepthDuration_HTML.html#159,159,1304,697,1366,768,8-29-2022,9-57-30,110,depth_duration_stimuli/001167_2014-06-17_15-38-07_260595134347_rgbf000108-resize_0/001167_2014-06-17_15-38-07_260595134347_rgbf000108-resize_0-target.png,125,1.8505,3,2139,125,feet,jsons/VE125_randls_29.json,518481,1563352,60,Woman
110,638287,DepthScenes,duration_manipulation_targetAtFixation,jsons/VE125_randls_29.json,http://54.235.29.9/FacialAge/BNav_EC2/DepthDuration/v2_depth_duration_MTurk/v2_DepthDuration_HTML.html#159,159,1304,697,1366,768,8-29-2022,9-57-30,111,depth_duration_stimuli/003587_2014-05-23_16-48-02_094959634447_rgbf002384-resize_2/003587_2014-05-23_16-48-02_094959634447_rgbf002384-resize_2-target.png,125,1.357,2,2210,118,feet,jsons/VE125_randls_29.json,518481,1563352,60,Woman
111,638287,DepthScenes,duration_manipulation_targetAtFixation,jsons/VE125_randls_29.json,http://54.235.29.9/FacialAge/BNav_EC2/DepthDuration/v2_depth_duration_MTurk/v2_DepthDuration_HTML.html#159,159,1304,697,1366,768,8-29-2022,9-57-30,112,depth_duration_stimuli/000758_2014-06-08_22-05-08_260595134347_rgbf000085-resize_0/000758_2014-06-08_22-05-08_260595134347_rgbf000085-resize_0-target.png,125,3.3810000000000002,4,2522,125,feet,jsons/VE125_randls_29.json,518481,1563352,60,Woman
112,638287,DepthScenes,duration_manipulation_targetAtFixation,jsons/VE125_randls_29.json,http://54.235.29.9/FacialAge/BNav_EC2/DepthDuration/v2_depth_duration_MTurk/v2_DepthDuration_HTML.html#159,159,1304,697,1366,768,8-29-2022,9-57-30,113,depth_duration_stimuli/000854_2014-06-09_19-43-13_260595134347_rgbf000066-resize_0/000854_2014-06-09_19-43-13_260595134347_rgbf000066-resize_0-target.png,125,3.068,3,2119,130,feet,jsons/VE125_randls_29.json,518481,1563352,60,Woman
113,638287,DepthScenes,duration_manipulation_targetAtFixation,jsons/VE125_randls_29.json,http://54.235.29.9/FacialAge/BNav_EC2/DepthDuration/v2_depth_duration_MTurk/v2_DepthDuration_HTML.html#159,159,1304,697,1366,768,8-29-2022,9-57-30,114,depth_duration_stimuli/001806_2014-06-26_20-50-20_260595134347_rgbf000091-resize_1/001806_2014-06-26_20-50-20_260595134347_rgbf000091-resize_1-target.png,125,2.7305,3,2159,123,feet,jsons/VE125_randls_29.json,518481,1563352,60,Woman
114,638287,DepthScenes,duration_manipulation_targetAtFixation,jsons/VE125_randls_29.json,http://54.235.29.9/FacialAge/BNav_EC2/DepthDuration/v2_depth_duration_MTurk/v2_DepthDuration_HTML.html#159,159,1304,697,1366,768,8-29-2022,9-57-30,115,depth_duration_stimuli/001617_2014-06-20_11-35-32_260595134347_rgbf000066-resize_1/001617_2014-06-20_11-35-32_260595134347_rgbf000066-resize_1-target.png,125,3.7910000000000004,5,2440,155,feet,jsons/VE125_randls_29.json,518481,1563352,60,Woman
115,638287,DepthScenes,duration_manipulation_targetAtFixation,jsons/VE125_randls_29.json,http://54.235.29.9/FacialAge/BNav_EC2/DepthDuration/v2_depth_duration_MTurk/v2_DepthDuration_HTML.html#159,159,1304,697,1366,768,8-29-2022,9-57-30,116,depth_duration_stimuli/001170_2014-06-17_15-43-44_260595134347_rgbf000096-resize_6/001170_2014-06-17_15-43-44_260595134347_rgbf000096-resize-original.jpg,125,1.1909999999999998,0,3848,132,feet,jsons/VE125_randls_29.json,518481,1563352,60,Woman
116,638287,DepthScenes,duration_manipulation_targetAtFixation,jsons/VE125_randls_29.json,http://54.235.29.9/FacialAge/BNav_EC2/DepthDuration/v2_depth_duration_MTurk/v2_DepthDuration_HTML.html#159,159,1304,697,1366,768,8-29-2022,9-57-30,117,depth_duration_stimuli/002375_2014-06-28_20-13-44_260595134347_rgbf000032-resize_1/002375_2014-06-28_20-13-44_260595134347_rgbf000032-resize_1-target.png,125,4.0175,4,2795,123,feet,jsons/VE125_randls_29.json,518481,1563352,60,Woman
117,638287,DepthScenes,duration_manipulation_targetAtFixation,jsons/VE125_randls_29.json,http://54.235.29.9/FacialAge/BNav_EC2/DepthDuration/v2_depth_duration_MTurk/v2_DepthDuration_HTML.html#159,159,1304,697,1366,768,8-29-2022,9-57-30,118,depth_duration_stimuli/002657_2014-06-13_15-29-54_094959634447_rgbf000150-resize_1/002657_2014-06-13_15-29-54_094959634447_rgbf000150-resize_1-target.png,125,4.919,6,2132,125,feet,jsons/VE125_randls_29.json,518481,1563352,60,Woman
118,638287,DepthScenes,duration_manipulation_targetAtFixation,jsons/VE125_randls_29.json,http://54.235.29.9/FacialAge/BNav_EC2/DepthDuration/v2_depth_duration_MTurk/v2_DepthDuration_HTML.html#159,159,1304,697,1366,768,8-29-2022,9-57-30,119,depth_duration_stimuli/002964_2014-06-08_17-46-11_094959634447_rgbf000091-resize_4/002964_2014-06-08_17-46-11_094959634447_rgbf000091-resize_4-target.png,125,1.6909999999999998,3,2291,123,feet,jsons/VE125_randls_29.json,518481,1563352,60,Woman
119,638287,DepthScenes,duration_manipulation_targetAtFixation,jsons/VE125_randls_29.json,http://54.235.29.9/FacialAge/BNav_EC2/DepthDuration/v2_depth_duration_MTurk/v2_DepthDuration_HTML.html#159,159,1304,697,1366,768,8-29-2022,9-57-30,120,depth_duration_stimuli/002136_2014-06-25_21-18-03_260595134347_rgbf000109-resize_3/002136_2014-06-25_21-18-03_260595134347_rgbf000109-resize_3-target.png,125,1.9569999999999999,4,3008,126,feet,jsons/VE125_randls_29.json,518481,1563352,60,Woman
120,638287,DepthScenes,duration_manipulation_targetAtFixation,jsons/VE125_randls_29.json,http://54.235.29.9/FacialAge/BNav_EC2/DepthDuration/v2_depth_duration_MTurk/v2_DepthDuration_HTML.html#159,159,1304,697,1366,768,8-29-2022,9-57-30,121,depth_duration_stimuli/002509_2014-06-24_13-19-22_094959634447_rgbf000077-resize_0/002509_2014-06-24_13-19-22_094959634447_rgbf000077-resize_0-target.png,125,1.3065,3,2439,133,feet,jsons/VE125_randls_29.json,518481,1563352,60,Woman
121,638287,DepthScenes,duration_manipulation_targetAtFixation,jsons/VE125_randls_29.json,http://54.235.29.9/FacialAge/BNav_EC2/DepthDuration/v2_depth_duration_MTurk/v2_DepthDuration_HTML.html#159,159,1304,697,1366,768,8-29-2022,9-57-30,122,depth_duration_stimuli/003338_2014-05-20_11-01-23_094959634447_rgbf000051-resize_6/003338_2014-05-20_11-01-23_094959634447_rgbf000051-resize_6-target.png,125,1.693,3,1995,99,feet,jsons/VE125_randls_29.json,518481,1563352,60,Woman
122,638287,DepthScenes,duration_manipulation_targetAtFixation,jsons/VE125_randls_29.json,http://54.235.29.9/FacialAge/BNav_EC2/DepthDuration/v2_depth_duration_MTurk/v2_DepthDuration_HTML.html#159,159,1304,697,1366,768,8-29-2022,9-57-30,123,depth_duration_stimuli/001449_2014-06-19_17-01-27_260595134347_rgbf000116-resize_2/001449_2014-06-19_17-01-27_260595134347_rgbf000116-resize_2-target.png,125,3.452,5,2185,96,feet,jsons/VE125_randls_29.json,518481,1563352,60,Woman
123,638287,DepthScenes,duration_manipulation_targetAtFixation,jsons/VE125_randls_29.json,http://54.235.29.9/FacialAge/BNav_EC2/DepthDuration/v2_depth_duration_MTurk/v2_DepthDuration_HTML.html#159,159,1304,697,1366,768,8-29-2022,9-57-30,124,depth_duration_stimuli/001450_2014-06-19_17-02-03_260595134347_rgbf000203-resize_4/001450_2014-06-19_17-02-03_260595134347_rgbf000203-resize_4-target.png,125,4.0106666666667,7,2725,122,feet,jsons/VE125_randls_29.json,518481,1563352,60,Woman
124,638287,DepthScenes,duration_manipulation_targetAtFixation,jsons/VE125_randls_29.json,http://54.235.29.9/FacialAge/BNav_EC2/DepthDuration/v2_depth_duration_MTurk/v2_DepthDuration_HTML.html#159,159,1304,697,1366,768,8-29-2022,9-57-30,125,depth_duration_stimuli/002630_2014-06-24_14-47-50_094959634447_rgbf000055-resize_1/002630_2014-06-24_14-47-50_094959634447_rgbf000055-resize_1-target.png,125,3.0095,7,2778,110,feet,jsons/VE125_randls_29.json,518481,1563352,60,Woman
125,638287,DepthScenes,duration_manipulation_targetAtFixation,jsons/VE125_randls_29.json,http://54.235.29.9/FacialAge/BNav_EC2/DepthDuration/v2_depth_duration_MTurk/v2_DepthDuration_HTML.html#159,159,1304,697,1366,768,8-29-2022,9-57-30,126,depth_duration_stimuli/002758_2014-06-22_19-11-20_094959634447_rgbf000128-resize_1/002758_2014-06-22_19-11-20_094959634447_rgbf000128-resize_1-target.png,125,2.555,4,3825,120,feet,jsons/VE125_randls_29.json,518481,1563352,60,Woman
126,638287,DepthScenes,duration_manipulation_targetAtFixation,jsons/VE125_randls_29.json,http://54.235.29.9/FacialAge/BNav_EC2/DepthDuration/v2_depth_duration_MTurk/v2_DepthDuration_HTML.html#159,159,1304,697,1366,768,8-29-2022,9-57-30,127,depth_duration_stimuli/000682_2014-06-08_23-14-58_260595134347_rgbf000041-resize_5/000682_2014-06-08_23-14-58_260595134347_rgbf000041-resize_5-target.png,125,2.7239999999999998,5,2217,128,feet,jsons/VE125_randls_29.json,518481,1563352,60,Woman
127,638287,DepthScenes,duration_manipulation_targetAtFixation,jsons/VE125_randls_29.json,http://54.235.29.9/FacialAge/BNav_EC2/DepthDuration/v2_depth_duration_MTurk/v2_DepthDuration_HTML.html#159,159,1304,697,1366,768,8-29-2022,9-57-30,128,depth_duration_stimuli/001650_2014-06-20_12-09-00_260595134347_rgbf000087-resize_3/001650_2014-06-20_12-09-00_260595134347_rgbf000087-resize_3-target.png,125,1.9505,3,2465,127,feet,jsons/VE125_randls_29.json,518481,1563352,60,Woman
128,638287,DepthScenes,duration_manipulation_targetAtFixation,jsons/VE125_randls_29.json,http://54.235.29.9/FacialAge/BNav_EC2/DepthDuration/v2_depth_duration_MTurk/v2_DepthDuration_HTML.html#159,159,1304,697,1366,768,8-29-2022,9-57-30,129,depth_duration_stimuli/001059_2014-06-08_21-53-27_260595134347_rgbf000061-resize_4/001059_2014-06-08_21-53-27_260595134347_rgbf000061-resize_4-target.png,125,2.4185,4,2878,126,feet,jsons/VE125_randls_29.json,518481,1563352,60,Woman
129,638287,DepthScenes,duration_manipulation_targetAtFixation,jsons/VE125_randls_29.json,http://54.235.29.9/FacialAge/BNav_EC2/DepthDuration/v2_depth_duration_MTurk/v2_DepthDuration_HTML.html#159,159,1304,697,1366,768,8-29-2022,9-57-30,130,depth_duration_stimuli/001032_2014-06-08_13-23-17_260595134347_rgbf000021-resize_3/001032_2014-06-08_13-23-17_260595134347_rgbf000021-resize_3-target.png,125,3.2725,4,2637,124,feet,jsons/VE125_randls_29.json,518481,1563352,60,Woman
130,638287,DepthScenes,duration_manipulation_targetAtFixation,jsons/VE125_randls_29.json,http://54.235.29.9/FacialAge/BNav_EC2/DepthDuration/v2_depth_duration_MTurk/v2_DepthDuration_HTML.html#159,159,1304,697,1366,768,8-29-2022,9-57-30,131,depth_duration_stimuli/002118_2014-06-25_20-32-08_260595134347_rgbf000078-resize_1/002118_2014-06-25_20-32-08_260595134347_rgbf000078-resize_1-target.png,125,2.6460000000000004,4,2102,134,feet,jsons/VE125_randls_29.json,518481,1563352,60,Woman
131,638287,DepthScenes,duration_manipulation_targetAtFixation,jsons/VE125_randls_29.json,http://54.235.29.9/FacialAge/BNav_EC2/DepthDuration/v2_depth_duration_MTurk/v2_DepthDuration_HTML.html#159,159,1304,697,1366,768,8-29-2022,9-57-30,132,depth_duration_stimuli/001516_2014-06-20_16-25-09_260595134347_rgbf000076-resize_2/001516_2014-06-20_16-25-09_260595134347_rgbf000076-resize_2-target.png,125,1.7445,5,2001,130,feet,jsons/VE125_randls_29.json,518481,1563352,60,Woman
132,638287,DepthScenes,duration_manipulation_targetAtFixation,jsons/VE125_randls_29.json,http://54.235.29.9/FacialAge/BNav_EC2/DepthDuration/v2_depth_duration_MTurk/v2_DepthDuration_HTML.html#159,159,1304,697,1366,768,8-29-2022,9-57-30,133,depth_duration_stimuli/002279_2014-06-28_18-55-32_260595134347_rgbf000040-resize_5/002279_2014-06-28_18-55-32_260595134347_rgbf000040-resize_5-target.png,125,1.5043333333333,3,2508,123,feet,jsons/VE125_randls_29.json,518481,1563352,60,Woman
133,638287,DepthScenes,duration_manipulation_targetAtFixation,jsons/VE125_randls_29.json,http://54.235.29.9/FacialAge/BNav_EC2/DepthDuration/v2_depth_duration_MTurk/v2_DepthDuration_HTML.html#159,159,1304,697,1366,768,8-29-2022,9-57-30,134,depth_duration_stimuli/000635_2014-06-08_16-38-42_260595134347_rgbf000106-resize_1/000635_2014-06-08_16-38-42_260595134347_rgbf000106-resize_1-target.png,125,2.074,4,2388,132,feet,jsons/VE125_randls_29.json,518481,1563352,60,Woman
134,638287,DepthScenes,duration_manipulation_targetAtFixation,jsons/VE125_randls_29.json,http://54.235.29.9/FacialAge/BNav_EC2/DepthDuration/v2_depth_duration_MTurk/v2_DepthDuration_HTML.html#159,159,1304,697,1366,768,8-29-2022,9-57-30,135,depth_duration_stimuli/002072_2014-06-24_21-48-06_260595134347_rgbf000115-resize_0/002072_2014-06-24_21-48-06_260595134347_rgbf000115-resize-original.jpg,125,4.702,3,2929,120,feet,jsons/VE125_randls_29.json,518481,1563352,60,Woman
135,638287,DepthScenes,duration_manipulation_targetAtFixation,jsons/VE125_randls_29.json,http://54.235.29.9/FacialAge/BNav_EC2/DepthDuration/v2_depth_duration_MTurk/v2_DepthDuration_HTML.html#159,159,1304,697,1366,768,8-29-2022,9-57-30,136,depth_duration_stimuli/000878_2014-06-08_22-52-45_260595134347_rgbf000045-resize_2/000878_2014-06-08_22-52-45_260595134347_rgbf000045-resize_2-target.png,125,2.092,4,2077,132,feet,jsons/VE125_randls_29.json,518481,1563352,60,Woman
136,638287,DepthScenes,duration_manipulation_targetAtFixation,jsons/VE125_randls_29.json,http://54.235.29.9/FacialAge/BNav_EC2/DepthDuration/v2_depth_duration_MTurk/v2_DepthDuration_HTML.html#159,159,1304,697,1366,768,8-29-2022,9-57-30,137,depth_duration_stimuli/002953_2014-06-08_17-32-18_094959634447_rgbf000059-resize_5/002953_2014-06-08_17-32-18_094959634447_rgbf000059-resize_5-target.png,125,1.551,3,2561,118,feet,jsons/VE125_randls_29.json,518481,1563352,60,Woman
137,638287,DepthScenes,duration_manipulation_targetAtFixation,jsons/VE125_randls_29.json,http://54.235.29.9/FacialAge/BNav_EC2/DepthDuration/v2_depth_duration_MTurk/v2_DepthDuration_HTML.html#159,159,1304,697,1366,768,8-29-2022,9-57-30,138,depth_duration_stimuli/001110_2014-06-15_17-25-28_260595134347_rgbf000150-resize_1/001110_2014-06-15_17-25-28_260595134347_rgbf000150-resize_1-target.png,125,1.7115,4,2368,135,feet,jsons/VE125_randls_29.json,518481,1563352,60,Woman
138,638287,DepthScenes,duration_manipulation_targetAtFixation,jsons/VE125_randls_29.json,http://54.235.29.9/FacialAge/BNav_EC2/DepthDuration/v2_depth_duration_MTurk/v2_DepthDuration_HTML.html#159,159,1304,697,1366,768,8-29-2022,9-57-30,139,depth_duration_stimuli/000927_2014-06-09_16-32-30_260595134347_rgbf000123-resize_3/000927_2014-06-09_16-32-30_260595134347_rgbf000123-resize_3-target.png,125,2.6785,5,2245,130,feet,jsons/VE125_randls_29.json,518481,1563352,60,Woman
139,638287,DepthScenes,duration_manipulation_targetAtFixation,jsons/VE125_randls_29.json,http://54.235.29.9/FacialAge/BNav_EC2/DepthDuration/v2_depth_duration_MTurk/v2_DepthDuration_HTML.html#159,159,1304,697,1366,768,8-29-2022,9-57-30,140,depth_duration_stimuli/000642_2014-06-08_16-59-25_260595134347_rgbf000098-resize_2/000642_2014-06-08_16-59-25_260595134347_rgbf000098-resize_2-target.png,125,2.8815,5,2215,124,feet,jsons/VE125_randls_29.json,518481,1563352,60,Woman
140,638287,DepthScenes,duration_manipulation_targetAtFixation,jsons/VE125_randls_29.json,http://54.235.29.9/FacialAge/BNav_EC2/DepthDuration/v2_depth_duration_MTurk/v2_DepthDuration_HTML.html#159,159,1304,697,1366,768,8-29-2022,9-57-30,141,depth_duration_stimuli/002425_2014-06-28_20-27-29_260595134347_rgbf000031-resize_8/002425_2014-06-28_20-27-29_260595134347_rgbf000031-resize_8-target.png,125,3.8960000000000004,6,2583,123,feet,jsons/VE125_randls_29.json,518481,1563352,60,Woman
141,638287,DepthScenes,duration_manipulation_targetAtFixation,jsons/VE125_randls_29.json,http://54.235.29.9/FacialAge/BNav_EC2/DepthDuration/v2_depth_duration_MTurk/v2_DepthDuration_HTML.html#159,159,1304,697,1366,768,8-29-2022,9-57-30,142,depth_duration_stimuli/000009_2014-05-26_14-32-05_260595134347_rgbf000034-resize_3/000009_2014-05-26_14-32-05_260595134347_rgbf000034-resize_3-target.png,125,3.8715,8,2560,125,feet,jsons/VE125_randls_29.json,518481,1563352,60,Woman
142,638287,DepthScenes,duration_manipulation_targetAtFixation,jsons/VE125_randls_29.json,http://54.235.29.9/FacialAge/BNav_EC2/DepthDuration/v2_depth_duration_MTurk/v2_DepthDuration_HTML.html#159,159,1304,697,1366,768,8-29-2022,9-57-30,143,depth_duration_stimuli/001828_2014-06-26_21-40-03_260595134347_rgbf000024-resize_0/001828_2014-06-26_21-40-03_260595134347_rgbf000024-resize_0-target.png,125,4.8260000000000005,7,3629,122,feet,jsons/VE125_randls_29.json,518481,1563352,60,Woman
143,638287,DepthScenes,duration_manipulation_targetAtFixation,jsons/VE125_randls_29.json,http://54.235.29.9/FacialAge/BNav_EC2/DepthDuration/v2_depth_duration_MTurk/v2_DepthDuration_HTML.html#159,159,1304,697,1366,768,8-29-2022,9-57-30,144,depth_duration_stimuli/002272_2014-06-28_18-53-56_260595134347_rgbf000067-resize_2/002272_2014-06-28_18-53-56_260595134347_rgbf000067-resize_2-target.png,125,1.138,4,2527,119,feet,jsons/VE125_randls_29.json,518481,1563352,60,Woman
144,638287,DepthScenes,duration_manipulation_targetAtFixation,jsons/VE125_randls_29.json,http://54.235.29.9/FacialAge/BNav_EC2/DepthDuration/v2_depth_duration_MTurk/v2_DepthDuration_HTML.html#159,159,1304,697,1366,768,8-29-2022,9-57-30,145,depth_duration_stimuli/001571_2014-06-20_17-21-32_260595134347_rgbf000089-resize_1/001571_2014-06-20_17-21-32_260595134347_rgbf000089-resize_1-target.png,125,1.86,4,2274,143,feet,jsons/VE125_randls_29.json,518481,1563352,60,Woman
145,638287,DepthScenes,duration_manipulation_targetAtFixation,jsons/VE125_randls_29.json,http://54.235.29.9/FacialAge/BNav_EC2/DepthDuration/v2_depth_duration_MTurk/v2_DepthDuration_HTML.html#159,159,1304,697,1366,768,8-29-2022,9-57-30,146,depth_duration_stimuli/001498_2014-06-19_17-45-14_260595134347_rgbf000129-resize_4/001498_2014-06-19_17-45-14_260595134347_rgbf000129-resize-original.jpg,125,1.4075,0,3357,120,feet,jsons/VE125_randls_29.json,518481,1563352,60,Woman
146,638287,DepthScenes,duration_manipulation_targetAtFixation,jsons/VE125_randls_29.json,http://54.235.29.9/FacialAge/BNav_EC2/DepthDuration/v2_depth_duration_MTurk/v2_DepthDuration_HTML.html#159,159,1304,697,1366,768,8-29-2022,9-57-30,147,depth_duration_stimuli/002153_2014-06-25_21-27-18_260595134347_rgbf000038-resize_5/002153_2014-06-25_21-27-18_260595134347_rgbf000038-resize_5-target.png,125,2.505,3,2836,119,feet,jsons/VE125_randls_29.json,518481,1563352,60,Woman
147,638287,DepthScenes,duration_manipulation_targetAtFixation,jsons/VE125_randls_29.json,http://54.235.29.9/FacialAge/BNav_EC2/DepthDuration/v2_depth_duration_MTurk/v2_DepthDuration_HTML.html#159,159,1304,697,1366,768,8-29-2022,9-57-30,148,depth_duration_stimuli/002660_2014-06-13_15-44-18_094959634447_rgbf001878-resize_2/002660_2014-06-13_15-44-18_094959634447_rgbf001878-resize_2-target.png,125,3.576,6,2378,114,feet,jsons/VE125_randls_29.json,518481,1563352,60,Woman
148,638287,DepthScenes,duration_manipulation_targetAtFixation,jsons/VE125_randls_29.json,http://54.235.29.9/FacialAge/BNav_EC2/DepthDuration/v2_depth_duration_MTurk/v2_DepthDuration_HTML.html#159,159,1304,697,1366,768,8-29-2022,9-57-30,149,depth_duration_stimuli/002763_2014-06-22_19-13-10_094959634447_rgbf000075-resize_4/002763_2014-06-22_19-13-10_094959634447_rgbf000075-resize_4-target.png,125,1.68375,5,2524,123,feet,jsons/VE125_randls_29.json,518481,1563352,60,Woman
149,638287,DepthScenes,duration_manipulation_targetAtFixation,jsons/VE125_randls_29.json,http://54.235.29.9/FacialAge/BNav_EC2/DepthDuration/v2_depth_duration_MTurk/v2_DepthDuration_HTML.html#159,159,1304,697,1366,768,8-29-2022,9-57-30,150,depth_duration_stimuli/002209_2014-06-28_18-36-10_260595134347_rgbf000051-resize_1/002209_2014-06-28_18-36-10_260595134347_rgbf000051-resize_1-target.png,125,2.057,4,2762,119,feet,jsons/VE125_randls_29.json,518481,1563352,60,Woman
150,638287,DepthScenes,duration_manipulation_targetAtFixation,jsons/VE125_randls_29.json,http://54.235.29.9/FacialAge/BNav_EC2/DepthDuration/v2_depth_duration_MTurk/v2_DepthDuration_HTML.html#159,159,1304,697,1366,768,8-29-2022,9-57-30,151,depth_duration_stimuli/000810_2014-06-08_17-20-01_260595134347_rgbf000105-resize_0/000810_2014-06-08_17-20-01_260595134347_rgbf000105-resize_0-target.png,125,1.4865,5,2671,133,feet,jsons/VE125_randls_29.json,518481,1563352,60,Woman
151,638287,DepthScenes,duration_manipulation_targetAtFixation,jsons/VE125_randls_29.json,http://54.235.29.9/FacialAge/BNav_EC2/DepthDuration/v2_depth_duration_MTurk/v2_DepthDuration_HTML.html#159,159,1304,697,1366,768,8-29-2022,9-57-30,152,depth_duration_stimuli/001214_2014-06-17_16-13-55_260595134347_rgbf000111-resize_0/001214_2014-06-17_16-13-55_260595134347_rgbf000111-resize_0-target.png,125,2.6505,4,2341,120,feet,jsons/VE125_randls_29.json,518481,1563352,60,Woman
152,638287,DepthScenes,duration_manipulation_targetAtFixation,jsons/VE125_randls_29.json,http://54.235.29.9/FacialAge/BNav_EC2/DepthDuration/v2_depth_duration_MTurk/v2_DepthDuration_HTML.html#159,159,1304,697,1366,768,8-29-2022,9-57-30,153,depth_duration_stimuli/000470_2014-06-09_19-42-40_260595134347_rgbf000094-resize_1/000470_2014-06-09_19-42-40_260595134347_rgbf000094-resize_1-target.png,125,1.831,3,2108,119,feet,jsons/VE125_randls_29.json,518481,1563352,60,Woman
153,638287,DepthScenes,duration_manipulation_targetAtFixation,jsons/VE125_randls_29.json,http://54.235.29.9/FacialAge/BNav_EC2/DepthDuration/v2_depth_duration_MTurk/v2_DepthDuration_HTML.html#159,159,1304,697,1366,768,8-29-2022,9-57-30,154,depth_duration_stimuli/000109_2014-05-14_23-41-52_260595134347_rgbf000035-resize_9/000109_2014-05-14_23-41-52_260595134347_rgbf000035-resize_9-target.png,125,1.3545,2,2052,123,feet,jsons/VE125_randls_29.json,518481,1563352,60,Woman
154,638287,DepthScenes,duration_manipulation_targetAtFixation,jsons/VE125_randls_29.json,http://54.235.29.9/FacialAge/BNav_EC2/DepthDuration/v2_depth_duration_MTurk/v2_DepthDuration_HTML.html#159,159,1304,697,1366,768,8-29-2022,9-57-30,155,depth_duration_stimuli/001016_2014-06-09_16-16-10_260595134347_rgbf000112-resize_5/001016_2014-06-09_16-16-10_260595134347_rgbf000112-resize_5-target.png,125,1.6565,4,2672,126,feet,jsons/VE125_randls_29.json,518481,1563352,60,Woman
155,638287,DepthScenes,duration_manipulation_targetAtFixation,jsons/VE125_randls_29.json,http://54.235.29.9/FacialAge/BNav_EC2/DepthDuration/v2_depth_duration_MTurk/v2_DepthDuration_HTML.html#159,159,1304,697,1366,768,8-29-2022,9-57-30,156,depth_duration_stimuli/002340_2014-06-28_20-05-46_260595134347_rgbf000113-resize_0/002340_2014-06-28_20-05-46_260595134347_rgbf000113-resize_0-target.png,125,2.4735,6,2255,123,feet,jsons/VE125_randls_29.json,518481,1563352,60,Woman
156,638287,DepthScenes,duration_manipulation_targetAtFixation,jsons/VE125_randls_29.json,http://54.235.29.9/FacialAge/BNav_EC2/DepthDuration/v2_depth_duration_MTurk/v2_DepthDuration_HTML.html#159,159,1304,697,1366,768,8-29-2022,9-57-30,157,depth_duration_stimuli/001011_2014-06-08_23-18-54_260595134347_rgbf000044-resize_4/001011_2014-06-08_23-18-54_260595134347_rgbf000044-resize_4-target.png,125,2.4730000000000003,5,2187,118,feet,jsons/VE125_randls_29.json,518481,1563352,60,Woman
157,638287,DepthScenes,duration_manipulation_targetAtFixation,jsons/VE125_randls_29.json,http://54.235.29.9/FacialAge/BNav_EC2/DepthDuration/v2_depth_duration_MTurk/v2_DepthDuration_HTML.html#159,159,1304,697,1366,768,8-29-2022,9-57-30,158,depth_duration_stimuli/002875_2014-06-01_15-19-00_094959634447_rgbf000151-resize_1/002875_2014-06-01_15-19-00_094959634447_rgbf000151-resize_1-target.png,125,1.9675,5,1981,118,feet,jsons/VE125_randls_29.json,518481,1563352,60,Woman
158,638287,DepthScenes,duration_manipulation_targetAtFixation,jsons/VE125_randls_29.json,http://54.235.29.9/FacialAge/BNav_EC2/DepthDuration/v2_depth_duration_MTurk/v2_DepthDuration_HTML.html#159,159,1304,697,1366,768,8-29-2022,9-57-30,159,depth_duration_stimuli/001150_2014-06-17_15-27-34_260595134347_rgbf000108-resize_2/001150_2014-06-17_15-27-34_260595134347_rgbf000108-resize_2-target.png,125,4.0325,6,2238,113,feet,jsons/VE125_randls_29.json,518481,1563352,60,Woman
159,638287,DepthScenes,duration_manipulation_targetAtFixation,jsons/VE125_randls_29.json,http://54.235.29.9/FacialAge/BNav_EC2/DepthDuration/v2_depth_duration_MTurk/v2_DepthDuration_HTML.html#159,159,1304,697,1366,768,8-29-2022,9-57-30,160,depth_duration_stimuli/000665_2014-06-09_20-42-35_260595134347_rgbf000110-resize_1/000665_2014-06-09_20-42-35_260595134347_rgbf000110-resize_1-target.png,125,3.057,6,2111,125,feet,jsons/VE125_randls_29.json,518481,1563352,60,Woman
160,638287,DepthScenes,duration_manipulation_targetAtFixation,jsons/VE125_randls_29.json,http://54.235.29.9/FacialAge/BNav_EC2/DepthDuration/v2_depth_duration_MTurk/v2_DepthDuration_HTML.html#159,159,1304,697,1366,768,8-29-2022,9-57-30,161,depth_duration_stimuli/000788_2014-06-08_22-34-36_260595134347_rgbf000131-resize_1/000788_2014-06-08_22-34-36_260595134347_rgbf000131-resize_1-target.png,125,3.359,6,2036,116,feet,jsons/VE125_randls_29.json,518481,1563352,60,Woman
161,638287,DepthScenes,duration_manipulation_targetAtFixation,jsons/VE125_randls_29.json,http://54.235.29.9/FacialAge/BNav_EC2/DepthDuration/v2_depth_duration_MTurk/v2_DepthDuration_HTML.html#159,159,1304,697,1366,768,8-29-2022,9-57-30,162,depth_duration_stimuli/001235_2014-06-17_16-37-36_260595134347_rgbf000084-resize_4/001235_2014-06-17_16-37-36_260595134347_rgbf000084-resize_4-target.png,125,3.6605,7,2811,116,feet,jsons/VE125_randls_29.json,518481,1563352,60,Woman
162,638287,DepthScenes,duration_manipulation_targetAtFixation,jsons/VE125_randls_29.json,http://54.235.29.9/FacialAge/BNav_EC2/DepthDuration/v2_depth_duration_MTurk/v2_DepthDuration_HTML.html#159,159,1304,697,1366,768,8-29-2022,9-57-30,163,depth_duration_stimuli/001808_2014-06-26_20-50-58_260595134347_rgbf000029-resize_1/001808_2014-06-26_20-50-58_260595134347_rgbf000029-resize_1-target.png,125,4.249,7,2174,125,feet,jsons/VE125_randls_29.json,518481,1563352,60,Woman
163,638287,DepthScenes,duration_manipulation_targetAtFixation,jsons/VE125_randls_29.json,http://54.235.29.9/FacialAge/BNav_EC2/DepthDuration/v2_depth_duration_MTurk/v2_DepthDuration_HTML.html#159,159,1304,697,1366,768,8-29-2022,9-57-30,164,depth_duration_stimuli/001815_2014-06-26_20-52-55_260595134347_rgbf000020-resize_0/001815_2014-06-26_20-52-55_260595134347_rgbf000020-resize_0-target.png,125,3.3865,7,2203,112,feet,jsons/VE125_randls_29.json,518481,1563352,60,Woman
