,subjID,experimentName,versionName,sequenceName,url,selected_row,windowWidth,windowHeight,screenWidth,screenHeight,startDate,startTime,trial,stimulus,duration,actual_depth,depth_estimate,trial_RT,log_sceneDuration,unitSelection,seq_filepath,experimentTime,totalTime,age,gender
0,639264,DepthScenes,duration_manipulation_targetAtFixation,jsons/v1_VE250_randls_18_rotated.json,http://54.235.29.9/FacialAge/BNav_EC2/DepthDuration/v2_depth_duration_MTurk/v2_DepthDuration_HTML.html#81,81,1536,703,1536,864,8-20-2022,11-36-32,1,depth_duration_stimuli/000109_2014-05-14_23-41-52_260595134347_rgbf000035-resize_9/000109_2014-05-14_23-41-52_260595134347_rgbf000035-resize_9-target.png,250,1.3545,5,4321,250,feet,jsons/v1_VE250_randls_18_rotated.json,422790,525364,37,Man
1,639264,DepthScenes,duration_manipulation_targetAtFixation,jsons/v1_VE250_randls_18_rotated.json,http://54.235.29.9/FacialAge/BNav_EC2/DepthDuration/v2_depth_duration_MTurk/v2_DepthDuration_HTML.html#81,81,1536,703,1536,864,8-20-2022,11-36-32,2,depth_duration_stimuli/000470_2014-06-09_19-42-40_260595134347_rgbf000094-resize_1/000470_2014-06-09_19-42-40_260595134347_rgbf000094-resize_1-target.png,250,1.831,7,3618,246,feet,jsons/v1_VE250_randls_18_rotated.json,422790,525364,37,Man
2,639264,DepthScenes,duration_manipulation_targetAtFixation,jsons/v1_VE250_randls_18_rotated.json,http://54.235.29.9/FacialAge/BNav_EC2/DepthDuration/v2_depth_duration_MTurk/v2_DepthDuration_HTML.html#81,81,1536,703,1536,864,8-20-2022,11-36-32,3,depth_duration_stimuli/002639_2014-06-24_14-51-37_094959634447_rgbf000074-resize_4/002639_2014-06-24_14-51-37_094959634447_rgbf000074-resize_4-target.png,250,4.0375,11,3588,263,feet,jsons/v1_VE250_randls_18_rotated.json,422790,525364,37,Man
3,639264,DepthScenes,duration_manipulation_targetAtFixation,jsons/v1_VE250_randls_18_rotated.json,http://54.235.29.9/FacialAge/BNav_EC2/DepthDuration/v2_depth_duration_MTurk/v2_DepthDuration_HTML.html#81,81,1536,703,1536,864,8-20-2022,11-36-32,4,depth_duration_stimuli/003292_2014-05-14_21-53-49_094959634447_rgbf000100-resize_2/003292_2014-05-14_21-53-49_094959634447_rgbf000100-resize_2-target.png,250,3.4815,9,3471,251,feet,jsons/v1_VE250_randls_18_rotated.json,422790,525364,37,Man
4,639264,DepthScenes,duration_manipulation_targetAtFixation,jsons/v1_VE250_randls_18_rotated.json,http://54.235.29.9/FacialAge/BNav_EC2/DepthDuration/v2_depth_duration_MTurk/v2_DepthDuration_HTML.html#81,81,1536,703,1536,864,8-20-2022,11-36-32,5,depth_duration_stimuli/002209_2014-06-28_18-36-10_260595134347_rgbf000051-resize_1/002209_2014-06-28_18-36-10_260595134347_rgbf000051-resize_1-target.png,250,2.057,6,3402,240,feet,jsons/v1_VE250_randls_18_rotated.json,422790,525364,37,Man
5,639264,DepthScenes,duration_manipulation_targetAtFixation,jsons/v1_VE250_randls_18_rotated.json,http://54.235.29.9/FacialAge/BNav_EC2/DepthDuration/v2_depth_duration_MTurk/v2_DepthDuration_HTML.html#81,81,1536,703,1536,864,8-20-2022,11-36-32,6,depth_duration_stimuli/002763_2014-06-22_19-13-10_094959634447_rgbf000075-resize_4/002763_2014-06-22_19-13-10_094959634447_rgbf000075-resize_4-target.png,250,1.68375,6,2232,239,feet,jsons/v1_VE250_randls_18_rotated.json,422790,525364,37,Man
6,639264,DepthScenes,duration_manipulation_targetAtFixation,jsons/v1_VE250_randls_18_rotated.json,http://54.235.29.9/FacialAge/BNav_EC2/DepthDuration/v2_depth_duration_MTurk/v2_DepthDuration_HTML.html#81,81,1536,703,1536,864,8-20-2022,11-36-32,7,depth_duration_stimuli/000665_2014-06-09_20-42-35_260595134347_rgbf000110-resize_1/000665_2014-06-09_20-42-35_260595134347_rgbf000110-resize_1-target.png,250,3.057,10,4034,246,feet,jsons/v1_VE250_randls_18_rotated.json,422790,525364,37,Man
7,639264,DepthScenes,duration_manipulation_targetAtFixation,jsons/v1_VE250_randls_18_rotated.json,http://54.235.29.9/FacialAge/BNav_EC2/DepthDuration/v2_depth_duration_MTurk/v2_DepthDuration_HTML.html#81,81,1536,703,1536,864,8-20-2022,11-36-32,8,depth_duration_stimuli/001150_2014-06-17_15-27-34_260595134347_rgbf000108-resize_2/001150_2014-06-17_15-27-34_260595134347_rgbf000108-resize_2-target.png,250,4.0325,9,2720,235,feet,jsons/v1_VE250_randls_18_rotated.json,422790,525364,37,Man
8,639264,DepthScenes,duration_manipulation_targetAtFixation,jsons/v1_VE250_randls_18_rotated.json,http://54.235.29.9/FacialAge/BNav_EC2/DepthDuration/v2_depth_duration_MTurk/v2_DepthDuration_HTML.html#81,81,1536,703,1536,864,8-20-2022,11-36-32,9,depth_duration_stimuli/002875_2014-06-01_15-19-00_094959634447_rgbf000151-resize_1/002875_2014-06-01_15-19-00_094959634447_rgbf000151-resize_1-target.png,250,1.9675,8,2987,256,feet,jsons/v1_VE250_randls_18_rotated.json,422790,525364,37,Man
9,639264,DepthScenes,duration_manipulation_targetAtFixation,jsons/v1_VE250_randls_18_rotated.json,http://54.235.29.9/FacialAge/BNav_EC2/DepthDuration/v2_depth_duration_MTurk/v2_DepthDuration_HTML.html#81,81,1536,703,1536,864,8-20-2022,11-36-32,10,depth_duration_stimuli/001011_2014-06-08_23-18-54_260595134347_rgbf000044-resize_4/001011_2014-06-08_23-18-54_260595134347_rgbf000044-resize_4-target.png,250,2.4730000000000003,7,2274,252,feet,jsons/v1_VE250_randls_18_rotated.json,422790,525364,37,Man
10,639264,DepthScenes,duration_manipulation_targetAtFixation,jsons/v1_VE250_randls_18_rotated.json,http://54.235.29.9/FacialAge/BNav_EC2/DepthDuration/v2_depth_duration_MTurk/v2_DepthDuration_HTML.html#81,81,1536,703,1536,864,8-20-2022,11-36-32,11,depth_duration_stimuli/002103_2014-06-25_20-00-40_260595134347_rgbf000049-resize_0/002103_2014-06-25_20-00-40_260595134347_rgbf000049-resize_0-target.png,250,4.105,13,2529,253,feet,jsons/v1_VE250_randls_18_rotated.json,422790,525364,37,Man
11,639264,DepthScenes,duration_manipulation_targetAtFixation,jsons/v1_VE250_randls_18_rotated.json,http://54.235.29.9/FacialAge/BNav_EC2/DepthDuration/v2_depth_duration_MTurk/v2_DepthDuration_HTML.html#81,81,1536,703,1536,864,8-20-2022,11-36-32,12,depth_duration_stimuli/002039_2014-06-24_20-22-38_260595134347_rgbf000084-resize_1/002039_2014-06-24_20-22-38_260595134347_rgbf000084-resize_1-target.png,250,4.408,18,4856,245,feet,jsons/v1_VE250_randls_18_rotated.json,422790,525364,37,Man
12,639264,DepthScenes,duration_manipulation_targetAtFixation,jsons/v1_VE250_randls_18_rotated.json,http://54.235.29.9/FacialAge/BNav_EC2/DepthDuration/v2_depth_duration_MTurk/v2_DepthDuration_HTML.html#81,81,1536,703,1536,864,8-20-2022,11-36-32,13,depth_duration_stimuli/001136_2014-06-17_15-19-41_260595134347_rgbf000076-resize_3/001136_2014-06-17_15-19-41_260595134347_rgbf000076-resize_3-target.png,250,1.8655,4,2649,257,feet,jsons/v1_VE250_randls_18_rotated.json,422790,525364,37,Man
13,639264,DepthScenes,duration_manipulation_targetAtFixation,jsons/v1_VE250_randls_18_rotated.json,http://54.235.29.9/FacialAge/BNav_EC2/DepthDuration/v2_depth_duration_MTurk/v2_DepthDuration_HTML.html#81,81,1536,703,1536,864,8-20-2022,11-36-32,14,depth_duration_stimuli/001164_2014-06-17_15-35-46_260595134347_rgbf000085-resize_3/001164_2014-06-17_15-35-46_260595134347_rgbf000085-resize_3-target.png,250,2.354,6,1964,250,feet,jsons/v1_VE250_randls_18_rotated.json,422790,525364,37,Man
14,639264,DepthScenes,duration_manipulation_targetAtFixation,jsons/v1_VE250_randls_18_rotated.json,http://54.235.29.9/FacialAge/BNav_EC2/DepthDuration/v2_depth_duration_MTurk/v2_DepthDuration_HTML.html#81,81,1536,703,1536,864,8-20-2022,11-36-32,15,depth_duration_stimuli/003587_2014-05-23_16-48-02_094959634447_rgbf002384-resize_2/003587_2014-05-23_16-48-02_094959634447_rgbf002384-resize_2-target.png,250,1.357,1,1884,243,feet,jsons/v1_VE250_randls_18_rotated.json,422790,525364,37,Man
15,639264,DepthScenes,duration_manipulation_targetAtFixation,jsons/v1_VE250_randls_18_rotated.json,http://54.235.29.9/FacialAge/BNav_EC2/DepthDuration/v2_depth_duration_MTurk/v2_DepthDuration_HTML.html#81,81,1536,703,1536,864,8-20-2022,11-36-32,16,depth_duration_stimuli/001167_2014-06-17_15-38-07_260595134347_rgbf000108-resize_0/001167_2014-06-17_15-38-07_260595134347_rgbf000108-resize_0-target.png,250,1.8505,4,1825,248,feet,jsons/v1_VE250_randls_18_rotated.json,422790,525364,37,Man
16,639264,DepthScenes,duration_manipulation_targetAtFixation,jsons/v1_VE250_randls_18_rotated.json,http://54.235.29.9/FacialAge/BNav_EC2/DepthDuration/v2_depth_duration_MTurk/v2_DepthDuration_HTML.html#81,81,1536,703,1536,864,8-20-2022,11-36-32,17,depth_duration_stimuli/003495_2014-05-21_16-01-51_094959634447_rgbf000100-resize_3/003495_2014-05-21_16-01-51_094959634447_rgbf000100-resize_3-target.png,250,1.6255,3,1943,250,feet,jsons/v1_VE250_randls_18_rotated.json,422790,525364,37,Man
17,639264,DepthScenes,duration_manipulation_targetAtFixation,jsons/v1_VE250_randls_18_rotated.json,http://54.235.29.9/FacialAge/BNav_EC2/DepthDuration/v2_depth_duration_MTurk/v2_DepthDuration_HTML.html#81,81,1536,703,1536,864,8-20-2022,11-36-32,18,depth_duration_stimuli/001244_2014-06-17_16-47-45_260595134347_rgbf000030-resize_4/001244_2014-06-17_16-47-45_260595134347_rgbf000030-resize_4-target.png,250,2.0425,5,2088,250,feet,jsons/v1_VE250_randls_18_rotated.json,422790,525364,37,Man
18,639264,DepthScenes,duration_manipulation_targetAtFixation,jsons/v1_VE250_randls_18_rotated.json,http://54.235.29.9/FacialAge/BNav_EC2/DepthDuration/v2_depth_duration_MTurk/v2_DepthDuration_HTML.html#81,81,1536,703,1536,864,8-20-2022,11-36-32,19,depth_duration_stimuli/001498_2014-06-19_17-45-14_260595134347_rgbf000129-resize_4/001498_2014-06-19_17-45-14_260595134347_rgbf000129-resize-original.jpg,250,1.4075,0,1856,246,feet,jsons/v1_VE250_randls_18_rotated.json,422790,525364,37,Man
19,639264,DepthScenes,duration_manipulation_targetAtFixation,jsons/v1_VE250_randls_18_rotated.json,http://54.235.29.9/FacialAge/BNav_EC2/DepthDuration/v2_depth_duration_MTurk/v2_DepthDuration_HTML.html#81,81,1536,703,1536,864,8-20-2022,11-36-32,20,depth_duration_stimuli/002136_2014-06-25_21-18-03_260595134347_rgbf000109-resize_3/002136_2014-06-25_21-18-03_260595134347_rgbf000109-resize_3-target.png,250,1.9569999999999999,4,2617,249,feet,jsons/v1_VE250_randls_18_rotated.json,422790,525364,37,Man
20,639264,DepthScenes,duration_manipulation_targetAtFixation,jsons/v1_VE250_randls_18_rotated.json,http://54.235.29.9/FacialAge/BNav_EC2/DepthDuration/v2_depth_duration_MTurk/v2_DepthDuration_HTML.html#81,81,1536,703,1536,864,8-20-2022,11-36-32,21,depth_duration_stimuli/002964_2014-06-08_17-46-11_094959634447_rgbf000091-resize_4/002964_2014-06-08_17-46-11_094959634447_rgbf000091-resize_4-target.png,250,1.6909999999999998,3,1808,249,feet,jsons/v1_VE250_randls_18_rotated.json,422790,525364,37,Man
21,639264,DepthScenes,duration_manipulation_targetAtFixation,jsons/v1_VE250_randls_18_rotated.json,http://54.235.29.9/FacialAge/BNav_EC2/DepthDuration/v2_depth_duration_MTurk/v2_DepthDuration_HTML.html#81,81,1536,703,1536,864,8-20-2022,11-36-32,22,depth_duration_stimuli/001214_2014-06-17_16-13-55_260595134347_rgbf000111-resize_0/001214_2014-06-17_16-13-55_260595134347_rgbf000111-resize_0-target.png,250,2.6505,5,2815,248,feet,jsons/v1_VE250_randls_18_rotated.json,422790,525364,37,Man
22,639264,DepthScenes,duration_manipulation_targetAtFixation,jsons/v1_VE250_randls_18_rotated.json,http://54.235.29.9/FacialAge/BNav_EC2/DepthDuration/v2_depth_duration_MTurk/v2_DepthDuration_HTML.html#81,81,1536,703,1536,864,8-20-2022,11-36-32,23,depth_duration_stimuli/000810_2014-06-08_17-20-01_260595134347_rgbf000105-resize_0/000810_2014-06-08_17-20-01_260595134347_rgbf000105-resize_0-target.png,250,1.4865,4,2653,260,feet,jsons/v1_VE250_randls_18_rotated.json,422790,525364,37,Man
23,639264,DepthScenes,duration_manipulation_targetAtFixation,jsons/v1_VE250_randls_18_rotated.json,http://54.235.29.9/FacialAge/BNav_EC2/DepthDuration/v2_depth_duration_MTurk/v2_DepthDuration_HTML.html#81,81,1536,703,1536,864,8-20-2022,11-36-32,24,depth_duration_stimuli/000137_2014-05-20_17-04-49_260595134347_rgbf000120-resize_1/000137_2014-05-20_17-04-49_260595134347_rgbf000120-resize_1-target.png,250,3.786,11,2801,253,feet,jsons/v1_VE250_randls_18_rotated.json,422790,525364,37,Man
24,639264,DepthScenes,duration_manipulation_targetAtFixation,jsons/v1_VE250_randls_18_rotated.json,http://54.235.29.9/FacialAge/BNav_EC2/DepthDuration/v2_depth_duration_MTurk/v2_DepthDuration_HTML.html#81,81,1536,703,1536,864,8-20-2022,11-36-32,25,depth_duration_stimuli/000736_2014-06-08_18-24-15_260595134347_rgbf000206-resize_3/000736_2014-06-08_18-24-15_260595134347_rgbf000206-resize_3-target.png,250,3.515,9,3651,258,feet,jsons/v1_VE250_randls_18_rotated.json,422790,525364,37,Man
25,639264,DepthScenes,duration_manipulation_targetAtFixation,jsons/v1_VE250_randls_18_rotated.json,http://54.235.29.9/FacialAge/BNav_EC2/DepthDuration/v2_depth_duration_MTurk/v2_DepthDuration_HTML.html#81,81,1536,703,1536,864,8-20-2022,11-36-32,26,depth_duration_stimuli/001650_2014-06-20_12-09-00_260595134347_rgbf000087-resize_3/001650_2014-06-20_12-09-00_260595134347_rgbf000087-resize_3-target.png,250,1.9505,2,2101,246,feet,jsons/v1_VE250_randls_18_rotated.json,422790,525364,37,Man
26,639264,DepthScenes,duration_manipulation_targetAtFixation,jsons/v1_VE250_randls_18_rotated.json,http://54.235.29.9/FacialAge/BNav_EC2/DepthDuration/v2_depth_duration_MTurk/v2_DepthDuration_HTML.html#81,81,1536,703,1536,864,8-20-2022,11-36-32,27,depth_duration_stimuli/000682_2014-06-08_23-14-58_260595134347_rgbf000041-resize_5/000682_2014-06-08_23-14-58_260595134347_rgbf000041-resize_5-target.png,250,2.7239999999999998,11,2504,255,feet,jsons/v1_VE250_randls_18_rotated.json,422790,525364,37,Man
27,639264,DepthScenes,duration_manipulation_targetAtFixation,jsons/v1_VE250_randls_18_rotated.json,http://54.235.29.9/FacialAge/BNav_EC2/DepthDuration/v2_depth_duration_MTurk/v2_DepthDuration_HTML.html#81,81,1536,703,1536,864,8-20-2022,11-36-32,28,depth_duration_stimuli/003048_2014-06-15_13-49-43_094959634447_rgbf000150-resize_1/003048_2014-06-15_13-49-43_094959634447_rgbf000150-resize_1-target.png,250,4.0035,10,3297,244,feet,jsons/v1_VE250_randls_18_rotated.json,422790,525364,37,Man
28,639264,DepthScenes,duration_manipulation_targetAtFixation,jsons/v1_VE250_randls_18_rotated.json,http://54.235.29.9/FacialAge/BNav_EC2/DepthDuration/v2_depth_duration_MTurk/v2_DepthDuration_HTML.html#81,81,1536,703,1536,864,8-20-2022,11-36-32,29,depth_duration_stimuli/002043_2014-06-24_20-29-38_260595134347_rgbf000039-resize_4/002043_2014-06-24_20-29-38_260595134347_rgbf000039-resize_4-target.png,250,2.8435,8,2472,237,feet,jsons/v1_VE250_randls_18_rotated.json,422790,525364,37,Man
29,639264,DepthScenes,duration_manipulation_targetAtFixation,jsons/v1_VE250_randls_18_rotated.json,http://54.235.29.9/FacialAge/BNav_EC2/DepthDuration/v2_depth_duration_MTurk/v2_DepthDuration_HTML.html#81,81,1536,703,1536,864,8-20-2022,11-36-32,30,depth_duration_stimuli/002072_2014-06-24_21-48-06_260595134347_rgbf000115-resize_0/002072_2014-06-24_21-48-06_260595134347_rgbf000115-resize-original.jpg,250,4.702,0,1542,247,feet,jsons/v1_VE250_randls_18_rotated.json,422790,525364,37,Man
30,639264,DepthScenes,duration_manipulation_targetAtFixation,jsons/v1_VE250_randls_18_rotated.json,http://54.235.29.9/FacialAge/BNav_EC2/DepthDuration/v2_depth_duration_MTurk/v2_DepthDuration_HTML.html#81,81,1536,703,1536,864,8-20-2022,11-36-32,31,depth_duration_stimuli/002323_2014-06-28_20-01-54_260595134347_rgbf000051-resize_4/002323_2014-06-28_20-01-54_260595134347_rgbf000051-resize_4-target.png,250,3.7310000000000003,14,2525,246,feet,jsons/v1_VE250_randls_18_rotated.json,422790,525364,37,Man
31,639264,DepthScenes,duration_manipulation_targetAtFixation,jsons/v1_VE250_randls_18_rotated.json,http://54.235.29.9/FacialAge/BNav_EC2/DepthDuration/v2_depth_duration_MTurk/v2_DepthDuration_HTML.html#81,81,1536,703,1536,864,8-20-2022,11-36-32,32,depth_duration_stimuli/000917_2014-06-09_22-45-29_260595134347_rgbf000149-resize_3/000917_2014-06-09_22-45-29_260595134347_rgbf000149-resize_3-target.png,250,4.1865,10,2330,253,feet,jsons/v1_VE250_randls_18_rotated.json,422790,525364,37,Man
32,639264,DepthScenes,duration_manipulation_targetAtFixation,jsons/v1_VE250_randls_18_rotated.json,http://54.235.29.9/FacialAge/BNav_EC2/DepthDuration/v2_depth_duration_MTurk/v2_DepthDuration_HTML.html#81,81,1536,703,1536,864,8-20-2022,11-36-32,33,depth_duration_stimuli/000780_2014-06-08_22-28-29_260595134347_rgbf000126-resize_1/000780_2014-06-08_22-28-29_260595134347_rgbf000126-resize_1-target.png,250,3.3825,8,2559,251,feet,jsons/v1_VE250_randls_18_rotated.json,422790,525364,37,Man
33,639264,DepthScenes,duration_manipulation_targetAtFixation,jsons/v1_VE250_randls_18_rotated.json,http://54.235.29.9/FacialAge/BNav_EC2/DepthDuration/v2_depth_duration_MTurk/v2_DepthDuration_HTML.html#81,81,1536,703,1536,864,8-20-2022,11-36-32,34,depth_duration_stimuli/002445_2014-06-28_20-32-16_260595134347_rgbf000029-resize_4/002445_2014-06-28_20-32-16_260595134347_rgbf000029-resize_4-target.png,250,2.5315,5,1757,258,feet,jsons/v1_VE250_randls_18_rotated.json,422790,525364,37,Man
34,639264,DepthScenes,duration_manipulation_targetAtFixation,jsons/v1_VE250_randls_18_rotated.json,http://54.235.29.9/FacialAge/BNav_EC2/DepthDuration/v2_depth_duration_MTurk/v2_DepthDuration_HTML.html#81,81,1536,703,1536,864,8-20-2022,11-36-32,35,depth_duration_stimuli/001617_2014-06-20_11-35-32_260595134347_rgbf000066-resize_1/001617_2014-06-20_11-35-32_260595134347_rgbf000066-resize_1-target.png,250,3.7910000000000004,9,2069,244,feet,jsons/v1_VE250_randls_18_rotated.json,422790,525364,37,Man
35,639264,DepthScenes,duration_manipulation_targetAtFixation,jsons/v1_VE250_randls_18_rotated.json,http://54.235.29.9/FacialAge/BNav_EC2/DepthDuration/v2_depth_duration_MTurk/v2_DepthDuration_HTML.html#81,81,1536,703,1536,864,8-20-2022,11-36-32,36,depth_duration_stimuli/001806_2014-06-26_20-50-20_260595134347_rgbf000091-resize_1/001806_2014-06-26_20-50-20_260595134347_rgbf000091-resize_1-target.png,250,2.7305,6,1696,249,feet,jsons/v1_VE250_randls_18_rotated.json,422790,525364,37,Man
36,639264,DepthScenes,duration_manipulation_targetAtFixation,jsons/v1_VE250_randls_18_rotated.json,http://54.235.29.9/FacialAge/BNav_EC2/DepthDuration/v2_depth_duration_MTurk/v2_DepthDuration_HTML.html#81,81,1536,703,1536,864,8-20-2022,11-36-32,37,depth_duration_stimuli/001828_2014-06-26_21-40-03_260595134347_rgbf000024-resize_0/001828_2014-06-26_21-40-03_260595134347_rgbf000024-resize_0-target.png,250,4.8260000000000005,12,2383,252,feet,jsons/v1_VE250_randls_18_rotated.json,422790,525364,37,Man
37,639264,DepthScenes,duration_manipulation_targetAtFixation,jsons/v1_VE250_randls_18_rotated.json,http://54.235.29.9/FacialAge/BNav_EC2/DepthDuration/v2_depth_duration_MTurk/v2_DepthDuration_HTML.html#81,81,1536,703,1536,864,8-20-2022,11-36-32,38,depth_duration_stimuli/000009_2014-05-26_14-32-05_260595134347_rgbf000034-resize_3/000009_2014-05-26_14-32-05_260595134347_rgbf000034-resize_3-target.png,250,3.8715,10,2225,246,feet,jsons/v1_VE250_randls_18_rotated.json,422790,525364,37,Man
38,639264,DepthScenes,duration_manipulation_targetAtFixation,jsons/v1_VE250_randls_18_rotated.json,http://54.235.29.9/FacialAge/BNav_EC2/DepthDuration/v2_depth_duration_MTurk/v2_DepthDuration_HTML.html#81,81,1536,703,1536,864,8-20-2022,11-36-32,39,depth_duration_stimuli/002637_2014-06-24_14-51-13_094959634447_rgbf000066-resize_4/002637_2014-06-24_14-51-13_094959634447_rgbf000066-resize_4-target.png,250,1.9955,6,2227,250,feet,jsons/v1_VE250_randls_18_rotated.json,422790,525364,37,Man
39,639264,DepthScenes,duration_manipulation_targetAtFixation,jsons/v1_VE250_randls_18_rotated.json,http://54.235.29.9/FacialAge/BNav_EC2/DepthDuration/v2_depth_duration_MTurk/v2_DepthDuration_HTML.html#81,81,1536,703,1536,864,8-20-2022,11-36-32,40,depth_duration_stimuli/003534_2014-05-22_15-06-10_094959634447_rgbf000102-resize_4/003534_2014-05-22_15-06-10_094959634447_rgbf000102-resize_4-target.png,250,1.426,3,1553,248,feet,jsons/v1_VE250_randls_18_rotated.json,422790,525364,37,Man
40,639264,DepthScenes,duration_manipulation_targetAtFixation,jsons/v1_VE250_randls_18_rotated.json,http://54.235.29.9/FacialAge/BNav_EC2/DepthDuration/v2_depth_duration_MTurk/v2_DepthDuration_HTML.html#81,81,1536,703,1536,864,8-20-2022,11-36-32,41,depth_duration_stimuli/000943_2014-06-09_19-31-07_260595134347_rgbf000128-resize_1/000943_2014-06-09_19-31-07_260595134347_rgbf000128-resize_1-target.png,250,1.9765,4,1767,242,feet,jsons/v1_VE250_randls_18_rotated.json,422790,525364,37,Man
41,639264,DepthScenes,duration_manipulation_targetAtFixation,jsons/v1_VE250_randls_18_rotated.json,http://54.235.29.9/FacialAge/BNav_EC2/DepthDuration/v2_depth_duration_MTurk/v2_DepthDuration_HTML.html#81,81,1536,703,1536,864,8-20-2022,11-36-32,42,depth_duration_stimuli/003070_2014-06-15_14-58-27_094959634447_rgbf000150-resize_3/003070_2014-06-15_14-58-27_094959634447_rgbf000150-resize_3-target.png,250,2.9415,8,2831,252,feet,jsons/v1_VE250_randls_18_rotated.json,422790,525364,37,Man
42,639264,DepthScenes,duration_manipulation_targetAtFixation,jsons/v1_VE250_randls_18_rotated.json,http://54.235.29.9/FacialAge/BNav_EC2/DepthDuration/v2_depth_duration_MTurk/v2_DepthDuration_HTML.html#81,81,1536,703,1536,864,8-20-2022,11-36-32,43,depth_duration_stimuli/001100_2014-06-15_17-46-26_260595134347_rgbf000225-resize_2/001100_2014-06-15_17-46-26_260595134347_rgbf000225-resize_2-target.png,250,2.24,3,1517,248,feet,jsons/v1_VE250_randls_18_rotated.json,422790,525364,37,Man
43,639264,DepthScenes,duration_manipulation_targetAtFixation,jsons/v1_VE250_randls_18_rotated.json,http://54.235.29.9/FacialAge/BNav_EC2/DepthDuration/v2_depth_duration_MTurk/v2_DepthDuration_HTML.html#81,81,1536,703,1536,864,8-20-2022,11-36-32,44,depth_duration_stimuli/002784_2014-06-22_19-26-30_094959634447_rgbf000083-resize_3/002784_2014-06-22_19-26-30_094959634447_rgbf000083-resize_3-target.png,250,1.8046666666667,5,2226,241,feet,jsons/v1_VE250_randls_18_rotated.json,422790,525364,37,Man
44,639264,DepthScenes,duration_manipulation_targetAtFixation,jsons/v1_VE250_randls_18_rotated.json,http://54.235.29.9/FacialAge/BNav_EC2/DepthDuration/v2_depth_duration_MTurk/v2_DepthDuration_HTML.html#81,81,1536,703,1536,864,8-20-2022,11-36-32,45,depth_duration_stimuli/000556_2014-06-09_22-42-56_260595134347_rgbf000214-resize_1/000556_2014-06-09_22-42-56_260595134347_rgbf000214-resize_1-target.png,250,4.8415,12,2256,262,feet,jsons/v1_VE250_randls_18_rotated.json,422790,525364,37,Man
45,639264,DepthScenes,duration_manipulation_targetAtFixation,jsons/v1_VE250_randls_18_rotated.json,http://54.235.29.9/FacialAge/BNav_EC2/DepthDuration/v2_depth_duration_MTurk/v2_DepthDuration_HTML.html#81,81,1536,703,1536,864,8-20-2022,11-36-32,46,depth_duration_stimuli/001158_2014-06-17_15-32-16_260595134347_rgbf000138-resize_2/001158_2014-06-17_15-32-16_260595134347_rgbf000138-resize_2-target.png,250,4.5315,10,2235,256,feet,jsons/v1_VE250_randls_18_rotated.json,422790,525364,37,Man
46,639264,DepthScenes,duration_manipulation_targetAtFixation,jsons/v1_VE250_randls_18_rotated.json,http://54.235.29.9/FacialAge/BNav_EC2/DepthDuration/v2_depth_duration_MTurk/v2_DepthDuration_HTML.html#81,81,1536,703,1536,864,8-20-2022,11-36-32,47,depth_duration_stimuli/002568_2014-06-24_13-59-21_094959634447_rgbf000062-resize_4/002568_2014-06-24_13-59-21_094959634447_rgbf000062-resize_4-target.png,250,3.015,8,2411,248,feet,jsons/v1_VE250_randls_18_rotated.json,422790,525364,37,Man
47,639264,DepthScenes,duration_manipulation_targetAtFixation,jsons/v1_VE250_randls_18_rotated.json,http://54.235.29.9/FacialAge/BNav_EC2/DepthDuration/v2_depth_duration_MTurk/v2_DepthDuration_HTML.html#81,81,1536,703,1536,864,8-20-2022,11-36-32,48,depth_duration_stimuli/003492_2014-05-21_15-50-55_094959634447_rgbf000828-resize_1/003492_2014-05-21_15-50-55_094959634447_rgbf000828-resize_1-target.png,250,4.06875,9,2325,239,feet,jsons/v1_VE250_randls_18_rotated.json,422790,525364,37,Man
48,639264,DepthScenes,duration_manipulation_targetAtFixation,jsons/v1_VE250_randls_18_rotated.json,http://54.235.29.9/FacialAge/BNav_EC2/DepthDuration/v2_depth_duration_MTurk/v2_DepthDuration_HTML.html#81,81,1536,703,1536,864,8-20-2022,11-36-32,49,depth_duration_stimuli/001170_2014-06-17_15-43-44_260595134347_rgbf000096-resize_6/001170_2014-06-17_15-43-44_260595134347_rgbf000096-resize-original.jpg,250,1.1909999999999998,0,1426,253,feet,jsons/v1_VE250_randls_18_rotated.json,422790,525364,37,Man
49,639264,DepthScenes,duration_manipulation_targetAtFixation,jsons/v1_VE250_randls_18_rotated.json,http://54.235.29.9/FacialAge/BNav_EC2/DepthDuration/v2_depth_duration_MTurk/v2_DepthDuration_HTML.html#81,81,1536,703,1536,864,8-20-2022,11-36-32,50,depth_duration_stimuli/000502_2014-06-08_23-02-32_260595134347_rgbf000063-resize_4/000502_2014-06-08_23-02-32_260595134347_rgbf000063-resize_4-target.png,250,2.431,6,1710,252,feet,jsons/v1_VE250_randls_18_rotated.json,422790,525364,37,Man
50,639264,DepthScenes,duration_manipulation_targetAtFixation,jsons/v1_VE250_randls_18_rotated.json,http://54.235.29.9/FacialAge/BNav_EC2/DepthDuration/v2_depth_duration_MTurk/v2_DepthDuration_HTML.html#81,81,1536,703,1536,864,8-20-2022,11-36-32,51,depth_duration_stimuli/001199_2014-06-17_16-03-48_260595134347_rgbf000077-resize_0/001199_2014-06-17_16-03-48_260595134347_rgbf000077-resize_0-target.png,250,3.4375,12,2232,256,feet,jsons/v1_VE250_randls_18_rotated.json,422790,525364,37,Man
51,639264,DepthScenes,duration_manipulation_targetAtFixation,jsons/v1_VE250_randls_18_rotated.json,http://54.235.29.9/FacialAge/BNav_EC2/DepthDuration/v2_depth_duration_MTurk/v2_DepthDuration_HTML.html#81,81,1536,703,1536,864,8-20-2022,11-36-32,52,depth_duration_stimuli/000691_2014-06-08_13-08-50_260595134347_rgbf000132-resize_3/000691_2014-06-08_13-08-50_260595134347_rgbf000132-resize_3-target.png,250,4.1530000000000005,10,1892,247,feet,jsons/v1_VE250_randls_18_rotated.json,422790,525364,37,Man
52,639264,DepthScenes,duration_manipulation_targetAtFixation,jsons/v1_VE250_randls_18_rotated.json,http://54.235.29.9/FacialAge/BNav_EC2/DepthDuration/v2_depth_duration_MTurk/v2_DepthDuration_HTML.html#81,81,1536,703,1536,864,8-20-2022,11-36-32,53,depth_duration_stimuli/002213_2014-06-28_18-37-58_260595134347_rgbf000055-resize_1/002213_2014-06-28_18-37-58_260595134347_rgbf000055-resize_1-target.png,250,3.62,11,2967,237,feet,jsons/v1_VE250_randls_18_rotated.json,422790,525364,37,Man
53,639264,DepthScenes,duration_manipulation_targetAtFixation,jsons/v1_VE250_randls_18_rotated.json,http://54.235.29.9/FacialAge/BNav_EC2/DepthDuration/v2_depth_duration_MTurk/v2_DepthDuration_HTML.html#81,81,1536,703,1536,864,8-20-2022,11-36-32,54,depth_duration_stimuli/001584_2014-06-20_11-07-43_260595134347_rgbf000002-resize_1/001584_2014-06-20_11-07-43_260595134347_rgbf000002-resize_1-target.png,250,3.53,9,1803,249,feet,jsons/v1_VE250_randls_18_rotated.json,422790,525364,37,Man
54,639264,DepthScenes,duration_manipulation_targetAtFixation,jsons/v1_VE250_randls_18_rotated.json,http://54.235.29.9/FacialAge/BNav_EC2/DepthDuration/v2_depth_duration_MTurk/v2_DepthDuration_HTML.html#81,81,1536,703,1536,864,8-20-2022,11-36-32,55,depth_duration_stimuli/003621_2014-05-23_18-06-08_094959634447_rgbf000101-resize_1/003621_2014-05-23_18-06-08_094959634447_rgbf000101-resize_1-target.png,250,3.9835,10,1942,254,feet,jsons/v1_VE250_randls_18_rotated.json,422790,525364,37,Man
55,639264,DepthScenes,duration_manipulation_targetAtFixation,jsons/v1_VE250_randls_18_rotated.json,http://54.235.29.9/FacialAge/BNav_EC2/DepthDuration/v2_depth_duration_MTurk/v2_DepthDuration_HTML.html#81,81,1536,703,1536,864,8-20-2022,11-36-32,56,depth_duration_stimuli/002344_2014-06-28_20-06-29_260595134347_rgbf000030-resize_1/002344_2014-06-28_20-06-29_260595134347_rgbf000030-resize_1-target.png,250,1.5795,4,1437,250,feet,jsons/v1_VE250_randls_18_rotated.json,422790,525364,37,Man
56,639264,DepthScenes,duration_manipulation_targetAtFixation,jsons/v1_VE250_randls_18_rotated.json,http://54.235.29.9/FacialAge/BNav_EC2/DepthDuration/v2_depth_duration_MTurk/v2_DepthDuration_HTML.html#81,81,1536,703,1536,864,8-20-2022,11-36-32,57,depth_duration_stimuli/002725_2014-06-22_11-47-51_094959634447_rgbf000070-resize_1/002725_2014-06-22_11-47-51_094959634447_rgbf000070-resize_1-target.png,250,2.195,7,2311,254,feet,jsons/v1_VE250_randls_18_rotated.json,422790,525364,37,Man
57,639264,DepthScenes,duration_manipulation_targetAtFixation,jsons/v1_VE250_randls_18_rotated.json,http://54.235.29.9/FacialAge/BNav_EC2/DepthDuration/v2_depth_duration_MTurk/v2_DepthDuration_HTML.html#81,81,1536,703,1536,864,8-20-2022,11-36-32,58,depth_duration_stimuli/003423_2014-05-21_10-23-26_094959634447_rgbf002665-resize_2/003423_2014-05-21_10-23-26_094959634447_rgbf002665-resize_2-target.png,250,3.2575,11,3167,252,feet,jsons/v1_VE250_randls_18_rotated.json,422790,525364,37,Man
58,639264,DepthScenes,duration_manipulation_targetAtFixation,jsons/v1_VE250_randls_18_rotated.json,http://54.235.29.9/FacialAge/BNav_EC2/DepthDuration/v2_depth_duration_MTurk/v2_DepthDuration_HTML.html#81,81,1536,703,1536,864,8-20-2022,11-36-32,59,depth_duration_stimuli/002905_2014-06-03_18-04-43_094959634447_rgbf000151-resize_2/002905_2014-06-03_18-04-43_094959634447_rgbf000151-resize_2-target.png,250,2.0295,4,2179,235,feet,jsons/v1_VE250_randls_18_rotated.json,422790,525364,37,Man
59,639264,DepthScenes,duration_manipulation_targetAtFixation,jsons/v1_VE250_randls_18_rotated.json,http://54.235.29.9/FacialAge/BNav_EC2/DepthDuration/v2_depth_duration_MTurk/v2_DepthDuration_HTML.html#81,81,1536,703,1536,864,8-20-2022,11-36-32,60,depth_duration_stimuli/001392_2014-06-19_16-07-59_260595134347_rgbf000046-resize_1/001392_2014-06-19_16-07-59_260595134347_rgbf000046-resize_1-target.png,250,4.135,10,1906,248,feet,jsons/v1_VE250_randls_18_rotated.json,422790,525364,37,Man
60,639264,DepthScenes,duration_manipulation_targetAtFixation,jsons/v1_VE250_randls_18_rotated.json,http://54.235.29.9/FacialAge/BNav_EC2/DepthDuration/v2_depth_duration_MTurk/v2_DepthDuration_HTML.html#81,81,1536,703,1536,864,8-20-2022,11-36-32,61,depth_duration_stimuli/001570_2014-06-20_17-21-09_260595134347_rgbf000135-resize_4/001570_2014-06-20_17-21-09_260595134347_rgbf000135-resize_4-target.png,250,4.467,12,2846,253,feet,jsons/v1_VE250_randls_18_rotated.json,422790,525364,37,Man
61,639264,DepthScenes,duration_manipulation_targetAtFixation,jsons/v1_VE250_randls_18_rotated.json,http://54.235.29.9/FacialAge/BNav_EC2/DepthDuration/v2_depth_duration_MTurk/v2_DepthDuration_HTML.html#81,81,1536,703,1536,864,8-20-2022,11-36-32,62,depth_duration_stimuli/002805_2014-06-22_19-54-03_094959634447_rgbf000079-resize_1/002805_2014-06-22_19-54-03_094959634447_rgbf000079-resize_1-target.png,250,3.1439999999999997,8,1775,255,feet,jsons/v1_VE250_randls_18_rotated.json,422790,525364,37,Man
62,639264,DepthScenes,duration_manipulation_targetAtFixation,jsons/v1_VE250_randls_18_rotated.json,http://54.235.29.9/FacialAge/BNav_EC2/DepthDuration/v2_depth_duration_MTurk/v2_DepthDuration_HTML.html#81,81,1536,703,1536,864,8-20-2022,11-36-32,63,depth_duration_stimuli/000906_2014-06-08_13-35-43_260595134347_rgbf000155-resize_1/000906_2014-06-08_13-35-43_260595134347_rgbf000155-resize_1-target.png,250,2.8489999999999998,12,4119,259,feet,jsons/v1_VE250_randls_18_rotated.json,422790,525364,37,Man
63,639264,DepthScenes,duration_manipulation_targetAtFixation,jsons/v1_VE250_randls_18_rotated.json,http://54.235.29.9/FacialAge/BNav_EC2/DepthDuration/v2_depth_duration_MTurk/v2_DepthDuration_HTML.html#81,81,1536,703,1536,864,8-20-2022,11-36-32,64,depth_duration_stimuli/000749_2014-06-08_21-55-06_260595134347_rgbf000070-resize_2/000749_2014-06-08_21-55-06_260595134347_rgbf000070-resize_2-target.png,250,2.331,7,2253,254,feet,jsons/v1_VE250_randls_18_rotated.json,422790,525364,37,Man
64,639264,DepthScenes,duration_manipulation_targetAtFixation,jsons/v1_VE250_randls_18_rotated.json,http://54.235.29.9/FacialAge/BNav_EC2/DepthDuration/v2_depth_duration_MTurk/v2_DepthDuration_HTML.html#81,81,1536,703,1536,864,8-20-2022,11-36-32,65,depth_duration_stimuli/002788_2014-06-22_19-36-03_094959634447_rgbf000088-resize_2/002788_2014-06-22_19-36-03_094959634447_rgbf000088-resize_2-target.png,250,1.6465,9,2126,249,feet,jsons/v1_VE250_randls_18_rotated.json,422790,525364,37,Man
65,639264,DepthScenes,duration_manipulation_targetAtFixation,jsons/v1_VE250_randls_18_rotated.json,http://54.235.29.9/FacialAge/BNav_EC2/DepthDuration/v2_depth_duration_MTurk/v2_DepthDuration_HTML.html#81,81,1536,703,1536,864,8-20-2022,11-36-32,66,depth_duration_stimuli/001540_2014-06-20_17-01-05_260595134347_rgbf000086-resize_2/001540_2014-06-20_17-01-05_260595134347_rgbf000086-resize-original.jpg,250,1.459,0,1387,255,feet,jsons/v1_VE250_randls_18_rotated.json,422790,525364,37,Man
66,639264,DepthScenes,duration_manipulation_targetAtFixation,jsons/v1_VE250_randls_18_rotated.json,http://54.235.29.9/FacialAge/BNav_EC2/DepthDuration/v2_depth_duration_MTurk/v2_DepthDuration_HTML.html#81,81,1536,703,1536,864,8-20-2022,11-36-32,67,depth_duration_stimuli/002758_2014-06-22_19-11-20_094959634447_rgbf000128-resize_1/002758_2014-06-22_19-11-20_094959634447_rgbf000128-resize_1-target.png,250,2.555,5,2248,252,feet,jsons/v1_VE250_randls_18_rotated.json,422790,525364,37,Man
67,639264,DepthScenes,duration_manipulation_targetAtFixation,jsons/v1_VE250_randls_18_rotated.json,http://54.235.29.9/FacialAge/BNav_EC2/DepthDuration/v2_depth_duration_MTurk/v2_DepthDuration_HTML.html#81,81,1536,703,1536,864,8-20-2022,11-36-32,68,depth_duration_stimuli/002630_2014-06-24_14-47-50_094959634447_rgbf000055-resize_1/002630_2014-06-24_14-47-50_094959634447_rgbf000055-resize_1-target.png,250,3.0095,11,2412,256,feet,jsons/v1_VE250_randls_18_rotated.json,422790,525364,37,Man
68,639264,DepthScenes,duration_manipulation_targetAtFixation,jsons/v1_VE250_randls_18_rotated.json,http://54.235.29.9/FacialAge/BNav_EC2/DepthDuration/v2_depth_duration_MTurk/v2_DepthDuration_HTML.html#81,81,1536,703,1536,864,8-20-2022,11-36-32,69,depth_duration_stimuli/001571_2014-06-20_17-21-32_260595134347_rgbf000089-resize_1/001571_2014-06-20_17-21-32_260595134347_rgbf000089-resize_1-target.png,250,1.86,4,1668,254,feet,jsons/v1_VE250_randls_18_rotated.json,422790,525364,37,Man
69,639264,DepthScenes,duration_manipulation_targetAtFixation,jsons/v1_VE250_randls_18_rotated.json,http://54.235.29.9/FacialAge/BNav_EC2/DepthDuration/v2_depth_duration_MTurk/v2_DepthDuration_HTML.html#81,81,1536,703,1536,864,8-20-2022,11-36-32,70,depth_duration_stimuli/002272_2014-06-28_18-53-56_260595134347_rgbf000067-resize_2/002272_2014-06-28_18-53-56_260595134347_rgbf000067-resize_2-target.png,250,1.138,5,1947,254,feet,jsons/v1_VE250_randls_18_rotated.json,422790,525364,37,Man
70,639264,DepthScenes,duration_manipulation_targetAtFixation,jsons/v1_VE250_randls_18_rotated.json,http://54.235.29.9/FacialAge/BNav_EC2/DepthDuration/v2_depth_duration_MTurk/v2_DepthDuration_HTML.html#81,81,1536,703,1536,864,8-20-2022,11-36-32,71,depth_duration_stimuli/000409_2014-06-04_19-23-33_260595134347_rgbf000067-resize_0/000409_2014-06-04_19-23-33_260595134347_rgbf000067-resize_0-target.png,250,3.7335,9,1691,252,feet,jsons/v1_VE250_randls_18_rotated.json,422790,525364,37,Man
71,639264,DepthScenes,duration_manipulation_targetAtFixation,jsons/v1_VE250_randls_18_rotated.json,http://54.235.29.9/FacialAge/BNav_EC2/DepthDuration/v2_depth_duration_MTurk/v2_DepthDuration_HTML.html#81,81,1536,703,1536,864,8-20-2022,11-36-32,72,depth_duration_stimuli/002663_2014-06-13_15-50-26_094959634447_rgbf000075-resize_1/002663_2014-06-13_15-50-26_094959634447_rgbf000075-resize_1-target.png,250,4.7495,13,2032,248,feet,jsons/v1_VE250_randls_18_rotated.json,422790,525364,37,Man
72,639264,DepthScenes,duration_manipulation_targetAtFixation,jsons/v1_VE250_randls_18_rotated.json,http://54.235.29.9/FacialAge/BNav_EC2/DepthDuration/v2_depth_duration_MTurk/v2_DepthDuration_HTML.html#81,81,1536,703,1536,864,8-20-2022,11-36-32,73,depth_duration_stimuli/002750_2014-06-22_19-08-03_094959634447_rgbf000094-resize_4/002750_2014-06-22_19-08-03_094959634447_rgbf000094-resize_4-target.png,250,2.354,8,1897,250,feet,jsons/v1_VE250_randls_18_rotated.json,422790,525364,37,Man
73,639264,DepthScenes,duration_manipulation_targetAtFixation,jsons/v1_VE250_randls_18_rotated.json,http://54.235.29.9/FacialAge/BNav_EC2/DepthDuration/v2_depth_duration_MTurk/v2_DepthDuration_HTML.html#81,81,1536,703,1536,864,8-20-2022,11-36-32,74,depth_duration_stimuli/002549_2014-06-24_13-41-39_094959634447_rgbf000022-resize_3/002549_2014-06-24_13-41-39_094959634447_rgbf000022-resize_3-target.png,250,1.476,3,1701,243,feet,jsons/v1_VE250_randls_18_rotated.json,422790,525364,37,Man
74,639264,DepthScenes,duration_manipulation_targetAtFixation,jsons/v1_VE250_randls_18_rotated.json,http://54.235.29.9/FacialAge/BNav_EC2/DepthDuration/v2_depth_duration_MTurk/v2_DepthDuration_HTML.html#81,81,1536,703,1536,864,8-20-2022,11-36-32,75,depth_duration_stimuli/001516_2014-06-20_16-25-09_260595134347_rgbf000076-resize_2/001516_2014-06-20_16-25-09_260595134347_rgbf000076-resize_2-target.png,250,1.7445,6,1483,257,feet,jsons/v1_VE250_randls_18_rotated.json,422790,525364,37,Man
75,639264,DepthScenes,duration_manipulation_targetAtFixation,jsons/v1_VE250_randls_18_rotated.json,http://54.235.29.9/FacialAge/BNav_EC2/DepthDuration/v2_depth_duration_MTurk/v2_DepthDuration_HTML.html#81,81,1536,703,1536,864,8-20-2022,11-36-32,76,depth_duration_stimuli/002118_2014-06-25_20-32-08_260595134347_rgbf000078-resize_1/002118_2014-06-25_20-32-08_260595134347_rgbf000078-resize_1-target.png,250,2.6460000000000004,8,1597,248,feet,jsons/v1_VE250_randls_18_rotated.json,422790,525364,37,Man
76,639264,DepthScenes,duration_manipulation_targetAtFixation,jsons/v1_VE250_randls_18_rotated.json,http://54.235.29.9/FacialAge/BNav_EC2/DepthDuration/v2_depth_duration_MTurk/v2_DepthDuration_HTML.html#81,81,1536,703,1536,864,8-20-2022,11-36-32,77,depth_duration_stimuli/002953_2014-06-08_17-32-18_094959634447_rgbf000059-resize_5/002953_2014-06-08_17-32-18_094959634447_rgbf000059-resize_5-target.png,250,1.551,2,2468,249,feet,jsons/v1_VE250_randls_18_rotated.json,422790,525364,37,Man
77,639264,DepthScenes,duration_manipulation_targetAtFixation,jsons/v1_VE250_randls_18_rotated.json,http://54.235.29.9/FacialAge/BNav_EC2/DepthDuration/v2_depth_duration_MTurk/v2_DepthDuration_HTML.html#81,81,1536,703,1536,864,8-20-2022,11-36-32,78,depth_duration_stimuli/000878_2014-06-08_22-52-45_260595134347_rgbf000045-resize_2/000878_2014-06-08_22-52-45_260595134347_rgbf000045-resize_2-target.png,250,2.092,7,1992,256,feet,jsons/v1_VE250_randls_18_rotated.json,422790,525364,37,Man
78,639264,DepthScenes,duration_manipulation_targetAtFixation,jsons/v1_VE250_randls_18_rotated.json,http://54.235.29.9/FacialAge/BNav_EC2/DepthDuration/v2_depth_duration_MTurk/v2_DepthDuration_HTML.html#81,81,1536,703,1536,864,8-20-2022,11-36-32,79,depth_duration_stimuli/001450_2014-06-19_17-02-03_260595134347_rgbf000203-resize_4/001450_2014-06-19_17-02-03_260595134347_rgbf000203-resize_4-target.png,250,4.0106666666667,12,1959,253,feet,jsons/v1_VE250_randls_18_rotated.json,422790,525364,37,Man
79,639264,DepthScenes,duration_manipulation_targetAtFixation,jsons/v1_VE250_randls_18_rotated.json,http://54.235.29.9/FacialAge/BNav_EC2/DepthDuration/v2_depth_duration_MTurk/v2_DepthDuration_HTML.html#81,81,1536,703,1536,864,8-20-2022,11-36-32,80,depth_duration_stimuli/001449_2014-06-19_17-01-27_260595134347_rgbf000116-resize_2/001449_2014-06-19_17-01-27_260595134347_rgbf000116-resize_2-target.png,250,3.452,5,3422,255,feet,jsons/v1_VE250_randls_18_rotated.json,422790,525364,37,Man
80,639264,DepthScenes,duration_manipulation_targetAtFixation,jsons/v1_VE250_randls_18_rotated.json,http://54.235.29.9/FacialAge/BNav_EC2/DepthDuration/v2_depth_duration_MTurk/v2_DepthDuration_HTML.html#81,81,1536,703,1536,864,8-20-2022,11-36-32,81,depth_duration_stimuli/000709_2014-06-08_13-51-55_260595134347_rgbf000068-resize_3/000709_2014-06-08_13-51-55_260595134347_rgbf000068-resize_3-target.png,250,1.8030000000000002,6,2284,255,feet,jsons/v1_VE250_randls_18_rotated.json,422790,525364,37,Man
81,639264,DepthScenes,duration_manipulation_targetAtFixation,jsons/v1_VE250_randls_18_rotated.json,http://54.235.29.9/FacialAge/BNav_EC2/DepthDuration/v2_depth_duration_MTurk/v2_DepthDuration_HTML.html#81,81,1536,703,1536,864,8-20-2022,11-36-32,82,depth_duration_stimuli/002057_2014-06-24_21-00-13_260595134347_rgbf000120-resize_1/002057_2014-06-24_21-00-13_260595134347_rgbf000120-resize_1-target.png,250,2.967,9,1778,261,feet,jsons/v1_VE250_randls_18_rotated.json,422790,525364,37,Man
82,639264,DepthScenes,duration_manipulation_targetAtFixation,jsons/v1_VE250_randls_18_rotated.json,http://54.235.29.9/FacialAge/BNav_EC2/DepthDuration/v2_depth_duration_MTurk/v2_DepthDuration_HTML.html#81,81,1536,703,1536,864,8-20-2022,11-36-32,83,depth_duration_stimuli/002425_2014-06-28_20-27-29_260595134347_rgbf000031-resize_8/002425_2014-06-28_20-27-29_260595134347_rgbf000031-resize_8-target.png,250,3.8960000000000004,10,1753,249,feet,jsons/v1_VE250_randls_18_rotated.json,422790,525364,37,Man
83,639264,DepthScenes,duration_manipulation_targetAtFixation,jsons/v1_VE250_randls_18_rotated.json,http://54.235.29.9/FacialAge/BNav_EC2/DepthDuration/v2_depth_duration_MTurk/v2_DepthDuration_HTML.html#81,81,1536,703,1536,864,8-20-2022,11-36-32,84,depth_duration_stimuli/000642_2014-06-08_16-59-25_260595134347_rgbf000098-resize_2/000642_2014-06-08_16-59-25_260595134347_rgbf000098-resize_2-target.png,250,2.8815,9,1880,264,feet,jsons/v1_VE250_randls_18_rotated.json,422790,525364,37,Man
84,639264,DepthScenes,duration_manipulation_targetAtFixation,jsons/v1_VE250_randls_18_rotated.json,http://54.235.29.9/FacialAge/BNav_EC2/DepthDuration/v2_depth_duration_MTurk/v2_DepthDuration_HTML.html#81,81,1536,703,1536,864,8-20-2022,11-36-32,85,depth_duration_stimuli/003010_2014-06-15_12-54-35_094959634447_rgbf000112-resize_0/003010_2014-06-15_12-54-35_094959634447_rgbf000112-resize_0-target.png,250,3.1185,11,2356,249,feet,jsons/v1_VE250_randls_18_rotated.json,422790,525364,37,Man
85,639264,DepthScenes,duration_manipulation_targetAtFixation,jsons/v1_VE250_randls_18_rotated.json,http://54.235.29.9/FacialAge/BNav_EC2/DepthDuration/v2_depth_duration_MTurk/v2_DepthDuration_HTML.html#81,81,1536,703,1536,864,8-20-2022,11-36-32,86,depth_duration_stimuli/001810_2014-06-26_20-51-35_260595134347_rgbf000040-resize_3/001810_2014-06-26_20-51-35_260595134347_rgbf000040-resize_3-target.png,250,2.2525,5,1546,254,feet,jsons/v1_VE250_randls_18_rotated.json,422790,525364,37,Man
86,639264,DepthScenes,duration_manipulation_targetAtFixation,jsons/v1_VE250_randls_18_rotated.json,http://54.235.29.9/FacialAge/BNav_EC2/DepthDuration/v2_depth_duration_MTurk/v2_DepthDuration_HTML.html#81,81,1536,703,1536,864,8-20-2022,11-36-32,87,depth_duration_stimuli/000866_2014-06-09_20-45-42_260595134347_rgbf000139-resize_1/000866_2014-06-09_20-45-42_260595134347_rgbf000139-resize_1-target.png,250,3.2155,5,1863,250,feet,jsons/v1_VE250_randls_18_rotated.json,422790,525364,37,Man
87,639264,DepthScenes,duration_manipulation_targetAtFixation,jsons/v1_VE250_randls_18_rotated.json,http://54.235.29.9/FacialAge/BNav_EC2/DepthDuration/v2_depth_duration_MTurk/v2_DepthDuration_HTML.html#81,81,1536,703,1536,864,8-20-2022,11-36-32,88,depth_duration_stimuli/002989_2014-06-15_12-25-03_094959634447_rgbf000150-resize_3/002989_2014-06-15_12-25-03_094959634447_rgbf000150-resize_3-target.png,250,4.1975,11,2002,248,feet,jsons/v1_VE250_randls_18_rotated.json,422790,525364,37,Man
88,639264,DepthScenes,duration_manipulation_targetAtFixation,jsons/v1_VE250_randls_18_rotated.json,http://54.235.29.9/FacialAge/BNav_EC2/DepthDuration/v2_depth_duration_MTurk/v2_DepthDuration_HTML.html#81,81,1536,703,1536,864,8-20-2022,11-36-32,89,depth_duration_stimuli/003228_2014-05-14_13-42-35_094959634447_rgbf000101-resize_1/003228_2014-05-14_13-42-35_094959634447_rgbf000101-resize_1-target.png,250,1.9680000000000002,3,1607,251,feet,jsons/v1_VE250_randls_18_rotated.json,422790,525364,37,Man
89,639264,DepthScenes,duration_manipulation_targetAtFixation,jsons/v1_VE250_randls_18_rotated.json,http://54.235.29.9/FacialAge/BNav_EC2/DepthDuration/v2_depth_duration_MTurk/v2_DepthDuration_HTML.html#81,81,1536,703,1536,864,8-20-2022,11-36-32,90,depth_duration_stimuli/002600_2014-06-24_14-27-04_094959634447_rgbf000074-resize_2/002600_2014-06-24_14-27-04_094959634447_rgbf000074-resize_2-target.png,250,2.7575,7,1544,240,feet,jsons/v1_VE250_randls_18_rotated.json,422790,525364,37,Man
90,639264,DepthScenes,duration_manipulation_targetAtFixation,jsons/v1_VE250_randls_18_rotated.json,http://54.235.29.9/FacialAge/BNav_EC2/DepthDuration/v2_depth_duration_MTurk/v2_DepthDuration_HTML.html#81,81,1536,703,1536,864,8-20-2022,11-36-32,91,depth_duration_stimuli/000483_2014-06-09_20-41-45_260595134347_rgbf000116-resize_4/000483_2014-06-09_20-41-45_260595134347_rgbf000116-resize_4-target.png,250,1.337,3,1335,254,feet,jsons/v1_VE250_randls_18_rotated.json,422790,525364,37,Man
91,639264,DepthScenes,duration_manipulation_targetAtFixation,jsons/v1_VE250_randls_18_rotated.json,http://54.235.29.9/FacialAge/BNav_EC2/DepthDuration/v2_depth_duration_MTurk/v2_DepthDuration_HTML.html#81,81,1536,703,1536,864,8-20-2022,11-36-32,92,depth_duration_stimuli/000469_2014-06-09_19-42-10_260595134347_rgbf000081-resize_1/000469_2014-06-09_19-42-10_260595134347_rgbf000081-resize_1-target.png,250,1.652,2,2026,244,feet,jsons/v1_VE250_randls_18_rotated.json,422790,525364,37,Man
92,639264,DepthScenes,duration_manipulation_targetAtFixation,jsons/v1_VE250_randls_18_rotated.json,http://54.235.29.9/FacialAge/BNav_EC2/DepthDuration/v2_depth_duration_MTurk/v2_DepthDuration_HTML.html#81,81,1536,703,1536,864,8-20-2022,11-36-32,93,depth_duration_stimuli/001815_2014-06-26_20-52-55_260595134347_rgbf000020-resize_0/001815_2014-06-26_20-52-55_260595134347_rgbf000020-resize_0-target.png,250,3.3865,10,2422,248,feet,jsons/v1_VE250_randls_18_rotated.json,422790,525364,37,Man
93,639264,DepthScenes,duration_manipulation_targetAtFixation,jsons/v1_VE250_randls_18_rotated.json,http://54.235.29.9/FacialAge/BNav_EC2/DepthDuration/v2_depth_duration_MTurk/v2_DepthDuration_HTML.html#81,81,1536,703,1536,864,8-20-2022,11-36-32,94,depth_duration_stimuli/001808_2014-06-26_20-50-58_260595134347_rgbf000029-resize_1/001808_2014-06-26_20-50-58_260595134347_rgbf000029-resize_1-target.png,250,4.249,11,1833,253,feet,jsons/v1_VE250_randls_18_rotated.json,422790,525364,37,Man
94,639264,DepthScenes,duration_manipulation_targetAtFixation,jsons/v1_VE250_randls_18_rotated.json,http://54.235.29.9/FacialAge/BNav_EC2/DepthDuration/v2_depth_duration_MTurk/v2_DepthDuration_HTML.html#81,81,1536,703,1536,864,8-20-2022,11-36-32,95,depth_duration_stimuli/001447_2014-06-19_17-00-32_260595134347_rgbf000082-resize_5/001447_2014-06-19_17-00-32_260595134347_rgbf000082-resize_5-target.png,250,4.13775,8,1756,248,feet,jsons/v1_VE250_randls_18_rotated.json,422790,525364,37,Man
95,639264,DepthScenes,duration_manipulation_targetAtFixation,jsons/v1_VE250_randls_18_rotated.json,http://54.235.29.9/FacialAge/BNav_EC2/DepthDuration/v2_depth_duration_MTurk/v2_DepthDuration_HTML.html#81,81,1536,703,1536,864,8-20-2022,11-36-32,96,depth_duration_stimuli/000447_2014-06-08_16-15-46_260595134347_rgbf000130-resize_1/000447_2014-06-08_16-15-46_260595134347_rgbf000130-resize_1-target.png,250,4.479,13,2180,250,feet,jsons/v1_VE250_randls_18_rotated.json,422790,525364,37,Man
96,639264,DepthScenes,duration_manipulation_targetAtFixation,jsons/v1_VE250_randls_18_rotated.json,http://54.235.29.9/FacialAge/BNav_EC2/DepthDuration/v2_depth_duration_MTurk/v2_DepthDuration_HTML.html#81,81,1536,703,1536,864,8-20-2022,11-36-32,97,depth_duration_stimuli/000103_2014-05-14_22-01-17_260595134347_rgbf000152-resize_5/000103_2014-05-14_22-01-17_260595134347_rgbf000152-resize_5-target.png,250,1.993,9,1817,257,feet,jsons/v1_VE250_randls_18_rotated.json,422790,525364,37,Man
97,639264,DepthScenes,duration_manipulation_targetAtFixation,jsons/v1_VE250_randls_18_rotated.json,http://54.235.29.9/FacialAge/BNav_EC2/DepthDuration/v2_depth_duration_MTurk/v2_DepthDuration_HTML.html#81,81,1536,703,1536,864,8-20-2022,11-36-32,98,depth_duration_stimuli/001555_2014-06-20_17-12-10_260595134347_rgbf000065-resize_4/001555_2014-06-20_17-12-10_260595134347_rgbf000065-resize_4-target.png,250,1.633,2,1481,264,feet,jsons/v1_VE250_randls_18_rotated.json,422790,525364,37,Man
98,639264,DepthScenes,duration_manipulation_targetAtFixation,jsons/v1_VE250_randls_18_rotated.json,http://54.235.29.9/FacialAge/BNav_EC2/DepthDuration/v2_depth_duration_MTurk/v2_DepthDuration_HTML.html#81,81,1536,703,1536,864,8-20-2022,11-36-32,99,depth_duration_stimuli/001222_2014-06-17_16-24-06_260595134347_rgbf000073-resize_0/001222_2014-06-17_16-24-06_260595134347_rgbf000073-resize-original.jpg,250,1.4385,0,1441,247,feet,jsons/v1_VE250_randls_18_rotated.json,422790,525364,37,Man
99,639264,DepthScenes,duration_manipulation_targetAtFixation,jsons/v1_VE250_randls_18_rotated.json,http://54.235.29.9/FacialAge/BNav_EC2/DepthDuration/v2_depth_duration_MTurk/v2_DepthDuration_HTML.html#81,81,1536,703,1536,864,8-20-2022,11-36-32,100,depth_duration_stimuli/002545_2014-06-24_13-38-53_094959634447_rgbf000080-resize_4/002545_2014-06-24_13-38-53_094959634447_rgbf000080-resize_4-target.png,250,1.9205,5,2322,237,feet,jsons/v1_VE250_randls_18_rotated.json,422790,525364,37,Man
100,639264,DepthScenes,duration_manipulation_targetAtFixation,jsons/v1_VE250_randls_18_rotated.json,http://54.235.29.9/FacialAge/BNav_EC2/DepthDuration/v2_depth_duration_MTurk/v2_DepthDuration_HTML.html#81,81,1536,703,1536,864,8-20-2022,11-36-32,101,depth_duration_stimuli/001092_2014-06-15_17-34-58_260595134347_rgbf000171-resize_3/001092_2014-06-15_17-34-58_260595134347_rgbf000171-resize_3-target.png,250,2.6935,7,2283,245,feet,jsons/v1_VE250_randls_18_rotated.json,422790,525364,37,Man
101,639264,DepthScenes,duration_manipulation_targetAtFixation,jsons/v1_VE250_randls_18_rotated.json,http://54.235.29.9/FacialAge/BNav_EC2/DepthDuration/v2_depth_duration_MTurk/v2_DepthDuration_HTML.html#81,81,1536,703,1536,864,8-20-2022,11-36-32,102,depth_duration_stimuli/002995_2014-06-15_12-31-26_094959634447_rgbf000150-resize_1/002995_2014-06-15_12-31-26_094959634447_rgbf000150-resize_1-target.png,250,3.8360000000000003,14,1979,244,feet,jsons/v1_VE250_randls_18_rotated.json,422790,525364,37,Man
102,639264,DepthScenes,duration_manipulation_targetAtFixation,jsons/v1_VE250_randls_18_rotated.json,http://54.235.29.9/FacialAge/BNav_EC2/DepthDuration/v2_depth_duration_MTurk/v2_DepthDuration_HTML.html#81,81,1536,703,1536,864,8-20-2022,11-36-32,103,depth_duration_stimuli/002748_2014-06-22_19-07-22_094959634447_rgbf000078-resize_1/002748_2014-06-22_19-07-22_094959634447_rgbf000078-resize_1-target.png,250,4.6705,10,1868,237,feet,jsons/v1_VE250_randls_18_rotated.json,422790,525364,37,Man
103,639264,DepthScenes,duration_manipulation_targetAtFixation,jsons/v1_VE250_randls_18_rotated.json,http://54.235.29.9/FacialAge/BNav_EC2/DepthDuration/v2_depth_duration_MTurk/v2_DepthDuration_HTML.html#81,81,1536,703,1536,864,8-20-2022,11-36-32,104,depth_duration_stimuli/002660_2014-06-13_15-44-18_094959634447_rgbf001878-resize_2/002660_2014-06-13_15-44-18_094959634447_rgbf001878-resize_2-target.png,250,3.576,9,1574,264,feet,jsons/v1_VE250_randls_18_rotated.json,422790,525364,37,Man
104,639264,DepthScenes,duration_manipulation_targetAtFixation,jsons/v1_VE250_randls_18_rotated.json,http://54.235.29.9/FacialAge/BNav_EC2/DepthDuration/v2_depth_duration_MTurk/v2_DepthDuration_HTML.html#81,81,1536,703,1536,864,8-20-2022,11-36-32,105,depth_duration_stimuli/002153_2014-06-25_21-27-18_260595134347_rgbf000038-resize_5/002153_2014-06-25_21-27-18_260595134347_rgbf000038-resize_5-target.png,250,2.505,6,1529,258,feet,jsons/v1_VE250_randls_18_rotated.json,422790,525364,37,Man
105,639264,DepthScenes,duration_manipulation_targetAtFixation,jsons/v1_VE250_randls_18_rotated.json,http://54.235.29.9/FacialAge/BNav_EC2/DepthDuration/v2_depth_duration_MTurk/v2_DepthDuration_HTML.html#81,81,1536,703,1536,864,8-20-2022,11-36-32,106,depth_duration_stimuli/000191_2014-05-12_17-07-38_260595134347_rgbf000199-resize_0/000191_2014-05-12_17-07-38_260595134347_rgbf000199-resize_0-target.png,250,3.7995,13,1747,251,feet,jsons/v1_VE250_randls_18_rotated.json,422790,525364,37,Man
106,639264,DepthScenes,duration_manipulation_targetAtFixation,jsons/v1_VE250_randls_18_rotated.json,http://54.235.29.9/FacialAge/BNav_EC2/DepthDuration/v2_depth_duration_MTurk/v2_DepthDuration_HTML.html#81,81,1536,703,1536,864,8-20-2022,11-36-32,107,depth_duration_stimuli/000493_2014-06-09_21-01-18_260595134347_rgbf000196-resize_3/000493_2014-06-09_21-01-18_260595134347_rgbf000196-resize_3-target.png,250,3.44,8,1481,248,feet,jsons/v1_VE250_randls_18_rotated.json,422790,525364,37,Man
107,639264,DepthScenes,duration_manipulation_targetAtFixation,jsons/v1_VE250_randls_18_rotated.json,http://54.235.29.9/FacialAge/BNav_EC2/DepthDuration/v2_depth_duration_MTurk/v2_DepthDuration_HTML.html#81,81,1536,703,1536,864,8-20-2022,11-36-32,108,depth_duration_stimuli/002414_2014-06-28_20-24-58_260595134347_rgbf000067-resize_4/002414_2014-06-28_20-24-58_260595134347_rgbf000067-resize_4-target.png,250,4.363,13,2828,248,feet,jsons/v1_VE250_randls_18_rotated.json,422790,525364,37,Man
108,639264,DepthScenes,duration_manipulation_targetAtFixation,jsons/v1_VE250_randls_18_rotated.json,http://54.235.29.9/FacialAge/BNav_EC2/DepthDuration/v2_depth_duration_MTurk/v2_DepthDuration_HTML.html#81,81,1536,703,1536,864,8-20-2022,11-36-32,109,depth_duration_stimuli/000773_2014-06-08_22-24-54_260595134347_rgbf000093-resize_1/000773_2014-06-08_22-24-54_260595134347_rgbf000093-resize_1-target.png,250,4.973,11,2239,247,feet,jsons/v1_VE250_randls_18_rotated.json,422790,525364,37,Man
109,639264,DepthScenes,duration_manipulation_targetAtFixation,jsons/v1_VE250_randls_18_rotated.json,http://54.235.29.9/FacialAge/BNav_EC2/DepthDuration/v2_depth_duration_MTurk/v2_DepthDuration_HTML.html#81,81,1536,703,1536,864,8-20-2022,11-36-32,110,depth_duration_stimuli/003083_2014-06-15_15-21-03_094959634447_rgbf000063-resize_1/003083_2014-06-15_15-21-03_094959634447_rgbf000063-resize_1-target.png,250,4.1405,10,1670,239,feet,jsons/v1_VE250_randls_18_rotated.json,422790,525364,37,Man
110,639264,DepthScenes,duration_manipulation_targetAtFixation,jsons/v1_VE250_randls_18_rotated.json,http://54.235.29.9/FacialAge/BNav_EC2/DepthDuration/v2_depth_duration_MTurk/v2_DepthDuration_HTML.html#81,81,1536,703,1536,864,8-20-2022,11-36-32,111,depth_duration_stimuli/000486_2014-06-09_20-47-20_260595134347_rgbf000143-resize_2/000486_2014-06-09_20-47-20_260595134347_rgbf000143-resize_2-target.png,250,4.8325,11,2119,248,feet,jsons/v1_VE250_randls_18_rotated.json,422790,525364,37,Man
111,639264,DepthScenes,duration_manipulation_targetAtFixation,jsons/v1_VE250_randls_18_rotated.json,http://54.235.29.9/FacialAge/BNav_EC2/DepthDuration/v2_depth_duration_MTurk/v2_DepthDuration_HTML.html#81,81,1536,703,1536,864,8-20-2022,11-36-32,112,depth_duration_stimuli/000854_2014-06-09_19-43-13_260595134347_rgbf000066-resize_0/000854_2014-06-09_19-43-13_260595134347_rgbf000066-resize_0-target.png,250,3.068,4,1996,249,feet,jsons/v1_VE250_randls_18_rotated.json,422790,525364,37,Man
112,639264,DepthScenes,duration_manipulation_targetAtFixation,jsons/v1_VE250_randls_18_rotated.json,http://54.235.29.9/FacialAge/BNav_EC2/DepthDuration/v2_depth_duration_MTurk/v2_DepthDuration_HTML.html#81,81,1536,703,1536,864,8-20-2022,11-36-32,113,depth_duration_stimuli/000758_2014-06-08_22-05-08_260595134347_rgbf000085-resize_0/000758_2014-06-08_22-05-08_260595134347_rgbf000085-resize_0-target.png,250,3.3810000000000002,11,2350,241,feet,jsons/v1_VE250_randls_18_rotated.json,422790,525364,37,Man
113,639264,DepthScenes,duration_manipulation_targetAtFixation,jsons/v1_VE250_randls_18_rotated.json,http://54.235.29.9/FacialAge/BNav_EC2/DepthDuration/v2_depth_duration_MTurk/v2_DepthDuration_HTML.html#81,81,1536,703,1536,864,8-20-2022,11-36-32,114,depth_duration_stimuli/003129_2014-05-12_10-48-10_094959634447_rgbf000100-resize_0/003129_2014-05-12_10-48-10_094959634447_rgbf000100-resize_0-target.png,250,4.9305,10,2342,257,feet,jsons/v1_VE250_randls_18_rotated.json,422790,525364,37,Man
114,639264,DepthScenes,duration_manipulation_targetAtFixation,jsons/v1_VE250_randls_18_rotated.json,http://54.235.29.9/FacialAge/BNav_EC2/DepthDuration/v2_depth_duration_MTurk/v2_DepthDuration_HTML.html#81,81,1536,703,1536,864,8-20-2022,11-36-32,115,depth_duration_stimuli/000414_2014-06-04_19-49-13_260595134347_rgbf000044-resize_0/000414_2014-06-04_19-49-13_260595134347_rgbf000044-resize_0-target.png,250,4.329,9,1516,252,feet,jsons/v1_VE250_randls_18_rotated.json,422790,525364,37,Man
115,639264,DepthScenes,duration_manipulation_targetAtFixation,jsons/v1_VE250_randls_18_rotated.json,http://54.235.29.9/FacialAge/BNav_EC2/DepthDuration/v2_depth_duration_MTurk/v2_DepthDuration_HTML.html#81,81,1536,703,1536,864,8-20-2022,11-36-32,116,depth_duration_stimuli/002949_2014-06-26_15-57-42_094959634447_rgbf000079-resize_1/002949_2014-06-26_15-57-42_094959634447_rgbf000079-resize_1-target.png,250,1.8915,3,1265,253,feet,jsons/v1_VE250_randls_18_rotated.json,422790,525364,37,Man
116,639264,DepthScenes,duration_manipulation_targetAtFixation,jsons/v1_VE250_randls_18_rotated.json,http://54.235.29.9/FacialAge/BNav_EC2/DepthDuration/v2_depth_duration_MTurk/v2_DepthDuration_HTML.html#81,81,1536,703,1536,864,8-20-2022,11-36-32,117,depth_duration_stimuli/000522_2014-06-08_13-35-06_260595134347_rgbf000244-resize_1/000522_2014-06-08_13-35-06_260595134347_rgbf000244-resize_1-target.png,250,2.3715,3,1912,247,feet,jsons/v1_VE250_randls_18_rotated.json,422790,525364,37,Man
117,639264,DepthScenes,duration_manipulation_targetAtFixation,jsons/v1_VE250_randls_18_rotated.json,http://54.235.29.9/FacialAge/BNav_EC2/DepthDuration/v2_depth_duration_MTurk/v2_DepthDuration_HTML.html#81,81,1536,703,1536,864,8-20-2022,11-36-32,118,depth_duration_stimuli/000457_2014-06-08_16-52-43_260595134347_rgbf000199-resize_1/000457_2014-06-08_16-52-43_260595134347_rgbf000199-resize_1-target.png,250,3.6489999999999996,6,1435,244,feet,jsons/v1_VE250_randls_18_rotated.json,422790,525364,37,Man
118,639264,DepthScenes,duration_manipulation_targetAtFixation,jsons/v1_VE250_randls_18_rotated.json,http://54.235.29.9/FacialAge/BNav_EC2/DepthDuration/v2_depth_duration_MTurk/v2_DepthDuration_HTML.html#81,81,1536,703,1536,864,8-20-2022,11-36-32,119,depth_duration_stimuli/000929_2014-06-09_16-33-19_260595134347_rgbf000139-resize_0/000929_2014-06-09_16-33-19_260595134347_rgbf000139-resize_0-target.png,250,2.8680000000000003,5,1437,254,feet,jsons/v1_VE250_randls_18_rotated.json,422790,525364,37,Man
119,639264,DepthScenes,duration_manipulation_targetAtFixation,jsons/v1_VE250_randls_18_rotated.json,http://54.235.29.9/FacialAge/BNav_EC2/DepthDuration/v2_depth_duration_MTurk/v2_DepthDuration_HTML.html#81,81,1536,703,1536,864,8-20-2022,11-36-32,120,depth_duration_stimuli/000787_2014-06-08_22-33-53_260595134347_rgbf000175-resize_1/000787_2014-06-08_22-33-53_260595134347_rgbf000175-resize-original.jpg,250,4.784,0,1660,258,feet,jsons/v1_VE250_randls_18_rotated.json,422790,525364,37,Man
120,639264,DepthScenes,duration_manipulation_targetAtFixation,jsons/v1_VE250_randls_18_rotated.json,http://54.235.29.9/FacialAge/BNav_EC2/DepthDuration/v2_depth_duration_MTurk/v2_DepthDuration_HTML.html#81,81,1536,703,1536,864,8-20-2022,11-36-32,121,depth_duration_stimuli/002340_2014-06-28_20-05-46_260595134347_rgbf000113-resize_0/002340_2014-06-28_20-05-46_260595134347_rgbf000113-resize_0-target.png,250,2.4735,7,1496,243,feet,jsons/v1_VE250_randls_18_rotated.json,422790,525364,37,Man
121,639264,DepthScenes,duration_manipulation_targetAtFixation,jsons/v1_VE250_randls_18_rotated.json,http://54.235.29.9/FacialAge/BNav_EC2/DepthDuration/v2_depth_duration_MTurk/v2_DepthDuration_HTML.html#81,81,1536,703,1536,864,8-20-2022,11-36-32,122,depth_duration_stimuli/001016_2014-06-09_16-16-10_260595134347_rgbf000112-resize_5/001016_2014-06-09_16-16-10_260595134347_rgbf000112-resize_5-target.png,250,1.6565,6,1582,245,feet,jsons/v1_VE250_randls_18_rotated.json,422790,525364,37,Man
122,639264,DepthScenes,duration_manipulation_targetAtFixation,jsons/v1_VE250_randls_18_rotated.json,http://54.235.29.9/FacialAge/BNav_EC2/DepthDuration/v2_depth_duration_MTurk/v2_DepthDuration_HTML.html#81,81,1536,703,1536,864,8-20-2022,11-36-32,123,depth_duration_stimuli/002678_2014-06-13_16-15-32_094959634447_rgbf000151-resize_6/002678_2014-06-13_16-15-32_094959634447_rgbf000151-resize_6-target.png,250,2.1830000000000003,6,1746,247,feet,jsons/v1_VE250_randls_18_rotated.json,422790,525364,37,Man
123,639264,DepthScenes,duration_manipulation_targetAtFixation,jsons/v1_VE250_randls_18_rotated.json,http://54.235.29.9/FacialAge/BNav_EC2/DepthDuration/v2_depth_duration_MTurk/v2_DepthDuration_HTML.html#81,81,1536,703,1536,864,8-20-2022,11-36-32,124,depth_duration_stimuli/000368_2014-06-09_15-53-01_260595134347_rgbf000155-resize_2/000368_2014-06-09_15-53-01_260595134347_rgbf000155-resize_2-target.png,250,2.4859999999999998,4,1332,255,feet,jsons/v1_VE250_randls_18_rotated.json,422790,525364,37,Man
124,639264,DepthScenes,duration_manipulation_targetAtFixation,jsons/v1_VE250_randls_18_rotated.json,http://54.235.29.9/FacialAge/BNav_EC2/DepthDuration/v2_depth_duration_MTurk/v2_DepthDuration_HTML.html#81,81,1536,703,1536,864,8-20-2022,11-36-32,125,depth_duration_stimuli/002199_2014-06-28_18-33-56_260595134347_rgbf000074-resize_0/002199_2014-06-28_18-33-56_260595134347_rgbf000074-resize_0-target.png,250,1.996,3,1866,250,feet,jsons/v1_VE250_randls_18_rotated.json,422790,525364,37,Man
125,639264,DepthScenes,duration_manipulation_targetAtFixation,jsons/v1_VE250_randls_18_rotated.json,http://54.235.29.9/FacialAge/BNav_EC2/DepthDuration/v2_depth_duration_MTurk/v2_DepthDuration_HTML.html#81,81,1536,703,1536,864,8-20-2022,11-36-32,126,depth_duration_stimuli/001056_2014-06-08_18-46-44_260595134347_rgbf000068-resize_0/001056_2014-06-08_18-46-44_260595134347_rgbf000068-resize_0-target.png,250,2.6625,7,1708,248,feet,jsons/v1_VE250_randls_18_rotated.json,422790,525364,37,Man
126,639264,DepthScenes,duration_manipulation_targetAtFixation,jsons/v1_VE250_randls_18_rotated.json,http://54.235.29.9/FacialAge/BNav_EC2/DepthDuration/v2_depth_duration_MTurk/v2_DepthDuration_HTML.html#81,81,1536,703,1536,864,8-20-2022,11-36-32,127,depth_duration_stimuli/003079_2014-06-15_15-18-20_094959634447_rgbf000152-resize_8/003079_2014-06-15_15-18-20_094959634447_rgbf000152-resize_8-target.png,250,2.8775,8,1559,249,feet,jsons/v1_VE250_randls_18_rotated.json,422790,525364,37,Man
127,639264,DepthScenes,duration_manipulation_targetAtFixation,jsons/v1_VE250_randls_18_rotated.json,http://54.235.29.9/FacialAge/BNav_EC2/DepthDuration/v2_depth_duration_MTurk/v2_DepthDuration_HTML.html#81,81,1536,703,1536,864,8-20-2022,11-36-32,128,depth_duration_stimuli/000506_2014-06-08_23-21-00_260595134347_rgbf000070-resize_7/000506_2014-06-08_23-21-00_260595134347_rgbf000070-resize_7-target.png,250,4.0585,7,2395,246,feet,jsons/v1_VE250_randls_18_rotated.json,422790,525364,37,Man
128,639264,DepthScenes,duration_manipulation_targetAtFixation,jsons/v1_VE250_randls_18_rotated.json,http://54.235.29.9/FacialAge/BNav_EC2/DepthDuration/v2_depth_duration_MTurk/v2_DepthDuration_HTML.html#81,81,1536,703,1536,864,8-20-2022,11-36-32,129,depth_duration_stimuli/001032_2014-06-08_13-23-17_260595134347_rgbf000021-resize_3/001032_2014-06-08_13-23-17_260595134347_rgbf000021-resize_3-target.png,250,3.2725,5,1756,248,feet,jsons/v1_VE250_randls_18_rotated.json,422790,525364,37,Man
129,639264,DepthScenes,duration_manipulation_targetAtFixation,jsons/v1_VE250_randls_18_rotated.json,http://54.235.29.9/FacialAge/BNav_EC2/DepthDuration/v2_depth_duration_MTurk/v2_DepthDuration_HTML.html#81,81,1536,703,1536,864,8-20-2022,11-36-32,130,depth_duration_stimuli/001059_2014-06-08_21-53-27_260595134347_rgbf000061-resize_4/001059_2014-06-08_21-53-27_260595134347_rgbf000061-resize_4-target.png,250,2.4185,6,1360,242,feet,jsons/v1_VE250_randls_18_rotated.json,422790,525364,37,Man
130,639264,DepthScenes,duration_manipulation_targetAtFixation,jsons/v1_VE250_randls_18_rotated.json,http://54.235.29.9/FacialAge/BNav_EC2/DepthDuration/v2_depth_duration_MTurk/v2_DepthDuration_HTML.html#81,81,1536,703,1536,864,8-20-2022,11-36-32,131,depth_duration_stimuli/000742_2014-06-08_18-48-09_260595134347_rgbf000164-resize_4/000742_2014-06-08_18-48-09_260595134347_rgbf000164-resize_4-target.png,250,4.632,9,1424,252,feet,jsons/v1_VE250_randls_18_rotated.json,422790,525364,37,Man
131,639264,DepthScenes,duration_manipulation_targetAtFixation,jsons/v1_VE250_randls_18_rotated.json,http://54.235.29.9/FacialAge/BNav_EC2/DepthDuration/v2_depth_duration_MTurk/v2_DepthDuration_HTML.html#81,81,1536,703,1536,864,8-20-2022,11-36-32,132,depth_duration_stimuli/001066_2014-06-08_22-03-20_260595134347_rgbf000066-resize_4/001066_2014-06-08_22-03-20_260595134347_rgbf000066-resize_4-target.png,250,4.2330000000000005,10,2150,249,feet,jsons/v1_VE250_randls_18_rotated.json,422790,525364,37,Man
132,639264,DepthScenes,duration_manipulation_targetAtFixation,jsons/v1_VE250_randls_18_rotated.json,http://54.235.29.9/FacialAge/BNav_EC2/DepthDuration/v2_depth_duration_MTurk/v2_DepthDuration_HTML.html#81,81,1536,703,1536,864,8-20-2022,11-36-32,133,depth_duration_stimuli/000677_2014-06-08_23-10-32_260595134347_rgbf000158-resize_6/000677_2014-06-08_23-10-32_260595134347_rgbf000158-resize_6-target.png,250,3.556,7,1589,248,feet,jsons/v1_VE250_randls_18_rotated.json,422790,525364,37,Man
133,639264,DepthScenes,duration_manipulation_targetAtFixation,jsons/v1_VE250_randls_18_rotated.json,http://54.235.29.9/FacialAge/BNav_EC2/DepthDuration/v2_depth_duration_MTurk/v2_DepthDuration_HTML.html#81,81,1536,703,1536,864,8-20-2022,11-36-32,134,depth_duration_stimuli/001029_2014-06-08_13-17-57_260595134347_rgbf000065-resize_1/001029_2014-06-08_13-17-57_260595134347_rgbf000065-resize_1-target.png,250,3.0835,6,1841,250,feet,jsons/v1_VE250_randls_18_rotated.json,422790,525364,37,Man
134,639264,DepthScenes,duration_manipulation_targetAtFixation,jsons/v1_VE250_randls_18_rotated.json,http://54.235.29.9/FacialAge/BNav_EC2/DepthDuration/v2_depth_duration_MTurk/v2_DepthDuration_HTML.html#81,81,1536,703,1536,864,8-20-2022,11-36-32,135,depth_duration_stimuli/000375_2014-06-08_11-17-29_260595134347_rgbf000133-resize_2/000375_2014-06-08_11-17-29_260595134347_rgbf000133-resize-original.jpg,250,4.718,0,1668,255,feet,jsons/v1_VE250_randls_18_rotated.json,422790,525364,37,Man
135,639264,DepthScenes,duration_manipulation_targetAtFixation,jsons/v1_VE250_randls_18_rotated.json,http://54.235.29.9/FacialAge/BNav_EC2/DepthDuration/v2_depth_duration_MTurk/v2_DepthDuration_HTML.html#81,81,1536,703,1536,864,8-20-2022,11-36-32,136,depth_duration_stimuli/001132_2014-06-17_14-48-54_260595134347_rgbf000100-resize_2/001132_2014-06-17_14-48-54_260595134347_rgbf000100-resize_2-target.png,250,3.753,9,1521,243,feet,jsons/v1_VE250_randls_18_rotated.json,422790,525364,37,Man
136,639264,DepthScenes,duration_manipulation_targetAtFixation,jsons/v1_VE250_randls_18_rotated.json,http://54.235.29.9/FacialAge/BNav_EC2/DepthDuration/v2_depth_duration_MTurk/v2_DepthDuration_HTML.html#81,81,1536,703,1536,864,8-20-2022,11-36-32,137,depth_duration_stimuli/001133_2014-06-17_14-49-16_260595134347_rgbf000100-resize_0/001133_2014-06-17_14-49-16_260595134347_rgbf000100-resize_0-target.png,250,4.2115,11,1824,246,feet,jsons/v1_VE250_randls_18_rotated.json,422790,525364,37,Man
137,639264,DepthScenes,duration_manipulation_targetAtFixation,jsons/v1_VE250_randls_18_rotated.json,http://54.235.29.9/FacialAge/BNav_EC2/DepthDuration/v2_depth_duration_MTurk/v2_DepthDuration_HTML.html#81,81,1536,703,1536,864,8-20-2022,11-36-32,138,depth_duration_stimuli/000635_2014-06-08_16-38-42_260595134347_rgbf000106-resize_1/000635_2014-06-08_16-38-42_260595134347_rgbf000106-resize_1-target.png,250,2.074,7,1375,244,feet,jsons/v1_VE250_randls_18_rotated.json,422790,525364,37,Man
138,639264,DepthScenes,duration_manipulation_targetAtFixation,jsons/v1_VE250_randls_18_rotated.json,http://54.235.29.9/FacialAge/BNav_EC2/DepthDuration/v2_depth_duration_MTurk/v2_DepthDuration_HTML.html#81,81,1536,703,1536,864,8-20-2022,11-36-32,139,depth_duration_stimuli/002279_2014-06-28_18-55-32_260595134347_rgbf000040-resize_5/002279_2014-06-28_18-55-32_260595134347_rgbf000040-resize_5-target.png,250,1.5043333333333,3,1722,260,feet,jsons/v1_VE250_randls_18_rotated.json,422790,525364,37,Man
139,639264,DepthScenes,duration_manipulation_targetAtFixation,jsons/v1_VE250_randls_18_rotated.json,http://54.235.29.9/FacialAge/BNav_EC2/DepthDuration/v2_depth_duration_MTurk/v2_DepthDuration_HTML.html#81,81,1536,703,1536,864,8-20-2022,11-36-32,140,depth_duration_stimuli/000734_2014-06-08_17-39-11_260595134347_rgbf000128-resize_2/000734_2014-06-08_17-39-11_260595134347_rgbf000128-resize_2-target.png,250,4.098,8,1420,257,feet,jsons/v1_VE250_randls_18_rotated.json,422790,525364,37,Man
140,639264,DepthScenes,duration_manipulation_targetAtFixation,jsons/v1_VE250_randls_18_rotated.json,http://54.235.29.9/FacialAge/BNav_EC2/DepthDuration/v2_depth_duration_MTurk/v2_DepthDuration_HTML.html#81,81,1536,703,1536,864,8-20-2022,11-36-32,141,depth_duration_stimuli/000739_2014-06-08_18-45-58_260595134347_rgbf000068-resize_1/000739_2014-06-08_18-45-58_260595134347_rgbf000068-resize_1-target.png,250,3.534,10,2007,238,feet,jsons/v1_VE250_randls_18_rotated.json,422790,525364,37,Man
141,639264,DepthScenes,duration_manipulation_targetAtFixation,jsons/v1_VE250_randls_18_rotated.json,http://54.235.29.9/FacialAge/BNav_EC2/DepthDuration/v2_depth_duration_MTurk/v2_DepthDuration_HTML.html#81,81,1536,703,1536,864,8-20-2022,11-36-32,142,depth_duration_stimuli/001052_2014-06-08_18-24-54_260595134347_rgbf000130-resize_1/001052_2014-06-08_18-24-54_260595134347_rgbf000130-resize_1-target.png,250,4.1045,10,1826,242,feet,jsons/v1_VE250_randls_18_rotated.json,422790,525364,37,Man
142,639264,DepthScenes,duration_manipulation_targetAtFixation,jsons/v1_VE250_randls_18_rotated.json,http://54.235.29.9/FacialAge/BNav_EC2/DepthDuration/v2_depth_duration_MTurk/v2_DepthDuration_HTML.html#81,81,1536,703,1536,864,8-20-2022,11-36-32,143,depth_duration_stimuli/002988_2014-06-15_12-24-20_094959634447_rgbf000150-resize_1/002988_2014-06-15_12-24-20_094959634447_rgbf000150-resize_1-target.png,250,4.7669999999999995,11,1590,245,feet,jsons/v1_VE250_randls_18_rotated.json,422790,525364,37,Man
143,639264,DepthScenes,duration_manipulation_targetAtFixation,jsons/v1_VE250_randls_18_rotated.json,http://54.235.29.9/FacialAge/BNav_EC2/DepthDuration/v2_depth_duration_MTurk/v2_DepthDuration_HTML.html#81,81,1536,703,1536,864,8-20-2022,11-36-32,144,depth_duration_stimuli/002467_2014-06-28_20-38-07_260595134347_rgbf000026-resize_2/002467_2014-06-28_20-38-07_260595134347_rgbf000026-resize_2-target.png,250,4.742,12,1668,252,feet,jsons/v1_VE250_randls_18_rotated.json,422790,525364,37,Man
144,639264,DepthScenes,duration_manipulation_targetAtFixation,jsons/v1_VE250_randls_18_rotated.json,http://54.235.29.9/FacialAge/BNav_EC2/DepthDuration/v2_depth_duration_MTurk/v2_DepthDuration_HTML.html#81,81,1536,703,1536,864,8-20-2022,11-36-32,145,depth_duration_stimuli/002570_2014-06-24_13-59-54_094959634447_rgbf000059-resize_0/002570_2014-06-24_13-59-54_094959634447_rgbf000059-resize_0-target.png,250,4.037,9,1825,254,feet,jsons/v1_VE250_randls_18_rotated.json,422790,525364,37,Man
145,639264,DepthScenes,duration_manipulation_targetAtFixation,jsons/v1_VE250_randls_18_rotated.json,http://54.235.29.9/FacialAge/BNav_EC2/DepthDuration/v2_depth_duration_MTurk/v2_DepthDuration_HTML.html#81,81,1536,703,1536,864,8-20-2022,11-36-32,146,depth_duration_stimuli/002444_2014-06-28_20-32-08_260595134347_rgbf000027-resize_0/002444_2014-06-28_20-32-08_260595134347_rgbf000027-resize_0-target.png,250,4.388999999999999,10,1825,245,feet,jsons/v1_VE250_randls_18_rotated.json,422790,525364,37,Man
146,639264,DepthScenes,duration_manipulation_targetAtFixation,jsons/v1_VE250_randls_18_rotated.json,http://54.235.29.9/FacialAge/BNav_EC2/DepthDuration/v2_depth_duration_MTurk/v2_DepthDuration_HTML.html#81,81,1536,703,1536,864,8-20-2022,11-36-32,147,depth_duration_stimuli/000436_2014-06-09_22-25-11_260595134347_rgbf000137-resize_1/000436_2014-06-09_22-25-11_260595134347_rgbf000137-resize_1-target.png,250,4.0705,13,2034,250,feet,jsons/v1_VE250_randls_18_rotated.json,422790,525364,37,Man
147,639264,DepthScenes,duration_manipulation_targetAtFixation,jsons/v1_VE250_randls_18_rotated.json,http://54.235.29.9/FacialAge/BNav_EC2/DepthDuration/v2_depth_duration_MTurk/v2_DepthDuration_HTML.html#81,81,1536,703,1536,864,8-20-2022,11-36-32,148,depth_duration_stimuli/001235_2014-06-17_16-37-36_260595134347_rgbf000084-resize_4/001235_2014-06-17_16-37-36_260595134347_rgbf000084-resize_4-target.png,250,3.6605,10,1639,244,feet,jsons/v1_VE250_randls_18_rotated.json,422790,525364,37,Man
148,639264,DepthScenes,duration_manipulation_targetAtFixation,jsons/v1_VE250_randls_18_rotated.json,http://54.235.29.9/FacialAge/BNav_EC2/DepthDuration/v2_depth_duration_MTurk/v2_DepthDuration_HTML.html#81,81,1536,703,1536,864,8-20-2022,11-36-32,149,depth_duration_stimuli/000788_2014-06-08_22-34-36_260595134347_rgbf000131-resize_1/000788_2014-06-08_22-34-36_260595134347_rgbf000131-resize_1-target.png,250,3.359,7,1696,251,feet,jsons/v1_VE250_randls_18_rotated.json,422790,525364,37,Man
149,639264,DepthScenes,duration_manipulation_targetAtFixation,jsons/v1_VE250_randls_18_rotated.json,http://54.235.29.9/FacialAge/BNav_EC2/DepthDuration/v2_depth_duration_MTurk/v2_DepthDuration_HTML.html#81,81,1536,703,1536,864,8-20-2022,11-36-32,150,depth_duration_stimuli/003490_2014-05-21_15-50-11_094959634447_rgbf000101-resize_3/003490_2014-05-21_15-50-11_094959634447_rgbf000101-resize_3-target.png,250,3.6445,9,1450,250,feet,jsons/v1_VE250_randls_18_rotated.json,422790,525364,37,Man
150,639264,DepthScenes,duration_manipulation_targetAtFixation,jsons/v1_VE250_randls_18_rotated.json,http://54.235.29.9/FacialAge/BNav_EC2/DepthDuration/v2_depth_duration_MTurk/v2_DepthDuration_HTML.html#81,81,1536,703,1536,864,8-20-2022,11-36-32,151,depth_duration_stimuli/001175_2014-06-17_15-45-55_260595134347_rgbf000129-resize_4/001175_2014-06-17_15-45-55_260595134347_rgbf000129-resize_4-target.png,250,4.255,11,1921,257,feet,jsons/v1_VE250_randls_18_rotated.json,422790,525364,37,Man
151,639264,DepthScenes,duration_manipulation_targetAtFixation,jsons/v1_VE250_randls_18_rotated.json,http://54.235.29.9/FacialAge/BNav_EC2/DepthDuration/v2_depth_duration_MTurk/v2_DepthDuration_HTML.html#81,81,1536,703,1536,864,8-20-2022,11-36-32,152,depth_duration_stimuli/000569_2014-06-09_22-51-47_260595134347_rgbf000141-resize_3/000569_2014-06-09_22-51-47_260595134347_rgbf000141-resize-original.jpg,250,4.512,0,1385,244,feet,jsons/v1_VE250_randls_18_rotated.json,422790,525364,37,Man
152,639264,DepthScenes,duration_manipulation_targetAtFixation,jsons/v1_VE250_randls_18_rotated.json,http://54.235.29.9/FacialAge/BNav_EC2/DepthDuration/v2_depth_duration_MTurk/v2_DepthDuration_HTML.html#81,81,1536,703,1536,864,8-20-2022,11-36-32,153,depth_duration_stimuli/000549_2014-06-08_22-10-24_260595134347_rgbf000247-resize_3/000549_2014-06-08_22-10-24_260595134347_rgbf000247-resize_3-target.png,250,1.841,3,1363,249,feet,jsons/v1_VE250_randls_18_rotated.json,422790,525364,37,Man
153,639264,DepthScenes,duration_manipulation_targetAtFixation,jsons/v1_VE250_randls_18_rotated.json,http://54.235.29.9/FacialAge/BNav_EC2/DepthDuration/v2_depth_duration_MTurk/v2_DepthDuration_HTML.html#81,81,1536,703,1536,864,8-20-2022,11-36-32,154,depth_duration_stimuli/001055_2014-06-08_18-45-35_260595134347_rgbf000111-resize_4/001055_2014-06-08_18-45-35_260595134347_rgbf000111-resize_4-target.png,250,2.4290000000000003,8,1661,238,feet,jsons/v1_VE250_randls_18_rotated.json,422790,525364,37,Man
154,639264,DepthScenes,duration_manipulation_targetAtFixation,jsons/v1_VE250_randls_18_rotated.json,http://54.235.29.9/FacialAge/BNav_EC2/DepthDuration/v2_depth_duration_MTurk/v2_DepthDuration_HTML.html#81,81,1536,703,1536,864,8-20-2022,11-36-32,155,depth_duration_stimuli/003081_2014-06-15_15-19-16_094959634447_rgbf000150-resize_1/003081_2014-06-15_15-19-16_094959634447_rgbf000150-resize_1-target.png,250,3.9125,10,2147,256,feet,jsons/v1_VE250_randls_18_rotated.json,422790,525364,37,Man
155,639264,DepthScenes,duration_manipulation_targetAtFixation,jsons/v1_VE250_randls_18_rotated.json,http://54.235.29.9/FacialAge/BNav_EC2/DepthDuration/v2_depth_duration_MTurk/v2_DepthDuration_HTML.html#81,81,1536,703,1536,864,8-20-2022,11-36-32,156,depth_duration_stimuli/001417_2014-06-19_16-25-36_260595134347_rgbf000115-resize_5/001417_2014-06-19_16-25-36_260595134347_rgbf000115-resize_5-target.png,250,4.6255,11,2716,251,feet,jsons/v1_VE250_randls_18_rotated.json,422790,525364,37,Man
156,639264,DepthScenes,duration_manipulation_targetAtFixation,jsons/v1_VE250_randls_18_rotated.json,http://54.235.29.9/FacialAge/BNav_EC2/DepthDuration/v2_depth_duration_MTurk/v2_DepthDuration_HTML.html#81,81,1536,703,1536,864,8-20-2022,11-36-32,157,depth_duration_stimuli/001094_2014-06-15_17-36-00_260595134347_rgbf000205-resize_0/001094_2014-06-15_17-36-00_260595134347_rgbf000205-resize_0-target.png,250,4.2175,13,1539,251,feet,jsons/v1_VE250_randls_18_rotated.json,422790,525364,37,Man
157,639264,DepthScenes,duration_manipulation_targetAtFixation,jsons/v1_VE250_randls_18_rotated.json,http://54.235.29.9/FacialAge/BNav_EC2/DepthDuration/v2_depth_duration_MTurk/v2_DepthDuration_HTML.html#81,81,1536,703,1536,864,8-20-2022,11-36-32,158,depth_duration_stimuli/000692_2014-06-08_13-09-42_260595134347_rgbf000199-resize_2/000692_2014-06-08_13-09-42_260595134347_rgbf000199-resize_2-target.png,250,3.661,16,2984,254,feet,jsons/v1_VE250_randls_18_rotated.json,422790,525364,37,Man
158,639264,DepthScenes,duration_manipulation_targetAtFixation,jsons/v1_VE250_randls_18_rotated.json,http://54.235.29.9/FacialAge/BNav_EC2/DepthDuration/v2_depth_duration_MTurk/v2_DepthDuration_HTML.html#81,81,1536,703,1536,864,8-20-2022,11-36-32,159,depth_duration_stimuli/000927_2014-06-09_16-32-30_260595134347_rgbf000123-resize_3/000927_2014-06-09_16-32-30_260595134347_rgbf000123-resize_3-target.png,250,2.6785,4,1466,253,feet,jsons/v1_VE250_randls_18_rotated.json,422790,525364,37,Man
159,639264,DepthScenes,duration_manipulation_targetAtFixation,jsons/v1_VE250_randls_18_rotated.json,http://54.235.29.9/FacialAge/BNav_EC2/DepthDuration/v2_depth_duration_MTurk/v2_DepthDuration_HTML.html#81,81,1536,703,1536,864,8-20-2022,11-36-32,160,depth_duration_stimuli/001110_2014-06-15_17-25-28_260595134347_rgbf000150-resize_1/001110_2014-06-15_17-25-28_260595134347_rgbf000150-resize_1-target.png,250,1.7115,5,1247,245,feet,jsons/v1_VE250_randls_18_rotated.json,422790,525364,37,Man
160,639264,DepthScenes,duration_manipulation_targetAtFixation,jsons/v1_VE250_randls_18_rotated.json,http://54.235.29.9/FacialAge/BNav_EC2/DepthDuration/v2_depth_duration_MTurk/v2_DepthDuration_HTML.html#81,81,1536,703,1536,864,8-20-2022,11-36-32,161,depth_duration_stimuli/002657_2014-06-13_15-29-54_094959634447_rgbf000150-resize_1/002657_2014-06-13_15-29-54_094959634447_rgbf000150-resize_1-target.png,250,4.919,9,1397,258,feet,jsons/v1_VE250_randls_18_rotated.json,422790,525364,37,Man
161,639264,DepthScenes,duration_manipulation_targetAtFixation,jsons/v1_VE250_randls_18_rotated.json,http://54.235.29.9/FacialAge/BNav_EC2/DepthDuration/v2_depth_duration_MTurk/v2_DepthDuration_HTML.html#81,81,1536,703,1536,864,8-20-2022,11-36-32,162,depth_duration_stimuli/002375_2014-06-28_20-13-44_260595134347_rgbf000032-resize_1/002375_2014-06-28_20-13-44_260595134347_rgbf000032-resize_1-target.png,250,4.0175,10,1978,244,feet,jsons/v1_VE250_randls_18_rotated.json,422790,525364,37,Man
162,639264,DepthScenes,duration_manipulation_targetAtFixation,jsons/v1_VE250_randls_18_rotated.json,http://54.235.29.9/FacialAge/BNav_EC2/DepthDuration/v2_depth_duration_MTurk/v2_DepthDuration_HTML.html#81,81,1536,703,1536,864,8-20-2022,11-36-32,163,depth_duration_stimuli/003338_2014-05-20_11-01-23_094959634447_rgbf000051-resize_6/003338_2014-05-20_11-01-23_094959634447_rgbf000051-resize_6-target.png,250,1.693,3,1511,258,feet,jsons/v1_VE250_randls_18_rotated.json,422790,525364,37,Man
163,639264,DepthScenes,duration_manipulation_targetAtFixation,jsons/v1_VE250_randls_18_rotated.json,http://54.235.29.9/FacialAge/BNav_EC2/DepthDuration/v2_depth_duration_MTurk/v2_DepthDuration_HTML.html#81,81,1536,703,1536,864,8-20-2022,11-36-32,164,depth_duration_stimuli/002509_2014-06-24_13-19-22_094959634447_rgbf000077-resize_0/002509_2014-06-24_13-19-22_094959634447_rgbf000077-resize_0-target.png,250,1.3065,2,1427,257,feet,jsons/v1_VE250_randls_18_rotated.json,422790,525364,37,Man
