,subjID,experimentName,versionName,sequenceName,url,selected_row,windowWidth,windowHeight,screenWidth,screenHeight,startDate,startTime,trial,stimulus,duration,actual_depth,depth_estimate,trial_RT,log_sceneDuration,unitSelection,seq_filepath,experimentTime,totalTime,age,gender
0,639413,DepthScenes,duration_manipulation_targetAtFixation,jsons/VE125_randls_15.json,http://54.235.29.9/FacialAge/BNav_EC2/DepthDuration/v2_depth_duration_MTurk/v2_DepthDuration_HTML.html#5,5,1600,789,1600,900,8-21-2022,10-56-46,1,depth_duration_stimuli/002964_2014-06-08_17-46-11_094959634447_rgbf000091-resize_4/002964_2014-06-08_17-46-11_094959634447_rgbf000091-resize_4-target.png,125,1.6909999999999998,2,19828,125,meters,jsons/VE125_randls_15.json,642201,1123102,30,Woman
1,639413,DepthScenes,duration_manipulation_targetAtFixation,jsons/VE125_randls_15.json,http://54.235.29.9/FacialAge/BNav_EC2/DepthDuration/v2_depth_duration_MTurk/v2_DepthDuration_HTML.html#5,5,1600,789,1600,900,8-21-2022,10-56-46,2,depth_duration_stimuli/002136_2014-06-25_21-18-03_260595134347_rgbf000109-resize_3/002136_2014-06-25_21-18-03_260595134347_rgbf000109-resize_3-target.png,125,1.9569999999999999,2,3457,126,meters,jsons/VE125_randls_15.json,642201,1123102,30,Woman
2,639413,DepthScenes,duration_manipulation_targetAtFixation,jsons/VE125_randls_15.json,http://54.235.29.9/FacialAge/BNav_EC2/DepthDuration/v2_depth_duration_MTurk/v2_DepthDuration_HTML.html#5,5,1600,789,1600,900,8-21-2022,10-56-46,3,depth_duration_stimuli/002272_2014-06-28_18-53-56_260595134347_rgbf000067-resize_2/002272_2014-06-28_18-53-56_260595134347_rgbf000067-resize_2-target.png,125,1.138,1,4859,125,meters,jsons/VE125_randls_15.json,642201,1123102,30,Woman
3,639413,DepthScenes,duration_manipulation_targetAtFixation,jsons/VE125_randls_15.json,http://54.235.29.9/FacialAge/BNav_EC2/DepthDuration/v2_depth_duration_MTurk/v2_DepthDuration_HTML.html#5,5,1600,789,1600,900,8-21-2022,10-56-46,4,depth_duration_stimuli/001571_2014-06-20_17-21-32_260595134347_rgbf000089-resize_1/001571_2014-06-20_17-21-32_260595134347_rgbf000089-resize_1-target.png,125,1.86,2,3403,124,meters,jsons/VE125_randls_15.json,642201,1123102,30,Woman
4,639413,DepthScenes,duration_manipulation_targetAtFixation,jsons/VE125_randls_15.json,http://54.235.29.9/FacialAge/BNav_EC2/DepthDuration/v2_depth_duration_MTurk/v2_DepthDuration_HTML.html#5,5,1600,789,1600,900,8-21-2022,10-56-46,5,depth_duration_stimuli/002988_2014-06-15_12-24-20_094959634447_rgbf000150-resize_1/002988_2014-06-15_12-24-20_094959634447_rgbf000150-resize_1-target.png,125,4.7669999999999995,2,5496,124,meters,jsons/VE125_randls_15.json,642201,1123102,30,Woman
5,639413,DepthScenes,duration_manipulation_targetAtFixation,jsons/VE125_randls_15.json,http://54.235.29.9/FacialAge/BNav_EC2/DepthDuration/v2_depth_duration_MTurk/v2_DepthDuration_HTML.html#5,5,1600,789,1600,900,8-21-2022,10-56-46,6,depth_duration_stimuli/001052_2014-06-08_18-24-54_260595134347_rgbf000130-resize_1/001052_2014-06-08_18-24-54_260595134347_rgbf000130-resize_1-target.png,125,4.1045,1,3939,124,meters,jsons/VE125_randls_15.json,642201,1123102,30,Woman
6,639413,DepthScenes,duration_manipulation_targetAtFixation,jsons/VE125_randls_15.json,http://54.235.29.9/FacialAge/BNav_EC2/DepthDuration/v2_depth_duration_MTurk/v2_DepthDuration_HTML.html#5,5,1600,789,1600,900,8-21-2022,10-56-46,7,depth_duration_stimuli/001110_2014-06-15_17-25-28_260595134347_rgbf000150-resize_1/001110_2014-06-15_17-25-28_260595134347_rgbf000150-resize_1-target.png,125,1.7115,2,3553,125,meters,jsons/VE125_randls_15.json,642201,1123102,30,Woman
7,639413,DepthScenes,duration_manipulation_targetAtFixation,jsons/VE125_randls_15.json,http://54.235.29.9/FacialAge/BNav_EC2/DepthDuration/v2_depth_duration_MTurk/v2_DepthDuration_HTML.html#5,5,1600,789,1600,900,8-21-2022,10-56-46,8,depth_duration_stimuli/000927_2014-06-09_16-32-30_260595134347_rgbf000123-resize_3/000927_2014-06-09_16-32-30_260595134347_rgbf000123-resize_3-target.png,125,2.6785,3,3572,126,meters,jsons/VE125_randls_15.json,642201,1123102,30,Woman
8,639413,DepthScenes,duration_manipulation_targetAtFixation,jsons/VE125_randls_15.json,http://54.235.29.9/FacialAge/BNav_EC2/DepthDuration/v2_depth_duration_MTurk/v2_DepthDuration_HTML.html#5,5,1600,789,1600,900,8-21-2022,10-56-46,9,depth_duration_stimuli/002748_2014-06-22_19-07-22_094959634447_rgbf000078-resize_1/002748_2014-06-22_19-07-22_094959634447_rgbf000078-resize_1-target.png,125,4.6705,2,3314,124,meters,jsons/VE125_randls_15.json,642201,1123102,30,Woman
9,639413,DepthScenes,duration_manipulation_targetAtFixation,jsons/VE125_randls_15.json,http://54.235.29.9/FacialAge/BNav_EC2/DepthDuration/v2_depth_duration_MTurk/v2_DepthDuration_HTML.html#5,5,1600,789,1600,900,8-21-2022,10-56-46,10,depth_duration_stimuli/002995_2014-06-15_12-31-26_094959634447_rgbf000150-resize_1/002995_2014-06-15_12-31-26_094959634447_rgbf000150-resize_1-target.png,125,3.8360000000000003,1,3931,124,meters,jsons/VE125_randls_15.json,642201,1123102,30,Woman
10,639413,DepthScenes,duration_manipulation_targetAtFixation,jsons/VE125_randls_15.json,http://54.235.29.9/FacialAge/BNav_EC2/DepthDuration/v2_depth_duration_MTurk/v2_DepthDuration_HTML.html#5,5,1600,789,1600,900,8-21-2022,10-56-46,11,depth_duration_stimuli/000773_2014-06-08_22-24-54_260595134347_rgbf000093-resize_1/000773_2014-06-08_22-24-54_260595134347_rgbf000093-resize_1-target.png,125,4.973,2,3170,125,meters,jsons/VE125_randls_15.json,642201,1123102,30,Woman
11,639413,DepthScenes,duration_manipulation_targetAtFixation,jsons/VE125_randls_15.json,http://54.235.29.9/FacialAge/BNav_EC2/DepthDuration/v2_depth_duration_MTurk/v2_DepthDuration_HTML.html#5,5,1600,789,1600,900,8-21-2022,10-56-46,12,depth_duration_stimuli/002414_2014-06-28_20-24-58_260595134347_rgbf000067-resize_4/002414_2014-06-28_20-24-58_260595134347_rgbf000067-resize_4-target.png,125,4.363,2,3348,125,meters,jsons/VE125_randls_15.json,642201,1123102,30,Woman
12,639413,DepthScenes,duration_manipulation_targetAtFixation,jsons/VE125_randls_15.json,http://54.235.29.9/FacialAge/BNav_EC2/DepthDuration/v2_depth_duration_MTurk/v2_DepthDuration_HTML.html#5,5,1600,789,1600,900,8-21-2022,10-56-46,13,depth_duration_stimuli/000569_2014-06-09_22-51-47_260595134347_rgbf000141-resize_3/000569_2014-06-09_22-51-47_260595134347_rgbf000141-resize-original.jpg,125,4.512,0,3586,125,meters,jsons/VE125_randls_15.json,642201,1123102,30,Woman
13,639413,DepthScenes,duration_manipulation_targetAtFixation,jsons/VE125_randls_15.json,http://54.235.29.9/FacialAge/BNav_EC2/DepthDuration/v2_depth_duration_MTurk/v2_DepthDuration_HTML.html#5,5,1600,789,1600,900,8-21-2022,10-56-46,14,depth_duration_stimuli/002279_2014-06-28_18-55-32_260595134347_rgbf000040-resize_5/002279_2014-06-28_18-55-32_260595134347_rgbf000040-resize_5-target.png,125,1.5043333333333,2,3082,124,meters,jsons/VE125_randls_15.json,642201,1123102,30,Woman
14,639413,DepthScenes,duration_manipulation_targetAtFixation,jsons/VE125_randls_15.json,http://54.235.29.9/FacialAge/BNav_EC2/DepthDuration/v2_depth_duration_MTurk/v2_DepthDuration_HTML.html#5,5,1600,789,1600,900,8-21-2022,10-56-46,15,depth_duration_stimuli/000635_2014-06-08_16-38-42_260595134347_rgbf000106-resize_1/000635_2014-06-08_16-38-42_260595134347_rgbf000106-resize_1-target.png,125,2.074,2,3227,125,meters,jsons/VE125_randls_15.json,642201,1123102,30,Woman
15,639413,DepthScenes,duration_manipulation_targetAtFixation,jsons/VE125_randls_15.json,http://54.235.29.9/FacialAge/BNav_EC2/DepthDuration/v2_depth_duration_MTurk/v2_DepthDuration_HTML.html#5,5,1600,789,1600,900,8-21-2022,10-56-46,16,depth_duration_stimuli/001417_2014-06-19_16-25-36_260595134347_rgbf000115-resize_5/001417_2014-06-19_16-25-36_260595134347_rgbf000115-resize_5-target.png,125,4.6255,2,17562,125,meters,jsons/VE125_randls_15.json,642201,1123102,30,Woman
16,639413,DepthScenes,duration_manipulation_targetAtFixation,jsons/VE125_randls_15.json,http://54.235.29.9/FacialAge/BNav_EC2/DepthDuration/v2_depth_duration_MTurk/v2_DepthDuration_HTML.html#5,5,1600,789,1600,900,8-21-2022,10-56-46,17,depth_duration_stimuli/003081_2014-06-15_15-19-16_094959634447_rgbf000150-resize_1/003081_2014-06-15_15-19-16_094959634447_rgbf000150-resize_1-target.png,125,3.9125,2,3649,126,meters,jsons/VE125_randls_15.json,642201,1123102,30,Woman
17,639413,DepthScenes,duration_manipulation_targetAtFixation,jsons/VE125_randls_15.json,http://54.235.29.9/FacialAge/BNav_EC2/DepthDuration/v2_depth_duration_MTurk/v2_DepthDuration_HTML.html#5,5,1600,789,1600,900,8-21-2022,10-56-46,18,depth_duration_stimuli/003492_2014-05-21_15-50-55_094959634447_rgbf000828-resize_1/003492_2014-05-21_15-50-55_094959634447_rgbf000828-resize_1-target.png,125,4.06875,2,3474,126,meters,jsons/VE125_randls_15.json,642201,1123102,30,Woman
18,639413,DepthScenes,duration_manipulation_targetAtFixation,jsons/VE125_randls_15.json,http://54.235.29.9/FacialAge/BNav_EC2/DepthDuration/v2_depth_duration_MTurk/v2_DepthDuration_HTML.html#5,5,1600,789,1600,900,8-21-2022,10-56-46,19,depth_duration_stimuli/002568_2014-06-24_13-59-21_094959634447_rgbf000062-resize_4/002568_2014-06-24_13-59-21_094959634447_rgbf000062-resize_4-target.png,125,3.015,2,3293,126,meters,jsons/VE125_randls_15.json,642201,1123102,30,Woman
19,639413,DepthScenes,duration_manipulation_targetAtFixation,jsons/VE125_randls_15.json,http://54.235.29.9/FacialAge/BNav_EC2/DepthDuration/v2_depth_duration_MTurk/v2_DepthDuration_HTML.html#5,5,1600,789,1600,900,8-21-2022,10-56-46,20,depth_duration_stimuli/002989_2014-06-15_12-25-03_094959634447_rgbf000150-resize_3/002989_2014-06-15_12-25-03_094959634447_rgbf000150-resize_3-target.png,125,4.1975,2,3241,126,meters,jsons/VE125_randls_15.json,642201,1123102,30,Woman
20,639413,DepthScenes,duration_manipulation_targetAtFixation,jsons/VE125_randls_15.json,http://54.235.29.9/FacialAge/BNav_EC2/DepthDuration/v2_depth_duration_MTurk/v2_DepthDuration_HTML.html#5,5,1600,789,1600,900,8-21-2022,10-56-46,21,depth_duration_stimuli/000866_2014-06-09_20-45-42_260595134347_rgbf000139-resize_1/000866_2014-06-09_20-45-42_260595134347_rgbf000139-resize_1-target.png,125,3.2155,2,3452,125,meters,jsons/VE125_randls_15.json,642201,1123102,30,Woman
21,639413,DepthScenes,duration_manipulation_targetAtFixation,jsons/VE125_randls_15.json,http://54.235.29.9/FacialAge/BNav_EC2/DepthDuration/v2_depth_duration_MTurk/v2_DepthDuration_HTML.html#5,5,1600,789,1600,900,8-21-2022,10-56-46,22,depth_duration_stimuli/001810_2014-06-26_20-51-35_260595134347_rgbf000040-resize_3/001810_2014-06-26_20-51-35_260595134347_rgbf000040-resize_3-target.png,125,2.2525,2,28093,125,meters,jsons/VE125_randls_15.json,642201,1123102,30,Woman
22,639413,DepthScenes,duration_manipulation_targetAtFixation,jsons/VE125_randls_15.json,http://54.235.29.9/FacialAge/BNav_EC2/DepthDuration/v2_depth_duration_MTurk/v2_DepthDuration_HTML.html#5,5,1600,789,1600,900,8-21-2022,10-56-46,23,depth_duration_stimuli/003010_2014-06-15_12-54-35_094959634447_rgbf000112-resize_0/003010_2014-06-15_12-54-35_094959634447_rgbf000112-resize_0-target.png,125,3.1185,2,4705,126,meters,jsons/VE125_randls_15.json,642201,1123102,30,Woman
23,639413,DepthScenes,duration_manipulation_targetAtFixation,jsons/VE125_randls_15.json,http://54.235.29.9/FacialAge/BNav_EC2/DepthDuration/v2_depth_duration_MTurk/v2_DepthDuration_HTML.html#5,5,1600,789,1600,900,8-21-2022,10-56-46,24,depth_duration_stimuli/000486_2014-06-09_20-47-20_260595134347_rgbf000143-resize_2/000486_2014-06-09_20-47-20_260595134347_rgbf000143-resize_2-target.png,125,4.8325,1,3234,125,meters,jsons/VE125_randls_15.json,642201,1123102,30,Woman
24,639413,DepthScenes,duration_manipulation_targetAtFixation,jsons/VE125_randls_15.json,http://54.235.29.9/FacialAge/BNav_EC2/DepthDuration/v2_depth_duration_MTurk/v2_DepthDuration_HTML.html#5,5,1600,789,1600,900,8-21-2022,10-56-46,25,depth_duration_stimuli/003083_2014-06-15_15-21-03_094959634447_rgbf000063-resize_1/003083_2014-06-15_15-21-03_094959634447_rgbf000063-resize_1-target.png,125,4.1405,2,3002,125,meters,jsons/VE125_randls_15.json,642201,1123102,30,Woman
25,639413,DepthScenes,duration_manipulation_targetAtFixation,jsons/VE125_randls_15.json,http://54.235.29.9/FacialAge/BNav_EC2/DepthDuration/v2_depth_duration_MTurk/v2_DepthDuration_HTML.html#5,5,1600,789,1600,900,8-21-2022,10-56-46,26,depth_duration_stimuli/002375_2014-06-28_20-13-44_260595134347_rgbf000032-resize_1/002375_2014-06-28_20-13-44_260595134347_rgbf000032-resize_1-target.png,125,4.0175,2,3553,126,meters,jsons/VE125_randls_15.json,642201,1123102,30,Woman
26,639413,DepthScenes,duration_manipulation_targetAtFixation,jsons/VE125_randls_15.json,http://54.235.29.9/FacialAge/BNav_EC2/DepthDuration/v2_depth_duration_MTurk/v2_DepthDuration_HTML.html#5,5,1600,789,1600,900,8-21-2022,10-56-46,27,depth_duration_stimuli/002657_2014-06-13_15-29-54_094959634447_rgbf000150-resize_1/002657_2014-06-13_15-29-54_094959634447_rgbf000150-resize_1-target.png,125,4.919,2,4602,125,meters,jsons/VE125_randls_15.json,642201,1123102,30,Woman
27,639413,DepthScenes,duration_manipulation_targetAtFixation,jsons/VE125_randls_15.json,http://54.235.29.9/FacialAge/BNav_EC2/DepthDuration/v2_depth_duration_MTurk/v2_DepthDuration_HTML.html#5,5,1600,789,1600,900,8-21-2022,10-56-46,28,depth_duration_stimuli/001199_2014-06-17_16-03-48_260595134347_rgbf000077-resize_0/001199_2014-06-17_16-03-48_260595134347_rgbf000077-resize_0-target.png,125,3.4375,2,2683,125,meters,jsons/VE125_randls_15.json,642201,1123102,30,Woman
28,639413,DepthScenes,duration_manipulation_targetAtFixation,jsons/VE125_randls_15.json,http://54.235.29.9/FacialAge/BNav_EC2/DepthDuration/v2_depth_duration_MTurk/v2_DepthDuration_HTML.html#5,5,1600,789,1600,900,8-21-2022,10-56-46,29,depth_duration_stimuli/000502_2014-06-08_23-02-32_260595134347_rgbf000063-resize_4/000502_2014-06-08_23-02-32_260595134347_rgbf000063-resize_4-target.png,125,2.431,1,2988,126,meters,jsons/VE125_randls_15.json,642201,1123102,30,Woman
29,639413,DepthScenes,duration_manipulation_targetAtFixation,jsons/VE125_randls_15.json,http://54.235.29.9/FacialAge/BNav_EC2/DepthDuration/v2_depth_duration_MTurk/v2_DepthDuration_HTML.html#5,5,1600,789,1600,900,8-21-2022,10-56-46,30,depth_duration_stimuli/000375_2014-06-08_11-17-29_260595134347_rgbf000133-resize_2/000375_2014-06-08_11-17-29_260595134347_rgbf000133-resize-original.jpg,125,4.718,0,2715,125,meters,jsons/VE125_randls_15.json,642201,1123102,30,Woman
30,639413,DepthScenes,duration_manipulation_targetAtFixation,jsons/VE125_randls_15.json,http://54.235.29.9/FacialAge/BNav_EC2/DepthDuration/v2_depth_duration_MTurk/v2_DepthDuration_HTML.html#5,5,1600,789,1600,900,8-21-2022,10-56-46,31,depth_duration_stimuli/001066_2014-06-08_22-03-20_260595134347_rgbf000066-resize_4/001066_2014-06-08_22-03-20_260595134347_rgbf000066-resize_4-target.png,125,4.2330000000000005,2,2495,125,meters,jsons/VE125_randls_15.json,642201,1123102,30,Woman
31,639413,DepthScenes,duration_manipulation_targetAtFixation,jsons/VE125_randls_15.json,http://54.235.29.9/FacialAge/BNav_EC2/DepthDuration/v2_depth_duration_MTurk/v2_DepthDuration_HTML.html#5,5,1600,789,1600,900,8-21-2022,10-56-46,32,depth_duration_stimuli/000742_2014-06-08_18-48-09_260595134347_rgbf000164-resize_4/000742_2014-06-08_18-48-09_260595134347_rgbf000164-resize_4-target.png,125,4.632,2,2590,125,meters,jsons/VE125_randls_15.json,642201,1123102,30,Woman
32,639413,DepthScenes,duration_manipulation_targetAtFixation,jsons/VE125_randls_15.json,http://54.235.29.9/FacialAge/BNav_EC2/DepthDuration/v2_depth_duration_MTurk/v2_DepthDuration_HTML.html#5,5,1600,789,1600,900,8-21-2022,10-56-46,33,depth_duration_stimuli/001806_2014-06-26_20-50-20_260595134347_rgbf000091-resize_1/001806_2014-06-26_20-50-20_260595134347_rgbf000091-resize_1-target.png,125,2.7305,2,4524,125,meters,jsons/VE125_randls_15.json,642201,1123102,30,Woman
33,639413,DepthScenes,duration_manipulation_targetAtFixation,jsons/VE125_randls_15.json,http://54.235.29.9/FacialAge/BNav_EC2/DepthDuration/v2_depth_duration_MTurk/v2_DepthDuration_HTML.html#5,5,1600,789,1600,900,8-21-2022,10-56-46,34,depth_duration_stimuli/001617_2014-06-20_11-35-32_260595134347_rgbf000066-resize_1/001617_2014-06-20_11-35-32_260595134347_rgbf000066-resize_1-target.png,125,3.7910000000000004,1,12739,125,meters,jsons/VE125_randls_15.json,642201,1123102,30,Woman
34,639413,DepthScenes,duration_manipulation_targetAtFixation,jsons/VE125_randls_15.json,http://54.235.29.9/FacialAge/BNav_EC2/DepthDuration/v2_depth_duration_MTurk/v2_DepthDuration_HTML.html#5,5,1600,789,1600,900,8-21-2022,10-56-46,35,depth_duration_stimuli/002763_2014-06-22_19-13-10_094959634447_rgbf000075-resize_4/002763_2014-06-22_19-13-10_094959634447_rgbf000075-resize_4-target.png,125,1.68375,2,2732,126,meters,jsons/VE125_randls_15.json,642201,1123102,30,Woman
35,639413,DepthScenes,duration_manipulation_targetAtFixation,jsons/VE125_randls_15.json,http://54.235.29.9/FacialAge/BNav_EC2/DepthDuration/v2_depth_duration_MTurk/v2_DepthDuration_HTML.html#5,5,1600,789,1600,900,8-21-2022,10-56-46,36,depth_duration_stimuli/002209_2014-06-28_18-36-10_260595134347_rgbf000051-resize_1/002209_2014-06-28_18-36-10_260595134347_rgbf000051-resize_1-target.png,125,2.057,2,2428,126,meters,jsons/VE125_randls_15.json,642201,1123102,30,Woman
36,639413,DepthScenes,duration_manipulation_targetAtFixation,jsons/VE125_randls_15.json,http://54.235.29.9/FacialAge/BNav_EC2/DepthDuration/v2_depth_duration_MTurk/v2_DepthDuration_HTML.html#5,5,1600,789,1600,900,8-21-2022,10-56-46,37,depth_duration_stimuli/002905_2014-06-03_18-04-43_094959634447_rgbf000151-resize_2/002905_2014-06-03_18-04-43_094959634447_rgbf000151-resize_2-target.png,125,2.0295,2,2569,126,meters,jsons/VE125_randls_15.json,642201,1123102,30,Woman
37,639413,DepthScenes,duration_manipulation_targetAtFixation,jsons/VE125_randls_15.json,http://54.235.29.9/FacialAge/BNav_EC2/DepthDuration/v2_depth_duration_MTurk/v2_DepthDuration_HTML.html#5,5,1600,789,1600,900,8-21-2022,10-56-46,38,depth_duration_stimuli/003423_2014-05-21_10-23-26_094959634447_rgbf002665-resize_2/003423_2014-05-21_10-23-26_094959634447_rgbf002665-resize_2-target.png,125,3.2575,2,2578,126,meters,jsons/VE125_randls_15.json,642201,1123102,30,Woman
38,639413,DepthScenes,duration_manipulation_targetAtFixation,jsons/VE125_randls_15.json,http://54.235.29.9/FacialAge/BNav_EC2/DepthDuration/v2_depth_duration_MTurk/v2_DepthDuration_HTML.html#5,5,1600,789,1600,900,8-21-2022,10-56-46,39,depth_duration_stimuli/001011_2014-06-08_23-18-54_260595134347_rgbf000044-resize_4/001011_2014-06-08_23-18-54_260595134347_rgbf000044-resize_4-target.png,125,2.4730000000000003,2,2677,124,meters,jsons/VE125_randls_15.json,642201,1123102,30,Woman
39,639413,DepthScenes,duration_manipulation_targetAtFixation,jsons/VE125_randls_15.json,http://54.235.29.9/FacialAge/BNav_EC2/DepthDuration/v2_depth_duration_MTurk/v2_DepthDuration_HTML.html#5,5,1600,789,1600,900,8-21-2022,10-56-46,40,depth_duration_stimuli/002875_2014-06-01_15-19-00_094959634447_rgbf000151-resize_1/002875_2014-06-01_15-19-00_094959634447_rgbf000151-resize_1-target.png,125,1.9675,2,2294,126,meters,jsons/VE125_randls_15.json,642201,1123102,30,Woman
40,639413,DepthScenes,duration_manipulation_targetAtFixation,jsons/VE125_randls_15.json,http://54.235.29.9/FacialAge/BNav_EC2/DepthDuration/v2_depth_duration_MTurk/v2_DepthDuration_HTML.html#5,5,1600,789,1600,900,8-21-2022,10-56-46,41,depth_duration_stimuli/000414_2014-06-04_19-49-13_260595134347_rgbf000044-resize_0/000414_2014-06-04_19-49-13_260595134347_rgbf000044-resize_0-target.png,125,4.329,3,2862,124,meters,jsons/VE125_randls_15.json,642201,1123102,30,Woman
41,639413,DepthScenes,duration_manipulation_targetAtFixation,jsons/VE125_randls_15.json,http://54.235.29.9/FacialAge/BNav_EC2/DepthDuration/v2_depth_duration_MTurk/v2_DepthDuration_HTML.html#5,5,1600,789,1600,900,8-21-2022,10-56-46,42,depth_duration_stimuli/003129_2014-05-12_10-48-10_094959634447_rgbf000100-resize_0/003129_2014-05-12_10-48-10_094959634447_rgbf000100-resize_0-target.png,125,4.9305,2,3037,127,meters,jsons/VE125_randls_15.json,642201,1123102,30,Woman
42,639413,DepthScenes,duration_manipulation_targetAtFixation,jsons/VE125_randls_15.json,http://54.235.29.9/FacialAge/BNav_EC2/DepthDuration/v2_depth_duration_MTurk/v2_DepthDuration_HTML.html#5,5,1600,789,1600,900,8-21-2022,10-56-46,43,depth_duration_stimuli/000506_2014-06-08_23-21-00_260595134347_rgbf000070-resize_7/000506_2014-06-08_23-21-00_260595134347_rgbf000070-resize_7-target.png,125,4.0585,1,2216,125,meters,jsons/VE125_randls_15.json,642201,1123102,30,Woman
43,639413,DepthScenes,duration_manipulation_targetAtFixation,jsons/VE125_randls_15.json,http://54.235.29.9/FacialAge/BNav_EC2/DepthDuration/v2_depth_duration_MTurk/v2_DepthDuration_HTML.html#5,5,1600,789,1600,900,8-21-2022,10-56-46,44,depth_duration_stimuli/003079_2014-06-15_15-18-20_094959634447_rgbf000152-resize_8/003079_2014-06-15_15-18-20_094959634447_rgbf000152-resize_8-target.png,125,2.8775,2,2453,125,meters,jsons/VE125_randls_15.json,642201,1123102,30,Woman
44,639413,DepthScenes,duration_manipulation_targetAtFixation,jsons/VE125_randls_15.json,http://54.235.29.9/FacialAge/BNav_EC2/DepthDuration/v2_depth_duration_MTurk/v2_DepthDuration_HTML.html#5,5,1600,789,1600,900,8-21-2022,10-56-46,45,depth_duration_stimuli/000787_2014-06-08_22-33-53_260595134347_rgbf000175-resize_1/000787_2014-06-08_22-33-53_260595134347_rgbf000175-resize-original.jpg,125,4.784,0,2939,124,meters,jsons/VE125_randls_15.json,642201,1123102,30,Woman
45,639413,DepthScenes,duration_manipulation_targetAtFixation,jsons/VE125_randls_15.json,http://54.235.29.9/FacialAge/BNav_EC2/DepthDuration/v2_depth_duration_MTurk/v2_DepthDuration_HTML.html#5,5,1600,789,1600,900,8-21-2022,10-56-46,46,depth_duration_stimuli/001016_2014-06-09_16-16-10_260595134347_rgbf000112-resize_5/001016_2014-06-09_16-16-10_260595134347_rgbf000112-resize_5-target.png,125,1.6565,2,2970,125,meters,jsons/VE125_randls_15.json,642201,1123102,30,Woman
46,639413,DepthScenes,duration_manipulation_targetAtFixation,jsons/VE125_randls_15.json,http://54.235.29.9/FacialAge/BNav_EC2/DepthDuration/v2_depth_duration_MTurk/v2_DepthDuration_HTML.html#5,5,1600,789,1600,900,8-21-2022,10-56-46,47,depth_duration_stimuli/002340_2014-06-28_20-05-46_260595134347_rgbf000113-resize_0/002340_2014-06-28_20-05-46_260595134347_rgbf000113-resize_0-target.png,125,2.4735,2,2427,125,meters,jsons/VE125_randls_15.json,642201,1123102,30,Woman
47,639413,DepthScenes,duration_manipulation_targetAtFixation,jsons/VE125_randls_15.json,http://54.235.29.9/FacialAge/BNav_EC2/DepthDuration/v2_depth_duration_MTurk/v2_DepthDuration_HTML.html#5,5,1600,789,1600,900,8-21-2022,10-56-46,48,depth_duration_stimuli/000368_2014-06-09_15-53-01_260595134347_rgbf000155-resize_2/000368_2014-06-09_15-53-01_260595134347_rgbf000155-resize_2-target.png,125,2.4859999999999998,2,2555,125,meters,jsons/VE125_randls_15.json,642201,1123102,30,Woman
48,639413,DepthScenes,duration_manipulation_targetAtFixation,jsons/VE125_randls_15.json,http://54.235.29.9/FacialAge/BNav_EC2/DepthDuration/v2_depth_duration_MTurk/v2_DepthDuration_HTML.html#5,5,1600,789,1600,900,8-21-2022,10-56-46,49,depth_duration_stimuli/002678_2014-06-13_16-15-32_094959634447_rgbf000151-resize_6/002678_2014-06-13_16-15-32_094959634447_rgbf000151-resize_6-target.png,125,2.1830000000000003,2,2246,125,meters,jsons/VE125_randls_15.json,642201,1123102,30,Woman
49,639413,DepthScenes,duration_manipulation_targetAtFixation,jsons/VE125_randls_15.json,http://54.235.29.9/FacialAge/BNav_EC2/DepthDuration/v2_depth_duration_MTurk/v2_DepthDuration_HTML.html#5,5,1600,789,1600,900,8-21-2022,10-56-46,50,depth_duration_stimuli/000917_2014-06-09_22-45-29_260595134347_rgbf000149-resize_3/000917_2014-06-09_22-45-29_260595134347_rgbf000149-resize_3-target.png,125,4.1865,2,2233,125,meters,jsons/VE125_randls_15.json,642201,1123102,30,Woman
50,639413,DepthScenes,duration_manipulation_targetAtFixation,jsons/VE125_randls_15.json,http://54.235.29.9/FacialAge/BNav_EC2/DepthDuration/v2_depth_duration_MTurk/v2_DepthDuration_HTML.html#5,5,1600,789,1600,900,8-21-2022,10-56-46,51,depth_duration_stimuli/002323_2014-06-28_20-01-54_260595134347_rgbf000051-resize_4/002323_2014-06-28_20-01-54_260595134347_rgbf000051-resize_4-target.png,125,3.7310000000000003,2,2269,126,meters,jsons/VE125_randls_15.json,642201,1123102,30,Woman
51,639413,DepthScenes,duration_manipulation_targetAtFixation,jsons/VE125_randls_15.json,http://54.235.29.9/FacialAge/BNav_EC2/DepthDuration/v2_depth_duration_MTurk/v2_DepthDuration_HTML.html#5,5,1600,789,1600,900,8-21-2022,10-56-46,52,depth_duration_stimuli/001150_2014-06-17_15-27-34_260595134347_rgbf000108-resize_2/001150_2014-06-17_15-27-34_260595134347_rgbf000108-resize_2-target.png,125,4.0325,1,2498,125,meters,jsons/VE125_randls_15.json,642201,1123102,30,Woman
52,639413,DepthScenes,duration_manipulation_targetAtFixation,jsons/VE125_randls_15.json,http://54.235.29.9/FacialAge/BNav_EC2/DepthDuration/v2_depth_duration_MTurk/v2_DepthDuration_HTML.html#5,5,1600,789,1600,900,8-21-2022,10-56-46,53,depth_duration_stimuli/000665_2014-06-09_20-42-35_260595134347_rgbf000110-resize_1/000665_2014-06-09_20-42-35_260595134347_rgbf000110-resize_1-target.png,125,3.057,2,2715,126,meters,jsons/VE125_randls_15.json,642201,1123102,30,Woman
53,639413,DepthScenes,duration_manipulation_targetAtFixation,jsons/VE125_randls_15.json,http://54.235.29.9/FacialAge/BNav_EC2/DepthDuration/v2_depth_duration_MTurk/v2_DepthDuration_HTML.html#5,5,1600,789,1600,900,8-21-2022,10-56-46,54,depth_duration_stimuli/001244_2014-06-17_16-47-45_260595134347_rgbf000030-resize_4/001244_2014-06-17_16-47-45_260595134347_rgbf000030-resize_4-target.png,125,2.0425,2,2054,124,meters,jsons/VE125_randls_15.json,642201,1123102,30,Woman
54,639413,DepthScenes,duration_manipulation_targetAtFixation,jsons/VE125_randls_15.json,http://54.235.29.9/FacialAge/BNav_EC2/DepthDuration/v2_depth_duration_MTurk/v2_DepthDuration_HTML.html#5,5,1600,789,1600,900,8-21-2022,10-56-46,55,depth_duration_stimuli/003495_2014-05-21_16-01-51_094959634447_rgbf000100-resize_3/003495_2014-05-21_16-01-51_094959634447_rgbf000100-resize_3-target.png,125,1.6255,2,3173,125,meters,jsons/VE125_randls_15.json,642201,1123102,30,Woman
55,639413,DepthScenes,duration_manipulation_targetAtFixation,jsons/VE125_randls_15.json,http://54.235.29.9/FacialAge/BNav_EC2/DepthDuration/v2_depth_duration_MTurk/v2_DepthDuration_HTML.html#5,5,1600,789,1600,900,8-21-2022,10-56-46,56,depth_duration_stimuli/003534_2014-05-22_15-06-10_094959634447_rgbf000102-resize_4/003534_2014-05-22_15-06-10_094959634447_rgbf000102-resize_4-target.png,125,1.426,1,2194,125,meters,jsons/VE125_randls_15.json,642201,1123102,30,Woman
56,639413,DepthScenes,duration_manipulation_targetAtFixation,jsons/VE125_randls_15.json,http://54.235.29.9/FacialAge/BNav_EC2/DepthDuration/v2_depth_duration_MTurk/v2_DepthDuration_HTML.html#5,5,1600,789,1600,900,8-21-2022,10-56-46,57,depth_duration_stimuli/002637_2014-06-24_14-51-13_094959634447_rgbf000066-resize_4/002637_2014-06-24_14-51-13_094959634447_rgbf000066-resize_4-target.png,125,1.9955,2,2356,126,meters,jsons/VE125_randls_15.json,642201,1123102,30,Woman
57,639413,DepthScenes,duration_manipulation_targetAtFixation,jsons/VE125_randls_15.json,http://54.235.29.9/FacialAge/BNav_EC2/DepthDuration/v2_depth_duration_MTurk/v2_DepthDuration_HTML.html#5,5,1600,789,1600,900,8-21-2022,10-56-46,58,depth_duration_stimuli/003621_2014-05-23_18-06-08_094959634447_rgbf000101-resize_1/003621_2014-05-23_18-06-08_094959634447_rgbf000101-resize_1-target.png,125,3.9835,2,2281,125,meters,jsons/VE125_randls_15.json,642201,1123102,30,Woman
58,639413,DepthScenes,duration_manipulation_targetAtFixation,jsons/VE125_randls_15.json,http://54.235.29.9/FacialAge/BNav_EC2/DepthDuration/v2_depth_duration_MTurk/v2_DepthDuration_HTML.html#5,5,1600,789,1600,900,8-21-2022,10-56-46,59,depth_duration_stimuli/001584_2014-06-20_11-07-43_260595134347_rgbf000002-resize_1/001584_2014-06-20_11-07-43_260595134347_rgbf000002-resize_1-target.png,125,3.53,2,2170,126,meters,jsons/VE125_randls_15.json,642201,1123102,30,Woman
59,639413,DepthScenes,duration_manipulation_targetAtFixation,jsons/VE125_randls_15.json,http://54.235.29.9/FacialAge/BNav_EC2/DepthDuration/v2_depth_duration_MTurk/v2_DepthDuration_HTML.html#5,5,1600,789,1600,900,8-21-2022,10-56-46,60,depth_duration_stimuli/000522_2014-06-08_13-35-06_260595134347_rgbf000244-resize_1/000522_2014-06-08_13-35-06_260595134347_rgbf000244-resize_1-target.png,125,2.3715,2,2355,126,meters,jsons/VE125_randls_15.json,642201,1123102,30,Woman
60,639413,DepthScenes,duration_manipulation_targetAtFixation,jsons/VE125_randls_15.json,http://54.235.29.9/FacialAge/BNav_EC2/DepthDuration/v2_depth_duration_MTurk/v2_DepthDuration_HTML.html#5,5,1600,789,1600,900,8-21-2022,10-56-46,61,depth_duration_stimuli/002949_2014-06-26_15-57-42_094959634447_rgbf000079-resize_1/002949_2014-06-26_15-57-42_094959634447_rgbf000079-resize_1-target.png,125,1.8915,3,3979,124,meters,jsons/VE125_randls_15.json,642201,1123102,30,Woman
61,639413,DepthScenes,duration_manipulation_targetAtFixation,jsons/VE125_randls_15.json,http://54.235.29.9/FacialAge/BNav_EC2/DepthDuration/v2_depth_duration_MTurk/v2_DepthDuration_HTML.html#5,5,1600,789,1600,900,8-21-2022,10-56-46,62,depth_duration_stimuli/001055_2014-06-08_18-45-35_260595134347_rgbf000111-resize_4/001055_2014-06-08_18-45-35_260595134347_rgbf000111-resize_4-target.png,125,2.4290000000000003,2,2932,126,meters,jsons/VE125_randls_15.json,642201,1123102,30,Woman
62,639413,DepthScenes,duration_manipulation_targetAtFixation,jsons/VE125_randls_15.json,http://54.235.29.9/FacialAge/BNav_EC2/DepthDuration/v2_depth_duration_MTurk/v2_DepthDuration_HTML.html#5,5,1600,789,1600,900,8-21-2022,10-56-46,63,depth_duration_stimuli/000549_2014-06-08_22-10-24_260595134347_rgbf000247-resize_3/000549_2014-06-08_22-10-24_260595134347_rgbf000247-resize_3-target.png,125,1.841,2,2032,126,meters,jsons/VE125_randls_15.json,642201,1123102,30,Woman
63,639413,DepthScenes,duration_manipulation_targetAtFixation,jsons/VE125_randls_15.json,http://54.235.29.9/FacialAge/BNav_EC2/DepthDuration/v2_depth_duration_MTurk/v2_DepthDuration_HTML.html#5,5,1600,789,1600,900,8-21-2022,10-56-46,64,depth_duration_stimuli/001808_2014-06-26_20-50-58_260595134347_rgbf000029-resize_1/001808_2014-06-26_20-50-58_260595134347_rgbf000029-resize_1-target.png,125,4.249,2,2322,124,meters,jsons/VE125_randls_15.json,642201,1123102,30,Woman
64,639413,DepthScenes,duration_manipulation_targetAtFixation,jsons/VE125_randls_15.json,http://54.235.29.9/FacialAge/BNav_EC2/DepthDuration/v2_depth_duration_MTurk/v2_DepthDuration_HTML.html#5,5,1600,789,1600,900,8-21-2022,10-56-46,65,depth_duration_stimuli/001815_2014-06-26_20-52-55_260595134347_rgbf000020-resize_0/001815_2014-06-26_20-52-55_260595134347_rgbf000020-resize_0-target.png,125,3.3865,2,3131,126,meters,jsons/VE125_randls_15.json,642201,1123102,30,Woman
65,639413,DepthScenes,duration_manipulation_targetAtFixation,jsons/VE125_randls_15.json,http://54.235.29.9/FacialAge/BNav_EC2/DepthDuration/v2_depth_duration_MTurk/v2_DepthDuration_HTML.html#5,5,1600,789,1600,900,8-21-2022,10-56-46,66,depth_duration_stimuli/001222_2014-06-17_16-24-06_260595134347_rgbf000073-resize_0/001222_2014-06-17_16-24-06_260595134347_rgbf000073-resize-original.jpg,125,1.4385,0,2895,125,meters,jsons/VE125_randls_15.json,642201,1123102,30,Woman
66,639413,DepthScenes,duration_manipulation_targetAtFixation,jsons/VE125_randls_15.json,http://54.235.29.9/FacialAge/BNav_EC2/DepthDuration/v2_depth_duration_MTurk/v2_DepthDuration_HTML.html#5,5,1600,789,1600,900,8-21-2022,10-56-46,67,depth_duration_stimuli/002153_2014-06-25_21-27-18_260595134347_rgbf000038-resize_5/002153_2014-06-25_21-27-18_260595134347_rgbf000038-resize_5-target.png,125,2.505,2,2802,125,meters,jsons/VE125_randls_15.json,642201,1123102,30,Woman
67,639413,DepthScenes,duration_manipulation_targetAtFixation,jsons/VE125_randls_15.json,http://54.235.29.9/FacialAge/BNav_EC2/DepthDuration/v2_depth_duration_MTurk/v2_DepthDuration_HTML.html#5,5,1600,789,1600,900,8-21-2022,10-56-46,68,depth_duration_stimuli/002660_2014-06-13_15-44-18_094959634447_rgbf001878-resize_2/002660_2014-06-13_15-44-18_094959634447_rgbf001878-resize_2-target.png,125,3.576,2,2331,126,meters,jsons/VE125_randls_15.json,642201,1123102,30,Woman
68,639413,DepthScenes,duration_manipulation_targetAtFixation,jsons/VE125_randls_15.json,http://54.235.29.9/FacialAge/BNav_EC2/DepthDuration/v2_depth_duration_MTurk/v2_DepthDuration_HTML.html#5,5,1600,789,1600,900,8-21-2022,10-56-46,69,depth_duration_stimuli/002509_2014-06-24_13-19-22_094959634447_rgbf000077-resize_0/002509_2014-06-24_13-19-22_094959634447_rgbf000077-resize_0-target.png,125,1.3065,2,2234,126,meters,jsons/VE125_randls_15.json,642201,1123102,30,Woman
69,639413,DepthScenes,duration_manipulation_targetAtFixation,jsons/VE125_randls_15.json,http://54.235.29.9/FacialAge/BNav_EC2/DepthDuration/v2_depth_duration_MTurk/v2_DepthDuration_HTML.html#5,5,1600,789,1600,900,8-21-2022,10-56-46,70,depth_duration_stimuli/003338_2014-05-20_11-01-23_094959634447_rgbf000051-resize_6/003338_2014-05-20_11-01-23_094959634447_rgbf000051-resize_6-target.png,125,1.693,2,2654,125,meters,jsons/VE125_randls_15.json,642201,1123102,30,Woman
70,639413,DepthScenes,duration_manipulation_targetAtFixation,jsons/VE125_randls_15.json,http://54.235.29.9/FacialAge/BNav_EC2/DepthDuration/v2_depth_duration_MTurk/v2_DepthDuration_HTML.html#5,5,1600,789,1600,900,8-21-2022,10-56-46,71,depth_duration_stimuli/003070_2014-06-15_14-58-27_094959634447_rgbf000150-resize_3/003070_2014-06-15_14-58-27_094959634447_rgbf000150-resize_3-target.png,125,2.9415,2,2232,125,meters,jsons/VE125_randls_15.json,642201,1123102,30,Woman
71,639413,DepthScenes,duration_manipulation_targetAtFixation,jsons/VE125_randls_15.json,http://54.235.29.9/FacialAge/BNav_EC2/DepthDuration/v2_depth_duration_MTurk/v2_DepthDuration_HTML.html#5,5,1600,789,1600,900,8-21-2022,10-56-46,72,depth_duration_stimuli/000943_2014-06-09_19-31-07_260595134347_rgbf000128-resize_1/000943_2014-06-09_19-31-07_260595134347_rgbf000128-resize_1-target.png,125,1.9765,2,3281,125,meters,jsons/VE125_randls_15.json,642201,1123102,30,Woman
72,639413,DepthScenes,duration_manipulation_targetAtFixation,jsons/VE125_randls_15.json,http://54.235.29.9/FacialAge/BNav_EC2/DepthDuration/v2_depth_duration_MTurk/v2_DepthDuration_HTML.html#5,5,1600,789,1600,900,8-21-2022,10-56-46,73,depth_duration_stimuli/001555_2014-06-20_17-12-10_260595134347_rgbf000065-resize_4/001555_2014-06-20_17-12-10_260595134347_rgbf000065-resize_4-target.png,125,1.633,2,2300,126,meters,jsons/VE125_randls_15.json,642201,1123102,30,Woman
73,639413,DepthScenes,duration_manipulation_targetAtFixation,jsons/VE125_randls_15.json,http://54.235.29.9/FacialAge/BNav_EC2/DepthDuration/v2_depth_duration_MTurk/v2_DepthDuration_HTML.html#5,5,1600,789,1600,900,8-21-2022,10-56-46,74,depth_duration_stimuli/000103_2014-05-14_22-01-17_260595134347_rgbf000152-resize_5/000103_2014-05-14_22-01-17_260595134347_rgbf000152-resize_5-target.png,125,1.993,2,2554,125,meters,jsons/VE125_randls_15.json,642201,1123102,30,Woman
74,639413,DepthScenes,duration_manipulation_targetAtFixation,jsons/VE125_randls_15.json,http://54.235.29.9/FacialAge/BNav_EC2/DepthDuration/v2_depth_duration_MTurk/v2_DepthDuration_HTML.html#5,5,1600,789,1600,900,8-21-2022,10-56-46,75,depth_duration_stimuli/000009_2014-05-26_14-32-05_260595134347_rgbf000034-resize_3/000009_2014-05-26_14-32-05_260595134347_rgbf000034-resize_3-target.png,125,3.8715,2,2227,125,meters,jsons/VE125_randls_15.json,642201,1123102,30,Woman
75,639413,DepthScenes,duration_manipulation_targetAtFixation,jsons/VE125_randls_15.json,http://54.235.29.9/FacialAge/BNav_EC2/DepthDuration/v2_depth_duration_MTurk/v2_DepthDuration_HTML.html#5,5,1600,789,1600,900,8-21-2022,10-56-46,76,depth_duration_stimuli/001828_2014-06-26_21-40-03_260595134347_rgbf000024-resize_0/001828_2014-06-26_21-40-03_260595134347_rgbf000024-resize_0-target.png,125,4.8260000000000005,1,2859,125,meters,jsons/VE125_randls_15.json,642201,1123102,30,Woman
76,639413,DepthScenes,duration_manipulation_targetAtFixation,jsons/VE125_randls_15.json,http://54.235.29.9/FacialAge/BNav_EC2/DepthDuration/v2_depth_duration_MTurk/v2_DepthDuration_HTML.html#5,5,1600,789,1600,900,8-21-2022,10-56-46,77,depth_duration_stimuli/000642_2014-06-08_16-59-25_260595134347_rgbf000098-resize_2/000642_2014-06-08_16-59-25_260595134347_rgbf000098-resize_2-target.png,125,2.8815,2,2251,125,meters,jsons/VE125_randls_15.json,642201,1123102,30,Woman
77,639413,DepthScenes,duration_manipulation_targetAtFixation,jsons/VE125_randls_15.json,http://54.235.29.9/FacialAge/BNav_EC2/DepthDuration/v2_depth_duration_MTurk/v2_DepthDuration_HTML.html#5,5,1600,789,1600,900,8-21-2022,10-56-46,78,depth_duration_stimuli/002425_2014-06-28_20-27-29_260595134347_rgbf000031-resize_8/002425_2014-06-28_20-27-29_260595134347_rgbf000031-resize_8-target.png,125,3.8960000000000004,2,2155,124,meters,jsons/VE125_randls_15.json,642201,1123102,30,Woman
78,639413,DepthScenes,duration_manipulation_targetAtFixation,jsons/VE125_randls_15.json,http://54.235.29.9/FacialAge/BNav_EC2/DepthDuration/v2_depth_duration_MTurk/v2_DepthDuration_HTML.html#5,5,1600,789,1600,900,8-21-2022,10-56-46,79,depth_duration_stimuli/002630_2014-06-24_14-47-50_094959634447_rgbf000055-resize_1/002630_2014-06-24_14-47-50_094959634447_rgbf000055-resize_1-target.png,125,3.0095,2,2751,125,meters,jsons/VE125_randls_15.json,642201,1123102,30,Woman
79,639413,DepthScenes,duration_manipulation_targetAtFixation,jsons/VE125_randls_15.json,http://54.235.29.9/FacialAge/BNav_EC2/DepthDuration/v2_depth_duration_MTurk/v2_DepthDuration_HTML.html#5,5,1600,789,1600,900,8-21-2022,10-56-46,80,depth_duration_stimuli/002758_2014-06-22_19-11-20_094959634447_rgbf000128-resize_1/002758_2014-06-22_19-11-20_094959634447_rgbf000128-resize_1-target.png,125,2.555,2,3652,125,meters,jsons/VE125_randls_15.json,642201,1123102,30,Woman
80,639413,DepthScenes,duration_manipulation_targetAtFixation,jsons/VE125_randls_15.json,http://54.235.29.9/FacialAge/BNav_EC2/DepthDuration/v2_depth_duration_MTurk/v2_DepthDuration_HTML.html#5,5,1600,789,1600,900,8-21-2022,10-56-46,81,depth_duration_stimuli/001158_2014-06-17_15-32-16_260595134347_rgbf000138-resize_2/001158_2014-06-17_15-32-16_260595134347_rgbf000138-resize_2-target.png,125,4.5315,1,5197,125,meters,jsons/VE125_randls_15.json,642201,1123102,30,Woman
81,639413,DepthScenes,duration_manipulation_targetAtFixation,jsons/VE125_randls_15.json,http://54.235.29.9/FacialAge/BNav_EC2/DepthDuration/v2_depth_duration_MTurk/v2_DepthDuration_HTML.html#5,5,1600,789,1600,900,8-21-2022,10-56-46,82,depth_duration_stimuli/000556_2014-06-09_22-42-56_260595134347_rgbf000214-resize_1/000556_2014-06-09_22-42-56_260595134347_rgbf000214-resize_1-target.png,125,4.8415,2,2604,125,meters,jsons/VE125_randls_15.json,642201,1123102,30,Woman
82,639413,DepthScenes,duration_manipulation_targetAtFixation,jsons/VE125_randls_15.json,http://54.235.29.9/FacialAge/BNav_EC2/DepthDuration/v2_depth_duration_MTurk/v2_DepthDuration_HTML.html#5,5,1600,789,1600,900,8-21-2022,10-56-46,83,depth_duration_stimuli/001167_2014-06-17_15-38-07_260595134347_rgbf000108-resize_0/001167_2014-06-17_15-38-07_260595134347_rgbf000108-resize_0-target.png,125,1.8505,2,2177,126,meters,jsons/VE125_randls_15.json,642201,1123102,30,Woman
83,639413,DepthScenes,duration_manipulation_targetAtFixation,jsons/VE125_randls_15.json,http://54.235.29.9/FacialAge/BNav_EC2/DepthDuration/v2_depth_duration_MTurk/v2_DepthDuration_HTML.html#5,5,1600,789,1600,900,8-21-2022,10-56-46,84,depth_duration_stimuli/003587_2014-05-23_16-48-02_094959634447_rgbf002384-resize_2/003587_2014-05-23_16-48-02_094959634447_rgbf002384-resize_2-target.png,125,1.357,2,2556,125,meters,jsons/VE125_randls_15.json,642201,1123102,30,Woman
84,639413,DepthScenes,duration_manipulation_targetAtFixation,jsons/VE125_randls_15.json,http://54.235.29.9/FacialAge/BNav_EC2/DepthDuration/v2_depth_duration_MTurk/v2_DepthDuration_HTML.html#5,5,1600,789,1600,900,8-21-2022,10-56-46,85,depth_duration_stimuli/002725_2014-06-22_11-47-51_094959634447_rgbf000070-resize_1/002725_2014-06-22_11-47-51_094959634447_rgbf000070-resize_1-target.png,125,2.195,2,2145,126,meters,jsons/VE125_randls_15.json,642201,1123102,30,Woman
85,639413,DepthScenes,duration_manipulation_targetAtFixation,jsons/VE125_randls_15.json,http://54.235.29.9/FacialAge/BNav_EC2/DepthDuration/v2_depth_duration_MTurk/v2_DepthDuration_HTML.html#5,5,1600,789,1600,900,8-21-2022,10-56-46,86,depth_duration_stimuli/002344_2014-06-28_20-06-29_260595134347_rgbf000030-resize_1/002344_2014-06-28_20-06-29_260595134347_rgbf000030-resize_1-target.png,125,1.5795,2,2817,124,meters,jsons/VE125_randls_15.json,642201,1123102,30,Woman
86,639413,DepthScenes,duration_manipulation_targetAtFixation,jsons/VE125_randls_15.json,http://54.235.29.9/FacialAge/BNav_EC2/DepthDuration/v2_depth_duration_MTurk/v2_DepthDuration_HTML.html#5,5,1600,789,1600,900,8-21-2022,10-56-46,87,depth_duration_stimuli/000736_2014-06-08_18-24-15_260595134347_rgbf000206-resize_3/000736_2014-06-08_18-24-15_260595134347_rgbf000206-resize_3-target.png,125,3.515,1,2562,125,meters,jsons/VE125_randls_15.json,642201,1123102,30,Woman
87,639413,DepthScenes,duration_manipulation_targetAtFixation,jsons/VE125_randls_15.json,http://54.235.29.9/FacialAge/BNav_EC2/DepthDuration/v2_depth_duration_MTurk/v2_DepthDuration_HTML.html#5,5,1600,789,1600,900,8-21-2022,10-56-46,88,depth_duration_stimuli/000137_2014-05-20_17-04-49_260595134347_rgbf000120-resize_1/000137_2014-05-20_17-04-49_260595134347_rgbf000120-resize_1-target.png,125,3.786,2,2469,125,meters,jsons/VE125_randls_15.json,642201,1123102,30,Woman
88,639413,DepthScenes,duration_manipulation_targetAtFixation,jsons/VE125_randls_15.json,http://54.235.29.9/FacialAge/BNav_EC2/DepthDuration/v2_depth_duration_MTurk/v2_DepthDuration_HTML.html#5,5,1600,789,1600,900,8-21-2022,10-56-46,89,depth_duration_stimuli/000436_2014-06-09_22-25-11_260595134347_rgbf000137-resize_1/000436_2014-06-09_22-25-11_260595134347_rgbf000137-resize_1-target.png,125,4.0705,2,2385,126,meters,jsons/VE125_randls_15.json,642201,1123102,30,Woman
89,639413,DepthScenes,duration_manipulation_targetAtFixation,jsons/VE125_randls_15.json,http://54.235.29.9/FacialAge/BNav_EC2/DepthDuration/v2_depth_duration_MTurk/v2_DepthDuration_HTML.html#5,5,1600,789,1600,900,8-21-2022,10-56-46,90,depth_duration_stimuli/002444_2014-06-28_20-32-08_260595134347_rgbf000027-resize_0/002444_2014-06-28_20-32-08_260595134347_rgbf000027-resize_0-target.png,125,4.388999999999999,3,2035,125,meters,jsons/VE125_randls_15.json,642201,1123102,30,Woman
90,639413,DepthScenes,duration_manipulation_targetAtFixation,jsons/VE125_randls_15.json,http://54.235.29.9/FacialAge/BNav_EC2/DepthDuration/v2_depth_duration_MTurk/v2_DepthDuration_HTML.html#5,5,1600,789,1600,900,8-21-2022,10-56-46,91,depth_duration_stimuli/002600_2014-06-24_14-27-04_094959634447_rgbf000074-resize_2/002600_2014-06-24_14-27-04_094959634447_rgbf000074-resize_2-target.png,125,2.7575,2,2355,126,meters,jsons/VE125_randls_15.json,642201,1123102,30,Woman
91,639413,DepthScenes,duration_manipulation_targetAtFixation,jsons/VE125_randls_15.json,http://54.235.29.9/FacialAge/BNav_EC2/DepthDuration/v2_depth_duration_MTurk/v2_DepthDuration_HTML.html#5,5,1600,789,1600,900,8-21-2022,10-56-46,92,depth_duration_stimuli/003228_2014-05-14_13-42-35_094959634447_rgbf000101-resize_1/003228_2014-05-14_13-42-35_094959634447_rgbf000101-resize_1-target.png,125,1.9680000000000002,2,2420,126,meters,jsons/VE125_randls_15.json,642201,1123102,30,Woman
92,639413,DepthScenes,duration_manipulation_targetAtFixation,jsons/VE125_randls_15.json,http://54.235.29.9/FacialAge/BNav_EC2/DepthDuration/v2_depth_duration_MTurk/v2_DepthDuration_HTML.html#5,5,1600,789,1600,900,8-21-2022,10-56-46,93,depth_duration_stimuli/000682_2014-06-08_23-14-58_260595134347_rgbf000041-resize_5/000682_2014-06-08_23-14-58_260595134347_rgbf000041-resize_5-target.png,125,2.7239999999999998,2,2832,124,meters,jsons/VE125_randls_15.json,642201,1123102,30,Woman
93,639413,DepthScenes,duration_manipulation_targetAtFixation,jsons/VE125_randls_15.json,http://54.235.29.9/FacialAge/BNav_EC2/DepthDuration/v2_depth_duration_MTurk/v2_DepthDuration_HTML.html#5,5,1600,789,1600,900,8-21-2022,10-56-46,94,depth_duration_stimuli/001650_2014-06-20_12-09-00_260595134347_rgbf000087-resize_3/001650_2014-06-20_12-09-00_260595134347_rgbf000087-resize_3-target.png,125,1.9505,2,2866,124,meters,jsons/VE125_randls_15.json,642201,1123102,30,Woman
94,639413,DepthScenes,duration_manipulation_targetAtFixation,jsons/VE125_randls_15.json,http://54.235.29.9/FacialAge/BNav_EC2/DepthDuration/v2_depth_duration_MTurk/v2_DepthDuration_HTML.html#5,5,1600,789,1600,900,8-21-2022,10-56-46,95,depth_duration_stimuli/002445_2014-06-28_20-32-16_260595134347_rgbf000029-resize_4/002445_2014-06-28_20-32-16_260595134347_rgbf000029-resize_4-target.png,125,2.5315,2,2580,124,meters,jsons/VE125_randls_15.json,642201,1123102,30,Woman
95,639413,DepthScenes,duration_manipulation_targetAtFixation,jsons/VE125_randls_15.json,http://54.235.29.9/FacialAge/BNav_EC2/DepthDuration/v2_depth_duration_MTurk/v2_DepthDuration_HTML.html#5,5,1600,789,1600,900,8-21-2022,10-56-46,96,depth_duration_stimuli/000780_2014-06-08_22-28-29_260595134347_rgbf000126-resize_1/000780_2014-06-08_22-28-29_260595134347_rgbf000126-resize_1-target.png,125,3.3825,2,2308,125,meters,jsons/VE125_randls_15.json,642201,1123102,30,Woman
96,639413,DepthScenes,duration_manipulation_targetAtFixation,jsons/VE125_randls_15.json,http://54.235.29.9/FacialAge/BNav_EC2/DepthDuration/v2_depth_duration_MTurk/v2_DepthDuration_HTML.html#5,5,1600,789,1600,900,8-21-2022,10-56-46,97,depth_duration_stimuli/000788_2014-06-08_22-34-36_260595134347_rgbf000131-resize_1/000788_2014-06-08_22-34-36_260595134347_rgbf000131-resize_1-target.png,125,3.359,2,2416,124,meters,jsons/VE125_randls_15.json,642201,1123102,30,Woman
97,639413,DepthScenes,duration_manipulation_targetAtFixation,jsons/VE125_randls_15.json,http://54.235.29.9/FacialAge/BNav_EC2/DepthDuration/v2_depth_duration_MTurk/v2_DepthDuration_HTML.html#5,5,1600,789,1600,900,8-21-2022,10-56-46,98,depth_duration_stimuli/001235_2014-06-17_16-37-36_260595134347_rgbf000084-resize_4/001235_2014-06-17_16-37-36_260595134347_rgbf000084-resize_4-target.png,125,3.6605,3,2417,125,meters,jsons/VE125_randls_15.json,642201,1123102,30,Woman
98,639413,DepthScenes,duration_manipulation_targetAtFixation,jsons/VE125_randls_15.json,http://54.235.29.9/FacialAge/BNav_EC2/DepthDuration/v2_depth_duration_MTurk/v2_DepthDuration_HTML.html#5,5,1600,789,1600,900,8-21-2022,10-56-46,99,depth_duration_stimuli/001540_2014-06-20_17-01-05_260595134347_rgbf000086-resize_2/001540_2014-06-20_17-01-05_260595134347_rgbf000086-resize-original.jpg,125,1.459,0,3211,125,meters,jsons/VE125_randls_15.json,642201,1123102,30,Woman
99,639413,DepthScenes,duration_manipulation_targetAtFixation,jsons/VE125_randls_15.json,http://54.235.29.9/FacialAge/BNav_EC2/DepthDuration/v2_depth_duration_MTurk/v2_DepthDuration_HTML.html#5,5,1600,789,1600,900,8-21-2022,10-56-46,100,depth_duration_stimuli/000692_2014-06-08_13-09-42_260595134347_rgbf000199-resize_2/000692_2014-06-08_13-09-42_260595134347_rgbf000199-resize_2-target.png,125,3.661,2,3196,125,meters,jsons/VE125_randls_15.json,642201,1123102,30,Woman
100,639413,DepthScenes,duration_manipulation_targetAtFixation,jsons/VE125_randls_15.json,http://54.235.29.9/FacialAge/BNav_EC2/DepthDuration/v2_depth_duration_MTurk/v2_DepthDuration_HTML.html#5,5,1600,789,1600,900,8-21-2022,10-56-46,101,depth_duration_stimuli/001094_2014-06-15_17-36-00_260595134347_rgbf000205-resize_0/001094_2014-06-15_17-36-00_260595134347_rgbf000205-resize_0-target.png,125,4.2175,2,2298,126,meters,jsons/VE125_randls_15.json,642201,1123102,30,Woman
101,639413,DepthScenes,duration_manipulation_targetAtFixation,jsons/VE125_randls_15.json,http://54.235.29.9/FacialAge/BNav_EC2/DepthDuration/v2_depth_duration_MTurk/v2_DepthDuration_HTML.html#5,5,1600,789,1600,900,8-21-2022,10-56-46,102,depth_duration_stimuli/000810_2014-06-08_17-20-01_260595134347_rgbf000105-resize_0/000810_2014-06-08_17-20-01_260595134347_rgbf000105-resize_0-target.png,125,1.4865,2,2354,125,meters,jsons/VE125_randls_15.json,642201,1123102,30,Woman
102,639413,DepthScenes,duration_manipulation_targetAtFixation,jsons/VE125_randls_15.json,http://54.235.29.9/FacialAge/BNav_EC2/DepthDuration/v2_depth_duration_MTurk/v2_DepthDuration_HTML.html#5,5,1600,789,1600,900,8-21-2022,10-56-46,103,depth_duration_stimuli/001214_2014-06-17_16-13-55_260595134347_rgbf000111-resize_0/001214_2014-06-17_16-13-55_260595134347_rgbf000111-resize_0-target.png,125,2.6505,1,2833,124,meters,jsons/VE125_randls_15.json,642201,1123102,30,Woman
103,639413,DepthScenes,duration_manipulation_targetAtFixation,jsons/VE125_randls_15.json,http://54.235.29.9/FacialAge/BNav_EC2/DepthDuration/v2_depth_duration_MTurk/v2_DepthDuration_HTML.html#5,5,1600,789,1600,900,8-21-2022,10-56-46,104,depth_duration_stimuli/003292_2014-05-14_21-53-49_094959634447_rgbf000100-resize_2/003292_2014-05-14_21-53-49_094959634447_rgbf000100-resize_2-target.png,125,3.4815,2,2700,125,meters,jsons/VE125_randls_15.json,642201,1123102,30,Woman
104,639413,DepthScenes,duration_manipulation_targetAtFixation,jsons/VE125_randls_15.json,http://54.235.29.9/FacialAge/BNav_EC2/DepthDuration/v2_depth_duration_MTurk/v2_DepthDuration_HTML.html#5,5,1600,789,1600,900,8-21-2022,10-56-46,105,depth_duration_stimuli/002639_2014-06-24_14-51-37_094959634447_rgbf000074-resize_4/002639_2014-06-24_14-51-37_094959634447_rgbf000074-resize_4-target.png,125,4.0375,2,2242,125,meters,jsons/VE125_randls_15.json,642201,1123102,30,Woman
105,639413,DepthScenes,duration_manipulation_targetAtFixation,jsons/VE125_randls_15.json,http://54.235.29.9/FacialAge/BNav_EC2/DepthDuration/v2_depth_duration_MTurk/v2_DepthDuration_HTML.html#5,5,1600,789,1600,900,8-21-2022,10-56-46,106,depth_duration_stimuli/002118_2014-06-25_20-32-08_260595134347_rgbf000078-resize_1/002118_2014-06-25_20-32-08_260595134347_rgbf000078-resize_1-target.png,125,2.6460000000000004,2,2993,124,meters,jsons/VE125_randls_15.json,642201,1123102,30,Woman
106,639413,DepthScenes,duration_manipulation_targetAtFixation,jsons/VE125_randls_15.json,http://54.235.29.9/FacialAge/BNav_EC2/DepthDuration/v2_depth_duration_MTurk/v2_DepthDuration_HTML.html#5,5,1600,789,1600,900,8-21-2022,10-56-46,107,depth_duration_stimuli/001516_2014-06-20_16-25-09_260595134347_rgbf000076-resize_2/001516_2014-06-20_16-25-09_260595134347_rgbf000076-resize_2-target.png,125,1.7445,1,3588,125,meters,jsons/VE125_randls_15.json,642201,1123102,30,Woman
107,639413,DepthScenes,duration_manipulation_targetAtFixation,jsons/VE125_randls_15.json,http://54.235.29.9/FacialAge/BNav_EC2/DepthDuration/v2_depth_duration_MTurk/v2_DepthDuration_HTML.html#5,5,1600,789,1600,900,8-21-2022,10-56-46,108,depth_duration_stimuli/000469_2014-06-09_19-42-10_260595134347_rgbf000081-resize_1/000469_2014-06-09_19-42-10_260595134347_rgbf000081-resize_1-target.png,125,1.652,1,2787,125,meters,jsons/VE125_randls_15.json,642201,1123102,30,Woman
108,639413,DepthScenes,duration_manipulation_targetAtFixation,jsons/VE125_randls_15.json,http://54.235.29.9/FacialAge/BNav_EC2/DepthDuration/v2_depth_duration_MTurk/v2_DepthDuration_HTML.html#5,5,1600,789,1600,900,8-21-2022,10-56-46,109,depth_duration_stimuli/000483_2014-06-09_20-41-45_260595134347_rgbf000116-resize_4/000483_2014-06-09_20-41-45_260595134347_rgbf000116-resize_4-target.png,125,1.337,2,7339,126,meters,jsons/VE125_randls_15.json,642201,1123102,30,Woman
109,639413,DepthScenes,duration_manipulation_targetAtFixation,jsons/VE125_randls_15.json,http://54.235.29.9/FacialAge/BNav_EC2/DepthDuration/v2_depth_duration_MTurk/v2_DepthDuration_HTML.html#5,5,1600,789,1600,900,8-21-2022,10-56-46,110,depth_duration_stimuli/001056_2014-06-08_18-46-44_260595134347_rgbf000068-resize_0/001056_2014-06-08_18-46-44_260595134347_rgbf000068-resize_0-target.png,125,2.6625,0,44413,126,meters,jsons/VE125_randls_15.json,642201,1123102,30,Woman
110,639413,DepthScenes,duration_manipulation_targetAtFixation,jsons/VE125_randls_15.json,http://54.235.29.9/FacialAge/BNav_EC2/DepthDuration/v2_depth_duration_MTurk/v2_DepthDuration_HTML.html#5,5,1600,789,1600,900,8-21-2022,10-56-46,111,depth_duration_stimuli/002199_2014-06-28_18-33-56_260595134347_rgbf000074-resize_0/002199_2014-06-28_18-33-56_260595134347_rgbf000074-resize_0-target.png,125,1.996,2,3162,124,meters,jsons/VE125_randls_15.json,642201,1123102,30,Woman
111,639413,DepthScenes,duration_manipulation_targetAtFixation,jsons/VE125_randls_15.json,http://54.235.29.9/FacialAge/BNav_EC2/DepthDuration/v2_depth_duration_MTurk/v2_DepthDuration_HTML.html#5,5,1600,789,1600,900,8-21-2022,10-56-46,112,depth_duration_stimuli/000470_2014-06-09_19-42-40_260595134347_rgbf000094-resize_1/000470_2014-06-09_19-42-40_260595134347_rgbf000094-resize_1-target.png,125,1.831,2,2433,126,meters,jsons/VE125_randls_15.json,642201,1123102,30,Woman
112,639413,DepthScenes,duration_manipulation_targetAtFixation,jsons/VE125_randls_15.json,http://54.235.29.9/FacialAge/BNav_EC2/DepthDuration/v2_depth_duration_MTurk/v2_DepthDuration_HTML.html#5,5,1600,789,1600,900,8-21-2022,10-56-46,113,depth_duration_stimuli/000109_2014-05-14_23-41-52_260595134347_rgbf000035-resize_9/000109_2014-05-14_23-41-52_260595134347_rgbf000035-resize_9-target.png,125,1.3545,2,2339,125,meters,jsons/VE125_randls_15.json,642201,1123102,30,Woman
113,639413,DepthScenes,duration_manipulation_targetAtFixation,jsons/VE125_randls_15.json,http://54.235.29.9/FacialAge/BNav_EC2/DepthDuration/v2_depth_duration_MTurk/v2_DepthDuration_HTML.html#5,5,1600,789,1600,900,8-21-2022,10-56-46,114,depth_duration_stimuli/001059_2014-06-08_21-53-27_260595134347_rgbf000061-resize_4/001059_2014-06-08_21-53-27_260595134347_rgbf000061-resize_4-target.png,125,2.4185,1,2699,124,meters,jsons/VE125_randls_15.json,642201,1123102,30,Woman
114,639413,DepthScenes,duration_manipulation_targetAtFixation,jsons/VE125_randls_15.json,http://54.235.29.9/FacialAge/BNav_EC2/DepthDuration/v2_depth_duration_MTurk/v2_DepthDuration_HTML.html#5,5,1600,789,1600,900,8-21-2022,10-56-46,115,depth_duration_stimuli/001032_2014-06-08_13-23-17_260595134347_rgbf000021-resize_3/001032_2014-06-08_13-23-17_260595134347_rgbf000021-resize_3-target.png,125,3.2725,2,2354,124,meters,jsons/VE125_randls_15.json,642201,1123102,30,Woman
115,639413,DepthScenes,duration_manipulation_targetAtFixation,jsons/VE125_randls_15.json,http://54.235.29.9/FacialAge/BNav_EC2/DepthDuration/v2_depth_duration_MTurk/v2_DepthDuration_HTML.html#5,5,1600,789,1600,900,8-21-2022,10-56-46,116,depth_duration_stimuli/001170_2014-06-17_15-43-44_260595134347_rgbf000096-resize_6/001170_2014-06-17_15-43-44_260595134347_rgbf000096-resize-original.jpg,125,1.1909999999999998,0,2953,124,meters,jsons/VE125_randls_15.json,642201,1123102,30,Woman
116,639413,DepthScenes,duration_manipulation_targetAtFixation,jsons/VE125_randls_15.json,http://54.235.29.9/FacialAge/BNav_EC2/DepthDuration/v2_depth_duration_MTurk/v2_DepthDuration_HTML.html#5,5,1600,789,1600,900,8-21-2022,10-56-46,117,depth_duration_stimuli/002549_2014-06-24_13-41-39_094959634447_rgbf000022-resize_3/002549_2014-06-24_13-41-39_094959634447_rgbf000022-resize_3-target.png,125,1.476,2,2592,125,meters,jsons/VE125_randls_15.json,642201,1123102,30,Woman
117,639413,DepthScenes,duration_manipulation_targetAtFixation,jsons/VE125_randls_15.json,http://54.235.29.9/FacialAge/BNav_EC2/DepthDuration/v2_depth_duration_MTurk/v2_DepthDuration_HTML.html#5,5,1600,789,1600,900,8-21-2022,10-56-46,118,depth_duration_stimuli/002750_2014-06-22_19-08-03_094959634447_rgbf000094-resize_4/002750_2014-06-22_19-08-03_094959634447_rgbf000094-resize_4-target.png,125,2.354,2,2194,125,meters,jsons/VE125_randls_15.json,642201,1123102,30,Woman
118,639413,DepthScenes,duration_manipulation_targetAtFixation,jsons/VE125_randls_15.json,http://54.235.29.9/FacialAge/BNav_EC2/DepthDuration/v2_depth_duration_MTurk/v2_DepthDuration_HTML.html#5,5,1600,789,1600,900,8-21-2022,10-56-46,119,depth_duration_stimuli/001092_2014-06-15_17-34-58_260595134347_rgbf000171-resize_3/001092_2014-06-15_17-34-58_260595134347_rgbf000171-resize_3-target.png,125,2.6935,2,2172,125,meters,jsons/VE125_randls_15.json,642201,1123102,30,Woman
119,639413,DepthScenes,duration_manipulation_targetAtFixation,jsons/VE125_randls_15.json,http://54.235.29.9/FacialAge/BNav_EC2/DepthDuration/v2_depth_duration_MTurk/v2_DepthDuration_HTML.html#5,5,1600,789,1600,900,8-21-2022,10-56-46,120,depth_duration_stimuli/002545_2014-06-24_13-38-53_094959634447_rgbf000080-resize_4/002545_2014-06-24_13-38-53_094959634447_rgbf000080-resize_4-target.png,125,1.9205,2,2107,124,meters,jsons/VE125_randls_15.json,642201,1123102,30,Woman
120,639413,DepthScenes,duration_manipulation_targetAtFixation,jsons/VE125_randls_15.json,http://54.235.29.9/FacialAge/BNav_EC2/DepthDuration/v2_depth_duration_MTurk/v2_DepthDuration_HTML.html#5,5,1600,789,1600,900,8-21-2022,10-56-46,121,depth_duration_stimuli/001164_2014-06-17_15-35-46_260595134347_rgbf000085-resize_3/001164_2014-06-17_15-35-46_260595134347_rgbf000085-resize_3-target.png,125,2.354,2,2233,125,meters,jsons/VE125_randls_15.json,642201,1123102,30,Woman
121,639413,DepthScenes,duration_manipulation_targetAtFixation,jsons/VE125_randls_15.json,http://54.235.29.9/FacialAge/BNav_EC2/DepthDuration/v2_depth_duration_MTurk/v2_DepthDuration_HTML.html#5,5,1600,789,1600,900,8-21-2022,10-56-46,122,depth_duration_stimuli/001136_2014-06-17_15-19-41_260595134347_rgbf000076-resize_3/001136_2014-06-17_15-19-41_260595134347_rgbf000076-resize_3-target.png,125,1.8655,1,3115,125,meters,jsons/VE125_randls_15.json,642201,1123102,30,Woman
122,639413,DepthScenes,duration_manipulation_targetAtFixation,jsons/VE125_randls_15.json,http://54.235.29.9/FacialAge/BNav_EC2/DepthDuration/v2_depth_duration_MTurk/v2_DepthDuration_HTML.html#5,5,1600,789,1600,900,8-21-2022,10-56-46,123,depth_duration_stimuli/002043_2014-06-24_20-29-38_260595134347_rgbf000039-resize_4/002043_2014-06-24_20-29-38_260595134347_rgbf000039-resize_4-target.png,125,2.8435,2,2298,124,meters,jsons/VE125_randls_15.json,642201,1123102,30,Woman
123,639413,DepthScenes,duration_manipulation_targetAtFixation,jsons/VE125_randls_15.json,http://54.235.29.9/FacialAge/BNav_EC2/DepthDuration/v2_depth_duration_MTurk/v2_DepthDuration_HTML.html#5,5,1600,789,1600,900,8-21-2022,10-56-46,124,depth_duration_stimuli/003048_2014-06-15_13-49-43_094959634447_rgbf000150-resize_1/003048_2014-06-15_13-49-43_094959634447_rgbf000150-resize_1-target.png,125,4.0035,2,2251,125,meters,jsons/VE125_randls_15.json,642201,1123102,30,Woman
124,639413,DepthScenes,duration_manipulation_targetAtFixation,jsons/VE125_randls_15.json,http://54.235.29.9/FacialAge/BNav_EC2/DepthDuration/v2_depth_duration_MTurk/v2_DepthDuration_HTML.html#5,5,1600,789,1600,900,8-21-2022,10-56-46,125,depth_duration_stimuli/002039_2014-06-24_20-22-38_260595134347_rgbf000084-resize_1/002039_2014-06-24_20-22-38_260595134347_rgbf000084-resize_1-target.png,125,4.408,2,2493,125,meters,jsons/VE125_randls_15.json,642201,1123102,30,Woman
125,639413,DepthScenes,duration_manipulation_targetAtFixation,jsons/VE125_randls_15.json,http://54.235.29.9/FacialAge/BNav_EC2/DepthDuration/v2_depth_duration_MTurk/v2_DepthDuration_HTML.html#5,5,1600,789,1600,900,8-21-2022,10-56-46,126,depth_duration_stimuli/002103_2014-06-25_20-00-40_260595134347_rgbf000049-resize_0/002103_2014-06-25_20-00-40_260595134347_rgbf000049-resize_0-target.png,125,4.105,1,3418,126,meters,jsons/VE125_randls_15.json,642201,1123102,30,Woman
126,639413,DepthScenes,duration_manipulation_targetAtFixation,jsons/VE125_randls_15.json,http://54.235.29.9/FacialAge/BNav_EC2/DepthDuration/v2_depth_duration_MTurk/v2_DepthDuration_HTML.html#5,5,1600,789,1600,900,8-21-2022,10-56-46,127,depth_duration_stimuli/002213_2014-06-28_18-37-58_260595134347_rgbf000055-resize_1/002213_2014-06-28_18-37-58_260595134347_rgbf000055-resize_1-target.png,125,3.62,2,2188,124,meters,jsons/VE125_randls_15.json,642201,1123102,30,Woman
127,639413,DepthScenes,duration_manipulation_targetAtFixation,jsons/VE125_randls_15.json,http://54.235.29.9/FacialAge/BNav_EC2/DepthDuration/v2_depth_duration_MTurk/v2_DepthDuration_HTML.html#5,5,1600,789,1600,900,8-21-2022,10-56-46,128,depth_duration_stimuli/000691_2014-06-08_13-08-50_260595134347_rgbf000132-resize_3/000691_2014-06-08_13-08-50_260595134347_rgbf000132-resize_3-target.png,125,4.1530000000000005,2,2101,125,meters,jsons/VE125_randls_15.json,642201,1123102,30,Woman
128,639413,DepthScenes,duration_manipulation_targetAtFixation,jsons/VE125_randls_15.json,http://54.235.29.9/FacialAge/BNav_EC2/DepthDuration/v2_depth_duration_MTurk/v2_DepthDuration_HTML.html#5,5,1600,789,1600,900,8-21-2022,10-56-46,129,depth_duration_stimuli/000493_2014-06-09_21-01-18_260595134347_rgbf000196-resize_3/000493_2014-06-09_21-01-18_260595134347_rgbf000196-resize_3-target.png,125,3.44,2,2360,126,meters,jsons/VE125_randls_15.json,642201,1123102,30,Woman
129,639413,DepthScenes,duration_manipulation_targetAtFixation,jsons/VE125_randls_15.json,http://54.235.29.9/FacialAge/BNav_EC2/DepthDuration/v2_depth_duration_MTurk/v2_DepthDuration_HTML.html#5,5,1600,789,1600,900,8-21-2022,10-56-46,130,depth_duration_stimuli/000191_2014-05-12_17-07-38_260595134347_rgbf000199-resize_0/000191_2014-05-12_17-07-38_260595134347_rgbf000199-resize_0-target.png,125,3.7995,2,2257,125,meters,jsons/VE125_randls_15.json,642201,1123102,30,Woman
130,639413,DepthScenes,duration_manipulation_targetAtFixation,jsons/VE125_randls_15.json,http://54.235.29.9/FacialAge/BNav_EC2/DepthDuration/v2_depth_duration_MTurk/v2_DepthDuration_HTML.html#5,5,1600,789,1600,900,8-21-2022,10-56-46,131,depth_duration_stimuli/000447_2014-06-08_16-15-46_260595134347_rgbf000130-resize_1/000447_2014-06-08_16-15-46_260595134347_rgbf000130-resize_1-target.png,125,4.479,2,2180,126,meters,jsons/VE125_randls_15.json,642201,1123102,30,Woman
131,639413,DepthScenes,duration_manipulation_targetAtFixation,jsons/VE125_randls_15.json,http://54.235.29.9/FacialAge/BNav_EC2/DepthDuration/v2_depth_duration_MTurk/v2_DepthDuration_HTML.html#5,5,1600,789,1600,900,8-21-2022,10-56-46,132,depth_duration_stimuli/001447_2014-06-19_17-00-32_260595134347_rgbf000082-resize_5/001447_2014-06-19_17-00-32_260595134347_rgbf000082-resize_5-target.png,125,4.13775,2,2210,124,meters,jsons/VE125_randls_15.json,642201,1123102,30,Woman
132,639413,DepthScenes,duration_manipulation_targetAtFixation,jsons/VE125_randls_15.json,http://54.235.29.9/FacialAge/BNav_EC2/DepthDuration/v2_depth_duration_MTurk/v2_DepthDuration_HTML.html#5,5,1600,789,1600,900,8-21-2022,10-56-46,133,depth_duration_stimuli/001133_2014-06-17_14-49-16_260595134347_rgbf000100-resize_0/001133_2014-06-17_14-49-16_260595134347_rgbf000100-resize_0-target.png,125,4.2115,2,2041,124,meters,jsons/VE125_randls_15.json,642201,1123102,30,Woman
133,639413,DepthScenes,duration_manipulation_targetAtFixation,jsons/VE125_randls_15.json,http://54.235.29.9/FacialAge/BNav_EC2/DepthDuration/v2_depth_duration_MTurk/v2_DepthDuration_HTML.html#5,5,1600,789,1600,900,8-21-2022,10-56-46,134,depth_duration_stimuli/001132_2014-06-17_14-48-54_260595134347_rgbf000100-resize_2/001132_2014-06-17_14-48-54_260595134347_rgbf000100-resize_2-target.png,125,3.753,1,2219,125,meters,jsons/VE125_randls_15.json,642201,1123102,30,Woman
134,639413,DepthScenes,duration_manipulation_targetAtFixation,jsons/VE125_randls_15.json,http://54.235.29.9/FacialAge/BNav_EC2/DepthDuration/v2_depth_duration_MTurk/v2_DepthDuration_HTML.html#5,5,1600,789,1600,900,8-21-2022,10-56-46,135,depth_duration_stimuli/002072_2014-06-24_21-48-06_260595134347_rgbf000115-resize_0/002072_2014-06-24_21-48-06_260595134347_rgbf000115-resize-original.jpg,125,4.702,0,2163,124,meters,jsons/VE125_randls_15.json,642201,1123102,30,Woman
135,639413,DepthScenes,duration_manipulation_targetAtFixation,jsons/VE125_randls_15.json,http://54.235.29.9/FacialAge/BNav_EC2/DepthDuration/v2_depth_duration_MTurk/v2_DepthDuration_HTML.html#5,5,1600,789,1600,900,8-21-2022,10-56-46,136,depth_duration_stimuli/000758_2014-06-08_22-05-08_260595134347_rgbf000085-resize_0/000758_2014-06-08_22-05-08_260595134347_rgbf000085-resize_0-target.png,125,3.3810000000000002,2,2282,126,meters,jsons/VE125_randls_15.json,642201,1123102,30,Woman
136,639413,DepthScenes,duration_manipulation_targetAtFixation,jsons/VE125_randls_15.json,http://54.235.29.9/FacialAge/BNav_EC2/DepthDuration/v2_depth_duration_MTurk/v2_DepthDuration_HTML.html#5,5,1600,789,1600,900,8-21-2022,10-56-46,137,depth_duration_stimuli/000854_2014-06-09_19-43-13_260595134347_rgbf000066-resize_0/000854_2014-06-09_19-43-13_260595134347_rgbf000066-resize_0-target.png,125,3.068,2,2225,125,meters,jsons/VE125_randls_15.json,642201,1123102,30,Woman
137,639413,DepthScenes,duration_manipulation_targetAtFixation,jsons/VE125_randls_15.json,http://54.235.29.9/FacialAge/BNav_EC2/DepthDuration/v2_depth_duration_MTurk/v2_DepthDuration_HTML.html#5,5,1600,789,1600,900,8-21-2022,10-56-46,138,depth_duration_stimuli/000878_2014-06-08_22-52-45_260595134347_rgbf000045-resize_2/000878_2014-06-08_22-52-45_260595134347_rgbf000045-resize_2-target.png,125,2.092,2,2254,125,meters,jsons/VE125_randls_15.json,642201,1123102,30,Woman
138,639413,DepthScenes,duration_manipulation_targetAtFixation,jsons/VE125_randls_15.json,http://54.235.29.9/FacialAge/BNav_EC2/DepthDuration/v2_depth_duration_MTurk/v2_DepthDuration_HTML.html#5,5,1600,789,1600,900,8-21-2022,10-56-46,139,depth_duration_stimuli/002953_2014-06-08_17-32-18_094959634447_rgbf000059-resize_5/002953_2014-06-08_17-32-18_094959634447_rgbf000059-resize_5-target.png,125,1.551,2,2713,125,meters,jsons/VE125_randls_15.json,642201,1123102,30,Woman
139,639413,DepthScenes,duration_manipulation_targetAtFixation,jsons/VE125_randls_15.json,http://54.235.29.9/FacialAge/BNav_EC2/DepthDuration/v2_depth_duration_MTurk/v2_DepthDuration_HTML.html#5,5,1600,789,1600,900,8-21-2022,10-56-46,140,depth_duration_stimuli/001449_2014-06-19_17-01-27_260595134347_rgbf000116-resize_2/001449_2014-06-19_17-01-27_260595134347_rgbf000116-resize_2-target.png,125,3.452,2,2457,124,meters,jsons/VE125_randls_15.json,642201,1123102,30,Woman
140,639413,DepthScenes,duration_manipulation_targetAtFixation,jsons/VE125_randls_15.json,http://54.235.29.9/FacialAge/BNav_EC2/DepthDuration/v2_depth_duration_MTurk/v2_DepthDuration_HTML.html#5,5,1600,789,1600,900,8-21-2022,10-56-46,141,depth_duration_stimuli/001450_2014-06-19_17-02-03_260595134347_rgbf000203-resize_4/001450_2014-06-19_17-02-03_260595134347_rgbf000203-resize_4-target.png,125,4.0106666666667,2,2197,126,meters,jsons/VE125_randls_15.json,642201,1123102,30,Woman
141,639413,DepthScenes,duration_manipulation_targetAtFixation,jsons/VE125_randls_15.json,http://54.235.29.9/FacialAge/BNav_EC2/DepthDuration/v2_depth_duration_MTurk/v2_DepthDuration_HTML.html#5,5,1600,789,1600,900,8-21-2022,10-56-46,142,depth_duration_stimuli/002570_2014-06-24_13-59-54_094959634447_rgbf000059-resize_0/002570_2014-06-24_13-59-54_094959634447_rgbf000059-resize_0-target.png,125,4.037,2,2617,126,meters,jsons/VE125_randls_15.json,642201,1123102,30,Woman
142,639413,DepthScenes,duration_manipulation_targetAtFixation,jsons/VE125_randls_15.json,http://54.235.29.9/FacialAge/BNav_EC2/DepthDuration/v2_depth_duration_MTurk/v2_DepthDuration_HTML.html#5,5,1600,789,1600,900,8-21-2022,10-56-46,143,depth_duration_stimuli/002467_2014-06-28_20-38-07_260595134347_rgbf000026-resize_2/002467_2014-06-28_20-38-07_260595134347_rgbf000026-resize_2-target.png,125,4.742,1,3092,126,meters,jsons/VE125_randls_15.json,642201,1123102,30,Woman
143,639413,DepthScenes,duration_manipulation_targetAtFixation,jsons/VE125_randls_15.json,http://54.235.29.9/FacialAge/BNav_EC2/DepthDuration/v2_depth_duration_MTurk/v2_DepthDuration_HTML.html#5,5,1600,789,1600,900,8-21-2022,10-56-46,144,depth_duration_stimuli/000929_2014-06-09_16-33-19_260595134347_rgbf000139-resize_0/000929_2014-06-09_16-33-19_260595134347_rgbf000139-resize_0-target.png,125,2.8680000000000003,2,2385,124,meters,jsons/VE125_randls_15.json,642201,1123102,30,Woman
144,639413,DepthScenes,duration_manipulation_targetAtFixation,jsons/VE125_randls_15.json,http://54.235.29.9/FacialAge/BNav_EC2/DepthDuration/v2_depth_duration_MTurk/v2_DepthDuration_HTML.html#5,5,1600,789,1600,900,8-21-2022,10-56-46,145,depth_duration_stimuli/000457_2014-06-08_16-52-43_260595134347_rgbf000199-resize_1/000457_2014-06-08_16-52-43_260595134347_rgbf000199-resize_1-target.png,125,3.6489999999999996,2,2281,125,meters,jsons/VE125_randls_15.json,642201,1123102,30,Woman
145,639413,DepthScenes,duration_manipulation_targetAtFixation,jsons/VE125_randls_15.json,http://54.235.29.9/FacialAge/BNav_EC2/DepthDuration/v2_depth_duration_MTurk/v2_DepthDuration_HTML.html#5,5,1600,789,1600,900,8-21-2022,10-56-46,146,depth_duration_stimuli/001498_2014-06-19_17-45-14_260595134347_rgbf000129-resize_4/001498_2014-06-19_17-45-14_260595134347_rgbf000129-resize-original.jpg,125,1.4075,0,2426,126,meters,jsons/VE125_randls_15.json,642201,1123102,30,Woman
146,639413,DepthScenes,duration_manipulation_targetAtFixation,jsons/VE125_randls_15.json,http://54.235.29.9/FacialAge/BNav_EC2/DepthDuration/v2_depth_duration_MTurk/v2_DepthDuration_HTML.html#5,5,1600,789,1600,900,8-21-2022,10-56-46,147,depth_duration_stimuli/001029_2014-06-08_13-17-57_260595134347_rgbf000065-resize_1/001029_2014-06-08_13-17-57_260595134347_rgbf000065-resize_1-target.png,125,3.0835,2,2637,126,meters,jsons/VE125_randls_15.json,642201,1123102,30,Woman
147,639413,DepthScenes,duration_manipulation_targetAtFixation,jsons/VE125_randls_15.json,http://54.235.29.9/FacialAge/BNav_EC2/DepthDuration/v2_depth_duration_MTurk/v2_DepthDuration_HTML.html#5,5,1600,789,1600,900,8-21-2022,10-56-46,148,depth_duration_stimuli/000677_2014-06-08_23-10-32_260595134347_rgbf000158-resize_6/000677_2014-06-08_23-10-32_260595134347_rgbf000158-resize_6-target.png,125,3.556,2,2856,125,meters,jsons/VE125_randls_15.json,642201,1123102,30,Woman
148,639413,DepthScenes,duration_manipulation_targetAtFixation,jsons/VE125_randls_15.json,http://54.235.29.9/FacialAge/BNav_EC2/DepthDuration/v2_depth_duration_MTurk/v2_DepthDuration_HTML.html#5,5,1600,789,1600,900,8-21-2022,10-56-46,149,depth_duration_stimuli/002788_2014-06-22_19-36-03_094959634447_rgbf000088-resize_2/002788_2014-06-22_19-36-03_094959634447_rgbf000088-resize_2-target.png,125,1.6465,2,2437,124,meters,jsons/VE125_randls_15.json,642201,1123102,30,Woman
149,639413,DepthScenes,duration_manipulation_targetAtFixation,jsons/VE125_randls_15.json,http://54.235.29.9/FacialAge/BNav_EC2/DepthDuration/v2_depth_duration_MTurk/v2_DepthDuration_HTML.html#5,5,1600,789,1600,900,8-21-2022,10-56-46,150,depth_duration_stimuli/000749_2014-06-08_21-55-06_260595134347_rgbf000070-resize_2/000749_2014-06-08_21-55-06_260595134347_rgbf000070-resize_2-target.png,125,2.331,2,2554,126,meters,jsons/VE125_randls_15.json,642201,1123102,30,Woman
150,639413,DepthScenes,duration_manipulation_targetAtFixation,jsons/VE125_randls_15.json,http://54.235.29.9/FacialAge/BNav_EC2/DepthDuration/v2_depth_duration_MTurk/v2_DepthDuration_HTML.html#5,5,1600,789,1600,900,8-21-2022,10-56-46,151,depth_duration_stimuli/000739_2014-06-08_18-45-58_260595134347_rgbf000068-resize_1/000739_2014-06-08_18-45-58_260595134347_rgbf000068-resize_1-target.png,125,3.534,1,2180,125,meters,jsons/VE125_randls_15.json,642201,1123102,30,Woman
151,639413,DepthScenes,duration_manipulation_targetAtFixation,jsons/VE125_randls_15.json,http://54.235.29.9/FacialAge/BNav_EC2/DepthDuration/v2_depth_duration_MTurk/v2_DepthDuration_HTML.html#5,5,1600,789,1600,900,8-21-2022,10-56-46,152,depth_duration_stimuli/000734_2014-06-08_17-39-11_260595134347_rgbf000128-resize_2/000734_2014-06-08_17-39-11_260595134347_rgbf000128-resize_2-target.png,125,4.098,2,1999,125,meters,jsons/VE125_randls_15.json,642201,1123102,30,Woman
152,639413,DepthScenes,duration_manipulation_targetAtFixation,jsons/VE125_randls_15.json,http://54.235.29.9/FacialAge/BNav_EC2/DepthDuration/v2_depth_duration_MTurk/v2_DepthDuration_HTML.html#5,5,1600,789,1600,900,8-21-2022,10-56-46,153,depth_duration_stimuli/002784_2014-06-22_19-26-30_094959634447_rgbf000083-resize_3/002784_2014-06-22_19-26-30_094959634447_rgbf000083-resize_3-target.png,125,1.8046666666667,2,2141,126,meters,jsons/VE125_randls_15.json,642201,1123102,30,Woman
153,639413,DepthScenes,duration_manipulation_targetAtFixation,jsons/VE125_randls_15.json,http://54.235.29.9/FacialAge/BNav_EC2/DepthDuration/v2_depth_duration_MTurk/v2_DepthDuration_HTML.html#5,5,1600,789,1600,900,8-21-2022,10-56-46,154,depth_duration_stimuli/001100_2014-06-15_17-46-26_260595134347_rgbf000225-resize_2/001100_2014-06-15_17-46-26_260595134347_rgbf000225-resize_2-target.png,125,2.24,1,2291,125,meters,jsons/VE125_randls_15.json,642201,1123102,30,Woman
154,639413,DepthScenes,duration_manipulation_targetAtFixation,jsons/VE125_randls_15.json,http://54.235.29.9/FacialAge/BNav_EC2/DepthDuration/v2_depth_duration_MTurk/v2_DepthDuration_HTML.html#5,5,1600,789,1600,900,8-21-2022,10-56-46,155,depth_duration_stimuli/001570_2014-06-20_17-21-09_260595134347_rgbf000135-resize_4/001570_2014-06-20_17-21-09_260595134347_rgbf000135-resize_4-target.png,125,4.467,2,3218,126,meters,jsons/VE125_randls_15.json,642201,1123102,30,Woman
155,639413,DepthScenes,duration_manipulation_targetAtFixation,jsons/VE125_randls_15.json,http://54.235.29.9/FacialAge/BNav_EC2/DepthDuration/v2_depth_duration_MTurk/v2_DepthDuration_HTML.html#5,5,1600,789,1600,900,8-21-2022,10-56-46,156,depth_duration_stimuli/001392_2014-06-19_16-07-59_260595134347_rgbf000046-resize_1/001392_2014-06-19_16-07-59_260595134347_rgbf000046-resize_1-target.png,125,4.135,2,2185,125,meters,jsons/VE125_randls_15.json,642201,1123102,30,Woman
156,639413,DepthScenes,duration_manipulation_targetAtFixation,jsons/VE125_randls_15.json,http://54.235.29.9/FacialAge/BNav_EC2/DepthDuration/v2_depth_duration_MTurk/v2_DepthDuration_HTML.html#5,5,1600,789,1600,900,8-21-2022,10-56-46,157,depth_duration_stimuli/000906_2014-06-08_13-35-43_260595134347_rgbf000155-resize_1/000906_2014-06-08_13-35-43_260595134347_rgbf000155-resize_1-target.png,125,2.8489999999999998,1,2642,125,meters,jsons/VE125_randls_15.json,642201,1123102,30,Woman
157,639413,DepthScenes,duration_manipulation_targetAtFixation,jsons/VE125_randls_15.json,http://54.235.29.9/FacialAge/BNav_EC2/DepthDuration/v2_depth_duration_MTurk/v2_DepthDuration_HTML.html#5,5,1600,789,1600,900,8-21-2022,10-56-46,158,depth_duration_stimuli/002805_2014-06-22_19-54-03_094959634447_rgbf000079-resize_1/002805_2014-06-22_19-54-03_094959634447_rgbf000079-resize_1-target.png,125,3.1439999999999997,2,2379,124,meters,jsons/VE125_randls_15.json,642201,1123102,30,Woman
158,639413,DepthScenes,duration_manipulation_targetAtFixation,jsons/VE125_randls_15.json,http://54.235.29.9/FacialAge/BNav_EC2/DepthDuration/v2_depth_duration_MTurk/v2_DepthDuration_HTML.html#5,5,1600,789,1600,900,8-21-2022,10-56-46,159,depth_duration_stimuli/001175_2014-06-17_15-45-55_260595134347_rgbf000129-resize_4/001175_2014-06-17_15-45-55_260595134347_rgbf000129-resize_4-target.png,125,4.255,2,2240,124,meters,jsons/VE125_randls_15.json,642201,1123102,30,Woman
159,639413,DepthScenes,duration_manipulation_targetAtFixation,jsons/VE125_randls_15.json,http://54.235.29.9/FacialAge/BNav_EC2/DepthDuration/v2_depth_duration_MTurk/v2_DepthDuration_HTML.html#5,5,1600,789,1600,900,8-21-2022,10-56-46,160,depth_duration_stimuli/003490_2014-05-21_15-50-11_094959634447_rgbf000101-resize_3/003490_2014-05-21_15-50-11_094959634447_rgbf000101-resize_3-target.png,125,3.6445,2,1962,124,meters,jsons/VE125_randls_15.json,642201,1123102,30,Woman
160,639413,DepthScenes,duration_manipulation_targetAtFixation,jsons/VE125_randls_15.json,http://54.235.29.9/FacialAge/BNav_EC2/DepthDuration/v2_depth_duration_MTurk/v2_DepthDuration_HTML.html#5,5,1600,789,1600,900,8-21-2022,10-56-46,161,depth_duration_stimuli/002057_2014-06-24_21-00-13_260595134347_rgbf000120-resize_1/002057_2014-06-24_21-00-13_260595134347_rgbf000120-resize_1-target.png,125,2.967,2,1980,126,meters,jsons/VE125_randls_15.json,642201,1123102,30,Woman
161,639413,DepthScenes,duration_manipulation_targetAtFixation,jsons/VE125_randls_15.json,http://54.235.29.9/FacialAge/BNav_EC2/DepthDuration/v2_depth_duration_MTurk/v2_DepthDuration_HTML.html#5,5,1600,789,1600,900,8-21-2022,10-56-46,162,depth_duration_stimuli/000709_2014-06-08_13-51-55_260595134347_rgbf000068-resize_3/000709_2014-06-08_13-51-55_260595134347_rgbf000068-resize_3-target.png,125,1.8030000000000002,2,2010,125,meters,jsons/VE125_randls_15.json,642201,1123102,30,Woman
162,639413,DepthScenes,duration_manipulation_targetAtFixation,jsons/VE125_randls_15.json,http://54.235.29.9/FacialAge/BNav_EC2/DepthDuration/v2_depth_duration_MTurk/v2_DepthDuration_HTML.html#5,5,1600,789,1600,900,8-21-2022,10-56-46,163,depth_duration_stimuli/002663_2014-06-13_15-50-26_094959634447_rgbf000075-resize_1/002663_2014-06-13_15-50-26_094959634447_rgbf000075-resize_1-target.png,125,4.7495,3,2345,124,meters,jsons/VE125_randls_15.json,642201,1123102,30,Woman
163,639413,DepthScenes,duration_manipulation_targetAtFixation,jsons/VE125_randls_15.json,http://54.235.29.9/FacialAge/BNav_EC2/DepthDuration/v2_depth_duration_MTurk/v2_DepthDuration_HTML.html#5,5,1600,789,1600,900,8-21-2022,10-56-46,164,depth_duration_stimuli/000409_2014-06-04_19-23-33_260595134347_rgbf000067-resize_0/000409_2014-06-04_19-23-33_260595134347_rgbf000067-resize_0-target.png,125,3.7335,2,2131,124,meters,jsons/VE125_randls_15.json,642201,1123102,30,Woman
