,subjID,experimentName,versionName,sequenceName,url,selected_row,windowWidth,windowHeight,screenWidth,screenHeight,startDate,startTime,trial,stimulus,duration,actual_depth,depth_estimate,trial_RT,log_sceneDuration,unitSelection,seq_filepath,experimentTime,totalTime,age,gender
0,639734,DepthScenes,duration_manipulation_targetAtFixation,jsons/v1_VE1000_randls_77_rotated.json,http://54.235.29.9/FacialAge/BNav_EC2/DepthDuration/v2_depth_duration_MTurk/v2_DepthDuration_HTML.html#32,32,1280,720,1920,1080,8-22-2022,7-1-48,1,depth_duration_stimuli/000556_2014-06-09_22-42-56_260595134347_rgbf000214-resize_1/000556_2014-06-09_22-42-56_260595134347_rgbf000214-resize_1-target.png,1000,4.8415,8.0,3422,1006,feet,jsons/v1_VE1000_randls_77_rotated.json,593138,825062,38,Man
1,639734,DepthScenes,duration_manipulation_targetAtFixation,jsons/v1_VE1000_randls_77_rotated.json,http://54.235.29.9/FacialAge/BNav_EC2/DepthDuration/v2_depth_duration_MTurk/v2_DepthDuration_HTML.html#32,32,1280,720,1920,1080,8-22-2022,7-1-48,2,depth_duration_stimuli/001158_2014-06-17_15-32-16_260595134347_rgbf000138-resize_2/001158_2014-06-17_15-32-16_260595134347_rgbf000138-resize_2-target.png,1000,4.5315,10.0,2619,987,feet,jsons/v1_VE1000_randls_77_rotated.json,593138,825062,38,Man
2,639734,DepthScenes,duration_manipulation_targetAtFixation,jsons/v1_VE1000_randls_77_rotated.json,http://54.235.29.9/FacialAge/BNav_EC2/DepthDuration/v2_depth_duration_MTurk/v2_DepthDuration_HTML.html#32,32,1280,720,1920,1080,8-22-2022,7-1-48,3,depth_duration_stimuli/000549_2014-06-08_22-10-24_260595134347_rgbf000247-resize_3/000549_2014-06-08_22-10-24_260595134347_rgbf000247-resize_3-target.png,1000,1.841,2.5,3449,1000,feet,jsons/v1_VE1000_randls_77_rotated.json,593138,825062,38,Man
3,639734,DepthScenes,duration_manipulation_targetAtFixation,jsons/v1_VE1000_randls_77_rotated.json,http://54.235.29.9/FacialAge/BNav_EC2/DepthDuration/v2_depth_duration_MTurk/v2_DepthDuration_HTML.html#32,32,1280,720,1920,1080,8-22-2022,7-1-48,4,depth_duration_stimuli/001055_2014-06-08_18-45-35_260595134347_rgbf000111-resize_4/001055_2014-06-08_18-45-35_260595134347_rgbf000111-resize_4-target.png,1000,2.4290000000000003,5.0,3553,1012,feet,jsons/v1_VE1000_randls_77_rotated.json,593138,825062,38,Man
4,639734,DepthScenes,duration_manipulation_targetAtFixation,jsons/v1_VE1000_randls_77_rotated.json,http://54.235.29.9/FacialAge/BNav_EC2/DepthDuration/v2_depth_duration_MTurk/v2_DepthDuration_HTML.html#32,32,1280,720,1920,1080,8-22-2022,7-1-48,5,depth_duration_stimuli/000854_2014-06-09_19-43-13_260595134347_rgbf000066-resize_0/000854_2014-06-09_19-43-13_260595134347_rgbf000066-resize_0-target.png,1000,3.068,4.5,3334,1012,feet,jsons/v1_VE1000_randls_77_rotated.json,593138,825062,38,Man
5,639734,DepthScenes,duration_manipulation_targetAtFixation,jsons/v1_VE1000_randls_77_rotated.json,http://54.235.29.9/FacialAge/BNav_EC2/DepthDuration/v2_depth_duration_MTurk/v2_DepthDuration_HTML.html#32,32,1280,720,1920,1080,8-22-2022,7-1-48,6,depth_duration_stimuli/000758_2014-06-08_22-05-08_260595134347_rgbf000085-resize_0/000758_2014-06-08_22-05-08_260595134347_rgbf000085-resize_0-target.png,1000,3.3810000000000002,9.0,3164,1014,feet,jsons/v1_VE1000_randls_77_rotated.json,593138,825062,38,Man
6,639734,DepthScenes,duration_manipulation_targetAtFixation,jsons/v1_VE1000_randls_77_rotated.json,http://54.235.29.9/FacialAge/BNav_EC2/DepthDuration/v2_depth_duration_MTurk/v2_DepthDuration_HTML.html#32,32,1280,720,1920,1080,8-22-2022,7-1-48,7,depth_duration_stimuli/002637_2014-06-24_14-51-13_094959634447_rgbf000066-resize_4/002637_2014-06-24_14-51-13_094959634447_rgbf000066-resize_4-target.png,1000,1.9955,4.0,2418,1000,feet,jsons/v1_VE1000_randls_77_rotated.json,593138,825062,38,Man
7,639734,DepthScenes,duration_manipulation_targetAtFixation,jsons/v1_VE1000_randls_77_rotated.json,http://54.235.29.9/FacialAge/BNav_EC2/DepthDuration/v2_depth_duration_MTurk/v2_DepthDuration_HTML.html#32,32,1280,720,1920,1080,8-22-2022,7-1-48,8,depth_duration_stimuli/003534_2014-05-22_15-06-10_094959634447_rgbf000102-resize_4/003534_2014-05-22_15-06-10_094959634447_rgbf000102-resize_4-target.png,1000,1.426,2.0,2596,1002,feet,jsons/v1_VE1000_randls_77_rotated.json,593138,825062,38,Man
8,639734,DepthScenes,duration_manipulation_targetAtFixation,jsons/v1_VE1000_randls_77_rotated.json,http://54.235.29.9/FacialAge/BNav_EC2/DepthDuration/v2_depth_duration_MTurk/v2_DepthDuration_HTML.html#32,32,1280,720,1920,1080,8-22-2022,7-1-48,9,depth_duration_stimuli/002660_2014-06-13_15-44-18_094959634447_rgbf001878-resize_2/002660_2014-06-13_15-44-18_094959634447_rgbf001878-resize_2-target.png,1000,3.576,5.0,2862,1002,feet,jsons/v1_VE1000_randls_77_rotated.json,593138,825062,38,Man
9,639734,DepthScenes,duration_manipulation_targetAtFixation,jsons/v1_VE1000_randls_77_rotated.json,http://54.235.29.9/FacialAge/BNav_EC2/DepthDuration/v2_depth_duration_MTurk/v2_DepthDuration_HTML.html#32,32,1280,720,1920,1080,8-22-2022,7-1-48,10,depth_duration_stimuli/002153_2014-06-25_21-27-18_260595134347_rgbf000038-resize_5/002153_2014-06-25_21-27-18_260595134347_rgbf000038-resize_5-target.png,1000,2.505,4.0,2681,1012,feet,jsons/v1_VE1000_randls_77_rotated.json,593138,825062,38,Man
10,639734,DepthScenes,duration_manipulation_targetAtFixation,jsons/v1_VE1000_randls_77_rotated.json,http://54.235.29.9/FacialAge/BNav_EC2/DepthDuration/v2_depth_duration_MTurk/v2_DepthDuration_HTML.html#32,32,1280,720,1920,1080,8-22-2022,7-1-48,11,depth_duration_stimuli/000665_2014-06-09_20-42-35_260595134347_rgbf000110-resize_1/000665_2014-06-09_20-42-35_260595134347_rgbf000110-resize_1-target.png,1000,3.057,5.0,2499,994,feet,jsons/v1_VE1000_randls_77_rotated.json,593138,825062,38,Man
11,639734,DepthScenes,duration_manipulation_targetAtFixation,jsons/v1_VE1000_randls_77_rotated.json,http://54.235.29.9/FacialAge/BNav_EC2/DepthDuration/v2_depth_duration_MTurk/v2_DepthDuration_HTML.html#32,32,1280,720,1920,1080,8-22-2022,7-1-48,12,depth_duration_stimuli/001150_2014-06-17_15-27-34_260595134347_rgbf000108-resize_2/001150_2014-06-17_15-27-34_260595134347_rgbf000108-resize_2-target.png,1000,4.0325,8.0,2246,1013,feet,jsons/v1_VE1000_randls_77_rotated.json,593138,825062,38,Man
12,639734,DepthScenes,duration_manipulation_targetAtFixation,jsons/v1_VE1000_randls_77_rotated.json,http://54.235.29.9/FacialAge/BNav_EC2/DepthDuration/v2_depth_duration_MTurk/v2_DepthDuration_HTML.html#32,32,1280,720,1920,1080,8-22-2022,7-1-48,13,depth_duration_stimuli/000409_2014-06-04_19-23-33_260595134347_rgbf000067-resize_0/000409_2014-06-04_19-23-33_260595134347_rgbf000067-resize_0-target.png,1000,3.7335,7.0,3330,1005,feet,jsons/v1_VE1000_randls_77_rotated.json,593138,825062,38,Man
13,639734,DepthScenes,duration_manipulation_targetAtFixation,jsons/v1_VE1000_randls_77_rotated.json,http://54.235.29.9/FacialAge/BNav_EC2/DepthDuration/v2_depth_duration_MTurk/v2_DepthDuration_HTML.html#32,32,1280,720,1920,1080,8-22-2022,7-1-48,14,depth_duration_stimuli/002663_2014-06-13_15-50-26_094959634447_rgbf000075-resize_1/002663_2014-06-13_15-50-26_094959634447_rgbf000075-resize_1-target.png,1000,4.7495,11.0,2938,1009,feet,jsons/v1_VE1000_randls_77_rotated.json,593138,825062,38,Man
14,639734,DepthScenes,duration_manipulation_targetAtFixation,jsons/v1_VE1000_randls_77_rotated.json,http://54.235.29.9/FacialAge/BNav_EC2/DepthDuration/v2_depth_duration_MTurk/v2_DepthDuration_HTML.html#32,32,1280,720,1920,1080,8-22-2022,7-1-48,15,depth_duration_stimuli/003338_2014-05-20_11-01-23_094959634447_rgbf000051-resize_6/003338_2014-05-20_11-01-23_094959634447_rgbf000051-resize_6-target.png,1000,1.693,2.5,3611,1008,feet,jsons/v1_VE1000_randls_77_rotated.json,593138,825062,38,Man
15,639734,DepthScenes,duration_manipulation_targetAtFixation,jsons/v1_VE1000_randls_77_rotated.json,http://54.235.29.9/FacialAge/BNav_EC2/DepthDuration/v2_depth_duration_MTurk/v2_DepthDuration_HTML.html#32,32,1280,720,1920,1080,8-22-2022,7-1-48,16,depth_duration_stimuli/002509_2014-06-24_13-19-22_094959634447_rgbf000077-resize_0/002509_2014-06-24_13-19-22_094959634447_rgbf000077-resize_0-target.png,1000,1.3065,2.0,2464,1009,feet,jsons/v1_VE1000_randls_77_rotated.json,593138,825062,38,Man
16,639734,DepthScenes,duration_manipulation_targetAtFixation,jsons/v1_VE1000_randls_77_rotated.json,http://54.235.29.9/FacialAge/BNav_EC2/DepthDuration/v2_depth_duration_MTurk/v2_DepthDuration_HTML.html#32,32,1280,720,1920,1080,8-22-2022,7-1-48,17,depth_duration_stimuli/003228_2014-05-14_13-42-35_094959634447_rgbf000101-resize_1/003228_2014-05-14_13-42-35_094959634447_rgbf000101-resize_1-target.png,1000,1.9680000000000002,2.0,2381,999,feet,jsons/v1_VE1000_randls_77_rotated.json,593138,825062,38,Man
17,639734,DepthScenes,duration_manipulation_targetAtFixation,jsons/v1_VE1000_randls_77_rotated.json,http://54.235.29.9/FacialAge/BNav_EC2/DepthDuration/v2_depth_duration_MTurk/v2_DepthDuration_HTML.html#32,32,1280,720,1920,1080,8-22-2022,7-1-48,18,depth_duration_stimuli/002600_2014-06-24_14-27-04_094959634447_rgbf000074-resize_2/002600_2014-06-24_14-27-04_094959634447_rgbf000074-resize_2-target.png,1000,2.7575,5.0,4079,1000,feet,jsons/v1_VE1000_randls_77_rotated.json,593138,825062,38,Man
18,639734,DepthScenes,duration_manipulation_targetAtFixation,jsons/v1_VE1000_randls_77_rotated.json,http://54.235.29.9/FacialAge/BNav_EC2/DepthDuration/v2_depth_duration_MTurk/v2_DepthDuration_HTML.html#32,32,1280,720,1920,1080,8-22-2022,7-1-48,19,depth_duration_stimuli/001498_2014-06-19_17-45-14_260595134347_rgbf000129-resize_4/001498_2014-06-19_17-45-14_260595134347_rgbf000129-resize-original.jpg,1000,1.4075,0.0,2425,1004,feet,jsons/v1_VE1000_randls_77_rotated.json,593138,825062,38,Man
19,639734,DepthScenes,duration_manipulation_targetAtFixation,jsons/v1_VE1000_randls_77_rotated.json,http://54.235.29.9/FacialAge/BNav_EC2/DepthDuration/v2_depth_duration_MTurk/v2_DepthDuration_HTML.html#32,32,1280,720,1920,1080,8-22-2022,7-1-48,20,depth_duration_stimuli/001100_2014-06-15_17-46-26_260595134347_rgbf000225-resize_2/001100_2014-06-15_17-46-26_260595134347_rgbf000225-resize_2-target.png,1000,2.24,2.0,2517,998,feet,jsons/v1_VE1000_randls_77_rotated.json,593138,825062,38,Man
20,639734,DepthScenes,duration_manipulation_targetAtFixation,jsons/v1_VE1000_randls_77_rotated.json,http://54.235.29.9/FacialAge/BNav_EC2/DepthDuration/v2_depth_duration_MTurk/v2_DepthDuration_HTML.html#32,32,1280,720,1920,1080,8-22-2022,7-1-48,21,depth_duration_stimuli/002784_2014-06-22_19-26-30_094959634447_rgbf000083-resize_3/002784_2014-06-22_19-26-30_094959634447_rgbf000083-resize_3-target.png,1000,1.8046666666667,3.0,4240,1000,feet,jsons/v1_VE1000_randls_77_rotated.json,593138,825062,38,Man
21,639734,DepthScenes,duration_manipulation_targetAtFixation,jsons/v1_VE1000_randls_77_rotated.json,http://54.235.29.9/FacialAge/BNav_EC2/DepthDuration/v2_depth_duration_MTurk/v2_DepthDuration_HTML.html#32,32,1280,720,1920,1080,8-22-2022,7-1-48,22,depth_duration_stimuli/002199_2014-06-28_18-33-56_260595134347_rgbf000074-resize_0/002199_2014-06-28_18-33-56_260595134347_rgbf000074-resize_0-target.png,1000,1.996,2.0,2725,1000,feet,jsons/v1_VE1000_randls_77_rotated.json,593138,825062,38,Man
22,639734,DepthScenes,duration_manipulation_targetAtFixation,jsons/v1_VE1000_randls_77_rotated.json,http://54.235.29.9/FacialAge/BNav_EC2/DepthDuration/v2_depth_duration_MTurk/v2_DepthDuration_HTML.html#32,32,1280,720,1920,1080,8-22-2022,7-1-48,23,depth_duration_stimuli/001056_2014-06-08_18-46-44_260595134347_rgbf000068-resize_0/001056_2014-06-08_18-46-44_260595134347_rgbf000068-resize_0-target.png,1000,2.6625,5.0,3936,1006,feet,jsons/v1_VE1000_randls_77_rotated.json,593138,825062,38,Man
23,639734,DepthScenes,duration_manipulation_targetAtFixation,jsons/v1_VE1000_randls_77_rotated.json,http://54.235.29.9/FacialAge/BNav_EC2/DepthDuration/v2_depth_duration_MTurk/v2_DepthDuration_HTML.html#32,32,1280,720,1920,1080,8-22-2022,7-1-48,24,depth_duration_stimuli/002136_2014-06-25_21-18-03_260595134347_rgbf000109-resize_3/002136_2014-06-25_21-18-03_260595134347_rgbf000109-resize_3-target.png,1000,1.9569999999999999,3.0,2729,1004,feet,jsons/v1_VE1000_randls_77_rotated.json,593138,825062,38,Man
24,639734,DepthScenes,duration_manipulation_targetAtFixation,jsons/v1_VE1000_randls_77_rotated.json,http://54.235.29.9/FacialAge/BNav_EC2/DepthDuration/v2_depth_duration_MTurk/v2_DepthDuration_HTML.html#32,32,1280,720,1920,1080,8-22-2022,7-1-48,25,depth_duration_stimuli/002964_2014-06-08_17-46-11_094959634447_rgbf000091-resize_4/002964_2014-06-08_17-46-11_094959634447_rgbf000091-resize_4-target.png,1000,1.6909999999999998,1.5,3036,1010,feet,jsons/v1_VE1000_randls_77_rotated.json,593138,825062,38,Man
25,639734,DepthScenes,duration_manipulation_targetAtFixation,jsons/v1_VE1000_randls_77_rotated.json,http://54.235.29.9/FacialAge/BNav_EC2/DepthDuration/v2_depth_duration_MTurk/v2_DepthDuration_HTML.html#32,32,1280,720,1920,1080,8-22-2022,7-1-48,26,depth_duration_stimuli/001571_2014-06-20_17-21-32_260595134347_rgbf000089-resize_1/001571_2014-06-20_17-21-32_260595134347_rgbf000089-resize_1-target.png,1000,1.86,3.0,3130,1000,feet,jsons/v1_VE1000_randls_77_rotated.json,593138,825062,38,Man
26,639734,DepthScenes,duration_manipulation_targetAtFixation,jsons/v1_VE1000_randls_77_rotated.json,http://54.235.29.9/FacialAge/BNav_EC2/DepthDuration/v2_depth_duration_MTurk/v2_DepthDuration_HTML.html#32,32,1280,720,1920,1080,8-22-2022,7-1-48,27,depth_duration_stimuli/002272_2014-06-28_18-53-56_260595134347_rgbf000067-resize_2/002272_2014-06-28_18-53-56_260595134347_rgbf000067-resize_2-target.png,1000,1.138,1.8,4367,1000,feet,jsons/v1_VE1000_randls_77_rotated.json,593138,825062,38,Man
27,639734,DepthScenes,duration_manipulation_targetAtFixation,jsons/v1_VE1000_randls_77_rotated.json,http://54.235.29.9/FacialAge/BNav_EC2/DepthDuration/v2_depth_duration_MTurk/v2_DepthDuration_HTML.html#32,32,1280,720,1920,1080,8-22-2022,7-1-48,28,depth_duration_stimuli/002323_2014-06-28_20-01-54_260595134347_rgbf000051-resize_4/002323_2014-06-28_20-01-54_260595134347_rgbf000051-resize_4-target.png,1000,3.7310000000000003,12.0,3285,990,feet,jsons/v1_VE1000_randls_77_rotated.json,593138,825062,38,Man
28,639734,DepthScenes,duration_manipulation_targetAtFixation,jsons/v1_VE1000_randls_77_rotated.json,http://54.235.29.9/FacialAge/BNav_EC2/DepthDuration/v2_depth_duration_MTurk/v2_DepthDuration_HTML.html#32,32,1280,720,1920,1080,8-22-2022,7-1-48,29,depth_duration_stimuli/000917_2014-06-09_22-45-29_260595134347_rgbf000149-resize_3/000917_2014-06-09_22-45-29_260595134347_rgbf000149-resize_3-target.png,1000,4.1865,9.0,4282,1000,feet,jsons/v1_VE1000_randls_77_rotated.json,593138,825062,38,Man
29,639734,DepthScenes,duration_manipulation_targetAtFixation,jsons/v1_VE1000_randls_77_rotated.json,http://54.235.29.9/FacialAge/BNav_EC2/DepthDuration/v2_depth_duration_MTurk/v2_DepthDuration_HTML.html#32,32,1280,720,1920,1080,8-22-2022,7-1-48,30,depth_duration_stimuli/002072_2014-06-24_21-48-06_260595134347_rgbf000115-resize_0/002072_2014-06-24_21-48-06_260595134347_rgbf000115-resize-original.jpg,1000,4.702,0.0,2709,993,feet,jsons/v1_VE1000_randls_77_rotated.json,593138,825062,38,Man
30,639734,DepthScenes,duration_manipulation_targetAtFixation,jsons/v1_VE1000_randls_77_rotated.json,http://54.235.29.9/FacialAge/BNav_EC2/DepthDuration/v2_depth_duration_MTurk/v2_DepthDuration_HTML.html#32,32,1280,720,1920,1080,8-22-2022,7-1-48,31,depth_duration_stimuli/002425_2014-06-28_20-27-29_260595134347_rgbf000031-resize_8/002425_2014-06-28_20-27-29_260595134347_rgbf000031-resize_8-target.png,1000,3.8960000000000004,8.0,3136,1011,feet,jsons/v1_VE1000_randls_77_rotated.json,593138,825062,38,Man
31,639734,DepthScenes,duration_manipulation_targetAtFixation,jsons/v1_VE1000_randls_77_rotated.json,http://54.235.29.9/FacialAge/BNav_EC2/DepthDuration/v2_depth_duration_MTurk/v2_DepthDuration_HTML.html#32,32,1280,720,1920,1080,8-22-2022,7-1-48,32,depth_duration_stimuli/000642_2014-06-08_16-59-25_260595134347_rgbf000098-resize_2/000642_2014-06-08_16-59-25_260595134347_rgbf000098-resize_2-target.png,1000,2.8815,5.0,2818,999,feet,jsons/v1_VE1000_randls_77_rotated.json,593138,825062,38,Man
32,639734,DepthScenes,duration_manipulation_targetAtFixation,jsons/v1_VE1000_randls_77_rotated.json,http://54.235.29.9/FacialAge/BNav_EC2/DepthDuration/v2_depth_duration_MTurk/v2_DepthDuration_HTML.html#32,32,1280,720,1920,1080,8-22-2022,7-1-48,33,depth_duration_stimuli/000457_2014-06-08_16-52-43_260595134347_rgbf000199-resize_1/000457_2014-06-08_16-52-43_260595134347_rgbf000199-resize_1-target.png,1000,3.6489999999999996,5.0,11518,1000,feet,jsons/v1_VE1000_randls_77_rotated.json,593138,825062,38,Man
33,639734,DepthScenes,duration_manipulation_targetAtFixation,jsons/v1_VE1000_randls_77_rotated.json,http://54.235.29.9/FacialAge/BNav_EC2/DepthDuration/v2_depth_duration_MTurk/v2_DepthDuration_HTML.html#32,32,1280,720,1920,1080,8-22-2022,7-1-48,34,depth_duration_stimuli/000929_2014-06-09_16-33-19_260595134347_rgbf000139-resize_0/000929_2014-06-09_16-33-19_260595134347_rgbf000139-resize_0-target.png,1000,2.8680000000000003,4.5,3816,1015,feet,jsons/v1_VE1000_randls_77_rotated.json,593138,825062,38,Man
34,639734,DepthScenes,duration_manipulation_targetAtFixation,jsons/v1_VE1000_randls_77_rotated.json,http://54.235.29.9/FacialAge/BNav_EC2/DepthDuration/v2_depth_duration_MTurk/v2_DepthDuration_HTML.html#32,32,1280,720,1920,1080,8-22-2022,7-1-48,35,depth_duration_stimuli/003079_2014-06-15_15-18-20_094959634447_rgbf000152-resize_8/003079_2014-06-15_15-18-20_094959634447_rgbf000152-resize_8-target.png,1000,2.8775,6.0,2781,1000,feet,jsons/v1_VE1000_randls_77_rotated.json,593138,825062,38,Man
35,639734,DepthScenes,duration_manipulation_targetAtFixation,jsons/v1_VE1000_randls_77_rotated.json,http://54.235.29.9/FacialAge/BNav_EC2/DepthDuration/v2_depth_duration_MTurk/v2_DepthDuration_HTML.html#32,32,1280,720,1920,1080,8-22-2022,7-1-48,36,depth_duration_stimuli/000506_2014-06-08_23-21-00_260595134347_rgbf000070-resize_7/000506_2014-06-08_23-21-00_260595134347_rgbf000070-resize_7-target.png,1000,4.0585,8.0,2554,1000,feet,jsons/v1_VE1000_randls_77_rotated.json,593138,825062,38,Man
36,639734,DepthScenes,duration_manipulation_targetAtFixation,jsons/v1_VE1000_randls_77_rotated.json,http://54.235.29.9/FacialAge/BNav_EC2/DepthDuration/v2_depth_duration_MTurk/v2_DepthDuration_HTML.html#32,32,1280,720,1920,1080,8-22-2022,7-1-48,37,depth_duration_stimuli/002344_2014-06-28_20-06-29_260595134347_rgbf000030-resize_1/002344_2014-06-28_20-06-29_260595134347_rgbf000030-resize_1-target.png,1000,1.5795,1.5,2999,1000,feet,jsons/v1_VE1000_randls_77_rotated.json,593138,825062,38,Man
37,639734,DepthScenes,duration_manipulation_targetAtFixation,jsons/v1_VE1000_randls_77_rotated.json,http://54.235.29.9/FacialAge/BNav_EC2/DepthDuration/v2_depth_duration_MTurk/v2_DepthDuration_HTML.html#32,32,1280,720,1920,1080,8-22-2022,7-1-48,38,depth_duration_stimuli/002725_2014-06-22_11-47-51_094959634447_rgbf000070-resize_1/002725_2014-06-22_11-47-51_094959634447_rgbf000070-resize_1-target.png,1000,2.195,3.5,3942,986,feet,jsons/v1_VE1000_randls_77_rotated.json,593138,825062,38,Man
38,639734,DepthScenes,duration_manipulation_targetAtFixation,jsons/v1_VE1000_randls_77_rotated.json,http://54.235.29.9/FacialAge/BNav_EC2/DepthDuration/v2_depth_duration_MTurk/v2_DepthDuration_HTML.html#32,32,1280,720,1920,1080,8-22-2022,7-1-48,39,depth_duration_stimuli/002678_2014-06-13_16-15-32_094959634447_rgbf000151-resize_6/002678_2014-06-13_16-15-32_094959634447_rgbf000151-resize_6-target.png,1000,2.1830000000000003,4.0,2602,1013,feet,jsons/v1_VE1000_randls_77_rotated.json,593138,825062,38,Man
39,639734,DepthScenes,duration_manipulation_targetAtFixation,jsons/v1_VE1000_randls_77_rotated.json,http://54.235.29.9/FacialAge/BNav_EC2/DepthDuration/v2_depth_duration_MTurk/v2_DepthDuration_HTML.html#32,32,1280,720,1920,1080,8-22-2022,7-1-48,40,depth_duration_stimuli/000368_2014-06-09_15-53-01_260595134347_rgbf000155-resize_2/000368_2014-06-09_15-53-01_260595134347_rgbf000155-resize_2-target.png,1000,2.4859999999999998,3.0,3017,1007,feet,jsons/v1_VE1000_randls_77_rotated.json,593138,825062,38,Man
40,639734,DepthScenes,duration_manipulation_targetAtFixation,jsons/v1_VE1000_randls_77_rotated.json,http://54.235.29.9/FacialAge/BNav_EC2/DepthDuration/v2_depth_duration_MTurk/v2_DepthDuration_HTML.html#32,32,1280,720,1920,1080,8-22-2022,7-1-48,41,depth_duration_stimuli/001650_2014-06-20_12-09-00_260595134347_rgbf000087-resize_3/001650_2014-06-20_12-09-00_260595134347_rgbf000087-resize_3-target.png,1000,1.9505,1.5,3762,1001,feet,jsons/v1_VE1000_randls_77_rotated.json,593138,825062,38,Man
41,639734,DepthScenes,duration_manipulation_targetAtFixation,jsons/v1_VE1000_randls_77_rotated.json,http://54.235.29.9/FacialAge/BNav_EC2/DepthDuration/v2_depth_duration_MTurk/v2_DepthDuration_HTML.html#32,32,1280,720,1920,1080,8-22-2022,7-1-48,42,depth_duration_stimuli/000682_2014-06-08_23-14-58_260595134347_rgbf000041-resize_5/000682_2014-06-08_23-14-58_260595134347_rgbf000041-resize_5-target.png,1000,2.7239999999999998,5.0,2712,1014,feet,jsons/v1_VE1000_randls_77_rotated.json,593138,825062,38,Man
42,639734,DepthScenes,duration_manipulation_targetAtFixation,jsons/v1_VE1000_randls_77_rotated.json,http://54.235.29.9/FacialAge/BNav_EC2/DepthDuration/v2_depth_duration_MTurk/v2_DepthDuration_HTML.html#32,32,1280,720,1920,1080,8-22-2022,7-1-48,43,depth_duration_stimuli/003048_2014-06-15_13-49-43_094959634447_rgbf000150-resize_1/003048_2014-06-15_13-49-43_094959634447_rgbf000150-resize_1-target.png,1000,4.0035,8.0,2479,995,feet,jsons/v1_VE1000_randls_77_rotated.json,593138,825062,38,Man
43,639734,DepthScenes,duration_manipulation_targetAtFixation,jsons/v1_VE1000_randls_77_rotated.json,http://54.235.29.9/FacialAge/BNav_EC2/DepthDuration/v2_depth_duration_MTurk/v2_DepthDuration_HTML.html#32,32,1280,720,1920,1080,8-22-2022,7-1-48,44,depth_duration_stimuli/002043_2014-06-24_20-29-38_260595134347_rgbf000039-resize_4/002043_2014-06-24_20-29-38_260595134347_rgbf000039-resize_4-target.png,1000,2.8435,6.5,6048,1000,feet,jsons/v1_VE1000_randls_77_rotated.json,593138,825062,38,Man
44,639734,DepthScenes,duration_manipulation_targetAtFixation,jsons/v1_VE1000_randls_77_rotated.json,http://54.235.29.9/FacialAge/BNav_EC2/DepthDuration/v2_depth_duration_MTurk/v2_DepthDuration_HTML.html#32,32,1280,720,1920,1080,8-22-2022,7-1-48,45,depth_duration_stimuli/000103_2014-05-14_22-01-17_260595134347_rgbf000152-resize_5/000103_2014-05-14_22-01-17_260595134347_rgbf000152-resize_5-target.png,1000,1.993,4.0,2761,1001,feet,jsons/v1_VE1000_randls_77_rotated.json,593138,825062,38,Man
45,639734,DepthScenes,duration_manipulation_targetAtFixation,jsons/v1_VE1000_randls_77_rotated.json,http://54.235.29.9/FacialAge/BNav_EC2/DepthDuration/v2_depth_duration_MTurk/v2_DepthDuration_HTML.html#32,32,1280,720,1920,1080,8-22-2022,7-1-48,46,depth_duration_stimuli/001555_2014-06-20_17-12-10_260595134347_rgbf000065-resize_4/001555_2014-06-20_17-12-10_260595134347_rgbf000065-resize_4-target.png,1000,1.633,2.0,2573,999,feet,jsons/v1_VE1000_randls_77_rotated.json,593138,825062,38,Man
46,639734,DepthScenes,duration_manipulation_targetAtFixation,jsons/v1_VE1000_randls_77_rotated.json,http://54.235.29.9/FacialAge/BNav_EC2/DepthDuration/v2_depth_duration_MTurk/v2_DepthDuration_HTML.html#32,32,1280,720,1920,1080,8-22-2022,7-1-48,47,depth_duration_stimuli/002805_2014-06-22_19-54-03_094959634447_rgbf000079-resize_1/002805_2014-06-22_19-54-03_094959634447_rgbf000079-resize_1-target.png,1000,3.1439999999999997,7.0,2436,1001,feet,jsons/v1_VE1000_randls_77_rotated.json,593138,825062,38,Man
47,639734,DepthScenes,duration_manipulation_targetAtFixation,jsons/v1_VE1000_randls_77_rotated.json,http://54.235.29.9/FacialAge/BNav_EC2/DepthDuration/v2_depth_duration_MTurk/v2_DepthDuration_HTML.html#32,32,1280,720,1920,1080,8-22-2022,7-1-48,48,depth_duration_stimuli/000906_2014-06-08_13-35-43_260595134347_rgbf000155-resize_1/000906_2014-06-08_13-35-43_260595134347_rgbf000155-resize_1-target.png,1000,2.8489999999999998,6.0,3695,1000,feet,jsons/v1_VE1000_randls_77_rotated.json,593138,825062,38,Man
48,639734,DepthScenes,duration_manipulation_targetAtFixation,jsons/v1_VE1000_randls_77_rotated.json,http://54.235.29.9/FacialAge/BNav_EC2/DepthDuration/v2_depth_duration_MTurk/v2_DepthDuration_HTML.html#32,32,1280,720,1920,1080,8-22-2022,7-1-48,49,depth_duration_stimuli/001170_2014-06-17_15-43-44_260595134347_rgbf000096-resize_6/001170_2014-06-17_15-43-44_260595134347_rgbf000096-resize-original.jpg,1000,1.1909999999999998,0.0,3715,998,feet,jsons/v1_VE1000_randls_77_rotated.json,593138,825062,38,Man
49,639734,DepthScenes,duration_manipulation_targetAtFixation,jsons/v1_VE1000_randls_77_rotated.json,http://54.235.29.9/FacialAge/BNav_EC2/DepthDuration/v2_depth_duration_MTurk/v2_DepthDuration_HTML.html#32,32,1280,720,1920,1080,8-22-2022,7-1-48,50,depth_duration_stimuli/002758_2014-06-22_19-11-20_094959634447_rgbf000128-resize_1/002758_2014-06-22_19-11-20_094959634447_rgbf000128-resize_1-target.png,1000,2.555,4.0,3619,986,feet,jsons/v1_VE1000_randls_77_rotated.json,593138,825062,38,Man
50,639734,DepthScenes,duration_manipulation_targetAtFixation,jsons/v1_VE1000_randls_77_rotated.json,http://54.235.29.9/FacialAge/BNav_EC2/DepthDuration/v2_depth_duration_MTurk/v2_DepthDuration_HTML.html#32,32,1280,720,1920,1080,8-22-2022,7-1-48,51,depth_duration_stimuli/002630_2014-06-24_14-47-50_094959634447_rgbf000055-resize_1/002630_2014-06-24_14-47-50_094959634447_rgbf000055-resize_1-target.png,1000,3.0095,8.0,2805,1005,feet,jsons/v1_VE1000_randls_77_rotated.json,593138,825062,38,Man
51,639734,DepthScenes,duration_manipulation_targetAtFixation,jsons/v1_VE1000_randls_77_rotated.json,http://54.235.29.9/FacialAge/BNav_EC2/DepthDuration/v2_depth_duration_MTurk/v2_DepthDuration_HTML.html#32,32,1280,720,1920,1080,8-22-2022,7-1-48,52,depth_duration_stimuli/002953_2014-06-08_17-32-18_094959634447_rgbf000059-resize_5/002953_2014-06-08_17-32-18_094959634447_rgbf000059-resize_5-target.png,1000,1.551,3.0,2339,1004,feet,jsons/v1_VE1000_randls_77_rotated.json,593138,825062,38,Man
52,639734,DepthScenes,duration_manipulation_targetAtFixation,jsons/v1_VE1000_randls_77_rotated.json,http://54.235.29.9/FacialAge/BNav_EC2/DepthDuration/v2_depth_duration_MTurk/v2_DepthDuration_HTML.html#32,32,1280,720,1920,1080,8-22-2022,7-1-48,53,depth_duration_stimuli/000878_2014-06-08_22-52-45_260595134347_rgbf000045-resize_2/000878_2014-06-08_22-52-45_260595134347_rgbf000045-resize_2-target.png,1000,2.092,5.0,2512,1005,feet,jsons/v1_VE1000_randls_77_rotated.json,593138,825062,38,Man
53,639734,DepthScenes,duration_manipulation_targetAtFixation,jsons/v1_VE1000_randls_77_rotated.json,http://54.235.29.9/FacialAge/BNav_EC2/DepthDuration/v2_depth_duration_MTurk/v2_DepthDuration_HTML.html#32,32,1280,720,1920,1080,8-22-2022,7-1-48,54,depth_duration_stimuli/002568_2014-06-24_13-59-21_094959634447_rgbf000062-resize_4/002568_2014-06-24_13-59-21_094959634447_rgbf000062-resize_4-target.png,1000,3.015,6.0,2366,1002,feet,jsons/v1_VE1000_randls_77_rotated.json,593138,825062,38,Man
54,639734,DepthScenes,duration_manipulation_targetAtFixation,jsons/v1_VE1000_randls_77_rotated.json,http://54.235.29.9/FacialAge/BNav_EC2/DepthDuration/v2_depth_duration_MTurk/v2_DepthDuration_HTML.html#32,32,1280,720,1920,1080,8-22-2022,7-1-48,55,depth_duration_stimuli/003492_2014-05-21_15-50-55_094959634447_rgbf000828-resize_1/003492_2014-05-21_15-50-55_094959634447_rgbf000828-resize_1-target.png,1000,4.06875,7.0,2662,1000,feet,jsons/v1_VE1000_randls_77_rotated.json,593138,825062,38,Man
55,639734,DepthScenes,duration_manipulation_targetAtFixation,jsons/v1_VE1000_randls_77_rotated.json,http://54.235.29.9/FacialAge/BNav_EC2/DepthDuration/v2_depth_duration_MTurk/v2_DepthDuration_HTML.html#32,32,1280,720,1920,1080,8-22-2022,7-1-48,56,depth_duration_stimuli/000927_2014-06-09_16-32-30_260595134347_rgbf000123-resize_3/000927_2014-06-09_16-32-30_260595134347_rgbf000123-resize_3-target.png,1000,2.6785,6.0,2654,1000,feet,jsons/v1_VE1000_randls_77_rotated.json,593138,825062,38,Man
56,639734,DepthScenes,duration_manipulation_targetAtFixation,jsons/v1_VE1000_randls_77_rotated.json,http://54.235.29.9/FacialAge/BNav_EC2/DepthDuration/v2_depth_duration_MTurk/v2_DepthDuration_HTML.html#32,32,1280,720,1920,1080,8-22-2022,7-1-48,57,depth_duration_stimuli/001110_2014-06-15_17-25-28_260595134347_rgbf000150-resize_1/001110_2014-06-15_17-25-28_260595134347_rgbf000150-resize_1-target.png,1000,1.7115,4.5,6407,1002,feet,jsons/v1_VE1000_randls_77_rotated.json,593138,825062,38,Man
57,639734,DepthScenes,duration_manipulation_targetAtFixation,jsons/v1_VE1000_randls_77_rotated.json,http://54.235.29.9/FacialAge/BNav_EC2/DepthDuration/v2_depth_duration_MTurk/v2_DepthDuration_HTML.html#32,32,1280,720,1920,1080,8-22-2022,7-1-48,58,depth_duration_stimuli/002657_2014-06-13_15-29-54_094959634447_rgbf000150-resize_1/002657_2014-06-13_15-29-54_094959634447_rgbf000150-resize_1-target.png,1000,4.919,8.0,4158,1014,feet,jsons/v1_VE1000_randls_77_rotated.json,593138,825062,38,Man
58,639734,DepthScenes,duration_manipulation_targetAtFixation,jsons/v1_VE1000_randls_77_rotated.json,http://54.235.29.9/FacialAge/BNav_EC2/DepthDuration/v2_depth_duration_MTurk/v2_DepthDuration_HTML.html#32,32,1280,720,1920,1080,8-22-2022,7-1-48,59,depth_duration_stimuli/002375_2014-06-28_20-13-44_260595134347_rgbf000032-resize_1/002375_2014-06-28_20-13-44_260595134347_rgbf000032-resize_1-target.png,1000,4.0175,7.0,2498,1000,feet,jsons/v1_VE1000_randls_77_rotated.json,593138,825062,38,Man
59,639734,DepthScenes,duration_manipulation_targetAtFixation,jsons/v1_VE1000_randls_77_rotated.json,http://54.235.29.9/FacialAge/BNav_EC2/DepthDuration/v2_depth_duration_MTurk/v2_DepthDuration_HTML.html#32,32,1280,720,1920,1080,8-22-2022,7-1-48,60,depth_duration_stimuli/000109_2014-05-14_23-41-52_260595134347_rgbf000035-resize_9/000109_2014-05-14_23-41-52_260595134347_rgbf000035-resize_9-target.png,1000,1.3545,3.0,3489,999,feet,jsons/v1_VE1000_randls_77_rotated.json,593138,825062,38,Man
60,639734,DepthScenes,duration_manipulation_targetAtFixation,jsons/v1_VE1000_randls_77_rotated.json,http://54.235.29.9/FacialAge/BNav_EC2/DepthDuration/v2_depth_duration_MTurk/v2_DepthDuration_HTML.html#32,32,1280,720,1920,1080,8-22-2022,7-1-48,61,depth_duration_stimuli/000470_2014-06-09_19-42-40_260595134347_rgbf000094-resize_1/000470_2014-06-09_19-42-40_260595134347_rgbf000094-resize_1-target.png,1000,1.831,2.5,2816,998,feet,jsons/v1_VE1000_randls_77_rotated.json,593138,825062,38,Man
61,639734,DepthScenes,duration_manipulation_targetAtFixation,jsons/v1_VE1000_randls_77_rotated.json,http://54.235.29.9/FacialAge/BNav_EC2/DepthDuration/v2_depth_duration_MTurk/v2_DepthDuration_HTML.html#32,32,1280,720,1920,1080,8-22-2022,7-1-48,62,depth_duration_stimuli/002414_2014-06-28_20-24-58_260595134347_rgbf000067-resize_4/002414_2014-06-28_20-24-58_260595134347_rgbf000067-resize_4-target.png,1000,4.363,10.0,3035,1011,feet,jsons/v1_VE1000_randls_77_rotated.json,593138,825062,38,Man
62,639734,DepthScenes,duration_manipulation_targetAtFixation,jsons/v1_VE1000_randls_77_rotated.json,http://54.235.29.9/FacialAge/BNav_EC2/DepthDuration/v2_depth_duration_MTurk/v2_DepthDuration_HTML.html#32,32,1280,720,1920,1080,8-22-2022,7-1-48,63,depth_duration_stimuli/000773_2014-06-08_22-24-54_260595134347_rgbf000093-resize_1/000773_2014-06-08_22-24-54_260595134347_rgbf000093-resize_1-target.png,1000,4.973,12.0,2589,997,feet,jsons/v1_VE1000_randls_77_rotated.json,593138,825062,38,Man
63,639734,DepthScenes,duration_manipulation_targetAtFixation,jsons/v1_VE1000_randls_77_rotated.json,http://54.235.29.9/FacialAge/BNav_EC2/DepthDuration/v2_depth_duration_MTurk/v2_DepthDuration_HTML.html#32,32,1280,720,1920,1080,8-22-2022,7-1-48,64,depth_duration_stimuli/002875_2014-06-01_15-19-00_094959634447_rgbf000151-resize_1/002875_2014-06-01_15-19-00_094959634447_rgbf000151-resize_1-target.png,1000,1.9675,4.0,2554,1000,feet,jsons/v1_VE1000_randls_77_rotated.json,593138,825062,38,Man
64,639734,DepthScenes,duration_manipulation_targetAtFixation,jsons/v1_VE1000_randls_77_rotated.json,http://54.235.29.9/FacialAge/BNav_EC2/DepthDuration/v2_depth_duration_MTurk/v2_DepthDuration_HTML.html#32,32,1280,720,1920,1080,8-22-2022,7-1-48,65,depth_duration_stimuli/001011_2014-06-08_23-18-54_260595134347_rgbf000044-resize_4/001011_2014-06-08_23-18-54_260595134347_rgbf000044-resize_4-target.png,1000,2.4730000000000003,5.0,3088,1007,feet,jsons/v1_VE1000_randls_77_rotated.json,593138,825062,38,Man
65,639734,DepthScenes,duration_manipulation_targetAtFixation,jsons/v1_VE1000_randls_77_rotated.json,http://54.235.29.9/FacialAge/BNav_EC2/DepthDuration/v2_depth_duration_MTurk/v2_DepthDuration_HTML.html#32,32,1280,720,1920,1080,8-22-2022,7-1-48,66,depth_duration_stimuli/001540_2014-06-20_17-01-05_260595134347_rgbf000086-resize_2/001540_2014-06-20_17-01-05_260595134347_rgbf000086-resize-original.jpg,1000,1.459,0.0,3354,999,feet,jsons/v1_VE1000_randls_77_rotated.json,593138,825062,38,Man
66,639734,DepthScenes,duration_manipulation_targetAtFixation,jsons/v1_VE1000_randls_77_rotated.json,http://54.235.29.9/FacialAge/BNav_EC2/DepthDuration/v2_depth_duration_MTurk/v2_DepthDuration_HTML.html#32,32,1280,720,1920,1080,8-22-2022,7-1-48,67,depth_duration_stimuli/000749_2014-06-08_21-55-06_260595134347_rgbf000070-resize_2/000749_2014-06-08_21-55-06_260595134347_rgbf000070-resize_2-target.png,1000,2.331,4.5,2882,993,feet,jsons/v1_VE1000_randls_77_rotated.json,593138,825062,38,Man
67,639734,DepthScenes,duration_manipulation_targetAtFixation,jsons/v1_VE1000_randls_77_rotated.json,http://54.235.29.9/FacialAge/BNav_EC2/DepthDuration/v2_depth_duration_MTurk/v2_DepthDuration_HTML.html#32,32,1280,720,1920,1080,8-22-2022,7-1-48,68,depth_duration_stimuli/002788_2014-06-22_19-36-03_094959634447_rgbf000088-resize_2/002788_2014-06-22_19-36-03_094959634447_rgbf000088-resize_2-target.png,1000,1.6465,5.0,2355,997,feet,jsons/v1_VE1000_randls_77_rotated.json,593138,825062,38,Man
68,639734,DepthScenes,duration_manipulation_targetAtFixation,jsons/v1_VE1000_randls_77_rotated.json,http://54.235.29.9/FacialAge/BNav_EC2/DepthDuration/v2_depth_duration_MTurk/v2_DepthDuration_HTML.html#32,32,1280,720,1920,1080,8-22-2022,7-1-48,69,depth_duration_stimuli/001584_2014-06-20_11-07-43_260595134347_rgbf000002-resize_1/001584_2014-06-20_11-07-43_260595134347_rgbf000002-resize_1-target.png,1000,3.53,7.0,2554,1001,feet,jsons/v1_VE1000_randls_77_rotated.json,593138,825062,38,Man
69,639734,DepthScenes,duration_manipulation_targetAtFixation,jsons/v1_VE1000_randls_77_rotated.json,http://54.235.29.9/FacialAge/BNav_EC2/DepthDuration/v2_depth_duration_MTurk/v2_DepthDuration_HTML.html#32,32,1280,720,1920,1080,8-22-2022,7-1-48,70,depth_duration_stimuli/003621_2014-05-23_18-06-08_094959634447_rgbf000101-resize_1/003621_2014-05-23_18-06-08_094959634447_rgbf000101-resize_1-target.png,1000,3.9835,10.0,3213,1001,feet,jsons/v1_VE1000_randls_77_rotated.json,593138,825062,38,Man
70,639734,DepthScenes,duration_manipulation_targetAtFixation,jsons/v1_VE1000_randls_77_rotated.json,http://54.235.29.9/FacialAge/BNav_EC2/DepthDuration/v2_depth_duration_MTurk/v2_DepthDuration_HTML.html#32,32,1280,720,1920,1080,8-22-2022,7-1-48,71,depth_duration_stimuli/002209_2014-06-28_18-36-10_260595134347_rgbf000051-resize_1/002209_2014-06-28_18-36-10_260595134347_rgbf000051-resize_1-target.png,1000,2.057,5.0,3100,998,feet,jsons/v1_VE1000_randls_77_rotated.json,593138,825062,38,Man
71,639734,DepthScenes,duration_manipulation_targetAtFixation,jsons/v1_VE1000_randls_77_rotated.json,http://54.235.29.9/FacialAge/BNav_EC2/DepthDuration/v2_depth_duration_MTurk/v2_DepthDuration_HTML.html#32,32,1280,720,1920,1080,8-22-2022,7-1-48,72,depth_duration_stimuli/002763_2014-06-22_19-13-10_094959634447_rgbf000075-resize_4/002763_2014-06-22_19-13-10_094959634447_rgbf000075-resize_4-target.png,1000,1.68375,4.0,3658,1000,feet,jsons/v1_VE1000_randls_77_rotated.json,593138,825062,38,Man
72,639734,DepthScenes,duration_manipulation_targetAtFixation,jsons/v1_VE1000_randls_77_rotated.json,http://54.235.29.9/FacialAge/BNav_EC2/DepthDuration/v2_depth_duration_MTurk/v2_DepthDuration_HTML.html#32,32,1280,720,1920,1080,8-22-2022,7-1-48,73,depth_duration_stimuli/000742_2014-06-08_18-48-09_260595134347_rgbf000164-resize_4/000742_2014-06-08_18-48-09_260595134347_rgbf000164-resize_4-target.png,1000,4.632,8.0,2474,1001,feet,jsons/v1_VE1000_randls_77_rotated.json,593138,825062,38,Man
73,639734,DepthScenes,duration_manipulation_targetAtFixation,jsons/v1_VE1000_randls_77_rotated.json,http://54.235.29.9/FacialAge/BNav_EC2/DepthDuration/v2_depth_duration_MTurk/v2_DepthDuration_HTML.html#32,32,1280,720,1920,1080,8-22-2022,7-1-48,74,depth_duration_stimuli/001066_2014-06-08_22-03-20_260595134347_rgbf000066-resize_4/001066_2014-06-08_22-03-20_260595134347_rgbf000066-resize_4-target.png,1000,4.2330000000000005,10.0,3127,998,feet,jsons/v1_VE1000_randls_77_rotated.json,593138,825062,38,Man
74,639734,DepthScenes,duration_manipulation_targetAtFixation,jsons/v1_VE1000_randls_77_rotated.json,http://54.235.29.9/FacialAge/BNav_EC2/DepthDuration/v2_depth_duration_MTurk/v2_DepthDuration_HTML.html#32,32,1280,720,1920,1080,8-22-2022,7-1-48,75,depth_duration_stimuli/001136_2014-06-17_15-19-41_260595134347_rgbf000076-resize_3/001136_2014-06-17_15-19-41_260595134347_rgbf000076-resize_3-target.png,1000,1.8655,5.0,2700,1005,feet,jsons/v1_VE1000_randls_77_rotated.json,593138,825062,38,Man
75,639734,DepthScenes,duration_manipulation_targetAtFixation,jsons/v1_VE1000_randls_77_rotated.json,http://54.235.29.9/FacialAge/BNav_EC2/DepthDuration/v2_depth_duration_MTurk/v2_DepthDuration_HTML.html#32,32,1280,720,1920,1080,8-22-2022,7-1-48,76,depth_duration_stimuli/001164_2014-06-17_15-35-46_260595134347_rgbf000085-resize_3/001164_2014-06-17_15-35-46_260595134347_rgbf000085-resize_3-target.png,1000,2.354,4.5,3219,1005,feet,jsons/v1_VE1000_randls_77_rotated.json,593138,825062,38,Man
76,639734,DepthScenes,duration_manipulation_targetAtFixation,jsons/v1_VE1000_randls_77_rotated.json,http://54.235.29.9/FacialAge/BNav_EC2/DepthDuration/v2_depth_duration_MTurk/v2_DepthDuration_HTML.html#32,32,1280,720,1920,1080,8-22-2022,7-1-48,77,depth_duration_stimuli/001094_2014-06-15_17-36-00_260595134347_rgbf000205-resize_0/001094_2014-06-15_17-36-00_260595134347_rgbf000205-resize_0-target.png,1000,4.2175,10.0,2951,1001,feet,jsons/v1_VE1000_randls_77_rotated.json,593138,825062,38,Man
77,639734,DepthScenes,duration_manipulation_targetAtFixation,jsons/v1_VE1000_randls_77_rotated.json,http://54.235.29.9/FacialAge/BNav_EC2/DepthDuration/v2_depth_duration_MTurk/v2_DepthDuration_HTML.html#32,32,1280,720,1920,1080,8-22-2022,7-1-48,78,depth_duration_stimuli/000692_2014-06-08_13-09-42_260595134347_rgbf000199-resize_2/000692_2014-06-08_13-09-42_260595134347_rgbf000199-resize_2-target.png,1000,3.661,9.0,3338,998,feet,jsons/v1_VE1000_randls_77_rotated.json,593138,825062,38,Man
78,639734,DepthScenes,duration_manipulation_targetAtFixation,jsons/v1_VE1000_randls_77_rotated.json,http://54.235.29.9/FacialAge/BNav_EC2/DepthDuration/v2_depth_duration_MTurk/v2_DepthDuration_HTML.html#32,32,1280,720,1920,1080,8-22-2022,7-1-48,79,depth_duration_stimuli/000677_2014-06-08_23-10-32_260595134347_rgbf000158-resize_6/000677_2014-06-08_23-10-32_260595134347_rgbf000158-resize_6-target.png,1000,3.556,10.0,2378,999,feet,jsons/v1_VE1000_randls_77_rotated.json,593138,825062,38,Man
79,639734,DepthScenes,duration_manipulation_targetAtFixation,jsons/v1_VE1000_randls_77_rotated.json,http://54.235.29.9/FacialAge/BNav_EC2/DepthDuration/v2_depth_duration_MTurk/v2_DepthDuration_HTML.html#32,32,1280,720,1920,1080,8-22-2022,7-1-48,80,depth_duration_stimuli/001029_2014-06-08_13-17-57_260595134347_rgbf000065-resize_1/001029_2014-06-08_13-17-57_260595134347_rgbf000065-resize_1-target.png,1000,3.0835,8.0,2288,1006,feet,jsons/v1_VE1000_randls_77_rotated.json,593138,825062,38,Man
80,639734,DepthScenes,duration_manipulation_targetAtFixation,jsons/v1_VE1000_randls_77_rotated.json,http://54.235.29.9/FacialAge/BNav_EC2/DepthDuration/v2_depth_duration_MTurk/v2_DepthDuration_HTML.html#32,32,1280,720,1920,1080,8-22-2022,7-1-48,81,depth_duration_stimuli/000780_2014-06-08_22-28-29_260595134347_rgbf000126-resize_1/000780_2014-06-08_22-28-29_260595134347_rgbf000126-resize_1-target.png,1000,3.3825,9.0,3457,992,feet,jsons/v1_VE1000_randls_77_rotated.json,593138,825062,38,Man
81,639734,DepthScenes,duration_manipulation_targetAtFixation,jsons/v1_VE1000_randls_77_rotated.json,http://54.235.29.9/FacialAge/BNav_EC2/DepthDuration/v2_depth_duration_MTurk/v2_DepthDuration_HTML.html#32,32,1280,720,1920,1080,8-22-2022,7-1-48,82,depth_duration_stimuli/002445_2014-06-28_20-32-16_260595134347_rgbf000029-resize_4/002445_2014-06-28_20-32-16_260595134347_rgbf000029-resize_4-target.png,1000,2.5315,6.0,2593,1014,feet,jsons/v1_VE1000_randls_77_rotated.json,593138,825062,38,Man
82,639734,DepthScenes,duration_manipulation_targetAtFixation,jsons/v1_VE1000_randls_77_rotated.json,http://54.235.29.9/FacialAge/BNav_EC2/DepthDuration/v2_depth_duration_MTurk/v2_DepthDuration_HTML.html#32,32,1280,720,1920,1080,8-22-2022,7-1-48,83,depth_duration_stimuli/000483_2014-06-09_20-41-45_260595134347_rgbf000116-resize_4/000483_2014-06-09_20-41-45_260595134347_rgbf000116-resize_4-target.png,1000,1.337,2.5,3357,1001,feet,jsons/v1_VE1000_randls_77_rotated.json,593138,825062,38,Man
83,639734,DepthScenes,duration_manipulation_targetAtFixation,jsons/v1_VE1000_randls_77_rotated.json,http://54.235.29.9/FacialAge/BNav_EC2/DepthDuration/v2_depth_duration_MTurk/v2_DepthDuration_HTML.html#32,32,1280,720,1920,1080,8-22-2022,7-1-48,84,depth_duration_stimuli/000469_2014-06-09_19-42-10_260595134347_rgbf000081-resize_1/000469_2014-06-09_19-42-10_260595134347_rgbf000081-resize_1-target.png,1000,1.652,3.0,3002,1005,feet,jsons/v1_VE1000_randls_77_rotated.json,593138,825062,38,Man
84,639734,DepthScenes,duration_manipulation_targetAtFixation,jsons/v1_VE1000_randls_77_rotated.json,http://54.235.29.9/FacialAge/BNav_EC2/DepthDuration/v2_depth_duration_MTurk/v2_DepthDuration_HTML.html#32,32,1280,720,1920,1080,8-22-2022,7-1-48,85,depth_duration_stimuli/000502_2014-06-08_23-02-32_260595134347_rgbf000063-resize_4/000502_2014-06-08_23-02-32_260595134347_rgbf000063-resize_4-target.png,1000,2.431,4.0,3365,985,feet,jsons/v1_VE1000_randls_77_rotated.json,593138,825062,38,Man
85,639734,DepthScenes,duration_manipulation_targetAtFixation,jsons/v1_VE1000_randls_77_rotated.json,http://54.235.29.9/FacialAge/BNav_EC2/DepthDuration/v2_depth_duration_MTurk/v2_DepthDuration_HTML.html#32,32,1280,720,1920,1080,8-22-2022,7-1-48,86,depth_duration_stimuli/001199_2014-06-17_16-03-48_260595134347_rgbf000077-resize_0/001199_2014-06-17_16-03-48_260595134347_rgbf000077-resize_0-target.png,1000,3.4375,12.0,3389,988,feet,jsons/v1_VE1000_randls_77_rotated.json,593138,825062,38,Man
86,639734,DepthScenes,duration_manipulation_targetAtFixation,jsons/v1_VE1000_randls_77_rotated.json,http://54.235.29.9/FacialAge/BNav_EC2/DepthDuration/v2_depth_duration_MTurk/v2_DepthDuration_HTML.html#32,32,1280,720,1920,1080,8-22-2022,7-1-48,87,depth_duration_stimuli/000137_2014-05-20_17-04-49_260595134347_rgbf000120-resize_1/000137_2014-05-20_17-04-49_260595134347_rgbf000120-resize_1-target.png,1000,3.786,9.0,3240,987,feet,jsons/v1_VE1000_randls_77_rotated.json,593138,825062,38,Man
87,639734,DepthScenes,duration_manipulation_targetAtFixation,jsons/v1_VE1000_randls_77_rotated.json,http://54.235.29.9/FacialAge/BNav_EC2/DepthDuration/v2_depth_duration_MTurk/v2_DepthDuration_HTML.html#32,32,1280,720,1920,1080,8-22-2022,7-1-48,88,depth_duration_stimuli/000736_2014-06-08_18-24-15_260595134347_rgbf000206-resize_3/000736_2014-06-08_18-24-15_260595134347_rgbf000206-resize_3-target.png,1000,3.515,8.0,2544,999,feet,jsons/v1_VE1000_randls_77_rotated.json,593138,825062,38,Man
88,639734,DepthScenes,duration_manipulation_targetAtFixation,jsons/v1_VE1000_randls_77_rotated.json,http://54.235.29.9/FacialAge/BNav_EC2/DepthDuration/v2_depth_duration_MTurk/v2_DepthDuration_HTML.html#32,32,1280,720,1920,1080,8-22-2022,7-1-48,89,depth_duration_stimuli/003490_2014-05-21_15-50-11_094959634447_rgbf000101-resize_3/003490_2014-05-21_15-50-11_094959634447_rgbf000101-resize_3-target.png,1000,3.6445,10.0,4661,1000,feet,jsons/v1_VE1000_randls_77_rotated.json,593138,825062,38,Man
89,639734,DepthScenes,duration_manipulation_targetAtFixation,jsons/v1_VE1000_randls_77_rotated.json,http://54.235.29.9/FacialAge/BNav_EC2/DepthDuration/v2_depth_duration_MTurk/v2_DepthDuration_HTML.html#32,32,1280,720,1920,1080,8-22-2022,7-1-48,90,depth_duration_stimuli/001175_2014-06-17_15-45-55_260595134347_rgbf000129-resize_4/001175_2014-06-17_15-45-55_260595134347_rgbf000129-resize_4-target.png,1000,4.255,12.0,2797,998,feet,jsons/v1_VE1000_randls_77_rotated.json,593138,825062,38,Man
90,639734,DepthScenes,duration_manipulation_targetAtFixation,jsons/v1_VE1000_randls_77_rotated.json,http://54.235.29.9/FacialAge/BNav_EC2/DepthDuration/v2_depth_duration_MTurk/v2_DepthDuration_HTML.html#32,32,1280,720,1920,1080,8-22-2022,7-1-48,91,depth_duration_stimuli/001447_2014-06-19_17-00-32_260595134347_rgbf000082-resize_5/001447_2014-06-19_17-00-32_260595134347_rgbf000082-resize_5-target.png,1000,4.13775,8.0,3361,988,feet,jsons/v1_VE1000_randls_77_rotated.json,593138,825062,38,Man
91,639734,DepthScenes,duration_manipulation_targetAtFixation,jsons/v1_VE1000_randls_77_rotated.json,http://54.235.29.9/FacialAge/BNav_EC2/DepthDuration/v2_depth_duration_MTurk/v2_DepthDuration_HTML.html#32,32,1280,720,1920,1080,8-22-2022,7-1-48,92,depth_duration_stimuli/000447_2014-06-08_16-15-46_260595134347_rgbf000130-resize_1/000447_2014-06-08_16-15-46_260595134347_rgbf000130-resize_1-target.png,1000,4.479,11.0,3001,1000,feet,jsons/v1_VE1000_randls_77_rotated.json,593138,825062,38,Man
92,639734,DepthScenes,duration_manipulation_targetAtFixation,jsons/v1_VE1000_randls_77_rotated.json,http://54.235.29.9/FacialAge/BNav_EC2/DepthDuration/v2_depth_duration_MTurk/v2_DepthDuration_HTML.html#32,32,1280,720,1920,1080,8-22-2022,7-1-48,93,depth_duration_stimuli/000191_2014-05-12_17-07-38_260595134347_rgbf000199-resize_0/000191_2014-05-12_17-07-38_260595134347_rgbf000199-resize_0-target.png,1000,3.7995,10.0,2858,989,feet,jsons/v1_VE1000_randls_77_rotated.json,593138,825062,38,Man
93,639734,DepthScenes,duration_manipulation_targetAtFixation,jsons/v1_VE1000_randls_77_rotated.json,http://54.235.29.9/FacialAge/BNav_EC2/DepthDuration/v2_depth_duration_MTurk/v2_DepthDuration_HTML.html#32,32,1280,720,1920,1080,8-22-2022,7-1-48,94,depth_duration_stimuli/000493_2014-06-09_21-01-18_260595134347_rgbf000196-resize_3/000493_2014-06-09_21-01-18_260595134347_rgbf000196-resize_3-target.png,1000,3.44,8.0,2216,990,feet,jsons/v1_VE1000_randls_77_rotated.json,593138,825062,38,Man
94,639734,DepthScenes,duration_manipulation_targetAtFixation,jsons/v1_VE1000_randls_77_rotated.json,http://54.235.29.9/FacialAge/BNav_EC2/DepthDuration/v2_depth_duration_MTurk/v2_DepthDuration_HTML.html#32,32,1280,720,1920,1080,8-22-2022,7-1-48,95,depth_duration_stimuli/001828_2014-06-26_21-40-03_260595134347_rgbf000024-resize_0/001828_2014-06-26_21-40-03_260595134347_rgbf000024-resize_0-target.png,1000,4.8260000000000005,12.0,3321,999,feet,jsons/v1_VE1000_randls_77_rotated.json,593138,825062,38,Man
95,639734,DepthScenes,duration_manipulation_targetAtFixation,jsons/v1_VE1000_randls_77_rotated.json,http://54.235.29.9/FacialAge/BNav_EC2/DepthDuration/v2_depth_duration_MTurk/v2_DepthDuration_HTML.html#32,32,1280,720,1920,1080,8-22-2022,7-1-48,96,depth_duration_stimuli/000009_2014-05-26_14-32-05_260595134347_rgbf000034-resize_3/000009_2014-05-26_14-32-05_260595134347_rgbf000034-resize_3-target.png,1000,3.8715,12.0,2762,1000,feet,jsons/v1_VE1000_randls_77_rotated.json,593138,825062,38,Man
96,639734,DepthScenes,duration_manipulation_targetAtFixation,jsons/v1_VE1000_randls_77_rotated.json,http://54.235.29.9/FacialAge/BNav_EC2/DepthDuration/v2_depth_duration_MTurk/v2_DepthDuration_HTML.html#32,32,1280,720,1920,1080,8-22-2022,7-1-48,97,depth_duration_stimuli/001617_2014-06-20_11-35-32_260595134347_rgbf000066-resize_1/001617_2014-06-20_11-35-32_260595134347_rgbf000066-resize_1-target.png,1000,3.7910000000000004,8.0,2749,997,feet,jsons/v1_VE1000_randls_77_rotated.json,593138,825062,38,Man
97,639734,DepthScenes,duration_manipulation_targetAtFixation,jsons/v1_VE1000_randls_77_rotated.json,http://54.235.29.9/FacialAge/BNav_EC2/DepthDuration/v2_depth_duration_MTurk/v2_DepthDuration_HTML.html#32,32,1280,720,1920,1080,8-22-2022,7-1-48,98,depth_duration_stimuli/001806_2014-06-26_20-50-20_260595134347_rgbf000091-resize_1/001806_2014-06-26_20-50-20_260595134347_rgbf000091-resize_1-target.png,1000,2.7305,5.0,2317,999,feet,jsons/v1_VE1000_randls_77_rotated.json,593138,825062,38,Man
98,639734,DepthScenes,duration_manipulation_targetAtFixation,jsons/v1_VE1000_randls_77_rotated.json,http://54.235.29.9/FacialAge/BNav_EC2/DepthDuration/v2_depth_duration_MTurk/v2_DepthDuration_HTML.html#32,32,1280,720,1920,1080,8-22-2022,7-1-48,99,depth_duration_stimuli/001222_2014-06-17_16-24-06_260595134347_rgbf000073-resize_0/001222_2014-06-17_16-24-06_260595134347_rgbf000073-resize-original.jpg,1000,1.4385,0.0,2406,997,feet,jsons/v1_VE1000_randls_77_rotated.json,593138,825062,38,Man
99,639734,DepthScenes,duration_manipulation_targetAtFixation,jsons/v1_VE1000_randls_77_rotated.json,http://54.235.29.9/FacialAge/BNav_EC2/DepthDuration/v2_depth_duration_MTurk/v2_DepthDuration_HTML.html#32,32,1280,720,1920,1080,8-22-2022,7-1-48,100,depth_duration_stimuli/002750_2014-06-22_19-08-03_094959634447_rgbf000094-resize_4/002750_2014-06-22_19-08-03_094959634447_rgbf000094-resize_4-target.png,1000,2.354,5.0,2303,1000,feet,jsons/v1_VE1000_randls_77_rotated.json,593138,825062,38,Man
100,639734,DepthScenes,duration_manipulation_targetAtFixation,jsons/v1_VE1000_randls_77_rotated.json,http://54.235.29.9/FacialAge/BNav_EC2/DepthDuration/v2_depth_duration_MTurk/v2_DepthDuration_HTML.html#32,32,1280,720,1920,1080,8-22-2022,7-1-48,101,depth_duration_stimuli/002549_2014-06-24_13-41-39_094959634447_rgbf000022-resize_3/002549_2014-06-24_13-41-39_094959634447_rgbf000022-resize_3-target.png,1000,1.476,3.0,2431,998,feet,jsons/v1_VE1000_randls_77_rotated.json,593138,825062,38,Man
101,639734,DepthScenes,duration_manipulation_targetAtFixation,jsons/v1_VE1000_randls_77_rotated.json,http://54.235.29.9/FacialAge/BNav_EC2/DepthDuration/v2_depth_duration_MTurk/v2_DepthDuration_HTML.html#32,32,1280,720,1920,1080,8-22-2022,7-1-48,102,depth_duration_stimuli/001450_2014-06-19_17-02-03_260595134347_rgbf000203-resize_4/001450_2014-06-19_17-02-03_260595134347_rgbf000203-resize_4-target.png,1000,4.0106666666667,8.0,2523,1000,feet,jsons/v1_VE1000_randls_77_rotated.json,593138,825062,38,Man
102,639734,DepthScenes,duration_manipulation_targetAtFixation,jsons/v1_VE1000_randls_77_rotated.json,http://54.235.29.9/FacialAge/BNav_EC2/DepthDuration/v2_depth_duration_MTurk/v2_DepthDuration_HTML.html#32,32,1280,720,1920,1080,8-22-2022,7-1-48,103,depth_duration_stimuli/001449_2014-06-19_17-01-27_260595134347_rgbf000116-resize_2/001449_2014-06-19_17-01-27_260595134347_rgbf000116-resize_2-target.png,1000,3.452,7.0,2336,1010,feet,jsons/v1_VE1000_randls_77_rotated.json,593138,825062,38,Man
103,639734,DepthScenes,duration_manipulation_targetAtFixation,jsons/v1_VE1000_randls_77_rotated.json,http://54.235.29.9/FacialAge/BNav_EC2/DepthDuration/v2_depth_duration_MTurk/v2_DepthDuration_HTML.html#32,32,1280,720,1920,1080,8-22-2022,7-1-48,104,depth_duration_stimuli/002103_2014-06-25_20-00-40_260595134347_rgbf000049-resize_0/002103_2014-06-25_20-00-40_260595134347_rgbf000049-resize_0-target.png,1000,4.105,8.0,3150,999,feet,jsons/v1_VE1000_randls_77_rotated.json,593138,825062,38,Man
104,639734,DepthScenes,duration_manipulation_targetAtFixation,jsons/v1_VE1000_randls_77_rotated.json,http://54.235.29.9/FacialAge/BNav_EC2/DepthDuration/v2_depth_duration_MTurk/v2_DepthDuration_HTML.html#32,32,1280,720,1920,1080,8-22-2022,7-1-48,105,depth_duration_stimuli/002039_2014-06-24_20-22-38_260595134347_rgbf000084-resize_1/002039_2014-06-24_20-22-38_260595134347_rgbf000084-resize_1-target.png,1000,4.408,14.0,3255,986,feet,jsons/v1_VE1000_randls_77_rotated.json,593138,825062,38,Man
105,639734,DepthScenes,duration_manipulation_targetAtFixation,jsons/v1_VE1000_randls_77_rotated.json,http://54.235.29.9/FacialAge/BNav_EC2/DepthDuration/v2_depth_duration_MTurk/v2_DepthDuration_HTML.html#32,32,1280,720,1920,1080,8-22-2022,7-1-48,106,depth_duration_stimuli/001052_2014-06-08_18-24-54_260595134347_rgbf000130-resize_1/001052_2014-06-08_18-24-54_260595134347_rgbf000130-resize_1-target.png,1000,4.1045,10.0,2447,997,feet,jsons/v1_VE1000_randls_77_rotated.json,593138,825062,38,Man
106,639734,DepthScenes,duration_manipulation_targetAtFixation,jsons/v1_VE1000_randls_77_rotated.json,http://54.235.29.9/FacialAge/BNav_EC2/DepthDuration/v2_depth_duration_MTurk/v2_DepthDuration_HTML.html#32,32,1280,720,1920,1080,8-22-2022,7-1-48,107,depth_duration_stimuli/002988_2014-06-15_12-24-20_094959634447_rgbf000150-resize_1/002988_2014-06-15_12-24-20_094959634447_rgbf000150-resize_1-target.png,1000,4.7669999999999995,9.0,3597,1000,feet,jsons/v1_VE1000_randls_77_rotated.json,593138,825062,38,Man
107,639734,DepthScenes,duration_manipulation_targetAtFixation,jsons/v1_VE1000_randls_77_rotated.json,http://54.235.29.9/FacialAge/BNav_EC2/DepthDuration/v2_depth_duration_MTurk/v2_DepthDuration_HTML.html#32,32,1280,720,1920,1080,8-22-2022,7-1-48,108,depth_duration_stimuli/000943_2014-06-09_19-31-07_260595134347_rgbf000128-resize_1/000943_2014-06-09_19-31-07_260595134347_rgbf000128-resize_1-target.png,1000,1.9765,3.5,4842,999,feet,jsons/v1_VE1000_randls_77_rotated.json,593138,825062,38,Man
108,639734,DepthScenes,duration_manipulation_targetAtFixation,jsons/v1_VE1000_randls_77_rotated.json,http://54.235.29.9/FacialAge/BNav_EC2/DepthDuration/v2_depth_duration_MTurk/v2_DepthDuration_HTML.html#32,32,1280,720,1920,1080,8-22-2022,7-1-48,109,depth_duration_stimuli/003070_2014-06-15_14-58-27_094959634447_rgbf000150-resize_3/003070_2014-06-15_14-58-27_094959634447_rgbf000150-resize_3-target.png,1000,2.9415,8.0,2892,1000,feet,jsons/v1_VE1000_randls_77_rotated.json,593138,825062,38,Man
109,639734,DepthScenes,duration_manipulation_targetAtFixation,jsons/v1_VE1000_randls_77_rotated.json,http://54.235.29.9/FacialAge/BNav_EC2/DepthDuration/v2_depth_duration_MTurk/v2_DepthDuration_HTML.html#32,32,1280,720,1920,1080,8-22-2022,7-1-48,110,depth_duration_stimuli/000734_2014-06-08_17-39-11_260595134347_rgbf000128-resize_2/000734_2014-06-08_17-39-11_260595134347_rgbf000128-resize_2-target.png,1000,4.098,8.0,2222,1003,feet,jsons/v1_VE1000_randls_77_rotated.json,593138,825062,38,Man
110,639734,DepthScenes,duration_manipulation_targetAtFixation,jsons/v1_VE1000_randls_77_rotated.json,http://54.235.29.9/FacialAge/BNav_EC2/DepthDuration/v2_depth_duration_MTurk/v2_DepthDuration_HTML.html#32,32,1280,720,1920,1080,8-22-2022,7-1-48,111,depth_duration_stimuli/000739_2014-06-08_18-45-58_260595134347_rgbf000068-resize_1/000739_2014-06-08_18-45-58_260595134347_rgbf000068-resize_1-target.png,1000,3.534,7.0,2461,996,feet,jsons/v1_VE1000_randls_77_rotated.json,593138,825062,38,Man
111,639734,DepthScenes,duration_manipulation_targetAtFixation,jsons/v1_VE1000_randls_77_rotated.json,http://54.235.29.9/FacialAge/BNav_EC2/DepthDuration/v2_depth_duration_MTurk/v2_DepthDuration_HTML.html#32,32,1280,720,1920,1080,8-22-2022,7-1-48,112,depth_duration_stimuli/003010_2014-06-15_12-54-35_094959634447_rgbf000112-resize_0/003010_2014-06-15_12-54-35_094959634447_rgbf000112-resize_0-target.png,1000,3.1185,6.0,4053,1011,feet,jsons/v1_VE1000_randls_77_rotated.json,593138,825062,38,Man
112,639734,DepthScenes,duration_manipulation_targetAtFixation,jsons/v1_VE1000_randls_77_rotated.json,http://54.235.29.9/FacialAge/BNav_EC2/DepthDuration/v2_depth_duration_MTurk/v2_DepthDuration_HTML.html#32,32,1280,720,1920,1080,8-22-2022,7-1-48,113,depth_duration_stimuli/001810_2014-06-26_20-51-35_260595134347_rgbf000040-resize_3/001810_2014-06-26_20-51-35_260595134347_rgbf000040-resize_3-target.png,1000,2.2525,4.0,4639,999,feet,jsons/v1_VE1000_randls_77_rotated.json,593138,825062,38,Man
113,639734,DepthScenes,duration_manipulation_targetAtFixation,jsons/v1_VE1000_randls_77_rotated.json,http://54.235.29.9/FacialAge/BNav_EC2/DepthDuration/v2_depth_duration_MTurk/v2_DepthDuration_HTML.html#32,32,1280,720,1920,1080,8-22-2022,7-1-48,114,depth_duration_stimuli/001132_2014-06-17_14-48-54_260595134347_rgbf000100-resize_2/001132_2014-06-17_14-48-54_260595134347_rgbf000100-resize_2-target.png,1000,3.753,8.0,2970,999,feet,jsons/v1_VE1000_randls_77_rotated.json,593138,825062,38,Man
114,639734,DepthScenes,duration_manipulation_targetAtFixation,jsons/v1_VE1000_randls_77_rotated.json,http://54.235.29.9/FacialAge/BNav_EC2/DepthDuration/v2_depth_duration_MTurk/v2_DepthDuration_HTML.html#32,32,1280,720,1920,1080,8-22-2022,7-1-48,115,depth_duration_stimuli/001133_2014-06-17_14-49-16_260595134347_rgbf000100-resize_0/001133_2014-06-17_14-49-16_260595134347_rgbf000100-resize_0-target.png,1000,4.2115,12.0,2569,999,feet,jsons/v1_VE1000_randls_77_rotated.json,593138,825062,38,Man
115,639734,DepthScenes,duration_manipulation_targetAtFixation,jsons/v1_VE1000_randls_77_rotated.json,http://54.235.29.9/FacialAge/BNav_EC2/DepthDuration/v2_depth_duration_MTurk/v2_DepthDuration_HTML.html#32,32,1280,720,1920,1080,8-22-2022,7-1-48,116,depth_duration_stimuli/001516_2014-06-20_16-25-09_260595134347_rgbf000076-resize_2/001516_2014-06-20_16-25-09_260595134347_rgbf000076-resize_2-target.png,1000,1.7445,4.0,2393,998,feet,jsons/v1_VE1000_randls_77_rotated.json,593138,825062,38,Man
116,639734,DepthScenes,duration_manipulation_targetAtFixation,jsons/v1_VE1000_randls_77_rotated.json,http://54.235.29.9/FacialAge/BNav_EC2/DepthDuration/v2_depth_duration_MTurk/v2_DepthDuration_HTML.html#32,32,1280,720,1920,1080,8-22-2022,7-1-48,117,depth_duration_stimuli/002118_2014-06-25_20-32-08_260595134347_rgbf000078-resize_1/002118_2014-06-25_20-32-08_260595134347_rgbf000078-resize_1-target.png,1000,2.6460000000000004,5.0,2445,1014,feet,jsons/v1_VE1000_randls_77_rotated.json,593138,825062,38,Man
117,639734,DepthScenes,duration_manipulation_targetAtFixation,jsons/v1_VE1000_randls_77_rotated.json,http://54.235.29.9/FacialAge/BNav_EC2/DepthDuration/v2_depth_duration_MTurk/v2_DepthDuration_HTML.html#32,32,1280,720,1920,1080,8-22-2022,7-1-48,118,depth_duration_stimuli/001815_2014-06-26_20-52-55_260595134347_rgbf000020-resize_0/001815_2014-06-26_20-52-55_260595134347_rgbf000020-resize_0-target.png,1000,3.3865,8.0,2426,999,feet,jsons/v1_VE1000_randls_77_rotated.json,593138,825062,38,Man
118,639734,DepthScenes,duration_manipulation_targetAtFixation,jsons/v1_VE1000_randls_77_rotated.json,http://54.235.29.9/FacialAge/BNav_EC2/DepthDuration/v2_depth_duration_MTurk/v2_DepthDuration_HTML.html#32,32,1280,720,1920,1080,8-22-2022,7-1-48,119,depth_duration_stimuli/001808_2014-06-26_20-50-58_260595134347_rgbf000029-resize_1/001808_2014-06-26_20-50-58_260595134347_rgbf000029-resize_1-target.png,1000,4.249,7.0,2808,1015,feet,jsons/v1_VE1000_randls_77_rotated.json,593138,825062,38,Man
119,639734,DepthScenes,duration_manipulation_targetAtFixation,jsons/v1_VE1000_randls_77_rotated.json,http://54.235.29.9/FacialAge/BNav_EC2/DepthDuration/v2_depth_duration_MTurk/v2_DepthDuration_HTML.html#32,32,1280,720,1920,1080,8-22-2022,7-1-48,120,depth_duration_stimuli/000787_2014-06-08_22-33-53_260595134347_rgbf000175-resize_1/000787_2014-06-08_22-33-53_260595134347_rgbf000175-resize-original.jpg,1000,4.784,0.0,2310,1004,feet,jsons/v1_VE1000_randls_77_rotated.json,593138,825062,38,Man
120,639734,DepthScenes,duration_manipulation_targetAtFixation,jsons/v1_VE1000_randls_77_rotated.json,http://54.235.29.9/FacialAge/BNav_EC2/DepthDuration/v2_depth_duration_MTurk/v2_DepthDuration_HTML.html#32,32,1280,720,1920,1080,8-22-2022,7-1-48,121,depth_duration_stimuli/000635_2014-06-08_16-38-42_260595134347_rgbf000106-resize_1/000635_2014-06-08_16-38-42_260595134347_rgbf000106-resize_1-target.png,1000,2.074,5.0,3557,1003,feet,jsons/v1_VE1000_randls_77_rotated.json,593138,825062,38,Man
121,639734,DepthScenes,duration_manipulation_targetAtFixation,jsons/v1_VE1000_randls_77_rotated.json,http://54.235.29.9/FacialAge/BNav_EC2/DepthDuration/v2_depth_duration_MTurk/v2_DepthDuration_HTML.html#32,32,1280,720,1920,1080,8-22-2022,7-1-48,122,depth_duration_stimuli/002279_2014-06-28_18-55-32_260595134347_rgbf000040-resize_5/002279_2014-06-28_18-55-32_260595134347_rgbf000040-resize_5-target.png,1000,1.5043333333333,2.5,3620,1000,feet,jsons/v1_VE1000_randls_77_rotated.json,593138,825062,38,Man
122,639734,DepthScenes,duration_manipulation_targetAtFixation,jsons/v1_VE1000_randls_77_rotated.json,http://54.235.29.9/FacialAge/BNav_EC2/DepthDuration/v2_depth_duration_MTurk/v2_DepthDuration_HTML.html#32,32,1280,720,1920,1080,8-22-2022,7-1-48,123,depth_duration_stimuli/003083_2014-06-15_15-21-03_094959634447_rgbf000063-resize_1/003083_2014-06-15_15-21-03_094959634447_rgbf000063-resize_1-target.png,1000,4.1405,7.0,2933,1006,feet,jsons/v1_VE1000_randls_77_rotated.json,593138,825062,38,Man
123,639734,DepthScenes,duration_manipulation_targetAtFixation,jsons/v1_VE1000_randls_77_rotated.json,http://54.235.29.9/FacialAge/BNav_EC2/DepthDuration/v2_depth_duration_MTurk/v2_DepthDuration_HTML.html#32,32,1280,720,1920,1080,8-22-2022,7-1-48,124,depth_duration_stimuli/000486_2014-06-09_20-47-20_260595134347_rgbf000143-resize_2/000486_2014-06-09_20-47-20_260595134347_rgbf000143-resize_2-target.png,1000,4.8325,8.0,2670,1013,feet,jsons/v1_VE1000_randls_77_rotated.json,593138,825062,38,Man
124,639734,DepthScenes,duration_manipulation_targetAtFixation,jsons/v1_VE1000_randls_77_rotated.json,http://54.235.29.9/FacialAge/BNav_EC2/DepthDuration/v2_depth_duration_MTurk/v2_DepthDuration_HTML.html#32,32,1280,720,1920,1080,8-22-2022,7-1-48,125,depth_duration_stimuli/000691_2014-06-08_13-08-50_260595134347_rgbf000132-resize_3/000691_2014-06-08_13-08-50_260595134347_rgbf000132-resize_3-target.png,1000,4.1530000000000005,7.0,3185,1006,feet,jsons/v1_VE1000_randls_77_rotated.json,593138,825062,38,Man
125,639734,DepthScenes,duration_manipulation_targetAtFixation,jsons/v1_VE1000_randls_77_rotated.json,http://54.235.29.9/FacialAge/BNav_EC2/DepthDuration/v2_depth_duration_MTurk/v2_DepthDuration_HTML.html#32,32,1280,720,1920,1080,8-22-2022,7-1-48,126,depth_duration_stimuli/002213_2014-06-28_18-37-58_260595134347_rgbf000055-resize_1/002213_2014-06-28_18-37-58_260595134347_rgbf000055-resize_1-target.png,1000,3.62,10.0,2484,999,feet,jsons/v1_VE1000_randls_77_rotated.json,593138,825062,38,Man
126,639734,DepthScenes,duration_manipulation_targetAtFixation,jsons/v1_VE1000_randls_77_rotated.json,http://54.235.29.9/FacialAge/BNav_EC2/DepthDuration/v2_depth_duration_MTurk/v2_DepthDuration_HTML.html#32,32,1280,720,1920,1080,8-22-2022,7-1-48,127,depth_duration_stimuli/003495_2014-05-21_16-01-51_094959634447_rgbf000100-resize_3/003495_2014-05-21_16-01-51_094959634447_rgbf000100-resize_3-target.png,1000,1.6255,3.5,3657,990,feet,jsons/v1_VE1000_randls_77_rotated.json,593138,825062,38,Man
127,639734,DepthScenes,duration_manipulation_targetAtFixation,jsons/v1_VE1000_randls_77_rotated.json,http://54.235.29.9/FacialAge/BNav_EC2/DepthDuration/v2_depth_duration_MTurk/v2_DepthDuration_HTML.html#32,32,1280,720,1920,1080,8-22-2022,7-1-48,128,depth_duration_stimuli/001244_2014-06-17_16-47-45_260595134347_rgbf000030-resize_4/001244_2014-06-17_16-47-45_260595134347_rgbf000030-resize_4-target.png,1000,2.0425,3.0,5585,996,feet,jsons/v1_VE1000_randls_77_rotated.json,593138,825062,38,Man
128,639734,DepthScenes,duration_manipulation_targetAtFixation,jsons/v1_VE1000_randls_77_rotated.json,http://54.235.29.9/FacialAge/BNav_EC2/DepthDuration/v2_depth_duration_MTurk/v2_DepthDuration_HTML.html#32,32,1280,720,1920,1080,8-22-2022,7-1-48,129,depth_duration_stimuli/000866_2014-06-09_20-45-42_260595134347_rgbf000139-resize_1/000866_2014-06-09_20-45-42_260595134347_rgbf000139-resize_1-target.png,1000,3.2155,6.0,5322,992,feet,jsons/v1_VE1000_randls_77_rotated.json,593138,825062,38,Man
129,639734,DepthScenes,duration_manipulation_targetAtFixation,jsons/v1_VE1000_randls_77_rotated.json,http://54.235.29.9/FacialAge/BNav_EC2/DepthDuration/v2_depth_duration_MTurk/v2_DepthDuration_HTML.html#32,32,1280,720,1920,1080,8-22-2022,7-1-48,130,depth_duration_stimuli/002989_2014-06-15_12-25-03_094959634447_rgbf000150-resize_3/002989_2014-06-15_12-25-03_094959634447_rgbf000150-resize_3-target.png,1000,4.1975,10.0,4732,987,feet,jsons/v1_VE1000_randls_77_rotated.json,593138,825062,38,Man
130,639734,DepthScenes,duration_manipulation_targetAtFixation,jsons/v1_VE1000_randls_77_rotated.json,http://54.235.29.9/FacialAge/BNav_EC2/DepthDuration/v2_depth_duration_MTurk/v2_DepthDuration_HTML.html#32,32,1280,720,1920,1080,8-22-2022,7-1-48,131,depth_duration_stimuli/001235_2014-06-17_16-37-36_260595134347_rgbf000084-resize_4/001235_2014-06-17_16-37-36_260595134347_rgbf000084-resize_4-target.png,1000,3.6605,8.0,3749,1003,feet,jsons/v1_VE1000_randls_77_rotated.json,593138,825062,38,Man
131,639734,DepthScenes,duration_manipulation_targetAtFixation,jsons/v1_VE1000_randls_77_rotated.json,http://54.235.29.9/FacialAge/BNav_EC2/DepthDuration/v2_depth_duration_MTurk/v2_DepthDuration_HTML.html#32,32,1280,720,1920,1080,8-22-2022,7-1-48,132,depth_duration_stimuli/000788_2014-06-08_22-34-36_260595134347_rgbf000131-resize_1/000788_2014-06-08_22-34-36_260595134347_rgbf000131-resize_1-target.png,1000,3.359,8.0,4961,1004,feet,jsons/v1_VE1000_randls_77_rotated.json,593138,825062,38,Man
132,639734,DepthScenes,duration_manipulation_targetAtFixation,jsons/v1_VE1000_randls_77_rotated.json,http://54.235.29.9/FacialAge/BNav_EC2/DepthDuration/v2_depth_duration_MTurk/v2_DepthDuration_HTML.html#32,32,1280,720,1920,1080,8-22-2022,7-1-48,133,depth_duration_stimuli/003081_2014-06-15_15-19-16_094959634447_rgbf000150-resize_1/003081_2014-06-15_15-19-16_094959634447_rgbf000150-resize_1-target.png,1000,3.9125,8.0,3120,994,feet,jsons/v1_VE1000_randls_77_rotated.json,593138,825062,38,Man
133,639734,DepthScenes,duration_manipulation_targetAtFixation,jsons/v1_VE1000_randls_77_rotated.json,http://54.235.29.9/FacialAge/BNav_EC2/DepthDuration/v2_depth_duration_MTurk/v2_DepthDuration_HTML.html#32,32,1280,720,1920,1080,8-22-2022,7-1-48,134,depth_duration_stimuli/001417_2014-06-19_16-25-36_260595134347_rgbf000115-resize_5/001417_2014-06-19_16-25-36_260595134347_rgbf000115-resize_5-target.png,1000,4.6255,9.0,3578,1002,feet,jsons/v1_VE1000_randls_77_rotated.json,593138,825062,38,Man
134,639734,DepthScenes,duration_manipulation_targetAtFixation,jsons/v1_VE1000_randls_77_rotated.json,http://54.235.29.9/FacialAge/BNav_EC2/DepthDuration/v2_depth_duration_MTurk/v2_DepthDuration_HTML.html#32,32,1280,720,1920,1080,8-22-2022,7-1-48,135,depth_duration_stimuli/000375_2014-06-08_11-17-29_260595134347_rgbf000133-resize_2/000375_2014-06-08_11-17-29_260595134347_rgbf000133-resize-original.jpg,1000,4.718,0.0,2263,997,feet,jsons/v1_VE1000_randls_77_rotated.json,593138,825062,38,Man
135,639734,DepthScenes,duration_manipulation_targetAtFixation,jsons/v1_VE1000_randls_77_rotated.json,http://54.235.29.9/FacialAge/BNav_EC2/DepthDuration/v2_depth_duration_MTurk/v2_DepthDuration_HTML.html#32,32,1280,720,1920,1080,8-22-2022,7-1-48,136,depth_duration_stimuli/002340_2014-06-28_20-05-46_260595134347_rgbf000113-resize_0/002340_2014-06-28_20-05-46_260595134347_rgbf000113-resize_0-target.png,1000,2.4735,8.0,2414,1001,feet,jsons/v1_VE1000_randls_77_rotated.json,593138,825062,38,Man
136,639734,DepthScenes,duration_manipulation_targetAtFixation,jsons/v1_VE1000_randls_77_rotated.json,http://54.235.29.9/FacialAge/BNav_EC2/DepthDuration/v2_depth_duration_MTurk/v2_DepthDuration_HTML.html#32,32,1280,720,1920,1080,8-22-2022,7-1-48,137,depth_duration_stimuli/001016_2014-06-09_16-16-10_260595134347_rgbf000112-resize_5/001016_2014-06-09_16-16-10_260595134347_rgbf000112-resize_5-target.png,1000,1.6565,5.0,2338,1001,feet,jsons/v1_VE1000_randls_77_rotated.json,593138,825062,38,Man
137,639734,DepthScenes,duration_manipulation_targetAtFixation,jsons/v1_VE1000_randls_77_rotated.json,http://54.235.29.9/FacialAge/BNav_EC2/DepthDuration/v2_depth_duration_MTurk/v2_DepthDuration_HTML.html#32,32,1280,720,1920,1080,8-22-2022,7-1-48,138,depth_duration_stimuli/002995_2014-06-15_12-31-26_094959634447_rgbf000150-resize_1/002995_2014-06-15_12-31-26_094959634447_rgbf000150-resize_1-target.png,1000,3.8360000000000003,10.0,3504,1000,feet,jsons/v1_VE1000_randls_77_rotated.json,593138,825062,38,Man
138,639734,DepthScenes,duration_manipulation_targetAtFixation,jsons/v1_VE1000_randls_77_rotated.json,http://54.235.29.9/FacialAge/BNav_EC2/DepthDuration/v2_depth_duration_MTurk/v2_DepthDuration_HTML.html#32,32,1280,720,1920,1080,8-22-2022,7-1-48,139,depth_duration_stimuli/002748_2014-06-22_19-07-22_094959634447_rgbf000078-resize_1/002748_2014-06-22_19-07-22_094959634447_rgbf000078-resize_1-target.png,1000,4.6705,12.0,2574,1014,feet,jsons/v1_VE1000_randls_77_rotated.json,593138,825062,38,Man
139,639734,DepthScenes,duration_manipulation_targetAtFixation,jsons/v1_VE1000_randls_77_rotated.json,http://54.235.29.9/FacialAge/BNav_EC2/DepthDuration/v2_depth_duration_MTurk/v2_DepthDuration_HTML.html#32,32,1280,720,1920,1080,8-22-2022,7-1-48,140,depth_duration_stimuli/002639_2014-06-24_14-51-37_094959634447_rgbf000074-resize_4/002639_2014-06-24_14-51-37_094959634447_rgbf000074-resize_4-target.png,1000,4.0375,8.0,2328,1004,feet,jsons/v1_VE1000_randls_77_rotated.json,593138,825062,38,Man
140,639734,DepthScenes,duration_manipulation_targetAtFixation,jsons/v1_VE1000_randls_77_rotated.json,http://54.235.29.9/FacialAge/BNav_EC2/DepthDuration/v2_depth_duration_MTurk/v2_DepthDuration_HTML.html#32,32,1280,720,1920,1080,8-22-2022,7-1-48,141,depth_duration_stimuli/003292_2014-05-14_21-53-49_094959634447_rgbf000100-resize_2/003292_2014-05-14_21-53-49_094959634447_rgbf000100-resize_2-target.png,1000,3.4815,6.0,2144,989,feet,jsons/v1_VE1000_randls_77_rotated.json,593138,825062,38,Man
141,639734,DepthScenes,duration_manipulation_targetAtFixation,jsons/v1_VE1000_randls_77_rotated.json,http://54.235.29.9/FacialAge/BNav_EC2/DepthDuration/v2_depth_duration_MTurk/v2_DepthDuration_HTML.html#32,32,1280,720,1920,1080,8-22-2022,7-1-48,142,depth_duration_stimuli/002467_2014-06-28_20-38-07_260595134347_rgbf000026-resize_2/002467_2014-06-28_20-38-07_260595134347_rgbf000026-resize_2-target.png,1000,4.742,11.0,3332,996,feet,jsons/v1_VE1000_randls_77_rotated.json,593138,825062,38,Man
142,639734,DepthScenes,duration_manipulation_targetAtFixation,jsons/v1_VE1000_randls_77_rotated.json,http://54.235.29.9/FacialAge/BNav_EC2/DepthDuration/v2_depth_duration_MTurk/v2_DepthDuration_HTML.html#32,32,1280,720,1920,1080,8-22-2022,7-1-48,143,depth_duration_stimuli/002570_2014-06-24_13-59-54_094959634447_rgbf000059-resize_0/002570_2014-06-24_13-59-54_094959634447_rgbf000059-resize_0-target.png,1000,4.037,8.0,2831,1001,feet,jsons/v1_VE1000_randls_77_rotated.json,593138,825062,38,Man
143,639734,DepthScenes,duration_manipulation_targetAtFixation,jsons/v1_VE1000_randls_77_rotated.json,http://54.235.29.9/FacialAge/BNav_EC2/DepthDuration/v2_depth_duration_MTurk/v2_DepthDuration_HTML.html#32,32,1280,720,1920,1080,8-22-2022,7-1-48,144,depth_duration_stimuli/003129_2014-05-12_10-48-10_094959634447_rgbf000100-resize_0/003129_2014-05-12_10-48-10_094959634447_rgbf000100-resize_0-target.png,1000,4.9305,10.0,2776,999,feet,jsons/v1_VE1000_randls_77_rotated.json,593138,825062,38,Man
144,639734,DepthScenes,duration_manipulation_targetAtFixation,jsons/v1_VE1000_randls_77_rotated.json,http://54.235.29.9/FacialAge/BNav_EC2/DepthDuration/v2_depth_duration_MTurk/v2_DepthDuration_HTML.html#32,32,1280,720,1920,1080,8-22-2022,7-1-48,145,depth_duration_stimuli/000414_2014-06-04_19-49-13_260595134347_rgbf000044-resize_0/000414_2014-06-04_19-49-13_260595134347_rgbf000044-resize_0-target.png,1000,4.329,9.0,3117,1000,feet,jsons/v1_VE1000_randls_77_rotated.json,593138,825062,38,Man
145,639734,DepthScenes,duration_manipulation_targetAtFixation,jsons/v1_VE1000_randls_77_rotated.json,http://54.235.29.9/FacialAge/BNav_EC2/DepthDuration/v2_depth_duration_MTurk/v2_DepthDuration_HTML.html#32,32,1280,720,1920,1080,8-22-2022,7-1-48,146,depth_duration_stimuli/002949_2014-06-26_15-57-42_094959634447_rgbf000079-resize_1/002949_2014-06-26_15-57-42_094959634447_rgbf000079-resize_1-target.png,1000,1.8915,3.5,3154,1006,feet,jsons/v1_VE1000_randls_77_rotated.json,593138,825062,38,Man
146,639734,DepthScenes,duration_manipulation_targetAtFixation,jsons/v1_VE1000_randls_77_rotated.json,http://54.235.29.9/FacialAge/BNav_EC2/DepthDuration/v2_depth_duration_MTurk/v2_DepthDuration_HTML.html#32,32,1280,720,1920,1080,8-22-2022,7-1-48,147,depth_duration_stimuli/000522_2014-06-08_13-35-06_260595134347_rgbf000244-resize_1/000522_2014-06-08_13-35-06_260595134347_rgbf000244-resize_1-target.png,1000,2.3715,2.0,2283,1002,feet,jsons/v1_VE1000_randls_77_rotated.json,593138,825062,38,Man
147,639734,DepthScenes,duration_manipulation_targetAtFixation,jsons/v1_VE1000_randls_77_rotated.json,http://54.235.29.9/FacialAge/BNav_EC2/DepthDuration/v2_depth_duration_MTurk/v2_DepthDuration_HTML.html#32,32,1280,720,1920,1080,8-22-2022,7-1-48,148,depth_duration_stimuli/003587_2014-05-23_16-48-02_094959634447_rgbf002384-resize_2/003587_2014-05-23_16-48-02_094959634447_rgbf002384-resize_2-target.png,1000,1.357,1.8,4880,1000,feet,jsons/v1_VE1000_randls_77_rotated.json,593138,825062,38,Man
148,639734,DepthScenes,duration_manipulation_targetAtFixation,jsons/v1_VE1000_randls_77_rotated.json,http://54.235.29.9/FacialAge/BNav_EC2/DepthDuration/v2_depth_duration_MTurk/v2_DepthDuration_HTML.html#32,32,1280,720,1920,1080,8-22-2022,7-1-48,149,depth_duration_stimuli/001167_2014-06-17_15-38-07_260595134347_rgbf000108-resize_0/001167_2014-06-17_15-38-07_260595134347_rgbf000108-resize_0-target.png,1000,1.8505,2.0,2850,1007,feet,jsons/v1_VE1000_randls_77_rotated.json,593138,825062,38,Man
149,639734,DepthScenes,duration_manipulation_targetAtFixation,jsons/v1_VE1000_randls_77_rotated.json,http://54.235.29.9/FacialAge/BNav_EC2/DepthDuration/v2_depth_duration_MTurk/v2_DepthDuration_HTML.html#32,32,1280,720,1920,1080,8-22-2022,7-1-48,150,depth_duration_stimuli/001214_2014-06-17_16-13-55_260595134347_rgbf000111-resize_0/001214_2014-06-17_16-13-55_260595134347_rgbf000111-resize_0-target.png,1000,2.6505,5.0,2323,1000,feet,jsons/v1_VE1000_randls_77_rotated.json,593138,825062,38,Man
150,639734,DepthScenes,duration_manipulation_targetAtFixation,jsons/v1_VE1000_randls_77_rotated.json,http://54.235.29.9/FacialAge/BNav_EC2/DepthDuration/v2_depth_duration_MTurk/v2_DepthDuration_HTML.html#32,32,1280,720,1920,1080,8-22-2022,7-1-48,151,depth_duration_stimuli/000810_2014-06-08_17-20-01_260595134347_rgbf000105-resize_0/000810_2014-06-08_17-20-01_260595134347_rgbf000105-resize_0-target.png,1000,1.4865,4.0,3049,1000,feet,jsons/v1_VE1000_randls_77_rotated.json,593138,825062,38,Man
151,639734,DepthScenes,duration_manipulation_targetAtFixation,jsons/v1_VE1000_randls_77_rotated.json,http://54.235.29.9/FacialAge/BNav_EC2/DepthDuration/v2_depth_duration_MTurk/v2_DepthDuration_HTML.html#32,32,1280,720,1920,1080,8-22-2022,7-1-48,152,depth_duration_stimuli/000569_2014-06-09_22-51-47_260595134347_rgbf000141-resize_3/000569_2014-06-09_22-51-47_260595134347_rgbf000141-resize-original.jpg,1000,4.512,0.0,2233,999,feet,jsons/v1_VE1000_randls_77_rotated.json,593138,825062,38,Man
152,639734,DepthScenes,duration_manipulation_targetAtFixation,jsons/v1_VE1000_randls_77_rotated.json,http://54.235.29.9/FacialAge/BNav_EC2/DepthDuration/v2_depth_duration_MTurk/v2_DepthDuration_HTML.html#32,32,1280,720,1920,1080,8-22-2022,7-1-48,153,depth_duration_stimuli/003423_2014-05-21_10-23-26_094959634447_rgbf002665-resize_2/003423_2014-05-21_10-23-26_094959634447_rgbf002665-resize_2-target.png,1000,3.2575,12.0,2575,991,feet,jsons/v1_VE1000_randls_77_rotated.json,593138,825062,38,Man
153,639734,DepthScenes,duration_manipulation_targetAtFixation,jsons/v1_VE1000_randls_77_rotated.json,http://54.235.29.9/FacialAge/BNav_EC2/DepthDuration/v2_depth_duration_MTurk/v2_DepthDuration_HTML.html#32,32,1280,720,1920,1080,8-22-2022,7-1-48,154,depth_duration_stimuli/002905_2014-06-03_18-04-43_094959634447_rgbf000151-resize_2/002905_2014-06-03_18-04-43_094959634447_rgbf000151-resize_2-target.png,1000,2.0295,5.0,3083,1004,feet,jsons/v1_VE1000_randls_77_rotated.json,593138,825062,38,Man
154,639734,DepthScenes,duration_manipulation_targetAtFixation,jsons/v1_VE1000_randls_77_rotated.json,http://54.235.29.9/FacialAge/BNav_EC2/DepthDuration/v2_depth_duration_MTurk/v2_DepthDuration_HTML.html#32,32,1280,720,1920,1080,8-22-2022,7-1-48,155,depth_duration_stimuli/001392_2014-06-19_16-07-59_260595134347_rgbf000046-resize_1/001392_2014-06-19_16-07-59_260595134347_rgbf000046-resize_1-target.png,1000,4.135,7.0,3360,999,feet,jsons/v1_VE1000_randls_77_rotated.json,593138,825062,38,Man
155,639734,DepthScenes,duration_manipulation_targetAtFixation,jsons/v1_VE1000_randls_77_rotated.json,http://54.235.29.9/FacialAge/BNav_EC2/DepthDuration/v2_depth_duration_MTurk/v2_DepthDuration_HTML.html#32,32,1280,720,1920,1080,8-22-2022,7-1-48,156,depth_duration_stimuli/001570_2014-06-20_17-21-09_260595134347_rgbf000135-resize_4/001570_2014-06-20_17-21-09_260595134347_rgbf000135-resize_4-target.png,1000,4.467,8.0,2482,1001,feet,jsons/v1_VE1000_randls_77_rotated.json,593138,825062,38,Man
156,639734,DepthScenes,duration_manipulation_targetAtFixation,jsons/v1_VE1000_randls_77_rotated.json,http://54.235.29.9/FacialAge/BNav_EC2/DepthDuration/v2_depth_duration_MTurk/v2_DepthDuration_HTML.html#32,32,1280,720,1920,1080,8-22-2022,7-1-48,157,depth_duration_stimuli/000709_2014-06-08_13-51-55_260595134347_rgbf000068-resize_3/000709_2014-06-08_13-51-55_260595134347_rgbf000068-resize_3-target.png,1000,1.8030000000000002,5.0,2675,998,feet,jsons/v1_VE1000_randls_77_rotated.json,593138,825062,38,Man
157,639734,DepthScenes,duration_manipulation_targetAtFixation,jsons/v1_VE1000_randls_77_rotated.json,http://54.235.29.9/FacialAge/BNav_EC2/DepthDuration/v2_depth_duration_MTurk/v2_DepthDuration_HTML.html#32,32,1280,720,1920,1080,8-22-2022,7-1-48,158,depth_duration_stimuli/002057_2014-06-24_21-00-13_260595134347_rgbf000120-resize_1/002057_2014-06-24_21-00-13_260595134347_rgbf000120-resize_1-target.png,1000,2.967,8.0,2667,1002,feet,jsons/v1_VE1000_randls_77_rotated.json,593138,825062,38,Man
158,639734,DepthScenes,duration_manipulation_targetAtFixation,jsons/v1_VE1000_randls_77_rotated.json,http://54.235.29.9/FacialAge/BNav_EC2/DepthDuration/v2_depth_duration_MTurk/v2_DepthDuration_HTML.html#32,32,1280,720,1920,1080,8-22-2022,7-1-48,159,depth_duration_stimuli/001032_2014-06-08_13-23-17_260595134347_rgbf000021-resize_3/001032_2014-06-08_13-23-17_260595134347_rgbf000021-resize_3-target.png,1000,3.2725,7.0,2674,999,feet,jsons/v1_VE1000_randls_77_rotated.json,593138,825062,38,Man
159,639734,DepthScenes,duration_manipulation_targetAtFixation,jsons/v1_VE1000_randls_77_rotated.json,http://54.235.29.9/FacialAge/BNav_EC2/DepthDuration/v2_depth_duration_MTurk/v2_DepthDuration_HTML.html#32,32,1280,720,1920,1080,8-22-2022,7-1-48,160,depth_duration_stimuli/001059_2014-06-08_21-53-27_260595134347_rgbf000061-resize_4/001059_2014-06-08_21-53-27_260595134347_rgbf000061-resize_4-target.png,1000,2.4185,5.0,2167,998,feet,jsons/v1_VE1000_randls_77_rotated.json,593138,825062,38,Man
160,639734,DepthScenes,duration_manipulation_targetAtFixation,jsons/v1_VE1000_randls_77_rotated.json,http://54.235.29.9/FacialAge/BNav_EC2/DepthDuration/v2_depth_duration_MTurk/v2_DepthDuration_HTML.html#32,32,1280,720,1920,1080,8-22-2022,7-1-48,161,depth_duration_stimuli/002545_2014-06-24_13-38-53_094959634447_rgbf000080-resize_4/002545_2014-06-24_13-38-53_094959634447_rgbf000080-resize_4-target.png,1000,1.9205,5.0,2644,1002,feet,jsons/v1_VE1000_randls_77_rotated.json,593138,825062,38,Man
161,639734,DepthScenes,duration_manipulation_targetAtFixation,jsons/v1_VE1000_randls_77_rotated.json,http://54.235.29.9/FacialAge/BNav_EC2/DepthDuration/v2_depth_duration_MTurk/v2_DepthDuration_HTML.html#32,32,1280,720,1920,1080,8-22-2022,7-1-48,162,depth_duration_stimuli/001092_2014-06-15_17-34-58_260595134347_rgbf000171-resize_3/001092_2014-06-15_17-34-58_260595134347_rgbf000171-resize_3-target.png,1000,2.6935,4.0,2743,1005,feet,jsons/v1_VE1000_randls_77_rotated.json,593138,825062,38,Man
162,639734,DepthScenes,duration_manipulation_targetAtFixation,jsons/v1_VE1000_randls_77_rotated.json,http://54.235.29.9/FacialAge/BNav_EC2/DepthDuration/v2_depth_duration_MTurk/v2_DepthDuration_HTML.html#32,32,1280,720,1920,1080,8-22-2022,7-1-48,163,depth_duration_stimuli/002444_2014-06-28_20-32-08_260595134347_rgbf000027-resize_0/002444_2014-06-28_20-32-08_260595134347_rgbf000027-resize_0-target.png,1000,4.388999999999999,9.0,2699,1006,feet,jsons/v1_VE1000_randls_77_rotated.json,593138,825062,38,Man
163,639734,DepthScenes,duration_manipulation_targetAtFixation,jsons/v1_VE1000_randls_77_rotated.json,http://54.235.29.9/FacialAge/BNav_EC2/DepthDuration/v2_depth_duration_MTurk/v2_DepthDuration_HTML.html#32,32,1280,720,1920,1080,8-22-2022,7-1-48,164,depth_duration_stimuli/000436_2014-06-09_22-25-11_260595134347_rgbf000137-resize_1/000436_2014-06-09_22-25-11_260595134347_rgbf000137-resize_1-target.png,1000,4.0705,8.0,2849,1005,feet,jsons/v1_VE1000_randls_77_rotated.json,593138,825062,38,Man
