,subjID,experimentName,versionName,sequenceName,url,selected_row,windowWidth,windowHeight,screenWidth,screenHeight,startDate,startTime,trial,stimulus,duration,actual_depth,depth_estimate,trial_RT,log_sceneDuration,unitSelection,seq_filepath,experimentTime,totalTime,age,gender
0,640450,DepthScenes,duration_manipulation_targetAtFixation,jsons/v1_VE250_randls_6_rotated.json,http://54.235.29.9/FacialAge/BNav_EC2/DepthDuration/v2_depth_duration_MTurk/v2_DepthDuration_HTML.html#122,122,960,505,1440,900,8-20-2022,11-31-7,1,depth_duration_stimuli/001132_2014-06-17_14-48-54_260595134347_rgbf000100-resize_2/001132_2014-06-17_14-48-54_260595134347_rgbf000100-resize_2-target.png,250,3.753,60,8074,249,meters,jsons/v1_VE250_randls_6_rotated.json,897633,982986,42,Woman
1,640450,DepthScenes,duration_manipulation_targetAtFixation,jsons/v1_VE250_randls_6_rotated.json,http://54.235.29.9/FacialAge/BNav_EC2/DepthDuration/v2_depth_duration_MTurk/v2_DepthDuration_HTML.html#122,122,960,505,1440,900,8-20-2022,11-31-7,2,depth_duration_stimuli/001133_2014-06-17_14-49-16_260595134347_rgbf000100-resize_0/001133_2014-06-17_14-49-16_260595134347_rgbf000100-resize_0-target.png,250,4.2115,50,2393,249,meters,jsons/v1_VE250_randls_6_rotated.json,897633,982986,42,Woman
2,640450,DepthScenes,duration_manipulation_targetAtFixation,jsons/v1_VE250_randls_6_rotated.json,http://54.235.29.9/FacialAge/BNav_EC2/DepthDuration/v2_depth_duration_MTurk/v2_DepthDuration_HTML.html#122,122,960,505,1440,900,8-20-2022,11-31-7,3,depth_duration_stimuli/002949_2014-06-26_15-57-42_094959634447_rgbf000079-resize_1/002949_2014-06-26_15-57-42_094959634447_rgbf000079-resize_1-target.png,250,1.8915,60,4547,249,meters,jsons/v1_VE250_randls_6_rotated.json,897633,982986,42,Woman
3,640450,DepthScenes,duration_manipulation_targetAtFixation,jsons/v1_VE250_randls_6_rotated.json,http://54.235.29.9/FacialAge/BNav_EC2/DepthDuration/v2_depth_duration_MTurk/v2_DepthDuration_HTML.html#122,122,960,505,1440,900,8-20-2022,11-31-7,4,depth_duration_stimuli/000522_2014-06-08_13-35-06_260595134347_rgbf000244-resize_1/000522_2014-06-08_13-35-06_260595134347_rgbf000244-resize_1-target.png,250,2.3715,50,2498,249,meters,jsons/v1_VE250_randls_6_rotated.json,897633,982986,42,Woman
4,640450,DepthScenes,duration_manipulation_targetAtFixation,jsons/v1_VE250_randls_6_rotated.json,http://54.235.29.9/FacialAge/BNav_EC2/DepthDuration/v2_depth_duration_MTurk/v2_DepthDuration_HTML.html#122,122,960,505,1440,900,8-20-2022,11-31-7,5,depth_duration_stimuli/003083_2014-06-15_15-21-03_094959634447_rgbf000063-resize_1/003083_2014-06-15_15-21-03_094959634447_rgbf000063-resize_1-target.png,250,4.1405,50,2907,249,meters,jsons/v1_VE250_randls_6_rotated.json,897633,982986,42,Woman
5,640450,DepthScenes,duration_manipulation_targetAtFixation,jsons/v1_VE250_randls_6_rotated.json,http://54.235.29.9/FacialAge/BNav_EC2/DepthDuration/v2_depth_duration_MTurk/v2_DepthDuration_HTML.html#122,122,960,505,1440,900,8-20-2022,11-31-7,6,depth_duration_stimuli/000486_2014-06-09_20-47-20_260595134347_rgbf000143-resize_2/000486_2014-06-09_20-47-20_260595134347_rgbf000143-resize_2-target.png,250,4.8325,50,2730,249,meters,jsons/v1_VE250_randls_6_rotated.json,897633,982986,42,Woman
6,640450,DepthScenes,duration_manipulation_targetAtFixation,jsons/v1_VE250_randls_6_rotated.json,http://54.235.29.9/FacialAge/BNav_EC2/DepthDuration/v2_depth_duration_MTurk/v2_DepthDuration_HTML.html#122,122,960,505,1440,900,8-20-2022,11-31-7,7,depth_duration_stimuli/003587_2014-05-23_16-48-02_094959634447_rgbf002384-resize_2/003587_2014-05-23_16-48-02_094959634447_rgbf002384-resize_2-target.png,250,1.357,60,2483,249,meters,jsons/v1_VE250_randls_6_rotated.json,897633,982986,42,Woman
7,640450,DepthScenes,duration_manipulation_targetAtFixation,jsons/v1_VE250_randls_6_rotated.json,http://54.235.29.9/FacialAge/BNav_EC2/DepthDuration/v2_depth_duration_MTurk/v2_DepthDuration_HTML.html#122,122,960,505,1440,900,8-20-2022,11-31-7,8,depth_duration_stimuli/001167_2014-06-17_15-38-07_260595134347_rgbf000108-resize_0/001167_2014-06-17_15-38-07_260595134347_rgbf000108-resize_0-target.png,250,1.8505,60,2282,249,meters,jsons/v1_VE250_randls_6_rotated.json,897633,982986,42,Woman
8,640450,DepthScenes,duration_manipulation_targetAtFixation,jsons/v1_VE250_randls_6_rotated.json,http://54.235.29.9/FacialAge/BNav_EC2/DepthDuration/v2_depth_duration_MTurk/v2_DepthDuration_HTML.html#122,122,960,505,1440,900,8-20-2022,11-31-7,9,depth_duration_stimuli/001516_2014-06-20_16-25-09_260595134347_rgbf000076-resize_2/001516_2014-06-20_16-25-09_260595134347_rgbf000076-resize_2-target.png,250,1.7445,50,2786,249,meters,jsons/v1_VE250_randls_6_rotated.json,897633,982986,42,Woman
9,640450,DepthScenes,duration_manipulation_targetAtFixation,jsons/v1_VE250_randls_6_rotated.json,http://54.235.29.9/FacialAge/BNav_EC2/DepthDuration/v2_depth_duration_MTurk/v2_DepthDuration_HTML.html#122,122,960,505,1440,900,8-20-2022,11-31-7,10,depth_duration_stimuli/002118_2014-06-25_20-32-08_260595134347_rgbf000078-resize_1/002118_2014-06-25_20-32-08_260595134347_rgbf000078-resize_1-target.png,250,2.6460000000000004,60,3346,249,meters,jsons/v1_VE250_randls_6_rotated.json,897633,982986,42,Woman
10,640450,DepthScenes,duration_manipulation_targetAtFixation,jsons/v1_VE250_randls_6_rotated.json,http://54.235.29.9/FacialAge/BNav_EC2/DepthDuration/v2_depth_duration_MTurk/v2_DepthDuration_HTML.html#122,122,960,505,1440,900,8-20-2022,11-31-7,11,depth_duration_stimuli/002340_2014-06-28_20-05-46_260595134347_rgbf000113-resize_0/002340_2014-06-28_20-05-46_260595134347_rgbf000113-resize_0-target.png,250,2.4735,50,2660,251,meters,jsons/v1_VE250_randls_6_rotated.json,897633,982986,42,Woman
11,640450,DepthScenes,duration_manipulation_targetAtFixation,jsons/v1_VE250_randls_6_rotated.json,http://54.235.29.9/FacialAge/BNav_EC2/DepthDuration/v2_depth_duration_MTurk/v2_DepthDuration_HTML.html#122,122,960,505,1440,900,8-20-2022,11-31-7,12,depth_duration_stimuli/001016_2014-06-09_16-16-10_260595134347_rgbf000112-resize_5/001016_2014-06-09_16-16-10_260595134347_rgbf000112-resize_5-target.png,250,1.6565,50,2819,250,meters,jsons/v1_VE250_randls_6_rotated.json,897633,982986,42,Woman
12,640450,DepthScenes,duration_manipulation_targetAtFixation,jsons/v1_VE250_randls_6_rotated.json,http://54.235.29.9/FacialAge/BNav_EC2/DepthDuration/v2_depth_duration_MTurk/v2_DepthDuration_HTML.html#122,122,960,505,1440,900,8-20-2022,11-31-7,13,depth_duration_stimuli/003228_2014-05-14_13-42-35_094959634447_rgbf000101-resize_1/003228_2014-05-14_13-42-35_094959634447_rgbf000101-resize_1-target.png,250,1.9680000000000002,60,2754,251,meters,jsons/v1_VE250_randls_6_rotated.json,897633,982986,42,Woman
13,640450,DepthScenes,duration_manipulation_targetAtFixation,jsons/v1_VE250_randls_6_rotated.json,http://54.235.29.9/FacialAge/BNav_EC2/DepthDuration/v2_depth_duration_MTurk/v2_DepthDuration_HTML.html#122,122,960,505,1440,900,8-20-2022,11-31-7,14,depth_duration_stimuli/002600_2014-06-24_14-27-04_094959634447_rgbf000074-resize_2/002600_2014-06-24_14-27-04_094959634447_rgbf000074-resize_2-target.png,250,2.7575,50,2469,251,meters,jsons/v1_VE250_randls_6_rotated.json,897633,982986,42,Woman
14,640450,DepthScenes,duration_manipulation_targetAtFixation,jsons/v1_VE250_randls_6_rotated.json,http://54.235.29.9/FacialAge/BNav_EC2/DepthDuration/v2_depth_duration_MTurk/v2_DepthDuration_HTML.html#122,122,960,505,1440,900,8-20-2022,11-31-7,15,depth_duration_stimuli/000854_2014-06-09_19-43-13_260595134347_rgbf000066-resize_0/000854_2014-06-09_19-43-13_260595134347_rgbf000066-resize_0-target.png,250,3.068,50,2433,250,meters,jsons/v1_VE250_randls_6_rotated.json,897633,982986,42,Woman
15,640450,DepthScenes,duration_manipulation_targetAtFixation,jsons/v1_VE250_randls_6_rotated.json,http://54.235.29.9/FacialAge/BNav_EC2/DepthDuration/v2_depth_duration_MTurk/v2_DepthDuration_HTML.html#122,122,960,505,1440,900,8-20-2022,11-31-7,16,depth_duration_stimuli/000758_2014-06-08_22-05-08_260595134347_rgbf000085-resize_0/000758_2014-06-08_22-05-08_260595134347_rgbf000085-resize_0-target.png,250,3.3810000000000002,60,2290,250,meters,jsons/v1_VE250_randls_6_rotated.json,897633,982986,42,Woman
16,640450,DepthScenes,duration_manipulation_targetAtFixation,jsons/v1_VE250_randls_6_rotated.json,http://54.235.29.9/FacialAge/BNav_EC2/DepthDuration/v2_depth_duration_MTurk/v2_DepthDuration_HTML.html#122,122,960,505,1440,900,8-20-2022,11-31-7,17,depth_duration_stimuli/001650_2014-06-20_12-09-00_260595134347_rgbf000087-resize_3/001650_2014-06-20_12-09-00_260595134347_rgbf000087-resize_3-target.png,250,1.9505,50,2228,259,meters,jsons/v1_VE250_randls_6_rotated.json,897633,982986,42,Woman
17,640450,DepthScenes,duration_manipulation_targetAtFixation,jsons/v1_VE250_randls_6_rotated.json,http://54.235.29.9/FacialAge/BNav_EC2/DepthDuration/v2_depth_duration_MTurk/v2_DepthDuration_HTML.html#122,122,960,505,1440,900,8-20-2022,11-31-7,18,depth_duration_stimuli/000682_2014-06-08_23-14-58_260595134347_rgbf000041-resize_5/000682_2014-06-08_23-14-58_260595134347_rgbf000041-resize_5-target.png,250,2.7239999999999998,50,2219,250,meters,jsons/v1_VE250_randls_6_rotated.json,897633,982986,42,Woman
18,640450,DepthScenes,duration_manipulation_targetAtFixation,jsons/v1_VE250_randls_6_rotated.json,http://54.235.29.9/FacialAge/BNav_EC2/DepthDuration/v2_depth_duration_MTurk/v2_DepthDuration_HTML.html#122,122,960,505,1440,900,8-20-2022,11-31-7,19,depth_duration_stimuli/001498_2014-06-19_17-45-14_260595134347_rgbf000129-resize_4/001498_2014-06-19_17-45-14_260595134347_rgbf000129-resize-original.jpg,250,1.4075,50,2234,250,meters,jsons/v1_VE250_randls_6_rotated.json,897633,982986,42,Woman
19,640450,DepthScenes,duration_manipulation_targetAtFixation,jsons/v1_VE250_randls_6_rotated.json,http://54.235.29.9/FacialAge/BNav_EC2/DepthDuration/v2_depth_duration_MTurk/v2_DepthDuration_HTML.html#122,122,960,505,1440,900,8-20-2022,11-31-7,20,depth_duration_stimuli/001815_2014-06-26_20-52-55_260595134347_rgbf000020-resize_0/001815_2014-06-26_20-52-55_260595134347_rgbf000020-resize_0-target.png,250,3.3865,50,2203,250,meters,jsons/v1_VE250_randls_6_rotated.json,897633,982986,42,Woman
20,640450,DepthScenes,duration_manipulation_targetAtFixation,jsons/v1_VE250_randls_6_rotated.json,http://54.235.29.9/FacialAge/BNav_EC2/DepthDuration/v2_depth_duration_MTurk/v2_DepthDuration_HTML.html#122,122,960,505,1440,900,8-20-2022,11-31-7,21,depth_duration_stimuli/001808_2014-06-26_20-50-58_260595134347_rgbf000029-resize_1/001808_2014-06-26_20-50-58_260595134347_rgbf000029-resize_1-target.png,250,4.249,50,2156,250,meters,jsons/v1_VE250_randls_6_rotated.json,897633,982986,42,Woman
21,640450,DepthScenes,duration_manipulation_targetAtFixation,jsons/v1_VE250_randls_6_rotated.json,http://54.235.29.9/FacialAge/BNav_EC2/DepthDuration/v2_depth_duration_MTurk/v2_DepthDuration_HTML.html#122,122,960,505,1440,900,8-20-2022,11-31-7,22,depth_duration_stimuli/000556_2014-06-09_22-42-56_260595134347_rgbf000214-resize_1/000556_2014-06-09_22-42-56_260595134347_rgbf000214-resize_1-target.png,250,4.8415,60,1882,250,meters,jsons/v1_VE250_randls_6_rotated.json,897633,982986,42,Woman
22,640450,DepthScenes,duration_manipulation_targetAtFixation,jsons/v1_VE250_randls_6_rotated.json,http://54.235.29.9/FacialAge/BNav_EC2/DepthDuration/v2_depth_duration_MTurk/v2_DepthDuration_HTML.html#122,122,960,505,1440,900,8-20-2022,11-31-7,23,depth_duration_stimuli/001158_2014-06-17_15-32-16_260595134347_rgbf000138-resize_2/001158_2014-06-17_15-32-16_260595134347_rgbf000138-resize_2-target.png,250,4.5315,60,2002,248,meters,jsons/v1_VE250_randls_6_rotated.json,897633,982986,42,Woman
23,640450,DepthScenes,duration_manipulation_targetAtFixation,jsons/v1_VE250_randls_6_rotated.json,http://54.235.29.9/FacialAge/BNav_EC2/DepthDuration/v2_depth_duration_MTurk/v2_DepthDuration_HTML.html#122,122,960,505,1440,900,8-20-2022,11-31-7,24,depth_duration_stimuli/002444_2014-06-28_20-32-08_260595134347_rgbf000027-resize_0/002444_2014-06-28_20-32-08_260595134347_rgbf000027-resize_0-target.png,250,4.388999999999999,50,2004,251,meters,jsons/v1_VE250_randls_6_rotated.json,897633,982986,42,Woman
24,640450,DepthScenes,duration_manipulation_targetAtFixation,jsons/v1_VE250_randls_6_rotated.json,http://54.235.29.9/FacialAge/BNav_EC2/DepthDuration/v2_depth_duration_MTurk/v2_DepthDuration_HTML.html#122,122,960,505,1440,900,8-20-2022,11-31-7,25,depth_duration_stimuli/000436_2014-06-09_22-25-11_260595134347_rgbf000137-resize_1/000436_2014-06-09_22-25-11_260595134347_rgbf000137-resize_1-target.png,250,4.0705,60,2179,249,meters,jsons/v1_VE250_randls_6_rotated.json,897633,982986,42,Woman
25,640450,DepthScenes,duration_manipulation_targetAtFixation,jsons/v1_VE250_randls_6_rotated.json,http://54.235.29.9/FacialAge/BNav_EC2/DepthDuration/v2_depth_duration_MTurk/v2_DepthDuration_HTML.html#122,122,960,505,1440,900,8-20-2022,11-31-7,26,depth_duration_stimuli/002199_2014-06-28_18-33-56_260595134347_rgbf000074-resize_0/002199_2014-06-28_18-33-56_260595134347_rgbf000074-resize_0-target.png,250,1.996,60,2419,250,meters,jsons/v1_VE250_randls_6_rotated.json,897633,982986,42,Woman
26,640450,DepthScenes,duration_manipulation_targetAtFixation,jsons/v1_VE250_randls_6_rotated.json,http://54.235.29.9/FacialAge/BNav_EC2/DepthDuration/v2_depth_duration_MTurk/v2_DepthDuration_HTML.html#122,122,960,505,1440,900,8-20-2022,11-31-7,27,depth_duration_stimuli/001056_2014-06-08_18-46-44_260595134347_rgbf000068-resize_0/001056_2014-06-08_18-46-44_260595134347_rgbf000068-resize_0-target.png,250,2.6625,50,2521,249,meters,jsons/v1_VE250_randls_6_rotated.json,897633,982986,42,Woman
27,640450,DepthScenes,duration_manipulation_targetAtFixation,jsons/v1_VE250_randls_6_rotated.json,http://54.235.29.9/FacialAge/BNav_EC2/DepthDuration/v2_depth_duration_MTurk/v2_DepthDuration_HTML.html#122,122,960,505,1440,900,8-20-2022,11-31-7,28,depth_duration_stimuli/000742_2014-06-08_18-48-09_260595134347_rgbf000164-resize_4/000742_2014-06-08_18-48-09_260595134347_rgbf000164-resize_4-target.png,250,4.632,60,2255,236,meters,jsons/v1_VE250_randls_6_rotated.json,897633,982986,42,Woman
28,640450,DepthScenes,duration_manipulation_targetAtFixation,jsons/v1_VE250_randls_6_rotated.json,http://54.235.29.9/FacialAge/BNav_EC2/DepthDuration/v2_depth_duration_MTurk/v2_DepthDuration_HTML.html#122,122,960,505,1440,900,8-20-2022,11-31-7,29,depth_duration_stimuli/001066_2014-06-08_22-03-20_260595134347_rgbf000066-resize_4/001066_2014-06-08_22-03-20_260595134347_rgbf000066-resize_4-target.png,250,4.2330000000000005,50,3226,251,meters,jsons/v1_VE250_randls_6_rotated.json,897633,982986,42,Woman
29,640450,DepthScenes,duration_manipulation_targetAtFixation,jsons/v1_VE250_randls_6_rotated.json,http://54.235.29.9/FacialAge/BNav_EC2/DepthDuration/v2_depth_duration_MTurk/v2_DepthDuration_HTML.html#122,122,960,505,1440,900,8-20-2022,11-31-7,30,depth_duration_stimuli/002072_2014-06-24_21-48-06_260595134347_rgbf000115-resize_0/002072_2014-06-24_21-48-06_260595134347_rgbf000115-resize-original.jpg,250,4.702,50,2369,248,meters,jsons/v1_VE250_randls_6_rotated.json,897633,982986,42,Woman
30,640450,DepthScenes,duration_manipulation_targetAtFixation,jsons/v1_VE250_randls_6_rotated.json,http://54.235.29.9/FacialAge/BNav_EC2/DepthDuration/v2_depth_duration_MTurk/v2_DepthDuration_HTML.html#122,122,960,505,1440,900,8-20-2022,11-31-7,31,depth_duration_stimuli/001032_2014-06-08_13-23-17_260595134347_rgbf000021-resize_3/001032_2014-06-08_13-23-17_260595134347_rgbf000021-resize_3-target.png,250,3.2725,50,2569,250,meters,jsons/v1_VE250_randls_6_rotated.json,897633,982986,42,Woman
31,640450,DepthScenes,duration_manipulation_targetAtFixation,jsons/v1_VE250_randls_6_rotated.json,http://54.235.29.9/FacialAge/BNav_EC2/DepthDuration/v2_depth_duration_MTurk/v2_DepthDuration_HTML.html#122,122,960,505,1440,900,8-20-2022,11-31-7,32,depth_duration_stimuli/001059_2014-06-08_21-53-27_260595134347_rgbf000061-resize_4/001059_2014-06-08_21-53-27_260595134347_rgbf000061-resize_4-target.png,250,2.4185,60,2314,249,meters,jsons/v1_VE250_randls_6_rotated.json,897633,982986,42,Woman
32,640450,DepthScenes,duration_manipulation_targetAtFixation,jsons/v1_VE250_randls_6_rotated.json,http://54.235.29.9/FacialAge/BNav_EC2/DepthDuration/v2_depth_duration_MTurk/v2_DepthDuration_HTML.html#122,122,960,505,1440,900,8-20-2022,11-31-7,33,depth_duration_stimuli/000191_2014-05-12_17-07-38_260595134347_rgbf000199-resize_0/000191_2014-05-12_17-07-38_260595134347_rgbf000199-resize_0-target.png,250,3.7995,60,2364,249,meters,jsons/v1_VE250_randls_6_rotated.json,897633,982986,42,Woman
33,640450,DepthScenes,duration_manipulation_targetAtFixation,jsons/v1_VE250_randls_6_rotated.json,http://54.235.29.9/FacialAge/BNav_EC2/DepthDuration/v2_depth_duration_MTurk/v2_DepthDuration_HTML.html#122,122,960,505,1440,900,8-20-2022,11-31-7,34,depth_duration_stimuli/000493_2014-06-09_21-01-18_260595134347_rgbf000196-resize_3/000493_2014-06-09_21-01-18_260595134347_rgbf000196-resize_3-target.png,250,3.44,60,2403,251,meters,jsons/v1_VE250_randls_6_rotated.json,897633,982986,42,Woman
34,640450,DepthScenes,duration_manipulation_targetAtFixation,jsons/v1_VE250_randls_6_rotated.json,http://54.235.29.9/FacialAge/BNav_EC2/DepthDuration/v2_depth_duration_MTurk/v2_DepthDuration_HTML.html#122,122,960,505,1440,900,8-20-2022,11-31-7,35,depth_duration_stimuli/001447_2014-06-19_17-00-32_260595134347_rgbf000082-resize_5/001447_2014-06-19_17-00-32_260595134347_rgbf000082-resize_5-target.png,250,4.13775,90,2451,251,meters,jsons/v1_VE250_randls_6_rotated.json,897633,982986,42,Woman
35,640450,DepthScenes,duration_manipulation_targetAtFixation,jsons/v1_VE250_randls_6_rotated.json,http://54.235.29.9/FacialAge/BNav_EC2/DepthDuration/v2_depth_duration_MTurk/v2_DepthDuration_HTML.html#122,122,960,505,1440,900,8-20-2022,11-31-7,36,depth_duration_stimuli/000447_2014-06-08_16-15-46_260595134347_rgbf000130-resize_1/000447_2014-06-08_16-15-46_260595134347_rgbf000130-resize_1-target.png,250,4.479,70,2634,250,meters,jsons/v1_VE250_randls_6_rotated.json,897633,982986,42,Woman
36,640450,DepthScenes,duration_manipulation_targetAtFixation,jsons/v1_VE250_randls_6_rotated.json,http://54.235.29.9/FacialAge/BNav_EC2/DepthDuration/v2_depth_duration_MTurk/v2_DepthDuration_HTML.html#122,122,960,505,1440,900,8-20-2022,11-31-7,37,depth_duration_stimuli/002953_2014-06-08_17-32-18_094959634447_rgbf000059-resize_5/002953_2014-06-08_17-32-18_094959634447_rgbf000059-resize_5-target.png,250,1.551,50,2546,249,meters,jsons/v1_VE250_randls_6_rotated.json,897633,982986,42,Woman
37,640450,DepthScenes,duration_manipulation_targetAtFixation,jsons/v1_VE250_randls_6_rotated.json,http://54.235.29.9/FacialAge/BNav_EC2/DepthDuration/v2_depth_duration_MTurk/v2_DepthDuration_HTML.html#122,122,960,505,1440,900,8-20-2022,11-31-7,38,depth_duration_stimuli/000878_2014-06-08_22-52-45_260595134347_rgbf000045-resize_2/000878_2014-06-08_22-52-45_260595134347_rgbf000045-resize_2-target.png,250,2.092,50,2586,249,meters,jsons/v1_VE250_randls_6_rotated.json,897633,982986,42,Woman
38,640450,DepthScenes,duration_manipulation_targetAtFixation,jsons/v1_VE250_randls_6_rotated.json,http://54.235.29.9/FacialAge/BNav_EC2/DepthDuration/v2_depth_duration_MTurk/v2_DepthDuration_HTML.html#122,122,960,505,1440,900,8-20-2022,11-31-7,39,depth_duration_stimuli/000866_2014-06-09_20-45-42_260595134347_rgbf000139-resize_1/000866_2014-06-09_20-45-42_260595134347_rgbf000139-resize_1-target.png,250,3.2155,52,3028,250,meters,jsons/v1_VE250_randls_6_rotated.json,897633,982986,42,Woman
39,640450,DepthScenes,duration_manipulation_targetAtFixation,jsons/v1_VE250_randls_6_rotated.json,http://54.235.29.9/FacialAge/BNav_EC2/DepthDuration/v2_depth_duration_MTurk/v2_DepthDuration_HTML.html#122,122,960,505,1440,900,8-20-2022,11-31-7,40,depth_duration_stimuli/002989_2014-06-15_12-25-03_094959634447_rgbf000150-resize_3/002989_2014-06-15_12-25-03_094959634447_rgbf000150-resize_3-target.png,250,4.1975,50,2242,249,meters,jsons/v1_VE250_randls_6_rotated.json,897633,982986,42,Woman
40,640450,DepthScenes,duration_manipulation_targetAtFixation,jsons/v1_VE250_randls_6_rotated.json,http://54.235.29.9/FacialAge/BNav_EC2/DepthDuration/v2_depth_duration_MTurk/v2_DepthDuration_HTML.html#122,122,960,505,1440,900,8-20-2022,11-31-7,41,depth_duration_stimuli/002545_2014-06-24_13-38-53_094959634447_rgbf000080-resize_4/002545_2014-06-24_13-38-53_094959634447_rgbf000080-resize_4-target.png,250,1.9205,50,2418,249,meters,jsons/v1_VE250_randls_6_rotated.json,897633,982986,42,Woman
41,640450,DepthScenes,duration_manipulation_targetAtFixation,jsons/v1_VE250_randls_6_rotated.json,http://54.235.29.9/FacialAge/BNav_EC2/DepthDuration/v2_depth_duration_MTurk/v2_DepthDuration_HTML.html#122,122,960,505,1440,900,8-20-2022,11-31-7,42,depth_duration_stimuli/001092_2014-06-15_17-34-58_260595134347_rgbf000171-resize_3/001092_2014-06-15_17-34-58_260595134347_rgbf000171-resize_3-target.png,250,2.6935,50,2380,250,meters,jsons/v1_VE250_randls_6_rotated.json,897633,982986,42,Woman
42,640450,DepthScenes,duration_manipulation_targetAtFixation,jsons/v1_VE250_randls_6_rotated.json,http://54.235.29.9/FacialAge/BNav_EC2/DepthDuration/v2_depth_duration_MTurk/v2_DepthDuration_HTML.html#122,122,960,505,1440,900,8-20-2022,11-31-7,43,depth_duration_stimuli/000749_2014-06-08_21-55-06_260595134347_rgbf000070-resize_2/000749_2014-06-08_21-55-06_260595134347_rgbf000070-resize_2-target.png,250,2.331,50,2476,249,meters,jsons/v1_VE250_randls_6_rotated.json,897633,982986,42,Woman
43,640450,DepthScenes,duration_manipulation_targetAtFixation,jsons/v1_VE250_randls_6_rotated.json,http://54.235.29.9/FacialAge/BNav_EC2/DepthDuration/v2_depth_duration_MTurk/v2_DepthDuration_HTML.html#122,122,960,505,1440,900,8-20-2022,11-31-7,44,depth_duration_stimuli/002788_2014-06-22_19-36-03_094959634447_rgbf000088-resize_2/002788_2014-06-22_19-36-03_094959634447_rgbf000088-resize_2-target.png,250,1.6465,50,2587,250,meters,jsons/v1_VE250_randls_6_rotated.json,897633,982986,42,Woman
44,640450,DepthScenes,duration_manipulation_targetAtFixation,jsons/v1_VE250_randls_6_rotated.json,http://54.235.29.9/FacialAge/BNav_EC2/DepthDuration/v2_depth_duration_MTurk/v2_DepthDuration_HTML.html#122,122,960,505,1440,900,8-20-2022,11-31-7,45,depth_duration_stimuli/000502_2014-06-08_23-02-32_260595134347_rgbf000063-resize_4/000502_2014-06-08_23-02-32_260595134347_rgbf000063-resize_4-target.png,250,2.431,50,2451,249,meters,jsons/v1_VE250_randls_6_rotated.json,897633,982986,42,Woman
45,640450,DepthScenes,duration_manipulation_targetAtFixation,jsons/v1_VE250_randls_6_rotated.json,http://54.235.29.9/FacialAge/BNav_EC2/DepthDuration/v2_depth_duration_MTurk/v2_DepthDuration_HTML.html#122,122,960,505,1440,900,8-20-2022,11-31-7,46,depth_duration_stimuli/001199_2014-06-17_16-03-48_260595134347_rgbf000077-resize_0/001199_2014-06-17_16-03-48_260595134347_rgbf000077-resize_0-target.png,250,3.4375,50,2483,249,meters,jsons/v1_VE250_randls_6_rotated.json,897633,982986,42,Woman
46,640450,DepthScenes,duration_manipulation_targetAtFixation,jsons/v1_VE250_randls_6_rotated.json,http://54.235.29.9/FacialAge/BNav_EC2/DepthDuration/v2_depth_duration_MTurk/v2_DepthDuration_HTML.html#122,122,960,505,1440,900,8-20-2022,11-31-7,47,depth_duration_stimuli/001094_2014-06-15_17-36-00_260595134347_rgbf000205-resize_0/001094_2014-06-15_17-36-00_260595134347_rgbf000205-resize_0-target.png,250,4.2175,50,2467,249,meters,jsons/v1_VE250_randls_6_rotated.json,897633,982986,42,Woman
47,640450,DepthScenes,duration_manipulation_targetAtFixation,jsons/v1_VE250_randls_6_rotated.json,http://54.235.29.9/FacialAge/BNav_EC2/DepthDuration/v2_depth_duration_MTurk/v2_DepthDuration_HTML.html#122,122,960,505,1440,900,8-20-2022,11-31-7,48,depth_duration_stimuli/000692_2014-06-08_13-09-42_260595134347_rgbf000199-resize_2/000692_2014-06-08_13-09-42_260595134347_rgbf000199-resize_2-target.png,250,3.661,60,2319,246,meters,jsons/v1_VE250_randls_6_rotated.json,897633,982986,42,Woman
48,640450,DepthScenes,duration_manipulation_targetAtFixation,jsons/v1_VE250_randls_6_rotated.json,http://54.235.29.9/FacialAge/BNav_EC2/DepthDuration/v2_depth_duration_MTurk/v2_DepthDuration_HTML.html#122,122,960,505,1440,900,8-20-2022,11-31-7,49,depth_duration_stimuli/001170_2014-06-17_15-43-44_260595134347_rgbf000096-resize_6/001170_2014-06-17_15-43-44_260595134347_rgbf000096-resize-original.jpg,250,1.1909999999999998,52,12450,251,meters,jsons/v1_VE250_randls_6_rotated.json,897633,982986,42,Woman
49,640450,DepthScenes,duration_manipulation_targetAtFixation,jsons/v1_VE250_randls_6_rotated.json,http://54.235.29.9/FacialAge/BNav_EC2/DepthDuration/v2_depth_duration_MTurk/v2_DepthDuration_HTML.html#122,122,960,505,1440,900,8-20-2022,11-31-7,50,depth_duration_stimuli/000635_2014-06-08_16-38-42_260595134347_rgbf000106-resize_1/000635_2014-06-08_16-38-42_260595134347_rgbf000106-resize_1-target.png,250,2.074,50,2592,239,meters,jsons/v1_VE250_randls_6_rotated.json,897633,982986,42,Woman
50,640450,DepthScenes,duration_manipulation_targetAtFixation,jsons/v1_VE250_randls_6_rotated.json,http://54.235.29.9/FacialAge/BNav_EC2/DepthDuration/v2_depth_duration_MTurk/v2_DepthDuration_HTML.html#122,122,960,505,1440,900,8-20-2022,11-31-7,51,depth_duration_stimuli/002279_2014-06-28_18-55-32_260595134347_rgbf000040-resize_5/002279_2014-06-28_18-55-32_260595134347_rgbf000040-resize_5-target.png,250,1.5043333333333,60,2306,249,meters,jsons/v1_VE250_randls_6_rotated.json,897633,982986,42,Woman
51,640450,DepthScenes,duration_manipulation_targetAtFixation,jsons/v1_VE250_randls_6_rotated.json,http://54.235.29.9/FacialAge/BNav_EC2/DepthDuration/v2_depth_duration_MTurk/v2_DepthDuration_HTML.html#122,122,960,505,1440,900,8-20-2022,11-31-7,52,depth_duration_stimuli/000457_2014-06-08_16-52-43_260595134347_rgbf000199-resize_1/000457_2014-06-08_16-52-43_260595134347_rgbf000199-resize_1-target.png,250,3.6489999999999996,60,2499,251,meters,jsons/v1_VE250_randls_6_rotated.json,897633,982986,42,Woman
52,640450,DepthScenes,duration_manipulation_targetAtFixation,jsons/v1_VE250_randls_6_rotated.json,http://54.235.29.9/FacialAge/BNav_EC2/DepthDuration/v2_depth_duration_MTurk/v2_DepthDuration_HTML.html#122,122,960,505,1440,900,8-20-2022,11-31-7,53,depth_duration_stimuli/000929_2014-06-09_16-33-19_260595134347_rgbf000139-resize_0/000929_2014-06-09_16-33-19_260595134347_rgbf000139-resize_0-target.png,250,2.8680000000000003,60,2387,251,meters,jsons/v1_VE250_randls_6_rotated.json,897633,982986,42,Woman
53,640450,DepthScenes,duration_manipulation_targetAtFixation,jsons/v1_VE250_randls_6_rotated.json,http://54.235.29.9/FacialAge/BNav_EC2/DepthDuration/v2_depth_duration_MTurk/v2_DepthDuration_HTML.html#122,122,960,505,1440,900,8-20-2022,11-31-7,54,depth_duration_stimuli/002344_2014-06-28_20-06-29_260595134347_rgbf000030-resize_1/002344_2014-06-28_20-06-29_260595134347_rgbf000030-resize_1-target.png,250,1.5795,50,2331,250,meters,jsons/v1_VE250_randls_6_rotated.json,897633,982986,42,Woman
54,640450,DepthScenes,duration_manipulation_targetAtFixation,jsons/v1_VE250_randls_6_rotated.json,http://54.235.29.9/FacialAge/BNav_EC2/DepthDuration/v2_depth_duration_MTurk/v2_DepthDuration_HTML.html#122,122,960,505,1440,900,8-20-2022,11-31-7,55,depth_duration_stimuli/002725_2014-06-22_11-47-51_094959634447_rgbf000070-resize_1/002725_2014-06-22_11-47-51_094959634447_rgbf000070-resize_1-target.png,250,2.195,40,2474,249,meters,jsons/v1_VE250_randls_6_rotated.json,897633,982986,42,Woman
55,640450,DepthScenes,duration_manipulation_targetAtFixation,jsons/v1_VE250_randls_6_rotated.json,http://54.235.29.9/FacialAge/BNav_EC2/DepthDuration/v2_depth_duration_MTurk/v2_DepthDuration_HTML.html#122,122,960,505,1440,900,8-20-2022,11-31-7,56,depth_duration_stimuli/002639_2014-06-24_14-51-37_094959634447_rgbf000074-resize_4/002639_2014-06-24_14-51-37_094959634447_rgbf000074-resize_4-target.png,250,4.0375,50,2186,250,meters,jsons/v1_VE250_randls_6_rotated.json,897633,982986,42,Woman
56,640450,DepthScenes,duration_manipulation_targetAtFixation,jsons/v1_VE250_randls_6_rotated.json,http://54.235.29.9/FacialAge/BNav_EC2/DepthDuration/v2_depth_duration_MTurk/v2_DepthDuration_HTML.html#122,122,960,505,1440,900,8-20-2022,11-31-7,57,depth_duration_stimuli/003292_2014-05-14_21-53-49_094959634447_rgbf000100-resize_2/003292_2014-05-14_21-53-49_094959634447_rgbf000100-resize_2-target.png,250,3.4815,50,7723,250,meters,jsons/v1_VE250_randls_6_rotated.json,897633,982986,42,Woman
57,640450,DepthScenes,duration_manipulation_targetAtFixation,jsons/v1_VE250_randls_6_rotated.json,http://54.235.29.9/FacialAge/BNav_EC2/DepthDuration/v2_depth_duration_MTurk/v2_DepthDuration_HTML.html#122,122,960,505,1440,900,8-20-2022,11-31-7,58,depth_duration_stimuli/001136_2014-06-17_15-19-41_260595134347_rgbf000076-resize_3/001136_2014-06-17_15-19-41_260595134347_rgbf000076-resize_3-target.png,250,1.8655,60,2842,250,meters,jsons/v1_VE250_randls_6_rotated.json,897633,982986,42,Woman
58,640450,DepthScenes,duration_manipulation_targetAtFixation,jsons/v1_VE250_randls_6_rotated.json,http://54.235.29.9/FacialAge/BNav_EC2/DepthDuration/v2_depth_duration_MTurk/v2_DepthDuration_HTML.html#122,122,960,505,1440,900,8-20-2022,11-31-7,59,depth_duration_stimuli/001164_2014-06-17_15-35-46_260595134347_rgbf000085-resize_3/001164_2014-06-17_15-35-46_260595134347_rgbf000085-resize_3-target.png,250,2.354,50,2410,250,meters,jsons/v1_VE250_randls_6_rotated.json,897633,982986,42,Woman
59,640450,DepthScenes,duration_manipulation_targetAtFixation,jsons/v1_VE250_randls_6_rotated.json,http://54.235.29.9/FacialAge/BNav_EC2/DepthDuration/v2_depth_duration_MTurk/v2_DepthDuration_HTML.html#122,122,960,505,1440,900,8-20-2022,11-31-7,60,depth_duration_stimuli/000483_2014-06-09_20-41-45_260595134347_rgbf000116-resize_4/000483_2014-06-09_20-41-45_260595134347_rgbf000116-resize_4-target.png,250,1.337,60,2403,250,meters,jsons/v1_VE250_randls_6_rotated.json,897633,982986,42,Woman
60,640450,DepthScenes,duration_manipulation_targetAtFixation,jsons/v1_VE250_randls_6_rotated.json,http://54.235.29.9/FacialAge/BNav_EC2/DepthDuration/v2_depth_duration_MTurk/v2_DepthDuration_HTML.html#122,122,960,505,1440,900,8-20-2022,11-31-7,61,depth_duration_stimuli/000469_2014-06-09_19-42-10_260595134347_rgbf000081-resize_1/000469_2014-06-09_19-42-10_260595134347_rgbf000081-resize_1-target.png,250,1.652,50,2338,249,meters,jsons/v1_VE250_randls_6_rotated.json,897633,982986,42,Woman
61,640450,DepthScenes,duration_manipulation_targetAtFixation,jsons/v1_VE250_randls_6_rotated.json,http://54.235.29.9/FacialAge/BNav_EC2/DepthDuration/v2_depth_duration_MTurk/v2_DepthDuration_HTML.html#122,122,960,505,1440,900,8-20-2022,11-31-7,62,depth_duration_stimuli/000109_2014-05-14_23-41-52_260595134347_rgbf000035-resize_9/000109_2014-05-14_23-41-52_260595134347_rgbf000035-resize_9-target.png,250,1.3545,50,2491,251,meters,jsons/v1_VE250_randls_6_rotated.json,897633,982986,42,Woman
62,640450,DepthScenes,duration_manipulation_targetAtFixation,jsons/v1_VE250_randls_6_rotated.json,http://54.235.29.9/FacialAge/BNav_EC2/DepthDuration/v2_depth_duration_MTurk/v2_DepthDuration_HTML.html#122,122,960,505,1440,900,8-20-2022,11-31-7,63,depth_duration_stimuli/000470_2014-06-09_19-42-40_260595134347_rgbf000094-resize_1/000470_2014-06-09_19-42-40_260595134347_rgbf000094-resize_1-target.png,250,1.831,90,2475,251,meters,jsons/v1_VE250_randls_6_rotated.json,897633,982986,42,Woman
63,640450,DepthScenes,duration_manipulation_targetAtFixation,jsons/v1_VE250_randls_6_rotated.json,http://54.235.29.9/FacialAge/BNav_EC2/DepthDuration/v2_depth_duration_MTurk/v2_DepthDuration_HTML.html#122,122,960,505,1440,900,8-20-2022,11-31-7,64,depth_duration_stimuli/000549_2014-06-08_22-10-24_260595134347_rgbf000247-resize_3/000549_2014-06-08_22-10-24_260595134347_rgbf000247-resize_3-target.png,250,1.841,80,2506,250,meters,jsons/v1_VE250_randls_6_rotated.json,897633,982986,42,Woman
64,640450,DepthScenes,duration_manipulation_targetAtFixation,jsons/v1_VE250_randls_6_rotated.json,http://54.235.29.9/FacialAge/BNav_EC2/DepthDuration/v2_depth_duration_MTurk/v2_DepthDuration_HTML.html#122,122,960,505,1440,900,8-20-2022,11-31-7,65,depth_duration_stimuli/001055_2014-06-08_18-45-35_260595134347_rgbf000111-resize_4/001055_2014-06-08_18-45-35_260595134347_rgbf000111-resize_4-target.png,250,2.4290000000000003,60,2467,250,meters,jsons/v1_VE250_randls_6_rotated.json,897633,982986,42,Woman
65,640450,DepthScenes,duration_manipulation_targetAtFixation,jsons/v1_VE250_randls_6_rotated.json,http://54.235.29.9/FacialAge/BNav_EC2/DepthDuration/v2_depth_duration_MTurk/v2_DepthDuration_HTML.html#122,122,960,505,1440,900,8-20-2022,11-31-7,66,depth_duration_stimuli/001540_2014-06-20_17-01-05_260595134347_rgbf000086-resize_2/001540_2014-06-20_17-01-05_260595134347_rgbf000086-resize-original.jpg,250,1.459,50,2818,251,meters,jsons/v1_VE250_randls_6_rotated.json,897633,982986,42,Woman
66,640450,DepthScenes,duration_manipulation_targetAtFixation,jsons/v1_VE250_randls_6_rotated.json,http://54.235.29.9/FacialAge/BNav_EC2/DepthDuration/v2_depth_duration_MTurk/v2_DepthDuration_HTML.html#122,122,960,505,1440,900,8-20-2022,11-31-7,67,depth_duration_stimuli/002660_2014-06-13_15-44-18_094959634447_rgbf001878-resize_2/002660_2014-06-13_15-44-18_094959634447_rgbf001878-resize_2-target.png,250,3.576,60,2514,249,meters,jsons/v1_VE250_randls_6_rotated.json,897633,982986,42,Woman
67,640450,DepthScenes,duration_manipulation_targetAtFixation,jsons/v1_VE250_randls_6_rotated.json,http://54.235.29.9/FacialAge/BNav_EC2/DepthDuration/v2_depth_duration_MTurk/v2_DepthDuration_HTML.html#122,122,960,505,1440,900,8-20-2022,11-31-7,68,depth_duration_stimuli/002153_2014-06-25_21-27-18_260595134347_rgbf000038-resize_5/002153_2014-06-25_21-27-18_260595134347_rgbf000038-resize_5-target.png,250,2.505,80,2746,249,meters,jsons/v1_VE250_randls_6_rotated.json,897633,982986,42,Woman
68,640450,DepthScenes,duration_manipulation_targetAtFixation,jsons/v1_VE250_randls_6_rotated.json,http://54.235.29.9/FacialAge/BNav_EC2/DepthDuration/v2_depth_duration_MTurk/v2_DepthDuration_HTML.html#122,122,960,505,1440,900,8-20-2022,11-31-7,69,depth_duration_stimuli/001617_2014-06-20_11-35-32_260595134347_rgbf000066-resize_1/001617_2014-06-20_11-35-32_260595134347_rgbf000066-resize_1-target.png,250,3.7910000000000004,50,2817,249,meters,jsons/v1_VE250_randls_6_rotated.json,897633,982986,42,Woman
69,640450,DepthScenes,duration_manipulation_targetAtFixation,jsons/v1_VE250_randls_6_rotated.json,http://54.235.29.9/FacialAge/BNav_EC2/DepthDuration/v2_depth_duration_MTurk/v2_DepthDuration_HTML.html#122,122,960,505,1440,900,8-20-2022,11-31-7,70,depth_duration_stimuli/001806_2014-06-26_20-50-20_260595134347_rgbf000091-resize_1/001806_2014-06-26_20-50-20_260595134347_rgbf000091-resize_1-target.png,250,2.7305,60,2347,251,meters,jsons/v1_VE250_randls_6_rotated.json,897633,982986,42,Woman
70,640450,DepthScenes,duration_manipulation_targetAtFixation,jsons/v1_VE250_randls_6_rotated.json,http://54.235.29.9/FacialAge/BNav_EC2/DepthDuration/v2_depth_duration_MTurk/v2_DepthDuration_HTML.html#122,122,960,505,1440,900,8-20-2022,11-31-7,71,depth_duration_stimuli/002467_2014-06-28_20-38-07_260595134347_rgbf000026-resize_2/002467_2014-06-28_20-38-07_260595134347_rgbf000026-resize_2-target.png,250,4.742,50,2563,250,meters,jsons/v1_VE250_randls_6_rotated.json,897633,982986,42,Woman
71,640450,DepthScenes,duration_manipulation_targetAtFixation,jsons/v1_VE250_randls_6_rotated.json,http://54.235.29.9/FacialAge/BNav_EC2/DepthDuration/v2_depth_duration_MTurk/v2_DepthDuration_HTML.html#122,122,960,505,1440,900,8-20-2022,11-31-7,72,depth_duration_stimuli/002570_2014-06-24_13-59-54_094959634447_rgbf000059-resize_0/002570_2014-06-24_13-59-54_094959634447_rgbf000059-resize_0-target.png,250,4.037,60,2371,251,meters,jsons/v1_VE250_randls_6_rotated.json,897633,982986,42,Woman
72,640450,DepthScenes,duration_manipulation_targetAtFixation,jsons/v1_VE250_randls_6_rotated.json,http://54.235.29.9/FacialAge/BNav_EC2/DepthDuration/v2_depth_duration_MTurk/v2_DepthDuration_HTML.html#122,122,960,505,1440,900,8-20-2022,11-31-7,73,depth_duration_stimuli/002805_2014-06-22_19-54-03_094959634447_rgbf000079-resize_1/002805_2014-06-22_19-54-03_094959634447_rgbf000079-resize_1-target.png,250,3.1439999999999997,80,2449,250,meters,jsons/v1_VE250_randls_6_rotated.json,897633,982986,42,Woman
73,640450,DepthScenes,duration_manipulation_targetAtFixation,jsons/v1_VE250_randls_6_rotated.json,http://54.235.29.9/FacialAge/BNav_EC2/DepthDuration/v2_depth_duration_MTurk/v2_DepthDuration_HTML.html#122,122,960,505,1440,900,8-20-2022,11-31-7,74,depth_duration_stimuli/000906_2014-06-08_13-35-43_260595134347_rgbf000155-resize_1/000906_2014-06-08_13-35-43_260595134347_rgbf000155-resize_1-target.png,250,2.8489999999999998,50,2212,251,meters,jsons/v1_VE250_randls_6_rotated.json,897633,982986,42,Woman
74,640450,DepthScenes,duration_manipulation_targetAtFixation,jsons/v1_VE250_randls_6_rotated.json,http://54.235.29.9/FacialAge/BNav_EC2/DepthDuration/v2_depth_duration_MTurk/v2_DepthDuration_HTML.html#122,122,960,505,1440,900,8-20-2022,11-31-7,75,depth_duration_stimuli/002414_2014-06-28_20-24-58_260595134347_rgbf000067-resize_4/002414_2014-06-28_20-24-58_260595134347_rgbf000067-resize_4-target.png,250,4.363,50,2225,250,meters,jsons/v1_VE250_randls_6_rotated.json,897633,982986,42,Woman
75,640450,DepthScenes,duration_manipulation_targetAtFixation,jsons/v1_VE250_randls_6_rotated.json,http://54.235.29.9/FacialAge/BNav_EC2/DepthDuration/v2_depth_duration_MTurk/v2_DepthDuration_HTML.html#122,122,960,505,1440,900,8-20-2022,11-31-7,76,depth_duration_stimuli/000773_2014-06-08_22-24-54_260595134347_rgbf000093-resize_1/000773_2014-06-08_22-24-54_260595134347_rgbf000093-resize_1-target.png,250,4.973,60,2850,249,meters,jsons/v1_VE250_randls_6_rotated.json,897633,982986,42,Woman
76,640450,DepthScenes,duration_manipulation_targetAtFixation,jsons/v1_VE250_randls_6_rotated.json,http://54.235.29.9/FacialAge/BNav_EC2/DepthDuration/v2_depth_duration_MTurk/v2_DepthDuration_HTML.html#122,122,960,505,1440,900,8-20-2022,11-31-7,77,depth_duration_stimuli/000709_2014-06-08_13-51-55_260595134347_rgbf000068-resize_3/000709_2014-06-08_13-51-55_260595134347_rgbf000068-resize_3-target.png,250,1.8030000000000002,60,2515,251,meters,jsons/v1_VE250_randls_6_rotated.json,897633,982986,42,Woman
77,640450,DepthScenes,duration_manipulation_targetAtFixation,jsons/v1_VE250_randls_6_rotated.json,http://54.235.29.9/FacialAge/BNav_EC2/DepthDuration/v2_depth_duration_MTurk/v2_DepthDuration_HTML.html#122,122,960,505,1440,900,8-20-2022,11-31-7,78,depth_duration_stimuli/002057_2014-06-24_21-00-13_260595134347_rgbf000120-resize_1/002057_2014-06-24_21-00-13_260595134347_rgbf000120-resize_1-target.png,250,2.967,60,2324,250,meters,jsons/v1_VE250_randls_6_rotated.json,897633,982986,42,Woman
78,640450,DepthScenes,duration_manipulation_targetAtFixation,jsons/v1_VE250_randls_6_rotated.json,http://54.235.29.9/FacialAge/BNav_EC2/DepthDuration/v2_depth_duration_MTurk/v2_DepthDuration_HTML.html#122,122,960,505,1440,900,8-20-2022,11-31-7,79,depth_duration_stimuli/002750_2014-06-22_19-08-03_094959634447_rgbf000094-resize_4/002750_2014-06-22_19-08-03_094959634447_rgbf000094-resize_4-target.png,250,2.354,50,2458,251,meters,jsons/v1_VE250_randls_6_rotated.json,897633,982986,42,Woman
79,640450,DepthScenes,duration_manipulation_targetAtFixation,jsons/v1_VE250_randls_6_rotated.json,http://54.235.29.9/FacialAge/BNav_EC2/DepthDuration/v2_depth_duration_MTurk/v2_DepthDuration_HTML.html#122,122,960,505,1440,900,8-20-2022,11-31-7,80,depth_duration_stimuli/002549_2014-06-24_13-41-39_094959634447_rgbf000022-resize_3/002549_2014-06-24_13-41-39_094959634447_rgbf000022-resize_3-target.png,250,1.476,50,2419,251,meters,jsons/v1_VE250_randls_6_rotated.json,897633,982986,42,Woman
80,640450,DepthScenes,duration_manipulation_targetAtFixation,jsons/v1_VE250_randls_6_rotated.json,http://54.235.29.9/FacialAge/BNav_EC2/DepthDuration/v2_depth_duration_MTurk/v2_DepthDuration_HTML.html#122,122,960,505,1440,900,8-20-2022,11-31-7,81,depth_duration_stimuli/003338_2014-05-20_11-01-23_094959634447_rgbf000051-resize_6/003338_2014-05-20_11-01-23_094959634447_rgbf000051-resize_6-target.png,250,1.693,60,2427,251,meters,jsons/v1_VE250_randls_6_rotated.json,897633,982986,42,Woman
81,640450,DepthScenes,duration_manipulation_targetAtFixation,jsons/v1_VE250_randls_6_rotated.json,http://54.235.29.9/FacialAge/BNav_EC2/DepthDuration/v2_depth_duration_MTurk/v2_DepthDuration_HTML.html#122,122,960,505,1440,900,8-20-2022,11-31-7,82,depth_duration_stimuli/002509_2014-06-24_13-19-22_094959634447_rgbf000077-resize_0/002509_2014-06-24_13-19-22_094959634447_rgbf000077-resize_0-target.png,250,1.3065,80,2506,250,meters,jsons/v1_VE250_randls_6_rotated.json,897633,982986,42,Woman
82,640450,DepthScenes,duration_manipulation_targetAtFixation,jsons/v1_VE250_randls_6_rotated.json,http://54.235.29.9/FacialAge/BNav_EC2/DepthDuration/v2_depth_duration_MTurk/v2_DepthDuration_HTML.html#122,122,960,505,1440,900,8-20-2022,11-31-7,83,depth_duration_stimuli/002657_2014-06-13_15-29-54_094959634447_rgbf000150-resize_1/002657_2014-06-13_15-29-54_094959634447_rgbf000150-resize_1-target.png,250,4.919,80,2402,249,meters,jsons/v1_VE250_randls_6_rotated.json,897633,982986,42,Woman
83,640450,DepthScenes,duration_manipulation_targetAtFixation,jsons/v1_VE250_randls_6_rotated.json,http://54.235.29.9/FacialAge/BNav_EC2/DepthDuration/v2_depth_duration_MTurk/v2_DepthDuration_HTML.html#122,122,960,505,1440,900,8-20-2022,11-31-7,84,depth_duration_stimuli/002375_2014-06-28_20-13-44_260595134347_rgbf000032-resize_1/002375_2014-06-28_20-13-44_260595134347_rgbf000032-resize_1-target.png,250,4.0175,70,2449,249,meters,jsons/v1_VE250_randls_6_rotated.json,897633,982986,42,Woman
84,640450,DepthScenes,duration_manipulation_targetAtFixation,jsons/v1_VE250_randls_6_rotated.json,http://54.235.29.9/FacialAge/BNav_EC2/DepthDuration/v2_depth_duration_MTurk/v2_DepthDuration_HTML.html#122,122,960,505,1440,900,8-20-2022,11-31-7,85,depth_duration_stimuli/001584_2014-06-20_11-07-43_260595134347_rgbf000002-resize_1/001584_2014-06-20_11-07-43_260595134347_rgbf000002-resize_1-target.png,250,3.53,70,2709,250,meters,jsons/v1_VE250_randls_6_rotated.json,897633,982986,42,Woman
85,640450,DepthScenes,duration_manipulation_targetAtFixation,jsons/v1_VE250_randls_6_rotated.json,http://54.235.29.9/FacialAge/BNav_EC2/DepthDuration/v2_depth_duration_MTurk/v2_DepthDuration_HTML.html#122,122,960,505,1440,900,8-20-2022,11-31-7,86,depth_duration_stimuli/003621_2014-05-23_18-06-08_094959634447_rgbf000101-resize_1/003621_2014-05-23_18-06-08_094959634447_rgbf000101-resize_1-target.png,250,3.9835,80,2514,249,meters,jsons/v1_VE250_randls_6_rotated.json,897633,982986,42,Woman
86,640450,DepthScenes,duration_manipulation_targetAtFixation,jsons/v1_VE250_randls_6_rotated.json,http://54.235.29.9/FacialAge/BNav_EC2/DepthDuration/v2_depth_duration_MTurk/v2_DepthDuration_HTML.html#122,122,960,505,1440,900,8-20-2022,11-31-7,87,depth_duration_stimuli/003081_2014-06-15_15-19-16_094959634447_rgbf000150-resize_1/003081_2014-06-15_15-19-16_094959634447_rgbf000150-resize_1-target.png,250,3.9125,90,2698,250,meters,jsons/v1_VE250_randls_6_rotated.json,897633,982986,42,Woman
87,640450,DepthScenes,duration_manipulation_targetAtFixation,jsons/v1_VE250_randls_6_rotated.json,http://54.235.29.9/FacialAge/BNav_EC2/DepthDuration/v2_depth_duration_MTurk/v2_DepthDuration_HTML.html#122,122,960,505,1440,900,8-20-2022,11-31-7,88,depth_duration_stimuli/001417_2014-06-19_16-25-36_260595134347_rgbf000115-resize_5/001417_2014-06-19_16-25-36_260595134347_rgbf000115-resize_5-target.png,250,4.6255,60,2410,250,meters,jsons/v1_VE250_randls_6_rotated.json,897633,982986,42,Woman
88,640450,DepthScenes,duration_manipulation_targetAtFixation,jsons/v1_VE250_randls_6_rotated.json,http://54.235.29.9/FacialAge/BNav_EC2/DepthDuration/v2_depth_duration_MTurk/v2_DepthDuration_HTML.html#122,122,960,505,1440,900,8-20-2022,11-31-7,89,depth_duration_stimuli/003079_2014-06-15_15-18-20_094959634447_rgbf000152-resize_8/003079_2014-06-15_15-18-20_094959634447_rgbf000152-resize_8-target.png,250,2.8775,50,2370,250,meters,jsons/v1_VE250_randls_6_rotated.json,897633,982986,42,Woman
89,640450,DepthScenes,duration_manipulation_targetAtFixation,jsons/v1_VE250_randls_6_rotated.json,http://54.235.29.9/FacialAge/BNav_EC2/DepthDuration/v2_depth_duration_MTurk/v2_DepthDuration_HTML.html#122,122,960,505,1440,900,8-20-2022,11-31-7,90,depth_duration_stimuli/000506_2014-06-08_23-21-00_260595134347_rgbf000070-resize_7/000506_2014-06-08_23-21-00_260595134347_rgbf000070-resize_7-target.png,250,4.0585,50,2723,250,meters,jsons/v1_VE250_randls_6_rotated.json,897633,982986,42,Woman
90,640450,DepthScenes,duration_manipulation_targetAtFixation,jsons/v1_VE250_randls_6_rotated.json,http://54.235.29.9/FacialAge/BNav_EC2/DepthDuration/v2_depth_duration_MTurk/v2_DepthDuration_HTML.html#122,122,960,505,1440,900,8-20-2022,11-31-7,91,depth_duration_stimuli/000677_2014-06-08_23-10-32_260595134347_rgbf000158-resize_6/000677_2014-06-08_23-10-32_260595134347_rgbf000158-resize_6-target.png,250,3.556,50,2514,249,meters,jsons/v1_VE250_randls_6_rotated.json,897633,982986,42,Woman
91,640450,DepthScenes,duration_manipulation_targetAtFixation,jsons/v1_VE250_randls_6_rotated.json,http://54.235.29.9/FacialAge/BNav_EC2/DepthDuration/v2_depth_duration_MTurk/v2_DepthDuration_HTML.html#122,122,960,505,1440,900,8-20-2022,11-31-7,92,depth_duration_stimuli/001029_2014-06-08_13-17-57_260595134347_rgbf000065-resize_1/001029_2014-06-08_13-17-57_260595134347_rgbf000065-resize_1-target.png,250,3.0835,80,2403,249,meters,jsons/v1_VE250_randls_6_rotated.json,897633,982986,42,Woman
92,640450,DepthScenes,duration_manipulation_targetAtFixation,jsons/v1_VE250_randls_6_rotated.json,http://54.235.29.9/FacialAge/BNav_EC2/DepthDuration/v2_depth_duration_MTurk/v2_DepthDuration_HTML.html#122,122,960,505,1440,900,8-20-2022,11-31-7,93,depth_duration_stimuli/001214_2014-06-17_16-13-55_260595134347_rgbf000111-resize_0/001214_2014-06-17_16-13-55_260595134347_rgbf000111-resize_0-target.png,250,2.6505,80,2291,250,meters,jsons/v1_VE250_randls_6_rotated.json,897633,982986,42,Woman
93,640450,DepthScenes,duration_manipulation_targetAtFixation,jsons/v1_VE250_randls_6_rotated.json,http://54.235.29.9/FacialAge/BNav_EC2/DepthDuration/v2_depth_duration_MTurk/v2_DepthDuration_HTML.html#122,122,960,505,1440,900,8-20-2022,11-31-7,94,depth_duration_stimuli/000810_2014-06-08_17-20-01_260595134347_rgbf000105-resize_0/000810_2014-06-08_17-20-01_260595134347_rgbf000105-resize_0-target.png,250,1.4865,80,3066,251,meters,jsons/v1_VE250_randls_6_rotated.json,897633,982986,42,Woman
94,640450,DepthScenes,duration_manipulation_targetAtFixation,jsons/v1_VE250_randls_6_rotated.json,http://54.235.29.9/FacialAge/BNav_EC2/DepthDuration/v2_depth_duration_MTurk/v2_DepthDuration_HTML.html#122,122,960,505,1440,900,8-20-2022,11-31-7,95,depth_duration_stimuli/003048_2014-06-15_13-49-43_094959634447_rgbf000150-resize_1/003048_2014-06-15_13-49-43_094959634447_rgbf000150-resize_1-target.png,250,4.0035,80,2355,249,meters,jsons/v1_VE250_randls_6_rotated.json,897633,982986,42,Woman
95,640450,DepthScenes,duration_manipulation_targetAtFixation,jsons/v1_VE250_randls_6_rotated.json,http://54.235.29.9/FacialAge/BNav_EC2/DepthDuration/v2_depth_duration_MTurk/v2_DepthDuration_HTML.html#122,122,960,505,1440,900,8-20-2022,11-31-7,96,depth_duration_stimuli/002043_2014-06-24_20-29-38_260595134347_rgbf000039-resize_4/002043_2014-06-24_20-29-38_260595134347_rgbf000039-resize_4-target.png,250,2.8435,80,2443,249,meters,jsons/v1_VE250_randls_6_rotated.json,897633,982986,42,Woman
96,640450,DepthScenes,duration_manipulation_targetAtFixation,jsons/v1_VE250_randls_6_rotated.json,http://54.235.29.9/FacialAge/BNav_EC2/DepthDuration/v2_depth_duration_MTurk/v2_DepthDuration_HTML.html#122,122,960,505,1440,900,8-20-2022,11-31-7,97,depth_duration_stimuli/002678_2014-06-13_16-15-32_094959634447_rgbf000151-resize_6/002678_2014-06-13_16-15-32_094959634447_rgbf000151-resize_6-target.png,250,2.1830000000000003,80,2507,251,meters,jsons/v1_VE250_randls_6_rotated.json,897633,982986,42,Woman
97,640450,DepthScenes,duration_manipulation_targetAtFixation,jsons/v1_VE250_randls_6_rotated.json,http://54.235.29.9/FacialAge/BNav_EC2/DepthDuration/v2_depth_duration_MTurk/v2_DepthDuration_HTML.html#122,122,960,505,1440,900,8-20-2022,11-31-7,98,depth_duration_stimuli/000368_2014-06-09_15-53-01_260595134347_rgbf000155-resize_2/000368_2014-06-09_15-53-01_260595134347_rgbf000155-resize_2-target.png,250,2.4859999999999998,80,2546,250,meters,jsons/v1_VE250_randls_6_rotated.json,897633,982986,42,Woman
98,640450,DepthScenes,duration_manipulation_targetAtFixation,jsons/v1_VE250_randls_6_rotated.json,http://54.235.29.9/FacialAge/BNav_EC2/DepthDuration/v2_depth_duration_MTurk/v2_DepthDuration_HTML.html#122,122,960,505,1440,900,8-20-2022,11-31-7,99,depth_duration_stimuli/001222_2014-06-17_16-24-06_260595134347_rgbf000073-resize_0/001222_2014-06-17_16-24-06_260595134347_rgbf000073-resize-original.jpg,250,1.4385,90,2427,250,meters,jsons/v1_VE250_randls_6_rotated.json,897633,982986,42,Woman
99,640450,DepthScenes,duration_manipulation_targetAtFixation,jsons/v1_VE250_randls_6_rotated.json,http://54.235.29.9/FacialAge/BNav_EC2/DepthDuration/v2_depth_duration_MTurk/v2_DepthDuration_HTML.html#122,122,960,505,1440,900,8-20-2022,11-31-7,100,depth_duration_stimuli/003129_2014-05-12_10-48-10_094959634447_rgbf000100-resize_0/003129_2014-05-12_10-48-10_094959634447_rgbf000100-resize_0-target.png,250,4.9305,80,2394,250,meters,jsons/v1_VE250_randls_6_rotated.json,897633,982986,42,Woman
100,640450,DepthScenes,duration_manipulation_targetAtFixation,jsons/v1_VE250_randls_6_rotated.json,http://54.235.29.9/FacialAge/BNav_EC2/DepthDuration/v2_depth_duration_MTurk/v2_DepthDuration_HTML.html#122,122,960,505,1440,900,8-20-2022,11-31-7,101,depth_duration_stimuli/000414_2014-06-04_19-49-13_260595134347_rgbf000044-resize_0/000414_2014-06-04_19-49-13_260595134347_rgbf000044-resize_0-target.png,250,4.329,90,2682,251,meters,jsons/v1_VE250_randls_6_rotated.json,897633,982986,42,Woman
101,640450,DepthScenes,duration_manipulation_targetAtFixation,jsons/v1_VE250_randls_6_rotated.json,http://54.235.29.9/FacialAge/BNav_EC2/DepthDuration/v2_depth_duration_MTurk/v2_DepthDuration_HTML.html#122,122,960,505,1440,900,8-20-2022,11-31-7,102,depth_duration_stimuli/000665_2014-06-09_20-42-35_260595134347_rgbf000110-resize_1/000665_2014-06-09_20-42-35_260595134347_rgbf000110-resize_1-target.png,250,3.057,80,2442,249,meters,jsons/v1_VE250_randls_6_rotated.json,897633,982986,42,Woman
102,640450,DepthScenes,duration_manipulation_targetAtFixation,jsons/v1_VE250_randls_6_rotated.json,http://54.235.29.9/FacialAge/BNav_EC2/DepthDuration/v2_depth_duration_MTurk/v2_DepthDuration_HTML.html#122,122,960,505,1440,900,8-20-2022,11-31-7,103,depth_duration_stimuli/001150_2014-06-17_15-27-34_260595134347_rgbf000108-resize_2/001150_2014-06-17_15-27-34_260595134347_rgbf000108-resize_2-target.png,250,4.0325,80,3843,250,meters,jsons/v1_VE250_randls_6_rotated.json,897633,982986,42,Woman
103,640450,DepthScenes,duration_manipulation_targetAtFixation,jsons/v1_VE250_randls_6_rotated.json,http://54.235.29.9/FacialAge/BNav_EC2/DepthDuration/v2_depth_duration_MTurk/v2_DepthDuration_HTML.html#122,122,960,505,1440,900,8-20-2022,11-31-7,104,depth_duration_stimuli/000943_2014-06-09_19-31-07_260595134347_rgbf000128-resize_1/000943_2014-06-09_19-31-07_260595134347_rgbf000128-resize_1-target.png,250,1.9765,60,2131,249,meters,jsons/v1_VE250_randls_6_rotated.json,897633,982986,42,Woman
104,640450,DepthScenes,duration_manipulation_targetAtFixation,jsons/v1_VE250_randls_6_rotated.json,http://54.235.29.9/FacialAge/BNav_EC2/DepthDuration/v2_depth_duration_MTurk/v2_DepthDuration_HTML.html#122,122,960,505,1440,900,8-20-2022,11-31-7,105,depth_duration_stimuli/003070_2014-06-15_14-58-27_094959634447_rgbf000150-resize_3/003070_2014-06-15_14-58-27_094959634447_rgbf000150-resize_3-target.png,250,2.9415,50,2053,250,meters,jsons/v1_VE250_randls_6_rotated.json,897633,982986,42,Woman
105,640450,DepthScenes,duration_manipulation_targetAtFixation,jsons/v1_VE250_randls_6_rotated.json,http://54.235.29.9/FacialAge/BNav_EC2/DepthDuration/v2_depth_duration_MTurk/v2_DepthDuration_HTML.html#122,122,960,505,1440,900,8-20-2022,11-31-7,106,depth_duration_stimuli/002103_2014-06-25_20-00-40_260595134347_rgbf000049-resize_0/002103_2014-06-25_20-00-40_260595134347_rgbf000049-resize_0-target.png,250,4.105,40,1865,250,meters,jsons/v1_VE250_randls_6_rotated.json,897633,982986,42,Woman
106,640450,DepthScenes,duration_manipulation_targetAtFixation,jsons/v1_VE250_randls_6_rotated.json,http://54.235.29.9/FacialAge/BNav_EC2/DepthDuration/v2_depth_duration_MTurk/v2_DepthDuration_HTML.html#122,122,960,505,1440,900,8-20-2022,11-31-7,107,depth_duration_stimuli/002039_2014-06-24_20-22-38_260595134347_rgbf000084-resize_1/002039_2014-06-24_20-22-38_260595134347_rgbf000084-resize_1-target.png,250,4.408,60,2322,250,meters,jsons/v1_VE250_randls_6_rotated.json,897633,982986,42,Woman
107,640450,DepthScenes,duration_manipulation_targetAtFixation,jsons/v1_VE250_randls_6_rotated.json,http://54.235.29.9/FacialAge/BNav_EC2/DepthDuration/v2_depth_duration_MTurk/v2_DepthDuration_HTML.html#122,122,960,505,1440,900,8-20-2022,11-31-7,108,depth_duration_stimuli/003495_2014-05-21_16-01-51_094959634447_rgbf000100-resize_3/003495_2014-05-21_16-01-51_094959634447_rgbf000100-resize_3-target.png,250,1.6255,90,2338,250,meters,jsons/v1_VE250_randls_6_rotated.json,897633,982986,42,Woman
108,640450,DepthScenes,duration_manipulation_targetAtFixation,jsons/v1_VE250_randls_6_rotated.json,http://54.235.29.9/FacialAge/BNav_EC2/DepthDuration/v2_depth_duration_MTurk/v2_DepthDuration_HTML.html#122,122,960,505,1440,900,8-20-2022,11-31-7,109,depth_duration_stimuli/001244_2014-06-17_16-47-45_260595134347_rgbf000030-resize_4/001244_2014-06-17_16-47-45_260595134347_rgbf000030-resize_4-target.png,250,2.0425,60,2301,251,meters,jsons/v1_VE250_randls_6_rotated.json,897633,982986,42,Woman
109,640450,DepthScenes,duration_manipulation_targetAtFixation,jsons/v1_VE250_randls_6_rotated.json,http://54.235.29.9/FacialAge/BNav_EC2/DepthDuration/v2_depth_duration_MTurk/v2_DepthDuration_HTML.html#122,122,960,505,1440,900,8-20-2022,11-31-7,110,depth_duration_stimuli/000137_2014-05-20_17-04-49_260595134347_rgbf000120-resize_1/000137_2014-05-20_17-04-49_260595134347_rgbf000120-resize_1-target.png,250,3.786,60,2396,251,meters,jsons/v1_VE250_randls_6_rotated.json,897633,982986,42,Woman
110,640450,DepthScenes,duration_manipulation_targetAtFixation,jsons/v1_VE250_randls_6_rotated.json,http://54.235.29.9/FacialAge/BNav_EC2/DepthDuration/v2_depth_duration_MTurk/v2_DepthDuration_HTML.html#122,122,960,505,1440,900,8-20-2022,11-31-7,111,depth_duration_stimuli/000736_2014-06-08_18-24-15_260595134347_rgbf000206-resize_3/000736_2014-06-08_18-24-15_260595134347_rgbf000206-resize_3-target.png,250,3.515,30,2322,251,meters,jsons/v1_VE250_randls_6_rotated.json,897633,982986,42,Woman
111,640450,DepthScenes,duration_manipulation_targetAtFixation,jsons/v1_VE250_randls_6_rotated.json,http://54.235.29.9/FacialAge/BNav_EC2/DepthDuration/v2_depth_duration_MTurk/v2_DepthDuration_HTML.html#122,122,960,505,1440,900,8-20-2022,11-31-7,112,depth_duration_stimuli/000734_2014-06-08_17-39-11_260595134347_rgbf000128-resize_2/000734_2014-06-08_17-39-11_260595134347_rgbf000128-resize_2-target.png,250,4.098,30,2410,250,meters,jsons/v1_VE250_randls_6_rotated.json,897633,982986,42,Woman
112,640450,DepthScenes,duration_manipulation_targetAtFixation,jsons/v1_VE250_randls_6_rotated.json,http://54.235.29.9/FacialAge/BNav_EC2/DepthDuration/v2_depth_duration_MTurk/v2_DepthDuration_HTML.html#122,122,960,505,1440,900,8-20-2022,11-31-7,113,depth_duration_stimuli/000739_2014-06-08_18-45-58_260595134347_rgbf000068-resize_1/000739_2014-06-08_18-45-58_260595134347_rgbf000068-resize_1-target.png,250,3.534,30,2482,250,meters,jsons/v1_VE250_randls_6_rotated.json,897633,982986,42,Woman
113,640450,DepthScenes,duration_manipulation_targetAtFixation,jsons/v1_VE250_randls_6_rotated.json,http://54.235.29.9/FacialAge/BNav_EC2/DepthDuration/v2_depth_duration_MTurk/v2_DepthDuration_HTML.html#122,122,960,505,1440,900,8-20-2022,11-31-7,114,depth_duration_stimuli/001235_2014-06-17_16-37-36_260595134347_rgbf000084-resize_4/001235_2014-06-17_16-37-36_260595134347_rgbf000084-resize_4-target.png,250,3.6605,60,2450,250,meters,jsons/v1_VE250_randls_6_rotated.json,897633,982986,42,Woman
114,640450,DepthScenes,duration_manipulation_targetAtFixation,jsons/v1_VE250_randls_6_rotated.json,http://54.235.29.9/FacialAge/BNav_EC2/DepthDuration/v2_depth_duration_MTurk/v2_DepthDuration_HTML.html#122,122,960,505,1440,900,8-20-2022,11-31-7,115,depth_duration_stimuli/000788_2014-06-08_22-34-36_260595134347_rgbf000131-resize_1/000788_2014-06-08_22-34-36_260595134347_rgbf000131-resize_1-target.png,250,3.359,50,2297,250,meters,jsons/v1_VE250_randls_6_rotated.json,897633,982986,42,Woman
115,640450,DepthScenes,duration_manipulation_targetAtFixation,jsons/v1_VE250_randls_6_rotated.json,http://54.235.29.9/FacialAge/BNav_EC2/DepthDuration/v2_depth_duration_MTurk/v2_DepthDuration_HTML.html#122,122,960,505,1440,900,8-20-2022,11-31-7,116,depth_duration_stimuli/001392_2014-06-19_16-07-59_260595134347_rgbf000046-resize_1/001392_2014-06-19_16-07-59_260595134347_rgbf000046-resize_1-target.png,250,4.135,60,2547,250,meters,jsons/v1_VE250_randls_6_rotated.json,897633,982986,42,Woman
116,640450,DepthScenes,duration_manipulation_targetAtFixation,jsons/v1_VE250_randls_6_rotated.json,http://54.235.29.9/FacialAge/BNav_EC2/DepthDuration/v2_depth_duration_MTurk/v2_DepthDuration_HTML.html#122,122,960,505,1440,900,8-20-2022,11-31-7,117,depth_duration_stimuli/001570_2014-06-20_17-21-09_260595134347_rgbf000135-resize_4/001570_2014-06-20_17-21-09_260595134347_rgbf000135-resize_4-target.png,250,4.467,60,2435,249,meters,jsons/v1_VE250_randls_6_rotated.json,897633,982986,42,Woman
117,640450,DepthScenes,duration_manipulation_targetAtFixation,jsons/v1_VE250_randls_6_rotated.json,http://54.235.29.9/FacialAge/BNav_EC2/DepthDuration/v2_depth_duration_MTurk/v2_DepthDuration_HTML.html#122,122,960,505,1440,900,8-20-2022,11-31-7,118,depth_duration_stimuli/002323_2014-06-28_20-01-54_260595134347_rgbf000051-resize_4/002323_2014-06-28_20-01-54_260595134347_rgbf000051-resize_4-target.png,250,3.7310000000000003,60,2322,250,meters,jsons/v1_VE250_randls_6_rotated.json,897633,982986,42,Woman
118,640450,DepthScenes,duration_manipulation_targetAtFixation,jsons/v1_VE250_randls_6_rotated.json,http://54.235.29.9/FacialAge/BNav_EC2/DepthDuration/v2_depth_duration_MTurk/v2_DepthDuration_HTML.html#122,122,960,505,1440,900,8-20-2022,11-31-7,119,depth_duration_stimuli/000917_2014-06-09_22-45-29_260595134347_rgbf000149-resize_3/000917_2014-06-09_22-45-29_260595134347_rgbf000149-resize_3-target.png,250,4.1865,50,2403,250,meters,jsons/v1_VE250_randls_6_rotated.json,897633,982986,42,Woman
119,640450,DepthScenes,duration_manipulation_targetAtFixation,jsons/v1_VE250_randls_6_rotated.json,http://54.235.29.9/FacialAge/BNav_EC2/DepthDuration/v2_depth_duration_MTurk/v2_DepthDuration_HTML.html#122,122,960,505,1440,900,8-20-2022,11-31-7,120,depth_duration_stimuli/000787_2014-06-08_22-33-53_260595134347_rgbf000175-resize_1/000787_2014-06-08_22-33-53_260595134347_rgbf000175-resize-original.jpg,250,4.784,60,13059,249,meters,jsons/v1_VE250_randls_6_rotated.json,897633,982986,42,Woman
120,640450,DepthScenes,duration_manipulation_targetAtFixation,jsons/v1_VE250_randls_6_rotated.json,http://54.235.29.9/FacialAge/BNav_EC2/DepthDuration/v2_depth_duration_MTurk/v2_DepthDuration_HTML.html#122,122,960,505,1440,900,8-20-2022,11-31-7,121,depth_duration_stimuli/001828_2014-06-26_21-40-03_260595134347_rgbf000024-resize_0/001828_2014-06-26_21-40-03_260595134347_rgbf000024-resize_0-target.png,250,4.8260000000000005,60,3179,251,meters,jsons/v1_VE250_randls_6_rotated.json,897633,982986,42,Woman
121,640450,DepthScenes,duration_manipulation_targetAtFixation,jsons/v1_VE250_randls_6_rotated.json,http://54.235.29.9/FacialAge/BNav_EC2/DepthDuration/v2_depth_duration_MTurk/v2_DepthDuration_HTML.html#122,122,960,505,1440,900,8-20-2022,11-31-7,122,depth_duration_stimuli/000009_2014-05-26_14-32-05_260595134347_rgbf000034-resize_3/000009_2014-05-26_14-32-05_260595134347_rgbf000034-resize_3-target.png,250,3.8715,60,3331,250,meters,jsons/v1_VE250_randls_6_rotated.json,897633,982986,42,Woman
122,640450,DepthScenes,duration_manipulation_targetAtFixation,jsons/v1_VE250_randls_6_rotated.json,http://54.235.29.9/FacialAge/BNav_EC2/DepthDuration/v2_depth_duration_MTurk/v2_DepthDuration_HTML.html#122,122,960,505,1440,900,8-20-2022,11-31-7,123,depth_duration_stimuli/002209_2014-06-28_18-36-10_260595134347_rgbf000051-resize_1/002209_2014-06-28_18-36-10_260595134347_rgbf000051-resize_1-target.png,250,2.057,80,160155,250,meters,jsons/v1_VE250_randls_6_rotated.json,897633,982986,42,Woman
123,640450,DepthScenes,duration_manipulation_targetAtFixation,jsons/v1_VE250_randls_6_rotated.json,http://54.235.29.9/FacialAge/BNav_EC2/DepthDuration/v2_depth_duration_MTurk/v2_DepthDuration_HTML.html#122,122,960,505,1440,900,8-20-2022,11-31-7,124,depth_duration_stimuli/002763_2014-06-22_19-13-10_094959634447_rgbf000075-resize_4/002763_2014-06-22_19-13-10_094959634447_rgbf000075-resize_4-target.png,250,1.68375,60,3515,251,meters,jsons/v1_VE250_randls_6_rotated.json,897633,982986,42,Woman
124,640450,DepthScenes,duration_manipulation_targetAtFixation,jsons/v1_VE250_randls_6_rotated.json,http://54.235.29.9/FacialAge/BNav_EC2/DepthDuration/v2_depth_duration_MTurk/v2_DepthDuration_HTML.html#122,122,960,505,1440,900,8-20-2022,11-31-7,125,depth_duration_stimuli/000780_2014-06-08_22-28-29_260595134347_rgbf000126-resize_1/000780_2014-06-08_22-28-29_260595134347_rgbf000126-resize_1-target.png,250,3.3825,60,2442,250,meters,jsons/v1_VE250_randls_6_rotated.json,897633,982986,42,Woman
125,640450,DepthScenes,duration_manipulation_targetAtFixation,jsons/v1_VE250_randls_6_rotated.json,http://54.235.29.9/FacialAge/BNav_EC2/DepthDuration/v2_depth_duration_MTurk/v2_DepthDuration_HTML.html#122,122,960,505,1440,900,8-20-2022,11-31-7,126,depth_duration_stimuli/002445_2014-06-28_20-32-16_260595134347_rgbf000029-resize_4/002445_2014-06-28_20-32-16_260595134347_rgbf000029-resize_4-target.png,250,2.5315,80,3386,249,meters,jsons/v1_VE250_randls_6_rotated.json,897633,982986,42,Woman
126,640450,DepthScenes,duration_manipulation_targetAtFixation,jsons/v1_VE250_randls_6_rotated.json,http://54.235.29.9/FacialAge/BNav_EC2/DepthDuration/v2_depth_duration_MTurk/v2_DepthDuration_HTML.html#122,122,960,505,1440,900,8-20-2022,11-31-7,127,depth_duration_stimuli/003010_2014-06-15_12-54-35_094959634447_rgbf000112-resize_0/003010_2014-06-15_12-54-35_094959634447_rgbf000112-resize_0-target.png,250,3.1185,60,2954,250,meters,jsons/v1_VE250_randls_6_rotated.json,897633,982986,42,Woman
127,640450,DepthScenes,duration_manipulation_targetAtFixation,jsons/v1_VE250_randls_6_rotated.json,http://54.235.29.9/FacialAge/BNav_EC2/DepthDuration/v2_depth_duration_MTurk/v2_DepthDuration_HTML.html#122,122,960,505,1440,900,8-20-2022,11-31-7,128,depth_duration_stimuli/001810_2014-06-26_20-51-35_260595134347_rgbf000040-resize_3/001810_2014-06-26_20-51-35_260595134347_rgbf000040-resize_3-target.png,250,2.2525,80,32443,251,meters,jsons/v1_VE250_randls_6_rotated.json,897633,982986,42,Woman
128,640450,DepthScenes,duration_manipulation_targetAtFixation,jsons/v1_VE250_randls_6_rotated.json,http://54.235.29.9/FacialAge/BNav_EC2/DepthDuration/v2_depth_duration_MTurk/v2_DepthDuration_HTML.html#122,122,960,505,1440,900,8-20-2022,11-31-7,129,depth_duration_stimuli/000927_2014-06-09_16-32-30_260595134347_rgbf000123-resize_3/000927_2014-06-09_16-32-30_260595134347_rgbf000123-resize_3-target.png,250,2.6785,60,2769,249,meters,jsons/v1_VE250_randls_6_rotated.json,897633,982986,42,Woman
129,640450,DepthScenes,duration_manipulation_targetAtFixation,jsons/v1_VE250_randls_6_rotated.json,http://54.235.29.9/FacialAge/BNav_EC2/DepthDuration/v2_depth_duration_MTurk/v2_DepthDuration_HTML.html#122,122,960,505,1440,900,8-20-2022,11-31-7,130,depth_duration_stimuli/001110_2014-06-15_17-25-28_260595134347_rgbf000150-resize_1/001110_2014-06-15_17-25-28_260595134347_rgbf000150-resize_1-target.png,250,1.7115,60,9587,250,meters,jsons/v1_VE250_randls_6_rotated.json,897633,982986,42,Woman
130,640450,DepthScenes,duration_manipulation_targetAtFixation,jsons/v1_VE250_randls_6_rotated.json,http://54.235.29.9/FacialAge/BNav_EC2/DepthDuration/v2_depth_duration_MTurk/v2_DepthDuration_HTML.html#122,122,960,505,1440,900,8-20-2022,11-31-7,131,depth_duration_stimuli/002637_2014-06-24_14-51-13_094959634447_rgbf000066-resize_4/002637_2014-06-24_14-51-13_094959634447_rgbf000066-resize_4-target.png,250,1.9955,80,2780,250,meters,jsons/v1_VE250_randls_6_rotated.json,897633,982986,42,Woman
131,640450,DepthScenes,duration_manipulation_targetAtFixation,jsons/v1_VE250_randls_6_rotated.json,http://54.235.29.9/FacialAge/BNav_EC2/DepthDuration/v2_depth_duration_MTurk/v2_DepthDuration_HTML.html#122,122,960,505,1440,900,8-20-2022,11-31-7,132,depth_duration_stimuli/003534_2014-05-22_15-06-10_094959634447_rgbf000102-resize_4/003534_2014-05-22_15-06-10_094959634447_rgbf000102-resize_4-target.png,250,1.426,80,19747,250,meters,jsons/v1_VE250_randls_6_rotated.json,897633,982986,42,Woman
132,640450,DepthScenes,duration_manipulation_targetAtFixation,jsons/v1_VE250_randls_6_rotated.json,http://54.235.29.9/FacialAge/BNav_EC2/DepthDuration/v2_depth_duration_MTurk/v2_DepthDuration_HTML.html#122,122,960,505,1440,900,8-20-2022,11-31-7,133,depth_duration_stimuli/003490_2014-05-21_15-50-11_094959634447_rgbf000101-resize_3/003490_2014-05-21_15-50-11_094959634447_rgbf000101-resize_3-target.png,250,3.6445,80,7482,555,meters,jsons/v1_VE250_randls_6_rotated.json,897633,982986,42,Woman
133,640450,DepthScenes,duration_manipulation_targetAtFixation,jsons/v1_VE250_randls_6_rotated.json,http://54.235.29.9/FacialAge/BNav_EC2/DepthDuration/v2_depth_duration_MTurk/v2_DepthDuration_HTML.html#122,122,960,505,1440,900,8-20-2022,11-31-7,134,depth_duration_stimuli/001175_2014-06-17_15-45-55_260595134347_rgbf000129-resize_4/001175_2014-06-17_15-45-55_260595134347_rgbf000129-resize_4-target.png,250,4.255,80,4593,249,meters,jsons/v1_VE250_randls_6_rotated.json,897633,982986,42,Woman
134,640450,DepthScenes,duration_manipulation_targetAtFixation,jsons/v1_VE250_randls_6_rotated.json,http://54.235.29.9/FacialAge/BNav_EC2/DepthDuration/v2_depth_duration_MTurk/v2_DepthDuration_HTML.html#122,122,960,505,1440,900,8-20-2022,11-31-7,135,depth_duration_stimuli/000375_2014-06-08_11-17-29_260595134347_rgbf000133-resize_2/000375_2014-06-08_11-17-29_260595134347_rgbf000133-resize-original.jpg,250,4.718,80,43084,249,meters,jsons/v1_VE250_randls_6_rotated.json,897633,982986,42,Woman
135,640450,DepthScenes,duration_manipulation_targetAtFixation,jsons/v1_VE250_randls_6_rotated.json,http://54.235.29.9/FacialAge/BNav_EC2/DepthDuration/v2_depth_duration_MTurk/v2_DepthDuration_HTML.html#122,122,960,505,1440,900,8-20-2022,11-31-7,136,depth_duration_stimuli/000103_2014-05-14_22-01-17_260595134347_rgbf000152-resize_5/000103_2014-05-14_22-01-17_260595134347_rgbf000152-resize_5-target.png,250,1.993,80,13450,251,meters,jsons/v1_VE250_randls_6_rotated.json,897633,982986,42,Woman
136,640450,DepthScenes,duration_manipulation_targetAtFixation,jsons/v1_VE250_randls_6_rotated.json,http://54.235.29.9/FacialAge/BNav_EC2/DepthDuration/v2_depth_duration_MTurk/v2_DepthDuration_HTML.html#122,122,960,505,1440,900,8-20-2022,11-31-7,137,depth_duration_stimuli/001555_2014-06-20_17-12-10_260595134347_rgbf000065-resize_4/001555_2014-06-20_17-12-10_260595134347_rgbf000065-resize_4-target.png,250,1.633,80,2435,250,meters,jsons/v1_VE250_randls_6_rotated.json,897633,982986,42,Woman
137,640450,DepthScenes,duration_manipulation_targetAtFixation,jsons/v1_VE250_randls_6_rotated.json,http://54.235.29.9/FacialAge/BNav_EC2/DepthDuration/v2_depth_duration_MTurk/v2_DepthDuration_HTML.html#122,122,960,505,1440,900,8-20-2022,11-31-7,138,depth_duration_stimuli/002136_2014-06-25_21-18-03_260595134347_rgbf000109-resize_3/002136_2014-06-25_21-18-03_260595134347_rgbf000109-resize_3-target.png,250,1.9569999999999999,90,2435,250,meters,jsons/v1_VE250_randls_6_rotated.json,897633,982986,42,Woman
138,640450,DepthScenes,duration_manipulation_targetAtFixation,jsons/v1_VE250_randls_6_rotated.json,http://54.235.29.9/FacialAge/BNav_EC2/DepthDuration/v2_depth_duration_MTurk/v2_DepthDuration_HTML.html#122,122,960,505,1440,900,8-20-2022,11-31-7,139,depth_duration_stimuli/002964_2014-06-08_17-46-11_094959634447_rgbf000091-resize_4/002964_2014-06-08_17-46-11_094959634447_rgbf000091-resize_4-target.png,250,1.6909999999999998,60,2428,250,meters,jsons/v1_VE250_randls_6_rotated.json,897633,982986,42,Woman
139,640450,DepthScenes,duration_manipulation_targetAtFixation,jsons/v1_VE250_randls_6_rotated.json,http://54.235.29.9/FacialAge/BNav_EC2/DepthDuration/v2_depth_duration_MTurk/v2_DepthDuration_HTML.html#122,122,960,505,1440,900,8-20-2022,11-31-7,140,depth_duration_stimuli/002875_2014-06-01_15-19-00_094959634447_rgbf000151-resize_1/002875_2014-06-01_15-19-00_094959634447_rgbf000151-resize_1-target.png,250,1.9675,50,2435,251,meters,jsons/v1_VE250_randls_6_rotated.json,897633,982986,42,Woman
140,640450,DepthScenes,duration_manipulation_targetAtFixation,jsons/v1_VE250_randls_6_rotated.json,http://54.235.29.9/FacialAge/BNav_EC2/DepthDuration/v2_depth_duration_MTurk/v2_DepthDuration_HTML.html#122,122,960,505,1440,900,8-20-2022,11-31-7,141,depth_duration_stimuli/001011_2014-06-08_23-18-54_260595134347_rgbf000044-resize_4/001011_2014-06-08_23-18-54_260595134347_rgbf000044-resize_4-target.png,250,2.4730000000000003,50,12698,249,meters,jsons/v1_VE250_randls_6_rotated.json,897633,982986,42,Woman
141,640450,DepthScenes,duration_manipulation_targetAtFixation,jsons/v1_VE250_randls_6_rotated.json,http://54.235.29.9/FacialAge/BNav_EC2/DepthDuration/v2_depth_duration_MTurk/v2_DepthDuration_HTML.html#122,122,960,505,1440,900,8-20-2022,11-31-7,142,depth_duration_stimuli/002568_2014-06-24_13-59-21_094959634447_rgbf000062-resize_4/002568_2014-06-24_13-59-21_094959634447_rgbf000062-resize_4-target.png,250,3.015,90,2746,250,meters,jsons/v1_VE250_randls_6_rotated.json,897633,982986,42,Woman
142,640450,DepthScenes,duration_manipulation_targetAtFixation,jsons/v1_VE250_randls_6_rotated.json,http://54.235.29.9/FacialAge/BNav_EC2/DepthDuration/v2_depth_duration_MTurk/v2_DepthDuration_HTML.html#122,122,960,505,1440,900,8-20-2022,11-31-7,143,depth_duration_stimuli/003492_2014-05-21_15-50-55_094959634447_rgbf000828-resize_1/003492_2014-05-21_15-50-55_094959634447_rgbf000828-resize_1-target.png,250,4.06875,90,2731,251,meters,jsons/v1_VE250_randls_6_rotated.json,897633,982986,42,Woman
143,640450,DepthScenes,duration_manipulation_targetAtFixation,jsons/v1_VE250_randls_6_rotated.json,http://54.235.29.9/FacialAge/BNav_EC2/DepthDuration/v2_depth_duration_MTurk/v2_DepthDuration_HTML.html#122,122,960,505,1440,900,8-20-2022,11-31-7,144,depth_duration_stimuli/000691_2014-06-08_13-08-50_260595134347_rgbf000132-resize_3/000691_2014-06-08_13-08-50_260595134347_rgbf000132-resize_3-target.png,250,4.1530000000000005,90,2353,250,meters,jsons/v1_VE250_randls_6_rotated.json,897633,982986,42,Woman
144,640450,DepthScenes,duration_manipulation_targetAtFixation,jsons/v1_VE250_randls_6_rotated.json,http://54.235.29.9/FacialAge/BNav_EC2/DepthDuration/v2_depth_duration_MTurk/v2_DepthDuration_HTML.html#122,122,960,505,1440,900,8-20-2022,11-31-7,145,depth_duration_stimuli/002213_2014-06-28_18-37-58_260595134347_rgbf000055-resize_1/002213_2014-06-28_18-37-58_260595134347_rgbf000055-resize_1-target.png,250,3.62,80,2619,249,meters,jsons/v1_VE250_randls_6_rotated.json,897633,982986,42,Woman
145,640450,DepthScenes,duration_manipulation_targetAtFixation,jsons/v1_VE250_randls_6_rotated.json,http://54.235.29.9/FacialAge/BNav_EC2/DepthDuration/v2_depth_duration_MTurk/v2_DepthDuration_HTML.html#122,122,960,505,1440,900,8-20-2022,11-31-7,146,depth_duration_stimuli/002995_2014-06-15_12-31-26_094959634447_rgbf000150-resize_1/002995_2014-06-15_12-31-26_094959634447_rgbf000150-resize_1-target.png,250,3.8360000000000003,80,6915,251,meters,jsons/v1_VE250_randls_6_rotated.json,897633,982986,42,Woman
146,640450,DepthScenes,duration_manipulation_targetAtFixation,jsons/v1_VE250_randls_6_rotated.json,http://54.235.29.9/FacialAge/BNav_EC2/DepthDuration/v2_depth_duration_MTurk/v2_DepthDuration_HTML.html#122,122,960,505,1440,900,8-20-2022,11-31-7,147,depth_duration_stimuli/002748_2014-06-22_19-07-22_094959634447_rgbf000078-resize_1/002748_2014-06-22_19-07-22_094959634447_rgbf000078-resize_1-target.png,250,4.6705,80,4666,249,meters,jsons/v1_VE250_randls_6_rotated.json,897633,982986,42,Woman
147,640450,DepthScenes,duration_manipulation_targetAtFixation,jsons/v1_VE250_randls_6_rotated.json,http://54.235.29.9/FacialAge/BNav_EC2/DepthDuration/v2_depth_duration_MTurk/v2_DepthDuration_HTML.html#122,122,960,505,1440,900,8-20-2022,11-31-7,148,depth_duration_stimuli/001052_2014-06-08_18-24-54_260595134347_rgbf000130-resize_1/001052_2014-06-08_18-24-54_260595134347_rgbf000130-resize_1-target.png,250,4.1045,80,54034,250,meters,jsons/v1_VE250_randls_6_rotated.json,897633,982986,42,Woman
148,640450,DepthScenes,duration_manipulation_targetAtFixation,jsons/v1_VE250_randls_6_rotated.json,http://54.235.29.9/FacialAge/BNav_EC2/DepthDuration/v2_depth_duration_MTurk/v2_DepthDuration_HTML.html#122,122,960,505,1440,900,8-20-2022,11-31-7,149,depth_duration_stimuli/002988_2014-06-15_12-24-20_094959634447_rgbf000150-resize_1/002988_2014-06-15_12-24-20_094959634447_rgbf000150-resize_1-target.png,250,4.7669999999999995,80,3202,249,meters,jsons/v1_VE250_randls_6_rotated.json,897633,982986,42,Woman
149,640450,DepthScenes,duration_manipulation_targetAtFixation,jsons/v1_VE250_randls_6_rotated.json,http://54.235.29.9/FacialAge/BNav_EC2/DepthDuration/v2_depth_duration_MTurk/v2_DepthDuration_HTML.html#122,122,960,505,1440,900,8-20-2022,11-31-7,150,depth_duration_stimuli/001100_2014-06-15_17-46-26_260595134347_rgbf000225-resize_2/001100_2014-06-15_17-46-26_260595134347_rgbf000225-resize_2-target.png,250,2.24,80,2266,250,meters,jsons/v1_VE250_randls_6_rotated.json,897633,982986,42,Woman
150,640450,DepthScenes,duration_manipulation_targetAtFixation,jsons/v1_VE250_randls_6_rotated.json,http://54.235.29.9/FacialAge/BNav_EC2/DepthDuration/v2_depth_duration_MTurk/v2_DepthDuration_HTML.html#122,122,960,505,1440,900,8-20-2022,11-31-7,151,depth_duration_stimuli/002784_2014-06-22_19-26-30_094959634447_rgbf000083-resize_3/002784_2014-06-22_19-26-30_094959634447_rgbf000083-resize_3-target.png,250,1.8046666666667,80,3940,249,meters,jsons/v1_VE250_randls_6_rotated.json,897633,982986,42,Woman
151,640450,DepthScenes,duration_manipulation_targetAtFixation,jsons/v1_VE250_randls_6_rotated.json,http://54.235.29.9/FacialAge/BNav_EC2/DepthDuration/v2_depth_duration_MTurk/v2_DepthDuration_HTML.html#122,122,960,505,1440,900,8-20-2022,11-31-7,152,depth_duration_stimuli/000569_2014-06-09_22-51-47_260595134347_rgbf000141-resize_3/000569_2014-06-09_22-51-47_260595134347_rgbf000141-resize-original.jpg,250,4.512,0,2027,250,meters,jsons/v1_VE250_randls_6_rotated.json,897633,982986,42,Woman
152,640450,DepthScenes,duration_manipulation_targetAtFixation,jsons/v1_VE250_randls_6_rotated.json,http://54.235.29.9/FacialAge/BNav_EC2/DepthDuration/v2_depth_duration_MTurk/v2_DepthDuration_HTML.html#122,122,960,505,1440,900,8-20-2022,11-31-7,153,depth_duration_stimuli/002758_2014-06-22_19-11-20_094959634447_rgbf000128-resize_1/002758_2014-06-22_19-11-20_094959634447_rgbf000128-resize_1-target.png,250,2.555,0,2027,249,meters,jsons/v1_VE250_randls_6_rotated.json,897633,982986,42,Woman
153,640450,DepthScenes,duration_manipulation_targetAtFixation,jsons/v1_VE250_randls_6_rotated.json,http://54.235.29.9/FacialAge/BNav_EC2/DepthDuration/v2_depth_duration_MTurk/v2_DepthDuration_HTML.html#122,122,960,505,1440,900,8-20-2022,11-31-7,154,depth_duration_stimuli/002630_2014-06-24_14-47-50_094959634447_rgbf000055-resize_1/002630_2014-06-24_14-47-50_094959634447_rgbf000055-resize_1-target.png,250,3.0095,80,4620,250,meters,jsons/v1_VE250_randls_6_rotated.json,897633,982986,42,Woman
154,640450,DepthScenes,duration_manipulation_targetAtFixation,jsons/v1_VE250_randls_6_rotated.json,http://54.235.29.9/FacialAge/BNav_EC2/DepthDuration/v2_depth_duration_MTurk/v2_DepthDuration_HTML.html#122,122,960,505,1440,900,8-20-2022,11-31-7,155,depth_duration_stimuli/001571_2014-06-20_17-21-32_260595134347_rgbf000089-resize_1/001571_2014-06-20_17-21-32_260595134347_rgbf000089-resize_1-target.png,250,1.86,50,22424,250,meters,jsons/v1_VE250_randls_6_rotated.json,897633,982986,42,Woman
155,640450,DepthScenes,duration_manipulation_targetAtFixation,jsons/v1_VE250_randls_6_rotated.json,http://54.235.29.9/FacialAge/BNav_EC2/DepthDuration/v2_depth_duration_MTurk/v2_DepthDuration_HTML.html#122,122,960,505,1440,900,8-20-2022,11-31-7,156,depth_duration_stimuli/002272_2014-06-28_18-53-56_260595134347_rgbf000067-resize_2/002272_2014-06-28_18-53-56_260595134347_rgbf000067-resize_2-target.png,250,1.138,80,13556,250,meters,jsons/v1_VE250_randls_6_rotated.json,897633,982986,42,Woman
156,640450,DepthScenes,duration_manipulation_targetAtFixation,jsons/v1_VE250_randls_6_rotated.json,http://54.235.29.9/FacialAge/BNav_EC2/DepthDuration/v2_depth_duration_MTurk/v2_DepthDuration_HTML.html#122,122,960,505,1440,900,8-20-2022,11-31-7,157,depth_duration_stimuli/001450_2014-06-19_17-02-03_260595134347_rgbf000203-resize_4/001450_2014-06-19_17-02-03_260595134347_rgbf000203-resize_4-target.png,250,4.0106666666667,80,2210,249,meters,jsons/v1_VE250_randls_6_rotated.json,897633,982986,42,Woman
157,640450,DepthScenes,duration_manipulation_targetAtFixation,jsons/v1_VE250_randls_6_rotated.json,http://54.235.29.9/FacialAge/BNav_EC2/DepthDuration/v2_depth_duration_MTurk/v2_DepthDuration_HTML.html#122,122,960,505,1440,900,8-20-2022,11-31-7,158,depth_duration_stimuli/001449_2014-06-19_17-01-27_260595134347_rgbf000116-resize_2/001449_2014-06-19_17-01-27_260595134347_rgbf000116-resize_2-target.png,250,3.452,80,2195,249,meters,jsons/v1_VE250_randls_6_rotated.json,897633,982986,42,Woman
158,640450,DepthScenes,duration_manipulation_targetAtFixation,jsons/v1_VE250_randls_6_rotated.json,http://54.235.29.9/FacialAge/BNav_EC2/DepthDuration/v2_depth_duration_MTurk/v2_DepthDuration_HTML.html#122,122,960,505,1440,900,8-20-2022,11-31-7,159,depth_duration_stimuli/002425_2014-06-28_20-27-29_260595134347_rgbf000031-resize_8/002425_2014-06-28_20-27-29_260595134347_rgbf000031-resize_8-target.png,250,3.8960000000000004,80,2354,249,meters,jsons/v1_VE250_randls_6_rotated.json,897633,982986,42,Woman
159,640450,DepthScenes,duration_manipulation_targetAtFixation,jsons/v1_VE250_randls_6_rotated.json,http://54.235.29.9/FacialAge/BNav_EC2/DepthDuration/v2_depth_duration_MTurk/v2_DepthDuration_HTML.html#122,122,960,505,1440,900,8-20-2022,11-31-7,160,depth_duration_stimuli/000642_2014-06-08_16-59-25_260595134347_rgbf000098-resize_2/000642_2014-06-08_16-59-25_260595134347_rgbf000098-resize_2-target.png,250,2.8815,80,2106,250,meters,jsons/v1_VE250_randls_6_rotated.json,897633,982986,42,Woman
160,640450,DepthScenes,duration_manipulation_targetAtFixation,jsons/v1_VE250_randls_6_rotated.json,http://54.235.29.9/FacialAge/BNav_EC2/DepthDuration/v2_depth_duration_MTurk/v2_DepthDuration_HTML.html#122,122,960,505,1440,900,8-20-2022,11-31-7,161,depth_duration_stimuli/003423_2014-05-21_10-23-26_094959634447_rgbf002665-resize_2/003423_2014-05-21_10-23-26_094959634447_rgbf002665-resize_2-target.png,250,3.2575,80,2188,250,meters,jsons/v1_VE250_randls_6_rotated.json,897633,982986,42,Woman
161,640450,DepthScenes,duration_manipulation_targetAtFixation,jsons/v1_VE250_randls_6_rotated.json,http://54.235.29.9/FacialAge/BNav_EC2/DepthDuration/v2_depth_duration_MTurk/v2_DepthDuration_HTML.html#122,122,960,505,1440,900,8-20-2022,11-31-7,162,depth_duration_stimuli/002905_2014-06-03_18-04-43_094959634447_rgbf000151-resize_2/002905_2014-06-03_18-04-43_094959634447_rgbf000151-resize_2-target.png,250,2.0295,60,2219,251,meters,jsons/v1_VE250_randls_6_rotated.json,897633,982986,42,Woman
162,640450,DepthScenes,duration_manipulation_targetAtFixation,jsons/v1_VE250_randls_6_rotated.json,http://54.235.29.9/FacialAge/BNav_EC2/DepthDuration/v2_depth_duration_MTurk/v2_DepthDuration_HTML.html#122,122,960,505,1440,900,8-20-2022,11-31-7,163,depth_duration_stimuli/000409_2014-06-04_19-23-33_260595134347_rgbf000067-resize_0/000409_2014-06-04_19-23-33_260595134347_rgbf000067-resize_0-target.png,250,3.7335,50,2339,251,meters,jsons/v1_VE250_randls_6_rotated.json,897633,982986,42,Woman
163,640450,DepthScenes,duration_manipulation_targetAtFixation,jsons/v1_VE250_randls_6_rotated.json,http://54.235.29.9/FacialAge/BNav_EC2/DepthDuration/v2_depth_duration_MTurk/v2_DepthDuration_HTML.html#122,122,960,505,1440,900,8-20-2022,11-31-7,164,depth_duration_stimuli/002663_2014-06-13_15-50-26_094959634447_rgbf000075-resize_1/002663_2014-06-13_15-50-26_094959634447_rgbf000075-resize_1-target.png,250,4.7495,60,2458,250,meters,jsons/v1_VE250_randls_6_rotated.json,897633,982986,42,Woman
