,subjID,experimentName,versionName,sequenceName,url,selected_row,windowWidth,windowHeight,screenWidth,screenHeight,startDate,startTime,trial,stimulus,duration,actual_depth,depth_estimate,trial_RT,log_sceneDuration,unitSelection,seq_filepath,experimentTime,totalTime,age,gender
0,644201,DepthScenes,duration_manipulation_targetAtFixation,jsons/VE125_randls_64.json,http://54.235.29.9/FacialAge/BNav_EC2/DepthDuration/v2_depth_duration_MTurk/v2_DepthDuration_HTML.html#122,122,1364,625,1364,768,8-30-2022,10-9-42,1,depth_duration_stimuli/002988_2014-06-15_12-24-20_094959634447_rgbf000150-resize_1/002988_2014-06-15_12-24-20_094959634447_rgbf000150-resize_1-target.png,125,4.7669999999999995,5,13820,124,feet,jsons/VE125_randls_64.json,2262271,2448011,32,Woman
1,644201,DepthScenes,duration_manipulation_targetAtFixation,jsons/VE125_randls_64.json,http://54.235.29.9/FacialAge/BNav_EC2/DepthDuration/v2_depth_duration_MTurk/v2_DepthDuration_HTML.html#122,122,1364,625,1364,768,8-30-2022,10-9-42,2,depth_duration_stimuli/001052_2014-06-08_18-24-54_260595134347_rgbf000130-resize_1/001052_2014-06-08_18-24-54_260595134347_rgbf000130-resize_1-target.png,125,4.1045,2,6284,123,feet,jsons/VE125_randls_64.json,2262271,2448011,32,Woman
2,644201,DepthScenes,duration_manipulation_targetAtFixation,jsons/VE125_randls_64.json,http://54.235.29.9/FacialAge/BNav_EC2/DepthDuration/v2_depth_duration_MTurk/v2_DepthDuration_HTML.html#122,122,1364,625,1364,768,8-30-2022,10-9-42,3,depth_duration_stimuli/002964_2014-06-08_17-46-11_094959634447_rgbf000091-resize_4/002964_2014-06-08_17-46-11_094959634447_rgbf000091-resize_4-target.png,125,1.6909999999999998,5,13170,126,feet,jsons/VE125_randls_64.json,2262271,2448011,32,Woman
3,644201,DepthScenes,duration_manipulation_targetAtFixation,jsons/VE125_randls_64.json,http://54.235.29.9/FacialAge/BNav_EC2/DepthDuration/v2_depth_duration_MTurk/v2_DepthDuration_HTML.html#122,122,1364,625,1364,768,8-30-2022,10-9-42,4,depth_duration_stimuli/002136_2014-06-25_21-18-03_260595134347_rgbf000109-resize_3/002136_2014-06-25_21-18-03_260595134347_rgbf000109-resize_3-target.png,125,1.9569999999999999,1,7714,123,feet,jsons/VE125_randls_64.json,2262271,2448011,32,Woman
4,644201,DepthScenes,duration_manipulation_targetAtFixation,jsons/VE125_randls_64.json,http://54.235.29.9/FacialAge/BNav_EC2/DepthDuration/v2_depth_duration_MTurk/v2_DepthDuration_HTML.html#122,122,1364,625,1364,768,8-30-2022,10-9-42,5,depth_duration_stimuli/000917_2014-06-09_22-45-29_260595134347_rgbf000149-resize_3/000917_2014-06-09_22-45-29_260595134347_rgbf000149-resize_3-target.png,125,4.1865,6,8705,125,feet,jsons/VE125_randls_64.json,2262271,2448011,32,Woman
5,644201,DepthScenes,duration_manipulation_targetAtFixation,jsons/VE125_randls_64.json,http://54.235.29.9/FacialAge/BNav_EC2/DepthDuration/v2_depth_duration_MTurk/v2_DepthDuration_HTML.html#122,122,1364,625,1364,768,8-30-2022,10-9-42,6,depth_duration_stimuli/002323_2014-06-28_20-01-54_260595134347_rgbf000051-resize_4/002323_2014-06-28_20-01-54_260595134347_rgbf000051-resize_4-target.png,125,3.7310000000000003,5,5285,125,feet,jsons/VE125_randls_64.json,2262271,2448011,32,Woman
6,644201,DepthScenes,duration_manipulation_targetAtFixation,jsons/VE125_randls_64.json,http://54.235.29.9/FacialAge/BNav_EC2/DepthDuration/v2_depth_duration_MTurk/v2_DepthDuration_HTML.html#122,122,1364,625,1364,768,8-30-2022,10-9-42,7,depth_duration_stimuli/002279_2014-06-28_18-55-32_260595134347_rgbf000040-resize_5/002279_2014-06-28_18-55-32_260595134347_rgbf000040-resize_5-target.png,125,1.5043333333333,5,13027,125,feet,jsons/VE125_randls_64.json,2262271,2448011,32,Woman
7,644201,DepthScenes,duration_manipulation_targetAtFixation,jsons/VE125_randls_64.json,http://54.235.29.9/FacialAge/BNav_EC2/DepthDuration/v2_depth_duration_MTurk/v2_DepthDuration_HTML.html#122,122,1364,625,1364,768,8-30-2022,10-9-42,8,depth_duration_stimuli/000635_2014-06-08_16-38-42_260595134347_rgbf000106-resize_1/000635_2014-06-08_16-38-42_260595134347_rgbf000106-resize_1-target.png,125,2.074,5,5523,126,feet,jsons/VE125_randls_64.json,2262271,2448011,32,Woman
8,644201,DepthScenes,duration_manipulation_targetAtFixation,jsons/VE125_randls_64.json,http://54.235.29.9/FacialAge/BNav_EC2/DepthDuration/v2_depth_duration_MTurk/v2_DepthDuration_HTML.html#122,122,1364,625,1364,768,8-30-2022,10-9-42,9,depth_duration_stimuli/000506_2014-06-08_23-21-00_260595134347_rgbf000070-resize_7/000506_2014-06-08_23-21-00_260595134347_rgbf000070-resize_7-target.png,125,4.0585,5,8275,124,feet,jsons/VE125_randls_64.json,2262271,2448011,32,Woman
9,644201,DepthScenes,duration_manipulation_targetAtFixation,jsons/VE125_randls_64.json,http://54.235.29.9/FacialAge/BNav_EC2/DepthDuration/v2_depth_duration_MTurk/v2_DepthDuration_HTML.html#122,122,1364,625,1364,768,8-30-2022,10-9-42,10,depth_duration_stimuli/003079_2014-06-15_15-18-20_094959634447_rgbf000152-resize_8/003079_2014-06-15_15-18-20_094959634447_rgbf000152-resize_8-target.png,125,2.8775,5,7930,125,feet,jsons/VE125_randls_64.json,2262271,2448011,32,Woman
10,644201,DepthScenes,duration_manipulation_targetAtFixation,jsons/VE125_randls_64.json,http://54.235.29.9/FacialAge/BNav_EC2/DepthDuration/v2_depth_duration_MTurk/v2_DepthDuration_HTML.html#122,122,1364,625,1364,768,8-30-2022,10-9-42,11,depth_duration_stimuli/000758_2014-06-08_22-05-08_260595134347_rgbf000085-resize_0/000758_2014-06-08_22-05-08_260595134347_rgbf000085-resize_0-target.png,125,3.3810000000000002,4,11121,124,feet,jsons/VE125_randls_64.json,2262271,2448011,32,Woman
11,644201,DepthScenes,duration_manipulation_targetAtFixation,jsons/VE125_randls_64.json,http://54.235.29.9/FacialAge/BNav_EC2/DepthDuration/v2_depth_duration_MTurk/v2_DepthDuration_HTML.html#122,122,1364,625,1364,768,8-30-2022,10-9-42,12,depth_duration_stimuli/000854_2014-06-09_19-43-13_260595134347_rgbf000066-resize_0/000854_2014-06-09_19-43-13_260595134347_rgbf000066-resize_0-target.png,125,3.068,5,5799,125,feet,jsons/VE125_randls_64.json,2262271,2448011,32,Woman
12,644201,DepthScenes,duration_manipulation_targetAtFixation,jsons/VE125_randls_64.json,http://54.235.29.9/FacialAge/BNav_EC2/DepthDuration/v2_depth_duration_MTurk/v2_DepthDuration_HTML.html#122,122,1364,625,1364,768,8-30-2022,10-9-42,13,depth_duration_stimuli/000569_2014-06-09_22-51-47_260595134347_rgbf000141-resize_3/000569_2014-06-09_22-51-47_260595134347_rgbf000141-resize-original.jpg,125,4.512,5,8151,124,feet,jsons/VE125_randls_64.json,2262271,2448011,32,Woman
13,644201,DepthScenes,duration_manipulation_targetAtFixation,jsons/VE125_randls_64.json,http://54.235.29.9/FacialAge/BNav_EC2/DepthDuration/v2_depth_duration_MTurk/v2_DepthDuration_HTML.html#122,122,1364,625,1364,768,8-30-2022,10-9-42,14,depth_duration_stimuli/002788_2014-06-22_19-36-03_094959634447_rgbf000088-resize_2/002788_2014-06-22_19-36-03_094959634447_rgbf000088-resize_2-target.png,125,1.6465,6,7348,124,feet,jsons/VE125_randls_64.json,2262271,2448011,32,Woman
14,644201,DepthScenes,duration_manipulation_targetAtFixation,jsons/VE125_randls_64.json,http://54.235.29.9/FacialAge/BNav_EC2/DepthDuration/v2_depth_duration_MTurk/v2_DepthDuration_HTML.html#122,122,1364,625,1364,768,8-30-2022,10-9-42,15,depth_duration_stimuli/000749_2014-06-08_21-55-06_260595134347_rgbf000070-resize_2/000749_2014-06-08_21-55-06_260595134347_rgbf000070-resize_2-target.png,125,2.331,5,4140,125,feet,jsons/VE125_randls_64.json,2262271,2448011,32,Woman
15,644201,DepthScenes,duration_manipulation_targetAtFixation,jsons/VE125_randls_64.json,http://54.235.29.9/FacialAge/BNav_EC2/DepthDuration/v2_depth_duration_MTurk/v2_DepthDuration_HTML.html#122,122,1364,625,1364,768,8-30-2022,10-9-42,16,depth_duration_stimuli/002989_2014-06-15_12-25-03_094959634447_rgbf000150-resize_3/002989_2014-06-15_12-25-03_094959634447_rgbf000150-resize_3-target.png,125,4.1975,6,10091,125,feet,jsons/VE125_randls_64.json,2262271,2448011,32,Woman
16,644201,DepthScenes,duration_manipulation_targetAtFixation,jsons/VE125_randls_64.json,http://54.235.29.9/FacialAge/BNav_EC2/DepthDuration/v2_depth_duration_MTurk/v2_DepthDuration_HTML.html#122,122,1364,625,1364,768,8-30-2022,10-9-42,17,depth_duration_stimuli/000866_2014-06-09_20-45-42_260595134347_rgbf000139-resize_1/000866_2014-06-09_20-45-42_260595134347_rgbf000139-resize_1-target.png,125,3.2155,2,6499,124,feet,jsons/VE125_randls_64.json,2262271,2448011,32,Woman
17,644201,DepthScenes,duration_manipulation_targetAtFixation,jsons/VE125_randls_64.json,http://54.235.29.9/FacialAge/BNav_EC2/DepthDuration/v2_depth_duration_MTurk/v2_DepthDuration_HTML.html#122,122,1364,625,1364,768,8-30-2022,10-9-42,18,depth_duration_stimuli/002039_2014-06-24_20-22-38_260595134347_rgbf000084-resize_1/002039_2014-06-24_20-22-38_260595134347_rgbf000084-resize_1-target.png,125,4.408,6,9025,125,feet,jsons/VE125_randls_64.json,2262271,2448011,32,Woman
18,644201,DepthScenes,duration_manipulation_targetAtFixation,jsons/VE125_randls_64.json,http://54.235.29.9/FacialAge/BNav_EC2/DepthDuration/v2_depth_duration_MTurk/v2_DepthDuration_HTML.html#122,122,1364,625,1364,768,8-30-2022,10-9-42,19,depth_duration_stimuli/002103_2014-06-25_20-00-40_260595134347_rgbf000049-resize_0/002103_2014-06-25_20-00-40_260595134347_rgbf000049-resize_0-target.png,125,4.105,3,15126,126,feet,jsons/VE125_randls_64.json,2262271,2448011,32,Woman
19,644201,DepthScenes,duration_manipulation_targetAtFixation,jsons/VE125_randls_64.json,http://54.235.29.9/FacialAge/BNav_EC2/DepthDuration/v2_depth_duration_MTurk/v2_DepthDuration_HTML.html#122,122,1364,625,1364,768,8-30-2022,10-9-42,20,depth_duration_stimuli/001244_2014-06-17_16-47-45_260595134347_rgbf000030-resize_4/001244_2014-06-17_16-47-45_260595134347_rgbf000030-resize_4-target.png,125,2.0425,6,13639,126,feet,jsons/VE125_randls_64.json,2262271,2448011,32,Woman
20,644201,DepthScenes,duration_manipulation_targetAtFixation,jsons/VE125_randls_64.json,http://54.235.29.9/FacialAge/BNav_EC2/DepthDuration/v2_depth_duration_MTurk/v2_DepthDuration_HTML.html#122,122,1364,625,1364,768,8-30-2022,10-9-42,21,depth_duration_stimuli/003495_2014-05-21_16-01-51_094959634447_rgbf000100-resize_3/003495_2014-05-21_16-01-51_094959634447_rgbf000100-resize_3-target.png,125,1.6255,3,5802,125,feet,jsons/VE125_randls_64.json,2262271,2448011,32,Woman
21,644201,DepthScenes,duration_manipulation_targetAtFixation,jsons/VE125_randls_64.json,http://54.235.29.9/FacialAge/BNav_EC2/DepthDuration/v2_depth_duration_MTurk/v2_DepthDuration_HTML.html#122,122,1364,625,1364,768,8-30-2022,10-9-42,22,depth_duration_stimuli/001056_2014-06-08_18-46-44_260595134347_rgbf000068-resize_0/001056_2014-06-08_18-46-44_260595134347_rgbf000068-resize_0-target.png,125,2.6625,6,11596,125,feet,jsons/VE125_randls_64.json,2262271,2448011,32,Woman
22,644201,DepthScenes,duration_manipulation_targetAtFixation,jsons/VE125_randls_64.json,http://54.235.29.9/FacialAge/BNav_EC2/DepthDuration/v2_depth_duration_MTurk/v2_DepthDuration_HTML.html#122,122,1364,625,1364,768,8-30-2022,10-9-42,23,depth_duration_stimuli/002199_2014-06-28_18-33-56_260595134347_rgbf000074-resize_0/002199_2014-06-28_18-33-56_260595134347_rgbf000074-resize_0-target.png,125,1.996,6,6453,125,feet,jsons/VE125_randls_64.json,2262271,2448011,32,Woman
23,644201,DepthScenes,duration_manipulation_targetAtFixation,jsons/VE125_randls_64.json,http://54.235.29.9/FacialAge/BNav_EC2/DepthDuration/v2_depth_duration_MTurk/v2_DepthDuration_HTML.html#122,122,1364,625,1364,768,8-30-2022,10-9-42,24,depth_duration_stimuli/002509_2014-06-24_13-19-22_094959634447_rgbf000077-resize_0/002509_2014-06-24_13-19-22_094959634447_rgbf000077-resize_0-target.png,125,1.3065,6,12577,124,feet,jsons/VE125_randls_64.json,2262271,2448011,32,Woman
24,644201,DepthScenes,duration_manipulation_targetAtFixation,jsons/VE125_randls_64.json,http://54.235.29.9/FacialAge/BNav_EC2/DepthDuration/v2_depth_duration_MTurk/v2_DepthDuration_HTML.html#122,122,1364,625,1364,768,8-30-2022,10-9-42,25,depth_duration_stimuli/003338_2014-05-20_11-01-23_094959634447_rgbf000051-resize_6/003338_2014-05-20_11-01-23_094959634447_rgbf000051-resize_6-target.png,125,1.693,4,8548,125,feet,jsons/VE125_randls_64.json,2262271,2448011,32,Woman
25,644201,DepthScenes,duration_manipulation_targetAtFixation,jsons/VE125_randls_64.json,http://54.235.29.9/FacialAge/BNav_EC2/DepthDuration/v2_depth_duration_MTurk/v2_DepthDuration_HTML.html#122,122,1364,625,1364,768,8-30-2022,10-9-42,26,depth_duration_stimuli/000642_2014-06-08_16-59-25_260595134347_rgbf000098-resize_2/000642_2014-06-08_16-59-25_260595134347_rgbf000098-resize_2-target.png,125,2.8815,8,11670,125,feet,jsons/VE125_randls_64.json,2262271,2448011,32,Woman
26,644201,DepthScenes,duration_manipulation_targetAtFixation,jsons/VE125_randls_64.json,http://54.235.29.9/FacialAge/BNav_EC2/DepthDuration/v2_depth_duration_MTurk/v2_DepthDuration_HTML.html#122,122,1364,625,1364,768,8-30-2022,10-9-42,27,depth_duration_stimuli/002425_2014-06-28_20-27-29_260595134347_rgbf000031-resize_8/002425_2014-06-28_20-27-29_260595134347_rgbf000031-resize_8-target.png,125,3.8960000000000004,9,6164,124,feet,jsons/VE125_randls_64.json,2262271,2448011,32,Woman
27,644201,DepthScenes,duration_manipulation_targetAtFixation,jsons/VE125_randls_64.json,http://54.235.29.9/FacialAge/BNav_EC2/DepthDuration/v2_depth_duration_MTurk/v2_DepthDuration_HTML.html#122,122,1364,625,1364,768,8-30-2022,10-9-42,28,depth_duration_stimuli/003070_2014-06-15_14-58-27_094959634447_rgbf000150-resize_3/003070_2014-06-15_14-58-27_094959634447_rgbf000150-resize_3-target.png,125,2.9415,5,13937,124,feet,jsons/VE125_randls_64.json,2262271,2448011,32,Woman
28,644201,DepthScenes,duration_manipulation_targetAtFixation,jsons/VE125_randls_64.json,http://54.235.29.9/FacialAge/BNav_EC2/DepthDuration/v2_depth_duration_MTurk/v2_DepthDuration_HTML.html#122,122,1364,625,1364,768,8-30-2022,10-9-42,29,depth_duration_stimuli/000943_2014-06-09_19-31-07_260595134347_rgbf000128-resize_1/000943_2014-06-09_19-31-07_260595134347_rgbf000128-resize_1-target.png,125,1.9765,36,5612,123,feet,jsons/VE125_randls_64.json,2262271,2448011,32,Woman
29,644201,DepthScenes,duration_manipulation_targetAtFixation,jsons/VE125_randls_64.json,http://54.235.29.9/FacialAge/BNav_EC2/DepthDuration/v2_depth_duration_MTurk/v2_DepthDuration_HTML.html#122,122,1364,625,1364,768,8-30-2022,10-9-42,30,depth_duration_stimuli/000375_2014-06-08_11-17-29_260595134347_rgbf000133-resize_2/000375_2014-06-08_11-17-29_260595134347_rgbf000133-resize-original.jpg,125,4.718,4,9627,125,feet,jsons/VE125_randls_64.json,2262271,2448011,32,Woman
30,644201,DepthScenes,duration_manipulation_targetAtFixation,jsons/VE125_randls_64.json,http://54.235.29.9/FacialAge/BNav_EC2/DepthDuration/v2_depth_duration_MTurk/v2_DepthDuration_HTML.html#122,122,1364,625,1364,768,8-30-2022,10-9-42,31,depth_duration_stimuli/000929_2014-06-09_16-33-19_260595134347_rgbf000139-resize_0/000929_2014-06-09_16-33-19_260595134347_rgbf000139-resize_0-target.png,125,2.8680000000000003,5,18668,125,feet,jsons/VE125_randls_64.json,2262271,2448011,32,Woman
31,644201,DepthScenes,duration_manipulation_targetAtFixation,jsons/VE125_randls_64.json,http://54.235.29.9/FacialAge/BNav_EC2/DepthDuration/v2_depth_duration_MTurk/v2_DepthDuration_HTML.html#122,122,1364,625,1364,768,8-30-2022,10-9-42,32,depth_duration_stimuli/000457_2014-06-08_16-52-43_260595134347_rgbf000199-resize_1/000457_2014-06-08_16-52-43_260595134347_rgbf000199-resize_1-target.png,125,3.6489999999999996,6,5890,126,feet,jsons/VE125_randls_64.json,2262271,2448011,32,Woman
32,644201,DepthScenes,duration_manipulation_targetAtFixation,jsons/VE125_randls_64.json,http://54.235.29.9/FacialAge/BNav_EC2/DepthDuration/v2_depth_duration_MTurk/v2_DepthDuration_HTML.html#122,122,1364,625,1364,768,8-30-2022,10-9-42,33,depth_duration_stimuli/000878_2014-06-08_22-52-45_260595134347_rgbf000045-resize_2/000878_2014-06-08_22-52-45_260595134347_rgbf000045-resize_2-target.png,125,2.092,6,9330,124,feet,jsons/VE125_randls_64.json,2262271,2448011,32,Woman
33,644201,DepthScenes,duration_manipulation_targetAtFixation,jsons/VE125_randls_64.json,http://54.235.29.9/FacialAge/BNav_EC2/DepthDuration/v2_depth_duration_MTurk/v2_DepthDuration_HTML.html#122,122,1364,625,1364,768,8-30-2022,10-9-42,34,depth_duration_stimuli/002953_2014-06-08_17-32-18_094959634447_rgbf000059-resize_5/002953_2014-06-08_17-32-18_094959634447_rgbf000059-resize_5-target.png,125,1.551,6,7364,124,feet,jsons/VE125_randls_64.json,2262271,2448011,32,Woman
34,644201,DepthScenes,duration_manipulation_targetAtFixation,jsons/VE125_randls_64.json,http://54.235.29.9/FacialAge/BNav_EC2/DepthDuration/v2_depth_duration_MTurk/v2_DepthDuration_HTML.html#122,122,1364,625,1364,768,8-30-2022,10-9-42,35,depth_duration_stimuli/000493_2014-06-09_21-01-18_260595134347_rgbf000196-resize_3/000493_2014-06-09_21-01-18_260595134347_rgbf000196-resize_3-target.png,125,3.44,5,18771,125,feet,jsons/VE125_randls_64.json,2262271,2448011,32,Woman
35,644201,DepthScenes,duration_manipulation_targetAtFixation,jsons/VE125_randls_64.json,http://54.235.29.9/FacialAge/BNav_EC2/DepthDuration/v2_depth_duration_MTurk/v2_DepthDuration_HTML.html#122,122,1364,625,1364,768,8-30-2022,10-9-42,36,depth_duration_stimuli/000191_2014-05-12_17-07-38_260595134347_rgbf000199-resize_0/000191_2014-05-12_17-07-38_260595134347_rgbf000199-resize_0-target.png,125,3.7995,2,5012,124,feet,jsons/VE125_randls_64.json,2262271,2448011,32,Woman
36,644201,DepthScenes,duration_manipulation_targetAtFixation,jsons/VE125_randls_64.json,http://54.235.29.9/FacialAge/BNav_EC2/DepthDuration/v2_depth_duration_MTurk/v2_DepthDuration_HTML.html#122,122,1364,625,1364,768,8-30-2022,10-9-42,37,depth_duration_stimuli/001808_2014-06-26_20-50-58_260595134347_rgbf000029-resize_1/001808_2014-06-26_20-50-58_260595134347_rgbf000029-resize_1-target.png,125,4.249,2,14604,124,feet,jsons/VE125_randls_64.json,2262271,2448011,32,Woman
37,644201,DepthScenes,duration_manipulation_targetAtFixation,jsons/VE125_randls_64.json,http://54.235.29.9/FacialAge/BNav_EC2/DepthDuration/v2_depth_duration_MTurk/v2_DepthDuration_HTML.html#122,122,1364,625,1364,768,8-30-2022,10-9-42,38,depth_duration_stimuli/001815_2014-06-26_20-52-55_260595134347_rgbf000020-resize_0/001815_2014-06-26_20-52-55_260595134347_rgbf000020-resize_0-target.png,125,3.3865,1,6879,125,feet,jsons/VE125_randls_64.json,2262271,2448011,32,Woman
38,644201,DepthScenes,duration_manipulation_targetAtFixation,jsons/VE125_randls_64.json,http://54.235.29.9/FacialAge/BNav_EC2/DepthDuration/v2_depth_duration_MTurk/v2_DepthDuration_HTML.html#122,122,1364,625,1364,768,8-30-2022,10-9-42,39,depth_duration_stimuli/003492_2014-05-21_15-50-55_094959634447_rgbf000828-resize_1/003492_2014-05-21_15-50-55_094959634447_rgbf000828-resize_1-target.png,125,4.06875,6,11525,125,feet,jsons/VE125_randls_64.json,2262271,2448011,32,Woman
39,644201,DepthScenes,duration_manipulation_targetAtFixation,jsons/VE125_randls_64.json,http://54.235.29.9/FacialAge/BNav_EC2/DepthDuration/v2_depth_duration_MTurk/v2_DepthDuration_HTML.html#122,122,1364,625,1364,768,8-30-2022,10-9-42,40,depth_duration_stimuli/002568_2014-06-24_13-59-21_094959634447_rgbf000062-resize_4/002568_2014-06-24_13-59-21_094959634447_rgbf000062-resize_4-target.png,125,3.015,6,7551,125,feet,jsons/VE125_randls_64.json,2262271,2448011,32,Woman
40,644201,DepthScenes,duration_manipulation_targetAtFixation,jsons/VE125_randls_64.json,http://54.235.29.9/FacialAge/BNav_EC2/DepthDuration/v2_depth_duration_MTurk/v2_DepthDuration_HTML.html#122,122,1364,625,1364,768,8-30-2022,10-9-42,41,depth_duration_stimuli/001029_2014-06-08_13-17-57_260595134347_rgbf000065-resize_1/001029_2014-06-08_13-17-57_260595134347_rgbf000065-resize_1-target.png,125,3.0835,6,16001,124,feet,jsons/VE125_randls_64.json,2262271,2448011,32,Woman
41,644201,DepthScenes,duration_manipulation_targetAtFixation,jsons/VE125_randls_64.json,http://54.235.29.9/FacialAge/BNav_EC2/DepthDuration/v2_depth_duration_MTurk/v2_DepthDuration_HTML.html#122,122,1364,625,1364,768,8-30-2022,10-9-42,42,depth_duration_stimuli/000677_2014-06-08_23-10-32_260595134347_rgbf000158-resize_6/000677_2014-06-08_23-10-32_260595134347_rgbf000158-resize_6-target.png,125,3.556,6,5556,124,feet,jsons/VE125_randls_64.json,2262271,2448011,32,Woman
42,644201,DepthScenes,duration_manipulation_targetAtFixation,jsons/VE125_randls_64.json,http://54.235.29.9/FacialAge/BNav_EC2/DepthDuration/v2_depth_duration_MTurk/v2_DepthDuration_HTML.html#122,122,1364,625,1364,768,8-30-2022,10-9-42,43,depth_duration_stimuli/002748_2014-06-22_19-07-22_094959634447_rgbf000078-resize_1/002748_2014-06-22_19-07-22_094959634447_rgbf000078-resize_1-target.png,125,4.6705,9,10793,124,feet,jsons/VE125_randls_64.json,2262271,2448011,32,Woman
43,644201,DepthScenes,duration_manipulation_targetAtFixation,jsons/VE125_randls_64.json,http://54.235.29.9/FacialAge/BNav_EC2/DepthDuration/v2_depth_duration_MTurk/v2_DepthDuration_HTML.html#122,122,1364,625,1364,768,8-30-2022,10-9-42,44,depth_duration_stimuli/002995_2014-06-15_12-31-26_094959634447_rgbf000150-resize_1/002995_2014-06-15_12-31-26_094959634447_rgbf000150-resize_1-target.png,125,3.8360000000000003,9,6819,125,feet,jsons/VE125_randls_64.json,2262271,2448011,32,Woman
44,644201,DepthScenes,duration_manipulation_targetAtFixation,jsons/VE125_randls_64.json,http://54.235.29.9/FacialAge/BNav_EC2/DepthDuration/v2_depth_duration_MTurk/v2_DepthDuration_HTML.html#122,122,1364,625,1364,768,8-30-2022,10-9-42,45,depth_duration_stimuli/000787_2014-06-08_22-33-53_260595134347_rgbf000175-resize_1/000787_2014-06-08_22-33-53_260595134347_rgbf000175-resize-original.jpg,125,4.784,6,8774,125,feet,jsons/VE125_randls_64.json,2262271,2448011,32,Woman
45,644201,DepthScenes,duration_manipulation_targetAtFixation,jsons/VE125_randls_64.json,http://54.235.29.9/FacialAge/BNav_EC2/DepthDuration/v2_depth_duration_MTurk/v2_DepthDuration_HTML.html#122,122,1364,625,1364,768,8-30-2022,10-9-42,46,depth_duration_stimuli/001417_2014-06-19_16-25-36_260595134347_rgbf000115-resize_5/001417_2014-06-19_16-25-36_260595134347_rgbf000115-resize_5-target.png,125,4.6255,6,10491,125,feet,jsons/VE125_randls_64.json,2262271,2448011,32,Woman
46,644201,DepthScenes,duration_manipulation_targetAtFixation,jsons/VE125_randls_64.json,http://54.235.29.9/FacialAge/BNav_EC2/DepthDuration/v2_depth_duration_MTurk/v2_DepthDuration_HTML.html#122,122,1364,625,1364,768,8-30-2022,10-9-42,47,depth_duration_stimuli/003081_2014-06-15_15-19-16_094959634447_rgbf000150-resize_1/003081_2014-06-15_15-19-16_094959634447_rgbf000150-resize_1-target.png,125,3.9125,6,6571,125,feet,jsons/VE125_randls_64.json,2262271,2448011,32,Woman
47,644201,DepthScenes,duration_manipulation_targetAtFixation,jsons/VE125_randls_64.json,http://54.235.29.9/FacialAge/BNav_EC2/DepthDuration/v2_depth_duration_MTurk/v2_DepthDuration_HTML.html#122,122,1364,625,1364,768,8-30-2022,10-9-42,48,depth_duration_stimuli/002272_2014-06-28_18-53-56_260595134347_rgbf000067-resize_2/002272_2014-06-28_18-53-56_260595134347_rgbf000067-resize_2-target.png,125,1.138,3,28268,125,feet,jsons/VE125_randls_64.json,2262271,2448011,32,Woman
48,644201,DepthScenes,duration_manipulation_targetAtFixation,jsons/VE125_randls_64.json,http://54.235.29.9/FacialAge/BNav_EC2/DepthDuration/v2_depth_duration_MTurk/v2_DepthDuration_HTML.html#122,122,1364,625,1364,768,8-30-2022,10-9-42,49,depth_duration_stimuli/001571_2014-06-20_17-21-32_260595134347_rgbf000089-resize_1/001571_2014-06-20_17-21-32_260595134347_rgbf000089-resize_1-target.png,125,1.86,3,9917,125,feet,jsons/VE125_randls_64.json,2262271,2448011,32,Woman
49,644201,DepthScenes,duration_manipulation_targetAtFixation,jsons/VE125_randls_64.json,http://54.235.29.9/FacialAge/BNav_EC2/DepthDuration/v2_depth_duration_MTurk/v2_DepthDuration_HTML.html#122,122,1364,625,1364,768,8-30-2022,10-9-42,50,depth_duration_stimuli/001016_2014-06-09_16-16-10_260595134347_rgbf000112-resize_5/001016_2014-06-09_16-16-10_260595134347_rgbf000112-resize_5-target.png,125,1.6565,5,18020,124,feet,jsons/VE125_randls_64.json,2262271,2448011,32,Woman
50,644201,DepthScenes,duration_manipulation_targetAtFixation,jsons/VE125_randls_64.json,http://54.235.29.9/FacialAge/BNav_EC2/DepthDuration/v2_depth_duration_MTurk/v2_DepthDuration_HTML.html#122,122,1364,625,1364,768,8-30-2022,10-9-42,51,depth_duration_stimuli/002340_2014-06-28_20-05-46_260595134347_rgbf000113-resize_0/002340_2014-06-28_20-05-46_260595134347_rgbf000113-resize_0-target.png,125,2.4735,5,8565,126,feet,jsons/VE125_randls_64.json,2262271,2448011,32,Woman
51,644201,DepthScenes,duration_manipulation_targetAtFixation,jsons/VE125_randls_64.json,http://54.235.29.9/FacialAge/BNav_EC2/DepthDuration/v2_depth_duration_MTurk/v2_DepthDuration_HTML.html#122,122,1364,625,1364,768,8-30-2022,10-9-42,52,depth_duration_stimuli/001555_2014-06-20_17-12-10_260595134347_rgbf000065-resize_4/001555_2014-06-20_17-12-10_260595134347_rgbf000065-resize_4-target.png,125,1.633,4,15663,124,feet,jsons/VE125_randls_64.json,2262271,2448011,32,Woman
52,644201,DepthScenes,duration_manipulation_targetAtFixation,jsons/VE125_randls_64.json,http://54.235.29.9/FacialAge/BNav_EC2/DepthDuration/v2_depth_duration_MTurk/v2_DepthDuration_HTML.html#122,122,1364,625,1364,768,8-30-2022,10-9-42,53,depth_duration_stimuli/000103_2014-05-14_22-01-17_260595134347_rgbf000152-resize_5/000103_2014-05-14_22-01-17_260595134347_rgbf000152-resize_5-target.png,125,1.993,5,4714,114,feet,jsons/VE125_randls_64.json,2262271,2448011,32,Woman
53,644201,DepthScenes,duration_manipulation_targetAtFixation,jsons/VE125_randls_64.json,http://54.235.29.9/FacialAge/BNav_EC2/DepthDuration/v2_depth_duration_MTurk/v2_DepthDuration_HTML.html#122,122,1364,625,1364,768,8-30-2022,10-9-42,54,depth_duration_stimuli/001199_2014-06-17_16-03-48_260595134347_rgbf000077-resize_0/001199_2014-06-17_16-03-48_260595134347_rgbf000077-resize_0-target.png,125,3.4375,5,10112,125,feet,jsons/VE125_randls_64.json,2262271,2448011,32,Woman
54,644201,DepthScenes,duration_manipulation_targetAtFixation,jsons/VE125_randls_64.json,http://54.235.29.9/FacialAge/BNav_EC2/DepthDuration/v2_depth_duration_MTurk/v2_DepthDuration_HTML.html#122,122,1364,625,1364,768,8-30-2022,10-9-42,55,depth_duration_stimuli/000502_2014-06-08_23-02-32_260595134347_rgbf000063-resize_4/000502_2014-06-08_23-02-32_260595134347_rgbf000063-resize_4-target.png,125,2.431,6,11084,160,feet,jsons/VE125_randls_64.json,2262271,2448011,32,Woman
55,644201,DepthScenes,duration_manipulation_targetAtFixation,jsons/VE125_randls_64.json,http://54.235.29.9/FacialAge/BNav_EC2/DepthDuration/v2_depth_duration_MTurk/v2_DepthDuration_HTML.html#122,122,1364,625,1364,768,8-30-2022,10-9-42,56,depth_duration_stimuli/001167_2014-06-17_15-38-07_260595134347_rgbf000108-resize_0/001167_2014-06-17_15-38-07_260595134347_rgbf000108-resize_0-target.png,125,1.8505,6,13463,124,feet,jsons/VE125_randls_64.json,2262271,2448011,32,Woman
56,644201,DepthScenes,duration_manipulation_targetAtFixation,jsons/VE125_randls_64.json,http://54.235.29.9/FacialAge/BNav_EC2/DepthDuration/v2_depth_duration_MTurk/v2_DepthDuration_HTML.html#122,122,1364,625,1364,768,8-30-2022,10-9-42,57,depth_duration_stimuli/003587_2014-05-23_16-48-02_094959634447_rgbf002384-resize_2/003587_2014-05-23_16-48-02_094959634447_rgbf002384-resize_2-target.png,125,1.357,5,6416,124,feet,jsons/VE125_randls_64.json,2262271,2448011,32,Woman
57,644201,DepthScenes,duration_manipulation_targetAtFixation,jsons/VE125_randls_64.json,http://54.235.29.9/FacialAge/BNav_EC2/DepthDuration/v2_depth_duration_MTurk/v2_DepthDuration_HTML.html#122,122,1364,625,1364,768,8-30-2022,10-9-42,58,depth_duration_stimuli/002763_2014-06-22_19-13-10_094959634447_rgbf000075-resize_4/002763_2014-06-22_19-13-10_094959634447_rgbf000075-resize_4-target.png,125,1.68375,5,18163,124,feet,jsons/VE125_randls_64.json,2262271,2448011,32,Woman
58,644201,DepthScenes,duration_manipulation_targetAtFixation,jsons/VE125_randls_64.json,http://54.235.29.9/FacialAge/BNav_EC2/DepthDuration/v2_depth_duration_MTurk/v2_DepthDuration_HTML.html#122,122,1364,625,1364,768,8-30-2022,10-9-42,59,depth_duration_stimuli/002209_2014-06-28_18-36-10_260595134347_rgbf000051-resize_1/002209_2014-06-28_18-36-10_260595134347_rgbf000051-resize_1-target.png,125,2.057,4,7956,123,feet,jsons/VE125_randls_64.json,2262271,2448011,32,Woman
59,644201,DepthScenes,duration_manipulation_targetAtFixation,jsons/VE125_randls_64.json,http://54.235.29.9/FacialAge/BNav_EC2/DepthDuration/v2_depth_duration_MTurk/v2_DepthDuration_HTML.html#122,122,1364,625,1364,768,8-30-2022,10-9-42,60,depth_duration_stimuli/002043_2014-06-24_20-29-38_260595134347_rgbf000039-resize_4/002043_2014-06-24_20-29-38_260595134347_rgbf000039-resize_4-target.png,125,2.8435,5,14174,125,feet,jsons/VE125_randls_64.json,2262271,2448011,32,Woman
60,644201,DepthScenes,duration_manipulation_targetAtFixation,jsons/VE125_randls_64.json,http://54.235.29.9/FacialAge/BNav_EC2/DepthDuration/v2_depth_duration_MTurk/v2_DepthDuration_HTML.html#122,122,1364,625,1364,768,8-30-2022,10-9-42,61,depth_duration_stimuli/003048_2014-06-15_13-49-43_094959634447_rgbf000150-resize_1/003048_2014-06-15_13-49-43_094959634447_rgbf000150-resize_1-target.png,125,4.0035,5,7425,123,feet,jsons/VE125_randls_64.json,2262271,2448011,32,Woman
61,644201,DepthScenes,duration_manipulation_targetAtFixation,jsons/VE125_randls_64.json,http://54.235.29.9/FacialAge/BNav_EC2/DepthDuration/v2_depth_duration_MTurk/v2_DepthDuration_HTML.html#122,122,1364,625,1364,768,8-30-2022,10-9-42,62,depth_duration_stimuli/000470_2014-06-09_19-42-40_260595134347_rgbf000094-resize_1/000470_2014-06-09_19-42-40_260595134347_rgbf000094-resize_1-target.png,125,1.831,6,11777,125,feet,jsons/VE125_randls_64.json,2262271,2448011,32,Woman
62,644201,DepthScenes,duration_manipulation_targetAtFixation,jsons/VE125_randls_64.json,http://54.235.29.9/FacialAge/BNav_EC2/DepthDuration/v2_depth_duration_MTurk/v2_DepthDuration_HTML.html#122,122,1364,625,1364,768,8-30-2022,10-9-42,63,depth_duration_stimuli/000109_2014-05-14_23-41-52_260595134347_rgbf000035-resize_9/000109_2014-05-14_23-41-52_260595134347_rgbf000035-resize_9-target.png,125,1.3545,6,8947,125,feet,jsons/VE125_randls_64.json,2262271,2448011,32,Woman
63,644201,DepthScenes,duration_manipulation_targetAtFixation,jsons/VE125_randls_64.json,http://54.235.29.9/FacialAge/BNav_EC2/DepthDuration/v2_depth_duration_MTurk/v2_DepthDuration_HTML.html#122,122,1364,625,1364,768,8-30-2022,10-9-42,64,depth_duration_stimuli/003621_2014-05-23_18-06-08_094959634447_rgbf000101-resize_1/003621_2014-05-23_18-06-08_094959634447_rgbf000101-resize_1-target.png,125,3.9835,6,8214,123,feet,jsons/VE125_randls_64.json,2262271,2448011,32,Woman
64,644201,DepthScenes,duration_manipulation_targetAtFixation,jsons/VE125_randls_64.json,http://54.235.29.9/FacialAge/BNav_EC2/DepthDuration/v2_depth_duration_MTurk/v2_DepthDuration_HTML.html#122,122,1364,625,1364,768,8-30-2022,10-9-42,65,depth_duration_stimuli/001584_2014-06-20_11-07-43_260595134347_rgbf000002-resize_1/001584_2014-06-20_11-07-43_260595134347_rgbf000002-resize_1-target.png,125,3.53,9,5738,125,feet,jsons/VE125_randls_64.json,2262271,2448011,32,Woman
65,644201,DepthScenes,duration_manipulation_targetAtFixation,jsons/VE125_randls_64.json,http://54.235.29.9/FacialAge/BNav_EC2/DepthDuration/v2_depth_duration_MTurk/v2_DepthDuration_HTML.html#122,122,1364,625,1364,768,8-30-2022,10-9-42,66,depth_duration_stimuli/001222_2014-06-17_16-24-06_260595134347_rgbf000073-resize_0/001222_2014-06-17_16-24-06_260595134347_rgbf000073-resize-original.jpg,125,1.4385,6,14195,125,feet,jsons/VE125_randls_64.json,2262271,2448011,32,Woman
66,644201,DepthScenes,duration_manipulation_targetAtFixation,jsons/VE125_randls_64.json,http://54.235.29.9/FacialAge/BNav_EC2/DepthDuration/v2_depth_duration_MTurk/v2_DepthDuration_HTML.html#122,122,1364,625,1364,768,8-30-2022,10-9-42,67,depth_duration_stimuli/001810_2014-06-26_20-51-35_260595134347_rgbf000040-resize_3/001810_2014-06-26_20-51-35_260595134347_rgbf000040-resize_3-target.png,125,2.2525,6,14296,125,feet,jsons/VE125_randls_64.json,2262271,2448011,32,Woman
67,644201,DepthScenes,duration_manipulation_targetAtFixation,jsons/VE125_randls_64.json,http://54.235.29.9/FacialAge/BNav_EC2/DepthDuration/v2_depth_duration_MTurk/v2_DepthDuration_HTML.html#122,122,1364,625,1364,768,8-30-2022,10-9-42,68,depth_duration_stimuli/003010_2014-06-15_12-54-35_094959634447_rgbf000112-resize_0/003010_2014-06-15_12-54-35_094959634447_rgbf000112-resize_0-target.png,125,3.1185,6,9735,123,feet,jsons/VE125_randls_64.json,2262271,2448011,32,Woman
68,644201,DepthScenes,duration_manipulation_targetAtFixation,jsons/VE125_randls_64.json,http://54.235.29.9/FacialAge/BNav_EC2/DepthDuration/v2_depth_duration_MTurk/v2_DepthDuration_HTML.html#122,122,1364,625,1364,768,8-30-2022,10-9-42,69,depth_duration_stimuli/000739_2014-06-08_18-45-58_260595134347_rgbf000068-resize_1/000739_2014-06-08_18-45-58_260595134347_rgbf000068-resize_1-target.png,125,3.534,5,495888,124,feet,jsons/VE125_randls_64.json,2262271,2448011,32,Woman
69,644201,DepthScenes,duration_manipulation_targetAtFixation,jsons/VE125_randls_64.json,http://54.235.29.9/FacialAge/BNav_EC2/DepthDuration/v2_depth_duration_MTurk/v2_DepthDuration_HTML.html#122,122,1364,625,1364,768,8-30-2022,10-9-42,70,depth_duration_stimuli/000734_2014-06-08_17-39-11_260595134347_rgbf000128-resize_2/000734_2014-06-08_17-39-11_260595134347_rgbf000128-resize_2-target.png,125,4.098,5,7634,125,feet,jsons/VE125_randls_64.json,2262271,2448011,32,Woman
70,644201,DepthScenes,duration_manipulation_targetAtFixation,jsons/VE125_randls_64.json,http://54.235.29.9/FacialAge/BNav_EC2/DepthDuration/v2_depth_duration_MTurk/v2_DepthDuration_HTML.html#122,122,1364,625,1364,768,8-30-2022,10-9-42,71,depth_duration_stimuli/000736_2014-06-08_18-24-15_260595134347_rgbf000206-resize_3/000736_2014-06-08_18-24-15_260595134347_rgbf000206-resize_3-target.png,125,3.515,5,15405,126,feet,jsons/VE125_randls_64.json,2262271,2448011,32,Woman
71,644201,DepthScenes,duration_manipulation_targetAtFixation,jsons/VE125_randls_64.json,http://54.235.29.9/FacialAge/BNav_EC2/DepthDuration/v2_depth_duration_MTurk/v2_DepthDuration_HTML.html#122,122,1364,625,1364,768,8-30-2022,10-9-42,72,depth_duration_stimuli/000137_2014-05-20_17-04-49_260595134347_rgbf000120-resize_1/000137_2014-05-20_17-04-49_260595134347_rgbf000120-resize_1-target.png,125,3.786,4,5082,194,feet,jsons/VE125_randls_64.json,2262271,2448011,32,Woman
72,644201,DepthScenes,duration_manipulation_targetAtFixation,jsons/VE125_randls_64.json,http://54.235.29.9/FacialAge/BNav_EC2/DepthDuration/v2_depth_duration_MTurk/v2_DepthDuration_HTML.html#122,122,1364,625,1364,768,8-30-2022,10-9-42,73,depth_duration_stimuli/001066_2014-06-08_22-03-20_260595134347_rgbf000066-resize_4/001066_2014-06-08_22-03-20_260595134347_rgbf000066-resize_4-target.png,125,4.2330000000000005,5,13436,124,feet,jsons/VE125_randls_64.json,2262271,2448011,32,Woman
73,644201,DepthScenes,duration_manipulation_targetAtFixation,jsons/VE125_randls_64.json,http://54.235.29.9/FacialAge/BNav_EC2/DepthDuration/v2_depth_duration_MTurk/v2_DepthDuration_HTML.html#122,122,1364,625,1364,768,8-30-2022,10-9-42,74,depth_duration_stimuli/000742_2014-06-08_18-48-09_260595134347_rgbf000164-resize_4/000742_2014-06-08_18-48-09_260595134347_rgbf000164-resize_4-target.png,125,4.632,4,5172,124,feet,jsons/VE125_randls_64.json,2262271,2448011,32,Woman
74,644201,DepthScenes,duration_manipulation_targetAtFixation,jsons/VE125_randls_64.json,http://54.235.29.9/FacialAge/BNav_EC2/DepthDuration/v2_depth_duration_MTurk/v2_DepthDuration_HTML.html#122,122,1364,625,1364,768,8-30-2022,10-9-42,75,depth_duration_stimuli/001055_2014-06-08_18-45-35_260595134347_rgbf000111-resize_4/001055_2014-06-08_18-45-35_260595134347_rgbf000111-resize_4-target.png,125,2.4290000000000003,5,18516,124,feet,jsons/VE125_randls_64.json,2262271,2448011,32,Woman
75,644201,DepthScenes,duration_manipulation_targetAtFixation,jsons/VE125_randls_64.json,http://54.235.29.9/FacialAge/BNav_EC2/DepthDuration/v2_depth_duration_MTurk/v2_DepthDuration_HTML.html#122,122,1364,625,1364,768,8-30-2022,10-9-42,76,depth_duration_stimuli/000549_2014-06-08_22-10-24_260595134347_rgbf000247-resize_3/000549_2014-06-08_22-10-24_260595134347_rgbf000247-resize_3-target.png,125,1.841,4,8794,125,feet,jsons/VE125_randls_64.json,2262271,2448011,32,Woman
76,644201,DepthScenes,duration_manipulation_targetAtFixation,jsons/VE125_randls_64.json,http://54.235.29.9/FacialAge/BNav_EC2/DepthDuration/v2_depth_duration_MTurk/v2_DepthDuration_HTML.html#122,122,1364,625,1364,768,8-30-2022,10-9-42,77,depth_duration_stimuli/001164_2014-06-17_15-35-46_260595134347_rgbf000085-resize_3/001164_2014-06-17_15-35-46_260595134347_rgbf000085-resize_3-target.png,125,2.354,4,16543,125,feet,jsons/VE125_randls_64.json,2262271,2448011,32,Woman
77,644201,DepthScenes,duration_manipulation_targetAtFixation,jsons/VE125_randls_64.json,http://54.235.29.9/FacialAge/BNav_EC2/DepthDuration/v2_depth_duration_MTurk/v2_DepthDuration_HTML.html#122,122,1364,625,1364,768,8-30-2022,10-9-42,78,depth_duration_stimuli/001136_2014-06-17_15-19-41_260595134347_rgbf000076-resize_3/001136_2014-06-17_15-19-41_260595134347_rgbf000076-resize_3-target.png,125,1.8655,4,12257,124,feet,jsons/VE125_randls_64.json,2262271,2448011,32,Woman
78,644201,DepthScenes,duration_manipulation_targetAtFixation,jsons/VE125_randls_64.json,http://54.235.29.9/FacialAge/BNav_EC2/DepthDuration/v2_depth_duration_MTurk/v2_DepthDuration_HTML.html#122,122,1364,625,1364,768,8-30-2022,10-9-42,79,depth_duration_stimuli/000810_2014-06-08_17-20-01_260595134347_rgbf000105-resize_0/000810_2014-06-08_17-20-01_260595134347_rgbf000105-resize_0-target.png,125,1.4865,2,17541,125,feet,jsons/VE125_randls_64.json,2262271,2448011,32,Woman
79,644201,DepthScenes,duration_manipulation_targetAtFixation,jsons/VE125_randls_64.json,http://54.235.29.9/FacialAge/BNav_EC2/DepthDuration/v2_depth_duration_MTurk/v2_DepthDuration_HTML.html#122,122,1364,625,1364,768,8-30-2022,10-9-42,80,depth_duration_stimuli/001214_2014-06-17_16-13-55_260595134347_rgbf000111-resize_0/001214_2014-06-17_16-13-55_260595134347_rgbf000111-resize_0-target.png,125,2.6505,4,7939,125,feet,jsons/VE125_randls_64.json,2262271,2448011,32,Woman
80,644201,DepthScenes,duration_manipulation_targetAtFixation,jsons/VE125_randls_64.json,http://54.235.29.9/FacialAge/BNav_EC2/DepthDuration/v2_depth_duration_MTurk/v2_DepthDuration_HTML.html#122,122,1364,625,1364,768,8-30-2022,10-9-42,81,depth_duration_stimuli/001092_2014-06-15_17-34-58_260595134347_rgbf000171-resize_3/001092_2014-06-15_17-34-58_260595134347_rgbf000171-resize_3-target.png,125,2.6935,4,9794,121,feet,jsons/VE125_randls_64.json,2262271,2448011,32,Woman
81,644201,DepthScenes,duration_manipulation_targetAtFixation,jsons/VE125_randls_64.json,http://54.235.29.9/FacialAge/BNav_EC2/DepthDuration/v2_depth_duration_MTurk/v2_DepthDuration_HTML.html#122,122,1364,625,1364,768,8-30-2022,10-9-42,82,depth_duration_stimuli/002545_2014-06-24_13-38-53_094959634447_rgbf000080-resize_4/002545_2014-06-24_13-38-53_094959634447_rgbf000080-resize_4-target.png,125,1.9205,7,7498,49,feet,jsons/VE125_randls_64.json,2262271,2448011,32,Woman
82,644201,DepthScenes,duration_manipulation_targetAtFixation,jsons/VE125_randls_64.json,http://54.235.29.9/FacialAge/BNav_EC2/DepthDuration/v2_depth_duration_MTurk/v2_DepthDuration_HTML.html#122,122,1364,625,1364,768,8-30-2022,10-9-42,83,depth_duration_stimuli/000692_2014-06-08_13-09-42_260595134347_rgbf000199-resize_2/000692_2014-06-08_13-09-42_260595134347_rgbf000199-resize_2-target.png,125,3.661,7,9658,124,feet,jsons/VE125_randls_64.json,2262271,2448011,32,Woman
83,644201,DepthScenes,duration_manipulation_targetAtFixation,jsons/VE125_randls_64.json,http://54.235.29.9/FacialAge/BNav_EC2/DepthDuration/v2_depth_duration_MTurk/v2_DepthDuration_HTML.html#122,122,1364,625,1364,768,8-30-2022,10-9-42,84,depth_duration_stimuli/001094_2014-06-15_17-36-00_260595134347_rgbf000205-resize_0/001094_2014-06-15_17-36-00_260595134347_rgbf000205-resize_0-target.png,125,4.2175,7,7139,126,feet,jsons/VE125_randls_64.json,2262271,2448011,32,Woman
84,644201,DepthScenes,duration_manipulation_targetAtFixation,jsons/VE125_randls_64.json,http://54.235.29.9/FacialAge/BNav_EC2/DepthDuration/v2_depth_duration_MTurk/v2_DepthDuration_HTML.html#122,122,1364,625,1364,768,8-30-2022,10-9-42,85,depth_duration_stimuli/002570_2014-06-24_13-59-54_094959634447_rgbf000059-resize_0/002570_2014-06-24_13-59-54_094959634447_rgbf000059-resize_0-target.png,125,4.037,1,12940,207,feet,jsons/VE125_randls_64.json,2262271,2448011,32,Woman
85,644201,DepthScenes,duration_manipulation_targetAtFixation,jsons/VE125_randls_64.json,http://54.235.29.9/FacialAge/BNav_EC2/DepthDuration/v2_depth_duration_MTurk/v2_DepthDuration_HTML.html#122,122,1364,625,1364,768,8-30-2022,10-9-42,86,depth_duration_stimuli/002467_2014-06-28_20-38-07_260595134347_rgbf000026-resize_2/002467_2014-06-28_20-38-07_260595134347_rgbf000026-resize_2-target.png,125,4.742,7,9418,125,feet,jsons/VE125_randls_64.json,2262271,2448011,32,Woman
86,644201,DepthScenes,duration_manipulation_targetAtFixation,jsons/VE125_randls_64.json,http://54.235.29.9/FacialAge/BNav_EC2/DepthDuration/v2_depth_duration_MTurk/v2_DepthDuration_HTML.html#122,122,1364,625,1364,768,8-30-2022,10-9-42,87,depth_duration_stimuli/000682_2014-06-08_23-14-58_260595134347_rgbf000041-resize_5/000682_2014-06-08_23-14-58_260595134347_rgbf000041-resize_5-target.png,125,2.7239999999999998,8,10548,122,feet,jsons/VE125_randls_64.json,2262271,2448011,32,Woman
87,644201,DepthScenes,duration_manipulation_targetAtFixation,jsons/VE125_randls_64.json,http://54.235.29.9/FacialAge/BNav_EC2/DepthDuration/v2_depth_duration_MTurk/v2_DepthDuration_HTML.html#122,122,1364,625,1364,768,8-30-2022,10-9-42,88,depth_duration_stimuli/001650_2014-06-20_12-09-00_260595134347_rgbf000087-resize_3/001650_2014-06-20_12-09-00_260595134347_rgbf000087-resize_3-target.png,125,1.9505,7,6241,126,feet,jsons/VE125_randls_64.json,2262271,2448011,32,Woman
88,644201,DepthScenes,duration_manipulation_targetAtFixation,jsons/VE125_randls_64.json,http://54.235.29.9/FacialAge/BNav_EC2/DepthDuration/v2_depth_duration_MTurk/v2_DepthDuration_HTML.html#122,122,1364,625,1364,768,8-30-2022,10-9-42,89,depth_duration_stimuli/002153_2014-06-25_21-27-18_260595134347_rgbf000038-resize_5/002153_2014-06-25_21-27-18_260595134347_rgbf000038-resize_5-target.png,125,2.505,4,10811,125,feet,jsons/VE125_randls_64.json,2262271,2448011,32,Woman
89,644201,DepthScenes,duration_manipulation_targetAtFixation,jsons/VE125_randls_64.json,http://54.235.29.9/FacialAge/BNav_EC2/DepthDuration/v2_depth_duration_MTurk/v2_DepthDuration_HTML.html#122,122,1364,625,1364,768,8-30-2022,10-9-42,90,depth_duration_stimuli/002660_2014-06-13_15-44-18_094959634447_rgbf001878-resize_2/002660_2014-06-13_15-44-18_094959634447_rgbf001878-resize_2-target.png,125,3.576,7,8132,125,feet,jsons/VE125_randls_64.json,2262271,2448011,32,Woman
90,644201,DepthScenes,duration_manipulation_targetAtFixation,jsons/VE125_randls_64.json,http://54.235.29.9/FacialAge/BNav_EC2/DepthDuration/v2_depth_duration_MTurk/v2_DepthDuration_HTML.html#122,122,1364,625,1364,768,8-30-2022,10-9-42,91,depth_duration_stimuli/000788_2014-06-08_22-34-36_260595134347_rgbf000131-resize_1/000788_2014-06-08_22-34-36_260595134347_rgbf000131-resize_1-target.png,125,3.359,2,13014,125,feet,jsons/VE125_randls_64.json,2262271,2448011,32,Woman
91,644201,DepthScenes,duration_manipulation_targetAtFixation,jsons/VE125_randls_64.json,http://54.235.29.9/FacialAge/BNav_EC2/DepthDuration/v2_depth_duration_MTurk/v2_DepthDuration_HTML.html#122,122,1364,625,1364,768,8-30-2022,10-9-42,92,depth_duration_stimuli/001235_2014-06-17_16-37-36_260595134347_rgbf000084-resize_4/001235_2014-06-17_16-37-36_260595134347_rgbf000084-resize_4-target.png,125,3.6605,5,5506,123,feet,jsons/VE125_randls_64.json,2262271,2448011,32,Woman
92,644201,DepthScenes,duration_manipulation_targetAtFixation,jsons/VE125_randls_64.json,http://54.235.29.9/FacialAge/BNav_EC2/DepthDuration/v2_depth_duration_MTurk/v2_DepthDuration_HTML.html#122,122,1364,625,1364,768,8-30-2022,10-9-42,93,depth_duration_stimuli/002213_2014-06-28_18-37-58_260595134347_rgbf000055-resize_1/002213_2014-06-28_18-37-58_260595134347_rgbf000055-resize_1-target.png,125,3.62,8,9281,127,feet,jsons/VE125_randls_64.json,2262271,2448011,32,Woman
93,644201,DepthScenes,duration_manipulation_targetAtFixation,jsons/VE125_randls_64.json,http://54.235.29.9/FacialAge/BNav_EC2/DepthDuration/v2_depth_duration_MTurk/v2_DepthDuration_HTML.html#122,122,1364,625,1364,768,8-30-2022,10-9-42,94,depth_duration_stimuli/000691_2014-06-08_13-08-50_260595134347_rgbf000132-resize_3/000691_2014-06-08_13-08-50_260595134347_rgbf000132-resize_3-target.png,125,4.1530000000000005,5,10094,124,feet,jsons/VE125_randls_64.json,2262271,2448011,32,Woman
94,644201,DepthScenes,duration_manipulation_targetAtFixation,jsons/VE125_randls_64.json,http://54.235.29.9/FacialAge/BNav_EC2/DepthDuration/v2_depth_duration_MTurk/v2_DepthDuration_HTML.html#122,122,1364,625,1364,768,8-30-2022,10-9-42,95,depth_duration_stimuli/002663_2014-06-13_15-50-26_094959634447_rgbf000075-resize_1/002663_2014-06-13_15-50-26_094959634447_rgbf000075-resize_1-target.png,125,4.7495,6,8555,124,feet,jsons/VE125_randls_64.json,2262271,2448011,32,Woman
95,644201,DepthScenes,duration_manipulation_targetAtFixation,jsons/VE125_randls_64.json,http://54.235.29.9/FacialAge/BNav_EC2/DepthDuration/v2_depth_duration_MTurk/v2_DepthDuration_HTML.html#122,122,1364,625,1364,768,8-30-2022,10-9-42,96,depth_duration_stimuli/000409_2014-06-04_19-23-33_260595134347_rgbf000067-resize_0/000409_2014-06-04_19-23-33_260595134347_rgbf000067-resize_0-target.png,125,3.7335,6,4995,124,feet,jsons/VE125_randls_64.json,2262271,2448011,32,Woman
96,644201,DepthScenes,duration_manipulation_targetAtFixation,jsons/VE125_randls_64.json,http://54.235.29.9/FacialAge/BNav_EC2/DepthDuration/v2_depth_duration_MTurk/v2_DepthDuration_HTML.html#122,122,1364,625,1364,768,8-30-2022,10-9-42,97,depth_duration_stimuli/000486_2014-06-09_20-47-20_260595134347_rgbf000143-resize_2/000486_2014-06-09_20-47-20_260595134347_rgbf000143-resize_2-target.png,125,4.8325,58,19752,125,feet,jsons/VE125_randls_64.json,2262271,2448011,32,Woman
97,644201,DepthScenes,duration_manipulation_targetAtFixation,jsons/VE125_randls_64.json,http://54.235.29.9/FacialAge/BNav_EC2/DepthDuration/v2_depth_duration_MTurk/v2_DepthDuration_HTML.html#122,122,1364,625,1364,768,8-30-2022,10-9-42,98,depth_duration_stimuli/003083_2014-06-15_15-21-03_094959634447_rgbf000063-resize_1/003083_2014-06-15_15-21-03_094959634447_rgbf000063-resize_1-target.png,125,4.1405,6,6418,124,feet,jsons/VE125_randls_64.json,2262271,2448011,32,Woman
98,644201,DepthScenes,duration_manipulation_targetAtFixation,jsons/VE125_randls_64.json,http://54.235.29.9/FacialAge/BNav_EC2/DepthDuration/v2_depth_duration_MTurk/v2_DepthDuration_HTML.html#122,122,1364,625,1364,768,8-30-2022,10-9-42,99,depth_duration_stimuli/001540_2014-06-20_17-01-05_260595134347_rgbf000086-resize_2/001540_2014-06-20_17-01-05_260595134347_rgbf000086-resize-original.jpg,125,1.459,9,10337,124,feet,jsons/VE125_randls_64.json,2262271,2448011,32,Woman
99,644201,DepthScenes,duration_manipulation_targetAtFixation,jsons/VE125_randls_64.json,http://54.235.29.9/FacialAge/BNav_EC2/DepthDuration/v2_depth_duration_MTurk/v2_DepthDuration_HTML.html#122,122,1364,625,1364,768,8-30-2022,10-9-42,100,depth_duration_stimuli/000368_2014-06-09_15-53-01_260595134347_rgbf000155-resize_2/000368_2014-06-09_15-53-01_260595134347_rgbf000155-resize_2-target.png,125,2.4859999999999998,5,18027,126,feet,jsons/VE125_randls_64.json,2262271,2448011,32,Woman
100,644201,DepthScenes,duration_manipulation_targetAtFixation,jsons/VE125_randls_64.json,http://54.235.29.9/FacialAge/BNav_EC2/DepthDuration/v2_depth_duration_MTurk/v2_DepthDuration_HTML.html#122,122,1364,625,1364,768,8-30-2022,10-9-42,101,depth_duration_stimuli/002678_2014-06-13_16-15-32_094959634447_rgbf000151-resize_6/002678_2014-06-13_16-15-32_094959634447_rgbf000151-resize_6-target.png,125,2.1830000000000003,9,7548,125,feet,jsons/VE125_randls_64.json,2262271,2448011,32,Woman
101,644201,DepthScenes,duration_manipulation_targetAtFixation,jsons/VE125_randls_64.json,http://54.235.29.9/FacialAge/BNav_EC2/DepthDuration/v2_depth_duration_MTurk/v2_DepthDuration_HTML.html#122,122,1364,625,1364,768,8-30-2022,10-9-42,102,depth_duration_stimuli/002725_2014-06-22_11-47-51_094959634447_rgbf000070-resize_1/002725_2014-06-22_11-47-51_094959634447_rgbf000070-resize_1-target.png,125,2.195,5,10629,148,feet,jsons/VE125_randls_64.json,2262271,2448011,32,Woman
102,644201,DepthScenes,duration_manipulation_targetAtFixation,jsons/VE125_randls_64.json,http://54.235.29.9/FacialAge/BNav_EC2/DepthDuration/v2_depth_duration_MTurk/v2_DepthDuration_HTML.html#122,122,1364,625,1364,768,8-30-2022,10-9-42,103,depth_duration_stimuli/002344_2014-06-28_20-06-29_260595134347_rgbf000030-resize_1/002344_2014-06-28_20-06-29_260595134347_rgbf000030-resize_1-target.png,125,1.5795,1,5151,124,feet,jsons/VE125_randls_64.json,2262271,2448011,32,Woman
103,644201,DepthScenes,duration_manipulation_targetAtFixation,jsons/VE125_randls_64.json,http://54.235.29.9/FacialAge/BNav_EC2/DepthDuration/v2_depth_duration_MTurk/v2_DepthDuration_HTML.html#122,122,1364,625,1364,768,8-30-2022,10-9-42,104,depth_duration_stimuli/002784_2014-06-22_19-26-30_094959634447_rgbf000083-resize_3/002784_2014-06-22_19-26-30_094959634447_rgbf000083-resize_3-target.png,125,1.8046666666667,9,9797,123,feet,jsons/VE125_randls_64.json,2262271,2448011,32,Woman
104,644201,DepthScenes,duration_manipulation_targetAtFixation,jsons/VE125_randls_64.json,http://54.235.29.9/FacialAge/BNav_EC2/DepthDuration/v2_depth_duration_MTurk/v2_DepthDuration_HTML.html#122,122,1364,625,1364,768,8-30-2022,10-9-42,105,depth_duration_stimuli/001100_2014-06-15_17-46-26_260595134347_rgbf000225-resize_2/001100_2014-06-15_17-46-26_260595134347_rgbf000225-resize_2-target.png,125,2.24,5,7772,124,feet,jsons/VE125_randls_64.json,2262271,2448011,32,Woman
105,644201,DepthScenes,duration_manipulation_targetAtFixation,jsons/VE125_randls_64.json,http://54.235.29.9/FacialAge/BNav_EC2/DepthDuration/v2_depth_duration_MTurk/v2_DepthDuration_HTML.html#122,122,1364,625,1364,768,8-30-2022,10-9-42,106,depth_duration_stimuli/001570_2014-06-20_17-21-09_260595134347_rgbf000135-resize_4/001570_2014-06-20_17-21-09_260595134347_rgbf000135-resize_4-target.png,125,4.467,7,13305,126,feet,jsons/VE125_randls_64.json,2262271,2448011,32,Woman
106,644201,DepthScenes,duration_manipulation_targetAtFixation,jsons/VE125_randls_64.json,http://54.235.29.9/FacialAge/BNav_EC2/DepthDuration/v2_depth_duration_MTurk/v2_DepthDuration_HTML.html#122,122,1364,625,1364,768,8-30-2022,10-9-42,107,depth_duration_stimuli/001392_2014-06-19_16-07-59_260595134347_rgbf000046-resize_1/001392_2014-06-19_16-07-59_260595134347_rgbf000046-resize_1-target.png,125,4.135,9,6765,126,feet,jsons/VE125_randls_64.json,2262271,2448011,32,Woman
107,644201,DepthScenes,duration_manipulation_targetAtFixation,jsons/VE125_randls_64.json,http://54.235.29.9/FacialAge/BNav_EC2/DepthDuration/v2_depth_duration_MTurk/v2_DepthDuration_HTML.html#122,122,1364,625,1364,768,8-30-2022,10-9-42,108,depth_duration_stimuli/002445_2014-06-28_20-32-16_260595134347_rgbf000029-resize_4/002445_2014-06-28_20-32-16_260595134347_rgbf000029-resize_4-target.png,125,2.5315,5,13132,124,feet,jsons/VE125_randls_64.json,2262271,2448011,32,Woman
108,644201,DepthScenes,duration_manipulation_targetAtFixation,jsons/VE125_randls_64.json,http://54.235.29.9/FacialAge/BNav_EC2/DepthDuration/v2_depth_duration_MTurk/v2_DepthDuration_HTML.html#122,122,1364,625,1364,768,8-30-2022,10-9-42,109,depth_duration_stimuli/000780_2014-06-08_22-28-29_260595134347_rgbf000126-resize_1/000780_2014-06-08_22-28-29_260595134347_rgbf000126-resize_1-target.png,125,3.3825,9,4187,125,feet,jsons/VE125_randls_64.json,2262271,2448011,32,Woman
109,644201,DepthScenes,duration_manipulation_targetAtFixation,jsons/VE125_randls_64.json,http://54.235.29.9/FacialAge/BNav_EC2/DepthDuration/v2_depth_duration_MTurk/v2_DepthDuration_HTML.html#122,122,1364,625,1364,768,8-30-2022,10-9-42,110,depth_duration_stimuli/001449_2014-06-19_17-01-27_260595134347_rgbf000116-resize_2/001449_2014-06-19_17-01-27_260595134347_rgbf000116-resize_2-target.png,125,3.452,9,8903,125,feet,jsons/VE125_randls_64.json,2262271,2448011,32,Woman
110,644201,DepthScenes,duration_manipulation_targetAtFixation,jsons/VE125_randls_64.json,http://54.235.29.9/FacialAge/BNav_EC2/DepthDuration/v2_depth_duration_MTurk/v2_DepthDuration_HTML.html#122,122,1364,625,1364,768,8-30-2022,10-9-42,111,depth_duration_stimuli/001450_2014-06-19_17-02-03_260595134347_rgbf000203-resize_4/001450_2014-06-19_17-02-03_260595134347_rgbf000203-resize_4-target.png,125,4.0106666666667,7,6419,126,feet,jsons/VE125_randls_64.json,2262271,2448011,32,Woman
111,644201,DepthScenes,duration_manipulation_targetAtFixation,jsons/VE125_randls_64.json,http://54.235.29.9/FacialAge/BNav_EC2/DepthDuration/v2_depth_duration_MTurk/v2_DepthDuration_HTML.html#122,122,1364,625,1364,768,8-30-2022,10-9-42,112,depth_duration_stimuli/000009_2014-05-26_14-32-05_260595134347_rgbf000034-resize_3/000009_2014-05-26_14-32-05_260595134347_rgbf000034-resize_3-target.png,125,3.8715,5,10852,125,feet,jsons/VE125_randls_64.json,2262271,2448011,32,Woman
112,644201,DepthScenes,duration_manipulation_targetAtFixation,jsons/VE125_randls_64.json,http://54.235.29.9/FacialAge/BNav_EC2/DepthDuration/v2_depth_duration_MTurk/v2_DepthDuration_HTML.html#122,122,1364,625,1364,768,8-30-2022,10-9-42,113,depth_duration_stimuli/001828_2014-06-26_21-40-03_260595134347_rgbf000024-resize_0/001828_2014-06-26_21-40-03_260595134347_rgbf000024-resize_0-target.png,125,4.8260000000000005,6,4374,125,feet,jsons/VE125_randls_64.json,2262271,2448011,32,Woman
113,644201,DepthScenes,duration_manipulation_targetAtFixation,jsons/VE125_randls_64.json,http://54.235.29.9/FacialAge/BNav_EC2/DepthDuration/v2_depth_duration_MTurk/v2_DepthDuration_HTML.html#122,122,1364,625,1364,768,8-30-2022,10-9-42,114,depth_duration_stimuli/000447_2014-06-08_16-15-46_260595134347_rgbf000130-resize_1/000447_2014-06-08_16-15-46_260595134347_rgbf000130-resize_1-target.png,125,4.479,6,9832,126,feet,jsons/VE125_randls_64.json,2262271,2448011,32,Woman
114,644201,DepthScenes,duration_manipulation_targetAtFixation,jsons/VE125_randls_64.json,http://54.235.29.9/FacialAge/BNav_EC2/DepthDuration/v2_depth_duration_MTurk/v2_DepthDuration_HTML.html#122,122,1364,625,1364,768,8-30-2022,10-9-42,115,depth_duration_stimuli/001447_2014-06-19_17-00-32_260595134347_rgbf000082-resize_5/001447_2014-06-19_17-00-32_260595134347_rgbf000082-resize_5-target.png,125,4.13775,6,10341,126,feet,jsons/VE125_randls_64.json,2262271,2448011,32,Woman
115,644201,DepthScenes,duration_manipulation_targetAtFixation,jsons/VE125_randls_64.json,http://54.235.29.9/FacialAge/BNav_EC2/DepthDuration/v2_depth_duration_MTurk/v2_DepthDuration_HTML.html#122,122,1364,625,1364,768,8-30-2022,10-9-42,116,depth_duration_stimuli/001170_2014-06-17_15-43-44_260595134347_rgbf000096-resize_6/001170_2014-06-17_15-43-44_260595134347_rgbf000096-resize-original.jpg,125,1.1909999999999998,5,20301,126,feet,jsons/VE125_randls_64.json,2262271,2448011,32,Woman
116,644201,DepthScenes,duration_manipulation_targetAtFixation,jsons/VE125_randls_64.json,http://54.235.29.9/FacialAge/BNav_EC2/DepthDuration/v2_depth_duration_MTurk/v2_DepthDuration_HTML.html#122,122,1364,625,1364,768,8-30-2022,10-9-42,117,depth_duration_stimuli/002118_2014-06-25_20-32-08_260595134347_rgbf000078-resize_1/002118_2014-06-25_20-32-08_260595134347_rgbf000078-resize_1-target.png,125,2.6460000000000004,6,4786,124,feet,jsons/VE125_randls_64.json,2262271,2448011,32,Woman
117,644201,DepthScenes,duration_manipulation_targetAtFixation,jsons/VE125_randls_64.json,http://54.235.29.9/FacialAge/BNav_EC2/DepthDuration/v2_depth_duration_MTurk/v2_DepthDuration_HTML.html#122,122,1364,625,1364,768,8-30-2022,10-9-42,118,depth_duration_stimuli/001516_2014-06-20_16-25-09_260595134347_rgbf000076-resize_2/001516_2014-06-20_16-25-09_260595134347_rgbf000076-resize_2-target.png,125,1.7445,2,5444,125,feet,jsons/VE125_randls_64.json,2262271,2448011,32,Woman
118,644201,DepthScenes,duration_manipulation_targetAtFixation,jsons/VE125_randls_64.json,http://54.235.29.9/FacialAge/BNav_EC2/DepthDuration/v2_depth_duration_MTurk/v2_DepthDuration_HTML.html#122,122,1364,625,1364,768,8-30-2022,10-9-42,119,depth_duration_stimuli/001110_2014-06-15_17-25-28_260595134347_rgbf000150-resize_1/001110_2014-06-15_17-25-28_260595134347_rgbf000150-resize_1-target.png,125,1.7115,2,10979,125,feet,jsons/VE125_randls_64.json,2262271,2448011,32,Woman
119,644201,DepthScenes,duration_manipulation_targetAtFixation,jsons/VE125_randls_64.json,http://54.235.29.9/FacialAge/BNav_EC2/DepthDuration/v2_depth_duration_MTurk/v2_DepthDuration_HTML.html#122,122,1364,625,1364,768,8-30-2022,10-9-42,120,depth_duration_stimuli/000927_2014-06-09_16-32-30_260595134347_rgbf000123-resize_3/000927_2014-06-09_16-32-30_260595134347_rgbf000123-resize_3-target.png,125,2.6785,2,5195,125,feet,jsons/VE125_randls_64.json,2262271,2448011,32,Woman
120,644201,DepthScenes,duration_manipulation_targetAtFixation,jsons/VE125_randls_64.json,http://54.235.29.9/FacialAge/BNav_EC2/DepthDuration/v2_depth_duration_MTurk/v2_DepthDuration_HTML.html#122,122,1364,625,1364,768,8-30-2022,10-9-42,121,depth_duration_stimuli/003292_2014-05-14_21-53-49_094959634447_rgbf000100-resize_2/003292_2014-05-14_21-53-49_094959634447_rgbf000100-resize_2-target.png,125,3.4815,2,12561,124,feet,jsons/VE125_randls_64.json,2262271,2448011,32,Woman
121,644201,DepthScenes,duration_manipulation_targetAtFixation,jsons/VE125_randls_64.json,http://54.235.29.9/FacialAge/BNav_EC2/DepthDuration/v2_depth_duration_MTurk/v2_DepthDuration_HTML.html#122,122,1364,625,1364,768,8-30-2022,10-9-42,122,depth_duration_stimuli/002639_2014-06-24_14-51-37_094959634447_rgbf000074-resize_4/002639_2014-06-24_14-51-37_094959634447_rgbf000074-resize_4-target.png,125,4.0375,5,5327,126,feet,jsons/VE125_randls_64.json,2262271,2448011,32,Woman
122,644201,DepthScenes,duration_manipulation_targetAtFixation,jsons/VE125_randls_64.json,http://54.235.29.9/FacialAge/BNav_EC2/DepthDuration/v2_depth_duration_MTurk/v2_DepthDuration_HTML.html#122,122,1364,625,1364,768,8-30-2022,10-9-42,123,depth_duration_stimuli/000414_2014-06-04_19-49-13_260595134347_rgbf000044-resize_0/000414_2014-06-04_19-49-13_260595134347_rgbf000044-resize_0-target.png,125,4.329,5,15203,125,feet,jsons/VE125_randls_64.json,2262271,2448011,32,Woman
123,644201,DepthScenes,duration_manipulation_targetAtFixation,jsons/VE125_randls_64.json,http://54.235.29.9/FacialAge/BNav_EC2/DepthDuration/v2_depth_duration_MTurk/v2_DepthDuration_HTML.html#122,122,1364,625,1364,768,8-30-2022,10-9-42,124,depth_duration_stimuli/003129_2014-05-12_10-48-10_094959634447_rgbf000100-resize_0/003129_2014-05-12_10-48-10_094959634447_rgbf000100-resize_0-target.png,125,4.9305,8,10221,125,feet,jsons/VE125_randls_64.json,2262271,2448011,32,Woman
124,644201,DepthScenes,duration_manipulation_targetAtFixation,jsons/VE125_randls_64.json,http://54.235.29.9/FacialAge/BNav_EC2/DepthDuration/v2_depth_duration_MTurk/v2_DepthDuration_HTML.html#122,122,1364,625,1364,768,8-30-2022,10-9-42,125,depth_duration_stimuli/002057_2014-06-24_21-00-13_260595134347_rgbf000120-resize_1/002057_2014-06-24_21-00-13_260595134347_rgbf000120-resize_1-target.png,125,2.967,3,34149,144,feet,jsons/VE125_randls_64.json,2262271,2448011,32,Woman
125,644201,DepthScenes,duration_manipulation_targetAtFixation,jsons/VE125_randls_64.json,http://54.235.29.9/FacialAge/BNav_EC2/DepthDuration/v2_depth_duration_MTurk/v2_DepthDuration_HTML.html#122,122,1364,625,1364,768,8-30-2022,10-9-42,126,depth_duration_stimuli/000709_2014-06-08_13-51-55_260595134347_rgbf000068-resize_3/000709_2014-06-08_13-51-55_260595134347_rgbf000068-resize_3-target.png,125,1.8030000000000002,6,6658,126,feet,jsons/VE125_randls_64.json,2262271,2448011,32,Woman
126,644201,DepthScenes,duration_manipulation_targetAtFixation,jsons/VE125_randls_64.json,http://54.235.29.9/FacialAge/BNav_EC2/DepthDuration/v2_depth_duration_MTurk/v2_DepthDuration_HTML.html#122,122,1364,625,1364,768,8-30-2022,10-9-42,127,depth_duration_stimuli/000906_2014-06-08_13-35-43_260595134347_rgbf000155-resize_1/000906_2014-06-08_13-35-43_260595134347_rgbf000155-resize_1-target.png,125,2.8489999999999998,6,19596,124,feet,jsons/VE125_randls_64.json,2262271,2448011,32,Woman
127,644201,DepthScenes,duration_manipulation_targetAtFixation,jsons/VE125_randls_64.json,http://54.235.29.9/FacialAge/BNav_EC2/DepthDuration/v2_depth_duration_MTurk/v2_DepthDuration_HTML.html#122,122,1364,625,1364,768,8-30-2022,10-9-42,128,depth_duration_stimuli/002805_2014-06-22_19-54-03_094959634447_rgbf000079-resize_1/002805_2014-06-22_19-54-03_094959634447_rgbf000079-resize_1-target.png,125,3.1439999999999997,6,4853,126,feet,jsons/VE125_randls_64.json,2262271,2448011,32,Woman
128,644201,DepthScenes,duration_manipulation_targetAtFixation,jsons/VE125_randls_64.json,http://54.235.29.9/FacialAge/BNav_EC2/DepthDuration/v2_depth_duration_MTurk/v2_DepthDuration_HTML.html#122,122,1364,625,1364,768,8-30-2022,10-9-42,129,depth_duration_stimuli/002600_2014-06-24_14-27-04_094959634447_rgbf000074-resize_2/002600_2014-06-24_14-27-04_094959634447_rgbf000074-resize_2-target.png,125,2.7575,6,7737,124,feet,jsons/VE125_randls_64.json,2262271,2448011,32,Woman
129,644201,DepthScenes,duration_manipulation_targetAtFixation,jsons/VE125_randls_64.json,http://54.235.29.9/FacialAge/BNav_EC2/DepthDuration/v2_depth_duration_MTurk/v2_DepthDuration_HTML.html#122,122,1364,625,1364,768,8-30-2022,10-9-42,130,depth_duration_stimuli/003228_2014-05-14_13-42-35_094959634447_rgbf000101-resize_1/003228_2014-05-14_13-42-35_094959634447_rgbf000101-resize_1-target.png,125,1.9680000000000002,6,5833,125,feet,jsons/VE125_randls_64.json,2262271,2448011,32,Woman
130,644201,DepthScenes,duration_manipulation_targetAtFixation,jsons/VE125_randls_64.json,http://54.235.29.9/FacialAge/BNav_EC2/DepthDuration/v2_depth_duration_MTurk/v2_DepthDuration_HTML.html#122,122,1364,625,1364,768,8-30-2022,10-9-42,131,depth_duration_stimuli/001150_2014-06-17_15-27-34_260595134347_rgbf000108-resize_2/001150_2014-06-17_15-27-34_260595134347_rgbf000108-resize_2-target.png,125,4.0325,6,11147,123,feet,jsons/VE125_randls_64.json,2262271,2448011,32,Woman
131,644201,DepthScenes,duration_manipulation_targetAtFixation,jsons/VE125_randls_64.json,http://54.235.29.9/FacialAge/BNav_EC2/DepthDuration/v2_depth_duration_MTurk/v2_DepthDuration_HTML.html#122,122,1364,625,1364,768,8-30-2022,10-9-42,132,depth_duration_stimuli/000665_2014-06-09_20-42-35_260595134347_rgbf000110-resize_1/000665_2014-06-09_20-42-35_260595134347_rgbf000110-resize_1-target.png,125,3.057,6,5652,126,feet,jsons/VE125_randls_64.json,2262271,2448011,32,Woman
132,644201,DepthScenes,duration_manipulation_targetAtFixation,jsons/VE125_randls_64.json,http://54.235.29.9/FacialAge/BNav_EC2/DepthDuration/v2_depth_duration_MTurk/v2_DepthDuration_HTML.html#122,122,1364,625,1364,768,8-30-2022,10-9-42,133,depth_duration_stimuli/001175_2014-06-17_15-45-55_260595134347_rgbf000129-resize_4/001175_2014-06-17_15-45-55_260595134347_rgbf000129-resize_4-target.png,125,4.255,5,9536,124,feet,jsons/VE125_randls_64.json,2262271,2448011,32,Woman
133,644201,DepthScenes,duration_manipulation_targetAtFixation,jsons/VE125_randls_64.json,http://54.235.29.9/FacialAge/BNav_EC2/DepthDuration/v2_depth_duration_MTurk/v2_DepthDuration_HTML.html#122,122,1364,625,1364,768,8-30-2022,10-9-42,134,depth_duration_stimuli/003490_2014-05-21_15-50-11_094959634447_rgbf000101-resize_3/003490_2014-05-21_15-50-11_094959634447_rgbf000101-resize_3-target.png,125,3.6445,4,5710,125,feet,jsons/VE125_randls_64.json,2262271,2448011,32,Woman
134,644201,DepthScenes,duration_manipulation_targetAtFixation,jsons/VE125_randls_64.json,http://54.235.29.9/FacialAge/BNav_EC2/DepthDuration/v2_depth_duration_MTurk/v2_DepthDuration_HTML.html#122,122,1364,625,1364,768,8-30-2022,10-9-42,135,depth_duration_stimuli/002072_2014-06-24_21-48-06_260595134347_rgbf000115-resize_0/002072_2014-06-24_21-48-06_260595134347_rgbf000115-resize-original.jpg,125,4.702,4,10237,125,feet,jsons/VE125_randls_64.json,2262271,2448011,32,Woman
135,644201,DepthScenes,duration_manipulation_targetAtFixation,jsons/VE125_randls_64.json,http://54.235.29.9/FacialAge/BNav_EC2/DepthDuration/v2_depth_duration_MTurk/v2_DepthDuration_HTML.html#122,122,1364,625,1364,768,8-30-2022,10-9-42,136,depth_duration_stimuli/000773_2014-06-08_22-24-54_260595134347_rgbf000093-resize_1/000773_2014-06-08_22-24-54_260595134347_rgbf000093-resize_1-target.png,125,4.973,6,21411,126,feet,jsons/VE125_randls_64.json,2262271,2448011,32,Woman
136,644201,DepthScenes,duration_manipulation_targetAtFixation,jsons/VE125_randls_64.json,http://54.235.29.9/FacialAge/BNav_EC2/DepthDuration/v2_depth_duration_MTurk/v2_DepthDuration_HTML.html#122,122,1364,625,1364,768,8-30-2022,10-9-42,137,depth_duration_stimuli/002414_2014-06-28_20-24-58_260595134347_rgbf000067-resize_4/002414_2014-06-28_20-24-58_260595134347_rgbf000067-resize_4-target.png,125,4.363,5,8162,125,feet,jsons/VE125_randls_64.json,2262271,2448011,32,Woman
137,644201,DepthScenes,duration_manipulation_targetAtFixation,jsons/VE125_randls_64.json,http://54.235.29.9/FacialAge/BNav_EC2/DepthDuration/v2_depth_duration_MTurk/v2_DepthDuration_HTML.html#122,122,1364,625,1364,768,8-30-2022,10-9-42,138,depth_duration_stimuli/002375_2014-06-28_20-13-44_260595134347_rgbf000032-resize_1/002375_2014-06-28_20-13-44_260595134347_rgbf000032-resize_1-target.png,125,4.0175,7,12151,125,feet,jsons/VE125_randls_64.json,2262271,2448011,32,Woman
138,644201,DepthScenes,duration_manipulation_targetAtFixation,jsons/VE125_randls_64.json,http://54.235.29.9/FacialAge/BNav_EC2/DepthDuration/v2_depth_duration_MTurk/v2_DepthDuration_HTML.html#122,122,1364,625,1364,768,8-30-2022,10-9-42,139,depth_duration_stimuli/002657_2014-06-13_15-29-54_094959634447_rgbf000150-resize_1/002657_2014-06-13_15-29-54_094959634447_rgbf000150-resize_1-target.png,125,4.919,3,7519,123,feet,jsons/VE125_randls_64.json,2262271,2448011,32,Woman
139,644201,DepthScenes,duration_manipulation_targetAtFixation,jsons/VE125_randls_64.json,http://54.235.29.9/FacialAge/BNav_EC2/DepthDuration/v2_depth_duration_MTurk/v2_DepthDuration_HTML.html#122,122,1364,625,1364,768,8-30-2022,10-9-42,140,depth_duration_stimuli/001059_2014-06-08_21-53-27_260595134347_rgbf000061-resize_4/001059_2014-06-08_21-53-27_260595134347_rgbf000061-resize_4-target.png,125,2.4185,3,7002,125,feet,jsons/VE125_randls_64.json,2262271,2448011,32,Woman
140,644201,DepthScenes,duration_manipulation_targetAtFixation,jsons/VE125_randls_64.json,http://54.235.29.9/FacialAge/BNav_EC2/DepthDuration/v2_depth_duration_MTurk/v2_DepthDuration_HTML.html#122,122,1364,625,1364,768,8-30-2022,10-9-42,141,depth_duration_stimuli/001032_2014-06-08_13-23-17_260595134347_rgbf000021-resize_3/001032_2014-06-08_13-23-17_260595134347_rgbf000021-resize_3-target.png,125,3.2725,6,5260,125,feet,jsons/VE125_randls_64.json,2262271,2448011,32,Woman
141,644201,DepthScenes,duration_manipulation_targetAtFixation,jsons/VE125_randls_64.json,http://54.235.29.9/FacialAge/BNav_EC2/DepthDuration/v2_depth_duration_MTurk/v2_DepthDuration_HTML.html#122,122,1364,625,1364,768,8-30-2022,10-9-42,142,depth_duration_stimuli/001011_2014-06-08_23-18-54_260595134347_rgbf000044-resize_4/001011_2014-06-08_23-18-54_260595134347_rgbf000044-resize_4-target.png,125,2.4730000000000003,4,11532,132,feet,jsons/VE125_randls_64.json,2262271,2448011,32,Woman
142,644201,DepthScenes,duration_manipulation_targetAtFixation,jsons/VE125_randls_64.json,http://54.235.29.9/FacialAge/BNav_EC2/DepthDuration/v2_depth_duration_MTurk/v2_DepthDuration_HTML.html#122,122,1364,625,1364,768,8-30-2022,10-9-42,143,depth_duration_stimuli/002875_2014-06-01_15-19-00_094959634447_rgbf000151-resize_1/002875_2014-06-01_15-19-00_094959634447_rgbf000151-resize_1-target.png,125,1.9675,5,4842,125,feet,jsons/VE125_randls_64.json,2262271,2448011,32,Woman
143,644201,DepthScenes,duration_manipulation_targetAtFixation,jsons/VE125_randls_64.json,http://54.235.29.9/FacialAge/BNav_EC2/DepthDuration/v2_depth_duration_MTurk/v2_DepthDuration_HTML.html#122,122,1364,625,1364,768,8-30-2022,10-9-42,144,depth_duration_stimuli/001806_2014-06-26_20-50-20_260595134347_rgbf000091-resize_1/001806_2014-06-26_20-50-20_260595134347_rgbf000091-resize_1-target.png,125,2.7305,5,14252,124,feet,jsons/VE125_randls_64.json,2262271,2448011,32,Woman
144,644201,DepthScenes,duration_manipulation_targetAtFixation,jsons/VE125_randls_64.json,http://54.235.29.9/FacialAge/BNav_EC2/DepthDuration/v2_depth_duration_MTurk/v2_DepthDuration_HTML.html#122,122,1364,625,1364,768,8-30-2022,10-9-42,145,depth_duration_stimuli/001617_2014-06-20_11-35-32_260595134347_rgbf000066-resize_1/001617_2014-06-20_11-35-32_260595134347_rgbf000066-resize_1-target.png,125,3.7910000000000004,6,4108,82,feet,jsons/VE125_randls_64.json,2262271,2448011,32,Woman
145,644201,DepthScenes,duration_manipulation_targetAtFixation,jsons/VE125_randls_64.json,http://54.235.29.9/FacialAge/BNav_EC2/DepthDuration/v2_depth_duration_MTurk/v2_DepthDuration_HTML.html#122,122,1364,625,1364,768,8-30-2022,10-9-42,146,depth_duration_stimuli/001498_2014-06-19_17-45-14_260595134347_rgbf000129-resize_4/001498_2014-06-19_17-45-14_260595134347_rgbf000129-resize-original.jpg,125,1.4075,5,9946,126,feet,jsons/VE125_randls_64.json,2262271,2448011,32,Woman
146,644201,DepthScenes,duration_manipulation_targetAtFixation,jsons/VE125_randls_64.json,http://54.235.29.9/FacialAge/BNav_EC2/DepthDuration/v2_depth_duration_MTurk/v2_DepthDuration_HTML.html#122,122,1364,625,1364,768,8-30-2022,10-9-42,147,depth_duration_stimuli/000469_2014-06-09_19-42-10_260595134347_rgbf000081-resize_1/000469_2014-06-09_19-42-10_260595134347_rgbf000081-resize_1-target.png,125,1.652,5,8067,125,feet,jsons/VE125_randls_64.json,2262271,2448011,32,Woman
147,644201,DepthScenes,duration_manipulation_targetAtFixation,jsons/VE125_randls_64.json,http://54.235.29.9/FacialAge/BNav_EC2/DepthDuration/v2_depth_duration_MTurk/v2_DepthDuration_HTML.html#122,122,1364,625,1364,768,8-30-2022,10-9-42,148,depth_duration_stimuli/000483_2014-06-09_20-41-45_260595134347_rgbf000116-resize_4/000483_2014-06-09_20-41-45_260595134347_rgbf000116-resize_4-target.png,125,1.337,3,5223,125,feet,jsons/VE125_randls_64.json,2262271,2448011,32,Woman
148,644201,DepthScenes,duration_manipulation_targetAtFixation,jsons/VE125_randls_64.json,http://54.235.29.9/FacialAge/BNav_EC2/DepthDuration/v2_depth_duration_MTurk/v2_DepthDuration_HTML.html#122,122,1364,625,1364,768,8-30-2022,10-9-42,149,depth_duration_stimuli/001133_2014-06-17_14-49-16_260595134347_rgbf000100-resize_0/001133_2014-06-17_14-49-16_260595134347_rgbf000100-resize_0-target.png,125,4.2115,6,10529,125,feet,jsons/VE125_randls_64.json,2262271,2448011,32,Woman
149,644201,DepthScenes,duration_manipulation_targetAtFixation,jsons/VE125_randls_64.json,http://54.235.29.9/FacialAge/BNav_EC2/DepthDuration/v2_depth_duration_MTurk/v2_DepthDuration_HTML.html#122,122,1364,625,1364,768,8-30-2022,10-9-42,150,depth_duration_stimuli/001132_2014-06-17_14-48-54_260595134347_rgbf000100-resize_2/001132_2014-06-17_14-48-54_260595134347_rgbf000100-resize_2-target.png,125,3.753,4,8566,126,feet,jsons/VE125_randls_64.json,2262271,2448011,32,Woman
150,644201,DepthScenes,duration_manipulation_targetAtFixation,jsons/VE125_randls_64.json,http://54.235.29.9/FacialAge/BNav_EC2/DepthDuration/v2_depth_duration_MTurk/v2_DepthDuration_HTML.html#122,122,1364,625,1364,768,8-30-2022,10-9-42,151,depth_duration_stimuli/000522_2014-06-08_13-35-06_260595134347_rgbf000244-resize_1/000522_2014-06-08_13-35-06_260595134347_rgbf000244-resize_1-target.png,125,2.3715,2,8837,125,feet,jsons/VE125_randls_64.json,2262271,2448011,32,Woman
151,644201,DepthScenes,duration_manipulation_targetAtFixation,jsons/VE125_randls_64.json,http://54.235.29.9/FacialAge/BNav_EC2/DepthDuration/v2_depth_duration_MTurk/v2_DepthDuration_HTML.html#122,122,1364,625,1364,768,8-30-2022,10-9-42,152,depth_duration_stimuli/002949_2014-06-26_15-57-42_094959634447_rgbf000079-resize_1/002949_2014-06-26_15-57-42_094959634447_rgbf000079-resize_1-target.png,125,1.8915,5,24356,125,feet,jsons/VE125_randls_64.json,2262271,2448011,32,Woman
152,644201,DepthScenes,duration_manipulation_targetAtFixation,jsons/VE125_randls_64.json,http://54.235.29.9/FacialAge/BNav_EC2/DepthDuration/v2_depth_duration_MTurk/v2_DepthDuration_HTML.html#122,122,1364,625,1364,768,8-30-2022,10-9-42,153,depth_duration_stimuli/002549_2014-06-24_13-41-39_094959634447_rgbf000022-resize_3/002549_2014-06-24_13-41-39_094959634447_rgbf000022-resize_3-target.png,125,1.476,4,32363,124,feet,jsons/VE125_randls_64.json,2262271,2448011,32,Woman
153,644201,DepthScenes,duration_manipulation_targetAtFixation,jsons/VE125_randls_64.json,http://54.235.29.9/FacialAge/BNav_EC2/DepthDuration/v2_depth_duration_MTurk/v2_DepthDuration_HTML.html#122,122,1364,625,1364,768,8-30-2022,10-9-42,154,depth_duration_stimuli/002750_2014-06-22_19-08-03_094959634447_rgbf000094-resize_4/002750_2014-06-22_19-08-03_094959634447_rgbf000094-resize_4-target.png,125,2.354,2,16683,125,feet,jsons/VE125_randls_64.json,2262271,2448011,32,Woman
154,644201,DepthScenes,duration_manipulation_targetAtFixation,jsons/VE125_randls_64.json,http://54.235.29.9/FacialAge/BNav_EC2/DepthDuration/v2_depth_duration_MTurk/v2_DepthDuration_HTML.html#122,122,1364,625,1364,768,8-30-2022,10-9-42,155,depth_duration_stimuli/002905_2014-06-03_18-04-43_094959634447_rgbf000151-resize_2/002905_2014-06-03_18-04-43_094959634447_rgbf000151-resize_2-target.png,125,2.0295,6,10247,124,feet,jsons/VE125_randls_64.json,2262271,2448011,32,Woman
155,644201,DepthScenes,duration_manipulation_targetAtFixation,jsons/VE125_randls_64.json,http://54.235.29.9/FacialAge/BNav_EC2/DepthDuration/v2_depth_duration_MTurk/v2_DepthDuration_HTML.html#122,122,1364,625,1364,768,8-30-2022,10-9-42,156,depth_duration_stimuli/003423_2014-05-21_10-23-26_094959634447_rgbf002665-resize_2/003423_2014-05-21_10-23-26_094959634447_rgbf002665-resize_2-target.png,125,3.2575,3,4726,125,feet,jsons/VE125_randls_64.json,2262271,2448011,32,Woman
156,644201,DepthScenes,duration_manipulation_targetAtFixation,jsons/VE125_randls_64.json,http://54.235.29.9/FacialAge/BNav_EC2/DepthDuration/v2_depth_duration_MTurk/v2_DepthDuration_HTML.html#122,122,1364,625,1364,768,8-30-2022,10-9-42,157,depth_duration_stimuli/000436_2014-06-09_22-25-11_260595134347_rgbf000137-resize_1/000436_2014-06-09_22-25-11_260595134347_rgbf000137-resize_1-target.png,125,4.0705,2,7473,124,feet,jsons/VE125_randls_64.json,2262271,2448011,32,Woman
157,644201,DepthScenes,duration_manipulation_targetAtFixation,jsons/VE125_randls_64.json,http://54.235.29.9/FacialAge/BNav_EC2/DepthDuration/v2_depth_duration_MTurk/v2_DepthDuration_HTML.html#122,122,1364,625,1364,768,8-30-2022,10-9-42,158,depth_duration_stimuli/002444_2014-06-28_20-32-08_260595134347_rgbf000027-resize_0/002444_2014-06-28_20-32-08_260595134347_rgbf000027-resize_0-target.png,125,4.388999999999999,2,9420,125,feet,jsons/VE125_randls_64.json,2262271,2448011,32,Woman
158,644201,DepthScenes,duration_manipulation_targetAtFixation,jsons/VE125_randls_64.json,http://54.235.29.9/FacialAge/BNav_EC2/DepthDuration/v2_depth_duration_MTurk/v2_DepthDuration_HTML.html#122,122,1364,625,1364,768,8-30-2022,10-9-42,159,depth_duration_stimuli/003534_2014-05-22_15-06-10_094959634447_rgbf000102-resize_4/003534_2014-05-22_15-06-10_094959634447_rgbf000102-resize_4-target.png,125,1.426,5,41453,125,feet,jsons/VE125_randls_64.json,2262271,2448011,32,Woman
159,644201,DepthScenes,duration_manipulation_targetAtFixation,jsons/VE125_randls_64.json,http://54.235.29.9/FacialAge/BNav_EC2/DepthDuration/v2_depth_duration_MTurk/v2_DepthDuration_HTML.html#122,122,1364,625,1364,768,8-30-2022,10-9-42,160,depth_duration_stimuli/002637_2014-06-24_14-51-13_094959634447_rgbf000066-resize_4/002637_2014-06-24_14-51-13_094959634447_rgbf000066-resize_4-target.png,125,1.9955,2,11322,125,feet,jsons/VE125_randls_64.json,2262271,2448011,32,Woman
160,644201,DepthScenes,duration_manipulation_targetAtFixation,jsons/VE125_randls_64.json,http://54.235.29.9/FacialAge/BNav_EC2/DepthDuration/v2_depth_duration_MTurk/v2_DepthDuration_HTML.html#122,122,1364,625,1364,768,8-30-2022,10-9-42,161,depth_duration_stimuli/001158_2014-06-17_15-32-16_260595134347_rgbf000138-resize_2/001158_2014-06-17_15-32-16_260595134347_rgbf000138-resize_2-target.png,125,4.5315,5,7354,125,feet,jsons/VE125_randls_64.json,2262271,2448011,32,Woman
161,644201,DepthScenes,duration_manipulation_targetAtFixation,jsons/VE125_randls_64.json,http://54.235.29.9/FacialAge/BNav_EC2/DepthDuration/v2_depth_duration_MTurk/v2_DepthDuration_HTML.html#122,122,1364,625,1364,768,8-30-2022,10-9-42,162,depth_duration_stimuli/000556_2014-06-09_22-42-56_260595134347_rgbf000214-resize_1/000556_2014-06-09_22-42-56_260595134347_rgbf000214-resize_1-target.png,125,4.8415,5,3419,125,feet,jsons/VE125_randls_64.json,2262271,2448011,32,Woman
162,644201,DepthScenes,duration_manipulation_targetAtFixation,jsons/VE125_randls_64.json,http://54.235.29.9/FacialAge/BNav_EC2/DepthDuration/v2_depth_duration_MTurk/v2_DepthDuration_HTML.html#122,122,1364,625,1364,768,8-30-2022,10-9-42,163,depth_duration_stimuli/002630_2014-06-24_14-47-50_094959634447_rgbf000055-resize_1/002630_2014-06-24_14-47-50_094959634447_rgbf000055-resize_1-target.png,125,3.0095,5,7003,126,feet,jsons/VE125_randls_64.json,2262271,2448011,32,Woman
163,644201,DepthScenes,duration_manipulation_targetAtFixation,jsons/VE125_randls_64.json,http://54.235.29.9/FacialAge/BNav_EC2/DepthDuration/v2_depth_duration_MTurk/v2_DepthDuration_HTML.html#122,122,1364,625,1364,768,8-30-2022,10-9-42,164,depth_duration_stimuli/002758_2014-06-22_19-11-20_094959634447_rgbf000128-resize_1/002758_2014-06-22_19-11-20_094959634447_rgbf000128-resize_1-target.png,125,2.555,5,4143,124,feet,jsons/VE125_randls_64.json,2262271,2448011,32,Woman
