,subjID,experimentName,versionName,sequenceName,url,selected_row,windowWidth,windowHeight,screenWidth,screenHeight,startDate,startTime,trial,stimulus,duration,actual_depth,depth_estimate,trial_RT,log_sceneDuration,unitSelection,seq_filepath,experimentTime,totalTime,age,gender
0,644462,DepthScenes,duration_manipulation_targetAtFixation,jsons/v1_VE1000_randls_23_rotated.json,http://54.235.29.9/FacialAge/BNav_EC2/DepthDuration/v2_depth_duration_MTurk/v2_DepthDuration_HTML.html#216,216,1366,625,1366,768,8-29-2022,15-30-54,1,depth_duration_stimuli/002637_2014-06-24_14-51-13_094959634447_rgbf000066-resize_4/002637_2014-06-24_14-51-13_094959634447_rgbf000066-resize_4-target.png,1000,1.9955,5,7088,1012,feet,jsons/v1_VE1000_randls_23_rotated.json,1255869,1467657,25,Woman
1,644462,DepthScenes,duration_manipulation_targetAtFixation,jsons/v1_VE1000_randls_23_rotated.json,http://54.235.29.9/FacialAge/BNav_EC2/DepthDuration/v2_depth_duration_MTurk/v2_DepthDuration_HTML.html#216,216,1366,625,1366,768,8-29-2022,15-30-54,2,depth_duration_stimuli/003534_2014-05-22_15-06-10_094959634447_rgbf000102-resize_4/003534_2014-05-22_15-06-10_094959634447_rgbf000102-resize_4-target.png,1000,1.426,5,4655,1000,feet,jsons/v1_VE1000_randls_23_rotated.json,1255869,1467657,25,Woman
2,644462,DepthScenes,duration_manipulation_targetAtFixation,jsons/v1_VE1000_randls_23_rotated.json,http://54.235.29.9/FacialAge/BNav_EC2/DepthDuration/v2_depth_duration_MTurk/v2_DepthDuration_HTML.html#216,216,1366,625,1366,768,8-29-2022,15-30-54,3,depth_duration_stimuli/000502_2014-06-08_23-02-32_260595134347_rgbf000063-resize_4/000502_2014-06-08_23-02-32_260595134347_rgbf000063-resize_4-target.png,1000,2.431,4,5150,1003,feet,jsons/v1_VE1000_randls_23_rotated.json,1255869,1467657,25,Woman
3,644462,DepthScenes,duration_manipulation_targetAtFixation,jsons/v1_VE1000_randls_23_rotated.json,http://54.235.29.9/FacialAge/BNav_EC2/DepthDuration/v2_depth_duration_MTurk/v2_DepthDuration_HTML.html#216,216,1366,625,1366,768,8-29-2022,15-30-54,4,depth_duration_stimuli/001199_2014-06-17_16-03-48_260595134347_rgbf000077-resize_0/001199_2014-06-17_16-03-48_260595134347_rgbf000077-resize_0-target.png,1000,3.4375,6,4168,998,feet,jsons/v1_VE1000_randls_23_rotated.json,1255869,1467657,25,Woman
4,644462,DepthScenes,duration_manipulation_targetAtFixation,jsons/v1_VE1000_randls_23_rotated.json,http://54.235.29.9/FacialAge/BNav_EC2/DepthDuration/v2_depth_duration_MTurk/v2_DepthDuration_HTML.html#216,216,1366,625,1366,768,8-29-2022,15-30-54,5,depth_duration_stimuli/001584_2014-06-20_11-07-43_260595134347_rgbf000002-resize_1/001584_2014-06-20_11-07-43_260595134347_rgbf000002-resize_1-target.png,1000,3.53,6,6106,1008,feet,jsons/v1_VE1000_randls_23_rotated.json,1255869,1467657,25,Woman
5,644462,DepthScenes,duration_manipulation_targetAtFixation,jsons/v1_VE1000_randls_23_rotated.json,http://54.235.29.9/FacialAge/BNav_EC2/DepthDuration/v2_depth_duration_MTurk/v2_DepthDuration_HTML.html#216,216,1366,625,1366,768,8-29-2022,15-30-54,6,depth_duration_stimuli/003621_2014-05-23_18-06-08_094959634447_rgbf000101-resize_1/003621_2014-05-23_18-06-08_094959634447_rgbf000101-resize_1-target.png,1000,3.9835,6,7393,994,feet,jsons/v1_VE1000_randls_23_rotated.json,1255869,1467657,25,Woman
6,644462,DepthScenes,duration_manipulation_targetAtFixation,jsons/v1_VE1000_randls_23_rotated.json,http://54.235.29.9/FacialAge/BNav_EC2/DepthDuration/v2_depth_duration_MTurk/v2_DepthDuration_HTML.html#216,216,1366,625,1366,768,8-29-2022,15-30-54,7,depth_duration_stimuli/001392_2014-06-19_16-07-59_260595134347_rgbf000046-resize_1/001392_2014-06-19_16-07-59_260595134347_rgbf000046-resize_1-target.png,1000,4.135,6,6451,1013,feet,jsons/v1_VE1000_randls_23_rotated.json,1255869,1467657,25,Woman
7,644462,DepthScenes,duration_manipulation_targetAtFixation,jsons/v1_VE1000_randls_23_rotated.json,http://54.235.29.9/FacialAge/BNav_EC2/DepthDuration/v2_depth_duration_MTurk/v2_DepthDuration_HTML.html#216,216,1366,625,1366,768,8-29-2022,15-30-54,8,depth_duration_stimuli/001570_2014-06-20_17-21-09_260595134347_rgbf000135-resize_4/001570_2014-06-20_17-21-09_260595134347_rgbf000135-resize_4-target.png,1000,4.467,8,15318,989,feet,jsons/v1_VE1000_randls_23_rotated.json,1255869,1467657,25,Woman
8,644462,DepthScenes,duration_manipulation_targetAtFixation,jsons/v1_VE1000_randls_23_rotated.json,http://54.235.29.9/FacialAge/BNav_EC2/DepthDuration/v2_depth_duration_MTurk/v2_DepthDuration_HTML.html#216,216,1366,625,1366,768,8-29-2022,15-30-54,9,depth_duration_stimuli/001815_2014-06-26_20-52-55_260595134347_rgbf000020-resize_0/001815_2014-06-26_20-52-55_260595134347_rgbf000020-resize_0-target.png,1000,3.3865,7,17220,1008,feet,jsons/v1_VE1000_randls_23_rotated.json,1255869,1467657,25,Woman
9,644462,DepthScenes,duration_manipulation_targetAtFixation,jsons/v1_VE1000_randls_23_rotated.json,http://54.235.29.9/FacialAge/BNav_EC2/DepthDuration/v2_depth_duration_MTurk/v2_DepthDuration_HTML.html#216,216,1366,625,1366,768,8-29-2022,15-30-54,10,depth_duration_stimuli/001808_2014-06-26_20-50-58_260595134347_rgbf000029-resize_1/001808_2014-06-26_20-50-58_260595134347_rgbf000029-resize_1-target.png,1000,4.249,7,49542,987,feet,jsons/v1_VE1000_randls_23_rotated.json,1255869,1467657,25,Woman
10,644462,DepthScenes,duration_manipulation_targetAtFixation,jsons/v1_VE1000_randls_23_rotated.json,http://54.235.29.9/FacialAge/BNav_EC2/DepthDuration/v2_depth_duration_MTurk/v2_DepthDuration_HTML.html#216,216,1366,625,1366,768,8-29-2022,15-30-54,11,depth_duration_stimuli/002995_2014-06-15_12-31-26_094959634447_rgbf000150-resize_1/002995_2014-06-15_12-31-26_094959634447_rgbf000150-resize_1-target.png,1000,3.8360000000000003,8,5729,999,feet,jsons/v1_VE1000_randls_23_rotated.json,1255869,1467657,25,Woman
11,644462,DepthScenes,duration_manipulation_targetAtFixation,jsons/v1_VE1000_randls_23_rotated.json,http://54.235.29.9/FacialAge/BNav_EC2/DepthDuration/v2_depth_duration_MTurk/v2_DepthDuration_HTML.html#216,216,1366,625,1366,768,8-29-2022,15-30-54,12,depth_duration_stimuli/002748_2014-06-22_19-07-22_094959634447_rgbf000078-resize_1/002748_2014-06-22_19-07-22_094959634447_rgbf000078-resize_1-target.png,1000,4.6705,8,4810,990,feet,jsons/v1_VE1000_randls_23_rotated.json,1255869,1467657,25,Woman
12,644462,DepthScenes,duration_manipulation_targetAtFixation,jsons/v1_VE1000_randls_23_rotated.json,http://54.235.29.9/FacialAge/BNav_EC2/DepthDuration/v2_depth_duration_MTurk/v2_DepthDuration_HTML.html#216,216,1366,625,1366,768,8-29-2022,15-30-54,13,depth_duration_stimuli/000549_2014-06-08_22-10-24_260595134347_rgbf000247-resize_3/000549_2014-06-08_22-10-24_260595134347_rgbf000247-resize_3-target.png,1000,1.841,4,4558,993,feet,jsons/v1_VE1000_randls_23_rotated.json,1255869,1467657,25,Woman
13,644462,DepthScenes,duration_manipulation_targetAtFixation,jsons/v1_VE1000_randls_23_rotated.json,http://54.235.29.9/FacialAge/BNav_EC2/DepthDuration/v2_depth_duration_MTurk/v2_DepthDuration_HTML.html#216,216,1366,625,1366,768,8-29-2022,15-30-54,14,depth_duration_stimuli/001055_2014-06-08_18-45-35_260595134347_rgbf000111-resize_4/001055_2014-06-08_18-45-35_260595134347_rgbf000111-resize_4-target.png,1000,2.4290000000000003,8,7427,1004,feet,jsons/v1_VE1000_randls_23_rotated.json,1255869,1467657,25,Woman
14,644462,DepthScenes,duration_manipulation_targetAtFixation,jsons/v1_VE1000_randls_23_rotated.json,http://54.235.29.9/FacialAge/BNav_EC2/DepthDuration/v2_depth_duration_MTurk/v2_DepthDuration_HTML.html#216,216,1366,625,1366,768,8-29-2022,15-30-54,15,depth_duration_stimuli/001571_2014-06-20_17-21-32_260595134347_rgbf000089-resize_1/001571_2014-06-20_17-21-32_260595134347_rgbf000089-resize_1-target.png,1000,1.86,5,8719,992,feet,jsons/v1_VE1000_randls_23_rotated.json,1255869,1467657,25,Woman
15,644462,DepthScenes,duration_manipulation_targetAtFixation,jsons/v1_VE1000_randls_23_rotated.json,http://54.235.29.9/FacialAge/BNav_EC2/DepthDuration/v2_depth_duration_MTurk/v2_DepthDuration_HTML.html#216,216,1366,625,1366,768,8-29-2022,15-30-54,16,depth_duration_stimuli/002272_2014-06-28_18-53-56_260595134347_rgbf000067-resize_2/002272_2014-06-28_18-53-56_260595134347_rgbf000067-resize_2-target.png,1000,1.138,4,4692,995,feet,jsons/v1_VE1000_randls_23_rotated.json,1255869,1467657,25,Woman
16,644462,DepthScenes,duration_manipulation_targetAtFixation,jsons/v1_VE1000_randls_23_rotated.json,http://54.235.29.9/FacialAge/BNav_EC2/DepthDuration/v2_depth_duration_MTurk/v2_DepthDuration_HTML.html#216,216,1366,625,1366,768,8-29-2022,15-30-54,17,depth_duration_stimuli/001516_2014-06-20_16-25-09_260595134347_rgbf000076-resize_2/001516_2014-06-20_16-25-09_260595134347_rgbf000076-resize_2-target.png,1000,1.7445,8,4748,1006,feet,jsons/v1_VE1000_randls_23_rotated.json,1255869,1467657,25,Woman
17,644462,DepthScenes,duration_manipulation_targetAtFixation,jsons/v1_VE1000_randls_23_rotated.json,http://54.235.29.9/FacialAge/BNav_EC2/DepthDuration/v2_depth_duration_MTurk/v2_DepthDuration_HTML.html#216,216,1366,625,1366,768,8-29-2022,15-30-54,18,depth_duration_stimuli/002118_2014-06-25_20-32-08_260595134347_rgbf000078-resize_1/002118_2014-06-25_20-32-08_260595134347_rgbf000078-resize_1-target.png,1000,2.6460000000000004,7,4979,1005,feet,jsons/v1_VE1000_randls_23_rotated.json,1255869,1467657,25,Woman
18,644462,DepthScenes,duration_manipulation_targetAtFixation,jsons/v1_VE1000_randls_23_rotated.json,http://54.235.29.9/FacialAge/BNav_EC2/DepthDuration/v2_depth_duration_MTurk/v2_DepthDuration_HTML.html#216,216,1366,625,1366,768,8-29-2022,15-30-54,19,depth_duration_stimuli/001498_2014-06-19_17-45-14_260595134347_rgbf000129-resize_4/001498_2014-06-19_17-45-14_260595134347_rgbf000129-resize-original.jpg,1000,1.4075,0,5418,1014,feet,jsons/v1_VE1000_randls_23_rotated.json,1255869,1467657,25,Woman
19,644462,DepthScenes,duration_manipulation_targetAtFixation,jsons/v1_VE1000_randls_23_rotated.json,http://54.235.29.9/FacialAge/BNav_EC2/DepthDuration/v2_depth_duration_MTurk/v2_DepthDuration_HTML.html#216,216,1366,625,1366,768,8-29-2022,15-30-54,20,depth_duration_stimuli/000866_2014-06-09_20-45-42_260595134347_rgbf000139-resize_1/000866_2014-06-09_20-45-42_260595134347_rgbf000139-resize_1-target.png,1000,3.2155,4,5117,1001,feet,jsons/v1_VE1000_randls_23_rotated.json,1255869,1467657,25,Woman
20,644462,DepthScenes,duration_manipulation_targetAtFixation,jsons/v1_VE1000_randls_23_rotated.json,http://54.235.29.9/FacialAge/BNav_EC2/DepthDuration/v2_depth_duration_MTurk/v2_DepthDuration_HTML.html#216,216,1366,625,1366,768,8-29-2022,15-30-54,21,depth_duration_stimuli/002989_2014-06-15_12-25-03_094959634447_rgbf000150-resize_3/002989_2014-06-15_12-25-03_094959634447_rgbf000150-resize_3-target.png,1000,4.1975,8,3976,998,feet,jsons/v1_VE1000_randls_23_rotated.json,1255869,1467657,25,Woman
21,644462,DepthScenes,duration_manipulation_targetAtFixation,jsons/v1_VE1000_randls_23_rotated.json,http://54.235.29.9/FacialAge/BNav_EC2/DepthDuration/v2_depth_duration_MTurk/v2_DepthDuration_HTML.html#216,216,1366,625,1366,768,8-29-2022,15-30-54,22,depth_duration_stimuli/000691_2014-06-08_13-08-50_260595134347_rgbf000132-resize_3/000691_2014-06-08_13-08-50_260595134347_rgbf000132-resize_3-target.png,1000,4.1530000000000005,8,11602,990,feet,jsons/v1_VE1000_randls_23_rotated.json,1255869,1467657,25,Woman
22,644462,DepthScenes,duration_manipulation_targetAtFixation,jsons/v1_VE1000_randls_23_rotated.json,http://54.235.29.9/FacialAge/BNav_EC2/DepthDuration/v2_depth_duration_MTurk/v2_DepthDuration_HTML.html#216,216,1366,625,1366,768,8-29-2022,15-30-54,23,depth_duration_stimuli/002213_2014-06-28_18-37-58_260595134347_rgbf000055-resize_1/002213_2014-06-28_18-37-58_260595134347_rgbf000055-resize_1-target.png,1000,3.62,8,5520,1015,feet,jsons/v1_VE1000_randls_23_rotated.json,1255869,1467657,25,Woman
23,644462,DepthScenes,duration_manipulation_targetAtFixation,jsons/v1_VE1000_randls_23_rotated.json,http://54.235.29.9/FacialAge/BNav_EC2/DepthDuration/v2_depth_duration_MTurk/v2_DepthDuration_HTML.html#216,216,1366,625,1366,768,8-29-2022,15-30-54,24,depth_duration_stimuli/001136_2014-06-17_15-19-41_260595134347_rgbf000076-resize_3/001136_2014-06-17_15-19-41_260595134347_rgbf000076-resize_3-target.png,1000,1.8655,7,4085,1005,feet,jsons/v1_VE1000_randls_23_rotated.json,1255869,1467657,25,Woman
24,644462,DepthScenes,duration_manipulation_targetAtFixation,jsons/v1_VE1000_randls_23_rotated.json,http://54.235.29.9/FacialAge/BNav_EC2/DepthDuration/v2_depth_duration_MTurk/v2_DepthDuration_HTML.html#216,216,1366,625,1366,768,8-29-2022,15-30-54,25,depth_duration_stimuli/001164_2014-06-17_15-35-46_260595134347_rgbf000085-resize_3/001164_2014-06-17_15-35-46_260595134347_rgbf000085-resize_3-target.png,1000,2.354,8,5156,992,feet,jsons/v1_VE1000_randls_23_rotated.json,1255869,1467657,25,Woman
25,644462,DepthScenes,duration_manipulation_targetAtFixation,jsons/v1_VE1000_randls_23_rotated.json,http://54.235.29.9/FacialAge/BNav_EC2/DepthDuration/v2_depth_duration_MTurk/v2_DepthDuration_HTML.html#216,216,1366,625,1366,768,8-29-2022,15-30-54,26,depth_duration_stimuli/000103_2014-05-14_22-01-17_260595134347_rgbf000152-resize_5/000103_2014-05-14_22-01-17_260595134347_rgbf000152-resize_5-target.png,1000,1.993,7,4812,990,feet,jsons/v1_VE1000_randls_23_rotated.json,1255869,1467657,25,Woman
26,644462,DepthScenes,duration_manipulation_targetAtFixation,jsons/v1_VE1000_randls_23_rotated.json,http://54.235.29.9/FacialAge/BNav_EC2/DepthDuration/v2_depth_duration_MTurk/v2_DepthDuration_HTML.html#216,216,1366,625,1366,768,8-29-2022,15-30-54,27,depth_duration_stimuli/001555_2014-06-20_17-12-10_260595134347_rgbf000065-resize_4/001555_2014-06-20_17-12-10_260595134347_rgbf000065-resize_4-target.png,1000,1.633,4,5471,1004,feet,jsons/v1_VE1000_randls_23_rotated.json,1255869,1467657,25,Woman
27,644462,DepthScenes,duration_manipulation_targetAtFixation,jsons/v1_VE1000_randls_23_rotated.json,http://54.235.29.9/FacialAge/BNav_EC2/DepthDuration/v2_depth_duration_MTurk/v2_DepthDuration_HTML.html#216,216,1366,625,1366,768,8-29-2022,15-30-54,28,depth_duration_stimuli/002467_2014-06-28_20-38-07_260595134347_rgbf000026-resize_2/002467_2014-06-28_20-38-07_260595134347_rgbf000026-resize_2-target.png,1000,4.742,5,4566,1002,feet,jsons/v1_VE1000_randls_23_rotated.json,1255869,1467657,25,Woman
28,644462,DepthScenes,duration_manipulation_targetAtFixation,jsons/v1_VE1000_randls_23_rotated.json,http://54.235.29.9/FacialAge/BNav_EC2/DepthDuration/v2_depth_duration_MTurk/v2_DepthDuration_HTML.html#216,216,1366,625,1366,768,8-29-2022,15-30-54,29,depth_duration_stimuli/002570_2014-06-24_13-59-54_094959634447_rgbf000059-resize_0/002570_2014-06-24_13-59-54_094959634447_rgbf000059-resize_0-target.png,1000,4.037,6,4298,999,feet,jsons/v1_VE1000_randls_23_rotated.json,1255869,1467657,25,Woman
29,644462,DepthScenes,duration_manipulation_targetAtFixation,jsons/v1_VE1000_randls_23_rotated.json,http://54.235.29.9/FacialAge/BNav_EC2/DepthDuration/v2_depth_duration_MTurk/v2_DepthDuration_HTML.html#216,216,1366,625,1366,768,8-29-2022,15-30-54,30,depth_duration_stimuli/002072_2014-06-24_21-48-06_260595134347_rgbf000115-resize_0/002072_2014-06-24_21-48-06_260595134347_rgbf000115-resize-original.jpg,1000,4.702,0,5674,1004,feet,jsons/v1_VE1000_randls_23_rotated.json,1255869,1467657,25,Woman
30,644462,DepthScenes,duration_manipulation_targetAtFixation,jsons/v1_VE1000_randls_23_rotated.json,http://54.235.29.9/FacialAge/BNav_EC2/DepthDuration/v2_depth_duration_MTurk/v2_DepthDuration_HTML.html#216,216,1366,625,1366,768,8-29-2022,15-30-54,31,depth_duration_stimuli/000749_2014-06-08_21-55-06_260595134347_rgbf000070-resize_2/000749_2014-06-08_21-55-06_260595134347_rgbf000070-resize_2-target.png,1000,2.331,5,3902,994,feet,jsons/v1_VE1000_randls_23_rotated.json,1255869,1467657,25,Woman
31,644462,DepthScenes,duration_manipulation_targetAtFixation,jsons/v1_VE1000_randls_23_rotated.json,http://54.235.29.9/FacialAge/BNav_EC2/DepthDuration/v2_depth_duration_MTurk/v2_DepthDuration_HTML.html#216,216,1366,625,1366,768,8-29-2022,15-30-54,32,depth_duration_stimuli/002788_2014-06-22_19-36-03_094959634447_rgbf000088-resize_2/002788_2014-06-22_19-36-03_094959634447_rgbf000088-resize_2-target.png,1000,1.6465,5,5731,991,feet,jsons/v1_VE1000_randls_23_rotated.json,1255869,1467657,25,Woman
32,644462,DepthScenes,duration_manipulation_targetAtFixation,jsons/v1_VE1000_randls_23_rotated.json,http://54.235.29.9/FacialAge/BNav_EC2/DepthDuration/v2_depth_duration_MTurk/v2_DepthDuration_HTML.html#216,216,1366,625,1366,768,8-29-2022,15-30-54,33,depth_duration_stimuli/002568_2014-06-24_13-59-21_094959634447_rgbf000062-resize_4/002568_2014-06-24_13-59-21_094959634447_rgbf000062-resize_4-target.png,1000,3.015,5,4017,1006,feet,jsons/v1_VE1000_randls_23_rotated.json,1255869,1467657,25,Woman
33,644462,DepthScenes,duration_manipulation_targetAtFixation,jsons/v1_VE1000_randls_23_rotated.json,http://54.235.29.9/FacialAge/BNav_EC2/DepthDuration/v2_depth_duration_MTurk/v2_DepthDuration_HTML.html#216,216,1366,625,1366,768,8-29-2022,15-30-54,34,depth_duration_stimuli/003492_2014-05-21_15-50-55_094959634447_rgbf000828-resize_1/003492_2014-05-21_15-50-55_094959634447_rgbf000828-resize_1-target.png,1000,4.06875,5,84890,1002,feet,jsons/v1_VE1000_randls_23_rotated.json,1255869,1467657,25,Woman
34,644462,DepthScenes,duration_manipulation_targetAtFixation,jsons/v1_VE1000_randls_23_rotated.json,http://54.235.29.9/FacialAge/BNav_EC2/DepthDuration/v2_depth_duration_MTurk/v2_DepthDuration_HTML.html#216,216,1366,625,1366,768,8-29-2022,15-30-54,35,depth_duration_stimuli/000854_2014-06-09_19-43-13_260595134347_rgbf000066-resize_0/000854_2014-06-09_19-43-13_260595134347_rgbf000066-resize_0-target.png,1000,3.068,4,5745,1010,feet,jsons/v1_VE1000_randls_23_rotated.json,1255869,1467657,25,Woman
35,644462,DepthScenes,duration_manipulation_targetAtFixation,jsons/v1_VE1000_randls_23_rotated.json,http://54.235.29.9/FacialAge/BNav_EC2/DepthDuration/v2_depth_duration_MTurk/v2_DepthDuration_HTML.html#216,216,1366,625,1366,768,8-29-2022,15-30-54,36,depth_duration_stimuli/000758_2014-06-08_22-05-08_260595134347_rgbf000085-resize_0/000758_2014-06-08_22-05-08_260595134347_rgbf000085-resize_0-target.png,1000,3.3810000000000002,5,3800,1008,feet,jsons/v1_VE1000_randls_23_rotated.json,1255869,1467657,25,Woman
36,644462,DepthScenes,duration_manipulation_targetAtFixation,jsons/v1_VE1000_randls_23_rotated.json,http://54.235.29.9/FacialAge/BNav_EC2/DepthDuration/v2_depth_duration_MTurk/v2_DepthDuration_HTML.html#216,216,1366,625,1366,768,8-29-2022,15-30-54,37,depth_duration_stimuli/002678_2014-06-13_16-15-32_094959634447_rgbf000151-resize_6/002678_2014-06-13_16-15-32_094959634447_rgbf000151-resize_6-target.png,1000,2.1830000000000003,5,4411,1002,feet,jsons/v1_VE1000_randls_23_rotated.json,1255869,1467657,25,Woman
37,644462,DepthScenes,duration_manipulation_targetAtFixation,jsons/v1_VE1000_randls_23_rotated.json,http://54.235.29.9/FacialAge/BNav_EC2/DepthDuration/v2_depth_duration_MTurk/v2_DepthDuration_HTML.html#216,216,1366,625,1366,768,8-29-2022,15-30-54,38,depth_duration_stimuli/000368_2014-06-09_15-53-01_260595134347_rgbf000155-resize_2/000368_2014-06-09_15-53-01_260595134347_rgbf000155-resize_2-target.png,1000,2.4859999999999998,3,5256,1011,feet,jsons/v1_VE1000_randls_23_rotated.json,1255869,1467657,25,Woman
38,644462,DepthScenes,duration_manipulation_targetAtFixation,jsons/v1_VE1000_randls_23_rotated.json,http://54.235.29.9/FacialAge/BNav_EC2/DepthDuration/v2_depth_duration_MTurk/v2_DepthDuration_HTML.html#216,216,1366,625,1366,768,8-29-2022,15-30-54,39,depth_duration_stimuli/000742_2014-06-08_18-48-09_260595134347_rgbf000164-resize_4/000742_2014-06-08_18-48-09_260595134347_rgbf000164-resize_4-target.png,1000,4.632,5,5583,994,feet,jsons/v1_VE1000_randls_23_rotated.json,1255869,1467657,25,Woman
39,644462,DepthScenes,duration_manipulation_targetAtFixation,jsons/v1_VE1000_randls_23_rotated.json,http://54.235.29.9/FacialAge/BNav_EC2/DepthDuration/v2_depth_duration_MTurk/v2_DepthDuration_HTML.html#216,216,1366,625,1366,768,8-29-2022,15-30-54,40,depth_duration_stimuli/001066_2014-06-08_22-03-20_260595134347_rgbf000066-resize_4/001066_2014-06-08_22-03-20_260595134347_rgbf000066-resize_4-target.png,1000,4.2330000000000005,8,4505,989,feet,jsons/v1_VE1000_randls_23_rotated.json,1255869,1467657,25,Woman
40,644462,DepthScenes,duration_manipulation_targetAtFixation,jsons/v1_VE1000_randls_23_rotated.json,http://54.235.29.9/FacialAge/BNav_EC2/DepthDuration/v2_depth_duration_MTurk/v2_DepthDuration_HTML.html#216,216,1366,625,1366,768,8-29-2022,15-30-54,41,depth_duration_stimuli/001032_2014-06-08_13-23-17_260595134347_rgbf000021-resize_3/001032_2014-06-08_13-23-17_260595134347_rgbf000021-resize_3-target.png,1000,3.2725,5,4685,1004,feet,jsons/v1_VE1000_randls_23_rotated.json,1255869,1467657,25,Woman
41,644462,DepthScenes,duration_manipulation_targetAtFixation,jsons/v1_VE1000_randls_23_rotated.json,http://54.235.29.9/FacialAge/BNav_EC2/DepthDuration/v2_depth_duration_MTurk/v2_DepthDuration_HTML.html#216,216,1366,625,1366,768,8-29-2022,15-30-54,42,depth_duration_stimuli/001059_2014-06-08_21-53-27_260595134347_rgbf000061-resize_4/001059_2014-06-08_21-53-27_260595134347_rgbf000061-resize_4-target.png,1000,2.4185,5,4289,1012,feet,jsons/v1_VE1000_randls_23_rotated.json,1255869,1467657,25,Woman
42,644462,DepthScenes,duration_manipulation_targetAtFixation,jsons/v1_VE1000_randls_23_rotated.json,http://54.235.29.9/FacialAge/BNav_EC2/DepthDuration/v2_depth_duration_MTurk/v2_DepthDuration_HTML.html#216,216,1366,625,1366,768,8-29-2022,15-30-54,43,depth_duration_stimuli/000635_2014-06-08_16-38-42_260595134347_rgbf000106-resize_1/000635_2014-06-08_16-38-42_260595134347_rgbf000106-resize_1-target.png,1000,2.074,5,9450,994,feet,jsons/v1_VE1000_randls_23_rotated.json,1255869,1467657,25,Woman
43,644462,DepthScenes,duration_manipulation_targetAtFixation,jsons/v1_VE1000_randls_23_rotated.json,http://54.235.29.9/FacialAge/BNav_EC2/DepthDuration/v2_depth_duration_MTurk/v2_DepthDuration_HTML.html#216,216,1366,625,1366,768,8-29-2022,15-30-54,44,depth_duration_stimuli/002279_2014-06-28_18-55-32_260595134347_rgbf000040-resize_5/002279_2014-06-28_18-55-32_260595134347_rgbf000040-resize_5-target.png,1000,1.5043333333333,4,4018,989,feet,jsons/v1_VE1000_randls_23_rotated.json,1255869,1467657,25,Woman
44,644462,DepthScenes,duration_manipulation_targetAtFixation,jsons/v1_VE1000_randls_23_rotated.json,http://54.235.29.9/FacialAge/BNav_EC2/DepthDuration/v2_depth_duration_MTurk/v2_DepthDuration_HTML.html#216,216,1366,625,1366,768,8-29-2022,15-30-54,45,depth_duration_stimuli/002340_2014-06-28_20-05-46_260595134347_rgbf000113-resize_0/002340_2014-06-28_20-05-46_260595134347_rgbf000113-resize_0-target.png,1000,2.4735,5,3560,992,feet,jsons/v1_VE1000_randls_23_rotated.json,1255869,1467657,25,Woman
45,644462,DepthScenes,duration_manipulation_targetAtFixation,jsons/v1_VE1000_randls_23_rotated.json,http://54.235.29.9/FacialAge/BNav_EC2/DepthDuration/v2_depth_duration_MTurk/v2_DepthDuration_HTML.html#216,216,1366,625,1366,768,8-29-2022,15-30-54,46,depth_duration_stimuli/001016_2014-06-09_16-16-10_260595134347_rgbf000112-resize_5/001016_2014-06-09_16-16-10_260595134347_rgbf000112-resize_5-target.png,1000,1.6565,4,3894,1010,feet,jsons/v1_VE1000_randls_23_rotated.json,1255869,1467657,25,Woman
46,644462,DepthScenes,duration_manipulation_targetAtFixation,jsons/v1_VE1000_randls_23_rotated.json,http://54.235.29.9/FacialAge/BNav_EC2/DepthDuration/v2_depth_duration_MTurk/v2_DepthDuration_HTML.html#216,216,1366,625,1366,768,8-29-2022,15-30-54,47,depth_duration_stimuli/001132_2014-06-17_14-48-54_260595134347_rgbf000100-resize_2/001132_2014-06-17_14-48-54_260595134347_rgbf000100-resize_2-target.png,1000,3.753,5,4514,989,feet,jsons/v1_VE1000_randls_23_rotated.json,1255869,1467657,25,Woman
47,644462,DepthScenes,duration_manipulation_targetAtFixation,jsons/v1_VE1000_randls_23_rotated.json,http://54.235.29.9/FacialAge/BNav_EC2/DepthDuration/v2_depth_duration_MTurk/v2_DepthDuration_HTML.html#216,216,1366,625,1366,768,8-29-2022,15-30-54,48,depth_duration_stimuli/001133_2014-06-17_14-49-16_260595134347_rgbf000100-resize_0/001133_2014-06-17_14-49-16_260595134347_rgbf000100-resize_0-target.png,1000,4.2115,5,3160,985,feet,jsons/v1_VE1000_randls_23_rotated.json,1255869,1467657,25,Woman
48,644462,DepthScenes,duration_manipulation_targetAtFixation,jsons/v1_VE1000_randls_23_rotated.json,http://54.235.29.9/FacialAge/BNav_EC2/DepthDuration/v2_depth_duration_MTurk/v2_DepthDuration_HTML.html#216,216,1366,625,1366,768,8-29-2022,15-30-54,49,depth_duration_stimuli/001170_2014-06-17_15-43-44_260595134347_rgbf000096-resize_6/001170_2014-06-17_15-43-44_260595134347_rgbf000096-resize-original.jpg,1000,1.1909999999999998,0,4841,996,feet,jsons/v1_VE1000_randls_23_rotated.json,1255869,1467657,25,Woman
49,644462,DepthScenes,duration_manipulation_targetAtFixation,jsons/v1_VE1000_randls_23_rotated.json,http://54.235.29.9/FacialAge/BNav_EC2/DepthDuration/v2_depth_duration_MTurk/v2_DepthDuration_HTML.html#216,216,1366,625,1366,768,8-29-2022,15-30-54,50,depth_duration_stimuli/001094_2014-06-15_17-36-00_260595134347_rgbf000205-resize_0/001094_2014-06-15_17-36-00_260595134347_rgbf000205-resize_0-target.png,1000,4.2175,5,5435,996,feet,jsons/v1_VE1000_randls_23_rotated.json,1255869,1467657,25,Woman
50,644462,DepthScenes,duration_manipulation_targetAtFixation,jsons/v1_VE1000_randls_23_rotated.json,http://54.235.29.9/FacialAge/BNav_EC2/DepthDuration/v2_depth_duration_MTurk/v2_DepthDuration_HTML.html#216,216,1366,625,1366,768,8-29-2022,15-30-54,51,depth_duration_stimuli/000692_2014-06-08_13-09-42_260595134347_rgbf000199-resize_2/000692_2014-06-08_13-09-42_260595134347_rgbf000199-resize_2-target.png,1000,3.661,8,3690,1011,feet,jsons/v1_VE1000_randls_23_rotated.json,1255869,1467657,25,Woman
51,644462,DepthScenes,duration_manipulation_targetAtFixation,jsons/v1_VE1000_randls_23_rotated.json,http://54.235.29.9/FacialAge/BNav_EC2/DepthDuration/v2_depth_duration_MTurk/v2_DepthDuration_HTML.html#216,216,1366,625,1366,768,8-29-2022,15-30-54,52,depth_duration_stimuli/001214_2014-06-17_16-13-55_260595134347_rgbf000111-resize_0/001214_2014-06-17_16-13-55_260595134347_rgbf000111-resize_0-target.png,1000,2.6505,5,4708,1003,feet,jsons/v1_VE1000_randls_23_rotated.json,1255869,1467657,25,Woman
52,644462,DepthScenes,duration_manipulation_targetAtFixation,jsons/v1_VE1000_randls_23_rotated.json,http://54.235.29.9/FacialAge/BNav_EC2/DepthDuration/v2_depth_duration_MTurk/v2_DepthDuration_HTML.html#216,216,1366,625,1366,768,8-29-2022,15-30-54,53,depth_duration_stimuli/000810_2014-06-08_17-20-01_260595134347_rgbf000105-resize_0/000810_2014-06-08_17-20-01_260595134347_rgbf000105-resize_0-target.png,1000,1.4865,5,5485,989,feet,jsons/v1_VE1000_randls_23_rotated.json,1255869,1467657,25,Woman
53,644462,DepthScenes,duration_manipulation_targetAtFixation,jsons/v1_VE1000_randls_23_rotated.json,http://54.235.29.9/FacialAge/BNav_EC2/DepthDuration/v2_depth_duration_MTurk/v2_DepthDuration_HTML.html#216,216,1366,625,1366,768,8-29-2022,15-30-54,54,depth_duration_stimuli/001100_2014-06-15_17-46-26_260595134347_rgbf000225-resize_2/001100_2014-06-15_17-46-26_260595134347_rgbf000225-resize_2-target.png,1000,2.24,5,9425,998,feet,jsons/v1_VE1000_randls_23_rotated.json,1255869,1467657,25,Woman
54,644462,DepthScenes,duration_manipulation_targetAtFixation,jsons/v1_VE1000_randls_23_rotated.json,http://54.235.29.9/FacialAge/BNav_EC2/DepthDuration/v2_depth_duration_MTurk/v2_DepthDuration_HTML.html#216,216,1366,625,1366,768,8-29-2022,15-30-54,55,depth_duration_stimuli/002784_2014-06-22_19-26-30_094959634447_rgbf000083-resize_3/002784_2014-06-22_19-26-30_094959634447_rgbf000083-resize_3-target.png,1000,1.8046666666667,4,4399,1001,feet,jsons/v1_VE1000_randls_23_rotated.json,1255869,1467657,25,Woman
55,644462,DepthScenes,duration_manipulation_targetAtFixation,jsons/v1_VE1000_randls_23_rotated.json,http://54.235.29.9/FacialAge/BNav_EC2/DepthDuration/v2_depth_duration_MTurk/v2_DepthDuration_HTML.html#216,216,1366,625,1366,768,8-29-2022,15-30-54,56,depth_duration_stimuli/003010_2014-06-15_12-54-35_094959634447_rgbf000112-resize_0/003010_2014-06-15_12-54-35_094959634447_rgbf000112-resize_0-target.png,1000,3.1185,8,10471,1009,feet,jsons/v1_VE1000_randls_23_rotated.json,1255869,1467657,25,Woman
56,644462,DepthScenes,duration_manipulation_targetAtFixation,jsons/v1_VE1000_randls_23_rotated.json,http://54.235.29.9/FacialAge/BNav_EC2/DepthDuration/v2_depth_duration_MTurk/v2_DepthDuration_HTML.html#216,216,1366,625,1366,768,8-29-2022,15-30-54,57,depth_duration_stimuli/001810_2014-06-26_20-51-35_260595134347_rgbf000040-resize_3/001810_2014-06-26_20-51-35_260595134347_rgbf000040-resize_3-target.png,1000,2.2525,4,44113,1127,feet,jsons/v1_VE1000_randls_23_rotated.json,1255869,1467657,25,Woman
57,644462,DepthScenes,duration_manipulation_targetAtFixation,jsons/v1_VE1000_randls_23_rotated.json,http://54.235.29.9/FacialAge/BNav_EC2/DepthDuration/v2_depth_duration_MTurk/v2_DepthDuration_HTML.html#216,216,1366,625,1366,768,8-29-2022,15-30-54,58,depth_duration_stimuli/000457_2014-06-08_16-52-43_260595134347_rgbf000199-resize_1/000457_2014-06-08_16-52-43_260595134347_rgbf000199-resize_1-target.png,1000,3.6489999999999996,8,7246,989,feet,jsons/v1_VE1000_randls_23_rotated.json,1255869,1467657,25,Woman
58,644462,DepthScenes,duration_manipulation_targetAtFixation,jsons/v1_VE1000_randls_23_rotated.json,http://54.235.29.9/FacialAge/BNav_EC2/DepthDuration/v2_depth_duration_MTurk/v2_DepthDuration_HTML.html#216,216,1366,625,1366,768,8-29-2022,15-30-54,59,depth_duration_stimuli/000929_2014-06-09_16-33-19_260595134347_rgbf000139-resize_0/000929_2014-06-09_16-33-19_260595134347_rgbf000139-resize_0-target.png,1000,2.8680000000000003,8,6039,998,feet,jsons/v1_VE1000_randls_23_rotated.json,1255869,1467657,25,Woman
59,644462,DepthScenes,duration_manipulation_targetAtFixation,jsons/v1_VE1000_randls_23_rotated.json,http://54.235.29.9/FacialAge/BNav_EC2/DepthDuration/v2_depth_duration_MTurk/v2_DepthDuration_HTML.html#216,216,1366,625,1366,768,8-29-2022,15-30-54,60,depth_duration_stimuli/001447_2014-06-19_17-00-32_260595134347_rgbf000082-resize_5/001447_2014-06-19_17-00-32_260595134347_rgbf000082-resize_5-target.png,1000,4.13775,7,6290,1000,feet,jsons/v1_VE1000_randls_23_rotated.json,1255869,1467657,25,Woman
60,644462,DepthScenes,duration_manipulation_targetAtFixation,jsons/v1_VE1000_randls_23_rotated.json,http://54.235.29.9/FacialAge/BNav_EC2/DepthDuration/v2_depth_duration_MTurk/v2_DepthDuration_HTML.html#216,216,1366,625,1366,768,8-29-2022,15-30-54,61,depth_duration_stimuli/000447_2014-06-08_16-15-46_260595134347_rgbf000130-resize_1/000447_2014-06-08_16-15-46_260595134347_rgbf000130-resize_1-target.png,1000,4.479,7,6026,999,feet,jsons/v1_VE1000_randls_23_rotated.json,1255869,1467657,25,Woman
61,644462,DepthScenes,duration_manipulation_targetAtFixation,jsons/v1_VE1000_randls_23_rotated.json,http://54.235.29.9/FacialAge/BNav_EC2/DepthDuration/v2_depth_duration_MTurk/v2_DepthDuration_HTML.html#216,216,1366,625,1366,768,8-29-2022,15-30-54,62,depth_duration_stimuli/000483_2014-06-09_20-41-45_260595134347_rgbf000116-resize_4/000483_2014-06-09_20-41-45_260595134347_rgbf000116-resize_4-target.png,1000,1.337,9,6973,1003,feet,jsons/v1_VE1000_randls_23_rotated.json,1255869,1467657,25,Woman
62,644462,DepthScenes,duration_manipulation_targetAtFixation,jsons/v1_VE1000_randls_23_rotated.json,http://54.235.29.9/FacialAge/BNav_EC2/DepthDuration/v2_depth_duration_MTurk/v2_DepthDuration_HTML.html#216,216,1366,625,1366,768,8-29-2022,15-30-54,63,depth_duration_stimuli/000469_2014-06-09_19-42-10_260595134347_rgbf000081-resize_1/000469_2014-06-09_19-42-10_260595134347_rgbf000081-resize_1-target.png,1000,1.652,4,11465,1006,feet,jsons/v1_VE1000_randls_23_rotated.json,1255869,1467657,25,Woman
63,644462,DepthScenes,duration_manipulation_targetAtFixation,jsons/v1_VE1000_randls_23_rotated.json,http://54.235.29.9/FacialAge/BNav_EC2/DepthDuration/v2_depth_duration_MTurk/v2_DepthDuration_HTML.html#216,216,1366,625,1366,768,8-29-2022,15-30-54,64,depth_duration_stimuli/003490_2014-05-21_15-50-11_094959634447_rgbf000101-resize_3/003490_2014-05-21_15-50-11_094959634447_rgbf000101-resize_3-target.png,1000,3.6445,6,6123,1007,feet,jsons/v1_VE1000_randls_23_rotated.json,1255869,1467657,25,Woman
64,644462,DepthScenes,duration_manipulation_targetAtFixation,jsons/v1_VE1000_randls_23_rotated.json,http://54.235.29.9/FacialAge/BNav_EC2/DepthDuration/v2_depth_duration_MTurk/v2_DepthDuration_HTML.html#216,216,1366,625,1366,768,8-29-2022,15-30-54,65,depth_duration_stimuli/001175_2014-06-17_15-45-55_260595134347_rgbf000129-resize_4/001175_2014-06-17_15-45-55_260595134347_rgbf000129-resize_4-target.png,1000,4.255,6,5604,996,feet,jsons/v1_VE1000_randls_23_rotated.json,1255869,1467657,25,Woman
65,644462,DepthScenes,duration_manipulation_targetAtFixation,jsons/v1_VE1000_randls_23_rotated.json,http://54.235.29.9/FacialAge/BNav_EC2/DepthDuration/v2_depth_duration_MTurk/v2_DepthDuration_HTML.html#216,216,1366,625,1366,768,8-29-2022,15-30-54,66,depth_duration_stimuli/001540_2014-06-20_17-01-05_260595134347_rgbf000086-resize_2/001540_2014-06-20_17-01-05_260595134347_rgbf000086-resize-original.jpg,1000,1.459,8,7173,993,feet,jsons/v1_VE1000_randls_23_rotated.json,1255869,1467657,25,Woman
66,644462,DepthScenes,duration_manipulation_targetAtFixation,jsons/v1_VE1000_randls_23_rotated.json,http://54.235.29.9/FacialAge/BNav_EC2/DepthDuration/v2_depth_duration_MTurk/v2_DepthDuration_HTML.html#216,216,1366,625,1366,768,8-29-2022,15-30-54,67,depth_duration_stimuli/000191_2014-05-12_17-07-38_260595134347_rgbf000199-resize_0/000191_2014-05-12_17-07-38_260595134347_rgbf000199-resize_0-target.png,1000,3.7995,8,7283,997,feet,jsons/v1_VE1000_randls_23_rotated.json,1255869,1467657,25,Woman
67,644462,DepthScenes,duration_manipulation_targetAtFixation,jsons/v1_VE1000_randls_23_rotated.json,http://54.235.29.9/FacialAge/BNav_EC2/DepthDuration/v2_depth_duration_MTurk/v2_DepthDuration_HTML.html#216,216,1366,625,1366,768,8-29-2022,15-30-54,68,depth_duration_stimuli/000493_2014-06-09_21-01-18_260595134347_rgbf000196-resize_3/000493_2014-06-09_21-01-18_260595134347_rgbf000196-resize_3-target.png,1000,3.44,4,7628,990,feet,jsons/v1_VE1000_randls_23_rotated.json,1255869,1467657,25,Woman
68,644462,DepthScenes,duration_manipulation_targetAtFixation,jsons/v1_VE1000_randls_23_rotated.json,http://54.235.29.9/FacialAge/BNav_EC2/DepthDuration/v2_depth_duration_MTurk/v2_DepthDuration_HTML.html#216,216,1366,625,1366,768,8-29-2022,15-30-54,69,depth_duration_stimuli/002657_2014-06-13_15-29-54_094959634447_rgbf000150-resize_1/002657_2014-06-13_15-29-54_094959634447_rgbf000150-resize_1-target.png,1000,4.919,5,6136,996,feet,jsons/v1_VE1000_randls_23_rotated.json,1255869,1467657,25,Woman
69,644462,DepthScenes,duration_manipulation_targetAtFixation,jsons/v1_VE1000_randls_23_rotated.json,http://54.235.29.9/FacialAge/BNav_EC2/DepthDuration/v2_depth_duration_MTurk/v2_DepthDuration_HTML.html#216,216,1366,625,1366,768,8-29-2022,15-30-54,70,depth_duration_stimuli/002375_2014-06-28_20-13-44_260595134347_rgbf000032-resize_1/002375_2014-06-28_20-13-44_260595134347_rgbf000032-resize_1-target.png,1000,4.0175,2,5440,996,feet,jsons/v1_VE1000_randls_23_rotated.json,1255869,1467657,25,Woman
70,644462,DepthScenes,duration_manipulation_targetAtFixation,jsons/v1_VE1000_randls_23_rotated.json,http://54.235.29.9/FacialAge/BNav_EC2/DepthDuration/v2_depth_duration_MTurk/v2_DepthDuration_HTML.html#216,216,1366,625,1366,768,8-29-2022,15-30-54,71,depth_duration_stimuli/000556_2014-06-09_22-42-56_260595134347_rgbf000214-resize_1/000556_2014-06-09_22-42-56_260595134347_rgbf000214-resize_1-target.png,1000,4.8415,4,5879,995,feet,jsons/v1_VE1000_randls_23_rotated.json,1255869,1467657,25,Woman
71,644462,DepthScenes,duration_manipulation_targetAtFixation,jsons/v1_VE1000_randls_23_rotated.json,http://54.235.29.9/FacialAge/BNav_EC2/DepthDuration/v2_depth_duration_MTurk/v2_DepthDuration_HTML.html#216,216,1366,625,1366,768,8-29-2022,15-30-54,72,depth_duration_stimuli/001158_2014-06-17_15-32-16_260595134347_rgbf000138-resize_2/001158_2014-06-17_15-32-16_260595134347_rgbf000138-resize_2-target.png,1000,4.5315,5,5468,1000,feet,jsons/v1_VE1000_randls_23_rotated.json,1255869,1467657,25,Woman
72,644462,DepthScenes,duration_manipulation_targetAtFixation,jsons/v1_VE1000_randls_23_rotated.json,http://54.235.29.9/FacialAge/BNav_EC2/DepthDuration/v2_depth_duration_MTurk/v2_DepthDuration_HTML.html#216,216,1366,625,1366,768,8-29-2022,15-30-54,73,depth_duration_stimuli/000780_2014-06-08_22-28-29_260595134347_rgbf000126-resize_1/000780_2014-06-08_22-28-29_260595134347_rgbf000126-resize_1-target.png,1000,3.3825,8,6631,991,feet,jsons/v1_VE1000_randls_23_rotated.json,1255869,1467657,25,Woman
73,644462,DepthScenes,duration_manipulation_targetAtFixation,jsons/v1_VE1000_randls_23_rotated.json,http://54.235.29.9/FacialAge/BNav_EC2/DepthDuration/v2_depth_duration_MTurk/v2_DepthDuration_HTML.html#216,216,1366,625,1366,768,8-29-2022,15-30-54,74,depth_duration_stimuli/002445_2014-06-28_20-32-16_260595134347_rgbf000029-resize_4/002445_2014-06-28_20-32-16_260595134347_rgbf000029-resize_4-target.png,1000,2.5315,5,4956,1006,feet,jsons/v1_VE1000_randls_23_rotated.json,1255869,1467657,25,Woman
74,644462,DepthScenes,duration_manipulation_targetAtFixation,jsons/v1_VE1000_randls_23_rotated.json,http://54.235.29.9/FacialAge/BNav_EC2/DepthDuration/v2_depth_duration_MTurk/v2_DepthDuration_HTML.html#216,216,1366,625,1366,768,8-29-2022,15-30-54,75,depth_duration_stimuli/002344_2014-06-28_20-06-29_260595134347_rgbf000030-resize_1/002344_2014-06-28_20-06-29_260595134347_rgbf000030-resize_1-target.png,1000,1.5795,3,9099,1001,feet,jsons/v1_VE1000_randls_23_rotated.json,1255869,1467657,25,Woman
75,644462,DepthScenes,duration_manipulation_targetAtFixation,jsons/v1_VE1000_randls_23_rotated.json,http://54.235.29.9/FacialAge/BNav_EC2/DepthDuration/v2_depth_duration_MTurk/v2_DepthDuration_HTML.html#216,216,1366,625,1366,768,8-29-2022,15-30-54,76,depth_duration_stimuli/002725_2014-06-22_11-47-51_094959634447_rgbf000070-resize_1/002725_2014-06-22_11-47-51_094959634447_rgbf000070-resize_1-target.png,1000,2.195,6,5803,1006,feet,jsons/v1_VE1000_randls_23_rotated.json,1255869,1467657,25,Woman
76,644462,DepthScenes,duration_manipulation_targetAtFixation,jsons/v1_VE1000_randls_23_rotated.json,http://54.235.29.9/FacialAge/BNav_EC2/DepthDuration/v2_depth_duration_MTurk/v2_DepthDuration_HTML.html#216,216,1366,625,1366,768,8-29-2022,15-30-54,77,depth_duration_stimuli/003338_2014-05-20_11-01-23_094959634447_rgbf000051-resize_6/003338_2014-05-20_11-01-23_094959634447_rgbf000051-resize_6-target.png,1000,1.693,4,10839,1003,feet,jsons/v1_VE1000_randls_23_rotated.json,1255869,1467657,25,Woman
77,644462,DepthScenes,duration_manipulation_targetAtFixation,jsons/v1_VE1000_randls_23_rotated.json,http://54.235.29.9/FacialAge/BNav_EC2/DepthDuration/v2_depth_duration_MTurk/v2_DepthDuration_HTML.html#216,216,1366,625,1366,768,8-29-2022,15-30-54,78,depth_duration_stimuli/002509_2014-06-24_13-19-22_094959634447_rgbf000077-resize_0/002509_2014-06-24_13-19-22_094959634447_rgbf000077-resize_0-target.png,1000,1.3065,5,6057,997,feet,jsons/v1_VE1000_randls_23_rotated.json,1255869,1467657,25,Woman
78,644462,DepthScenes,duration_manipulation_targetAtFixation,jsons/v1_VE1000_randls_23_rotated.json,http://54.235.29.9/FacialAge/BNav_EC2/DepthDuration/v2_depth_duration_MTurk/v2_DepthDuration_HTML.html#216,216,1366,625,1366,768,8-29-2022,15-30-54,79,depth_duration_stimuli/002103_2014-06-25_20-00-40_260595134347_rgbf000049-resize_0/002103_2014-06-25_20-00-40_260595134347_rgbf000049-resize_0-target.png,1000,4.105,4,6625,1000,feet,jsons/v1_VE1000_randls_23_rotated.json,1255869,1467657,25,Woman
79,644462,DepthScenes,duration_manipulation_targetAtFixation,jsons/v1_VE1000_randls_23_rotated.json,http://54.235.29.9/FacialAge/BNav_EC2/DepthDuration/v2_depth_duration_MTurk/v2_DepthDuration_HTML.html#216,216,1366,625,1366,768,8-29-2022,15-30-54,80,depth_duration_stimuli/002039_2014-06-24_20-22-38_260595134347_rgbf000084-resize_1/002039_2014-06-24_20-22-38_260595134347_rgbf000084-resize_1-target.png,1000,4.408,5,11953,1028,feet,jsons/v1_VE1000_randls_23_rotated.json,1255869,1467657,25,Woman
80,644462,DepthScenes,duration_manipulation_targetAtFixation,jsons/v1_VE1000_randls_23_rotated.json,http://54.235.29.9/FacialAge/BNav_EC2/DepthDuration/v2_depth_duration_MTurk/v2_DepthDuration_HTML.html#216,216,1366,625,1366,768,8-29-2022,15-30-54,81,depth_duration_stimuli/002414_2014-06-28_20-24-58_260595134347_rgbf000067-resize_4/002414_2014-06-28_20-24-58_260595134347_rgbf000067-resize_4-target.png,1000,4.363,5,16003,995,feet,jsons/v1_VE1000_randls_23_rotated.json,1255869,1467657,25,Woman
81,644462,DepthScenes,duration_manipulation_targetAtFixation,jsons/v1_VE1000_randls_23_rotated.json,http://54.235.29.9/FacialAge/BNav_EC2/DepthDuration/v2_depth_duration_MTurk/v2_DepthDuration_HTML.html#216,216,1366,625,1366,768,8-29-2022,15-30-54,82,depth_duration_stimuli/000773_2014-06-08_22-24-54_260595134347_rgbf000093-resize_1/000773_2014-06-08_22-24-54_260595134347_rgbf000093-resize_1-target.png,1000,4.973,7,12599,1130,feet,jsons/v1_VE1000_randls_23_rotated.json,1255869,1467657,25,Woman
82,644462,DepthScenes,duration_manipulation_targetAtFixation,jsons/v1_VE1000_randls_23_rotated.json,http://54.235.29.9/FacialAge/BNav_EC2/DepthDuration/v2_depth_duration_MTurk/v2_DepthDuration_HTML.html#216,216,1366,625,1366,768,8-29-2022,15-30-54,83,depth_duration_stimuli/002953_2014-06-08_17-32-18_094959634447_rgbf000059-resize_5/002953_2014-06-08_17-32-18_094959634447_rgbf000059-resize_5-target.png,1000,1.551,5,7173,1156,feet,jsons/v1_VE1000_randls_23_rotated.json,1255869,1467657,25,Woman
83,644462,DepthScenes,duration_manipulation_targetAtFixation,jsons/v1_VE1000_randls_23_rotated.json,http://54.235.29.9/FacialAge/BNav_EC2/DepthDuration/v2_depth_duration_MTurk/v2_DepthDuration_HTML.html#216,216,1366,625,1366,768,8-29-2022,15-30-54,84,depth_duration_stimuli/000878_2014-06-08_22-52-45_260595134347_rgbf000045-resize_2/000878_2014-06-08_22-52-45_260595134347_rgbf000045-resize_2-target.png,1000,2.092,5,11995,998,feet,jsons/v1_VE1000_randls_23_rotated.json,1255869,1467657,25,Woman
84,644462,DepthScenes,duration_manipulation_targetAtFixation,jsons/v1_VE1000_randls_23_rotated.json,http://54.235.29.9/FacialAge/BNav_EC2/DepthDuration/v2_depth_duration_MTurk/v2_DepthDuration_HTML.html#216,216,1366,625,1366,768,8-29-2022,15-30-54,85,depth_duration_stimuli/001617_2014-06-20_11-35-32_260595134347_rgbf000066-resize_1/001617_2014-06-20_11-35-32_260595134347_rgbf000066-resize_1-target.png,1000,3.7910000000000004,5,6539,1013,feet,jsons/v1_VE1000_randls_23_rotated.json,1255869,1467657,25,Woman
85,644462,DepthScenes,duration_manipulation_targetAtFixation,jsons/v1_VE1000_randls_23_rotated.json,http://54.235.29.9/FacialAge/BNav_EC2/DepthDuration/v2_depth_duration_MTurk/v2_DepthDuration_HTML.html#216,216,1366,625,1366,768,8-29-2022,15-30-54,86,depth_duration_stimuli/001806_2014-06-26_20-50-20_260595134347_rgbf000091-resize_1/001806_2014-06-26_20-50-20_260595134347_rgbf000091-resize_1-target.png,1000,2.7305,6,5705,997,feet,jsons/v1_VE1000_randls_23_rotated.json,1255869,1467657,25,Woman
86,644462,DepthScenes,duration_manipulation_targetAtFixation,jsons/v1_VE1000_randls_23_rotated.json,http://54.235.29.9/FacialAge/BNav_EC2/DepthDuration/v2_depth_duration_MTurk/v2_DepthDuration_HTML.html#216,216,1366,625,1366,768,8-29-2022,15-30-54,87,depth_duration_stimuli/003495_2014-05-21_16-01-51_094959634447_rgbf000100-resize_3/003495_2014-05-21_16-01-51_094959634447_rgbf000100-resize_3-target.png,1000,1.6255,4,8020,988,feet,jsons/v1_VE1000_randls_23_rotated.json,1255869,1467657,25,Woman
87,644462,DepthScenes,duration_manipulation_targetAtFixation,jsons/v1_VE1000_randls_23_rotated.json,http://54.235.29.9/FacialAge/BNav_EC2/DepthDuration/v2_depth_duration_MTurk/v2_DepthDuration_HTML.html#216,216,1366,625,1366,768,8-29-2022,15-30-54,88,depth_duration_stimuli/001244_2014-06-17_16-47-45_260595134347_rgbf000030-resize_4/001244_2014-06-17_16-47-45_260595134347_rgbf000030-resize_4-target.png,1000,2.0425,6,6661,1002,feet,jsons/v1_VE1000_randls_23_rotated.json,1255869,1467657,25,Woman
88,644462,DepthScenes,duration_manipulation_targetAtFixation,jsons/v1_VE1000_randls_23_rotated.json,http://54.235.29.9/FacialAge/BNav_EC2/DepthDuration/v2_depth_duration_MTurk/v2_DepthDuration_HTML.html#216,216,1366,625,1366,768,8-29-2022,15-30-54,89,depth_duration_stimuli/002805_2014-06-22_19-54-03_094959634447_rgbf000079-resize_1/002805_2014-06-22_19-54-03_094959634447_rgbf000079-resize_1-target.png,1000,3.1439999999999997,6,5917,1001,feet,jsons/v1_VE1000_randls_23_rotated.json,1255869,1467657,25,Woman
89,644462,DepthScenes,duration_manipulation_targetAtFixation,jsons/v1_VE1000_randls_23_rotated.json,http://54.235.29.9/FacialAge/BNav_EC2/DepthDuration/v2_depth_duration_MTurk/v2_DepthDuration_HTML.html#216,216,1366,625,1366,768,8-29-2022,15-30-54,90,depth_duration_stimuli/000906_2014-06-08_13-35-43_260595134347_rgbf000155-resize_1/000906_2014-06-08_13-35-43_260595134347_rgbf000155-resize_1-target.png,1000,2.8489999999999998,5,10685,1012,feet,jsons/v1_VE1000_randls_23_rotated.json,1255869,1467657,25,Woman
90,644462,DepthScenes,duration_manipulation_targetAtFixation,jsons/v1_VE1000_randls_23_rotated.json,http://54.235.29.9/FacialAge/BNav_EC2/DepthDuration/v2_depth_duration_MTurk/v2_DepthDuration_HTML.html#216,216,1366,625,1366,768,8-29-2022,15-30-54,91,depth_duration_stimuli/000734_2014-06-08_17-39-11_260595134347_rgbf000128-resize_2/000734_2014-06-08_17-39-11_260595134347_rgbf000128-resize_2-target.png,1000,4.098,4,14706,997,feet,jsons/v1_VE1000_randls_23_rotated.json,1255869,1467657,25,Woman
91,644462,DepthScenes,duration_manipulation_targetAtFixation,jsons/v1_VE1000_randls_23_rotated.json,http://54.235.29.9/FacialAge/BNav_EC2/DepthDuration/v2_depth_duration_MTurk/v2_DepthDuration_HTML.html#216,216,1366,625,1366,768,8-29-2022,15-30-54,92,depth_duration_stimuli/000739_2014-06-08_18-45-58_260595134347_rgbf000068-resize_1/000739_2014-06-08_18-45-58_260595134347_rgbf000068-resize_1-target.png,1000,3.534,5,9733,1004,feet,jsons/v1_VE1000_randls_23_rotated.json,1255869,1467657,25,Woman
92,644462,DepthScenes,duration_manipulation_targetAtFixation,jsons/v1_VE1000_randls_23_rotated.json,http://54.235.29.9/FacialAge/BNav_EC2/DepthDuration/v2_depth_duration_MTurk/v2_DepthDuration_HTML.html#216,216,1366,625,1366,768,8-29-2022,15-30-54,93,depth_duration_stimuli/002136_2014-06-25_21-18-03_260595134347_rgbf000109-resize_3/002136_2014-06-25_21-18-03_260595134347_rgbf000109-resize_3-target.png,1000,1.9569999999999999,5,6220,1003,feet,jsons/v1_VE1000_randls_23_rotated.json,1255869,1467657,25,Woman
93,644462,DepthScenes,duration_manipulation_targetAtFixation,jsons/v1_VE1000_randls_23_rotated.json,http://54.235.29.9/FacialAge/BNav_EC2/DepthDuration/v2_depth_duration_MTurk/v2_DepthDuration_HTML.html#216,216,1366,625,1366,768,8-29-2022,15-30-54,94,depth_duration_stimuli/002964_2014-06-08_17-46-11_094959634447_rgbf000091-resize_4/002964_2014-06-08_17-46-11_094959634447_rgbf000091-resize_4-target.png,1000,1.6909999999999998,5,4220,999,feet,jsons/v1_VE1000_randls_23_rotated.json,1255869,1467657,25,Woman
94,644462,DepthScenes,duration_manipulation_targetAtFixation,jsons/v1_VE1000_randls_23_rotated.json,http://54.235.29.9/FacialAge/BNav_EC2/DepthDuration/v2_depth_duration_MTurk/v2_DepthDuration_HTML.html#216,216,1366,625,1366,768,8-29-2022,15-30-54,95,depth_duration_stimuli/000109_2014-05-14_23-41-52_260595134347_rgbf000035-resize_9/000109_2014-05-14_23-41-52_260595134347_rgbf000035-resize_9-target.png,1000,1.3545,4,4241,1006,feet,jsons/v1_VE1000_randls_23_rotated.json,1255869,1467657,25,Woman
95,644462,DepthScenes,duration_manipulation_targetAtFixation,jsons/v1_VE1000_randls_23_rotated.json,http://54.235.29.9/FacialAge/BNav_EC2/DepthDuration/v2_depth_duration_MTurk/v2_DepthDuration_HTML.html#216,216,1366,625,1366,768,8-29-2022,15-30-54,96,depth_duration_stimuli/000470_2014-06-09_19-42-40_260595134347_rgbf000094-resize_1/000470_2014-06-09_19-42-40_260595134347_rgbf000094-resize_1-target.png,1000,1.831,5,3531,998,feet,jsons/v1_VE1000_randls_23_rotated.json,1255869,1467657,25,Woman
96,644462,DepthScenes,duration_manipulation_targetAtFixation,jsons/v1_VE1000_randls_23_rotated.json,http://54.235.29.9/FacialAge/BNav_EC2/DepthDuration/v2_depth_duration_MTurk/v2_DepthDuration_HTML.html#216,216,1366,625,1366,768,8-29-2022,15-30-54,97,depth_duration_stimuli/002639_2014-06-24_14-51-37_094959634447_rgbf000074-resize_4/002639_2014-06-24_14-51-37_094959634447_rgbf000074-resize_4-target.png,1000,4.0375,7,4756,990,feet,jsons/v1_VE1000_randls_23_rotated.json,1255869,1467657,25,Woman
97,644462,DepthScenes,duration_manipulation_targetAtFixation,jsons/v1_VE1000_randls_23_rotated.json,http://54.235.29.9/FacialAge/BNav_EC2/DepthDuration/v2_depth_duration_MTurk/v2_DepthDuration_HTML.html#216,216,1366,625,1366,768,8-29-2022,15-30-54,98,depth_duration_stimuli/003292_2014-05-14_21-53-49_094959634447_rgbf000100-resize_2/003292_2014-05-14_21-53-49_094959634447_rgbf000100-resize_2-target.png,1000,3.4815,4,3686,998,feet,jsons/v1_VE1000_randls_23_rotated.json,1255869,1467657,25,Woman
98,644462,DepthScenes,duration_manipulation_targetAtFixation,jsons/v1_VE1000_randls_23_rotated.json,http://54.235.29.9/FacialAge/BNav_EC2/DepthDuration/v2_depth_duration_MTurk/v2_DepthDuration_HTML.html#216,216,1366,625,1366,768,8-29-2022,15-30-54,99,depth_duration_stimuli/001222_2014-06-17_16-24-06_260595134347_rgbf000073-resize_0/001222_2014-06-17_16-24-06_260595134347_rgbf000073-resize-original.jpg,1000,1.4385,5,3773,999,feet,jsons/v1_VE1000_randls_23_rotated.json,1255869,1467657,25,Woman
99,644462,DepthScenes,duration_manipulation_targetAtFixation,jsons/v1_VE1000_randls_23_rotated.json,http://54.235.29.9/FacialAge/BNav_EC2/DepthDuration/v2_depth_duration_MTurk/v2_DepthDuration_HTML.html#216,216,1366,625,1366,768,8-29-2022,15-30-54,100,depth_duration_stimuli/003079_2014-06-15_15-18-20_094959634447_rgbf000152-resize_8/003079_2014-06-15_15-18-20_094959634447_rgbf000152-resize_8-target.png,1000,2.8775,8,4375,997,feet,jsons/v1_VE1000_randls_23_rotated.json,1255869,1467657,25,Woman
100,644462,DepthScenes,duration_manipulation_targetAtFixation,jsons/v1_VE1000_randls_23_rotated.json,http://54.235.29.9/FacialAge/BNav_EC2/DepthDuration/v2_depth_duration_MTurk/v2_DepthDuration_HTML.html#216,216,1366,625,1366,768,8-29-2022,15-30-54,101,depth_duration_stimuli/000506_2014-06-08_23-21-00_260595134347_rgbf000070-resize_7/000506_2014-06-08_23-21-00_260595134347_rgbf000070-resize_7-target.png,1000,4.0585,8,3620,993,feet,jsons/v1_VE1000_randls_23_rotated.json,1255869,1467657,25,Woman
101,644462,DepthScenes,duration_manipulation_targetAtFixation,jsons/v1_VE1000_randls_23_rotated.json,http://54.235.29.9/FacialAge/BNav_EC2/DepthDuration/v2_depth_duration_MTurk/v2_DepthDuration_HTML.html#216,216,1366,625,1366,768,8-29-2022,15-30-54,102,depth_duration_stimuli/003587_2014-05-23_16-48-02_094959634447_rgbf002384-resize_2/003587_2014-05-23_16-48-02_094959634447_rgbf002384-resize_2-target.png,1000,1.357,6,5205,1012,feet,jsons/v1_VE1000_randls_23_rotated.json,1255869,1467657,25,Woman
102,644462,DepthScenes,duration_manipulation_targetAtFixation,jsons/v1_VE1000_randls_23_rotated.json,http://54.235.29.9/FacialAge/BNav_EC2/DepthDuration/v2_depth_duration_MTurk/v2_DepthDuration_HTML.html#216,216,1366,625,1366,768,8-29-2022,15-30-54,103,depth_duration_stimuli/001167_2014-06-17_15-38-07_260595134347_rgbf000108-resize_0/001167_2014-06-17_15-38-07_260595134347_rgbf000108-resize_0-target.png,1000,1.8505,4,3823,995,feet,jsons/v1_VE1000_randls_23_rotated.json,1255869,1467657,25,Woman
103,644462,DepthScenes,duration_manipulation_targetAtFixation,jsons/v1_VE1000_randls_23_rotated.json,http://54.235.29.9/FacialAge/BNav_EC2/DepthDuration/v2_depth_duration_MTurk/v2_DepthDuration_HTML.html#216,216,1366,625,1366,768,8-29-2022,15-30-54,104,depth_duration_stimuli/002758_2014-06-22_19-11-20_094959634447_rgbf000128-resize_1/002758_2014-06-22_19-11-20_094959634447_rgbf000128-resize_1-target.png,1000,2.555,4,4386,1011,feet,jsons/v1_VE1000_randls_23_rotated.json,1255869,1467657,25,Woman
104,644462,DepthScenes,duration_manipulation_targetAtFixation,jsons/v1_VE1000_randls_23_rotated.json,http://54.235.29.9/FacialAge/BNav_EC2/DepthDuration/v2_depth_duration_MTurk/v2_DepthDuration_HTML.html#216,216,1366,625,1366,768,8-29-2022,15-30-54,105,depth_duration_stimuli/002630_2014-06-24_14-47-50_094959634447_rgbf000055-resize_1/002630_2014-06-24_14-47-50_094959634447_rgbf000055-resize_1-target.png,1000,3.0095,8,3409,999,feet,jsons/v1_VE1000_randls_23_rotated.json,1255869,1467657,25,Woman
105,644462,DepthScenes,duration_manipulation_targetAtFixation,jsons/v1_VE1000_randls_23_rotated.json,http://54.235.29.9/FacialAge/BNav_EC2/DepthDuration/v2_depth_duration_MTurk/v2_DepthDuration_HTML.html#216,216,1366,625,1366,768,8-29-2022,15-30-54,106,depth_duration_stimuli/001828_2014-06-26_21-40-03_260595134347_rgbf000024-resize_0/001828_2014-06-26_21-40-03_260595134347_rgbf000024-resize_0-target.png,1000,4.8260000000000005,8,4957,991,feet,jsons/v1_VE1000_randls_23_rotated.json,1255869,1467657,25,Woman
106,644462,DepthScenes,duration_manipulation_targetAtFixation,jsons/v1_VE1000_randls_23_rotated.json,http://54.235.29.9/FacialAge/BNav_EC2/DepthDuration/v2_depth_duration_MTurk/v2_DepthDuration_HTML.html#216,216,1366,625,1366,768,8-29-2022,15-30-54,107,depth_duration_stimuli/000009_2014-05-26_14-32-05_260595134347_rgbf000034-resize_3/000009_2014-05-26_14-32-05_260595134347_rgbf000034-resize_3-target.png,1000,3.8715,8,3521,997,feet,jsons/v1_VE1000_randls_23_rotated.json,1255869,1467657,25,Woman
107,644462,DepthScenes,duration_manipulation_targetAtFixation,jsons/v1_VE1000_randls_23_rotated.json,http://54.235.29.9/FacialAge/BNav_EC2/DepthDuration/v2_depth_duration_MTurk/v2_DepthDuration_HTML.html#216,216,1366,625,1366,768,8-29-2022,15-30-54,108,depth_duration_stimuli/000137_2014-05-20_17-04-49_260595134347_rgbf000120-resize_1/000137_2014-05-20_17-04-49_260595134347_rgbf000120-resize_1-target.png,1000,3.786,8,4341,1001,feet,jsons/v1_VE1000_randls_23_rotated.json,1255869,1467657,25,Woman
108,644462,DepthScenes,duration_manipulation_targetAtFixation,jsons/v1_VE1000_randls_23_rotated.json,http://54.235.29.9/FacialAge/BNav_EC2/DepthDuration/v2_depth_duration_MTurk/v2_DepthDuration_HTML.html#216,216,1366,625,1366,768,8-29-2022,15-30-54,109,depth_duration_stimuli/000736_2014-06-08_18-24-15_260595134347_rgbf000206-resize_3/000736_2014-06-08_18-24-15_260595134347_rgbf000206-resize_3-target.png,1000,3.515,8,10085,1003,feet,jsons/v1_VE1000_randls_23_rotated.json,1255869,1467657,25,Woman
109,644462,DepthScenes,duration_manipulation_targetAtFixation,jsons/v1_VE1000_randls_23_rotated.json,http://54.235.29.9/FacialAge/BNav_EC2/DepthDuration/v2_depth_duration_MTurk/v2_DepthDuration_HTML.html#216,216,1366,625,1366,768,8-29-2022,15-30-54,110,depth_duration_stimuli/001235_2014-06-17_16-37-36_260595134347_rgbf000084-resize_4/001235_2014-06-17_16-37-36_260595134347_rgbf000084-resize_4-target.png,1000,3.6605,5,6014,997,feet,jsons/v1_VE1000_randls_23_rotated.json,1255869,1467657,25,Woman
110,644462,DepthScenes,duration_manipulation_targetAtFixation,jsons/v1_VE1000_randls_23_rotated.json,http://54.235.29.9/FacialAge/BNav_EC2/DepthDuration/v2_depth_duration_MTurk/v2_DepthDuration_HTML.html#216,216,1366,625,1366,768,8-29-2022,15-30-54,111,depth_duration_stimuli/000788_2014-06-08_22-34-36_260595134347_rgbf000131-resize_1/000788_2014-06-08_22-34-36_260595134347_rgbf000131-resize_1-target.png,1000,3.359,4,3358,1002,feet,jsons/v1_VE1000_randls_23_rotated.json,1255869,1467657,25,Woman
111,644462,DepthScenes,duration_manipulation_targetAtFixation,jsons/v1_VE1000_randls_23_rotated.json,http://54.235.29.9/FacialAge/BNav_EC2/DepthDuration/v2_depth_duration_MTurk/v2_DepthDuration_HTML.html#216,216,1366,625,1366,768,8-29-2022,15-30-54,112,depth_duration_stimuli/000709_2014-06-08_13-51-55_260595134347_rgbf000068-resize_3/000709_2014-06-08_13-51-55_260595134347_rgbf000068-resize_3-target.png,1000,1.8030000000000002,4,15801,1106,feet,jsons/v1_VE1000_randls_23_rotated.json,1255869,1467657,25,Woman
112,644462,DepthScenes,duration_manipulation_targetAtFixation,jsons/v1_VE1000_randls_23_rotated.json,http://54.235.29.9/FacialAge/BNav_EC2/DepthDuration/v2_depth_duration_MTurk/v2_DepthDuration_HTML.html#216,216,1366,625,1366,768,8-29-2022,15-30-54,113,depth_duration_stimuli/002057_2014-06-24_21-00-13_260595134347_rgbf000120-resize_1/002057_2014-06-24_21-00-13_260595134347_rgbf000120-resize_1-target.png,1000,2.967,5,5011,1008,feet,jsons/v1_VE1000_randls_23_rotated.json,1255869,1467657,25,Woman
113,644462,DepthScenes,duration_manipulation_targetAtFixation,jsons/v1_VE1000_randls_23_rotated.json,http://54.235.29.9/FacialAge/BNav_EC2/DepthDuration/v2_depth_duration_MTurk/v2_DepthDuration_HTML.html#216,216,1366,625,1366,768,8-29-2022,15-30-54,114,depth_duration_stimuli/003081_2014-06-15_15-19-16_094959634447_rgbf000150-resize_1/003081_2014-06-15_15-19-16_094959634447_rgbf000150-resize_1-target.png,1000,3.9125,8,5539,995,feet,jsons/v1_VE1000_randls_23_rotated.json,1255869,1467657,25,Woman
114,644462,DepthScenes,duration_manipulation_targetAtFixation,jsons/v1_VE1000_randls_23_rotated.json,http://54.235.29.9/FacialAge/BNav_EC2/DepthDuration/v2_depth_duration_MTurk/v2_DepthDuration_HTML.html#216,216,1366,625,1366,768,8-29-2022,15-30-54,115,depth_duration_stimuli/001417_2014-06-19_16-25-36_260595134347_rgbf000115-resize_5/001417_2014-06-19_16-25-36_260595134347_rgbf000115-resize_5-target.png,1000,4.6255,8,9879,995,feet,jsons/v1_VE1000_randls_23_rotated.json,1255869,1467657,25,Woman
115,644462,DepthScenes,duration_manipulation_targetAtFixation,jsons/v1_VE1000_randls_23_rotated.json,http://54.235.29.9/FacialAge/BNav_EC2/DepthDuration/v2_depth_duration_MTurk/v2_DepthDuration_HTML.html#216,216,1366,625,1366,768,8-29-2022,15-30-54,116,depth_duration_stimuli/000409_2014-06-04_19-23-33_260595134347_rgbf000067-resize_0/000409_2014-06-04_19-23-33_260595134347_rgbf000067-resize_0-target.png,1000,3.7335,5,5919,1008,feet,jsons/v1_VE1000_randls_23_rotated.json,1255869,1467657,25,Woman
116,644462,DepthScenes,duration_manipulation_targetAtFixation,jsons/v1_VE1000_randls_23_rotated.json,http://54.235.29.9/FacialAge/BNav_EC2/DepthDuration/v2_depth_duration_MTurk/v2_DepthDuration_HTML.html#216,216,1366,625,1366,768,8-29-2022,15-30-54,117,depth_duration_stimuli/002663_2014-06-13_15-50-26_094959634447_rgbf000075-resize_1/002663_2014-06-13_15-50-26_094959634447_rgbf000075-resize_1-target.png,1000,4.7495,6,5174,991,feet,jsons/v1_VE1000_randls_23_rotated.json,1255869,1467657,25,Woman
117,644462,DepthScenes,duration_manipulation_targetAtFixation,jsons/v1_VE1000_randls_23_rotated.json,http://54.235.29.9/FacialAge/BNav_EC2/DepthDuration/v2_depth_duration_MTurk/v2_DepthDuration_HTML.html#216,216,1366,625,1366,768,8-29-2022,15-30-54,118,depth_duration_stimuli/000927_2014-06-09_16-32-30_260595134347_rgbf000123-resize_3/000927_2014-06-09_16-32-30_260595134347_rgbf000123-resize_3-target.png,1000,2.6785,6,5798,998,feet,jsons/v1_VE1000_randls_23_rotated.json,1255869,1467657,25,Woman
118,644462,DepthScenes,duration_manipulation_targetAtFixation,jsons/v1_VE1000_randls_23_rotated.json,http://54.235.29.9/FacialAge/BNav_EC2/DepthDuration/v2_depth_duration_MTurk/v2_DepthDuration_HTML.html#216,216,1366,625,1366,768,8-29-2022,15-30-54,119,depth_duration_stimuli/001110_2014-06-15_17-25-28_260595134347_rgbf000150-resize_1/001110_2014-06-15_17-25-28_260595134347_rgbf000150-resize_1-target.png,1000,1.7115,5,5458,1004,feet,jsons/v1_VE1000_randls_23_rotated.json,1255869,1467657,25,Woman
119,644462,DepthScenes,duration_manipulation_targetAtFixation,jsons/v1_VE1000_randls_23_rotated.json,http://54.235.29.9/FacialAge/BNav_EC2/DepthDuration/v2_depth_duration_MTurk/v2_DepthDuration_HTML.html#216,216,1366,625,1366,768,8-29-2022,15-30-54,120,depth_duration_stimuli/000787_2014-06-08_22-33-53_260595134347_rgbf000175-resize_1/000787_2014-06-08_22-33-53_260595134347_rgbf000175-resize-original.jpg,1000,4.784,0,5793,999,feet,jsons/v1_VE1000_randls_23_rotated.json,1255869,1467657,25,Woman
120,644462,DepthScenes,duration_manipulation_targetAtFixation,jsons/v1_VE1000_randls_23_rotated.json,http://54.235.29.9/FacialAge/BNav_EC2/DepthDuration/v2_depth_duration_MTurk/v2_DepthDuration_HTML.html#216,216,1366,625,1366,768,8-29-2022,15-30-54,121,depth_duration_stimuli/000677_2014-06-08_23-10-32_260595134347_rgbf000158-resize_6/000677_2014-06-08_23-10-32_260595134347_rgbf000158-resize_6-target.png,1000,3.556,7,4561,996,feet,jsons/v1_VE1000_randls_23_rotated.json,1255869,1467657,25,Woman
121,644462,DepthScenes,duration_manipulation_targetAtFixation,jsons/v1_VE1000_randls_23_rotated.json,http://54.235.29.9/FacialAge/BNav_EC2/DepthDuration/v2_depth_duration_MTurk/v2_DepthDuration_HTML.html#216,216,1366,625,1366,768,8-29-2022,15-30-54,122,depth_duration_stimuli/001029_2014-06-08_13-17-57_260595134347_rgbf000065-resize_1/001029_2014-06-08_13-17-57_260595134347_rgbf000065-resize_1-target.png,1000,3.0835,8,5511,992,feet,jsons/v1_VE1000_randls_23_rotated.json,1255869,1467657,25,Woman
122,644462,DepthScenes,duration_manipulation_targetAtFixation,jsons/v1_VE1000_randls_23_rotated.json,http://54.235.29.9/FacialAge/BNav_EC2/DepthDuration/v2_depth_duration_MTurk/v2_DepthDuration_HTML.html#216,216,1366,625,1366,768,8-29-2022,15-30-54,123,depth_duration_stimuli/003228_2014-05-14_13-42-35_094959634447_rgbf000101-resize_1/003228_2014-05-14_13-42-35_094959634447_rgbf000101-resize_1-target.png,1000,1.9680000000000002,4,5424,994,feet,jsons/v1_VE1000_randls_23_rotated.json,1255869,1467657,25,Woman
123,644462,DepthScenes,duration_manipulation_targetAtFixation,jsons/v1_VE1000_randls_23_rotated.json,http://54.235.29.9/FacialAge/BNav_EC2/DepthDuration/v2_depth_duration_MTurk/v2_DepthDuration_HTML.html#216,216,1366,625,1366,768,8-29-2022,15-30-54,124,depth_duration_stimuli/002600_2014-06-24_14-27-04_094959634447_rgbf000074-resize_2/002600_2014-06-24_14-27-04_094959634447_rgbf000074-resize_2-target.png,1000,2.7575,3,4877,997,feet,jsons/v1_VE1000_randls_23_rotated.json,1255869,1467657,25,Woman
124,644462,DepthScenes,duration_manipulation_targetAtFixation,jsons/v1_VE1000_randls_23_rotated.json,http://54.235.29.9/FacialAge/BNav_EC2/DepthDuration/v2_depth_duration_MTurk/v2_DepthDuration_HTML.html#216,216,1366,625,1366,768,8-29-2022,15-30-54,125,depth_duration_stimuli/002750_2014-06-22_19-08-03_094959634447_rgbf000094-resize_4/002750_2014-06-22_19-08-03_094959634447_rgbf000094-resize_4-target.png,1000,2.354,6,5207,995,feet,jsons/v1_VE1000_randls_23_rotated.json,1255869,1467657,25,Woman
125,644462,DepthScenes,duration_manipulation_targetAtFixation,jsons/v1_VE1000_randls_23_rotated.json,http://54.235.29.9/FacialAge/BNav_EC2/DepthDuration/v2_depth_duration_MTurk/v2_DepthDuration_HTML.html#216,216,1366,625,1366,768,8-29-2022,15-30-54,126,depth_duration_stimuli/002549_2014-06-24_13-41-39_094959634447_rgbf000022-resize_3/002549_2014-06-24_13-41-39_094959634447_rgbf000022-resize_3-target.png,1000,1.476,6,4381,987,feet,jsons/v1_VE1000_randls_23_rotated.json,1255869,1467657,25,Woman
126,644462,DepthScenes,duration_manipulation_targetAtFixation,jsons/v1_VE1000_randls_23_rotated.json,http://54.235.29.9/FacialAge/BNav_EC2/DepthDuration/v2_depth_duration_MTurk/v2_DepthDuration_HTML.html#216,216,1366,625,1366,768,8-29-2022,15-30-54,127,depth_duration_stimuli/002323_2014-06-28_20-01-54_260595134347_rgbf000051-resize_4/002323_2014-06-28_20-01-54_260595134347_rgbf000051-resize_4-target.png,1000,3.7310000000000003,5,3687,999,feet,jsons/v1_VE1000_randls_23_rotated.json,1255869,1467657,25,Woman
127,644462,DepthScenes,duration_manipulation_targetAtFixation,jsons/v1_VE1000_randls_23_rotated.json,http://54.235.29.9/FacialAge/BNav_EC2/DepthDuration/v2_depth_duration_MTurk/v2_DepthDuration_HTML.html#216,216,1366,625,1366,768,8-29-2022,15-30-54,128,depth_duration_stimuli/000917_2014-06-09_22-45-29_260595134347_rgbf000149-resize_3/000917_2014-06-09_22-45-29_260595134347_rgbf000149-resize_3-target.png,1000,4.1865,6,6432,984,feet,jsons/v1_VE1000_randls_23_rotated.json,1255869,1467657,25,Woman
128,644462,DepthScenes,duration_manipulation_targetAtFixation,jsons/v1_VE1000_randls_23_rotated.json,http://54.235.29.9/FacialAge/BNav_EC2/DepthDuration/v2_depth_duration_MTurk/v2_DepthDuration_HTML.html#216,216,1366,625,1366,768,8-29-2022,15-30-54,129,depth_duration_stimuli/002949_2014-06-26_15-57-42_094959634447_rgbf000079-resize_1/002949_2014-06-26_15-57-42_094959634447_rgbf000079-resize_1-target.png,1000,1.8915,5,4976,994,feet,jsons/v1_VE1000_randls_23_rotated.json,1255869,1467657,25,Woman
129,644462,DepthScenes,duration_manipulation_targetAtFixation,jsons/v1_VE1000_randls_23_rotated.json,http://54.235.29.9/FacialAge/BNav_EC2/DepthDuration/v2_depth_duration_MTurk/v2_DepthDuration_HTML.html#216,216,1366,625,1366,768,8-29-2022,15-30-54,130,depth_duration_stimuli/000522_2014-06-08_13-35-06_260595134347_rgbf000244-resize_1/000522_2014-06-08_13-35-06_260595134347_rgbf000244-resize_1-target.png,1000,2.3715,5,4651,996,feet,jsons/v1_VE1000_randls_23_rotated.json,1255869,1467657,25,Woman
130,644462,DepthScenes,duration_manipulation_targetAtFixation,jsons/v1_VE1000_randls_23_rotated.json,http://54.235.29.9/FacialAge/BNav_EC2/DepthDuration/v2_depth_duration_MTurk/v2_DepthDuration_HTML.html#216,216,1366,625,1366,768,8-29-2022,15-30-54,131,depth_duration_stimuli/002209_2014-06-28_18-36-10_260595134347_rgbf000051-resize_1/002209_2014-06-28_18-36-10_260595134347_rgbf000051-resize_1-target.png,1000,2.057,5,4215,984,feet,jsons/v1_VE1000_randls_23_rotated.json,1255869,1467657,25,Woman
131,644462,DepthScenes,duration_manipulation_targetAtFixation,jsons/v1_VE1000_randls_23_rotated.json,http://54.235.29.9/FacialAge/BNav_EC2/DepthDuration/v2_depth_duration_MTurk/v2_DepthDuration_HTML.html#216,216,1366,625,1366,768,8-29-2022,15-30-54,132,depth_duration_stimuli/002763_2014-06-22_19-13-10_094959634447_rgbf000075-resize_4/002763_2014-06-22_19-13-10_094959634447_rgbf000075-resize_4-target.png,1000,1.68375,6,4283,999,feet,jsons/v1_VE1000_randls_23_rotated.json,1255869,1467657,25,Woman
132,644462,DepthScenes,duration_manipulation_targetAtFixation,jsons/v1_VE1000_randls_23_rotated.json,http://54.235.29.9/FacialAge/BNav_EC2/DepthDuration/v2_depth_duration_MTurk/v2_DepthDuration_HTML.html#216,216,1366,625,1366,768,8-29-2022,15-30-54,133,depth_duration_stimuli/003048_2014-06-15_13-49-43_094959634447_rgbf000150-resize_1/003048_2014-06-15_13-49-43_094959634447_rgbf000150-resize_1-target.png,1000,4.0035,8,4834,987,feet,jsons/v1_VE1000_randls_23_rotated.json,1255869,1467657,25,Woman
133,644462,DepthScenes,duration_manipulation_targetAtFixation,jsons/v1_VE1000_randls_23_rotated.json,http://54.235.29.9/FacialAge/BNav_EC2/DepthDuration/v2_depth_duration_MTurk/v2_DepthDuration_HTML.html#216,216,1366,625,1366,768,8-29-2022,15-30-54,134,depth_duration_stimuli/002043_2014-06-24_20-29-38_260595134347_rgbf000039-resize_4/002043_2014-06-24_20-29-38_260595134347_rgbf000039-resize_4-target.png,1000,2.8435,8,4191,1005,feet,jsons/v1_VE1000_randls_23_rotated.json,1255869,1467657,25,Woman
134,644462,DepthScenes,duration_manipulation_targetAtFixation,jsons/v1_VE1000_randls_23_rotated.json,http://54.235.29.9/FacialAge/BNav_EC2/DepthDuration/v2_depth_duration_MTurk/v2_DepthDuration_HTML.html#216,216,1366,625,1366,768,8-29-2022,15-30-54,135,depth_duration_stimuli/000375_2014-06-08_11-17-29_260595134347_rgbf000133-resize_2/000375_2014-06-08_11-17-29_260595134347_rgbf000133-resize-original.jpg,1000,4.718,2,6275,1013,feet,jsons/v1_VE1000_randls_23_rotated.json,1255869,1467657,25,Woman
135,644462,DepthScenes,duration_manipulation_targetAtFixation,jsons/v1_VE1000_randls_23_rotated.json,http://54.235.29.9/FacialAge/BNav_EC2/DepthDuration/v2_depth_duration_MTurk/v2_DepthDuration_HTML.html#216,216,1366,625,1366,768,8-29-2022,15-30-54,136,depth_duration_stimuli/001052_2014-06-08_18-24-54_260595134347_rgbf000130-resize_1/001052_2014-06-08_18-24-54_260595134347_rgbf000130-resize_1-target.png,1000,4.1045,8,10366,1010,feet,jsons/v1_VE1000_randls_23_rotated.json,1255869,1467657,25,Woman
136,644462,DepthScenes,duration_manipulation_targetAtFixation,jsons/v1_VE1000_randls_23_rotated.json,http://54.235.29.9/FacialAge/BNav_EC2/DepthDuration/v2_depth_duration_MTurk/v2_DepthDuration_HTML.html#216,216,1366,625,1366,768,8-29-2022,15-30-54,137,depth_duration_stimuli/002988_2014-06-15_12-24-20_094959634447_rgbf000150-resize_1/002988_2014-06-15_12-24-20_094959634447_rgbf000150-resize_1-target.png,1000,4.7669999999999995,9,7377,1004,feet,jsons/v1_VE1000_randls_23_rotated.json,1255869,1467657,25,Woman
137,644462,DepthScenes,duration_manipulation_targetAtFixation,jsons/v1_VE1000_randls_23_rotated.json,http://54.235.29.9/FacialAge/BNav_EC2/DepthDuration/v2_depth_duration_MTurk/v2_DepthDuration_HTML.html#216,216,1366,625,1366,768,8-29-2022,15-30-54,138,depth_duration_stimuli/002875_2014-06-01_15-19-00_094959634447_rgbf000151-resize_1/002875_2014-06-01_15-19-00_094959634447_rgbf000151-resize_1-target.png,1000,1.9675,9,5584,995,feet,jsons/v1_VE1000_randls_23_rotated.json,1255869,1467657,25,Woman
138,644462,DepthScenes,duration_manipulation_targetAtFixation,jsons/v1_VE1000_randls_23_rotated.json,http://54.235.29.9/FacialAge/BNav_EC2/DepthDuration/v2_depth_duration_MTurk/v2_DepthDuration_HTML.html#216,216,1366,625,1366,768,8-29-2022,15-30-54,139,depth_duration_stimuli/001011_2014-06-08_23-18-54_260595134347_rgbf000044-resize_4/001011_2014-06-08_23-18-54_260595134347_rgbf000044-resize_4-target.png,1000,2.4730000000000003,8,10411,1007,feet,jsons/v1_VE1000_randls_23_rotated.json,1255869,1467657,25,Woman
139,644462,DepthScenes,duration_manipulation_targetAtFixation,jsons/v1_VE1000_randls_23_rotated.json,http://54.235.29.9/FacialAge/BNav_EC2/DepthDuration/v2_depth_duration_MTurk/v2_DepthDuration_HTML.html#216,216,1366,625,1366,768,8-29-2022,15-30-54,140,depth_duration_stimuli/002660_2014-06-13_15-44-18_094959634447_rgbf001878-resize_2/002660_2014-06-13_15-44-18_094959634447_rgbf001878-resize_2-target.png,1000,3.576,5,13404,1925,feet,jsons/v1_VE1000_randls_23_rotated.json,1255869,1467657,25,Woman
140,644462,DepthScenes,duration_manipulation_targetAtFixation,jsons/v1_VE1000_randls_23_rotated.json,http://54.235.29.9/FacialAge/BNav_EC2/DepthDuration/v2_depth_duration_MTurk/v2_DepthDuration_HTML.html#216,216,1366,625,1366,768,8-29-2022,15-30-54,141,depth_duration_stimuli/002153_2014-06-25_21-27-18_260595134347_rgbf000038-resize_5/002153_2014-06-25_21-27-18_260595134347_rgbf000038-resize_5-target.png,1000,2.505,3,7648,991,feet,jsons/v1_VE1000_randls_23_rotated.json,1255869,1467657,25,Woman
141,644462,DepthScenes,duration_manipulation_targetAtFixation,jsons/v1_VE1000_randls_23_rotated.json,http://54.235.29.9/FacialAge/BNav_EC2/DepthDuration/v2_depth_duration_MTurk/v2_DepthDuration_HTML.html#216,216,1366,625,1366,768,8-29-2022,15-30-54,142,depth_duration_stimuli/003083_2014-06-15_15-21-03_094959634447_rgbf000063-resize_1/003083_2014-06-15_15-21-03_094959634447_rgbf000063-resize_1-target.png,1000,4.1405,8,4999,987,feet,jsons/v1_VE1000_randls_23_rotated.json,1255869,1467657,25,Woman
142,644462,DepthScenes,duration_manipulation_targetAtFixation,jsons/v1_VE1000_randls_23_rotated.json,http://54.235.29.9/FacialAge/BNav_EC2/DepthDuration/v2_depth_duration_MTurk/v2_DepthDuration_HTML.html#216,216,1366,625,1366,768,8-29-2022,15-30-54,143,depth_duration_stimuli/000486_2014-06-09_20-47-20_260595134347_rgbf000143-resize_2/000486_2014-06-09_20-47-20_260595134347_rgbf000143-resize_2-target.png,1000,4.8325,7,4980,994,feet,jsons/v1_VE1000_randls_23_rotated.json,1255869,1467657,25,Woman
143,644462,DepthScenes,duration_manipulation_targetAtFixation,jsons/v1_VE1000_randls_23_rotated.json,http://54.235.29.9/FacialAge/BNav_EC2/DepthDuration/v2_depth_duration_MTurk/v2_DepthDuration_HTML.html#216,216,1366,625,1366,768,8-29-2022,15-30-54,144,depth_duration_stimuli/003423_2014-05-21_10-23-26_094959634447_rgbf002665-resize_2/003423_2014-05-21_10-23-26_094959634447_rgbf002665-resize_2-target.png,1000,3.2575,7,4407,1001,feet,jsons/v1_VE1000_randls_23_rotated.json,1255869,1467657,25,Woman
144,644462,DepthScenes,duration_manipulation_targetAtFixation,jsons/v1_VE1000_randls_23_rotated.json,http://54.235.29.9/FacialAge/BNav_EC2/DepthDuration/v2_depth_duration_MTurk/v2_DepthDuration_HTML.html#216,216,1366,625,1366,768,8-29-2022,15-30-54,145,depth_duration_stimuli/002905_2014-06-03_18-04-43_094959634447_rgbf000151-resize_2/002905_2014-06-03_18-04-43_094959634447_rgbf000151-resize_2-target.png,1000,2.0295,4,4377,995,feet,jsons/v1_VE1000_randls_23_rotated.json,1255869,1467657,25,Woman
145,644462,DepthScenes,duration_manipulation_targetAtFixation,jsons/v1_VE1000_randls_23_rotated.json,http://54.235.29.9/FacialAge/BNav_EC2/DepthDuration/v2_depth_duration_MTurk/v2_DepthDuration_HTML.html#216,216,1366,625,1366,768,8-29-2022,15-30-54,146,depth_duration_stimuli/000943_2014-06-09_19-31-07_260595134347_rgbf000128-resize_1/000943_2014-06-09_19-31-07_260595134347_rgbf000128-resize_1-target.png,1000,1.9765,5,6462,1014,feet,jsons/v1_VE1000_randls_23_rotated.json,1255869,1467657,25,Woman
146,644462,DepthScenes,duration_manipulation_targetAtFixation,jsons/v1_VE1000_randls_23_rotated.json,http://54.235.29.9/FacialAge/BNav_EC2/DepthDuration/v2_depth_duration_MTurk/v2_DepthDuration_HTML.html#216,216,1366,625,1366,768,8-29-2022,15-30-54,147,depth_duration_stimuli/003070_2014-06-15_14-58-27_094959634447_rgbf000150-resize_3/003070_2014-06-15_14-58-27_094959634447_rgbf000150-resize_3-target.png,1000,2.9415,5,4875,998,feet,jsons/v1_VE1000_randls_23_rotated.json,1255869,1467657,25,Woman
147,644462,DepthScenes,duration_manipulation_targetAtFixation,jsons/v1_VE1000_randls_23_rotated.json,http://54.235.29.9/FacialAge/BNav_EC2/DepthDuration/v2_depth_duration_MTurk/v2_DepthDuration_HTML.html#216,216,1366,625,1366,768,8-29-2022,15-30-54,148,depth_duration_stimuli/003129_2014-05-12_10-48-10_094959634447_rgbf000100-resize_0/003129_2014-05-12_10-48-10_094959634447_rgbf000100-resize_0-target.png,1000,4.9305,5,5516,987,feet,jsons/v1_VE1000_randls_23_rotated.json,1255869,1467657,25,Woman
148,644462,DepthScenes,duration_manipulation_targetAtFixation,jsons/v1_VE1000_randls_23_rotated.json,http://54.235.29.9/FacialAge/BNav_EC2/DepthDuration/v2_depth_duration_MTurk/v2_DepthDuration_HTML.html#216,216,1366,625,1366,768,8-29-2022,15-30-54,149,depth_duration_stimuli/000414_2014-06-04_19-49-13_260595134347_rgbf000044-resize_0/000414_2014-06-04_19-49-13_260595134347_rgbf000044-resize_0-target.png,1000,4.329,8,5004,991,feet,jsons/v1_VE1000_randls_23_rotated.json,1255869,1467657,25,Woman
149,644462,DepthScenes,duration_manipulation_targetAtFixation,jsons/v1_VE1000_randls_23_rotated.json,http://54.235.29.9/FacialAge/BNav_EC2/DepthDuration/v2_depth_duration_MTurk/v2_DepthDuration_HTML.html#216,216,1366,625,1366,768,8-29-2022,15-30-54,150,depth_duration_stimuli/002545_2014-06-24_13-38-53_094959634447_rgbf000080-resize_4/002545_2014-06-24_13-38-53_094959634447_rgbf000080-resize_4-target.png,1000,1.9205,8,4353,998,feet,jsons/v1_VE1000_randls_23_rotated.json,1255869,1467657,25,Woman
150,644462,DepthScenes,duration_manipulation_targetAtFixation,jsons/v1_VE1000_randls_23_rotated.json,http://54.235.29.9/FacialAge/BNav_EC2/DepthDuration/v2_depth_duration_MTurk/v2_DepthDuration_HTML.html#216,216,1366,625,1366,768,8-29-2022,15-30-54,151,depth_duration_stimuli/001092_2014-06-15_17-34-58_260595134347_rgbf000171-resize_3/001092_2014-06-15_17-34-58_260595134347_rgbf000171-resize_3-target.png,1000,2.6935,5,3721,997,feet,jsons/v1_VE1000_randls_23_rotated.json,1255869,1467657,25,Woman
151,644462,DepthScenes,duration_manipulation_targetAtFixation,jsons/v1_VE1000_randls_23_rotated.json,http://54.235.29.9/FacialAge/BNav_EC2/DepthDuration/v2_depth_duration_MTurk/v2_DepthDuration_HTML.html#216,216,1366,625,1366,768,8-29-2022,15-30-54,152,depth_duration_stimuli/000569_2014-06-09_22-51-47_260595134347_rgbf000141-resize_3/000569_2014-06-09_22-51-47_260595134347_rgbf000141-resize-original.jpg,1000,4.512,0,4975,995,feet,jsons/v1_VE1000_randls_23_rotated.json,1255869,1467657,25,Woman
152,644462,DepthScenes,duration_manipulation_targetAtFixation,jsons/v1_VE1000_randls_23_rotated.json,http://54.235.29.9/FacialAge/BNav_EC2/DepthDuration/v2_depth_duration_MTurk/v2_DepthDuration_HTML.html#216,216,1366,625,1366,768,8-29-2022,15-30-54,153,depth_duration_stimuli/002199_2014-06-28_18-33-56_260595134347_rgbf000074-resize_0/002199_2014-06-28_18-33-56_260595134347_rgbf000074-resize_0-target.png,1000,1.996,4,5242,1001,feet,jsons/v1_VE1000_randls_23_rotated.json,1255869,1467657,25,Woman
153,644462,DepthScenes,duration_manipulation_targetAtFixation,jsons/v1_VE1000_randls_23_rotated.json,http://54.235.29.9/FacialAge/BNav_EC2/DepthDuration/v2_depth_duration_MTurk/v2_DepthDuration_HTML.html#216,216,1366,625,1366,768,8-29-2022,15-30-54,154,depth_duration_stimuli/001056_2014-06-08_18-46-44_260595134347_rgbf000068-resize_0/001056_2014-06-08_18-46-44_260595134347_rgbf000068-resize_0-target.png,1000,2.6625,4,6173,996,feet,jsons/v1_VE1000_randls_23_rotated.json,1255869,1467657,25,Woman
154,644462,DepthScenes,duration_manipulation_targetAtFixation,jsons/v1_VE1000_randls_23_rotated.json,http://54.235.29.9/FacialAge/BNav_EC2/DepthDuration/v2_depth_duration_MTurk/v2_DepthDuration_HTML.html#216,216,1366,625,1366,768,8-29-2022,15-30-54,155,depth_duration_stimuli/002425_2014-06-28_20-27-29_260595134347_rgbf000031-resize_8/002425_2014-06-28_20-27-29_260595134347_rgbf000031-resize_8-target.png,1000,3.8960000000000004,8,6273,992,feet,jsons/v1_VE1000_randls_23_rotated.json,1255869,1467657,25,Woman
155,644462,DepthScenes,duration_manipulation_targetAtFixation,jsons/v1_VE1000_randls_23_rotated.json,http://54.235.29.9/FacialAge/BNav_EC2/DepthDuration/v2_depth_duration_MTurk/v2_DepthDuration_HTML.html#216,216,1366,625,1366,768,8-29-2022,15-30-54,156,depth_duration_stimuli/000642_2014-06-08_16-59-25_260595134347_rgbf000098-resize_2/000642_2014-06-08_16-59-25_260595134347_rgbf000098-resize_2-target.png,1000,2.8815,5,5603,987,feet,jsons/v1_VE1000_randls_23_rotated.json,1255869,1467657,25,Woman
156,644462,DepthScenes,duration_manipulation_targetAtFixation,jsons/v1_VE1000_randls_23_rotated.json,http://54.235.29.9/FacialAge/BNav_EC2/DepthDuration/v2_depth_duration_MTurk/v2_DepthDuration_HTML.html#216,216,1366,625,1366,768,8-29-2022,15-30-54,157,depth_duration_stimuli/000665_2014-06-09_20-42-35_260595134347_rgbf000110-resize_1/000665_2014-06-09_20-42-35_260595134347_rgbf000110-resize_1-target.png,1000,3.057,4,8059,1280,feet,jsons/v1_VE1000_randls_23_rotated.json,1255869,1467657,25,Woman
157,644462,DepthScenes,duration_manipulation_targetAtFixation,jsons/v1_VE1000_randls_23_rotated.json,http://54.235.29.9/FacialAge/BNav_EC2/DepthDuration/v2_depth_duration_MTurk/v2_DepthDuration_HTML.html#216,216,1366,625,1366,768,8-29-2022,15-30-54,158,depth_duration_stimuli/001150_2014-06-17_15-27-34_260595134347_rgbf000108-resize_2/001150_2014-06-17_15-27-34_260595134347_rgbf000108-resize_2-target.png,1000,4.0325,7,6474,992,feet,jsons/v1_VE1000_randls_23_rotated.json,1255869,1467657,25,Woman
158,644462,DepthScenes,duration_manipulation_targetAtFixation,jsons/v1_VE1000_randls_23_rotated.json,http://54.235.29.9/FacialAge/BNav_EC2/DepthDuration/v2_depth_duration_MTurk/v2_DepthDuration_HTML.html#216,216,1366,625,1366,768,8-29-2022,15-30-54,159,depth_duration_stimuli/001450_2014-06-19_17-02-03_260595134347_rgbf000203-resize_4/001450_2014-06-19_17-02-03_260595134347_rgbf000203-resize_4-target.png,1000,4.0106666666667,7,3674,999,feet,jsons/v1_VE1000_randls_23_rotated.json,1255869,1467657,25,Woman
159,644462,DepthScenes,duration_manipulation_targetAtFixation,jsons/v1_VE1000_randls_23_rotated.json,http://54.235.29.9/FacialAge/BNav_EC2/DepthDuration/v2_depth_duration_MTurk/v2_DepthDuration_HTML.html#216,216,1366,625,1366,768,8-29-2022,15-30-54,160,depth_duration_stimuli/001449_2014-06-19_17-01-27_260595134347_rgbf000116-resize_2/001449_2014-06-19_17-01-27_260595134347_rgbf000116-resize_2-target.png,1000,3.452,5,4296,996,feet,jsons/v1_VE1000_randls_23_rotated.json,1255869,1467657,25,Woman
160,644462,DepthScenes,duration_manipulation_targetAtFixation,jsons/v1_VE1000_randls_23_rotated.json,http://54.235.29.9/FacialAge/BNav_EC2/DepthDuration/v2_depth_duration_MTurk/v2_DepthDuration_HTML.html#216,216,1366,625,1366,768,8-29-2022,15-30-54,161,depth_duration_stimuli/002444_2014-06-28_20-32-08_260595134347_rgbf000027-resize_0/002444_2014-06-28_20-32-08_260595134347_rgbf000027-resize_0-target.png,1000,4.388999999999999,7,9556,991,feet,jsons/v1_VE1000_randls_23_rotated.json,1255869,1467657,25,Woman
161,644462,DepthScenes,duration_manipulation_targetAtFixation,jsons/v1_VE1000_randls_23_rotated.json,http://54.235.29.9/FacialAge/BNav_EC2/DepthDuration/v2_depth_duration_MTurk/v2_DepthDuration_HTML.html#216,216,1366,625,1366,768,8-29-2022,15-30-54,162,depth_duration_stimuli/000436_2014-06-09_22-25-11_260595134347_rgbf000137-resize_1/000436_2014-06-09_22-25-11_260595134347_rgbf000137-resize_1-target.png,1000,4.0705,8,3632,995,feet,jsons/v1_VE1000_randls_23_rotated.json,1255869,1467657,25,Woman
162,644462,DepthScenes,duration_manipulation_targetAtFixation,jsons/v1_VE1000_randls_23_rotated.json,http://54.235.29.9/FacialAge/BNav_EC2/DepthDuration/v2_depth_duration_MTurk/v2_DepthDuration_HTML.html#216,216,1366,625,1366,768,8-29-2022,15-30-54,163,depth_duration_stimuli/001650_2014-06-20_12-09-00_260595134347_rgbf000087-resize_3/001650_2014-06-20_12-09-00_260595134347_rgbf000087-resize_3-target.png,1000,1.9505,3,3847,996,feet,jsons/v1_VE1000_randls_23_rotated.json,1255869,1467657,25,Woman
163,644462,DepthScenes,duration_manipulation_targetAtFixation,jsons/v1_VE1000_randls_23_rotated.json,http://54.235.29.9/FacialAge/BNav_EC2/DepthDuration/v2_depth_duration_MTurk/v2_DepthDuration_HTML.html#216,216,1366,625,1366,768,8-29-2022,15-30-54,164,depth_duration_stimuli/000682_2014-06-08_23-14-58_260595134347_rgbf000041-resize_5/000682_2014-06-08_23-14-58_260595134347_rgbf000041-resize_5-target.png,1000,2.7239999999999998,4,5209,1012,feet,jsons/v1_VE1000_randls_23_rotated.json,1255869,1467657,25,Woman
