,subjID,experimentName,versionName,sequenceName,url,selected_row,windowWidth,windowHeight,screenWidth,screenHeight,startDate,startTime,trial,stimulus,duration,actual_depth,depth_estimate,trial_RT,log_sceneDuration,unitSelection,seq_filepath,experimentTime,totalTime,age,gender
0,645473,DepthScenes,duration_manipulation_targetAtFixation,jsons/v1_VE1000_randls_30.json,http://54.235.29.9/FacialAge/BNav_EC2/DepthDuration/v2_depth_duration_MTurk/v2_DepthDuration_HTML.html#236,236,1024,768,1024,768,8-30-2022,10-56-39,1,depth_duration_stimuli/002570_2014-06-24_13-59-54_094959634447_rgbf000059-resize_0/002570_2014-06-24_13-59-54_094959634447_rgbf000059-resize_0-target.png,1000,4.037,2.0,14477,999,feet,jsons/v1_VE1000_randls_30.json,3036860,3144847,33,Man
1,645473,DepthScenes,duration_manipulation_targetAtFixation,jsons/v1_VE1000_randls_30.json,http://54.235.29.9/FacialAge/BNav_EC2/DepthDuration/v2_depth_duration_MTurk/v2_DepthDuration_HTML.html#236,236,1024,768,1024,768,8-30-2022,10-56-39,2,depth_duration_stimuli/002467_2014-06-28_20-38-07_260595134347_rgbf000026-resize_2/002467_2014-06-28_20-38-07_260595134347_rgbf000026-resize_2-target.png,1000,4.742,2.0,3526,997,feet,jsons/v1_VE1000_randls_30.json,3036860,3144847,33,Man
2,645473,DepthScenes,duration_manipulation_targetAtFixation,jsons/v1_VE1000_randls_30.json,http://54.235.29.9/FacialAge/BNav_EC2/DepthDuration/v2_depth_duration_MTurk/v2_DepthDuration_HTML.html#236,236,1024,768,1024,768,8-30-2022,10-56-39,3,depth_duration_stimuli/000506_2014-06-08_23-21-00_260595134347_rgbf000070-resize_7/000506_2014-06-08_23-21-00_260595134347_rgbf000070-resize_7-target.png,1000,4.0585,3.0,3491,1000,feet,jsons/v1_VE1000_randls_30.json,3036860,3144847,33,Man
3,645473,DepthScenes,duration_manipulation_targetAtFixation,jsons/v1_VE1000_randls_30.json,http://54.235.29.9/FacialAge/BNav_EC2/DepthDuration/v2_depth_duration_MTurk/v2_DepthDuration_HTML.html#236,236,1024,768,1024,768,8-30-2022,10-56-39,4,depth_duration_stimuli/003079_2014-06-15_15-18-20_094959634447_rgbf000152-resize_8/003079_2014-06-15_15-18-20_094959634447_rgbf000152-resize_8-target.png,1000,2.8775,4.0,5530,1000,feet,jsons/v1_VE1000_randls_30.json,3036860,3144847,33,Man
4,645473,DepthScenes,duration_manipulation_targetAtFixation,jsons/v1_VE1000_randls_30.json,http://54.235.29.9/FacialAge/BNav_EC2/DepthDuration/v2_depth_duration_MTurk/v2_DepthDuration_HTML.html#236,236,1024,768,1024,768,8-30-2022,10-56-39,5,depth_duration_stimuli/001806_2014-06-26_20-50-20_260595134347_rgbf000091-resize_1/001806_2014-06-26_20-50-20_260595134347_rgbf000091-resize_1-target.png,1000,2.7305,0.0,3454,998,feet,jsons/v1_VE1000_randls_30.json,3036860,3144847,33,Man
5,645473,DepthScenes,duration_manipulation_targetAtFixation,jsons/v1_VE1000_randls_30.json,http://54.235.29.9/FacialAge/BNav_EC2/DepthDuration/v2_depth_duration_MTurk/v2_DepthDuration_HTML.html#236,236,1024,768,1024,768,8-30-2022,10-56-39,6,depth_duration_stimuli/001617_2014-06-20_11-35-32_260595134347_rgbf000066-resize_1/001617_2014-06-20_11-35-32_260595134347_rgbf000066-resize_1-target.png,1000,3.7910000000000004,2.0,3511,1000,feet,jsons/v1_VE1000_randls_30.json,3036860,3144847,33,Man
6,645473,DepthScenes,duration_manipulation_targetAtFixation,jsons/v1_VE1000_randls_30.json,http://54.235.29.9/FacialAge/BNav_EC2/DepthDuration/v2_depth_duration_MTurk/v2_DepthDuration_HTML.html#236,236,1024,768,1024,768,8-30-2022,10-56-39,7,depth_duration_stimuli/001164_2014-06-17_15-35-46_260595134347_rgbf000085-resize_3/001164_2014-06-17_15-35-46_260595134347_rgbf000085-resize_3-target.png,1000,2.354,2.0,6006,998,feet,jsons/v1_VE1000_randls_30.json,3036860,3144847,33,Man
7,645473,DepthScenes,duration_manipulation_targetAtFixation,jsons/v1_VE1000_randls_30.json,http://54.235.29.9/FacialAge/BNav_EC2/DepthDuration/v2_depth_duration_MTurk/v2_DepthDuration_HTML.html#236,236,1024,768,1024,768,8-30-2022,10-56-39,8,depth_duration_stimuli/001136_2014-06-17_15-19-41_260595134347_rgbf000076-resize_3/001136_2014-06-17_15-19-41_260595134347_rgbf000076-resize_3-target.png,1000,1.8655,4.0,4470,998,feet,jsons/v1_VE1000_randls_30.json,3036860,3144847,33,Man
8,645473,DepthScenes,duration_manipulation_targetAtFixation,jsons/v1_VE1000_randls_30.json,http://54.235.29.9/FacialAge/BNav_EC2/DepthDuration/v2_depth_duration_MTurk/v2_DepthDuration_HTML.html#236,236,1024,768,1024,768,8-30-2022,10-56-39,9,depth_duration_stimuli/001059_2014-06-08_21-53-27_260595134347_rgbf000061-resize_4/001059_2014-06-08_21-53-27_260595134347_rgbf000061-resize_4-target.png,1000,2.4185,0.0,5000,1000,feet,jsons/v1_VE1000_randls_30.json,3036860,3144847,33,Man
9,645473,DepthScenes,duration_manipulation_targetAtFixation,jsons/v1_VE1000_randls_30.json,http://54.235.29.9/FacialAge/BNav_EC2/DepthDuration/v2_depth_duration_MTurk/v2_DepthDuration_HTML.html#236,236,1024,768,1024,768,8-30-2022,10-56-39,10,depth_duration_stimuli/001032_2014-06-08_13-23-17_260595134347_rgbf000021-resize_3/001032_2014-06-08_13-23-17_260595134347_rgbf000021-resize_3-target.png,1000,3.2725,32.0,3518,1000,feet,jsons/v1_VE1000_randls_30.json,3036860,3144847,33,Man
10,645473,DepthScenes,duration_manipulation_targetAtFixation,jsons/v1_VE1000_randls_30.json,http://54.235.29.9/FacialAge/BNav_EC2/DepthDuration/v2_depth_duration_MTurk/v2_DepthDuration_HTML.html#236,236,1024,768,1024,768,8-30-2022,10-56-39,11,depth_duration_stimuli/002279_2014-06-28_18-55-32_260595134347_rgbf000040-resize_5/002279_2014-06-28_18-55-32_260595134347_rgbf000040-resize_5-target.png,1000,1.5043333333333,3.0,4077,1000,feet,jsons/v1_VE1000_randls_30.json,3036860,3144847,33,Man
11,645473,DepthScenes,duration_manipulation_targetAtFixation,jsons/v1_VE1000_randls_30.json,http://54.235.29.9/FacialAge/BNav_EC2/DepthDuration/v2_depth_duration_MTurk/v2_DepthDuration_HTML.html#236,236,1024,768,1024,768,8-30-2022,10-56-39,12,depth_duration_stimuli/000635_2014-06-08_16-38-42_260595134347_rgbf000106-resize_1/000635_2014-06-08_16-38-42_260595134347_rgbf000106-resize_1-target.png,1000,2.074,2.0,3912,1000,feet,jsons/v1_VE1000_randls_30.json,3036860,3144847,33,Man
12,645473,DepthScenes,duration_manipulation_targetAtFixation,jsons/v1_VE1000_randls_30.json,http://54.235.29.9/FacialAge/BNav_EC2/DepthDuration/v2_depth_duration_MTurk/v2_DepthDuration_HTML.html#236,236,1024,768,1024,768,8-30-2022,10-56-39,13,depth_duration_stimuli/000569_2014-06-09_22-51-47_260595134347_rgbf000141-resize_3/000569_2014-06-09_22-51-47_260595134347_rgbf000141-resize-original.jpg,1000,4.512,0.0,4006,1000,feet,jsons/v1_VE1000_randls_30.json,3036860,3144847,33,Man
13,645473,DepthScenes,duration_manipulation_targetAtFixation,jsons/v1_VE1000_randls_30.json,http://54.235.29.9/FacialAge/BNav_EC2/DepthDuration/v2_depth_duration_MTurk/v2_DepthDuration_HTML.html#236,236,1024,768,1024,768,8-30-2022,10-56-39,14,depth_duration_stimuli/000470_2014-06-09_19-42-40_260595134347_rgbf000094-resize_1/000470_2014-06-09_19-42-40_260595134347_rgbf000094-resize_1-target.png,1000,1.831,0.0,4559,999,feet,jsons/v1_VE1000_randls_30.json,3036860,3144847,33,Man
14,645473,DepthScenes,duration_manipulation_targetAtFixation,jsons/v1_VE1000_randls_30.json,http://54.235.29.9/FacialAge/BNav_EC2/DepthDuration/v2_depth_duration_MTurk/v2_DepthDuration_HTML.html#236,236,1024,625,1024,768,8-30-2022,10-56-39,15,depth_duration_stimuli/000109_2014-05-14_23-41-52_260595134347_rgbf000035-resize_9/000109_2014-05-14_23-41-52_260595134347_rgbf000035-resize_9-target.png,1000,1.3545,5.0,75938,1000,feet,jsons/v1_VE1000_randls_30.json,3036860,3144847,33,Man
15,645473,DepthScenes,duration_manipulation_targetAtFixation,jsons/v1_VE1000_randls_30.json,http://54.235.29.9/FacialAge/BNav_EC2/DepthDuration/v2_depth_duration_MTurk/v2_DepthDuration_HTML.html#236,236,1024,625,1024,768,8-30-2022,10-56-39,16,depth_duration_stimuli/000692_2014-06-08_13-09-42_260595134347_rgbf000199-resize_2/000692_2014-06-08_13-09-42_260595134347_rgbf000199-resize_2-target.png,1000,3.661,2.0,18998,999,feet,jsons/v1_VE1000_randls_30.json,3036860,3144847,33,Man
16,645473,DepthScenes,duration_manipulation_targetAtFixation,jsons/v1_VE1000_randls_30.json,http://54.235.29.9/FacialAge/BNav_EC2/DepthDuration/v2_depth_duration_MTurk/v2_DepthDuration_HTML.html#236,236,1024,625,1024,768,8-30-2022,10-56-39,17,depth_duration_stimuli/001094_2014-06-15_17-36-00_260595134347_rgbf000205-resize_0/001094_2014-06-15_17-36-00_260595134347_rgbf000205-resize_0-target.png,1000,4.2175,5.0,11499,1000,feet,jsons/v1_VE1000_randls_30.json,3036860,3144847,33,Man
17,645473,DepthScenes,duration_manipulation_targetAtFixation,jsons/v1_VE1000_randls_30.json,http://54.235.29.9/FacialAge/BNav_EC2/DepthDuration/v2_depth_duration_MTurk/v2_DepthDuration_HTML.html#236,236,1024,625,1024,768,8-30-2022,10-56-39,18,depth_duration_stimuli/002988_2014-06-15_12-24-20_094959634447_rgbf000150-resize_1/002988_2014-06-15_12-24-20_094959634447_rgbf000150-resize_1-target.png,1000,4.7669999999999995,5.0,8551,999,feet,jsons/v1_VE1000_randls_30.json,3036860,3144847,33,Man
18,645473,DepthScenes,duration_manipulation_targetAtFixation,jsons/v1_VE1000_randls_30.json,http://54.235.29.9/FacialAge/BNav_EC2/DepthDuration/v2_depth_duration_MTurk/v2_DepthDuration_HTML.html#236,236,1024,625,1024,768,8-30-2022,10-56-39,19,depth_duration_stimuli/001052_2014-06-08_18-24-54_260595134347_rgbf000130-resize_1/001052_2014-06-08_18-24-54_260595134347_rgbf000130-resize_1-target.png,1000,4.1045,5.0,827444,999,feet,jsons/v1_VE1000_randls_30.json,3036860,3144847,33,Man
19,645473,DepthScenes,duration_manipulation_targetAtFixation,jsons/v1_VE1000_randls_30.json,http://54.235.29.9/FacialAge/BNav_EC2/DepthDuration/v2_depth_duration_MTurk/v2_DepthDuration_HTML.html#236,236,1024,625,1024,768,8-30-2022,10-56-39,20,depth_duration_stimuli/003621_2014-05-23_18-06-08_094959634447_rgbf000101-resize_1/003621_2014-05-23_18-06-08_094959634447_rgbf000101-resize_1-target.png,1000,3.9835,2.0,3498,998,feet,jsons/v1_VE1000_randls_30.json,3036860,3144847,33,Man
20,645473,DepthScenes,duration_manipulation_targetAtFixation,jsons/v1_VE1000_randls_30.json,http://54.235.29.9/FacialAge/BNav_EC2/DepthDuration/v2_depth_duration_MTurk/v2_DepthDuration_HTML.html#236,236,1024,625,1024,768,8-30-2022,10-56-39,21,depth_duration_stimuli/001584_2014-06-20_11-07-43_260595134347_rgbf000002-resize_1/001584_2014-06-20_11-07-43_260595134347_rgbf000002-resize_1-target.png,1000,3.53,3.0,5509,999,feet,jsons/v1_VE1000_randls_30.json,3036860,3144847,33,Man
21,645473,DepthScenes,duration_manipulation_targetAtFixation,jsons/v1_VE1000_randls_30.json,http://54.235.29.9/FacialAge/BNav_EC2/DepthDuration/v2_depth_duration_MTurk/v2_DepthDuration_HTML.html#236,236,1024,625,1024,768,8-30-2022,10-56-39,22,depth_duration_stimuli/001555_2014-06-20_17-12-10_260595134347_rgbf000065-resize_4/001555_2014-06-20_17-12-10_260595134347_rgbf000065-resize_4-target.png,1000,1.633,3.0,6972,998,feet,jsons/v1_VE1000_randls_30.json,3036860,3144847,33,Man
22,645473,DepthScenes,duration_manipulation_targetAtFixation,jsons/v1_VE1000_randls_30.json,http://54.235.29.9/FacialAge/BNav_EC2/DepthDuration/v2_depth_duration_MTurk/v2_DepthDuration_HTML.html#236,236,1024,625,1024,768,8-30-2022,10-56-39,23,depth_duration_stimuli/000103_2014-05-14_22-01-17_260595134347_rgbf000152-resize_5/000103_2014-05-14_22-01-17_260595134347_rgbf000152-resize_5-target.png,1000,1.993,2.0,25515,999,feet,jsons/v1_VE1000_randls_30.json,3036860,3144847,33,Man
23,645473,DepthScenes,duration_manipulation_targetAtFixation,jsons/v1_VE1000_randls_30.json,http://54.235.29.9/FacialAge/BNav_EC2/DepthDuration/v2_depth_duration_MTurk/v2_DepthDuration_HTML.html#236,236,1024,625,1024,768,8-30-2022,10-56-39,24,depth_duration_stimuli/001133_2014-06-17_14-49-16_260595134347_rgbf000100-resize_0/001133_2014-06-17_14-49-16_260595134347_rgbf000100-resize_0-target.png,1000,4.2115,5.0,5000,999,feet,jsons/v1_VE1000_randls_30.json,3036860,3144847,33,Man
24,645473,DepthScenes,duration_manipulation_targetAtFixation,jsons/v1_VE1000_randls_30.json,http://54.235.29.9/FacialAge/BNav_EC2/DepthDuration/v2_depth_duration_MTurk/v2_DepthDuration_HTML.html#236,236,1024,625,1024,768,8-30-2022,10-56-39,25,depth_duration_stimuli/001132_2014-06-17_14-48-54_260595134347_rgbf000100-resize_2/001132_2014-06-17_14-48-54_260595134347_rgbf000100-resize_2-target.png,1000,3.753,3.0,4988,999,feet,jsons/v1_VE1000_randls_30.json,3036860,3144847,33,Man
25,645473,DepthScenes,duration_manipulation_targetAtFixation,jsons/v1_VE1000_randls_30.json,http://54.235.29.9/FacialAge/BNav_EC2/DepthDuration/v2_depth_duration_MTurk/v2_DepthDuration_HTML.html#236,236,1024,625,1024,768,8-30-2022,10-56-39,26,depth_duration_stimuli/000436_2014-06-09_22-25-11_260595134347_rgbf000137-resize_1/000436_2014-06-09_22-25-11_260595134347_rgbf000137-resize_1-target.png,1000,4.0705,2.0,4571,1000,feet,jsons/v1_VE1000_randls_30.json,3036860,3144847,33,Man
26,645473,DepthScenes,duration_manipulation_targetAtFixation,jsons/v1_VE1000_randls_30.json,http://54.235.29.9/FacialAge/BNav_EC2/DepthDuration/v2_depth_duration_MTurk/v2_DepthDuration_HTML.html#236,236,1024,625,1024,768,8-30-2022,10-56-39,27,depth_duration_stimuli/002444_2014-06-28_20-32-08_260595134347_rgbf000027-resize_0/002444_2014-06-28_20-32-08_260595134347_rgbf000027-resize_0-target.png,1000,4.388999999999999,3.0,5427,1000,feet,jsons/v1_VE1000_randls_30.json,3036860,3144847,33,Man
27,645473,DepthScenes,duration_manipulation_targetAtFixation,jsons/v1_VE1000_randls_30.json,http://54.235.29.9/FacialAge/BNav_EC2/DepthDuration/v2_depth_duration_MTurk/v2_DepthDuration_HTML.html#236,236,1024,625,1024,768,8-30-2022,10-56-39,28,depth_duration_stimuli/002630_2014-06-24_14-47-50_094959634447_rgbf000055-resize_1/002630_2014-06-24_14-47-50_094959634447_rgbf000055-resize_1-target.png,1000,3.0095,2.0,5998,999,feet,jsons/v1_VE1000_randls_30.json,3036860,3144847,33,Man
28,645473,DepthScenes,duration_manipulation_targetAtFixation,jsons/v1_VE1000_randls_30.json,http://54.235.29.9/FacialAge/BNav_EC2/DepthDuration/v2_depth_duration_MTurk/v2_DepthDuration_HTML.html#236,236,1024,625,1024,768,8-30-2022,10-56-39,29,depth_duration_stimuli/002758_2014-06-22_19-11-20_094959634447_rgbf000128-resize_1/002758_2014-06-22_19-11-20_094959634447_rgbf000128-resize_1-target.png,1000,2.555,3.0,3999,999,feet,jsons/v1_VE1000_randls_30.json,3036860,3144847,33,Man
29,645473,DepthScenes,duration_manipulation_targetAtFixation,jsons/v1_VE1000_randls_30.json,http://54.235.29.9/FacialAge/BNav_EC2/DepthDuration/v2_depth_duration_MTurk/v2_DepthDuration_HTML.html#236,236,1024,625,1024,768,8-30-2022,10-56-39,30,depth_duration_stimuli/000375_2014-06-08_11-17-29_260595134347_rgbf000133-resize_2/000375_2014-06-08_11-17-29_260595134347_rgbf000133-resize-original.jpg,1000,4.718,5.0,4999,1000,feet,jsons/v1_VE1000_randls_30.json,3036860,3144847,33,Man
30,645473,DepthScenes,duration_manipulation_targetAtFixation,jsons/v1_VE1000_randls_30.json,http://54.235.29.9/FacialAge/BNav_EC2/DepthDuration/v2_depth_duration_MTurk/v2_DepthDuration_HTML.html#236,236,1024,625,1024,768,8-30-2022,10-56-39,31,depth_duration_stimuli/001150_2014-06-17_15-27-34_260595134347_rgbf000108-resize_2/001150_2014-06-17_15-27-34_260595134347_rgbf000108-resize_2-target.png,1000,4.0325,3.0,4077,1000,feet,jsons/v1_VE1000_randls_30.json,3036860,3144847,33,Man
31,645473,DepthScenes,duration_manipulation_targetAtFixation,jsons/v1_VE1000_randls_30.json,http://54.235.29.9/FacialAge/BNav_EC2/DepthDuration/v2_depth_duration_MTurk/v2_DepthDuration_HTML.html#236,236,1024,625,1024,768,8-30-2022,10-56-39,32,depth_duration_stimuli/000665_2014-06-09_20-42-35_260595134347_rgbf000110-resize_1/000665_2014-06-09_20-42-35_260595134347_rgbf000110-resize_1-target.png,1000,3.057,4.0,3970,999,feet,jsons/v1_VE1000_randls_30.json,3036860,3144847,33,Man
32,645473,DepthScenes,duration_manipulation_targetAtFixation,jsons/v1_VE1000_randls_30.json,http://54.235.29.9/FacialAge/BNav_EC2/DepthDuration/v2_depth_duration_MTurk/v2_DepthDuration_HTML.html#236,236,1024,625,1024,768,8-30-2022,10-56-39,33,depth_duration_stimuli/002039_2014-06-24_20-22-38_260595134347_rgbf000084-resize_1/002039_2014-06-24_20-22-38_260595134347_rgbf000084-resize_1-target.png,1000,4.408,5.0,4438,998,feet,jsons/v1_VE1000_randls_30.json,3036860,3144847,33,Man
33,645473,DepthScenes,duration_manipulation_targetAtFixation,jsons/v1_VE1000_randls_30.json,http://54.235.29.9/FacialAge/BNav_EC2/DepthDuration/v2_depth_duration_MTurk/v2_DepthDuration_HTML.html#236,236,1024,625,1024,768,8-30-2022,10-56-39,34,depth_duration_stimuli/002103_2014-06-25_20-00-40_260595134347_rgbf000049-resize_0/002103_2014-06-25_20-00-40_260595134347_rgbf000049-resize_0-target.png,1000,4.105,2.0,5017,1001,feet,jsons/v1_VE1000_randls_30.json,3036860,3144847,33,Man
34,645473,DepthScenes,duration_manipulation_targetAtFixation,jsons/v1_VE1000_randls_30.json,http://54.235.29.9/FacialAge/BNav_EC2/DepthDuration/v2_depth_duration_MTurk/v2_DepthDuration_HTML.html#236,236,1024,625,1024,768,8-30-2022,10-56-39,35,depth_duration_stimuli/002725_2014-06-22_11-47-51_094959634447_rgbf000070-resize_1/002725_2014-06-22_11-47-51_094959634447_rgbf000070-resize_1-target.png,1000,2.195,3.0,3999,1000,feet,jsons/v1_VE1000_randls_30.json,3036860,3144847,33,Man
35,645473,DepthScenes,duration_manipulation_targetAtFixation,jsons/v1_VE1000_randls_30.json,http://54.235.29.9/FacialAge/BNav_EC2/DepthDuration/v2_depth_duration_MTurk/v2_DepthDuration_HTML.html#236,236,1024,625,1024,768,8-30-2022,10-56-39,36,depth_duration_stimuli/002344_2014-06-28_20-06-29_260595134347_rgbf000030-resize_1/002344_2014-06-28_20-06-29_260595134347_rgbf000030-resize_1-target.png,1000,1.5795,2.0,4490,999,feet,jsons/v1_VE1000_randls_30.json,3036860,3144847,33,Man
36,645473,DepthScenes,duration_manipulation_targetAtFixation,jsons/v1_VE1000_randls_30.json,http://54.235.29.9/FacialAge/BNav_EC2/DepthDuration/v2_depth_duration_MTurk/v2_DepthDuration_HTML.html#236,236,1024,625,1024,768,8-30-2022,10-56-39,37,depth_duration_stimuli/002153_2014-06-25_21-27-18_260595134347_rgbf000038-resize_5/002153_2014-06-25_21-27-18_260595134347_rgbf000038-resize_5-target.png,1000,2.505,3.0,4049,999,feet,jsons/v1_VE1000_randls_30.json,3036860,3144847,33,Man
37,645473,DepthScenes,duration_manipulation_targetAtFixation,jsons/v1_VE1000_randls_30.json,http://54.235.29.9/FacialAge/BNav_EC2/DepthDuration/v2_depth_duration_MTurk/v2_DepthDuration_HTML.html#236,236,1024,625,1024,768,8-30-2022,10-56-39,38,depth_duration_stimuli/002660_2014-06-13_15-44-18_094959634447_rgbf001878-resize_2/002660_2014-06-13_15-44-18_094959634447_rgbf001878-resize_2-target.png,1000,3.576,3.0,3946,999,feet,jsons/v1_VE1000_randls_30.json,3036860,3144847,33,Man
38,645473,DepthScenes,duration_manipulation_targetAtFixation,jsons/v1_VE1000_randls_30.json,http://54.235.29.9/FacialAge/BNav_EC2/DepthDuration/v2_depth_duration_MTurk/v2_DepthDuration_HTML.html#236,236,1024,625,1024,768,8-30-2022,10-56-39,39,depth_duration_stimuli/002763_2014-06-22_19-13-10_094959634447_rgbf000075-resize_4/002763_2014-06-22_19-13-10_094959634447_rgbf000075-resize_4-target.png,1000,1.68375,0.0,5499,1000,feet,jsons/v1_VE1000_randls_30.json,3036860,3144847,33,Man
39,645473,DepthScenes,duration_manipulation_targetAtFixation,jsons/v1_VE1000_randls_30.json,http://54.235.29.9/FacialAge/BNav_EC2/DepthDuration/v2_depth_duration_MTurk/v2_DepthDuration_HTML.html#236,236,1024,625,1024,768,8-30-2022,10-56-39,40,depth_duration_stimuli/002209_2014-06-28_18-36-10_260595134347_rgbf000051-resize_1/002209_2014-06-28_18-36-10_260595134347_rgbf000051-resize_1-target.png,1000,2.057,0.0,4571,999,feet,jsons/v1_VE1000_randls_30.json,3036860,3144847,33,Man
40,645473,DepthScenes,duration_manipulation_targetAtFixation,jsons/v1_VE1000_randls_30.json,http://54.235.29.9/FacialAge/BNav_EC2/DepthDuration/v2_depth_duration_MTurk/v2_DepthDuration_HTML.html#236,236,1024,625,1024,768,8-30-2022,10-56-39,41,depth_duration_stimuli/001011_2014-06-08_23-18-54_260595134347_rgbf000044-resize_4/001011_2014-06-08_23-18-54_260595134347_rgbf000044-resize_4-target.png,1000,2.4730000000000003,3.0,4418,999,feet,jsons/v1_VE1000_randls_30.json,3036860,3144847,33,Man
41,645473,DepthScenes,duration_manipulation_targetAtFixation,jsons/v1_VE1000_randls_30.json,http://54.235.29.9/FacialAge/BNav_EC2/DepthDuration/v2_depth_duration_MTurk/v2_DepthDuration_HTML.html#236,236,1024,625,1024,768,8-30-2022,10-56-39,42,depth_duration_stimuli/002875_2014-06-01_15-19-00_094959634447_rgbf000151-resize_1/002875_2014-06-01_15-19-00_094959634447_rgbf000151-resize_1-target.png,1000,1.9675,2.0,4015,1000,feet,jsons/v1_VE1000_randls_30.json,3036860,3144847,33,Man
42,645473,DepthScenes,duration_manipulation_targetAtFixation,jsons/v1_VE1000_randls_30.json,http://54.235.29.9/FacialAge/BNav_EC2/DepthDuration/v2_depth_duration_MTurk/v2_DepthDuration_HTML.html#236,236,1024,625,1024,768,8-30-2022,10-56-39,43,depth_duration_stimuli/003292_2014-05-14_21-53-49_094959634447_rgbf000100-resize_2/003292_2014-05-14_21-53-49_094959634447_rgbf000100-resize_2-target.png,1000,3.4815,5.0,5482,998,feet,jsons/v1_VE1000_randls_30.json,3036860,3144847,33,Man
43,645473,DepthScenes,duration_manipulation_targetAtFixation,jsons/v1_VE1000_randls_30.json,http://54.235.29.9/FacialAge/BNav_EC2/DepthDuration/v2_depth_duration_MTurk/v2_DepthDuration_HTML.html#236,236,1024,625,1024,768,8-30-2022,10-56-39,44,depth_duration_stimuli/002639_2014-06-24_14-51-37_094959634447_rgbf000074-resize_4/002639_2014-06-24_14-51-37_094959634447_rgbf000074-resize_4-target.png,1000,4.0375,3.0,4006,999,feet,jsons/v1_VE1000_randls_30.json,3036860,3144847,33,Man
44,645473,DepthScenes,duration_manipulation_targetAtFixation,jsons/v1_VE1000_randls_30.json,http://54.235.29.9/FacialAge/BNav_EC2/DepthDuration/v2_depth_duration_MTurk/v2_DepthDuration_HTML.html#236,236,1024,625,1024,768,8-30-2022,10-56-39,45,depth_duration_stimuli/000787_2014-06-08_22-33-53_260595134347_rgbf000175-resize_1/000787_2014-06-08_22-33-53_260595134347_rgbf000175-resize-original.jpg,1000,4.784,4.0,3998,999,feet,jsons/v1_VE1000_randls_30.json,3036860,3144847,33,Man
45,645473,DepthScenes,duration_manipulation_targetAtFixation,jsons/v1_VE1000_randls_30.json,http://54.235.29.9/FacialAge/BNav_EC2/DepthDuration/v2_depth_duration_MTurk/v2_DepthDuration_HTML.html#236,236,1024,625,1024,768,8-30-2022,10-56-39,46,depth_duration_stimuli/001055_2014-06-08_18-45-35_260595134347_rgbf000111-resize_4/001055_2014-06-08_18-45-35_260595134347_rgbf000111-resize_4-target.png,1000,2.4290000000000003,5.0,3507,999,feet,jsons/v1_VE1000_randls_30.json,3036860,3144847,33,Man
46,645473,DepthScenes,duration_manipulation_targetAtFixation,jsons/v1_VE1000_randls_30.json,http://54.235.29.9/FacialAge/BNav_EC2/DepthDuration/v2_depth_duration_MTurk/v2_DepthDuration_HTML.html#236,236,1024,625,1024,768,8-30-2022,10-56-39,47,depth_duration_stimuli/000549_2014-06-08_22-10-24_260595134347_rgbf000247-resize_3/000549_2014-06-08_22-10-24_260595134347_rgbf000247-resize_3-target.png,1000,1.841,3.0,4489,998,feet,jsons/v1_VE1000_randls_30.json,3036860,3144847,33,Man
47,645473,DepthScenes,duration_manipulation_targetAtFixation,jsons/v1_VE1000_randls_30.json,http://54.235.29.9/FacialAge/BNav_EC2/DepthDuration/v2_depth_duration_MTurk/v2_DepthDuration_HTML.html#236,236,1024,625,1024,768,8-30-2022,10-56-39,48,depth_duration_stimuli/001810_2014-06-26_20-51-35_260595134347_rgbf000040-resize_3/001810_2014-06-26_20-51-35_260595134347_rgbf000040-resize_3-target.png,1000,2.2525,0.0,6514,998,feet,jsons/v1_VE1000_randls_30.json,3036860,3144847,33,Man
48,645473,DepthScenes,duration_manipulation_targetAtFixation,jsons/v1_VE1000_randls_30.json,http://54.235.29.9/FacialAge/BNav_EC2/DepthDuration/v2_depth_duration_MTurk/v2_DepthDuration_HTML.html#236,236,1024,625,1024,768,8-30-2022,10-56-39,49,depth_duration_stimuli/003010_2014-06-15_12-54-35_094959634447_rgbf000112-resize_0/003010_2014-06-15_12-54-35_094959634447_rgbf000112-resize_0-target.png,1000,3.1185,3.0,4489,1000,feet,jsons/v1_VE1000_randls_30.json,3036860,3144847,33,Man
49,645473,DepthScenes,duration_manipulation_targetAtFixation,jsons/v1_VE1000_randls_30.json,http://54.235.29.9/FacialAge/BNav_EC2/DepthDuration/v2_depth_duration_MTurk/v2_DepthDuration_HTML.html#236,236,1024,625,1024,768,8-30-2022,10-56-39,50,depth_duration_stimuli/002509_2014-06-24_13-19-22_094959634447_rgbf000077-resize_0/002509_2014-06-24_13-19-22_094959634447_rgbf000077-resize_0-target.png,1000,1.3065,4.0,9007,999,feet,jsons/v1_VE1000_randls_30.json,3036860,3144847,33,Man
50,645473,DepthScenes,duration_manipulation_targetAtFixation,jsons/v1_VE1000_randls_30.json,http://54.235.29.9/FacialAge/BNav_EC2/DepthDuration/v2_depth_duration_MTurk/v2_DepthDuration_HTML.html#236,236,1024,625,1024,768,8-30-2022,10-56-39,51,depth_duration_stimuli/003338_2014-05-20_11-01-23_094959634447_rgbf000051-resize_6/003338_2014-05-20_11-01-23_094959634447_rgbf000051-resize_6-target.png,1000,1.693,3.0,4482,999,feet,jsons/v1_VE1000_randls_30.json,3036860,3144847,33,Man
51,645473,DepthScenes,duration_manipulation_targetAtFixation,jsons/v1_VE1000_randls_30.json,http://54.235.29.9/FacialAge/BNav_EC2/DepthDuration/v2_depth_duration_MTurk/v2_DepthDuration_HTML.html#236,236,1024,625,1024,768,8-30-2022,10-56-39,52,depth_duration_stimuli/000736_2014-06-08_18-24-15_260595134347_rgbf000206-resize_3/000736_2014-06-08_18-24-15_260595134347_rgbf000206-resize_3-target.png,1000,3.515,0.0,5497,996,feet,jsons/v1_VE1000_randls_30.json,3036860,3144847,33,Man
52,645473,DepthScenes,duration_manipulation_targetAtFixation,jsons/v1_VE1000_randls_30.json,http://54.235.29.9/FacialAge/BNav_EC2/DepthDuration/v2_depth_duration_MTurk/v2_DepthDuration_HTML.html#236,236,1024,625,1024,768,8-30-2022,10-56-39,53,depth_duration_stimuli/000137_2014-05-20_17-04-49_260595134347_rgbf000120-resize_1/000137_2014-05-20_17-04-49_260595134347_rgbf000120-resize_1-target.png,1000,3.786,3.0,4497,999,feet,jsons/v1_VE1000_randls_30.json,3036860,3144847,33,Man
53,645473,DepthScenes,duration_manipulation_targetAtFixation,jsons/v1_VE1000_randls_30.json,http://54.235.29.9/FacialAge/BNav_EC2/DepthDuration/v2_depth_duration_MTurk/v2_DepthDuration_HTML.html#236,236,1024,625,1024,768,8-30-2022,10-56-39,54,depth_duration_stimuli/002057_2014-06-24_21-00-13_260595134347_rgbf000120-resize_1/002057_2014-06-24_21-00-13_260595134347_rgbf000120-resize_1-target.png,1000,2.967,4.0,4998,999,feet,jsons/v1_VE1000_randls_30.json,3036860,3144847,33,Man
54,645473,DepthScenes,duration_manipulation_targetAtFixation,jsons/v1_VE1000_randls_30.json,http://54.235.29.9/FacialAge/BNav_EC2/DepthDuration/v2_depth_duration_MTurk/v2_DepthDuration_HTML.html#236,236,1024,625,1024,768,8-30-2022,10-56-39,55,depth_duration_stimuli/000709_2014-06-08_13-51-55_260595134347_rgbf000068-resize_3/000709_2014-06-08_13-51-55_260595134347_rgbf000068-resize_3-target.png,1000,1.8030000000000002,0.0,4498,997,feet,jsons/v1_VE1000_randls_30.json,3036860,3144847,33,Man
55,645473,DepthScenes,duration_manipulation_targetAtFixation,jsons/v1_VE1000_randls_30.json,http://54.235.29.9/FacialAge/BNav_EC2/DepthDuration/v2_depth_duration_MTurk/v2_DepthDuration_HTML.html#236,236,1024,625,1024,768,8-30-2022,10-56-39,56,depth_duration_stimuli/000682_2014-06-08_23-14-58_260595134347_rgbf000041-resize_5/000682_2014-06-08_23-14-58_260595134347_rgbf000041-resize_5-target.png,1000,2.7239999999999998,0.0,3998,999,feet,jsons/v1_VE1000_randls_30.json,3036860,3144847,33,Man
56,645473,DepthScenes,duration_manipulation_targetAtFixation,jsons/v1_VE1000_randls_30.json,http://54.235.29.9/FacialAge/BNav_EC2/DepthDuration/v2_depth_duration_MTurk/v2_DepthDuration_HTML.html#236,236,1024,625,1024,768,8-30-2022,10-56-39,57,depth_duration_stimuli/001650_2014-06-20_12-09-00_260595134347_rgbf000087-resize_3/001650_2014-06-20_12-09-00_260595134347_rgbf000087-resize_3-target.png,1000,1.9505,0.0,3998,1000,feet,jsons/v1_VE1000_randls_30.json,3036860,3144847,33,Man
57,645473,DepthScenes,duration_manipulation_targetAtFixation,jsons/v1_VE1000_randls_30.json,http://54.235.29.9/FacialAge/BNav_EC2/DepthDuration/v2_depth_duration_MTurk/v2_DepthDuration_HTML.html#236,236,1024,625,1024,768,8-30-2022,10-56-39,58,depth_duration_stimuli/000642_2014-06-08_16-59-25_260595134347_rgbf000098-resize_2/000642_2014-06-08_16-59-25_260595134347_rgbf000098-resize_2-target.png,1000,2.8815,2.0,3507,999,feet,jsons/v1_VE1000_randls_30.json,3036860,3144847,33,Man
58,645473,DepthScenes,duration_manipulation_targetAtFixation,jsons/v1_VE1000_randls_30.json,http://54.235.29.9/FacialAge/BNav_EC2/DepthDuration/v2_depth_duration_MTurk/v2_DepthDuration_HTML.html#236,236,1024,625,1024,768,8-30-2022,10-56-39,59,depth_duration_stimuli/002425_2014-06-28_20-27-29_260595134347_rgbf000031-resize_8/002425_2014-06-28_20-27-29_260595134347_rgbf000031-resize_8-target.png,1000,3.8960000000000004,3.0,3498,998,feet,jsons/v1_VE1000_randls_30.json,3036860,3144847,33,Man
59,645473,DepthScenes,duration_manipulation_targetAtFixation,jsons/v1_VE1000_randls_30.json,http://54.235.29.9/FacialAge/BNav_EC2/DepthDuration/v2_depth_duration_MTurk/v2_DepthDuration_HTML.html#236,236,1024,625,1024,768,8-30-2022,10-56-39,60,depth_duration_stimuli/002784_2014-06-22_19-26-30_094959634447_rgbf000083-resize_3/002784_2014-06-22_19-26-30_094959634447_rgbf000083-resize_3-target.png,1000,1.8046666666667,4.0,3990,999,feet,jsons/v1_VE1000_randls_30.json,3036860,3144847,33,Man
60,645473,DepthScenes,duration_manipulation_targetAtFixation,jsons/v1_VE1000_randls_30.json,http://54.235.29.9/FacialAge/BNav_EC2/DepthDuration/v2_depth_duration_MTurk/v2_DepthDuration_HTML.html#236,236,1024,625,1024,768,8-30-2022,10-56-39,61,depth_duration_stimuli/001100_2014-06-15_17-46-26_260595134347_rgbf000225-resize_2/001100_2014-06-15_17-46-26_260595134347_rgbf000225-resize_2-target.png,1000,2.24,5.0,3997,998,feet,jsons/v1_VE1000_randls_30.json,3036860,3144847,33,Man
61,645473,DepthScenes,duration_manipulation_targetAtFixation,jsons/v1_VE1000_randls_30.json,http://54.235.29.9/FacialAge/BNav_EC2/DepthDuration/v2_depth_duration_MTurk/v2_DepthDuration_HTML.html#236,236,1024,625,1024,768,8-30-2022,10-56-39,62,depth_duration_stimuli/002964_2014-06-08_17-46-11_094959634447_rgbf000091-resize_4/002964_2014-06-08_17-46-11_094959634447_rgbf000091-resize_4-target.png,1000,1.6909999999999998,0.0,4006,997,feet,jsons/v1_VE1000_randls_30.json,3036860,3144847,33,Man
62,645473,DepthScenes,duration_manipulation_targetAtFixation,jsons/v1_VE1000_randls_30.json,http://54.235.29.9/FacialAge/BNav_EC2/DepthDuration/v2_depth_duration_MTurk/v2_DepthDuration_HTML.html#236,236,1024,625,1024,768,8-30-2022,10-56-39,63,depth_duration_stimuli/002136_2014-06-25_21-18-03_260595134347_rgbf000109-resize_3/002136_2014-06-25_21-18-03_260595134347_rgbf000109-resize_3-target.png,1000,1.9569999999999999,5.0,8990,998,feet,jsons/v1_VE1000_randls_30.json,3036860,3144847,33,Man
63,645473,DepthScenes,duration_manipulation_targetAtFixation,jsons/v1_VE1000_randls_30.json,http://54.235.29.9/FacialAge/BNav_EC2/DepthDuration/v2_depth_duration_MTurk/v2_DepthDuration_HTML.html#236,236,1024,625,1024,768,8-30-2022,10-56-39,64,depth_duration_stimuli/001016_2014-06-09_16-16-10_260595134347_rgbf000112-resize_5/001016_2014-06-09_16-16-10_260595134347_rgbf000112-resize_5-target.png,1000,1.6565,0.0,4501,1000,feet,jsons/v1_VE1000_randls_30.json,3036860,3144847,33,Man
64,645473,DepthScenes,duration_manipulation_targetAtFixation,jsons/v1_VE1000_randls_30.json,http://54.235.29.9/FacialAge/BNav_EC2/DepthDuration/v2_depth_duration_MTurk/v2_DepthDuration_HTML.html#236,236,1024,625,1024,768,8-30-2022,10-56-39,65,depth_duration_stimuli/002340_2014-06-28_20-05-46_260595134347_rgbf000113-resize_0/002340_2014-06-28_20-05-46_260595134347_rgbf000113-resize_0-target.png,1000,2.4735,3.0,4497,999,feet,jsons/v1_VE1000_randls_30.json,3036860,3144847,33,Man
65,645473,DepthScenes,duration_manipulation_targetAtFixation,jsons/v1_VE1000_randls_30.json,http://54.235.29.9/FacialAge/BNav_EC2/DepthDuration/v2_depth_duration_MTurk/v2_DepthDuration_HTML.html#236,236,1024,625,1024,768,8-30-2022,10-56-39,66,depth_duration_stimuli/001222_2014-06-17_16-24-06_260595134347_rgbf000073-resize_0/001222_2014-06-17_16-24-06_260595134347_rgbf000073-resize-original.jpg,1000,1.4385,3.0,5507,999,feet,jsons/v1_VE1000_randls_30.json,3036860,3144847,33,Man
66,645473,DepthScenes,duration_manipulation_targetAtFixation,jsons/v1_VE1000_randls_30.json,http://54.235.29.9/FacialAge/BNav_EC2/DepthDuration/v2_depth_duration_MTurk/v2_DepthDuration_HTML.html#236,236,1024,625,1024,768,8-30-2022,10-56-39,67,depth_duration_stimuli/000414_2014-06-04_19-49-13_260595134347_rgbf000044-resize_0/000414_2014-06-04_19-49-13_260595134347_rgbf000044-resize_0-target.png,1000,4.329,5.0,10983,1000,feet,jsons/v1_VE1000_randls_30.json,3036860,3144847,33,Man
67,645473,DepthScenes,duration_manipulation_targetAtFixation,jsons/v1_VE1000_randls_30.json,http://54.235.29.9/FacialAge/BNav_EC2/DepthDuration/v2_depth_duration_MTurk/v2_DepthDuration_HTML.html#236,236,1024,625,1024,768,8-30-2022,10-56-39,68,depth_duration_stimuli/003129_2014-05-12_10-48-10_094959634447_rgbf000100-resize_0/003129_2014-05-12_10-48-10_094959634447_rgbf000100-resize_0-target.png,1000,4.9305,2.0,4514,999,feet,jsons/v1_VE1000_randls_30.json,3036860,3144847,33,Man
68,645473,DepthScenes,duration_manipulation_targetAtFixation,jsons/v1_VE1000_randls_30.json,http://54.235.29.9/FacialAge/BNav_EC2/DepthDuration/v2_depth_duration_MTurk/v2_DepthDuration_HTML.html#236,236,1024,625,1024,768,8-30-2022,10-56-39,69,depth_duration_stimuli/001158_2014-06-17_15-32-16_260595134347_rgbf000138-resize_2/001158_2014-06-17_15-32-16_260595134347_rgbf000138-resize_2-target.png,1000,4.5315,3.0,4491,1000,feet,jsons/v1_VE1000_randls_30.json,3036860,3144847,33,Man
69,645473,DepthScenes,duration_manipulation_targetAtFixation,jsons/v1_VE1000_randls_30.json,http://54.235.29.9/FacialAge/BNav_EC2/DepthDuration/v2_depth_duration_MTurk/v2_DepthDuration_HTML.html#236,236,1024,625,1024,768,8-30-2022,10-56-39,70,depth_duration_stimuli/000556_2014-06-09_22-42-56_260595134347_rgbf000214-resize_1/000556_2014-06-09_22-42-56_260595134347_rgbf000214-resize_1-target.png,1000,4.8415,1.0,3499,999,feet,jsons/v1_VE1000_randls_30.json,3036860,3144847,33,Man
70,645473,DepthScenes,duration_manipulation_targetAtFixation,jsons/v1_VE1000_randls_30.json,http://54.235.29.9/FacialAge/BNav_EC2/DepthDuration/v2_depth_duration_MTurk/v2_DepthDuration_HTML.html#236,236,1024,625,1024,768,8-30-2022,10-56-39,71,depth_duration_stimuli/000758_2014-06-08_22-05-08_260595134347_rgbf000085-resize_0/000758_2014-06-08_22-05-08_260595134347_rgbf000085-resize_0-target.png,1000,3.3810000000000002,2.0,5038,999,feet,jsons/v1_VE1000_randls_30.json,3036860,3144847,33,Man
71,645473,DepthScenes,duration_manipulation_targetAtFixation,jsons/v1_VE1000_randls_30.json,http://54.235.29.9/FacialAge/BNav_EC2/DepthDuration/v2_depth_duration_MTurk/v2_DepthDuration_HTML.html#236,236,1024,625,1024,768,8-30-2022,10-56-39,72,depth_duration_stimuli/000854_2014-06-09_19-43-13_260595134347_rgbf000066-resize_0/000854_2014-06-09_19-43-13_260595134347_rgbf000066-resize_0-target.png,1000,3.068,3.0,4465,998,feet,jsons/v1_VE1000_randls_30.json,3036860,3144847,33,Man
72,645473,DepthScenes,duration_manipulation_targetAtFixation,jsons/v1_VE1000_randls_30.json,http://54.235.29.9/FacialAge/BNav_EC2/DepthDuration/v2_depth_duration_MTurk/v2_DepthDuration_HTML.html#236,236,1024,625,1024,768,8-30-2022,10-56-39,73,depth_duration_stimuli/002118_2014-06-25_20-32-08_260595134347_rgbf000078-resize_1/002118_2014-06-25_20-32-08_260595134347_rgbf000078-resize_1-target.png,1000,2.6460000000000004,1.0,4994,999,feet,jsons/v1_VE1000_randls_30.json,3036860,3144847,33,Man
73,645473,DepthScenes,duration_manipulation_targetAtFixation,jsons/v1_VE1000_randls_30.json,http://54.235.29.9/FacialAge/BNav_EC2/DepthDuration/v2_depth_duration_MTurk/v2_DepthDuration_HTML.html#236,236,1024,625,1024,768,8-30-2022,10-56-39,74,depth_duration_stimuli/001516_2014-06-20_16-25-09_260595134347_rgbf000076-resize_2/001516_2014-06-20_16-25-09_260595134347_rgbf000076-resize_2-target.png,1000,1.7445,2.0,3548,999,feet,jsons/v1_VE1000_randls_30.json,3036860,3144847,33,Man
74,645473,DepthScenes,duration_manipulation_targetAtFixation,jsons/v1_VE1000_randls_30.json,http://54.235.29.9/FacialAge/BNav_EC2/DepthDuration/v2_depth_duration_MTurk/v2_DepthDuration_HTML.html#236,236,1024,625,1024,768,8-30-2022,10-56-39,75,depth_duration_stimuli/000739_2014-06-08_18-45-58_260595134347_rgbf000068-resize_1/000739_2014-06-08_18-45-58_260595134347_rgbf000068-resize_1-target.png,1000,3.534,3.0,4447,999,feet,jsons/v1_VE1000_randls_30.json,3036860,3144847,33,Man
75,645473,DepthScenes,duration_manipulation_targetAtFixation,jsons/v1_VE1000_randls_30.json,http://54.235.29.9/FacialAge/BNav_EC2/DepthDuration/v2_depth_duration_MTurk/v2_DepthDuration_HTML.html#236,236,1024,625,1024,768,8-30-2022,10-56-39,76,depth_duration_stimuli/000734_2014-06-08_17-39-11_260595134347_rgbf000128-resize_2/000734_2014-06-08_17-39-11_260595134347_rgbf000128-resize_2-target.png,1000,4.098,3.0,3497,1000,feet,jsons/v1_VE1000_randls_30.json,3036860,3144847,33,Man
76,645473,DepthScenes,duration_manipulation_targetAtFixation,jsons/v1_VE1000_randls_30.json,http://54.235.29.9/FacialAge/BNav_EC2/DepthDuration/v2_depth_duration_MTurk/v2_DepthDuration_HTML.html#236,236,1024,625,1024,768,8-30-2022,10-56-39,77,depth_duration_stimuli/000368_2014-06-09_15-53-01_260595134347_rgbf000155-resize_2/000368_2014-06-09_15-53-01_260595134347_rgbf000155-resize_2-target.png,1000,2.4859999999999998,4.0,4521,999,feet,jsons/v1_VE1000_randls_30.json,3036860,3144847,33,Man
77,645473,DepthScenes,duration_manipulation_targetAtFixation,jsons/v1_VE1000_randls_30.json,http://54.235.29.9/FacialAge/BNav_EC2/DepthDuration/v2_depth_duration_MTurk/v2_DepthDuration_HTML.html#236,236,1024,625,1024,768,8-30-2022,10-56-39,78,depth_duration_stimuli/002678_2014-06-13_16-15-32_094959634447_rgbf000151-resize_6/002678_2014-06-13_16-15-32_094959634447_rgbf000151-resize_6-target.png,1000,2.1830000000000003,5.0,3486,999,feet,jsons/v1_VE1000_randls_30.json,3036860,3144847,33,Man
78,645473,DepthScenes,duration_manipulation_targetAtFixation,jsons/v1_VE1000_randls_30.json,http://54.235.29.9/FacialAge/BNav_EC2/DepthDuration/v2_depth_duration_MTurk/v2_DepthDuration_HTML.html#236,236,1024,625,1024,768,8-30-2022,10-56-39,79,depth_duration_stimuli/000493_2014-06-09_21-01-18_260595134347_rgbf000196-resize_3/000493_2014-06-09_21-01-18_260595134347_rgbf000196-resize_3-target.png,1000,3.44,3.0,3487,998,feet,jsons/v1_VE1000_randls_30.json,3036860,3144847,33,Man
79,645473,DepthScenes,duration_manipulation_targetAtFixation,jsons/v1_VE1000_randls_30.json,http://54.235.29.9/FacialAge/BNav_EC2/DepthDuration/v2_depth_duration_MTurk/v2_DepthDuration_HTML.html#236,236,1024,625,1024,768,8-30-2022,10-56-39,80,depth_duration_stimuli/000191_2014-05-12_17-07-38_260595134347_rgbf000199-resize_0/000191_2014-05-12_17-07-38_260595134347_rgbf000199-resize_0-target.png,1000,3.7995,5.0,8997,996,feet,jsons/v1_VE1000_randls_30.json,3036860,3144847,33,Man
80,645473,DepthScenes,duration_manipulation_targetAtFixation,jsons/v1_VE1000_randls_30.json,http://54.235.29.9/FacialAge/BNav_EC2/DepthDuration/v2_depth_duration_MTurk/v2_DepthDuration_HTML.html#236,236,1024,625,1024,768,8-30-2022,10-56-39,81,depth_duration_stimuli/002445_2014-06-28_20-32-16_260595134347_rgbf000029-resize_4/002445_2014-06-28_20-32-16_260595134347_rgbf000029-resize_4-target.png,1000,2.5315,3.0,8006,998,feet,jsons/v1_VE1000_randls_30.json,3036860,3144847,33,Man
81,645473,DepthScenes,duration_manipulation_targetAtFixation,jsons/v1_VE1000_randls_30.json,http://54.235.29.9/FacialAge/BNav_EC2/DepthDuration/v2_depth_duration_MTurk/v2_DepthDuration_HTML.html#236,236,1024,625,1024,768,8-30-2022,10-56-39,82,depth_duration_stimuli/000780_2014-06-08_22-28-29_260595134347_rgbf000126-resize_1/000780_2014-06-08_22-28-29_260595134347_rgbf000126-resize_1-target.png,1000,3.3825,3.0,3499,999,feet,jsons/v1_VE1000_randls_30.json,3036860,3144847,33,Man
82,645473,DepthScenes,duration_manipulation_targetAtFixation,jsons/v1_VE1000_randls_30.json,http://54.235.29.9/FacialAge/BNav_EC2/DepthDuration/v2_depth_duration_MTurk/v2_DepthDuration_HTML.html#236,236,1024,625,1024,768,8-30-2022,10-56-39,83,depth_duration_stimuli/001175_2014-06-17_15-45-55_260595134347_rgbf000129-resize_4/001175_2014-06-17_15-45-55_260595134347_rgbf000129-resize_4-target.png,1000,4.255,3.0,4000,1000,feet,jsons/v1_VE1000_randls_30.json,3036860,3144847,33,Man
83,645473,DepthScenes,duration_manipulation_targetAtFixation,jsons/v1_VE1000_randls_30.json,http://54.235.29.9/FacialAge/BNav_EC2/DepthDuration/v2_depth_duration_MTurk/v2_DepthDuration_HTML.html#236,236,1024,625,1024,768,8-30-2022,10-56-39,84,depth_duration_stimuli/003490_2014-05-21_15-50-11_094959634447_rgbf000101-resize_3/003490_2014-05-21_15-50-11_094959634447_rgbf000101-resize_3-target.png,1000,3.6445,4.0,3480,999,feet,jsons/v1_VE1000_randls_30.json,3036860,3144847,33,Man
84,645473,DepthScenes,duration_manipulation_targetAtFixation,jsons/v1_VE1000_randls_30.json,http://54.235.29.9/FacialAge/BNav_EC2/DepthDuration/v2_depth_duration_MTurk/v2_DepthDuration_HTML.html#236,236,1024,625,1024,768,8-30-2022,10-56-39,85,depth_duration_stimuli/000788_2014-06-08_22-34-36_260595134347_rgbf000131-resize_1/000788_2014-06-08_22-34-36_260595134347_rgbf000131-resize_1-target.png,1000,3.359,5.0,4014,1000,feet,jsons/v1_VE1000_randls_30.json,3036860,3144847,33,Man
85,645473,DepthScenes,duration_manipulation_targetAtFixation,jsons/v1_VE1000_randls_30.json,http://54.235.29.9/FacialAge/BNav_EC2/DepthDuration/v2_depth_duration_MTurk/v2_DepthDuration_HTML.html#236,236,1024,625,1024,768,8-30-2022,10-56-39,86,depth_duration_stimuli/001235_2014-06-17_16-37-36_260595134347_rgbf000084-resize_4/001235_2014-06-17_16-37-36_260595134347_rgbf000084-resize_4-target.png,1000,3.6605,3.0,4482,1000,feet,jsons/v1_VE1000_randls_30.json,3036860,3144847,33,Man
86,645473,DepthScenes,duration_manipulation_targetAtFixation,jsons/v1_VE1000_randls_30.json,http://54.235.29.9/FacialAge/BNav_EC2/DepthDuration/v2_depth_duration_MTurk/v2_DepthDuration_HTML.html#236,236,1024,625,1024,768,8-30-2022,10-56-39,87,depth_duration_stimuli/002272_2014-06-28_18-53-56_260595134347_rgbf000067-resize_2/002272_2014-06-28_18-53-56_260595134347_rgbf000067-resize_2-target.png,1000,1.138,4.0,4507,1001,feet,jsons/v1_VE1000_randls_30.json,3036860,3144847,33,Man
87,645473,DepthScenes,duration_manipulation_targetAtFixation,jsons/v1_VE1000_randls_30.json,http://54.235.29.9/FacialAge/BNav_EC2/DepthDuration/v2_depth_duration_MTurk/v2_DepthDuration_HTML.html#236,236,1024,625,1024,768,8-30-2022,10-56-39,88,depth_duration_stimuli/001571_2014-06-20_17-21-32_260595134347_rgbf000089-resize_1/001571_2014-06-20_17-21-32_260595134347_rgbf000089-resize_1-target.png,1000,1.86,0.0,3509,999,feet,jsons/v1_VE1000_randls_30.json,3036860,3144847,33,Man
88,645473,DepthScenes,duration_manipulation_targetAtFixation,jsons/v1_VE1000_randls_30.json,http://54.235.29.9/FacialAge/BNav_EC2/DepthDuration/v2_depth_duration_MTurk/v2_DepthDuration_HTML.html#236,236,1024,625,1024,768,8-30-2022,10-56-39,89,depth_duration_stimuli/001056_2014-06-08_18-46-44_260595134347_rgbf000068-resize_0/001056_2014-06-08_18-46-44_260595134347_rgbf000068-resize_0-target.png,1000,2.6625,4.0,5007,999,feet,jsons/v1_VE1000_randls_30.json,3036860,3144847,33,Man
89,645473,DepthScenes,duration_manipulation_targetAtFixation,jsons/v1_VE1000_randls_30.json,http://54.235.29.9/FacialAge/BNav_EC2/DepthDuration/v2_depth_duration_MTurk/v2_DepthDuration_HTML.html#236,236,1024,625,1024,768,8-30-2022,10-56-39,90,depth_duration_stimuli/002199_2014-06-28_18-33-56_260595134347_rgbf000074-resize_0/002199_2014-06-28_18-33-56_260595134347_rgbf000074-resize_0-target.png,1000,1.996,0.0,4480,1000,feet,jsons/v1_VE1000_randls_30.json,3036860,3144847,33,Man
90,645473,DepthScenes,duration_manipulation_targetAtFixation,jsons/v1_VE1000_randls_30.json,http://54.235.29.9/FacialAge/BNav_EC2/DepthDuration/v2_depth_duration_MTurk/v2_DepthDuration_HTML.html#236,236,1024,625,1024,768,8-30-2022,10-56-39,91,depth_duration_stimuli/003070_2014-06-15_14-58-27_094959634447_rgbf000150-resize_3/003070_2014-06-15_14-58-27_094959634447_rgbf000150-resize_3-target.png,1000,2.9415,2.0,4008,1000,feet,jsons/v1_VE1000_randls_30.json,3036860,3144847,33,Man
91,645473,DepthScenes,duration_manipulation_targetAtFixation,jsons/v1_VE1000_randls_30.json,http://54.235.29.9/FacialAge/BNav_EC2/DepthDuration/v2_depth_duration_MTurk/v2_DepthDuration_HTML.html#236,236,1024,625,1024,768,8-30-2022,10-56-39,92,depth_duration_stimuli/000943_2014-06-09_19-31-07_260595134347_rgbf000128-resize_1/000943_2014-06-09_19-31-07_260595134347_rgbf000128-resize_1-target.png,1000,1.9765,0.0,3993,1000,feet,jsons/v1_VE1000_randls_30.json,3036860,3144847,33,Man
92,645473,DepthScenes,duration_manipulation_targetAtFixation,jsons/v1_VE1000_randls_30.json,http://54.235.29.9/FacialAge/BNav_EC2/DepthDuration/v2_depth_duration_MTurk/v2_DepthDuration_HTML.html#236,236,1024,625,1024,768,8-30-2022,10-56-39,93,depth_duration_stimuli/000486_2014-06-09_20-47-20_260595134347_rgbf000143-resize_2/000486_2014-06-09_20-47-20_260595134347_rgbf000143-resize_2-target.png,1000,4.8325,2.0,5503,998,feet,jsons/v1_VE1000_randls_30.json,3036860,3144847,33,Man
93,645473,DepthScenes,duration_manipulation_targetAtFixation,jsons/v1_VE1000_randls_30.json,http://54.235.29.9/FacialAge/BNav_EC2/DepthDuration/v2_depth_duration_MTurk/v2_DepthDuration_HTML.html#236,236,1024,625,1024,768,8-30-2022,10-56-39,94,depth_duration_stimuli/003083_2014-06-15_15-21-03_094959634447_rgbf000063-resize_1/003083_2014-06-15_15-21-03_094959634447_rgbf000063-resize_1-target.png,1000,4.1405,4.0,3983,999,feet,jsons/v1_VE1000_randls_30.json,3036860,3144847,33,Man
94,645473,DepthScenes,duration_manipulation_targetAtFixation,jsons/v1_VE1000_randls_30.json,http://54.235.29.9/FacialAge/BNav_EC2/DepthDuration/v2_depth_duration_MTurk/v2_DepthDuration_HTML.html#236,236,1024,625,1024,768,8-30-2022,10-56-39,95,depth_duration_stimuli/000009_2014-05-26_14-32-05_260595134347_rgbf000034-resize_3/000009_2014-05-26_14-32-05_260595134347_rgbf000034-resize_3-target.png,1000,3.8715,4.0,5006,999,feet,jsons/v1_VE1000_randls_30.json,3036860,3144847,33,Man
95,645473,DepthScenes,duration_manipulation_targetAtFixation,jsons/v1_VE1000_randls_30.json,http://54.235.29.9/FacialAge/BNav_EC2/DepthDuration/v2_depth_duration_MTurk/v2_DepthDuration_HTML.html#236,236,1024,625,1024,768,8-30-2022,10-56-39,96,depth_duration_stimuli/001828_2014-06-26_21-40-03_260595134347_rgbf000024-resize_0/001828_2014-06-26_21-40-03_260595134347_rgbf000024-resize_0-target.png,1000,4.8260000000000005,4.0,3999,999,feet,jsons/v1_VE1000_randls_30.json,3036860,3144847,33,Man
96,645473,DepthScenes,duration_manipulation_targetAtFixation,jsons/v1_VE1000_randls_30.json,http://54.235.29.9/FacialAge/BNav_EC2/DepthDuration/v2_depth_duration_MTurk/v2_DepthDuration_HTML.html#236,236,1024,625,1024,768,8-30-2022,10-56-39,97,depth_duration_stimuli/002213_2014-06-28_18-37-58_260595134347_rgbf000055-resize_1/002213_2014-06-28_18-37-58_260595134347_rgbf000055-resize_1-target.png,1000,3.62,3.0,4006,1000,feet,jsons/v1_VE1000_randls_30.json,3036860,3144847,33,Man
97,645473,DepthScenes,duration_manipulation_targetAtFixation,jsons/v1_VE1000_randls_30.json,http://54.235.29.9/FacialAge/BNav_EC2/DepthDuration/v2_depth_duration_MTurk/v2_DepthDuration_HTML.html#236,236,1024,625,1024,768,8-30-2022,10-56-39,98,depth_duration_stimuli/000691_2014-06-08_13-08-50_260595134347_rgbf000132-resize_3/000691_2014-06-08_13-08-50_260595134347_rgbf000132-resize_3-target.png,1000,4.1530000000000005,4.0,3999,999,feet,jsons/v1_VE1000_randls_30.json,3036860,3144847,33,Man
98,645473,DepthScenes,duration_manipulation_targetAtFixation,jsons/v1_VE1000_randls_30.json,http://54.235.29.9/FacialAge/BNav_EC2/DepthDuration/v2_depth_duration_MTurk/v2_DepthDuration_HTML.html#236,236,1024,625,1024,768,8-30-2022,10-56-39,99,depth_duration_stimuli/001540_2014-06-20_17-01-05_260595134347_rgbf000086-resize_2/001540_2014-06-20_17-01-05_260595134347_rgbf000086-resize-original.jpg,1000,1.459,4.0,4983,1000,feet,jsons/v1_VE1000_randls_30.json,3036860,3144847,33,Man
99,645473,DepthScenes,duration_manipulation_targetAtFixation,jsons/v1_VE1000_randls_30.json,http://54.235.29.9/FacialAge/BNav_EC2/DepthDuration/v2_depth_duration_MTurk/v2_DepthDuration_HTML.html#236,236,1024,625,1024,768,8-30-2022,10-56-39,100,depth_duration_stimuli/001167_2014-06-17_15-38-07_260595134347_rgbf000108-resize_0/001167_2014-06-17_15-38-07_260595134347_rgbf000108-resize_0-target.png,1000,1.8505,6.0,64513,1000,feet,jsons/v1_VE1000_randls_30.json,3036860,3144847,33,Man
100,645473,DepthScenes,duration_manipulation_targetAtFixation,jsons/v1_VE1000_randls_30.json,http://54.235.29.9/FacialAge/BNav_EC2/DepthDuration/v2_depth_duration_MTurk/v2_DepthDuration_HTML.html#236,236,1024,625,1024,768,8-30-2022,10-56-39,101,depth_duration_stimuli/003587_2014-05-23_16-48-02_094959634447_rgbf002384-resize_2/003587_2014-05-23_16-48-02_094959634447_rgbf002384-resize_2-target.png,1000,1.357,2.0,3482,1000,feet,jsons/v1_VE1000_randls_30.json,3036860,3144847,33,Man
101,645473,DepthScenes,duration_manipulation_targetAtFixation,jsons/v1_VE1000_randls_30.json,http://54.235.29.9/FacialAge/BNav_EC2/DepthDuration/v2_depth_duration_MTurk/v2_DepthDuration_HTML.html#236,236,1024,625,1024,768,8-30-2022,10-56-39,102,depth_duration_stimuli/002549_2014-06-24_13-41-39_094959634447_rgbf000022-resize_3/002549_2014-06-24_13-41-39_094959634447_rgbf000022-resize_3-target.png,1000,1.476,0.0,11016,999,feet,jsons/v1_VE1000_randls_30.json,3036860,3144847,33,Man
102,645473,DepthScenes,duration_manipulation_targetAtFixation,jsons/v1_VE1000_randls_30.json,http://54.235.29.9/FacialAge/BNav_EC2/DepthDuration/v2_depth_duration_MTurk/v2_DepthDuration_HTML.html#236,236,1024,625,1024,768,8-30-2022,10-56-39,103,depth_duration_stimuli/002750_2014-06-22_19-08-03_094959634447_rgbf000094-resize_4/002750_2014-06-22_19-08-03_094959634447_rgbf000094-resize_4-target.png,1000,2.354,2.0,3080,997,feet,jsons/v1_VE1000_randls_30.json,3036860,3144847,33,Man
103,645473,DepthScenes,duration_manipulation_targetAtFixation,jsons/v1_VE1000_randls_30.json,http://54.235.29.9/FacialAge/BNav_EC2/DepthDuration/v2_depth_duration_MTurk/v2_DepthDuration_HTML.html#236,236,1024,625,1024,768,8-30-2022,10-56-39,104,depth_duration_stimuli/000810_2014-06-08_17-20-01_260595134347_rgbf000105-resize_0/000810_2014-06-08_17-20-01_260595134347_rgbf000105-resize_0-target.png,1000,1.4865,3.0,3407,999,feet,jsons/v1_VE1000_randls_30.json,3036860,3144847,33,Man
104,645473,DepthScenes,duration_manipulation_targetAtFixation,jsons/v1_VE1000_randls_30.json,http://54.235.29.9/FacialAge/BNav_EC2/DepthDuration/v2_depth_duration_MTurk/v2_DepthDuration_HTML.html#236,236,1024,625,1024,768,8-30-2022,10-56-39,105,depth_duration_stimuli/001214_2014-06-17_16-13-55_260595134347_rgbf000111-resize_0/001214_2014-06-17_16-13-55_260595134347_rgbf000111-resize_0-target.png,1000,2.6505,2.0,3497,999,feet,jsons/v1_VE1000_randls_30.json,3036860,3144847,33,Man
105,645473,DepthScenes,duration_manipulation_targetAtFixation,jsons/v1_VE1000_randls_30.json,http://54.235.29.9/FacialAge/BNav_EC2/DepthDuration/v2_depth_duration_MTurk/v2_DepthDuration_HTML.html#236,236,1024,625,1024,768,8-30-2022,10-56-39,106,depth_duration_stimuli/001449_2014-06-19_17-01-27_260595134347_rgbf000116-resize_2/001449_2014-06-19_17-01-27_260595134347_rgbf000116-resize_2-target.png,1000,3.452,4.0,4007,1001,feet,jsons/v1_VE1000_randls_30.json,3036860,3144847,33,Man
106,645473,DepthScenes,duration_manipulation_targetAtFixation,jsons/v1_VE1000_randls_30.json,http://54.235.29.9/FacialAge/BNav_EC2/DepthDuration/v2_depth_duration_MTurk/v2_DepthDuration_HTML.html#236,236,1024,625,1024,768,8-30-2022,10-56-39,107,depth_duration_stimuli/001450_2014-06-19_17-02-03_260595134347_rgbf000203-resize_4/001450_2014-06-19_17-02-03_260595134347_rgbf000203-resize_4-target.png,1000,4.0106666666667,3.0,3491,1000,feet,jsons/v1_VE1000_randls_30.json,3036860,3144847,33,Man
107,645473,DepthScenes,duration_manipulation_targetAtFixation,jsons/v1_VE1000_randls_30.json,http://54.235.29.9/FacialAge/BNav_EC2/DepthDuration/v2_depth_duration_MTurk/v2_DepthDuration_HTML.html#236,236,1024,625,1024,768,8-30-2022,10-56-39,108,depth_duration_stimuli/002989_2014-06-15_12-25-03_094959634447_rgbf000150-resize_3/002989_2014-06-15_12-25-03_094959634447_rgbf000150-resize_3-target.png,1000,4.1975,2.0,3506,998,feet,jsons/v1_VE1000_randls_30.json,3036860,3144847,33,Man
108,645473,DepthScenes,duration_manipulation_targetAtFixation,jsons/v1_VE1000_randls_30.json,http://54.235.29.9/FacialAge/BNav_EC2/DepthDuration/v2_depth_duration_MTurk/v2_DepthDuration_HTML.html#236,236,1024,625,1024,768,8-30-2022,10-56-39,109,depth_duration_stimuli/000866_2014-06-09_20-45-42_260595134347_rgbf000139-resize_1/000866_2014-06-09_20-45-42_260595134347_rgbf000139-resize_1-target.png,1000,3.2155,5.0,3991,1000,feet,jsons/v1_VE1000_randls_30.json,3036860,3144847,33,Man
109,645473,DepthScenes,duration_manipulation_targetAtFixation,jsons/v1_VE1000_randls_30.json,http://54.235.29.9/FacialAge/BNav_EC2/DepthDuration/v2_depth_duration_MTurk/v2_DepthDuration_HTML.html#236,236,1024,625,1024,768,8-30-2022,10-56-39,110,depth_duration_stimuli/001417_2014-06-19_16-25-36_260595134347_rgbf000115-resize_5/001417_2014-06-19_16-25-36_260595134347_rgbf000115-resize_5-target.png,1000,4.6255,0.0,3500,1000,feet,jsons/v1_VE1000_randls_30.json,3036860,3144847,33,Man
110,645473,DepthScenes,duration_manipulation_targetAtFixation,jsons/v1_VE1000_randls_30.json,http://54.235.29.9/FacialAge/BNav_EC2/DepthDuration/v2_depth_duration_MTurk/v2_DepthDuration_HTML.html#236,236,1024,625,1024,768,8-30-2022,10-56-39,111,depth_duration_stimuli/003081_2014-06-15_15-19-16_094959634447_rgbf000150-resize_1/003081_2014-06-15_15-19-16_094959634447_rgbf000150-resize_1-target.png,1000,3.9125,6.0,3999,1000,feet,jsons/v1_VE1000_randls_30.json,3036860,3144847,33,Man
111,645473,DepthScenes,duration_manipulation_targetAtFixation,jsons/v1_VE1000_randls_30.json,http://54.235.29.9/FacialAge/BNav_EC2/DepthDuration/v2_depth_duration_MTurk/v2_DepthDuration_HTML.html#236,236,1024,625,1024,768,8-30-2022,10-56-39,112,depth_duration_stimuli/001066_2014-06-08_22-03-20_260595134347_rgbf000066-resize_4/001066_2014-06-08_22-03-20_260595134347_rgbf000066-resize_4-target.png,1000,4.2330000000000005,6.0,6494,998,feet,jsons/v1_VE1000_randls_30.json,3036860,3144847,33,Man
112,645473,DepthScenes,duration_manipulation_targetAtFixation,jsons/v1_VE1000_randls_30.json,http://54.235.29.9/FacialAge/BNav_EC2/DepthDuration/v2_depth_duration_MTurk/v2_DepthDuration_HTML.html#236,236,1024,625,1024,768,8-30-2022,10-56-39,113,depth_duration_stimuli/000742_2014-06-08_18-48-09_260595134347_rgbf000164-resize_4/000742_2014-06-08_18-48-09_260595134347_rgbf000164-resize_4-target.png,1000,4.632,6.0,6003,1000,feet,jsons/v1_VE1000_randls_30.json,3036860,3144847,33,Man
113,645473,DepthScenes,duration_manipulation_targetAtFixation,jsons/v1_VE1000_randls_30.json,http://54.235.29.9/FacialAge/BNav_EC2/DepthDuration/v2_depth_duration_MTurk/v2_DepthDuration_HTML.html#236,236,1024,625,1024,768,8-30-2022,10-56-39,114,depth_duration_stimuli/001570_2014-06-20_17-21-09_260595134347_rgbf000135-resize_4/001570_2014-06-20_17-21-09_260595134347_rgbf000135-resize_4-target.png,1000,4.467,5.0,2997,1007,feet,jsons/v1_VE1000_randls_30.json,3036860,3144847,33,Man
114,645473,DepthScenes,duration_manipulation_targetAtFixation,jsons/v1_VE1000_randls_30.json,http://54.235.29.9/FacialAge/BNav_EC2/DepthDuration/v2_depth_duration_MTurk/v2_DepthDuration_HTML.html#236,236,1024,625,1024,768,8-30-2022,10-56-39,115,depth_duration_stimuli/001392_2014-06-19_16-07-59_260595134347_rgbf000046-resize_1/001392_2014-06-19_16-07-59_260595134347_rgbf000046-resize_1-target.png,1000,4.135,4.0,3491,999,feet,jsons/v1_VE1000_randls_30.json,3036860,3144847,33,Man
115,645473,DepthScenes,duration_manipulation_targetAtFixation,jsons/v1_VE1000_randls_30.json,http://54.235.29.9/FacialAge/BNav_EC2/DepthDuration/v2_depth_duration_MTurk/v2_DepthDuration_HTML.html#236,236,1024,625,1024,768,8-30-2022,10-56-39,116,depth_duration_stimuli/001170_2014-06-17_15-43-44_260595134347_rgbf000096-resize_6/001170_2014-06-17_15-43-44_260595134347_rgbf000096-resize-original.jpg,1000,1.1909999999999998,3.0,3498,999,feet,jsons/v1_VE1000_randls_30.json,3036860,3144847,33,Man
116,645473,DepthScenes,duration_manipulation_targetAtFixation,jsons/v1_VE1000_randls_30.json,http://54.235.29.9/FacialAge/BNav_EC2/DepthDuration/v2_depth_duration_MTurk/v2_DepthDuration_HTML.html#236,236,1024,625,1024,768,8-30-2022,10-56-39,117,depth_duration_stimuli/002748_2014-06-22_19-07-22_094959634447_rgbf000078-resize_1/002748_2014-06-22_19-07-22_094959634447_rgbf000078-resize_1-target.png,1000,4.6705,2.0,3507,1000,feet,jsons/v1_VE1000_randls_30.json,3036860,3144847,33,Man
117,645473,DepthScenes,duration_manipulation_targetAtFixation,jsons/v1_VE1000_randls_30.json,http://54.235.29.9/FacialAge/BNav_EC2/DepthDuration/v2_depth_duration_MTurk/v2_DepthDuration_HTML.html#236,236,1024,625,1024,768,8-30-2022,10-56-39,118,depth_duration_stimuli/002995_2014-06-15_12-31-26_094959634447_rgbf000150-resize_1/002995_2014-06-15_12-31-26_094959634447_rgbf000150-resize_1-target.png,1000,3.8360000000000003,2.0,4499,999,feet,jsons/v1_VE1000_randls_30.json,3036860,3144847,33,Man
118,645473,DepthScenes,duration_manipulation_targetAtFixation,jsons/v1_VE1000_randls_30.json,http://54.235.29.9/FacialAge/BNav_EC2/DepthDuration/v2_depth_duration_MTurk/v2_DepthDuration_HTML.html#236,236,1024,625,1024,768,8-30-2022,10-56-39,119,depth_duration_stimuli/000469_2014-06-09_19-42-10_260595134347_rgbf000081-resize_1/000469_2014-06-09_19-42-10_260595134347_rgbf000081-resize_1-target.png,1000,1.652,3.0,6050,1000,feet,jsons/v1_VE1000_randls_30.json,3036860,3144847,33,Man
119,645473,DepthScenes,duration_manipulation_targetAtFixation,jsons/v1_VE1000_randls_30.json,http://54.235.29.9/FacialAge/BNav_EC2/DepthDuration/v2_depth_duration_MTurk/v2_DepthDuration_HTML.html#236,236,1024,625,1024,768,8-30-2022,10-56-39,120,depth_duration_stimuli/000483_2014-06-09_20-41-45_260595134347_rgbf000116-resize_4/000483_2014-06-09_20-41-45_260595134347_rgbf000116-resize_4-target.png,1000,1.337,3.0,5455,1000,feet,jsons/v1_VE1000_randls_30.json,3036860,3144847,33,Man
120,645473,DepthScenes,duration_manipulation_targetAtFixation,jsons/v1_VE1000_randls_30.json,http://54.235.29.9/FacialAge/BNav_EC2/DepthDuration/v2_depth_duration_MTurk/v2_DepthDuration_HTML.html#236,236,1024,625,1024,768,8-30-2022,10-56-39,121,depth_duration_stimuli/000447_2014-06-08_16-15-46_260595134347_rgbf000130-resize_1/000447_2014-06-08_16-15-46_260595134347_rgbf000130-resize_1-target.png,1000,4.479,5.0,3489,998,feet,jsons/v1_VE1000_randls_30.json,3036860,3144847,33,Man
121,645473,DepthScenes,duration_manipulation_targetAtFixation,jsons/v1_VE1000_randls_30.json,http://54.235.29.9/FacialAge/BNav_EC2/DepthDuration/v2_depth_duration_MTurk/v2_DepthDuration_HTML.html#236,236,1024,625,1024,768,8-30-2022,10-56-39,122,depth_duration_stimuli/001447_2014-06-19_17-00-32_260595134347_rgbf000082-resize_5/001447_2014-06-19_17-00-32_260595134347_rgbf000082-resize_5-target.png,1000,4.13775,5.0,6000,999,feet,jsons/v1_VE1000_randls_30.json,3036860,3144847,33,Man
122,645473,DepthScenes,duration_manipulation_targetAtFixation,jsons/v1_VE1000_randls_30.json,http://54.235.29.9/FacialAge/BNav_EC2/DepthDuration/v2_depth_duration_MTurk/v2_DepthDuration_HTML.html#236,236,1024,625,1024,768,8-30-2022,10-56-39,123,depth_duration_stimuli/001808_2014-06-26_20-50-58_260595134347_rgbf000029-resize_1/001808_2014-06-26_20-50-58_260595134347_rgbf000029-resize_1-target.png,1000,4.249,5.0,3506,999,feet,jsons/v1_VE1000_randls_30.json,3036860,3144847,33,Man
123,645473,DepthScenes,duration_manipulation_targetAtFixation,jsons/v1_VE1000_randls_30.json,http://54.235.29.9/FacialAge/BNav_EC2/DepthDuration/v2_depth_duration_MTurk/v2_DepthDuration_HTML.html#236,236,1024,625,1024,768,8-30-2022,10-56-39,124,depth_duration_stimuli/001815_2014-06-26_20-52-55_260595134347_rgbf000020-resize_0/001815_2014-06-26_20-52-55_260595134347_rgbf000020-resize_0-target.png,1000,3.3865,3.0,8490,999,feet,jsons/v1_VE1000_randls_30.json,3036860,3144847,33,Man
124,645473,DepthScenes,duration_manipulation_targetAtFixation,jsons/v1_VE1000_randls_30.json,http://54.235.29.9/FacialAge/BNav_EC2/DepthDuration/v2_depth_duration_MTurk/v2_DepthDuration_HTML.html#236,236,1024,625,1024,768,8-30-2022,10-56-39,125,depth_duration_stimuli/003492_2014-05-21_15-50-55_094959634447_rgbf000828-resize_1/003492_2014-05-21_15-50-55_094959634447_rgbf000828-resize_1-target.png,1000,4.06875,1.0,5549,999,feet,jsons/v1_VE1000_randls_30.json,3036860,3144847,33,Man
125,645473,DepthScenes,duration_manipulation_targetAtFixation,jsons/v1_VE1000_randls_30.json,http://54.235.29.9/FacialAge/BNav_EC2/DepthDuration/v2_depth_duration_MTurk/v2_DepthDuration_HTML.html#236,236,1024,625,1024,768,8-30-2022,10-56-39,126,depth_duration_stimuli/002568_2014-06-24_13-59-21_094959634447_rgbf000062-resize_4/002568_2014-06-24_13-59-21_094959634447_rgbf000062-resize_4-target.png,1000,3.015,2.0,4464,1000,feet,jsons/v1_VE1000_randls_30.json,3036860,3144847,33,Man
126,645473,DepthScenes,duration_manipulation_targetAtFixation,jsons/v1_VE1000_randls_30.json,http://54.235.29.9/FacialAge/BNav_EC2/DepthDuration/v2_depth_duration_MTurk/v2_DepthDuration_HTML.html#236,236,1024,625,1024,768,8-30-2022,10-56-39,127,depth_duration_stimuli/002905_2014-06-03_18-04-43_094959634447_rgbf000151-resize_2/002905_2014-06-03_18-04-43_094959634447_rgbf000151-resize_2-target.png,1000,2.0295,2.0,3491,999,feet,jsons/v1_VE1000_randls_30.json,3036860,3144847,33,Man
127,645473,DepthScenes,duration_manipulation_targetAtFixation,jsons/v1_VE1000_randls_30.json,http://54.235.29.9/FacialAge/BNav_EC2/DepthDuration/v2_depth_duration_MTurk/v2_DepthDuration_HTML.html#236,236,1024,625,1024,768,8-30-2022,10-56-39,128,depth_duration_stimuli/003423_2014-05-21_10-23-26_094959634447_rgbf002665-resize_2/003423_2014-05-21_10-23-26_094959634447_rgbf002665-resize_2-target.png,1000,3.2575,2.0,266231,999,feet,jsons/v1_VE1000_randls_30.json,3036860,3144847,33,Man
128,645473,DepthScenes,duration_manipulation_targetAtFixation,jsons/v1_VE1000_randls_30.json,http://54.235.29.9/FacialAge/BNav_EC2/DepthDuration/v2_depth_duration_MTurk/v2_DepthDuration_HTML.html#236,236,1280,781,1024,768,8-30-2022,10-56-39,129,depth_duration_stimuli/003534_2014-05-22_15-06-10_094959634447_rgbf000102-resize_4/003534_2014-05-22_15-06-10_094959634447_rgbf000102-resize_4-target.png,1000,1.426,2.0,69965,999,feet,jsons/v1_VE1000_randls_30.json,3036860,3144847,33,Man
129,645473,DepthScenes,duration_manipulation_targetAtFixation,jsons/v1_VE1000_randls_30.json,http://54.235.29.9/FacialAge/BNav_EC2/DepthDuration/v2_depth_duration_MTurk/v2_DepthDuration_HTML.html#236,236,1280,781,1024,768,8-30-2022,10-56-39,130,depth_duration_stimuli/002637_2014-06-24_14-51-13_094959634447_rgbf000066-resize_4/002637_2014-06-24_14-51-13_094959634447_rgbf000066-resize_4-target.png,1000,1.9955,2.0,5677,1405,feet,jsons/v1_VE1000_randls_30.json,3036860,3144847,33,Man
130,645473,DepthScenes,duration_manipulation_targetAtFixation,jsons/v1_VE1000_randls_30.json,http://54.235.29.9/FacialAge/BNav_EC2/DepthDuration/v2_depth_duration_MTurk/v2_DepthDuration_HTML.html#236,236,1280,781,1024,768,8-30-2022,10-56-39,131,depth_duration_stimuli/002043_2014-06-24_20-29-38_260595134347_rgbf000039-resize_4/002043_2014-06-24_20-29-38_260595134347_rgbf000039-resize_4-target.png,1000,2.8435,3.0,5799,1226,feet,jsons/v1_VE1000_randls_30.json,3036860,3144847,33,Man
131,645473,DepthScenes,duration_manipulation_targetAtFixation,jsons/v1_VE1000_randls_30.json,http://54.235.29.9/FacialAge/BNav_EC2/DepthDuration/v2_depth_duration_MTurk/v2_DepthDuration_HTML.html#236,236,1280,781,1024,768,8-30-2022,10-56-39,132,depth_duration_stimuli/003048_2014-06-15_13-49-43_094959634447_rgbf000150-resize_1/003048_2014-06-15_13-49-43_094959634447_rgbf000150-resize_1-target.png,1000,4.0035,3.0,5519,1930,feet,jsons/v1_VE1000_randls_30.json,3036860,3144847,33,Man
132,645473,DepthScenes,duration_manipulation_targetAtFixation,jsons/v1_VE1000_randls_30.json,http://54.235.29.9/FacialAge/BNav_EC2/DepthDuration/v2_depth_duration_MTurk/v2_DepthDuration_HTML.html#236,236,1280,781,1024,768,8-30-2022,10-56-39,133,depth_duration_stimuli/000929_2014-06-09_16-33-19_260595134347_rgbf000139-resize_0/000929_2014-06-09_16-33-19_260595134347_rgbf000139-resize_0-target.png,1000,2.8680000000000003,0.0,6159,1910,feet,jsons/v1_VE1000_randls_30.json,3036860,3144847,33,Man
133,645473,DepthScenes,duration_manipulation_targetAtFixation,jsons/v1_VE1000_randls_30.json,http://54.235.29.9/FacialAge/BNav_EC2/DepthDuration/v2_depth_duration_MTurk/v2_DepthDuration_HTML.html#236,236,1280,781,1024,768,8-30-2022,10-56-39,134,depth_duration_stimuli/000457_2014-06-08_16-52-43_260595134347_rgbf000199-resize_1/000457_2014-06-08_16-52-43_260595134347_rgbf000199-resize_1-target.png,1000,3.6489999999999996,1.0,5071,1247,feet,jsons/v1_VE1000_randls_30.json,3036860,3144847,33,Man
134,645473,DepthScenes,duration_manipulation_targetAtFixation,jsons/v1_VE1000_randls_30.json,http://54.235.29.9/FacialAge/BNav_EC2/DepthDuration/v2_depth_duration_MTurk/v2_DepthDuration_HTML.html#236,236,1280,781,1024,768,8-30-2022,10-56-39,135,depth_duration_stimuli/002072_2014-06-24_21-48-06_260595134347_rgbf000115-resize_0/002072_2014-06-24_21-48-06_260595134347_rgbf000115-resize-original.jpg,1000,4.702,2.0,9328,1677,feet,jsons/v1_VE1000_randls_30.json,3036860,3144847,33,Man
135,645473,DepthScenes,duration_manipulation_targetAtFixation,jsons/v1_VE1000_randls_30.json,http://54.235.29.9/FacialAge/BNav_EC2/DepthDuration/v2_depth_duration_MTurk/v2_DepthDuration_HTML.html#236,236,1280,781,1024,768,8-30-2022,10-56-39,136,depth_duration_stimuli/001092_2014-06-15_17-34-58_260595134347_rgbf000171-resize_3/001092_2014-06-15_17-34-58_260595134347_rgbf000171-resize_3-target.png,1000,2.6935,2.0,6198,1847,feet,jsons/v1_VE1000_randls_30.json,3036860,3144847,33,Man
136,645473,DepthScenes,duration_manipulation_targetAtFixation,jsons/v1_VE1000_randls_30.json,http://54.235.29.9/FacialAge/BNav_EC2/DepthDuration/v2_depth_duration_MTurk/v2_DepthDuration_HTML.html#236,236,1280,781,1024,768,8-30-2022,10-56-39,137,depth_duration_stimuli/002545_2014-06-24_13-38-53_094959634447_rgbf000080-resize_4/002545_2014-06-24_13-38-53_094959634447_rgbf000080-resize_4-target.png,1000,1.9205,2.0,4598,1147,feet,jsons/v1_VE1000_randls_30.json,3036860,3144847,33,Man
137,645473,DepthScenes,duration_manipulation_targetAtFixation,jsons/v1_VE1000_randls_30.json,http://54.235.29.9/FacialAge/BNav_EC2/DepthDuration/v2_depth_duration_MTurk/v2_DepthDuration_HTML.html#236,236,1280,781,1024,768,8-30-2022,10-56-39,138,depth_duration_stimuli/002600_2014-06-24_14-27-04_094959634447_rgbf000074-resize_2/002600_2014-06-24_14-27-04_094959634447_rgbf000074-resize_2-target.png,1000,2.7575,2.0,759000,990,feet,jsons/v1_VE1000_randls_30.json,3036860,3144847,33,Man
138,645473,DepthScenes,duration_manipulation_targetAtFixation,jsons/v1_VE1000_randls_30.json,http://54.235.29.9/FacialAge/BNav_EC2/DepthDuration/v2_depth_duration_MTurk/v2_DepthDuration_HTML.html#236,236,1280,781,1024,768,8-30-2022,10-56-39,139,depth_duration_stimuli/003228_2014-05-14_13-42-35_094959634447_rgbf000101-resize_1/003228_2014-05-14_13-42-35_094959634447_rgbf000101-resize_1-target.png,1000,1.9680000000000002,2.0,6266,1536,feet,jsons/v1_VE1000_randls_30.json,3036860,3144847,33,Man
139,645473,DepthScenes,duration_manipulation_targetAtFixation,jsons/v1_VE1000_randls_30.json,http://54.235.29.9/FacialAge/BNav_EC2/DepthDuration/v2_depth_duration_MTurk/v2_DepthDuration_HTML.html#236,236,1280,781,1024,768,8-30-2022,10-56-39,140,depth_duration_stimuli/001244_2014-06-17_16-47-45_260595134347_rgbf000030-resize_4/001244_2014-06-17_16-47-45_260595134347_rgbf000030-resize_4-target.png,1000,2.0425,2.0,5706,1766,feet,jsons/v1_VE1000_randls_30.json,3036860,3144847,33,Man
140,645473,DepthScenes,duration_manipulation_targetAtFixation,jsons/v1_VE1000_randls_30.json,http://54.235.29.9/FacialAge/BNav_EC2/DepthDuration/v2_depth_duration_MTurk/v2_DepthDuration_HTML.html#236,236,1280,781,1024,768,8-30-2022,10-56-39,141,depth_duration_stimuli/003495_2014-05-21_16-01-51_094959634447_rgbf000100-resize_3/003495_2014-05-21_16-01-51_094959634447_rgbf000100-resize_3-target.png,1000,1.6255,3.0,5678,1556,feet,jsons/v1_VE1000_randls_30.json,3036860,3144847,33,Man
141,645473,DepthScenes,duration_manipulation_targetAtFixation,jsons/v1_VE1000_randls_30.json,http://54.235.29.9/FacialAge/BNav_EC2/DepthDuration/v2_depth_duration_MTurk/v2_DepthDuration_HTML.html#236,236,1280,781,1024,768,8-30-2022,10-56-39,142,depth_duration_stimuli/002663_2014-06-13_15-50-26_094959634447_rgbf000075-resize_1/002663_2014-06-13_15-50-26_094959634447_rgbf000075-resize_1-target.png,1000,4.7495,3.0,7441,1378,feet,jsons/v1_VE1000_randls_30.json,3036860,3144847,33,Man
142,645473,DepthScenes,duration_manipulation_targetAtFixation,jsons/v1_VE1000_randls_30.json,http://54.235.29.9/FacialAge/BNav_EC2/DepthDuration/v2_depth_duration_MTurk/v2_DepthDuration_HTML.html#236,236,1280,781,1024,768,8-30-2022,10-56-39,143,depth_duration_stimuli/000409_2014-06-04_19-23-33_260595134347_rgbf000067-resize_0/000409_2014-06-04_19-23-33_260595134347_rgbf000067-resize_0-target.png,1000,3.7335,2.0,12397,1435,feet,jsons/v1_VE1000_randls_30.json,3036860,3144847,33,Man
143,645473,DepthScenes,duration_manipulation_targetAtFixation,jsons/v1_VE1000_randls_30.json,http://54.235.29.9/FacialAge/BNav_EC2/DepthDuration/v2_depth_duration_MTurk/v2_DepthDuration_HTML.html#236,236,1280,781,1024,768,8-30-2022,10-56-39,144,depth_duration_stimuli/000917_2014-06-09_22-45-29_260595134347_rgbf000149-resize_3/000917_2014-06-09_22-45-29_260595134347_rgbf000149-resize_3-target.png,1000,4.1865,3.0,6038,1537,feet,jsons/v1_VE1000_randls_30.json,3036860,3144847,33,Man
144,645473,DepthScenes,duration_manipulation_targetAtFixation,jsons/v1_VE1000_randls_30.json,http://54.235.29.9/FacialAge/BNav_EC2/DepthDuration/v2_depth_duration_MTurk/v2_DepthDuration_HTML.html#236,236,1280,781,1024,768,8-30-2022,10-56-39,145,depth_duration_stimuli/002323_2014-06-28_20-01-54_260595134347_rgbf000051-resize_4/002323_2014-06-28_20-01-54_260595134347_rgbf000051-resize_4-target.png,1000,3.7310000000000003,3.0,6106,1999,feet,jsons/v1_VE1000_randls_30.json,3036860,3144847,33,Man
145,645473,DepthScenes,duration_manipulation_targetAtFixation,jsons/v1_VE1000_randls_30.json,http://54.235.29.9/FacialAge/BNav_EC2/DepthDuration/v2_depth_duration_MTurk/v2_DepthDuration_HTML.html#236,236,1280,781,1024,768,8-30-2022,10-56-39,146,depth_duration_stimuli/001498_2014-06-19_17-45-14_260595134347_rgbf000129-resize_4/001498_2014-06-19_17-45-14_260595134347_rgbf000129-resize-original.jpg,1000,1.4075,4.0,5138,1389,feet,jsons/v1_VE1000_randls_30.json,3036860,3144847,33,Man
146,645473,DepthScenes,duration_manipulation_targetAtFixation,jsons/v1_VE1000_randls_30.json,http://54.235.29.9/FacialAge/BNav_EC2/DepthDuration/v2_depth_duration_MTurk/v2_DepthDuration_HTML.html#236,236,1280,781,1024,768,8-30-2022,10-56-39,147,depth_duration_stimuli/000773_2014-06-08_22-24-54_260595134347_rgbf000093-resize_1/000773_2014-06-08_22-24-54_260595134347_rgbf000093-resize_1-target.png,1000,4.973,2.0,6810,1750,feet,jsons/v1_VE1000_randls_30.json,3036860,3144847,33,Man
147,645473,DepthScenes,duration_manipulation_targetAtFixation,jsons/v1_VE1000_randls_30.json,http://54.235.29.9/FacialAge/BNav_EC2/DepthDuration/v2_depth_duration_MTurk/v2_DepthDuration_HTML.html#236,236,1280,781,1024,768,8-30-2022,10-56-39,148,depth_duration_stimuli/002414_2014-06-28_20-24-58_260595134347_rgbf000067-resize_4/002414_2014-06-28_20-24-58_260595134347_rgbf000067-resize_4-target.png,1000,4.363,3.0,5757,1000,feet,jsons/v1_VE1000_randls_30.json,3036860,3144847,33,Man
148,645473,DepthScenes,duration_manipulation_targetAtFixation,jsons/v1_VE1000_randls_30.json,http://54.235.29.9/FacialAge/BNav_EC2/DepthDuration/v2_depth_duration_MTurk/v2_DepthDuration_HTML.html#236,236,1280,781,1024,768,8-30-2022,10-56-39,149,depth_duration_stimuli/001029_2014-06-08_13-17-57_260595134347_rgbf000065-resize_1/001029_2014-06-08_13-17-57_260595134347_rgbf000065-resize_1-target.png,1000,3.0835,3.0,6279,1177,feet,jsons/v1_VE1000_randls_30.json,3036860,3144847,33,Man
149,645473,DepthScenes,duration_manipulation_targetAtFixation,jsons/v1_VE1000_randls_30.json,http://54.235.29.9/FacialAge/BNav_EC2/DepthDuration/v2_depth_duration_MTurk/v2_DepthDuration_HTML.html#236,236,1280,781,1024,768,8-30-2022,10-56-39,150,depth_duration_stimuli/000677_2014-06-08_23-10-32_260595134347_rgbf000158-resize_6/000677_2014-06-08_23-10-32_260595134347_rgbf000158-resize_6-target.png,1000,3.556,3.0,6155,1399,feet,jsons/v1_VE1000_randls_30.json,3036860,3144847,33,Man
150,645473,DepthScenes,duration_manipulation_targetAtFixation,jsons/v1_VE1000_randls_30.json,http://54.235.29.9/FacialAge/BNav_EC2/DepthDuration/v2_depth_duration_MTurk/v2_DepthDuration_HTML.html#236,236,1280,781,1024,768,8-30-2022,10-56-39,151,depth_duration_stimuli/000906_2014-06-08_13-35-43_260595134347_rgbf000155-resize_1/000906_2014-06-08_13-35-43_260595134347_rgbf000155-resize_1-target.png,1000,2.8489999999999998,6.0,6091,1741,feet,jsons/v1_VE1000_randls_30.json,3036860,3144847,33,Man
151,645473,DepthScenes,duration_manipulation_targetAtFixation,jsons/v1_VE1000_randls_30.json,http://54.235.29.9/FacialAge/BNav_EC2/DepthDuration/v2_depth_duration_MTurk/v2_DepthDuration_HTML.html#236,236,1280,781,1024,768,8-30-2022,10-56-39,152,depth_duration_stimuli/002805_2014-06-22_19-54-03_094959634447_rgbf000079-resize_1/002805_2014-06-22_19-54-03_094959634447_rgbf000079-resize_1-target.png,1000,3.1439999999999997,3.0,5970,1150,feet,jsons/v1_VE1000_randls_30.json,3036860,3144847,33,Man
152,645473,DepthScenes,duration_manipulation_targetAtFixation,jsons/v1_VE1000_randls_30.json,http://54.235.29.9/FacialAge/BNav_EC2/DepthDuration/v2_depth_duration_MTurk/v2_DepthDuration_HTML.html#236,236,1280,781,1024,768,8-30-2022,10-56-39,153,depth_duration_stimuli/000522_2014-06-08_13-35-06_260595134347_rgbf000244-resize_1/000522_2014-06-08_13-35-06_260595134347_rgbf000244-resize_1-target.png,1000,2.3715,3.0,9586,1000,feet,jsons/v1_VE1000_randls_30.json,3036860,3144847,33,Man
153,645473,DepthScenes,duration_manipulation_targetAtFixation,jsons/v1_VE1000_randls_30.json,http://54.235.29.9/FacialAge/BNav_EC2/DepthDuration/v2_depth_duration_MTurk/v2_DepthDuration_HTML.html#236,236,1280,781,1024,768,8-30-2022,10-56-39,154,depth_duration_stimuli/002949_2014-06-26_15-57-42_094959634447_rgbf000079-resize_1/002949_2014-06-26_15-57-42_094959634447_rgbf000079-resize_1-target.png,1000,1.8915,3.0,5458,1591,feet,jsons/v1_VE1000_randls_30.json,3036860,3144847,33,Man
154,645473,DepthScenes,duration_manipulation_targetAtFixation,jsons/v1_VE1000_randls_30.json,http://54.235.29.9/FacialAge/BNav_EC2/DepthDuration/v2_depth_duration_MTurk/v2_DepthDuration_HTML.html#236,236,1280,781,1024,768,8-30-2022,10-56-39,155,depth_duration_stimuli/001110_2014-06-15_17-25-28_260595134347_rgbf000150-resize_1/001110_2014-06-15_17-25-28_260595134347_rgbf000150-resize_1-target.png,1000,1.7115,3.0,5819,1631,feet,jsons/v1_VE1000_randls_30.json,3036860,3144847,33,Man
155,645473,DepthScenes,duration_manipulation_targetAtFixation,jsons/v1_VE1000_randls_30.json,http://54.235.29.9/FacialAge/BNav_EC2/DepthDuration/v2_depth_duration_MTurk/v2_DepthDuration_HTML.html#236,236,1280,781,1024,768,8-30-2022,10-56-39,156,depth_duration_stimuli/000927_2014-06-09_16-32-30_260595134347_rgbf000123-resize_3/000927_2014-06-09_16-32-30_260595134347_rgbf000123-resize_3-target.png,1000,2.6785,3.0,10429,1000,feet,jsons/v1_VE1000_randls_30.json,3036860,3144847,33,Man
156,645473,DepthScenes,duration_manipulation_targetAtFixation,jsons/v1_VE1000_randls_30.json,http://54.235.29.9/FacialAge/BNav_EC2/DepthDuration/v2_depth_duration_MTurk/v2_DepthDuration_HTML.html#236,236,1280,781,1024,768,8-30-2022,10-56-39,157,depth_duration_stimuli/000878_2014-06-08_22-52-45_260595134347_rgbf000045-resize_2/000878_2014-06-08_22-52-45_260595134347_rgbf000045-resize_2-target.png,1000,2.092,3.0,10497,1000,feet,jsons/v1_VE1000_randls_30.json,3036860,3144847,33,Man
157,645473,DepthScenes,duration_manipulation_targetAtFixation,jsons/v1_VE1000_randls_30.json,http://54.235.29.9/FacialAge/BNav_EC2/DepthDuration/v2_depth_duration_MTurk/v2_DepthDuration_HTML.html#236,236,1280,781,1024,768,8-30-2022,10-56-39,158,depth_duration_stimuli/002953_2014-06-08_17-32-18_094959634447_rgbf000059-resize_5/002953_2014-06-08_17-32-18_094959634447_rgbf000059-resize_5-target.png,1000,1.551,2.0,24067,1380,feet,jsons/v1_VE1000_randls_30.json,3036860,3144847,33,Man
158,645473,DepthScenes,duration_manipulation_targetAtFixation,jsons/v1_VE1000_randls_30.json,http://54.235.29.9/FacialAge/BNav_EC2/DepthDuration/v2_depth_duration_MTurk/v2_DepthDuration_HTML.html#236,236,1280,781,1024,768,8-30-2022,10-56-39,159,depth_duration_stimuli/001199_2014-06-17_16-03-48_260595134347_rgbf000077-resize_0/001199_2014-06-17_16-03-48_260595134347_rgbf000077-resize_0-target.png,1000,3.4375,4.0,5031,1813,feet,jsons/v1_VE1000_randls_30.json,3036860,3144847,33,Man
159,645473,DepthScenes,duration_manipulation_targetAtFixation,jsons/v1_VE1000_randls_30.json,http://54.235.29.9/FacialAge/BNav_EC2/DepthDuration/v2_depth_duration_MTurk/v2_DepthDuration_HTML.html#236,236,1280,781,1024,768,8-30-2022,10-56-39,160,depth_duration_stimuli/000502_2014-06-08_23-02-32_260595134347_rgbf000063-resize_4/000502_2014-06-08_23-02-32_260595134347_rgbf000063-resize_4-target.png,1000,2.431,2.0,5179,1280,feet,jsons/v1_VE1000_randls_30.json,3036860,3144847,33,Man
160,645473,DepthScenes,duration_manipulation_targetAtFixation,jsons/v1_VE1000_randls_30.json,http://54.235.29.9/FacialAge/BNav_EC2/DepthDuration/v2_depth_duration_MTurk/v2_DepthDuration_HTML.html#236,236,1280,781,1024,768,8-30-2022,10-56-39,161,depth_duration_stimuli/002788_2014-06-22_19-36-03_094959634447_rgbf000088-resize_2/002788_2014-06-22_19-36-03_094959634447_rgbf000088-resize_2-target.png,1000,1.6465,2.0,6699,1600,feet,jsons/v1_VE1000_randls_30.json,3036860,3144847,33,Man
161,645473,DepthScenes,duration_manipulation_targetAtFixation,jsons/v1_VE1000_randls_30.json,http://54.235.29.9/FacialAge/BNav_EC2/DepthDuration/v2_depth_duration_MTurk/v2_DepthDuration_HTML.html#236,236,1280,781,1024,768,8-30-2022,10-56-39,162,depth_duration_stimuli/000749_2014-06-08_21-55-06_260595134347_rgbf000070-resize_2/000749_2014-06-08_21-55-06_260595134347_rgbf000070-resize_2-target.png,1000,2.331,2.0,7593,1398,feet,jsons/v1_VE1000_randls_30.json,3036860,3144847,33,Man
162,645473,DepthScenes,duration_manipulation_targetAtFixation,jsons/v1_VE1000_randls_30.json,http://54.235.29.9/FacialAge/BNav_EC2/DepthDuration/v2_depth_duration_MTurk/v2_DepthDuration_HTML.html#236,236,1280,781,1024,768,8-30-2022,10-56-39,163,depth_duration_stimuli/002375_2014-06-28_20-13-44_260595134347_rgbf000032-resize_1/002375_2014-06-28_20-13-44_260595134347_rgbf000032-resize_1-target.png,1000,4.0175,2.0,15604,999,feet,jsons/v1_VE1000_randls_30.json,3036860,3144847,33,Man
163,645473,DepthScenes,duration_manipulation_targetAtFixation,jsons/v1_VE1000_randls_30.json,http://54.235.29.9/FacialAge/BNav_EC2/DepthDuration/v2_depth_duration_MTurk/v2_DepthDuration_HTML.html#236,236,1280,781,1024,768,8-30-2022,10-56-39,164,depth_duration_stimuli/002657_2014-06-13_15-29-54_094959634447_rgbf000150-resize_1/002657_2014-06-13_15-29-54_094959634447_rgbf000150-resize_1-target.png,1000,4.919,2.0,13466,1198,feet,jsons/v1_VE1000_randls_30.json,3036860,3144847,33,Man
