,subjID,experimentName,versionName,sequenceName,url,selected_row,windowWidth,windowHeight,screenWidth,screenHeight,startDate,startTime,trial,stimulus,duration,actual_depth,depth_estimate,trial_RT,log_sceneDuration,unitSelection,seq_filepath,experimentTime,totalTime,age,gender
0,645407,DepthScenes,duration_manipulation_targetAtFixation,jsons/v1_VE250_randls_67_rotated.json,http://54.235.29.9/FacialAge/BNav_EC2/DepthDuration/v2_depth_duration_MTurk/v2_DepthDuration_HTML.html#121,121,1707,781,1366,768,8-20-2022,10-4-42,1,depth_duration_stimuli/000866_2014-06-09_20-45-42_260595134347_rgbf000139-resize_1/000866_2014-06-09_20-45-42_260595134347_rgbf000139-resize_1-target.png,250,3.2155,2.0,4570,249,meters,jsons/v1_VE250_randls_67_rotated.json,975586,1114356,43,Man
1,645407,DepthScenes,duration_manipulation_targetAtFixation,jsons/v1_VE250_randls_67_rotated.json,http://54.235.29.9/FacialAge/BNav_EC2/DepthDuration/v2_depth_duration_MTurk/v2_DepthDuration_HTML.html#121,121,1707,781,1366,768,8-20-2022,10-4-42,2,depth_duration_stimuli/002989_2014-06-15_12-25-03_094959634447_rgbf000150-resize_3/002989_2014-06-15_12-25-03_094959634447_rgbf000150-resize_3-target.png,250,4.1975,5.0,4516,234,meters,jsons/v1_VE250_randls_67_rotated.json,975586,1114356,43,Man
2,645407,DepthScenes,duration_manipulation_targetAtFixation,jsons/v1_VE250_randls_67_rotated.json,http://54.235.29.9/FacialAge/BNav_EC2/DepthDuration/v2_depth_duration_MTurk/v2_DepthDuration_HTML.html#121,121,1707,781,1366,768,8-20-2022,10-4-42,3,depth_duration_stimuli/001132_2014-06-17_14-48-54_260595134347_rgbf000100-resize_2/001132_2014-06-17_14-48-54_260595134347_rgbf000100-resize_2-target.png,250,3.753,3.0,5454,256,meters,jsons/v1_VE250_randls_67_rotated.json,975586,1114356,43,Man
3,645407,DepthScenes,duration_manipulation_targetAtFixation,jsons/v1_VE250_randls_67_rotated.json,http://54.235.29.9/FacialAge/BNav_EC2/DepthDuration/v2_depth_duration_MTurk/v2_DepthDuration_HTML.html#121,121,1707,781,1366,768,8-20-2022,10-4-42,4,depth_duration_stimuli/001133_2014-06-17_14-49-16_260595134347_rgbf000100-resize_0/001133_2014-06-17_14-49-16_260595134347_rgbf000100-resize_0-target.png,250,4.2115,4.0,4055,241,meters,jsons/v1_VE250_randls_67_rotated.json,975586,1114356,43,Man
4,645407,DepthScenes,duration_manipulation_targetAtFixation,jsons/v1_VE250_randls_67_rotated.json,http://54.235.29.9/FacialAge/BNav_EC2/DepthDuration/v2_depth_duration_MTurk/v2_DepthDuration_HTML.html#121,121,1707,781,1366,768,8-20-2022,10-4-42,5,depth_duration_stimuli/002657_2014-06-13_15-29-54_094959634447_rgbf000150-resize_1/002657_2014-06-13_15-29-54_094959634447_rgbf000150-resize_1-target.png,250,4.919,5.0,4882,235,meters,jsons/v1_VE250_randls_67_rotated.json,975586,1114356,43,Man
5,645407,DepthScenes,duration_manipulation_targetAtFixation,jsons/v1_VE250_randls_67_rotated.json,http://54.235.29.9/FacialAge/BNav_EC2/DepthDuration/v2_depth_duration_MTurk/v2_DepthDuration_HTML.html#121,121,1707,781,1366,768,8-20-2022,10-4-42,6,depth_duration_stimuli/002375_2014-06-28_20-13-44_260595134347_rgbf000032-resize_1/002375_2014-06-28_20-13-44_260595134347_rgbf000032-resize_1-target.png,250,4.0175,3.5,5738,257,meters,jsons/v1_VE250_randls_67_rotated.json,975586,1114356,43,Man
6,645407,DepthScenes,duration_manipulation_targetAtFixation,jsons/v1_VE250_randls_67_rotated.json,http://54.235.29.9/FacialAge/BNav_EC2/DepthDuration/v2_depth_duration_MTurk/v2_DepthDuration_HTML.html#121,121,1707,781,1366,768,8-20-2022,10-4-42,7,depth_duration_stimuli/002136_2014-06-25_21-18-03_260595134347_rgbf000109-resize_3/002136_2014-06-25_21-18-03_260595134347_rgbf000109-resize_3-target.png,250,1.9569999999999999,2.5,5386,253,meters,jsons/v1_VE250_randls_67_rotated.json,975586,1114356,43,Man
7,645407,DepthScenes,duration_manipulation_targetAtFixation,jsons/v1_VE250_randls_67_rotated.json,http://54.235.29.9/FacialAge/BNav_EC2/DepthDuration/v2_depth_duration_MTurk/v2_DepthDuration_HTML.html#121,121,1707,781,1366,768,8-20-2022,10-4-42,8,depth_duration_stimuli/002964_2014-06-08_17-46-11_094959634447_rgbf000091-resize_4/002964_2014-06-08_17-46-11_094959634447_rgbf000091-resize_4-target.png,250,1.6909999999999998,4.0,3994,253,meters,jsons/v1_VE250_randls_67_rotated.json,975586,1114356,43,Man
8,645407,DepthScenes,duration_manipulation_targetAtFixation,jsons/v1_VE250_randls_67_rotated.json,http://54.235.29.9/FacialAge/BNav_EC2/DepthDuration/v2_depth_duration_MTurk/v2_DepthDuration_HTML.html#121,121,1707,781,1366,768,8-20-2022,10-4-42,9,depth_duration_stimuli/001052_2014-06-08_18-24-54_260595134347_rgbf000130-resize_1/001052_2014-06-08_18-24-54_260595134347_rgbf000130-resize_1-target.png,250,4.1045,6.0,3639,251,meters,jsons/v1_VE250_randls_67_rotated.json,975586,1114356,43,Man
9,645407,DepthScenes,duration_manipulation_targetAtFixation,jsons/v1_VE250_randls_67_rotated.json,http://54.235.29.9/FacialAge/BNav_EC2/DepthDuration/v2_depth_duration_MTurk/v2_DepthDuration_HTML.html#121,121,1707,781,1366,768,8-20-2022,10-4-42,10,depth_duration_stimuli/002988_2014-06-15_12-24-20_094959634447_rgbf000150-resize_1/002988_2014-06-15_12-24-20_094959634447_rgbf000150-resize_1-target.png,250,4.7669999999999995,4.0,4383,254,meters,jsons/v1_VE250_randls_67_rotated.json,975586,1114356,43,Man
10,645407,DepthScenes,duration_manipulation_targetAtFixation,jsons/v1_VE250_randls_67_rotated.json,http://54.235.29.9/FacialAge/BNav_EC2/DepthDuration/v2_depth_duration_MTurk/v2_DepthDuration_HTML.html#121,121,1707,781,1366,768,8-20-2022,10-4-42,11,depth_duration_stimuli/003129_2014-05-12_10-48-10_094959634447_rgbf000100-resize_0/003129_2014-05-12_10-48-10_094959634447_rgbf000100-resize_0-target.png,250,4.9305,3.0,5632,251,meters,jsons/v1_VE250_randls_67_rotated.json,975586,1114356,43,Man
11,645407,DepthScenes,duration_manipulation_targetAtFixation,jsons/v1_VE250_randls_67_rotated.json,http://54.235.29.9/FacialAge/BNav_EC2/DepthDuration/v2_depth_duration_MTurk/v2_DepthDuration_HTML.html#121,121,1707,781,1366,768,8-20-2022,10-4-42,12,depth_duration_stimuli/000414_2014-06-04_19-49-13_260595134347_rgbf000044-resize_0/000414_2014-06-04_19-49-13_260595134347_rgbf000044-resize_0-target.png,250,4.329,3.0,4027,238,meters,jsons/v1_VE250_randls_67_rotated.json,975586,1114356,43,Man
12,645407,DepthScenes,duration_manipulation_targetAtFixation,jsons/v1_VE250_randls_67_rotated.json,http://54.235.29.9/FacialAge/BNav_EC2/DepthDuration/v2_depth_duration_MTurk/v2_DepthDuration_HTML.html#121,121,1707,781,1366,768,8-20-2022,10-4-42,13,depth_duration_stimuli/003079_2014-06-15_15-18-20_094959634447_rgbf000152-resize_8/003079_2014-06-15_15-18-20_094959634447_rgbf000152-resize_8-target.png,250,2.8775,4.0,7229,257,meters,jsons/v1_VE250_randls_67_rotated.json,975586,1114356,43,Man
13,645407,DepthScenes,duration_manipulation_targetAtFixation,jsons/v1_VE250_randls_67_rotated.json,http://54.235.29.9/FacialAge/BNav_EC2/DepthDuration/v2_depth_duration_MTurk/v2_DepthDuration_HTML.html#121,121,1707,781,1366,768,8-20-2022,10-4-42,14,depth_duration_stimuli/000506_2014-06-08_23-21-00_260595134347_rgbf000070-resize_7/000506_2014-06-08_23-21-00_260595134347_rgbf000070-resize_7-target.png,250,4.0585,4.0,4646,241,meters,jsons/v1_VE250_randls_67_rotated.json,975586,1114356,43,Man
14,645407,DepthScenes,duration_manipulation_targetAtFixation,jsons/v1_VE250_randls_67_rotated.json,http://54.235.29.9/FacialAge/BNav_EC2/DepthDuration/v2_depth_duration_MTurk/v2_DepthDuration_HTML.html#121,121,1707,781,1366,768,8-20-2022,10-4-42,15,depth_duration_stimuli/000549_2014-06-08_22-10-24_260595134347_rgbf000247-resize_3/000549_2014-06-08_22-10-24_260595134347_rgbf000247-resize_3-target.png,250,1.841,2.0,3638,260,meters,jsons/v1_VE250_randls_67_rotated.json,975586,1114356,43,Man
15,645407,DepthScenes,duration_manipulation_targetAtFixation,jsons/v1_VE250_randls_67_rotated.json,http://54.235.29.9/FacialAge/BNav_EC2/DepthDuration/v2_depth_duration_MTurk/v2_DepthDuration_HTML.html#121,121,1707,781,1366,768,8-20-2022,10-4-42,16,depth_duration_stimuli/001055_2014-06-08_18-45-35_260595134347_rgbf000111-resize_4/001055_2014-06-08_18-45-35_260595134347_rgbf000111-resize_4-target.png,250,2.4290000000000003,6.0,4400,241,meters,jsons/v1_VE250_randls_67_rotated.json,975586,1114356,43,Man
16,645407,DepthScenes,duration_manipulation_targetAtFixation,jsons/v1_VE250_randls_67_rotated.json,http://54.235.29.9/FacialAge/BNav_EC2/DepthDuration/v2_depth_duration_MTurk/v2_DepthDuration_HTML.html#121,121,1707,781,1366,768,8-20-2022,10-4-42,17,depth_duration_stimuli/000409_2014-06-04_19-23-33_260595134347_rgbf000067-resize_0/000409_2014-06-04_19-23-33_260595134347_rgbf000067-resize_0-target.png,250,3.7335,3.0,3719,255,meters,jsons/v1_VE250_randls_67_rotated.json,975586,1114356,43,Man
17,645407,DepthScenes,duration_manipulation_targetAtFixation,jsons/v1_VE250_randls_67_rotated.json,http://54.235.29.9/FacialAge/BNav_EC2/DepthDuration/v2_depth_duration_MTurk/v2_DepthDuration_HTML.html#121,121,1707,781,1366,768,8-20-2022,10-4-42,18,depth_duration_stimuli/002663_2014-06-13_15-50-26_094959634447_rgbf000075-resize_1/002663_2014-06-13_15-50-26_094959634447_rgbf000075-resize_1-target.png,250,4.7495,4.0,3770,255,meters,jsons/v1_VE250_randls_67_rotated.json,975586,1114356,43,Man
18,645407,DepthScenes,duration_manipulation_targetAtFixation,jsons/v1_VE250_randls_67_rotated.json,http://54.235.29.9/FacialAge/BNav_EC2/DepthDuration/v2_depth_duration_MTurk/v2_DepthDuration_HTML.html#121,121,1707,781,1366,768,8-20-2022,10-4-42,19,depth_duration_stimuli/001498_2014-06-19_17-45-14_260595134347_rgbf000129-resize_4/001498_2014-06-19_17-45-14_260595134347_rgbf000129-resize-original.jpg,250,1.4075,0.0,5429,246,meters,jsons/v1_VE250_randls_67_rotated.json,975586,1114356,43,Man
19,645407,DepthScenes,duration_manipulation_targetAtFixation,jsons/v1_VE250_randls_67_rotated.json,http://54.235.29.9/FacialAge/BNav_EC2/DepthDuration/v2_depth_duration_MTurk/v2_DepthDuration_HTML.html#121,121,1707,781,1366,768,8-20-2022,10-4-42,20,depth_duration_stimuli/002103_2014-06-25_20-00-40_260595134347_rgbf000049-resize_0/002103_2014-06-25_20-00-40_260595134347_rgbf000049-resize_0-target.png,250,4.105,5.0,4109,254,meters,jsons/v1_VE250_randls_67_rotated.json,975586,1114356,43,Man
20,645407,DepthScenes,duration_manipulation_targetAtFixation,jsons/v1_VE250_randls_67_rotated.json,http://54.235.29.9/FacialAge/BNav_EC2/DepthDuration/v2_depth_duration_MTurk/v2_DepthDuration_HTML.html#121,121,1707,781,1366,768,8-20-2022,10-4-42,21,depth_duration_stimuli/002039_2014-06-24_20-22-38_260595134347_rgbf000084-resize_1/002039_2014-06-24_20-22-38_260595134347_rgbf000084-resize_1-target.png,250,4.408,3.0,3594,244,meters,jsons/v1_VE250_randls_67_rotated.json,975586,1114356,43,Man
21,645407,DepthScenes,duration_manipulation_targetAtFixation,jsons/v1_VE250_randls_67_rotated.json,http://54.235.29.9/FacialAge/BNav_EC2/DepthDuration/v2_depth_duration_MTurk/v2_DepthDuration_HTML.html#121,121,1707,781,1366,768,8-20-2022,10-4-42,22,depth_duration_stimuli/000927_2014-06-09_16-32-30_260595134347_rgbf000123-resize_3/000927_2014-06-09_16-32-30_260595134347_rgbf000123-resize_3-target.png,250,2.6785,4.0,4093,249,meters,jsons/v1_VE250_randls_67_rotated.json,975586,1114356,43,Man
22,645407,DepthScenes,duration_manipulation_targetAtFixation,jsons/v1_VE250_randls_67_rotated.json,http://54.235.29.9/FacialAge/BNav_EC2/DepthDuration/v2_depth_duration_MTurk/v2_DepthDuration_HTML.html#121,121,1707,781,1366,768,8-20-2022,10-4-42,23,depth_duration_stimuli/001110_2014-06-15_17-25-28_260595134347_rgbf000150-resize_1/001110_2014-06-15_17-25-28_260595134347_rgbf000150-resize_1-target.png,250,1.7115,3.0,3321,250,meters,jsons/v1_VE250_randls_67_rotated.json,975586,1114356,43,Man
23,645407,DepthScenes,duration_manipulation_targetAtFixation,jsons/v1_VE250_randls_67_rotated.json,http://54.235.29.9/FacialAge/BNav_EC2/DepthDuration/v2_depth_duration_MTurk/v2_DepthDuration_HTML.html#121,121,1707,781,1366,768,8-20-2022,10-4-42,24,depth_duration_stimuli/000709_2014-06-08_13-51-55_260595134347_rgbf000068-resize_3/000709_2014-06-08_13-51-55_260595134347_rgbf000068-resize_3-target.png,250,1.8030000000000002,4.0,3502,261,meters,jsons/v1_VE250_randls_67_rotated.json,975586,1114356,43,Man
24,645407,DepthScenes,duration_manipulation_targetAtFixation,jsons/v1_VE250_randls_67_rotated.json,http://54.235.29.9/FacialAge/BNav_EC2/DepthDuration/v2_depth_duration_MTurk/v2_DepthDuration_HTML.html#121,121,1707,781,1366,768,8-20-2022,10-4-42,25,depth_duration_stimuli/002057_2014-06-24_21-00-13_260595134347_rgbf000120-resize_1/002057_2014-06-24_21-00-13_260595134347_rgbf000120-resize_1-target.png,250,2.967,3.0,3307,250,meters,jsons/v1_VE250_randls_67_rotated.json,975586,1114356,43,Man
25,645407,DepthScenes,duration_manipulation_targetAtFixation,jsons/v1_VE250_randls_67_rotated.json,http://54.235.29.9/FacialAge/BNav_EC2/DepthDuration/v2_depth_duration_MTurk/v2_DepthDuration_HTML.html#121,121,1707,781,1366,768,8-20-2022,10-4-42,26,depth_duration_stimuli/001100_2014-06-15_17-46-26_260595134347_rgbf000225-resize_2/001100_2014-06-15_17-46-26_260595134347_rgbf000225-resize_2-target.png,250,2.24,3.5,4077,249,meters,jsons/v1_VE250_randls_67_rotated.json,975586,1114356,43,Man
26,645407,DepthScenes,duration_manipulation_targetAtFixation,jsons/v1_VE250_randls_67_rotated.json,http://54.235.29.9/FacialAge/BNav_EC2/DepthDuration/v2_depth_duration_MTurk/v2_DepthDuration_HTML.html#121,121,1707,781,1366,768,8-20-2022,10-4-42,27,depth_duration_stimuli/002784_2014-06-22_19-26-30_094959634447_rgbf000083-resize_3/002784_2014-06-22_19-26-30_094959634447_rgbf000083-resize_3-target.png,250,1.8046666666667,4.0,3635,245,meters,jsons/v1_VE250_randls_67_rotated.json,975586,1114356,43,Man
27,645407,DepthScenes,duration_manipulation_targetAtFixation,jsons/v1_VE250_randls_67_rotated.json,http://54.235.29.9/FacialAge/BNav_EC2/DepthDuration/v2_depth_duration_MTurk/v2_DepthDuration_HTML.html#121,121,1707,781,1366,768,8-20-2022,10-4-42,28,depth_duration_stimuli/002995_2014-06-15_12-31-26_094959634447_rgbf000150-resize_1/002995_2014-06-15_12-31-26_094959634447_rgbf000150-resize_1-target.png,250,3.8360000000000003,3.0,3619,248,meters,jsons/v1_VE250_randls_67_rotated.json,975586,1114356,43,Man
28,645407,DepthScenes,duration_manipulation_targetAtFixation,jsons/v1_VE250_randls_67_rotated.json,http://54.235.29.9/FacialAge/BNav_EC2/DepthDuration/v2_depth_duration_MTurk/v2_DepthDuration_HTML.html#121,121,1707,781,1366,768,8-20-2022,10-4-42,29,depth_duration_stimuli/002748_2014-06-22_19-07-22_094959634447_rgbf000078-resize_1/002748_2014-06-22_19-07-22_094959634447_rgbf000078-resize_1-target.png,250,4.6705,5.0,3936,237,meters,jsons/v1_VE250_randls_67_rotated.json,975586,1114356,43,Man
29,645407,DepthScenes,duration_manipulation_targetAtFixation,jsons/v1_VE250_randls_67_rotated.json,http://54.235.29.9/FacialAge/BNav_EC2/DepthDuration/v2_depth_duration_MTurk/v2_DepthDuration_HTML.html#121,121,1707,781,1366,768,8-20-2022,10-4-42,30,depth_duration_stimuli/002072_2014-06-24_21-48-06_260595134347_rgbf000115-resize_0/002072_2014-06-24_21-48-06_260595134347_rgbf000115-resize-original.jpg,250,4.702,0.0,3316,249,meters,jsons/v1_VE250_randls_67_rotated.json,975586,1114356,43,Man
30,645407,DepthScenes,duration_manipulation_targetAtFixation,jsons/v1_VE250_randls_67_rotated.json,http://54.235.29.9/FacialAge/BNav_EC2/DepthDuration/v2_depth_duration_MTurk/v2_DepthDuration_HTML.html#121,121,1707,781,1366,768,8-20-2022,10-4-42,31,depth_duration_stimuli/000677_2014-06-08_23-10-32_260595134347_rgbf000158-resize_6/000677_2014-06-08_23-10-32_260595134347_rgbf000158-resize_6-target.png,250,3.556,4.0,4338,260,meters,jsons/v1_VE250_randls_67_rotated.json,975586,1114356,43,Man
31,645407,DepthScenes,duration_manipulation_targetAtFixation,jsons/v1_VE250_randls_67_rotated.json,http://54.235.29.9/FacialAge/BNav_EC2/DepthDuration/v2_depth_duration_MTurk/v2_DepthDuration_HTML.html#121,121,1707,781,1366,768,8-20-2022,10-4-42,32,depth_duration_stimuli/001029_2014-06-08_13-17-57_260595134347_rgbf000065-resize_1/001029_2014-06-08_13-17-57_260595134347_rgbf000065-resize_1-target.png,250,3.0835,3.0,3305,264,meters,jsons/v1_VE250_randls_67_rotated.json,975586,1114356,43,Man
32,645407,DepthScenes,duration_manipulation_targetAtFixation,jsons/v1_VE250_randls_67_rotated.json,http://54.235.29.9/FacialAge/BNav_EC2/DepthDuration/v2_depth_duration_MTurk/v2_DepthDuration_HTML.html#121,121,1707,781,1366,768,8-20-2022,10-4-42,33,depth_duration_stimuli/002639_2014-06-24_14-51-37_094959634447_rgbf000074-resize_4/002639_2014-06-24_14-51-37_094959634447_rgbf000074-resize_4-target.png,250,4.0375,4.0,3615,244,meters,jsons/v1_VE250_randls_67_rotated.json,975586,1114356,43,Man
33,645407,DepthScenes,duration_manipulation_targetAtFixation,jsons/v1_VE250_randls_67_rotated.json,http://54.235.29.9/FacialAge/BNav_EC2/DepthDuration/v2_depth_duration_MTurk/v2_DepthDuration_HTML.html#121,121,1707,781,1366,768,8-20-2022,10-4-42,34,depth_duration_stimuli/003292_2014-05-14_21-53-49_094959634447_rgbf000100-resize_2/003292_2014-05-14_21-53-49_094959634447_rgbf000100-resize_2-target.png,250,3.4815,3.0,3579,248,meters,jsons/v1_VE250_randls_67_rotated.json,975586,1114356,43,Man
34,645407,DepthScenes,duration_manipulation_targetAtFixation,jsons/v1_VE250_randls_67_rotated.json,http://54.235.29.9/FacialAge/BNav_EC2/DepthDuration/v2_depth_duration_MTurk/v2_DepthDuration_HTML.html#121,121,1707,781,1366,768,8-20-2022,10-4-42,35,depth_duration_stimuli/001584_2014-06-20_11-07-43_260595134347_rgbf000002-resize_1/001584_2014-06-20_11-07-43_260595134347_rgbf000002-resize_1-target.png,250,3.53,4.0,3471,254,meters,jsons/v1_VE250_randls_67_rotated.json,975586,1114356,43,Man
35,645407,DepthScenes,duration_manipulation_targetAtFixation,jsons/v1_VE250_randls_67_rotated.json,http://54.235.29.9/FacialAge/BNav_EC2/DepthDuration/v2_depth_duration_MTurk/v2_DepthDuration_HTML.html#121,121,1707,781,1366,768,8-20-2022,10-4-42,36,depth_duration_stimuli/003621_2014-05-23_18-06-08_094959634447_rgbf000101-resize_1/003621_2014-05-23_18-06-08_094959634447_rgbf000101-resize_1-target.png,250,3.9835,5.0,3520,248,meters,jsons/v1_VE250_randls_67_rotated.json,975586,1114356,43,Man
36,645407,DepthScenes,duration_manipulation_targetAtFixation,jsons/v1_VE250_randls_67_rotated.json,http://54.235.29.9/FacialAge/BNav_EC2/DepthDuration/v2_depth_duration_MTurk/v2_DepthDuration_HTML.html#121,121,1707,781,1366,768,8-20-2022,10-4-42,37,depth_duration_stimuli/001516_2014-06-20_16-25-09_260595134347_rgbf000076-resize_2/001516_2014-06-20_16-25-09_260595134347_rgbf000076-resize_2-target.png,250,1.7445,4.0,4063,249,meters,jsons/v1_VE250_randls_67_rotated.json,975586,1114356,43,Man
37,645407,DepthScenes,duration_manipulation_targetAtFixation,jsons/v1_VE250_randls_67_rotated.json,http://54.235.29.9/FacialAge/BNav_EC2/DepthDuration/v2_depth_duration_MTurk/v2_DepthDuration_HTML.html#121,121,1707,781,1366,768,8-20-2022,10-4-42,38,depth_duration_stimuli/002118_2014-06-25_20-32-08_260595134347_rgbf000078-resize_1/002118_2014-06-25_20-32-08_260595134347_rgbf000078-resize_1-target.png,250,2.6460000000000004,3.0,43763,251,meters,jsons/v1_VE250_randls_67_rotated.json,975586,1114356,43,Man
38,645407,DepthScenes,duration_manipulation_targetAtFixation,jsons/v1_VE250_randls_67_rotated.json,http://54.235.29.9/FacialAge/BNav_EC2/DepthDuration/v2_depth_duration_MTurk/v2_DepthDuration_HTML.html#121,121,1707,781,1366,768,8-20-2022,10-4-42,39,depth_duration_stimuli/001815_2014-06-26_20-52-55_260595134347_rgbf000020-resize_0/001815_2014-06-26_20-52-55_260595134347_rgbf000020-resize_0-target.png,250,3.3865,4.0,4602,238,meters,jsons/v1_VE250_randls_67_rotated.json,975586,1114356,43,Man
39,645407,DepthScenes,duration_manipulation_targetAtFixation,jsons/v1_VE250_randls_67_rotated.json,http://54.235.29.9/FacialAge/BNav_EC2/DepthDuration/v2_depth_duration_MTurk/v2_DepthDuration_HTML.html#121,121,1707,781,1366,768,8-20-2022,10-4-42,40,depth_duration_stimuli/001808_2014-06-26_20-50-58_260595134347_rgbf000029-resize_1/001808_2014-06-26_20-50-58_260595134347_rgbf000029-resize_1-target.png,250,4.249,5.0,3776,256,meters,jsons/v1_VE250_randls_67_rotated.json,975586,1114356,43,Man
40,645407,DepthScenes,duration_manipulation_targetAtFixation,jsons/v1_VE250_randls_67_rotated.json,http://54.235.29.9/FacialAge/BNav_EC2/DepthDuration/v2_depth_duration_MTurk/v2_DepthDuration_HTML.html#121,121,1707,781,1366,768,8-20-2022,10-4-42,41,depth_duration_stimuli/001235_2014-06-17_16-37-36_260595134347_rgbf000084-resize_4/001235_2014-06-17_16-37-36_260595134347_rgbf000084-resize_4-target.png,250,3.6605,3.0,3552,250,meters,jsons/v1_VE250_randls_67_rotated.json,975586,1114356,43,Man
41,645407,DepthScenes,duration_manipulation_targetAtFixation,jsons/v1_VE250_randls_67_rotated.json,http://54.235.29.9/FacialAge/BNav_EC2/DepthDuration/v2_depth_duration_MTurk/v2_DepthDuration_HTML.html#121,121,1707,781,1366,768,8-20-2022,10-4-42,42,depth_duration_stimuli/000788_2014-06-08_22-34-36_260595134347_rgbf000131-resize_1/000788_2014-06-08_22-34-36_260595134347_rgbf000131-resize_1-target.png,250,3.359,4.0,3594,251,meters,jsons/v1_VE250_randls_67_rotated.json,975586,1114356,43,Man
42,645407,DepthScenes,duration_manipulation_targetAtFixation,jsons/v1_VE250_randls_67_rotated.json,http://54.235.29.9/FacialAge/BNav_EC2/DepthDuration/v2_depth_duration_MTurk/v2_DepthDuration_HTML.html#121,121,1707,781,1366,768,8-20-2022,10-4-42,43,depth_duration_stimuli/002568_2014-06-24_13-59-21_094959634447_rgbf000062-resize_4/002568_2014-06-24_13-59-21_094959634447_rgbf000062-resize_4-target.png,250,3.015,5.0,3692,249,meters,jsons/v1_VE250_randls_67_rotated.json,975586,1114356,43,Man
43,645407,DepthScenes,duration_manipulation_targetAtFixation,jsons/v1_VE250_randls_67_rotated.json,http://54.235.29.9/FacialAge/BNav_EC2/DepthDuration/v2_depth_duration_MTurk/v2_DepthDuration_HTML.html#121,121,1707,781,1366,768,8-20-2022,10-4-42,44,depth_duration_stimuli/003492_2014-05-21_15-50-55_094959634447_rgbf000828-resize_1/003492_2014-05-21_15-50-55_094959634447_rgbf000828-resize_1-target.png,250,4.06875,3.0,3344,249,meters,jsons/v1_VE250_randls_67_rotated.json,975586,1114356,43,Man
44,645407,DepthScenes,duration_manipulation_targetAtFixation,jsons/v1_VE250_randls_67_rotated.json,http://54.235.29.9/FacialAge/BNav_EC2/DepthDuration/v2_depth_duration_MTurk/v2_DepthDuration_HTML.html#121,121,1707,781,1366,768,8-20-2022,10-4-42,45,depth_duration_stimuli/000457_2014-06-08_16-52-43_260595134347_rgbf000199-resize_1/000457_2014-06-08_16-52-43_260595134347_rgbf000199-resize_1-target.png,250,3.6489999999999996,5.0,3752,244,meters,jsons/v1_VE250_randls_67_rotated.json,975586,1114356,43,Man
45,645407,DepthScenes,duration_manipulation_targetAtFixation,jsons/v1_VE250_randls_67_rotated.json,http://54.235.29.9/FacialAge/BNav_EC2/DepthDuration/v2_depth_duration_MTurk/v2_DepthDuration_HTML.html#121,121,1707,781,1366,768,8-20-2022,10-4-42,46,depth_duration_stimuli/000929_2014-06-09_16-33-19_260595134347_rgbf000139-resize_0/000929_2014-06-09_16-33-19_260595134347_rgbf000139-resize_0-target.png,250,2.8680000000000003,5.0,3976,248,meters,jsons/v1_VE250_randls_67_rotated.json,975586,1114356,43,Man
46,645407,DepthScenes,duration_manipulation_targetAtFixation,jsons/v1_VE250_randls_67_rotated.json,http://54.235.29.9/FacialAge/BNav_EC2/DepthDuration/v2_depth_duration_MTurk/v2_DepthDuration_HTML.html#121,121,1707,781,1366,768,8-20-2022,10-4-42,47,depth_duration_stimuli/000556_2014-06-09_22-42-56_260595134347_rgbf000214-resize_1/000556_2014-06-09_22-42-56_260595134347_rgbf000214-resize_1-target.png,250,4.8415,4.0,3185,254,meters,jsons/v1_VE250_randls_67_rotated.json,975586,1114356,43,Man
47,645407,DepthScenes,duration_manipulation_targetAtFixation,jsons/v1_VE250_randls_67_rotated.json,http://54.235.29.9/FacialAge/BNav_EC2/DepthDuration/v2_depth_duration_MTurk/v2_DepthDuration_HTML.html#121,121,1707,781,1366,768,8-20-2022,10-4-42,48,depth_duration_stimuli/001158_2014-06-17_15-32-16_260595134347_rgbf000138-resize_2/001158_2014-06-17_15-32-16_260595134347_rgbf000138-resize_2-target.png,250,4.5315,5.0,3258,248,meters,jsons/v1_VE250_randls_67_rotated.json,975586,1114356,43,Man
48,645407,DepthScenes,duration_manipulation_targetAtFixation,jsons/v1_VE250_randls_67_rotated.json,http://54.235.29.9/FacialAge/BNav_EC2/DepthDuration/v2_depth_duration_MTurk/v2_DepthDuration_HTML.html#121,121,1707,781,1366,768,8-20-2022,10-4-42,49,depth_duration_stimuli/001170_2014-06-17_15-43-44_260595134347_rgbf000096-resize_6/001170_2014-06-17_15-43-44_260595134347_rgbf000096-resize-original.jpg,250,1.1909999999999998,6.0,3514,246,meters,jsons/v1_VE250_randls_67_rotated.json,975586,1114356,43,Man
49,645407,DepthScenes,duration_manipulation_targetAtFixation,jsons/v1_VE250_randls_67_rotated.json,http://54.235.29.9/FacialAge/BNav_EC2/DepthDuration/v2_depth_duration_MTurk/v2_DepthDuration_HTML.html#121,121,1707,781,1366,768,8-20-2022,10-4-42,50,depth_duration_stimuli/000103_2014-05-14_22-01-17_260595134347_rgbf000152-resize_5/000103_2014-05-14_22-01-17_260595134347_rgbf000152-resize_5-target.png,250,1.993,4.0,3723,244,meters,jsons/v1_VE250_randls_67_rotated.json,975586,1114356,43,Man
50,645407,DepthScenes,duration_manipulation_targetAtFixation,jsons/v1_VE250_randls_67_rotated.json,http://54.235.29.9/FacialAge/BNav_EC2/DepthDuration/v2_depth_duration_MTurk/v2_DepthDuration_HTML.html#121,121,1707,781,1366,768,8-20-2022,10-4-42,51,depth_duration_stimuli/001555_2014-06-20_17-12-10_260595134347_rgbf000065-resize_4/001555_2014-06-20_17-12-10_260595134347_rgbf000065-resize_4-target.png,250,1.633,0.0,3362,260,meters,jsons/v1_VE250_randls_67_rotated.json,975586,1114356,43,Man
51,645407,DepthScenes,duration_manipulation_targetAtFixation,jsons/v1_VE250_randls_67_rotated.json,http://54.235.29.9/FacialAge/BNav_EC2/DepthDuration/v2_depth_duration_MTurk/v2_DepthDuration_HTML.html#121,121,1707,781,1366,768,8-20-2022,10-4-42,52,depth_duration_stimuli/003083_2014-06-15_15-21-03_094959634447_rgbf000063-resize_1/003083_2014-06-15_15-21-03_094959634447_rgbf000063-resize_1-target.png,250,4.1405,5.0,4022,243,meters,jsons/v1_VE250_randls_67_rotated.json,975586,1114356,43,Man
52,645407,DepthScenes,duration_manipulation_targetAtFixation,jsons/v1_VE250_randls_67_rotated.json,http://54.235.29.9/FacialAge/BNav_EC2/DepthDuration/v2_depth_duration_MTurk/v2_DepthDuration_HTML.html#121,121,1707,781,1366,768,8-20-2022,10-4-42,53,depth_duration_stimuli/000486_2014-06-09_20-47-20_260595134347_rgbf000143-resize_2/000486_2014-06-09_20-47-20_260595134347_rgbf000143-resize_2-target.png,250,4.8325,3.0,3886,251,meters,jsons/v1_VE250_randls_67_rotated.json,975586,1114356,43,Man
53,645407,DepthScenes,duration_manipulation_targetAtFixation,jsons/v1_VE250_randls_67_rotated.json,http://54.235.29.9/FacialAge/BNav_EC2/DepthDuration/v2_depth_duration_MTurk/v2_DepthDuration_HTML.html#121,121,1707,781,1366,768,8-20-2022,10-4-42,54,depth_duration_stimuli/000635_2014-06-08_16-38-42_260595134347_rgbf000106-resize_1/000635_2014-06-08_16-38-42_260595134347_rgbf000106-resize_1-target.png,250,2.074,3.0,15015,255,meters,jsons/v1_VE250_randls_67_rotated.json,975586,1114356,43,Man
54,645407,DepthScenes,duration_manipulation_targetAtFixation,jsons/v1_VE250_randls_67_rotated.json,http://54.235.29.9/FacialAge/BNav_EC2/DepthDuration/v2_depth_duration_MTurk/v2_DepthDuration_HTML.html#121,121,1707,781,1366,768,8-20-2022,10-4-42,55,depth_duration_stimuli/002279_2014-06-28_18-55-32_260595134347_rgbf000040-resize_5/002279_2014-06-28_18-55-32_260595134347_rgbf000040-resize_5-target.png,250,1.5043333333333,4.0,4295,245,meters,jsons/v1_VE250_randls_67_rotated.json,975586,1114356,43,Man
55,645407,DepthScenes,duration_manipulation_targetAtFixation,jsons/v1_VE250_randls_67_rotated.json,http://54.235.29.9/FacialAge/BNav_EC2/DepthDuration/v2_depth_duration_MTurk/v2_DepthDuration_HTML.html#121,121,1707,781,1366,768,8-20-2022,10-4-42,56,depth_duration_stimuli/002875_2014-06-01_15-19-00_094959634447_rgbf000151-resize_1/002875_2014-06-01_15-19-00_094959634447_rgbf000151-resize_1-target.png,250,1.9675,5.0,4378,255,meters,jsons/v1_VE250_randls_67_rotated.json,975586,1114356,43,Man
56,645407,DepthScenes,duration_manipulation_targetAtFixation,jsons/v1_VE250_randls_67_rotated.json,http://54.235.29.9/FacialAge/BNav_EC2/DepthDuration/v2_depth_duration_MTurk/v2_DepthDuration_HTML.html#121,121,1707,781,1366,768,8-20-2022,10-4-42,57,depth_duration_stimuli/001011_2014-06-08_23-18-54_260595134347_rgbf000044-resize_4/001011_2014-06-08_23-18-54_260595134347_rgbf000044-resize_4-target.png,250,2.4730000000000003,3.0,80019,248,meters,jsons/v1_VE250_randls_67_rotated.json,975586,1114356,43,Man
57,645407,DepthScenes,duration_manipulation_targetAtFixation,jsons/v1_VE250_randls_67_rotated.json,http://54.235.29.9/FacialAge/BNav_EC2/DepthDuration/v2_depth_duration_MTurk/v2_DepthDuration_HTML.html#121,121,1707,781,1366,768,8-20-2022,10-4-42,58,depth_duration_stimuli/002750_2014-06-22_19-08-03_094959634447_rgbf000094-resize_4/002750_2014-06-22_19-08-03_094959634447_rgbf000094-resize_4-target.png,250,2.354,5.0,4573,250,meters,jsons/v1_VE250_randls_67_rotated.json,975586,1114356,43,Man
58,645407,DepthScenes,duration_manipulation_targetAtFixation,jsons/v1_VE250_randls_67_rotated.json,http://54.235.29.9/FacialAge/BNav_EC2/DepthDuration/v2_depth_duration_MTurk/v2_DepthDuration_HTML.html#121,121,1707,781,1366,768,8-20-2022,10-4-42,59,depth_duration_stimuli/002549_2014-06-24_13-41-39_094959634447_rgbf000022-resize_3/002549_2014-06-24_13-41-39_094959634447_rgbf000022-resize_3-target.png,250,1.476,0.0,4517,250,meters,jsons/v1_VE250_randls_67_rotated.json,975586,1114356,43,Man
59,645407,DepthScenes,duration_manipulation_targetAtFixation,jsons/v1_VE250_randls_67_rotated.json,http://54.235.29.9/FacialAge/BNav_EC2/DepthDuration/v2_depth_duration_MTurk/v2_DepthDuration_HTML.html#121,121,1707,781,1366,768,8-20-2022,10-4-42,60,depth_duration_stimuli/003423_2014-05-21_10-23-26_094959634447_rgbf002665-resize_2/003423_2014-05-21_10-23-26_094959634447_rgbf002665-resize_2-target.png,250,3.2575,5.0,4261,251,meters,jsons/v1_VE250_randls_67_rotated.json,975586,1114356,43,Man
60,645407,DepthScenes,duration_manipulation_targetAtFixation,jsons/v1_VE250_randls_67_rotated.json,http://54.235.29.9/FacialAge/BNav_EC2/DepthDuration/v2_depth_duration_MTurk/v2_DepthDuration_HTML.html#121,121,1707,781,1366,768,8-20-2022,10-4-42,61,depth_duration_stimuli/002905_2014-06-03_18-04-43_094959634447_rgbf000151-resize_2/002905_2014-06-03_18-04-43_094959634447_rgbf000151-resize_2-target.png,250,2.0295,4.0,3955,260,meters,jsons/v1_VE250_randls_67_rotated.json,975586,1114356,43,Man
61,645407,DepthScenes,duration_manipulation_targetAtFixation,jsons/v1_VE250_randls_67_rotated.json,http://54.235.29.9/FacialAge/BNav_EC2/DepthDuration/v2_depth_duration_MTurk/v2_DepthDuration_HTML.html#121,121,1707,781,1366,768,8-20-2022,10-4-42,62,depth_duration_stimuli/002425_2014-06-28_20-27-29_260595134347_rgbf000031-resize_8/002425_2014-06-28_20-27-29_260595134347_rgbf000031-resize_8-target.png,250,3.8960000000000004,3.0,4385,255,meters,jsons/v1_VE250_randls_67_rotated.json,975586,1114356,43,Man
62,645407,DepthScenes,duration_manipulation_targetAtFixation,jsons/v1_VE250_randls_67_rotated.json,http://54.235.29.9/FacialAge/BNav_EC2/DepthDuration/v2_depth_duration_MTurk/v2_DepthDuration_HTML.html#121,121,1707,781,1366,768,8-20-2022,10-4-42,63,depth_duration_stimuli/000642_2014-06-08_16-59-25_260595134347_rgbf000098-resize_2/000642_2014-06-08_16-59-25_260595134347_rgbf000098-resize_2-target.png,250,2.8815,2.0,4596,248,meters,jsons/v1_VE250_randls_67_rotated.json,975586,1114356,43,Man
63,645407,DepthScenes,duration_manipulation_targetAtFixation,jsons/v1_VE250_randls_67_rotated.json,http://54.235.29.9/FacialAge/BNav_EC2/DepthDuration/v2_depth_duration_MTurk/v2_DepthDuration_HTML.html#121,121,1707,781,1366,768,8-20-2022,10-4-42,64,depth_duration_stimuli/001571_2014-06-20_17-21-32_260595134347_rgbf000089-resize_1/001571_2014-06-20_17-21-32_260595134347_rgbf000089-resize_1-target.png,250,1.86,2.0,5369,234,meters,jsons/v1_VE250_randls_67_rotated.json,975586,1114356,43,Man
64,645407,DepthScenes,duration_manipulation_targetAtFixation,jsons/v1_VE250_randls_67_rotated.json,http://54.235.29.9/FacialAge/BNav_EC2/DepthDuration/v2_depth_duration_MTurk/v2_DepthDuration_HTML.html#121,121,1707,781,1366,768,8-20-2022,10-4-42,65,depth_duration_stimuli/002272_2014-06-28_18-53-56_260595134347_rgbf000067-resize_2/002272_2014-06-28_18-53-56_260595134347_rgbf000067-resize_2-target.png,250,1.138,3.0,3687,239,meters,jsons/v1_VE250_randls_67_rotated.json,975586,1114356,43,Man
65,645407,DepthScenes,duration_manipulation_targetAtFixation,jsons/v1_VE250_randls_67_rotated.json,http://54.235.29.9/FacialAge/BNav_EC2/DepthDuration/v2_depth_duration_MTurk/v2_DepthDuration_HTML.html#121,121,1707,781,1366,768,8-20-2022,10-4-42,66,depth_duration_stimuli/001540_2014-06-20_17-01-05_260595134347_rgbf000086-resize_2/001540_2014-06-20_17-01-05_260595134347_rgbf000086-resize-original.jpg,250,1.459,0.0,4241,249,meters,jsons/v1_VE250_randls_67_rotated.json,975586,1114356,43,Man
66,645407,DepthScenes,duration_manipulation_targetAtFixation,jsons/v1_VE250_randls_67_rotated.json,http://54.235.29.9/FacialAge/BNav_EC2/DepthDuration/v2_depth_duration_MTurk/v2_DepthDuration_HTML.html#121,121,1707,781,1366,768,8-20-2022,10-4-42,67,depth_duration_stimuli/002949_2014-06-26_15-57-42_094959634447_rgbf000079-resize_1/002949_2014-06-26_15-57-42_094959634447_rgbf000079-resize_1-target.png,250,1.8915,3.0,4892,255,meters,jsons/v1_VE250_randls_67_rotated.json,975586,1114356,43,Man
67,645407,DepthScenes,duration_manipulation_targetAtFixation,jsons/v1_VE250_randls_67_rotated.json,http://54.235.29.9/FacialAge/BNav_EC2/DepthDuration/v2_depth_duration_MTurk/v2_DepthDuration_HTML.html#121,121,1707,781,1366,768,8-20-2022,10-4-42,68,depth_duration_stimuli/000522_2014-06-08_13-35-06_260595134347_rgbf000244-resize_1/000522_2014-06-08_13-35-06_260595134347_rgbf000244-resize_1-target.png,250,2.3715,3.0,3745,249,meters,jsons/v1_VE250_randls_67_rotated.json,975586,1114356,43,Man
68,645407,DepthScenes,duration_manipulation_targetAtFixation,jsons/v1_VE250_randls_67_rotated.json,http://54.235.29.9/FacialAge/BNav_EC2/DepthDuration/v2_depth_duration_MTurk/v2_DepthDuration_HTML.html#121,121,1707,781,1366,768,8-20-2022,10-4-42,69,depth_duration_stimuli/002444_2014-06-28_20-32-08_260595134347_rgbf000027-resize_0/002444_2014-06-28_20-32-08_260595134347_rgbf000027-resize_0-target.png,250,4.388999999999999,4.0,3954,239,meters,jsons/v1_VE250_randls_67_rotated.json,975586,1114356,43,Man
69,645407,DepthScenes,duration_manipulation_targetAtFixation,jsons/v1_VE250_randls_67_rotated.json,http://54.235.29.9/FacialAge/BNav_EC2/DepthDuration/v2_depth_duration_MTurk/v2_DepthDuration_HTML.html#121,121,1707,781,1366,768,8-20-2022,10-4-42,70,depth_duration_stimuli/000436_2014-06-09_22-25-11_260595134347_rgbf000137-resize_1/000436_2014-06-09_22-25-11_260595134347_rgbf000137-resize_1-target.png,250,4.0705,4.0,3470,253,meters,jsons/v1_VE250_randls_67_rotated.json,975586,1114356,43,Man
70,645407,DepthScenes,duration_manipulation_targetAtFixation,jsons/v1_VE250_randls_67_rotated.json,http://54.235.29.9/FacialAge/BNav_EC2/DepthDuration/v2_depth_duration_MTurk/v2_DepthDuration_HTML.html#121,121,1707,781,1366,768,8-20-2022,10-4-42,71,depth_duration_stimuli/002953_2014-06-08_17-32-18_094959634447_rgbf000059-resize_5/002953_2014-06-08_17-32-18_094959634447_rgbf000059-resize_5-target.png,250,1.551,3.0,3670,247,meters,jsons/v1_VE250_randls_67_rotated.json,975586,1114356,43,Man
71,645407,DepthScenes,duration_manipulation_targetAtFixation,jsons/v1_VE250_randls_67_rotated.json,http://54.235.29.9/FacialAge/BNav_EC2/DepthDuration/v2_depth_duration_MTurk/v2_DepthDuration_HTML.html#121,121,1707,781,1366,768,8-20-2022,10-4-42,72,depth_duration_stimuli/000878_2014-06-08_22-52-45_260595134347_rgbf000045-resize_2/000878_2014-06-08_22-52-45_260595134347_rgbf000045-resize_2-target.png,250,2.092,0.0,34538,250,meters,jsons/v1_VE250_randls_67_rotated.json,975586,1114356,43,Man
72,645407,DepthScenes,duration_manipulation_targetAtFixation,jsons/v1_VE250_randls_67_rotated.json,http://54.235.29.9/FacialAge/BNav_EC2/DepthDuration/v2_depth_duration_MTurk/v2_DepthDuration_HTML.html#121,121,1707,781,1366,768,8-20-2022,10-4-42,73,depth_duration_stimuli/000691_2014-06-08_13-08-50_260595134347_rgbf000132-resize_3/000691_2014-06-08_13-08-50_260595134347_rgbf000132-resize_3-target.png,250,4.1530000000000005,4.0,3679,258,meters,jsons/v1_VE250_randls_67_rotated.json,975586,1114356,43,Man
73,645407,DepthScenes,duration_manipulation_targetAtFixation,jsons/v1_VE250_randls_67_rotated.json,http://54.235.29.9/FacialAge/BNav_EC2/DepthDuration/v2_depth_duration_MTurk/v2_DepthDuration_HTML.html#121,121,1707,781,1366,768,8-20-2022,10-4-42,74,depth_duration_stimuli/002213_2014-06-28_18-37-58_260595134347_rgbf000055-resize_1/002213_2014-06-28_18-37-58_260595134347_rgbf000055-resize_1-target.png,250,3.62,5.0,3471,256,meters,jsons/v1_VE250_randls_67_rotated.json,975586,1114356,43,Man
74,645407,DepthScenes,duration_manipulation_targetAtFixation,jsons/v1_VE250_randls_67_rotated.json,http://54.235.29.9/FacialAge/BNav_EC2/DepthDuration/v2_depth_duration_MTurk/v2_DepthDuration_HTML.html#121,121,1707,781,1366,768,8-20-2022,10-4-42,75,depth_duration_stimuli/003338_2014-05-20_11-01-23_094959634447_rgbf000051-resize_6/003338_2014-05-20_11-01-23_094959634447_rgbf000051-resize_6-target.png,250,1.693,3.0,5272,261,meters,jsons/v1_VE250_randls_67_rotated.json,975586,1114356,43,Man
75,645407,DepthScenes,duration_manipulation_targetAtFixation,jsons/v1_VE250_randls_67_rotated.json,http://54.235.29.9/FacialAge/BNav_EC2/DepthDuration/v2_depth_duration_MTurk/v2_DepthDuration_HTML.html#121,121,1707,781,1366,768,8-20-2022,10-4-42,76,depth_duration_stimuli/002509_2014-06-24_13-19-22_094959634447_rgbf000077-resize_0/002509_2014-06-24_13-19-22_094959634447_rgbf000077-resize_0-target.png,250,1.3065,4.0,3425,249,meters,jsons/v1_VE250_randls_67_rotated.json,975586,1114356,43,Man
76,645407,DepthScenes,duration_manipulation_targetAtFixation,jsons/v1_VE250_randls_67_rotated.json,http://54.235.29.9/FacialAge/BNav_EC2/DepthDuration/v2_depth_duration_MTurk/v2_DepthDuration_HTML.html#121,121,1707,781,1366,768,8-20-2022,10-4-42,77,depth_duration_stimuli/001617_2014-06-20_11-35-32_260595134347_rgbf000066-resize_1/001617_2014-06-20_11-35-32_260595134347_rgbf000066-resize_1-target.png,250,3.7910000000000004,3.0,4298,250,meters,jsons/v1_VE250_randls_67_rotated.json,975586,1114356,43,Man
77,645407,DepthScenes,duration_manipulation_targetAtFixation,jsons/v1_VE250_randls_67_rotated.json,http://54.235.29.9/FacialAge/BNav_EC2/DepthDuration/v2_depth_duration_MTurk/v2_DepthDuration_HTML.html#121,121,1707,781,1366,768,8-20-2022,10-4-42,78,depth_duration_stimuli/001806_2014-06-26_20-50-20_260595134347_rgbf000091-resize_1/001806_2014-06-26_20-50-20_260595134347_rgbf000091-resize_1-target.png,250,2.7305,4.0,3464,251,meters,jsons/v1_VE250_randls_67_rotated.json,975586,1114356,43,Man
78,645407,DepthScenes,duration_manipulation_targetAtFixation,jsons/v1_VE250_randls_67_rotated.json,http://54.235.29.9/FacialAge/BNav_EC2/DepthDuration/v2_depth_duration_MTurk/v2_DepthDuration_HTML.html#121,121,1707,781,1366,768,8-20-2022,10-4-42,79,depth_duration_stimuli/000665_2014-06-09_20-42-35_260595134347_rgbf000110-resize_1/000665_2014-06-09_20-42-35_260595134347_rgbf000110-resize_1-target.png,250,3.057,3.0,4849,250,meters,jsons/v1_VE250_randls_67_rotated.json,975586,1114356,43,Man
79,645407,DepthScenes,duration_manipulation_targetAtFixation,jsons/v1_VE250_randls_67_rotated.json,http://54.235.29.9/FacialAge/BNav_EC2/DepthDuration/v2_depth_duration_MTurk/v2_DepthDuration_HTML.html#121,121,1707,781,1366,768,8-20-2022,10-4-42,80,depth_duration_stimuli/001150_2014-06-17_15-27-34_260595134347_rgbf000108-resize_2/001150_2014-06-17_15-27-34_260595134347_rgbf000108-resize_2-target.png,250,4.0325,3.0,3748,254,meters,jsons/v1_VE250_randls_67_rotated.json,975586,1114356,43,Man
80,645407,DepthScenes,duration_manipulation_targetAtFixation,jsons/v1_VE250_randls_67_rotated.json,http://54.235.29.9/FacialAge/BNav_EC2/DepthDuration/v2_depth_duration_MTurk/v2_DepthDuration_HTML.html#121,121,1707,781,1366,768,8-20-2022,10-4-42,81,depth_duration_stimuli/001214_2014-06-17_16-13-55_260595134347_rgbf000111-resize_0/001214_2014-06-17_16-13-55_260595134347_rgbf000111-resize_0-target.png,250,2.6505,4.0,3855,247,meters,jsons/v1_VE250_randls_67_rotated.json,975586,1114356,43,Man
81,645407,DepthScenes,duration_manipulation_targetAtFixation,jsons/v1_VE250_randls_67_rotated.json,http://54.235.29.9/FacialAge/BNav_EC2/DepthDuration/v2_depth_duration_MTurk/v2_DepthDuration_HTML.html#121,121,1707,781,1366,768,8-20-2022,10-4-42,82,depth_duration_stimuli/000810_2014-06-08_17-20-01_260595134347_rgbf000105-resize_0/000810_2014-06-08_17-20-01_260595134347_rgbf000105-resize_0-target.png,250,1.4865,4.0,19023,244,meters,jsons/v1_VE250_randls_67_rotated.json,975586,1114356,43,Man
82,645407,DepthScenes,duration_manipulation_targetAtFixation,jsons/v1_VE250_randls_67_rotated.json,http://54.235.29.9/FacialAge/BNav_EC2/DepthDuration/v2_depth_duration_MTurk/v2_DepthDuration_HTML.html#121,121,1707,781,1366,768,8-20-2022,10-4-42,83,depth_duration_stimuli/000749_2014-06-08_21-55-06_260595134347_rgbf000070-resize_2/000749_2014-06-08_21-55-06_260595134347_rgbf000070-resize_2-target.png,250,2.331,4.0,4072,254,meters,jsons/v1_VE250_randls_67_rotated.json,975586,1114356,43,Man
83,645407,DepthScenes,duration_manipulation_targetAtFixation,jsons/v1_VE250_randls_67_rotated.json,http://54.235.29.9/FacialAge/BNav_EC2/DepthDuration/v2_depth_duration_MTurk/v2_DepthDuration_HTML.html#121,121,1707,781,1366,768,8-20-2022,10-4-42,84,depth_duration_stimuli/002788_2014-06-22_19-36-03_094959634447_rgbf000088-resize_2/002788_2014-06-22_19-36-03_094959634447_rgbf000088-resize_2-target.png,250,1.6465,3.0,4099,241,meters,jsons/v1_VE250_randls_67_rotated.json,975586,1114356,43,Man
84,645407,DepthScenes,duration_manipulation_targetAtFixation,jsons/v1_VE250_randls_67_rotated.json,http://54.235.29.9/FacialAge/BNav_EC2/DepthDuration/v2_depth_duration_MTurk/v2_DepthDuration_HTML.html#121,121,1707,781,1366,768,8-20-2022,10-4-42,85,depth_duration_stimuli/000780_2014-06-08_22-28-29_260595134347_rgbf000126-resize_1/000780_2014-06-08_22-28-29_260595134347_rgbf000126-resize_1-target.png,250,3.3825,4.0,4024,252,meters,jsons/v1_VE250_randls_67_rotated.json,975586,1114356,43,Man
85,645407,DepthScenes,duration_manipulation_targetAtFixation,jsons/v1_VE250_randls_67_rotated.json,http://54.235.29.9/FacialAge/BNav_EC2/DepthDuration/v2_depth_duration_MTurk/v2_DepthDuration_HTML.html#121,121,1707,781,1366,768,8-20-2022,10-4-42,86,depth_duration_stimuli/002445_2014-06-28_20-32-16_260595134347_rgbf000029-resize_4/002445_2014-06-28_20-32-16_260595134347_rgbf000029-resize_4-target.png,250,2.5315,4.0,3947,258,meters,jsons/v1_VE250_randls_67_rotated.json,975586,1114356,43,Man
86,645407,DepthScenes,duration_manipulation_targetAtFixation,jsons/v1_VE250_randls_67_rotated.json,http://54.235.29.9/FacialAge/BNav_EC2/DepthDuration/v2_depth_duration_MTurk/v2_DepthDuration_HTML.html#121,121,1707,781,1366,768,8-20-2022,10-4-42,87,depth_duration_stimuli/001450_2014-06-19_17-02-03_260595134347_rgbf000203-resize_4/001450_2014-06-19_17-02-03_260595134347_rgbf000203-resize_4-target.png,250,4.0106666666667,4.0,4356,251,meters,jsons/v1_VE250_randls_67_rotated.json,975586,1114356,43,Man
87,645407,DepthScenes,duration_manipulation_targetAtFixation,jsons/v1_VE250_randls_67_rotated.json,http://54.235.29.9/FacialAge/BNav_EC2/DepthDuration/v2_depth_duration_MTurk/v2_DepthDuration_HTML.html#121,121,1707,781,1366,768,8-20-2022,10-4-42,88,depth_duration_stimuli/001449_2014-06-19_17-01-27_260595134347_rgbf000116-resize_2/001449_2014-06-19_17-01-27_260595134347_rgbf000116-resize_2-target.png,250,3.452,3.0,4123,254,meters,jsons/v1_VE250_randls_67_rotated.json,975586,1114356,43,Man
88,645407,DepthScenes,duration_manipulation_targetAtFixation,jsons/v1_VE250_randls_67_rotated.json,http://54.235.29.9/FacialAge/BNav_EC2/DepthDuration/v2_depth_duration_MTurk/v2_DepthDuration_HTML.html#121,121,1707,781,1366,768,8-20-2022,10-4-42,89,depth_duration_stimuli/002758_2014-06-22_19-11-20_094959634447_rgbf000128-resize_1/002758_2014-06-22_19-11-20_094959634447_rgbf000128-resize_1-target.png,250,2.555,3.0,3473,257,meters,jsons/v1_VE250_randls_67_rotated.json,975586,1114356,43,Man
89,645407,DepthScenes,duration_manipulation_targetAtFixation,jsons/v1_VE250_randls_67_rotated.json,http://54.235.29.9/FacialAge/BNav_EC2/DepthDuration/v2_depth_duration_MTurk/v2_DepthDuration_HTML.html#121,121,1707,781,1366,768,8-20-2022,10-4-42,90,depth_duration_stimuli/002630_2014-06-24_14-47-50_094959634447_rgbf000055-resize_1/002630_2014-06-24_14-47-50_094959634447_rgbf000055-resize_1-target.png,250,3.0095,4.0,3349,250,meters,jsons/v1_VE250_randls_67_rotated.json,975586,1114356,43,Man
90,645407,DepthScenes,duration_manipulation_targetAtFixation,jsons/v1_VE250_randls_67_rotated.json,http://54.235.29.9/FacialAge/BNav_EC2/DepthDuration/v2_depth_duration_MTurk/v2_DepthDuration_HTML.html#121,121,1707,781,1366,768,8-20-2022,10-4-42,91,depth_duration_stimuli/002545_2014-06-24_13-38-53_094959634447_rgbf000080-resize_4/002545_2014-06-24_13-38-53_094959634447_rgbf000080-resize_4-target.png,250,1.9205,4.0,3823,245,meters,jsons/v1_VE250_randls_67_rotated.json,975586,1114356,43,Man
91,645407,DepthScenes,duration_manipulation_targetAtFixation,jsons/v1_VE250_randls_67_rotated.json,http://54.235.29.9/FacialAge/BNav_EC2/DepthDuration/v2_depth_duration_MTurk/v2_DepthDuration_HTML.html#121,121,1707,781,1366,768,8-20-2022,10-4-42,92,depth_duration_stimuli/001092_2014-06-15_17-34-58_260595134347_rgbf000171-resize_3/001092_2014-06-15_17-34-58_260595134347_rgbf000171-resize_3-target.png,250,2.6935,5.0,4308,254,meters,jsons/v1_VE250_randls_67_rotated.json,975586,1114356,43,Man
92,645407,DepthScenes,duration_manipulation_targetAtFixation,jsons/v1_VE250_randls_67_rotated.json,http://54.235.29.9/FacialAge/BNav_EC2/DepthDuration/v2_depth_duration_MTurk/v2_DepthDuration_HTML.html#121,121,1707,781,1366,768,8-20-2022,10-4-42,93,depth_duration_stimuli/001392_2014-06-19_16-07-59_260595134347_rgbf000046-resize_1/001392_2014-06-19_16-07-59_260595134347_rgbf000046-resize_1-target.png,250,4.135,4.0,3523,251,meters,jsons/v1_VE250_randls_67_rotated.json,975586,1114356,43,Man
93,645407,DepthScenes,duration_manipulation_targetAtFixation,jsons/v1_VE250_randls_67_rotated.json,http://54.235.29.9/FacialAge/BNav_EC2/DepthDuration/v2_depth_duration_MTurk/v2_DepthDuration_HTML.html#121,121,1707,781,1366,768,8-20-2022,10-4-42,94,depth_duration_stimuli/001570_2014-06-20_17-21-09_260595134347_rgbf000135-resize_4/001570_2014-06-20_17-21-09_260595134347_rgbf000135-resize_4-target.png,250,4.467,3.0,3342,247,meters,jsons/v1_VE250_randls_67_rotated.json,975586,1114356,43,Man
94,645407,DepthScenes,duration_manipulation_targetAtFixation,jsons/v1_VE250_randls_67_rotated.json,http://54.235.29.9/FacialAge/BNav_EC2/DepthDuration/v2_depth_duration_MTurk/v2_DepthDuration_HTML.html#121,121,1707,781,1366,768,8-20-2022,10-4-42,95,depth_duration_stimuli/003490_2014-05-21_15-50-11_094959634447_rgbf000101-resize_3/003490_2014-05-21_15-50-11_094959634447_rgbf000101-resize_3-target.png,250,3.6445,5.0,3562,250,meters,jsons/v1_VE250_randls_67_rotated.json,975586,1114356,43,Man
95,645407,DepthScenes,duration_manipulation_targetAtFixation,jsons/v1_VE250_randls_67_rotated.json,http://54.235.29.9/FacialAge/BNav_EC2/DepthDuration/v2_depth_duration_MTurk/v2_DepthDuration_HTML.html#121,121,1707,781,1366,768,8-20-2022,10-4-42,96,depth_duration_stimuli/001175_2014-06-17_15-45-55_260595134347_rgbf000129-resize_4/001175_2014-06-17_15-45-55_260595134347_rgbf000129-resize_4-target.png,250,4.255,6.0,4717,249,meters,jsons/v1_VE250_randls_67_rotated.json,975586,1114356,43,Man
96,645407,DepthScenes,duration_manipulation_targetAtFixation,jsons/v1_VE250_randls_67_rotated.json,http://54.235.29.9/FacialAge/BNav_EC2/DepthDuration/v2_depth_duration_MTurk/v2_DepthDuration_HTML.html#121,121,1707,781,1366,768,8-20-2022,10-4-42,97,depth_duration_stimuli/002637_2014-06-24_14-51-13_094959634447_rgbf000066-resize_4/002637_2014-06-24_14-51-13_094959634447_rgbf000066-resize_4-target.png,250,1.9955,4.0,8010,250,meters,jsons/v1_VE250_randls_67_rotated.json,975586,1114356,43,Man
97,645407,DepthScenes,duration_manipulation_targetAtFixation,jsons/v1_VE250_randls_67_rotated.json,http://54.235.29.9/FacialAge/BNav_EC2/DepthDuration/v2_depth_duration_MTurk/v2_DepthDuration_HTML.html#121,121,1707,781,1366,768,8-20-2022,10-4-42,98,depth_duration_stimuli/003534_2014-05-22_15-06-10_094959634447_rgbf000102-resize_4/003534_2014-05-22_15-06-10_094959634447_rgbf000102-resize_4-target.png,250,1.426,4.0,12275,237,meters,jsons/v1_VE250_randls_67_rotated.json,975586,1114356,43,Man
98,645407,DepthScenes,duration_manipulation_targetAtFixation,jsons/v1_VE250_randls_67_rotated.json,http://54.235.29.9/FacialAge/BNav_EC2/DepthDuration/v2_depth_duration_MTurk/v2_DepthDuration_HTML.html#121,121,1707,781,1366,768,8-20-2022,10-4-42,99,depth_duration_stimuli/001222_2014-06-17_16-24-06_260595134347_rgbf000073-resize_0/001222_2014-06-17_16-24-06_260595134347_rgbf000073-resize-original.jpg,250,1.4385,0.0,6867,247,meters,jsons/v1_VE250_randls_67_rotated.json,975586,1114356,43,Man
99,645407,DepthScenes,duration_manipulation_targetAtFixation,jsons/v1_VE250_randls_67_rotated.json,http://54.235.29.9/FacialAge/BNav_EC2/DepthDuration/v2_depth_duration_MTurk/v2_DepthDuration_HTML.html#121,121,1707,781,1366,768,8-20-2022,10-4-42,100,depth_duration_stimuli/000734_2014-06-08_17-39-11_260595134347_rgbf000128-resize_2/000734_2014-06-08_17-39-11_260595134347_rgbf000128-resize_2-target.png,250,4.098,5.0,3632,250,meters,jsons/v1_VE250_randls_67_rotated.json,975586,1114356,43,Man
100,645407,DepthScenes,duration_manipulation_targetAtFixation,jsons/v1_VE250_randls_67_rotated.json,http://54.235.29.9/FacialAge/BNav_EC2/DepthDuration/v2_depth_duration_MTurk/v2_DepthDuration_HTML.html#121,121,1707,781,1366,768,8-20-2022,10-4-42,101,depth_duration_stimuli/000739_2014-06-08_18-45-58_260595134347_rgbf000068-resize_1/000739_2014-06-08_18-45-58_260595134347_rgbf000068-resize_1-target.png,250,3.534,6.0,3746,258,meters,jsons/v1_VE250_randls_67_rotated.json,975586,1114356,43,Man
101,645407,DepthScenes,duration_manipulation_targetAtFixation,jsons/v1_VE250_randls_67_rotated.json,http://54.235.29.9/FacialAge/BNav_EC2/DepthDuration/v2_depth_duration_MTurk/v2_DepthDuration_HTML.html#121,121,1707,781,1366,768,8-20-2022,10-4-42,102,depth_duration_stimuli/001094_2014-06-15_17-36-00_260595134347_rgbf000205-resize_0/001094_2014-06-15_17-36-00_260595134347_rgbf000205-resize_0-target.png,250,4.2175,6.0,5156,236,meters,jsons/v1_VE250_randls_67_rotated.json,975586,1114356,43,Man
102,645407,DepthScenes,duration_manipulation_targetAtFixation,jsons/v1_VE250_randls_67_rotated.json,http://54.235.29.9/FacialAge/BNav_EC2/DepthDuration/v2_depth_duration_MTurk/v2_DepthDuration_HTML.html#121,121,1707,781,1366,768,8-20-2022,10-4-42,103,depth_duration_stimuli/000692_2014-06-08_13-09-42_260595134347_rgbf000199-resize_2/000692_2014-06-08_13-09-42_260595134347_rgbf000199-resize_2-target.png,250,3.661,6.0,3477,263,meters,jsons/v1_VE250_randls_67_rotated.json,975586,1114356,43,Man
103,645407,DepthScenes,duration_manipulation_targetAtFixation,jsons/v1_VE250_randls_67_rotated.json,http://54.235.29.9/FacialAge/BNav_EC2/DepthDuration/v2_depth_duration_MTurk/v2_DepthDuration_HTML.html#121,121,1707,781,1366,768,8-20-2022,10-4-42,104,depth_duration_stimuli/002323_2014-06-28_20-01-54_260595134347_rgbf000051-resize_4/002323_2014-06-28_20-01-54_260595134347_rgbf000051-resize_4-target.png,250,3.7310000000000003,3.0,3375,249,meters,jsons/v1_VE250_randls_67_rotated.json,975586,1114356,43,Man
104,645407,DepthScenes,duration_manipulation_targetAtFixation,jsons/v1_VE250_randls_67_rotated.json,http://54.235.29.9/FacialAge/BNav_EC2/DepthDuration/v2_depth_duration_MTurk/v2_DepthDuration_HTML.html#121,121,1707,781,1366,768,8-20-2022,10-4-42,105,depth_duration_stimuli/000917_2014-06-09_22-45-29_260595134347_rgbf000149-resize_3/000917_2014-06-09_22-45-29_260595134347_rgbf000149-resize_3-target.png,250,4.1865,4.0,3844,250,meters,jsons/v1_VE250_randls_67_rotated.json,975586,1114356,43,Man
105,645407,DepthScenes,duration_manipulation_targetAtFixation,jsons/v1_VE250_randls_67_rotated.json,http://54.235.29.9/FacialAge/BNav_EC2/DepthDuration/v2_depth_duration_MTurk/v2_DepthDuration_HTML.html#121,121,1707,781,1366,768,8-20-2022,10-4-42,106,depth_duration_stimuli/002678_2014-06-13_16-15-32_094959634447_rgbf000151-resize_6/002678_2014-06-13_16-15-32_094959634447_rgbf000151-resize_6-target.png,250,2.1830000000000003,5.0,3720,249,meters,jsons/v1_VE250_randls_67_rotated.json,975586,1114356,43,Man
106,645407,DepthScenes,duration_manipulation_targetAtFixation,jsons/v1_VE250_randls_67_rotated.json,http://54.235.29.9/FacialAge/BNav_EC2/DepthDuration/v2_depth_duration_MTurk/v2_DepthDuration_HTML.html#121,121,1707,781,1366,768,8-20-2022,10-4-42,107,depth_duration_stimuli/000368_2014-06-09_15-53-01_260595134347_rgbf000155-resize_2/000368_2014-06-09_15-53-01_260595134347_rgbf000155-resize_2-target.png,250,2.4859999999999998,5.0,3540,242,meters,jsons/v1_VE250_randls_67_rotated.json,975586,1114356,43,Man
107,645407,DepthScenes,duration_manipulation_targetAtFixation,jsons/v1_VE250_randls_67_rotated.json,http://54.235.29.9/FacialAge/BNav_EC2/DepthDuration/v2_depth_duration_MTurk/v2_DepthDuration_HTML.html#121,121,1707,781,1366,768,8-20-2022,10-4-42,108,depth_duration_stimuli/001032_2014-06-08_13-23-17_260595134347_rgbf000021-resize_3/001032_2014-06-08_13-23-17_260595134347_rgbf000021-resize_3-target.png,250,3.2725,4.0,5388,251,meters,jsons/v1_VE250_randls_67_rotated.json,975586,1114356,43,Man
108,645407,DepthScenes,duration_manipulation_targetAtFixation,jsons/v1_VE250_randls_67_rotated.json,http://54.235.29.9/FacialAge/BNav_EC2/DepthDuration/v2_depth_duration_MTurk/v2_DepthDuration_HTML.html#121,121,1707,781,1366,768,8-20-2022,10-4-42,109,depth_duration_stimuli/001059_2014-06-08_21-53-27_260595134347_rgbf000061-resize_4/001059_2014-06-08_21-53-27_260595134347_rgbf000061-resize_4-target.png,250,2.4185,3.0,3452,247,meters,jsons/v1_VE250_randls_67_rotated.json,975586,1114356,43,Man
109,645407,DepthScenes,duration_manipulation_targetAtFixation,jsons/v1_VE250_randls_67_rotated.json,http://54.235.29.9/FacialAge/BNav_EC2/DepthDuration/v2_depth_duration_MTurk/v2_DepthDuration_HTML.html#121,121,1707,781,1366,768,8-20-2022,10-4-42,110,depth_duration_stimuli/003228_2014-05-14_13-42-35_094959634447_rgbf000101-resize_1/003228_2014-05-14_13-42-35_094959634447_rgbf000101-resize_1-target.png,250,1.9680000000000002,6.0,3750,250,meters,jsons/v1_VE250_randls_67_rotated.json,975586,1114356,43,Man
110,645407,DepthScenes,duration_manipulation_targetAtFixation,jsons/v1_VE250_randls_67_rotated.json,http://54.235.29.9/FacialAge/BNav_EC2/DepthDuration/v2_depth_duration_MTurk/v2_DepthDuration_HTML.html#121,121,1707,781,1366,768,8-20-2022,10-4-42,111,depth_duration_stimuli/002600_2014-06-24_14-27-04_094959634447_rgbf000074-resize_2/002600_2014-06-24_14-27-04_094959634447_rgbf000074-resize_2-target.png,250,2.7575,3.0,3324,251,meters,jsons/v1_VE250_randls_67_rotated.json,975586,1114356,43,Man
111,645407,DepthScenes,duration_manipulation_targetAtFixation,jsons/v1_VE250_randls_67_rotated.json,http://54.235.29.9/FacialAge/BNav_EC2/DepthDuration/v2_depth_duration_MTurk/v2_DepthDuration_HTML.html#121,121,1707,781,1366,768,8-20-2022,10-4-42,112,depth_duration_stimuli/000943_2014-06-09_19-31-07_260595134347_rgbf000128-resize_1/000943_2014-06-09_19-31-07_260595134347_rgbf000128-resize_1-target.png,250,1.9765,4.0,3518,252,meters,jsons/v1_VE250_randls_67_rotated.json,975586,1114356,43,Man
112,645407,DepthScenes,duration_manipulation_targetAtFixation,jsons/v1_VE250_randls_67_rotated.json,http://54.235.29.9/FacialAge/BNav_EC2/DepthDuration/v2_depth_duration_MTurk/v2_DepthDuration_HTML.html#121,121,1707,781,1366,768,8-20-2022,10-4-42,113,depth_duration_stimuli/003070_2014-06-15_14-58-27_094959634447_rgbf000150-resize_3/003070_2014-06-15_14-58-27_094959634447_rgbf000150-resize_3-target.png,250,2.9415,3.0,3179,262,meters,jsons/v1_VE250_randls_67_rotated.json,975586,1114356,43,Man
113,645407,DepthScenes,duration_manipulation_targetAtFixation,jsons/v1_VE250_randls_67_rotated.json,http://54.235.29.9/FacialAge/BNav_EC2/DepthDuration/v2_depth_duration_MTurk/v2_DepthDuration_HTML.html#121,121,1707,781,1366,768,8-20-2022,10-4-42,114,depth_duration_stimuli/002660_2014-06-13_15-44-18_094959634447_rgbf001878-resize_2/002660_2014-06-13_15-44-18_094959634447_rgbf001878-resize_2-target.png,250,3.576,4.0,3494,250,meters,jsons/v1_VE250_randls_67_rotated.json,975586,1114356,43,Man
114,645407,DepthScenes,duration_manipulation_targetAtFixation,jsons/v1_VE250_randls_67_rotated.json,http://54.235.29.9/FacialAge/BNav_EC2/DepthDuration/v2_depth_duration_MTurk/v2_DepthDuration_HTML.html#121,121,1707,781,1366,768,8-20-2022,10-4-42,115,depth_duration_stimuli/002153_2014-06-25_21-27-18_260595134347_rgbf000038-resize_5/002153_2014-06-25_21-27-18_260595134347_rgbf000038-resize_5-target.png,250,2.505,3.0,4532,246,meters,jsons/v1_VE250_randls_67_rotated.json,975586,1114356,43,Man
115,645407,DepthScenes,duration_manipulation_targetAtFixation,jsons/v1_VE250_randls_67_rotated.json,http://54.235.29.9/FacialAge/BNav_EC2/DepthDuration/v2_depth_duration_MTurk/v2_DepthDuration_HTML.html#121,121,1707,781,1366,768,8-20-2022,10-4-42,116,depth_duration_stimuli/000109_2014-05-14_23-41-52_260595134347_rgbf000035-resize_9/000109_2014-05-14_23-41-52_260595134347_rgbf000035-resize_9-target.png,250,1.3545,4.0,3498,240,meters,jsons/v1_VE250_randls_67_rotated.json,975586,1114356,43,Man
116,645407,DepthScenes,duration_manipulation_targetAtFixation,jsons/v1_VE250_randls_67_rotated.json,http://54.235.29.9/FacialAge/BNav_EC2/DepthDuration/v2_depth_duration_MTurk/v2_DepthDuration_HTML.html#121,121,1707,781,1366,768,8-20-2022,10-4-42,117,depth_duration_stimuli/000470_2014-06-09_19-42-40_260595134347_rgbf000094-resize_1/000470_2014-06-09_19-42-40_260595134347_rgbf000094-resize_1-target.png,250,1.831,4.0,3273,256,meters,jsons/v1_VE250_randls_67_rotated.json,975586,1114356,43,Man
117,645407,DepthScenes,duration_manipulation_targetAtFixation,jsons/v1_VE250_randls_67_rotated.json,http://54.235.29.9/FacialAge/BNav_EC2/DepthDuration/v2_depth_duration_MTurk/v2_DepthDuration_HTML.html#121,121,1707,781,1366,768,8-20-2022,10-4-42,118,depth_duration_stimuli/003048_2014-06-15_13-49-43_094959634447_rgbf000150-resize_1/003048_2014-06-15_13-49-43_094959634447_rgbf000150-resize_1-target.png,250,4.0035,4.0,4469,248,meters,jsons/v1_VE250_randls_67_rotated.json,975586,1114356,43,Man
118,645407,DepthScenes,duration_manipulation_targetAtFixation,jsons/v1_VE250_randls_67_rotated.json,http://54.235.29.9/FacialAge/BNav_EC2/DepthDuration/v2_depth_duration_MTurk/v2_DepthDuration_HTML.html#121,121,1707,781,1366,768,8-20-2022,10-4-42,119,depth_duration_stimuli/002043_2014-06-24_20-29-38_260595134347_rgbf000039-resize_4/002043_2014-06-24_20-29-38_260595134347_rgbf000039-resize_4-target.png,250,2.8435,4.0,3818,261,meters,jsons/v1_VE250_randls_67_rotated.json,975586,1114356,43,Man
119,645407,DepthScenes,duration_manipulation_targetAtFixation,jsons/v1_VE250_randls_67_rotated.json,http://54.235.29.9/FacialAge/BNav_EC2/DepthDuration/v2_depth_duration_MTurk/v2_DepthDuration_HTML.html#121,121,1707,781,1366,768,8-20-2022,10-4-42,120,depth_duration_stimuli/000787_2014-06-08_22-33-53_260595134347_rgbf000175-resize_1/000787_2014-06-08_22-33-53_260595134347_rgbf000175-resize-original.jpg,250,4.784,0.0,4172,250,meters,jsons/v1_VE250_randls_67_rotated.json,975586,1114356,43,Man
120,645407,DepthScenes,duration_manipulation_targetAtFixation,jsons/v1_VE250_randls_67_rotated.json,http://54.235.29.9/FacialAge/BNav_EC2/DepthDuration/v2_depth_duration_MTurk/v2_DepthDuration_HTML.html#121,121,1707,781,1366,768,8-20-2022,10-4-42,121,depth_duration_stimuli/003010_2014-06-15_12-54-35_094959634447_rgbf000112-resize_0/003010_2014-06-15_12-54-35_094959634447_rgbf000112-resize_0-target.png,250,3.1185,6.0,3568,259,meters,jsons/v1_VE250_randls_67_rotated.json,975586,1114356,43,Man
121,645407,DepthScenes,duration_manipulation_targetAtFixation,jsons/v1_VE250_randls_67_rotated.json,http://54.235.29.9/FacialAge/BNav_EC2/DepthDuration/v2_depth_duration_MTurk/v2_DepthDuration_HTML.html#121,121,1707,781,1366,768,8-20-2022,10-4-42,122,depth_duration_stimuli/001810_2014-06-26_20-51-35_260595134347_rgbf000040-resize_3/001810_2014-06-26_20-51-35_260595134347_rgbf000040-resize_3-target.png,250,2.2525,4.0,3628,253,meters,jsons/v1_VE250_randls_67_rotated.json,975586,1114356,43,Man
122,645407,DepthScenes,duration_manipulation_targetAtFixation,jsons/v1_VE250_randls_67_rotated.json,http://54.235.29.9/FacialAge/BNav_EC2/DepthDuration/v2_depth_duration_MTurk/v2_DepthDuration_HTML.html#121,121,1707,781,1366,768,8-20-2022,10-4-42,123,depth_duration_stimuli/001828_2014-06-26_21-40-03_260595134347_rgbf000024-resize_0/001828_2014-06-26_21-40-03_260595134347_rgbf000024-resize_0-target.png,250,4.8260000000000005,3.0,3915,249,meters,jsons/v1_VE250_randls_67_rotated.json,975586,1114356,43,Man
123,645407,DepthScenes,duration_manipulation_targetAtFixation,jsons/v1_VE250_randls_67_rotated.json,http://54.235.29.9/FacialAge/BNav_EC2/DepthDuration/v2_depth_duration_MTurk/v2_DepthDuration_HTML.html#121,121,1707,781,1366,768,8-20-2022,10-4-42,124,depth_duration_stimuli/000009_2014-05-26_14-32-05_260595134347_rgbf000034-resize_3/000009_2014-05-26_14-32-05_260595134347_rgbf000034-resize_3-target.png,250,3.8715,4.0,3053,261,meters,jsons/v1_VE250_randls_67_rotated.json,975586,1114356,43,Man
124,645407,DepthScenes,duration_manipulation_targetAtFixation,jsons/v1_VE250_randls_67_rotated.json,http://54.235.29.9/FacialAge/BNav_EC2/DepthDuration/v2_depth_duration_MTurk/v2_DepthDuration_HTML.html#121,121,1707,781,1366,768,8-20-2022,10-4-42,125,depth_duration_stimuli/003587_2014-05-23_16-48-02_094959634447_rgbf002384-resize_2/003587_2014-05-23_16-48-02_094959634447_rgbf002384-resize_2-target.png,250,1.357,6.0,3553,246,meters,jsons/v1_VE250_randls_67_rotated.json,975586,1114356,43,Man
125,645407,DepthScenes,duration_manipulation_targetAtFixation,jsons/v1_VE250_randls_67_rotated.json,http://54.235.29.9/FacialAge/BNav_EC2/DepthDuration/v2_depth_duration_MTurk/v2_DepthDuration_HTML.html#121,121,1707,781,1366,768,8-20-2022,10-4-42,126,depth_duration_stimuli/001167_2014-06-17_15-38-07_260595134347_rgbf000108-resize_0/001167_2014-06-17_15-38-07_260595134347_rgbf000108-resize_0-target.png,250,1.8505,4.0,3113,248,meters,jsons/v1_VE250_randls_67_rotated.json,975586,1114356,43,Man
126,645407,DepthScenes,duration_manipulation_targetAtFixation,jsons/v1_VE250_randls_67_rotated.json,http://54.235.29.9/FacialAge/BNav_EC2/DepthDuration/v2_depth_duration_MTurk/v2_DepthDuration_HTML.html#121,121,1707,781,1366,768,8-20-2022,10-4-42,127,depth_duration_stimuli/003081_2014-06-15_15-19-16_094959634447_rgbf000150-resize_1/003081_2014-06-15_15-19-16_094959634447_rgbf000150-resize_1-target.png,250,3.9125,5.0,3107,236,meters,jsons/v1_VE250_randls_67_rotated.json,975586,1114356,43,Man
127,645407,DepthScenes,duration_manipulation_targetAtFixation,jsons/v1_VE250_randls_67_rotated.json,http://54.235.29.9/FacialAge/BNav_EC2/DepthDuration/v2_depth_duration_MTurk/v2_DepthDuration_HTML.html#121,121,1707,781,1366,768,8-20-2022,10-4-42,128,depth_duration_stimuli/001417_2014-06-19_16-25-36_260595134347_rgbf000115-resize_5/001417_2014-06-19_16-25-36_260595134347_rgbf000115-resize_5-target.png,250,4.6255,5.0,3281,261,meters,jsons/v1_VE250_randls_67_rotated.json,975586,1114356,43,Man
128,645407,DepthScenes,duration_manipulation_targetAtFixation,jsons/v1_VE250_randls_67_rotated.json,http://54.235.29.9/FacialAge/BNav_EC2/DepthDuration/v2_depth_duration_MTurk/v2_DepthDuration_HTML.html#121,121,1707,781,1366,768,8-20-2022,10-4-42,129,depth_duration_stimuli/000854_2014-06-09_19-43-13_260595134347_rgbf000066-resize_0/000854_2014-06-09_19-43-13_260595134347_rgbf000066-resize_0-target.png,250,3.068,3.5,4551,252,meters,jsons/v1_VE250_randls_67_rotated.json,975586,1114356,43,Man
129,645407,DepthScenes,duration_manipulation_targetAtFixation,jsons/v1_VE250_randls_67_rotated.json,http://54.235.29.9/FacialAge/BNav_EC2/DepthDuration/v2_depth_duration_MTurk/v2_DepthDuration_HTML.html#121,121,1707,781,1366,768,8-20-2022,10-4-42,130,depth_duration_stimuli/000758_2014-06-08_22-05-08_260595134347_rgbf000085-resize_0/000758_2014-06-08_22-05-08_260595134347_rgbf000085-resize_0-target.png,250,3.3810000000000002,4.0,3119,248,meters,jsons/v1_VE250_randls_67_rotated.json,975586,1114356,43,Man
130,645407,DepthScenes,duration_manipulation_targetAtFixation,jsons/v1_VE250_randls_67_rotated.json,http://54.235.29.9/FacialAge/BNav_EC2/DepthDuration/v2_depth_duration_MTurk/v2_DepthDuration_HTML.html#121,121,1707,781,1366,768,8-20-2022,10-4-42,131,depth_duration_stimuli/002414_2014-06-28_20-24-58_260595134347_rgbf000067-resize_4/002414_2014-06-28_20-24-58_260595134347_rgbf000067-resize_4-target.png,250,4.363,7.0,4407,250,meters,jsons/v1_VE250_randls_67_rotated.json,975586,1114356,43,Man
131,645407,DepthScenes,duration_manipulation_targetAtFixation,jsons/v1_VE250_randls_67_rotated.json,http://54.235.29.9/FacialAge/BNav_EC2/DepthDuration/v2_depth_duration_MTurk/v2_DepthDuration_HTML.html#121,121,1707,781,1366,768,8-20-2022,10-4-42,132,depth_duration_stimuli/000773_2014-06-08_22-24-54_260595134347_rgbf000093-resize_1/000773_2014-06-08_22-24-54_260595134347_rgbf000093-resize_1-target.png,250,4.973,6.0,3385,245,meters,jsons/v1_VE250_randls_67_rotated.json,975586,1114356,43,Man
132,645407,DepthScenes,duration_manipulation_targetAtFixation,jsons/v1_VE250_randls_67_rotated.json,http://54.235.29.9/FacialAge/BNav_EC2/DepthDuration/v2_depth_duration_MTurk/v2_DepthDuration_HTML.html#121,121,1707,781,1366,768,8-20-2022,10-4-42,133,depth_duration_stimuli/003495_2014-05-21_16-01-51_094959634447_rgbf000100-resize_3/003495_2014-05-21_16-01-51_094959634447_rgbf000100-resize_3-target.png,250,1.6255,3.0,3326,251,meters,jsons/v1_VE250_randls_67_rotated.json,975586,1114356,43,Man
133,645407,DepthScenes,duration_manipulation_targetAtFixation,jsons/v1_VE250_randls_67_rotated.json,http://54.235.29.9/FacialAge/BNav_EC2/DepthDuration/v2_depth_duration_MTurk/v2_DepthDuration_HTML.html#121,121,1707,781,1366,768,8-20-2022,10-4-42,134,depth_duration_stimuli/001244_2014-06-17_16-47-45_260595134347_rgbf000030-resize_4/001244_2014-06-17_16-47-45_260595134347_rgbf000030-resize_4-target.png,250,2.0425,4.5,3895,239,meters,jsons/v1_VE250_randls_67_rotated.json,975586,1114356,43,Man
134,645407,DepthScenes,duration_manipulation_targetAtFixation,jsons/v1_VE250_randls_67_rotated.json,http://54.235.29.9/FacialAge/BNav_EC2/DepthDuration/v2_depth_duration_MTurk/v2_DepthDuration_HTML.html#121,121,1707,781,1366,768,8-20-2022,10-4-42,135,depth_duration_stimuli/000375_2014-06-08_11-17-29_260595134347_rgbf000133-resize_2/000375_2014-06-08_11-17-29_260595134347_rgbf000133-resize-original.jpg,250,4.718,0.0,4125,263,meters,jsons/v1_VE250_randls_67_rotated.json,975586,1114356,43,Man
135,645407,DepthScenes,duration_manipulation_targetAtFixation,jsons/v1_VE250_randls_67_rotated.json,http://54.235.29.9/FacialAge/BNav_EC2/DepthDuration/v2_depth_duration_MTurk/v2_DepthDuration_HTML.html#121,121,1707,781,1366,768,8-20-2022,10-4-42,136,depth_duration_stimuli/001650_2014-06-20_12-09-00_260595134347_rgbf000087-resize_3/001650_2014-06-20_12-09-00_260595134347_rgbf000087-resize_3-target.png,250,1.9505,4.5,4309,250,meters,jsons/v1_VE250_randls_67_rotated.json,975586,1114356,43,Man
136,645407,DepthScenes,duration_manipulation_targetAtFixation,jsons/v1_VE250_randls_67_rotated.json,http://54.235.29.9/FacialAge/BNav_EC2/DepthDuration/v2_depth_duration_MTurk/v2_DepthDuration_HTML.html#121,121,1707,781,1366,768,8-20-2022,10-4-42,137,depth_duration_stimuli/000682_2014-06-08_23-14-58_260595134347_rgbf000041-resize_5/000682_2014-06-08_23-14-58_260595134347_rgbf000041-resize_5-target.png,250,2.7239999999999998,5.0,4445,253,meters,jsons/v1_VE250_randls_67_rotated.json,975586,1114356,43,Man
137,645407,DepthScenes,duration_manipulation_targetAtFixation,jsons/v1_VE250_randls_67_rotated.json,http://54.235.29.9/FacialAge/BNav_EC2/DepthDuration/v2_depth_duration_MTurk/v2_DepthDuration_HTML.html#121,121,1707,781,1366,768,8-20-2022,10-4-42,138,depth_duration_stimuli/000502_2014-06-08_23-02-32_260595134347_rgbf000063-resize_4/000502_2014-06-08_23-02-32_260595134347_rgbf000063-resize_4-target.png,250,2.431,5.0,3475,265,meters,jsons/v1_VE250_randls_67_rotated.json,975586,1114356,43,Man
138,645407,DepthScenes,duration_manipulation_targetAtFixation,jsons/v1_VE250_randls_67_rotated.json,http://54.235.29.9/FacialAge/BNav_EC2/DepthDuration/v2_depth_duration_MTurk/v2_DepthDuration_HTML.html#121,121,1707,781,1366,768,8-20-2022,10-4-42,139,depth_duration_stimuli/001199_2014-06-17_16-03-48_260595134347_rgbf000077-resize_0/001199_2014-06-17_16-03-48_260595134347_rgbf000077-resize_0-target.png,250,3.4375,3.0,3427,253,meters,jsons/v1_VE250_randls_67_rotated.json,975586,1114356,43,Man
139,645407,DepthScenes,duration_manipulation_targetAtFixation,jsons/v1_VE250_randls_67_rotated.json,http://54.235.29.9/FacialAge/BNav_EC2/DepthDuration/v2_depth_duration_MTurk/v2_DepthDuration_HTML.html#121,121,1707,781,1366,768,8-20-2022,10-4-42,140,depth_duration_stimuli/000137_2014-05-20_17-04-49_260595134347_rgbf000120-resize_1/000137_2014-05-20_17-04-49_260595134347_rgbf000120-resize_1-target.png,250,3.786,5.0,3733,263,meters,jsons/v1_VE250_randls_67_rotated.json,975586,1114356,43,Man
140,645407,DepthScenes,duration_manipulation_targetAtFixation,jsons/v1_VE250_randls_67_rotated.json,http://54.235.29.9/FacialAge/BNav_EC2/DepthDuration/v2_depth_duration_MTurk/v2_DepthDuration_HTML.html#121,121,1707,781,1366,768,8-20-2022,10-4-42,141,depth_duration_stimuli/000736_2014-06-08_18-24-15_260595134347_rgbf000206-resize_3/000736_2014-06-08_18-24-15_260595134347_rgbf000206-resize_3-target.png,250,3.515,5.0,4246,236,meters,jsons/v1_VE250_randls_67_rotated.json,975586,1114356,43,Man
141,645407,DepthScenes,duration_manipulation_targetAtFixation,jsons/v1_VE250_randls_67_rotated.json,http://54.235.29.9/FacialAge/BNav_EC2/DepthDuration/v2_depth_duration_MTurk/v2_DepthDuration_HTML.html#121,121,1707,781,1366,768,8-20-2022,10-4-42,142,depth_duration_stimuli/002209_2014-06-28_18-36-10_260595134347_rgbf000051-resize_1/002209_2014-06-28_18-36-10_260595134347_rgbf000051-resize_1-target.png,250,2.057,4.0,3688,252,meters,jsons/v1_VE250_randls_67_rotated.json,975586,1114356,43,Man
142,645407,DepthScenes,duration_manipulation_targetAtFixation,jsons/v1_VE250_randls_67_rotated.json,http://54.235.29.9/FacialAge/BNav_EC2/DepthDuration/v2_depth_duration_MTurk/v2_DepthDuration_HTML.html#121,121,1707,781,1366,768,8-20-2022,10-4-42,143,depth_duration_stimuli/002763_2014-06-22_19-13-10_094959634447_rgbf000075-resize_4/002763_2014-06-22_19-13-10_094959634447_rgbf000075-resize_4-target.png,250,1.68375,5.0,3402,246,meters,jsons/v1_VE250_randls_67_rotated.json,975586,1114356,43,Man
143,645407,DepthScenes,duration_manipulation_targetAtFixation,jsons/v1_VE250_randls_67_rotated.json,http://54.235.29.9/FacialAge/BNav_EC2/DepthDuration/v2_depth_duration_MTurk/v2_DepthDuration_HTML.html#121,121,1707,781,1366,768,8-20-2022,10-4-42,144,depth_duration_stimuli/002340_2014-06-28_20-05-46_260595134347_rgbf000113-resize_0/002340_2014-06-28_20-05-46_260595134347_rgbf000113-resize_0-target.png,250,2.4735,5.0,4471,239,meters,jsons/v1_VE250_randls_67_rotated.json,975586,1114356,43,Man
144,645407,DepthScenes,duration_manipulation_targetAtFixation,jsons/v1_VE250_randls_67_rotated.json,http://54.235.29.9/FacialAge/BNav_EC2/DepthDuration/v2_depth_duration_MTurk/v2_DepthDuration_HTML.html#121,121,1707,781,1366,768,8-20-2022,10-4-42,145,depth_duration_stimuli/001016_2014-06-09_16-16-10_260595134347_rgbf000112-resize_5/001016_2014-06-09_16-16-10_260595134347_rgbf000112-resize_5-target.png,250,1.6565,6.0,3988,253,meters,jsons/v1_VE250_randls_67_rotated.json,975586,1114356,43,Man
145,645407,DepthScenes,duration_manipulation_targetAtFixation,jsons/v1_VE250_randls_67_rotated.json,http://54.235.29.9/FacialAge/BNav_EC2/DepthDuration/v2_depth_duration_MTurk/v2_DepthDuration_HTML.html#121,121,1707,781,1366,768,8-20-2022,10-4-42,146,depth_duration_stimuli/000483_2014-06-09_20-41-45_260595134347_rgbf000116-resize_4/000483_2014-06-09_20-41-45_260595134347_rgbf000116-resize_4-target.png,250,1.337,5.0,4185,243,meters,jsons/v1_VE250_randls_67_rotated.json,975586,1114356,43,Man
146,645407,DepthScenes,duration_manipulation_targetAtFixation,jsons/v1_VE250_randls_67_rotated.json,http://54.235.29.9/FacialAge/BNav_EC2/DepthDuration/v2_depth_duration_MTurk/v2_DepthDuration_HTML.html#121,121,1707,781,1366,768,8-20-2022,10-4-42,147,depth_duration_stimuli/000469_2014-06-09_19-42-10_260595134347_rgbf000081-resize_1/000469_2014-06-09_19-42-10_260595134347_rgbf000081-resize_1-target.png,250,1.652,4.0,3203,249,meters,jsons/v1_VE250_randls_67_rotated.json,975586,1114356,43,Man
147,645407,DepthScenes,duration_manipulation_targetAtFixation,jsons/v1_VE250_randls_67_rotated.json,http://54.235.29.9/FacialAge/BNav_EC2/DepthDuration/v2_depth_duration_MTurk/v2_DepthDuration_HTML.html#121,121,1707,781,1366,768,8-20-2022,10-4-42,148,depth_duration_stimuli/000191_2014-05-12_17-07-38_260595134347_rgbf000199-resize_0/000191_2014-05-12_17-07-38_260595134347_rgbf000199-resize_0-target.png,250,3.7995,5.5,3603,252,meters,jsons/v1_VE250_randls_67_rotated.json,975586,1114356,43,Man
148,645407,DepthScenes,duration_manipulation_targetAtFixation,jsons/v1_VE250_randls_67_rotated.json,http://54.235.29.9/FacialAge/BNav_EC2/DepthDuration/v2_depth_duration_MTurk/v2_DepthDuration_HTML.html#121,121,1707,781,1366,768,8-20-2022,10-4-42,149,depth_duration_stimuli/000493_2014-06-09_21-01-18_260595134347_rgbf000196-resize_3/000493_2014-06-09_21-01-18_260595134347_rgbf000196-resize_3-target.png,250,3.44,4.0,3784,255,meters,jsons/v1_VE250_randls_67_rotated.json,975586,1114356,43,Man
149,645407,DepthScenes,duration_manipulation_targetAtFixation,jsons/v1_VE250_randls_67_rotated.json,http://54.235.29.9/FacialAge/BNav_EC2/DepthDuration/v2_depth_duration_MTurk/v2_DepthDuration_HTML.html#121,121,1707,781,1366,768,8-20-2022,10-4-42,150,depth_duration_stimuli/002199_2014-06-28_18-33-56_260595134347_rgbf000074-resize_0/002199_2014-06-28_18-33-56_260595134347_rgbf000074-resize_0-target.png,250,1.996,2.5,30570,251,meters,jsons/v1_VE250_randls_67_rotated.json,975586,1114356,43,Man
150,645407,DepthScenes,duration_manipulation_targetAtFixation,jsons/v1_VE250_randls_67_rotated.json,http://54.235.29.9/FacialAge/BNav_EC2/DepthDuration/v2_depth_duration_MTurk/v2_DepthDuration_HTML.html#121,121,1707,781,1366,768,8-20-2022,10-4-42,151,depth_duration_stimuli/001056_2014-06-08_18-46-44_260595134347_rgbf000068-resize_0/001056_2014-06-08_18-46-44_260595134347_rgbf000068-resize_0-target.png,250,2.6625,4.0,3936,242,meters,jsons/v1_VE250_randls_67_rotated.json,975586,1114356,43,Man
151,645407,DepthScenes,duration_manipulation_targetAtFixation,jsons/v1_VE250_randls_67_rotated.json,http://54.235.29.9/FacialAge/BNav_EC2/DepthDuration/v2_depth_duration_MTurk/v2_DepthDuration_HTML.html#121,121,1707,781,1366,768,8-20-2022,10-4-42,152,depth_duration_stimuli/000569_2014-06-09_22-51-47_260595134347_rgbf000141-resize_3/000569_2014-06-09_22-51-47_260595134347_rgbf000141-resize-original.jpg,250,4.512,4.0,19662,248,meters,jsons/v1_VE250_randls_67_rotated.json,975586,1114356,43,Man
152,645407,DepthScenes,duration_manipulation_targetAtFixation,jsons/v1_VE250_randls_67_rotated.json,http://54.235.29.9/FacialAge/BNav_EC2/DepthDuration/v2_depth_duration_MTurk/v2_DepthDuration_HTML.html#121,121,1707,781,1366,768,8-20-2022,10-4-42,153,depth_duration_stimuli/000742_2014-06-08_18-48-09_260595134347_rgbf000164-resize_4/000742_2014-06-08_18-48-09_260595134347_rgbf000164-resize_4-target.png,250,4.632,5.0,3887,249,meters,jsons/v1_VE250_randls_67_rotated.json,975586,1114356,43,Man
153,645407,DepthScenes,duration_manipulation_targetAtFixation,jsons/v1_VE250_randls_67_rotated.json,http://54.235.29.9/FacialAge/BNav_EC2/DepthDuration/v2_depth_duration_MTurk/v2_DepthDuration_HTML.html#121,121,1707,781,1366,768,8-20-2022,10-4-42,154,depth_duration_stimuli/001066_2014-06-08_22-03-20_260595134347_rgbf000066-resize_4/001066_2014-06-08_22-03-20_260595134347_rgbf000066-resize_4-target.png,250,4.2330000000000005,4.0,3435,236,meters,jsons/v1_VE250_randls_67_rotated.json,975586,1114356,43,Man
154,645407,DepthScenes,duration_manipulation_targetAtFixation,jsons/v1_VE250_randls_67_rotated.json,http://54.235.29.9/FacialAge/BNav_EC2/DepthDuration/v2_depth_duration_MTurk/v2_DepthDuration_HTML.html#121,121,1707,781,1366,768,8-20-2022,10-4-42,155,depth_duration_stimuli/001136_2014-06-17_15-19-41_260595134347_rgbf000076-resize_3/001136_2014-06-17_15-19-41_260595134347_rgbf000076-resize_3-target.png,250,1.8655,5.0,3895,250,meters,jsons/v1_VE250_randls_67_rotated.json,975586,1114356,43,Man
155,645407,DepthScenes,duration_manipulation_targetAtFixation,jsons/v1_VE250_randls_67_rotated.json,http://54.235.29.9/FacialAge/BNav_EC2/DepthDuration/v2_depth_duration_MTurk/v2_DepthDuration_HTML.html#121,121,1707,781,1366,768,8-20-2022,10-4-42,156,depth_duration_stimuli/001164_2014-06-17_15-35-46_260595134347_rgbf000085-resize_3/001164_2014-06-17_15-35-46_260595134347_rgbf000085-resize_3-target.png,250,2.354,5.0,3194,249,meters,jsons/v1_VE250_randls_67_rotated.json,975586,1114356,43,Man
156,645407,DepthScenes,duration_manipulation_targetAtFixation,jsons/v1_VE250_randls_67_rotated.json,http://54.235.29.9/FacialAge/BNav_EC2/DepthDuration/v2_depth_duration_MTurk/v2_DepthDuration_HTML.html#121,121,1707,781,1366,768,8-20-2022,10-4-42,157,depth_duration_stimuli/001447_2014-06-19_17-00-32_260595134347_rgbf000082-resize_5/001447_2014-06-19_17-00-32_260595134347_rgbf000082-resize_5-target.png,250,4.13775,4.5,3986,251,meters,jsons/v1_VE250_randls_67_rotated.json,975586,1114356,43,Man
157,645407,DepthScenes,duration_manipulation_targetAtFixation,jsons/v1_VE250_randls_67_rotated.json,http://54.235.29.9/FacialAge/BNav_EC2/DepthDuration/v2_depth_duration_MTurk/v2_DepthDuration_HTML.html#121,121,1707,781,1366,768,8-20-2022,10-4-42,158,depth_duration_stimuli/000447_2014-06-08_16-15-46_260595134347_rgbf000130-resize_1/000447_2014-06-08_16-15-46_260595134347_rgbf000130-resize_1-target.png,250,4.479,5.0,7126,247,meters,jsons/v1_VE250_randls_67_rotated.json,975586,1114356,43,Man
158,645407,DepthScenes,duration_manipulation_targetAtFixation,jsons/v1_VE250_randls_67_rotated.json,http://54.235.29.9/FacialAge/BNav_EC2/DepthDuration/v2_depth_duration_MTurk/v2_DepthDuration_HTML.html#121,121,1707,781,1366,768,8-20-2022,10-4-42,159,depth_duration_stimuli/002467_2014-06-28_20-38-07_260595134347_rgbf000026-resize_2/002467_2014-06-28_20-38-07_260595134347_rgbf000026-resize_2-target.png,250,4.742,5.0,4738,251,meters,jsons/v1_VE250_randls_67_rotated.json,975586,1114356,43,Man
159,645407,DepthScenes,duration_manipulation_targetAtFixation,jsons/v1_VE250_randls_67_rotated.json,http://54.235.29.9/FacialAge/BNav_EC2/DepthDuration/v2_depth_duration_MTurk/v2_DepthDuration_HTML.html#121,121,1707,781,1366,768,8-20-2022,10-4-42,160,depth_duration_stimuli/002570_2014-06-24_13-59-54_094959634447_rgbf000059-resize_0/002570_2014-06-24_13-59-54_094959634447_rgbf000059-resize_0-target.png,250,4.037,5.0,3396,249,meters,jsons/v1_VE250_randls_67_rotated.json,975586,1114356,43,Man
160,645407,DepthScenes,duration_manipulation_targetAtFixation,jsons/v1_VE250_randls_67_rotated.json,http://54.235.29.9/FacialAge/BNav_EC2/DepthDuration/v2_depth_duration_MTurk/v2_DepthDuration_HTML.html#121,121,1707,781,1366,768,8-20-2022,10-4-42,161,depth_duration_stimuli/002344_2014-06-28_20-06-29_260595134347_rgbf000030-resize_1/002344_2014-06-28_20-06-29_260595134347_rgbf000030-resize_1-target.png,250,1.5795,4.5,4249,237,meters,jsons/v1_VE250_randls_67_rotated.json,975586,1114356,43,Man
161,645407,DepthScenes,duration_manipulation_targetAtFixation,jsons/v1_VE250_randls_67_rotated.json,http://54.235.29.9/FacialAge/BNav_EC2/DepthDuration/v2_depth_duration_MTurk/v2_DepthDuration_HTML.html#121,121,1707,781,1366,768,8-20-2022,10-4-42,162,depth_duration_stimuli/002725_2014-06-22_11-47-51_094959634447_rgbf000070-resize_1/002725_2014-06-22_11-47-51_094959634447_rgbf000070-resize_1-target.png,250,2.195,5.0,3311,238,meters,jsons/v1_VE250_randls_67_rotated.json,975586,1114356,43,Man
162,645407,DepthScenes,duration_manipulation_targetAtFixation,jsons/v1_VE250_randls_67_rotated.json,http://54.235.29.9/FacialAge/BNav_EC2/DepthDuration/v2_depth_duration_MTurk/v2_DepthDuration_HTML.html#121,121,1707,781,1366,768,8-20-2022,10-4-42,163,depth_duration_stimuli/002805_2014-06-22_19-54-03_094959634447_rgbf000079-resize_1/002805_2014-06-22_19-54-03_094959634447_rgbf000079-resize_1-target.png,250,3.1439999999999997,4.0,15975,251,meters,jsons/v1_VE250_randls_67_rotated.json,975586,1114356,43,Man
163,645407,DepthScenes,duration_manipulation_targetAtFixation,jsons/v1_VE250_randls_67_rotated.json,http://54.235.29.9/FacialAge/BNav_EC2/DepthDuration/v2_depth_duration_MTurk/v2_DepthDuration_HTML.html#121,121,1707,781,1366,768,8-20-2022,10-4-42,164,depth_duration_stimuli/000906_2014-06-08_13-35-43_260595134347_rgbf000155-resize_1/000906_2014-06-08_13-35-43_260595134347_rgbf000155-resize_1-target.png,250,2.8489999999999998,5.0,4061,264,meters,jsons/v1_VE250_randls_67_rotated.json,975586,1114356,43,Man
