,subjID,experimentName,versionName,sequenceName,url,selected_row,windowWidth,windowHeight,screenWidth,screenHeight,startDate,startTime,trial,stimulus,duration,actual_depth,depth_estimate,trial_RT,log_sceneDuration,unitSelection,seq_filepath,experimentTime,totalTime,age,gender
0,646459,DepthScenes,duration_manipulation_targetAtFixation,jsons/v1_VE1000_randls_59_rotated.json,http://54.235.29.9/FacialAge/BNav_EC2/DepthDuration/v2_depth_duration_MTurk/v2_DepthDuration_HTML.html#80,80,1280,720,1280,720,8-29-2022,14-31-26,1,depth_duration_stimuli/000549_2014-06-08_22-10-24_260595134347_rgbf000247-resize_3/000549_2014-06-08_22-10-24_260595134347_rgbf000247-resize_3-target.png,1000,1.841,2,5131,1004,feet,jsons/v1_VE1000_randls_59_rotated.json,844016,1136277,46,Woman
1,646459,DepthScenes,duration_manipulation_targetAtFixation,jsons/v1_VE1000_randls_59_rotated.json,http://54.235.29.9/FacialAge/BNav_EC2/DepthDuration/v2_depth_duration_MTurk/v2_DepthDuration_HTML.html#80,80,1280,720,1280,720,8-29-2022,14-31-26,2,depth_duration_stimuli/001055_2014-06-08_18-45-35_260595134347_rgbf000111-resize_4/001055_2014-06-08_18-45-35_260595134347_rgbf000111-resize_4-target.png,1000,2.4290000000000003,10,5155,995,feet,jsons/v1_VE1000_randls_59_rotated.json,844016,1136277,46,Woman
2,646459,DepthScenes,duration_manipulation_targetAtFixation,jsons/v1_VE1000_randls_59_rotated.json,http://54.235.29.9/FacialAge/BNav_EC2/DepthDuration/v2_depth_duration_MTurk/v2_DepthDuration_HTML.html#80,80,1280,720,1280,720,8-29-2022,14-31-26,3,depth_duration_stimuli/000734_2014-06-08_17-39-11_260595134347_rgbf000128-resize_2/000734_2014-06-08_17-39-11_260595134347_rgbf000128-resize_2-target.png,1000,4.098,6,4677,999,feet,jsons/v1_VE1000_randls_59_rotated.json,844016,1136277,46,Woman
3,646459,DepthScenes,duration_manipulation_targetAtFixation,jsons/v1_VE1000_randls_59_rotated.json,http://54.235.29.9/FacialAge/BNav_EC2/DepthDuration/v2_depth_duration_MTurk/v2_DepthDuration_HTML.html#80,80,1280,720,1280,720,8-29-2022,14-31-26,4,depth_duration_stimuli/000739_2014-06-08_18-45-58_260595134347_rgbf000068-resize_1/000739_2014-06-08_18-45-58_260595134347_rgbf000068-resize_1-target.png,1000,3.534,8,4463,994,feet,jsons/v1_VE1000_randls_59_rotated.json,844016,1136277,46,Woman
4,646459,DepthScenes,duration_manipulation_targetAtFixation,jsons/v1_VE1000_randls_59_rotated.json,http://54.235.29.9/FacialAge/BNav_EC2/DepthDuration/v2_depth_duration_MTurk/v2_DepthDuration_HTML.html#80,80,1280,720,1280,720,8-29-2022,14-31-26,5,depth_duration_stimuli/000749_2014-06-08_21-55-06_260595134347_rgbf000070-resize_2/000749_2014-06-08_21-55-06_260595134347_rgbf000070-resize_2-target.png,1000,2.331,5,4705,1014,feet,jsons/v1_VE1000_randls_59_rotated.json,844016,1136277,46,Woman
5,646459,DepthScenes,duration_manipulation_targetAtFixation,jsons/v1_VE1000_randls_59_rotated.json,http://54.235.29.9/FacialAge/BNav_EC2/DepthDuration/v2_depth_duration_MTurk/v2_DepthDuration_HTML.html#80,80,1280,720,1280,720,8-29-2022,14-31-26,6,depth_duration_stimuli/002788_2014-06-22_19-36-03_094959634447_rgbf000088-resize_2/002788_2014-06-22_19-36-03_094959634447_rgbf000088-resize_2-target.png,1000,1.6465,6,4499,1012,feet,jsons/v1_VE1000_randls_59_rotated.json,844016,1136277,46,Woman
6,646459,DepthScenes,duration_manipulation_targetAtFixation,jsons/v1_VE1000_randls_59_rotated.json,http://54.235.29.9/FacialAge/BNav_EC2/DepthDuration/v2_depth_duration_MTurk/v2_DepthDuration_HTML.html#80,80,1280,720,1280,720,8-29-2022,14-31-26,7,depth_duration_stimuli/001052_2014-06-08_18-24-54_260595134347_rgbf000130-resize_1/001052_2014-06-08_18-24-54_260595134347_rgbf000130-resize_1-target.png,1000,4.1045,10,5161,1010,feet,jsons/v1_VE1000_randls_59_rotated.json,844016,1136277,46,Woman
7,646459,DepthScenes,duration_manipulation_targetAtFixation,jsons/v1_VE1000_randls_59_rotated.json,http://54.235.29.9/FacialAge/BNav_EC2/DepthDuration/v2_depth_duration_MTurk/v2_DepthDuration_HTML.html#80,80,1280,720,1280,720,8-29-2022,14-31-26,8,depth_duration_stimuli/002988_2014-06-15_12-24-20_094959634447_rgbf000150-resize_1/002988_2014-06-15_12-24-20_094959634447_rgbf000150-resize_1-target.png,1000,4.7669999999999995,15,5445,1009,feet,jsons/v1_VE1000_randls_59_rotated.json,844016,1136277,46,Woman
8,646459,DepthScenes,duration_manipulation_targetAtFixation,jsons/v1_VE1000_randls_59_rotated.json,http://54.235.29.9/FacialAge/BNav_EC2/DepthDuration/v2_depth_duration_MTurk/v2_DepthDuration_HTML.html#80,80,1280,720,1280,720,8-29-2022,14-31-26,9,depth_duration_stimuli/000191_2014-05-12_17-07-38_260595134347_rgbf000199-resize_0/000191_2014-05-12_17-07-38_260595134347_rgbf000199-resize_0-target.png,1000,3.7995,10,5131,999,feet,jsons/v1_VE1000_randls_59_rotated.json,844016,1136277,46,Woman
9,646459,DepthScenes,duration_manipulation_targetAtFixation,jsons/v1_VE1000_randls_59_rotated.json,http://54.235.29.9/FacialAge/BNav_EC2/DepthDuration/v2_depth_duration_MTurk/v2_DepthDuration_HTML.html#80,80,1280,720,1280,720,8-29-2022,14-31-26,10,depth_duration_stimuli/000493_2014-06-09_21-01-18_260595134347_rgbf000196-resize_3/000493_2014-06-09_21-01-18_260595134347_rgbf000196-resize_3-target.png,1000,3.44,8,4816,1018,feet,jsons/v1_VE1000_randls_59_rotated.json,844016,1136277,46,Woman
10,646459,DepthScenes,duration_manipulation_targetAtFixation,jsons/v1_VE1000_randls_59_rotated.json,http://54.235.29.9/FacialAge/BNav_EC2/DepthDuration/v2_depth_duration_MTurk/v2_DepthDuration_HTML.html#80,80,1280,720,1280,720,8-29-2022,14-31-26,11,depth_duration_stimuli/002678_2014-06-13_16-15-32_094959634447_rgbf000151-resize_6/002678_2014-06-13_16-15-32_094959634447_rgbf000151-resize_6-target.png,1000,2.1830000000000003,20,5170,999,feet,jsons/v1_VE1000_randls_59_rotated.json,844016,1136277,46,Woman
11,646459,DepthScenes,duration_manipulation_targetAtFixation,jsons/v1_VE1000_randls_59_rotated.json,http://54.235.29.9/FacialAge/BNav_EC2/DepthDuration/v2_depth_duration_MTurk/v2_DepthDuration_HTML.html#80,80,1280,720,1280,720,8-29-2022,14-31-26,12,depth_duration_stimuli/000368_2014-06-09_15-53-01_260595134347_rgbf000155-resize_2/000368_2014-06-09_15-53-01_260595134347_rgbf000155-resize_2-target.png,1000,2.4859999999999998,5,4591,1007,feet,jsons/v1_VE1000_randls_59_rotated.json,844016,1136277,46,Woman
12,646459,DepthScenes,duration_manipulation_targetAtFixation,jsons/v1_VE1000_randls_59_rotated.json,http://54.235.29.9/FacialAge/BNav_EC2/DepthDuration/v2_depth_duration_MTurk/v2_DepthDuration_HTML.html#80,80,1280,720,1280,720,8-29-2022,14-31-26,13,depth_duration_stimuli/003495_2014-05-21_16-01-51_094959634447_rgbf000100-resize_3/003495_2014-05-21_16-01-51_094959634447_rgbf000100-resize_3-target.png,1000,1.6255,4,4679,995,feet,jsons/v1_VE1000_randls_59_rotated.json,844016,1136277,46,Woman
13,646459,DepthScenes,duration_manipulation_targetAtFixation,jsons/v1_VE1000_randls_59_rotated.json,http://54.235.29.9/FacialAge/BNav_EC2/DepthDuration/v2_depth_duration_MTurk/v2_DepthDuration_HTML.html#80,80,1280,720,1280,720,8-29-2022,14-31-26,14,depth_duration_stimuli/001244_2014-06-17_16-47-45_260595134347_rgbf000030-resize_4/001244_2014-06-17_16-47-45_260595134347_rgbf000030-resize_4-target.png,1000,2.0425,5,4575,1012,feet,jsons/v1_VE1000_randls_59_rotated.json,844016,1136277,46,Woman
14,646459,DepthScenes,duration_manipulation_targetAtFixation,jsons/v1_VE1000_randls_59_rotated.json,http://54.235.29.9/FacialAge/BNav_EC2/DepthDuration/v2_depth_duration_MTurk/v2_DepthDuration_HTML.html#80,80,1280,720,1280,720,8-29-2022,14-31-26,15,depth_duration_stimuli/003081_2014-06-15_15-19-16_094959634447_rgbf000150-resize_1/003081_2014-06-15_15-19-16_094959634447_rgbf000150-resize_1-target.png,1000,3.9125,8,4120,1005,feet,jsons/v1_VE1000_randls_59_rotated.json,844016,1136277,46,Woman
15,646459,DepthScenes,duration_manipulation_targetAtFixation,jsons/v1_VE1000_randls_59_rotated.json,http://54.235.29.9/FacialAge/BNav_EC2/DepthDuration/v2_depth_duration_MTurk/v2_DepthDuration_HTML.html#80,80,1280,720,1280,720,8-29-2022,14-31-26,16,depth_duration_stimuli/001417_2014-06-19_16-25-36_260595134347_rgbf000115-resize_5/001417_2014-06-19_16-25-36_260595134347_rgbf000115-resize_5-target.png,1000,4.6255,10,4584,1012,feet,jsons/v1_VE1000_randls_59_rotated.json,844016,1136277,46,Woman
16,646459,DepthScenes,duration_manipulation_targetAtFixation,jsons/v1_VE1000_randls_59_rotated.json,http://54.235.29.9/FacialAge/BNav_EC2/DepthDuration/v2_depth_duration_MTurk/v2_DepthDuration_HTML.html#80,80,1280,720,1280,720,8-29-2022,14-31-26,17,depth_duration_stimuli/000780_2014-06-08_22-28-29_260595134347_rgbf000126-resize_1/000780_2014-06-08_22-28-29_260595134347_rgbf000126-resize_1-target.png,1000,3.3825,8,5110,991,feet,jsons/v1_VE1000_randls_59_rotated.json,844016,1136277,46,Woman
17,646459,DepthScenes,duration_manipulation_targetAtFixation,jsons/v1_VE1000_randls_59_rotated.json,http://54.235.29.9/FacialAge/BNav_EC2/DepthDuration/v2_depth_duration_MTurk/v2_DepthDuration_HTML.html#80,80,1280,720,1280,720,8-29-2022,14-31-26,18,depth_duration_stimuli/002445_2014-06-28_20-32-16_260595134347_rgbf000029-resize_4/002445_2014-06-28_20-32-16_260595134347_rgbf000029-resize_4-target.png,1000,2.5315,5,4522,1002,feet,jsons/v1_VE1000_randls_59_rotated.json,844016,1136277,46,Woman
18,646459,DepthScenes,duration_manipulation_targetAtFixation,jsons/v1_VE1000_randls_59_rotated.json,http://54.235.29.9/FacialAge/BNav_EC2/DepthDuration/v2_depth_duration_MTurk/v2_DepthDuration_HTML.html#80,80,1280,720,1280,720,8-29-2022,14-31-26,19,depth_duration_stimuli/001498_2014-06-19_17-45-14_260595134347_rgbf000129-resize_4/001498_2014-06-19_17-45-14_260595134347_rgbf000129-resize-original.jpg,1000,1.4075,0,5155,995,feet,jsons/v1_VE1000_randls_59_rotated.json,844016,1136277,46,Woman
19,646459,DepthScenes,duration_manipulation_targetAtFixation,jsons/v1_VE1000_randls_59_rotated.json,http://54.235.29.9/FacialAge/BNav_EC2/DepthDuration/v2_depth_duration_MTurk/v2_DepthDuration_HTML.html#80,80,1280,720,1280,720,8-29-2022,14-31-26,20,depth_duration_stimuli/003228_2014-05-14_13-42-35_094959634447_rgbf000101-resize_1/003228_2014-05-14_13-42-35_094959634447_rgbf000101-resize_1-target.png,1000,1.9680000000000002,4,4345,994,feet,jsons/v1_VE1000_randls_59_rotated.json,844016,1136277,46,Woman
20,646459,DepthScenes,duration_manipulation_targetAtFixation,jsons/v1_VE1000_randls_59_rotated.json,http://54.235.29.9/FacialAge/BNav_EC2/DepthDuration/v2_depth_duration_MTurk/v2_DepthDuration_HTML.html#80,80,1280,720,1280,720,8-29-2022,14-31-26,21,depth_duration_stimuli/002600_2014-06-24_14-27-04_094959634447_rgbf000074-resize_2/002600_2014-06-24_14-27-04_094959634447_rgbf000074-resize_2-target.png,1000,2.7575,7,4418,1011,feet,jsons/v1_VE1000_randls_59_rotated.json,844016,1136277,46,Woman
21,646459,DepthScenes,duration_manipulation_targetAtFixation,jsons/v1_VE1000_randls_59_rotated.json,http://54.235.29.9/FacialAge/BNav_EC2/DepthDuration/v2_depth_duration_MTurk/v2_DepthDuration_HTML.html#80,80,1280,720,1280,720,8-29-2022,14-31-26,22,depth_duration_stimuli/001571_2014-06-20_17-21-32_260595134347_rgbf000089-resize_1/001571_2014-06-20_17-21-32_260595134347_rgbf000089-resize_1-target.png,1000,1.86,5,4351,1011,feet,jsons/v1_VE1000_randls_59_rotated.json,844016,1136277,46,Woman
22,646459,DepthScenes,duration_manipulation_targetAtFixation,jsons/v1_VE1000_randls_59_rotated.json,http://54.235.29.9/FacialAge/BNav_EC2/DepthDuration/v2_depth_duration_MTurk/v2_DepthDuration_HTML.html#80,80,1280,720,1280,720,8-29-2022,14-31-26,23,depth_duration_stimuli/002272_2014-06-28_18-53-56_260595134347_rgbf000067-resize_2/002272_2014-06-28_18-53-56_260595134347_rgbf000067-resize_2-target.png,1000,1.138,3,4664,1009,feet,jsons/v1_VE1000_randls_59_rotated.json,844016,1136277,46,Woman
23,646459,DepthScenes,duration_manipulation_targetAtFixation,jsons/v1_VE1000_randls_59_rotated.json,http://54.235.29.9/FacialAge/BNav_EC2/DepthDuration/v2_depth_duration_MTurk/v2_DepthDuration_HTML.html#80,80,1280,720,1280,720,8-29-2022,14-31-26,24,depth_duration_stimuli/001828_2014-06-26_21-40-03_260595134347_rgbf000024-resize_0/001828_2014-06-26_21-40-03_260595134347_rgbf000024-resize_0-target.png,1000,4.8260000000000005,8,4170,1002,feet,jsons/v1_VE1000_randls_59_rotated.json,844016,1136277,46,Woman
24,646459,DepthScenes,duration_manipulation_targetAtFixation,jsons/v1_VE1000_randls_59_rotated.json,http://54.235.29.9/FacialAge/BNav_EC2/DepthDuration/v2_depth_duration_MTurk/v2_DepthDuration_HTML.html#80,80,1280,720,1280,720,8-29-2022,14-31-26,25,depth_duration_stimuli/000009_2014-05-26_14-32-05_260595134347_rgbf000034-resize_3/000009_2014-05-26_14-32-05_260595134347_rgbf000034-resize_3-target.png,1000,3.8715,15,5162,999,feet,jsons/v1_VE1000_randls_59_rotated.json,844016,1136277,46,Woman
25,646459,DepthScenes,duration_manipulation_targetAtFixation,jsons/v1_VE1000_randls_59_rotated.json,http://54.235.29.9/FacialAge/BNav_EC2/DepthDuration/v2_depth_duration_MTurk/v2_DepthDuration_HTML.html#80,80,1280,720,1280,720,8-29-2022,14-31-26,26,depth_duration_stimuli/000409_2014-06-04_19-23-33_260595134347_rgbf000067-resize_0/000409_2014-06-04_19-23-33_260595134347_rgbf000067-resize_0-target.png,1000,3.7335,10,5101,1007,feet,jsons/v1_VE1000_randls_59_rotated.json,844016,1136277,46,Woman
26,646459,DepthScenes,duration_manipulation_targetAtFixation,jsons/v1_VE1000_randls_59_rotated.json,http://54.235.29.9/FacialAge/BNav_EC2/DepthDuration/v2_depth_duration_MTurk/v2_DepthDuration_HTML.html#80,80,1280,720,1280,720,8-29-2022,14-31-26,27,depth_duration_stimuli/002663_2014-06-13_15-50-26_094959634447_rgbf000075-resize_1/002663_2014-06-13_15-50-26_094959634447_rgbf000075-resize_1-target.png,1000,4.7495,15,4738,990,feet,jsons/v1_VE1000_randls_59_rotated.json,844016,1136277,46,Woman
27,646459,DepthScenes,duration_manipulation_targetAtFixation,jsons/v1_VE1000_randls_59_rotated.json,http://54.235.29.9/FacialAge/BNav_EC2/DepthDuration/v2_depth_duration_MTurk/v2_DepthDuration_HTML.html#80,80,1280,720,1280,720,8-29-2022,14-31-26,28,depth_duration_stimuli/001392_2014-06-19_16-07-59_260595134347_rgbf000046-resize_1/001392_2014-06-19_16-07-59_260595134347_rgbf000046-resize_1-target.png,1000,4.135,10,5443,997,feet,jsons/v1_VE1000_randls_59_rotated.json,844016,1136277,46,Woman
28,646459,DepthScenes,duration_manipulation_targetAtFixation,jsons/v1_VE1000_randls_59_rotated.json,http://54.235.29.9/FacialAge/BNav_EC2/DepthDuration/v2_depth_duration_MTurk/v2_DepthDuration_HTML.html#80,80,1280,720,1280,720,8-29-2022,14-31-26,29,depth_duration_stimuli/001570_2014-06-20_17-21-09_260595134347_rgbf000135-resize_4/001570_2014-06-20_17-21-09_260595134347_rgbf000135-resize_4-target.png,1000,4.467,10,5404,1010,feet,jsons/v1_VE1000_randls_59_rotated.json,844016,1136277,46,Woman
29,646459,DepthScenes,duration_manipulation_targetAtFixation,jsons/v1_VE1000_randls_59_rotated.json,http://54.235.29.9/FacialAge/BNav_EC2/DepthDuration/v2_depth_duration_MTurk/v2_DepthDuration_HTML.html#80,80,1280,720,1280,720,8-29-2022,14-31-26,30,depth_duration_stimuli/002072_2014-06-24_21-48-06_260595134347_rgbf000115-resize_0/002072_2014-06-24_21-48-06_260595134347_rgbf000115-resize-original.jpg,1000,4.702,0,4337,995,feet,jsons/v1_VE1000_randls_59_rotated.json,844016,1136277,46,Woman
30,646459,DepthScenes,duration_manipulation_targetAtFixation,jsons/v1_VE1000_randls_59_rotated.json,http://54.235.29.9/FacialAge/BNav_EC2/DepthDuration/v2_depth_duration_MTurk/v2_DepthDuration_HTML.html#80,80,1280,720,1280,720,8-29-2022,14-31-26,31,depth_duration_stimuli/002344_2014-06-28_20-06-29_260595134347_rgbf000030-resize_1/002344_2014-06-28_20-06-29_260595134347_rgbf000030-resize_1-target.png,1000,1.5795,3,4522,991,feet,jsons/v1_VE1000_randls_59_rotated.json,844016,1136277,46,Woman
31,646459,DepthScenes,duration_manipulation_targetAtFixation,jsons/v1_VE1000_randls_59_rotated.json,http://54.235.29.9/FacialAge/BNav_EC2/DepthDuration/v2_depth_duration_MTurk/v2_DepthDuration_HTML.html#80,80,1280,720,1280,720,8-29-2022,14-31-26,32,depth_duration_stimuli/002725_2014-06-22_11-47-51_094959634447_rgbf000070-resize_1/002725_2014-06-22_11-47-51_094959634447_rgbf000070-resize_1-target.png,1000,2.195,5,4903,1006,feet,jsons/v1_VE1000_randls_59_rotated.json,844016,1136277,46,Woman
32,646459,DepthScenes,duration_manipulation_targetAtFixation,jsons/v1_VE1000_randls_59_rotated.json,http://54.235.29.9/FacialAge/BNav_EC2/DepthDuration/v2_depth_duration_MTurk/v2_DepthDuration_HTML.html#80,80,1280,720,1280,720,8-29-2022,14-31-26,33,depth_duration_stimuli/001100_2014-06-15_17-46-26_260595134347_rgbf000225-resize_2/001100_2014-06-15_17-46-26_260595134347_rgbf000225-resize_2-target.png,1000,2.24,3,4716,986,feet,jsons/v1_VE1000_randls_59_rotated.json,844016,1136277,46,Woman
33,646459,DepthScenes,duration_manipulation_targetAtFixation,jsons/v1_VE1000_randls_59_rotated.json,http://54.235.29.9/FacialAge/BNav_EC2/DepthDuration/v2_depth_duration_MTurk/v2_DepthDuration_HTML.html#80,80,1280,720,1280,720,8-29-2022,14-31-26,34,depth_duration_stimuli/002784_2014-06-22_19-26-30_094959634447_rgbf000083-resize_3/002784_2014-06-22_19-26-30_094959634447_rgbf000083-resize_3-target.png,1000,1.8046666666667,5,4434,993,feet,jsons/v1_VE1000_randls_59_rotated.json,844016,1136277,46,Woman
34,646459,DepthScenes,duration_manipulation_targetAtFixation,jsons/v1_VE1000_randls_59_rotated.json,http://54.235.29.9/FacialAge/BNav_EC2/DepthDuration/v2_depth_duration_MTurk/v2_DepthDuration_HTML.html#80,80,1280,720,1280,720,8-29-2022,14-31-26,35,depth_duration_stimuli/002750_2014-06-22_19-08-03_094959634447_rgbf000094-resize_4/002750_2014-06-22_19-08-03_094959634447_rgbf000094-resize_4-target.png,1000,2.354,6,4346,999,feet,jsons/v1_VE1000_randls_59_rotated.json,844016,1136277,46,Woman
35,646459,DepthScenes,duration_manipulation_targetAtFixation,jsons/v1_VE1000_randls_59_rotated.json,http://54.235.29.9/FacialAge/BNav_EC2/DepthDuration/v2_depth_duration_MTurk/v2_DepthDuration_HTML.html#80,80,1280,720,1280,720,8-29-2022,14-31-26,36,depth_duration_stimuli/002549_2014-06-24_13-41-39_094959634447_rgbf000022-resize_3/002549_2014-06-24_13-41-39_094959634447_rgbf000022-resize_3-target.png,1000,1.476,4,4263,1007,feet,jsons/v1_VE1000_randls_59_rotated.json,844016,1136277,46,Woman
36,646459,DepthScenes,duration_manipulation_targetAtFixation,jsons/v1_VE1000_randls_59_rotated.json,http://54.235.29.9/FacialAge/BNav_EC2/DepthDuration/v2_depth_duration_MTurk/v2_DepthDuration_HTML.html#80,80,1280,720,1280,720,8-29-2022,14-31-26,37,depth_duration_stimuli/003010_2014-06-15_12-54-35_094959634447_rgbf000112-resize_0/003010_2014-06-15_12-54-35_094959634447_rgbf000112-resize_0-target.png,1000,3.1185,15,4490,1002,feet,jsons/v1_VE1000_randls_59_rotated.json,844016,1136277,46,Woman
37,646459,DepthScenes,duration_manipulation_targetAtFixation,jsons/v1_VE1000_randls_59_rotated.json,http://54.235.29.9/FacialAge/BNav_EC2/DepthDuration/v2_depth_duration_MTurk/v2_DepthDuration_HTML.html#80,80,1280,720,1280,720,8-29-2022,14-31-26,38,depth_duration_stimuli/001810_2014-06-26_20-51-35_260595134347_rgbf000040-resize_3/001810_2014-06-26_20-51-35_260595134347_rgbf000040-resize_3-target.png,1000,2.2525,5,4750,1006,feet,jsons/v1_VE1000_randls_59_rotated.json,844016,1136277,46,Woman
38,646459,DepthScenes,duration_manipulation_targetAtFixation,jsons/v1_VE1000_randls_59_rotated.json,http://54.235.29.9/FacialAge/BNav_EC2/DepthDuration/v2_depth_duration_MTurk/v2_DepthDuration_HTML.html#80,80,1280,720,1280,720,8-29-2022,14-31-26,39,depth_duration_stimuli/003083_2014-06-15_15-21-03_094959634447_rgbf000063-resize_1/003083_2014-06-15_15-21-03_094959634447_rgbf000063-resize_1-target.png,1000,4.1405,20,4762,994,feet,jsons/v1_VE1000_randls_59_rotated.json,844016,1136277,46,Woman
39,646459,DepthScenes,duration_manipulation_targetAtFixation,jsons/v1_VE1000_randls_59_rotated.json,http://54.235.29.9/FacialAge/BNav_EC2/DepthDuration/v2_depth_duration_MTurk/v2_DepthDuration_HTML.html#80,80,1280,720,1280,720,8-29-2022,14-31-26,40,depth_duration_stimuli/000486_2014-06-09_20-47-20_260595134347_rgbf000143-resize_2/000486_2014-06-09_20-47-20_260595134347_rgbf000143-resize_2-target.png,1000,4.8325,10,5183,1009,feet,jsons/v1_VE1000_randls_59_rotated.json,844016,1136277,46,Woman
40,646459,DepthScenes,duration_manipulation_targetAtFixation,jsons/v1_VE1000_randls_59_rotated.json,http://54.235.29.9/FacialAge/BNav_EC2/DepthDuration/v2_depth_duration_MTurk/v2_DepthDuration_HTML.html#80,80,1280,720,1280,720,8-29-2022,14-31-26,41,depth_duration_stimuli/002323_2014-06-28_20-01-54_260595134347_rgbf000051-resize_4/002323_2014-06-28_20-01-54_260595134347_rgbf000051-resize_4-target.png,1000,3.7310000000000003,10,5062,998,feet,jsons/v1_VE1000_randls_59_rotated.json,844016,1136277,46,Woman
41,646459,DepthScenes,duration_manipulation_targetAtFixation,jsons/v1_VE1000_randls_59_rotated.json,http://54.235.29.9/FacialAge/BNav_EC2/DepthDuration/v2_depth_duration_MTurk/v2_DepthDuration_HTML.html#80,80,1280,720,1280,720,8-29-2022,14-31-26,42,depth_duration_stimuli/000917_2014-06-09_22-45-29_260595134347_rgbf000149-resize_3/000917_2014-06-09_22-45-29_260595134347_rgbf000149-resize_3-target.png,1000,4.1865,8,4262,1001,feet,jsons/v1_VE1000_randls_59_rotated.json,844016,1136277,46,Woman
42,646459,DepthScenes,duration_manipulation_targetAtFixation,jsons/v1_VE1000_randls_59_rotated.json,http://54.235.29.9/FacialAge/BNav_EC2/DepthDuration/v2_depth_duration_MTurk/v2_DepthDuration_HTML.html#80,80,1280,720,1280,720,8-29-2022,14-31-26,43,depth_duration_stimuli/002949_2014-06-26_15-57-42_094959634447_rgbf000079-resize_1/002949_2014-06-26_15-57-42_094959634447_rgbf000079-resize_1-target.png,1000,1.8915,5,4176,987,feet,jsons/v1_VE1000_randls_59_rotated.json,844016,1136277,46,Woman
43,646459,DepthScenes,duration_manipulation_targetAtFixation,jsons/v1_VE1000_randls_59_rotated.json,http://54.235.29.9/FacialAge/BNav_EC2/DepthDuration/v2_depth_duration_MTurk/v2_DepthDuration_HTML.html#80,80,1280,720,1280,720,8-29-2022,14-31-26,44,depth_duration_stimuli/000522_2014-06-08_13-35-06_260595134347_rgbf000244-resize_1/000522_2014-06-08_13-35-06_260595134347_rgbf000244-resize_1-target.png,1000,2.3715,3,4329,996,feet,jsons/v1_VE1000_randls_59_rotated.json,844016,1136277,46,Woman
44,646459,DepthScenes,duration_manipulation_targetAtFixation,jsons/v1_VE1000_randls_59_rotated.json,http://54.235.29.9/FacialAge/BNav_EC2/DepthDuration/v2_depth_duration_MTurk/v2_DepthDuration_HTML.html#80,80,1280,720,1280,720,8-29-2022,14-31-26,45,depth_duration_stimuli/000677_2014-06-08_23-10-32_260595134347_rgbf000158-resize_6/000677_2014-06-08_23-10-32_260595134347_rgbf000158-resize_6-target.png,1000,3.556,10,5058,1001,feet,jsons/v1_VE1000_randls_59_rotated.json,844016,1136277,46,Woman
45,646459,DepthScenes,duration_manipulation_targetAtFixation,jsons/v1_VE1000_randls_59_rotated.json,http://54.235.29.9/FacialAge/BNav_EC2/DepthDuration/v2_depth_duration_MTurk/v2_DepthDuration_HTML.html#80,80,1280,720,1280,720,8-29-2022,14-31-26,46,depth_duration_stimuli/001029_2014-06-08_13-17-57_260595134347_rgbf000065-resize_1/001029_2014-06-08_13-17-57_260595134347_rgbf000065-resize_1-target.png,1000,3.0835,7,4486,1005,feet,jsons/v1_VE1000_randls_59_rotated.json,844016,1136277,46,Woman
46,646459,DepthScenes,duration_manipulation_targetAtFixation,jsons/v1_VE1000_randls_59_rotated.json,http://54.235.29.9/FacialAge/BNav_EC2/DepthDuration/v2_depth_duration_MTurk/v2_DepthDuration_HTML.html#80,80,1280,720,1280,720,8-29-2022,14-31-26,47,depth_duration_stimuli/000109_2014-05-14_23-41-52_260595134347_rgbf000035-resize_9/000109_2014-05-14_23-41-52_260595134347_rgbf000035-resize_9-target.png,1000,1.3545,3,4430,993,feet,jsons/v1_VE1000_randls_59_rotated.json,844016,1136277,46,Woman
47,646459,DepthScenes,duration_manipulation_targetAtFixation,jsons/v1_VE1000_randls_59_rotated.json,http://54.235.29.9/FacialAge/BNav_EC2/DepthDuration/v2_depth_duration_MTurk/v2_DepthDuration_HTML.html#80,80,1280,720,1280,720,8-29-2022,14-31-26,48,depth_duration_stimuli/000470_2014-06-09_19-42-40_260595134347_rgbf000094-resize_1/000470_2014-06-09_19-42-40_260595134347_rgbf000094-resize_1-target.png,1000,1.831,5,4124,1004,feet,jsons/v1_VE1000_randls_59_rotated.json,844016,1136277,46,Woman
48,646459,DepthScenes,duration_manipulation_targetAtFixation,jsons/v1_VE1000_randls_59_rotated.json,http://54.235.29.9/FacialAge/BNav_EC2/DepthDuration/v2_depth_duration_MTurk/v2_DepthDuration_HTML.html#80,80,1280,720,1280,720,8-29-2022,14-31-26,49,depth_duration_stimuli/001170_2014-06-17_15-43-44_260595134347_rgbf000096-resize_6/001170_2014-06-17_15-43-44_260595134347_rgbf000096-resize-original.jpg,1000,1.1909999999999998,0,4057,1004,feet,jsons/v1_VE1000_randls_59_rotated.json,844016,1136277,46,Woman
49,646459,DepthScenes,duration_manipulation_targetAtFixation,jsons/v1_VE1000_randls_59_rotated.json,http://54.235.29.9/FacialAge/BNav_EC2/DepthDuration/v2_depth_duration_MTurk/v2_DepthDuration_HTML.html#80,80,1280,720,1280,720,8-29-2022,14-31-26,50,depth_duration_stimuli/003490_2014-05-21_15-50-11_094959634447_rgbf000101-resize_3/003490_2014-05-21_15-50-11_094959634447_rgbf000101-resize_3-target.png,1000,3.6445,5,4594,996,feet,jsons/v1_VE1000_randls_59_rotated.json,844016,1136277,46,Woman
50,646459,DepthScenes,duration_manipulation_targetAtFixation,jsons/v1_VE1000_randls_59_rotated.json,http://54.235.29.9/FacialAge/BNav_EC2/DepthDuration/v2_depth_duration_MTurk/v2_DepthDuration_HTML.html#80,80,1280,720,1280,720,8-29-2022,14-31-26,51,depth_duration_stimuli/001175_2014-06-17_15-45-55_260595134347_rgbf000129-resize_4/001175_2014-06-17_15-45-55_260595134347_rgbf000129-resize_4-target.png,1000,4.255,15,5473,1003,feet,jsons/v1_VE1000_randls_59_rotated.json,844016,1136277,46,Woman
51,646459,DepthScenes,duration_manipulation_targetAtFixation,jsons/v1_VE1000_randls_59_rotated.json,http://54.235.29.9/FacialAge/BNav_EC2/DepthDuration/v2_depth_duration_MTurk/v2_DepthDuration_HTML.html#80,80,1280,720,1280,720,8-29-2022,14-31-26,52,depth_duration_stimuli/002568_2014-06-24_13-59-21_094959634447_rgbf000062-resize_4/002568_2014-06-24_13-59-21_094959634447_rgbf000062-resize_4-target.png,1000,3.015,10,6093,995,feet,jsons/v1_VE1000_randls_59_rotated.json,844016,1136277,46,Woman
52,646459,DepthScenes,duration_manipulation_targetAtFixation,jsons/v1_VE1000_randls_59_rotated.json,http://54.235.29.9/FacialAge/BNav_EC2/DepthDuration/v2_depth_duration_MTurk/v2_DepthDuration_HTML.html#80,80,1280,720,1280,720,8-29-2022,14-31-26,53,depth_duration_stimuli/003492_2014-05-21_15-50-55_094959634447_rgbf000828-resize_1/003492_2014-05-21_15-50-55_094959634447_rgbf000828-resize_1-target.png,1000,4.06875,20,5509,987,feet,jsons/v1_VE1000_randls_59_rotated.json,844016,1136277,46,Woman
53,646459,DepthScenes,duration_manipulation_targetAtFixation,jsons/v1_VE1000_randls_59_rotated.json,http://54.235.29.9/FacialAge/BNav_EC2/DepthDuration/v2_depth_duration_MTurk/v2_DepthDuration_HTML.html#80,80,1280,720,1280,720,8-29-2022,14-31-26,54,depth_duration_stimuli/001516_2014-06-20_16-25-09_260595134347_rgbf000076-resize_2/001516_2014-06-20_16-25-09_260595134347_rgbf000076-resize_2-target.png,1000,1.7445,8,3943,990,feet,jsons/v1_VE1000_randls_59_rotated.json,844016,1136277,46,Woman
54,646459,DepthScenes,duration_manipulation_targetAtFixation,jsons/v1_VE1000_randls_59_rotated.json,http://54.235.29.9/FacialAge/BNav_EC2/DepthDuration/v2_depth_duration_MTurk/v2_DepthDuration_HTML.html#80,80,1280,720,1280,720,8-29-2022,14-31-26,55,depth_duration_stimuli/002118_2014-06-25_20-32-08_260595134347_rgbf000078-resize_1/002118_2014-06-25_20-32-08_260595134347_rgbf000078-resize_1-target.png,1000,2.6460000000000004,6,5405,1006,feet,jsons/v1_VE1000_randls_59_rotated.json,844016,1136277,46,Woman
55,646459,DepthScenes,duration_manipulation_targetAtFixation,jsons/v1_VE1000_randls_59_rotated.json,http://54.235.29.9/FacialAge/BNav_EC2/DepthDuration/v2_depth_duration_MTurk/v2_DepthDuration_HTML.html#80,80,1280,720,1280,720,8-29-2022,14-31-26,56,depth_duration_stimuli/002425_2014-06-28_20-27-29_260595134347_rgbf000031-resize_8/002425_2014-06-28_20-27-29_260595134347_rgbf000031-resize_8-target.png,1000,3.8960000000000004,8,3934,991,feet,jsons/v1_VE1000_randls_59_rotated.json,844016,1136277,46,Woman
56,646459,DepthScenes,duration_manipulation_targetAtFixation,jsons/v1_VE1000_randls_59_rotated.json,http://54.235.29.9/FacialAge/BNav_EC2/DepthDuration/v2_depth_duration_MTurk/v2_DepthDuration_HTML.html#80,80,1280,720,1280,720,8-29-2022,14-31-26,57,depth_duration_stimuli/000642_2014-06-08_16-59-25_260595134347_rgbf000098-resize_2/000642_2014-06-08_16-59-25_260595134347_rgbf000098-resize_2-target.png,1000,2.8815,6,4612,984,feet,jsons/v1_VE1000_randls_59_rotated.json,844016,1136277,46,Woman
57,646459,DepthScenes,duration_manipulation_targetAtFixation,jsons/v1_VE1000_randls_59_rotated.json,http://54.235.29.9/FacialAge/BNav_EC2/DepthDuration/v2_depth_duration_MTurk/v2_DepthDuration_HTML.html#80,80,1280,720,1280,720,8-29-2022,14-31-26,58,depth_duration_stimuli/002758_2014-06-22_19-11-20_094959634447_rgbf000128-resize_1/002758_2014-06-22_19-11-20_094959634447_rgbf000128-resize_1-target.png,1000,2.555,5,4477,997,feet,jsons/v1_VE1000_randls_59_rotated.json,844016,1136277,46,Woman
58,646459,DepthScenes,duration_manipulation_targetAtFixation,jsons/v1_VE1000_randls_59_rotated.json,http://54.235.29.9/FacialAge/BNav_EC2/DepthDuration/v2_depth_duration_MTurk/v2_DepthDuration_HTML.html#80,80,1280,720,1280,720,8-29-2022,14-31-26,59,depth_duration_stimuli/002630_2014-06-24_14-47-50_094959634447_rgbf000055-resize_1/002630_2014-06-24_14-47-50_094959634447_rgbf000055-resize_1-target.png,1000,3.0095,9,4230,1007,feet,jsons/v1_VE1000_randls_59_rotated.json,844016,1136277,46,Woman
59,646459,DepthScenes,duration_manipulation_targetAtFixation,jsons/v1_VE1000_randls_59_rotated.json,http://54.235.29.9/FacialAge/BNav_EC2/DepthDuration/v2_depth_duration_MTurk/v2_DepthDuration_HTML.html#80,80,1280,720,1280,720,8-29-2022,14-31-26,60,depth_duration_stimuli/000635_2014-06-08_16-38-42_260595134347_rgbf000106-resize_1/000635_2014-06-08_16-38-42_260595134347_rgbf000106-resize_1-target.png,1000,2.074,8,4192,986,feet,jsons/v1_VE1000_randls_59_rotated.json,844016,1136277,46,Woman
60,646459,DepthScenes,duration_manipulation_targetAtFixation,jsons/v1_VE1000_randls_59_rotated.json,http://54.235.29.9/FacialAge/BNav_EC2/DepthDuration/v2_depth_duration_MTurk/v2_DepthDuration_HTML.html#80,80,1280,720,1280,720,8-29-2022,14-31-26,61,depth_duration_stimuli/002279_2014-06-28_18-55-32_260595134347_rgbf000040-resize_5/002279_2014-06-28_18-55-32_260595134347_rgbf000040-resize_5-target.png,1000,1.5043333333333,4,4641,995,feet,jsons/v1_VE1000_randls_59_rotated.json,844016,1136277,46,Woman
61,646459,DepthScenes,duration_manipulation_targetAtFixation,jsons/v1_VE1000_randls_59_rotated.json,http://54.235.29.9/FacialAge/BNav_EC2/DepthDuration/v2_depth_duration_MTurk/v2_DepthDuration_HTML.html#80,80,1280,720,1280,720,8-29-2022,14-31-26,62,depth_duration_stimuli/002875_2014-06-01_15-19-00_094959634447_rgbf000151-resize_1/002875_2014-06-01_15-19-00_094959634447_rgbf000151-resize_1-target.png,1000,1.9675,5,4203,985,feet,jsons/v1_VE1000_randls_59_rotated.json,844016,1136277,46,Woman
62,646459,DepthScenes,duration_manipulation_targetAtFixation,jsons/v1_VE1000_randls_59_rotated.json,http://54.235.29.9/FacialAge/BNav_EC2/DepthDuration/v2_depth_duration_MTurk/v2_DepthDuration_HTML.html#80,80,1280,720,1280,720,8-29-2022,14-31-26,63,depth_duration_stimuli/001011_2014-06-08_23-18-54_260595134347_rgbf000044-resize_4/001011_2014-06-08_23-18-54_260595134347_rgbf000044-resize_4-target.png,1000,2.4730000000000003,8,4660,1017,feet,jsons/v1_VE1000_randls_59_rotated.json,844016,1136277,46,Woman
63,646459,DepthScenes,duration_manipulation_targetAtFixation,jsons/v1_VE1000_randls_59_rotated.json,http://54.235.29.9/FacialAge/BNav_EC2/DepthDuration/v2_depth_duration_MTurk/v2_DepthDuration_HTML.html#80,80,1280,720,1280,720,8-29-2022,14-31-26,64,depth_duration_stimuli/002467_2014-06-28_20-38-07_260595134347_rgbf000026-resize_2/002467_2014-06-28_20-38-07_260595134347_rgbf000026-resize_2-target.png,1000,4.742,15,6090,996,feet,jsons/v1_VE1000_randls_59_rotated.json,844016,1136277,46,Woman
64,646459,DepthScenes,duration_manipulation_targetAtFixation,jsons/v1_VE1000_randls_59_rotated.json,http://54.235.29.9/FacialAge/BNav_EC2/DepthDuration/v2_depth_duration_MTurk/v2_DepthDuration_HTML.html#80,80,1280,720,1280,720,8-29-2022,14-31-26,65,depth_duration_stimuli/002570_2014-06-24_13-59-54_094959634447_rgbf000059-resize_0/002570_2014-06-24_13-59-54_094959634447_rgbf000059-resize_0-target.png,1000,4.037,10,5005,1007,feet,jsons/v1_VE1000_randls_59_rotated.json,844016,1136277,46,Woman
65,646459,DepthScenes,duration_manipulation_targetAtFixation,jsons/v1_VE1000_randls_59_rotated.json,http://54.235.29.9/FacialAge/BNav_EC2/DepthDuration/v2_depth_duration_MTurk/v2_DepthDuration_HTML.html#80,80,1280,720,1280,720,8-29-2022,14-31-26,66,depth_duration_stimuli/001540_2014-06-20_17-01-05_260595134347_rgbf000086-resize_2/001540_2014-06-20_17-01-05_260595134347_rgbf000086-resize-original.jpg,1000,1.459,0,4256,1004,feet,jsons/v1_VE1000_randls_59_rotated.json,844016,1136277,46,Woman
66,646459,DepthScenes,duration_manipulation_targetAtFixation,jsons/v1_VE1000_randls_59_rotated.json,http://54.235.29.9/FacialAge/BNav_EC2/DepthDuration/v2_depth_duration_MTurk/v2_DepthDuration_HTML.html#80,80,1280,720,1280,720,8-29-2022,14-31-26,67,depth_duration_stimuli/001132_2014-06-17_14-48-54_260595134347_rgbf000100-resize_2/001132_2014-06-17_14-48-54_260595134347_rgbf000100-resize_2-target.png,1000,3.753,10,4664,998,feet,jsons/v1_VE1000_randls_59_rotated.json,844016,1136277,46,Woman
67,646459,DepthScenes,duration_manipulation_targetAtFixation,jsons/v1_VE1000_randls_59_rotated.json,http://54.235.29.9/FacialAge/BNav_EC2/DepthDuration/v2_depth_duration_MTurk/v2_DepthDuration_HTML.html#80,80,1280,720,1280,720,8-29-2022,14-31-26,68,depth_duration_stimuli/001133_2014-06-17_14-49-16_260595134347_rgbf000100-resize_0/001133_2014-06-17_14-49-16_260595134347_rgbf000100-resize_0-target.png,1000,4.2115,15,4478,993,feet,jsons/v1_VE1000_randls_59_rotated.json,844016,1136277,46,Woman
68,646459,DepthScenes,duration_manipulation_targetAtFixation,jsons/v1_VE1000_randls_59_rotated.json,http://54.235.29.9/FacialAge/BNav_EC2/DepthDuration/v2_depth_duration_MTurk/v2_DepthDuration_HTML.html#80,80,1280,720,1280,720,8-29-2022,14-31-26,69,depth_duration_stimuli/000457_2014-06-08_16-52-43_260595134347_rgbf000199-resize_1/000457_2014-06-08_16-52-43_260595134347_rgbf000199-resize_1-target.png,1000,3.6489999999999996,10,4737,997,feet,jsons/v1_VE1000_randls_59_rotated.json,844016,1136277,46,Woman
69,646459,DepthScenes,duration_manipulation_targetAtFixation,jsons/v1_VE1000_randls_59_rotated.json,http://54.235.29.9/FacialAge/BNav_EC2/DepthDuration/v2_depth_duration_MTurk/v2_DepthDuration_HTML.html#80,80,1280,720,1280,720,8-29-2022,14-31-26,70,depth_duration_stimuli/000929_2014-06-09_16-33-19_260595134347_rgbf000139-resize_0/000929_2014-06-09_16-33-19_260595134347_rgbf000139-resize_0-target.png,1000,2.8680000000000003,8,4159,1009,feet,jsons/v1_VE1000_randls_59_rotated.json,844016,1136277,46,Woman
70,646459,DepthScenes,duration_manipulation_targetAtFixation,jsons/v1_VE1000_randls_59_rotated.json,http://54.235.29.9/FacialAge/BNav_EC2/DepthDuration/v2_depth_duration_MTurk/v2_DepthDuration_HTML.html#80,80,1280,720,1280,720,8-29-2022,14-31-26,71,depth_duration_stimuli/003129_2014-05-12_10-48-10_094959634447_rgbf000100-resize_0/003129_2014-05-12_10-48-10_094959634447_rgbf000100-resize_0-target.png,1000,4.9305,10,4946,1010,feet,jsons/v1_VE1000_randls_59_rotated.json,844016,1136277,46,Woman
71,646459,DepthScenes,duration_manipulation_targetAtFixation,jsons/v1_VE1000_randls_59_rotated.json,http://54.235.29.9/FacialAge/BNav_EC2/DepthDuration/v2_depth_duration_MTurk/v2_DepthDuration_HTML.html#80,80,1280,720,1280,720,8-29-2022,14-31-26,72,depth_duration_stimuli/000414_2014-06-04_19-49-13_260595134347_rgbf000044-resize_0/000414_2014-06-04_19-49-13_260595134347_rgbf000044-resize_0-target.png,1000,4.329,12,4619,977,feet,jsons/v1_VE1000_randls_59_rotated.json,844016,1136277,46,Woman
72,646459,DepthScenes,duration_manipulation_targetAtFixation,jsons/v1_VE1000_randls_59_rotated.json,http://54.235.29.9/FacialAge/BNav_EC2/DepthDuration/v2_depth_duration_MTurk/v2_DepthDuration_HTML.html#80,80,1280,720,1280,720,8-29-2022,14-31-26,73,depth_duration_stimuli/002209_2014-06-28_18-36-10_260595134347_rgbf000051-resize_1/002209_2014-06-28_18-36-10_260595134347_rgbf000051-resize_1-target.png,1000,2.057,5,4256,1004,feet,jsons/v1_VE1000_randls_59_rotated.json,844016,1136277,46,Woman
73,646459,DepthScenes,duration_manipulation_targetAtFixation,jsons/v1_VE1000_randls_59_rotated.json,http://54.235.29.9/FacialAge/BNav_EC2/DepthDuration/v2_depth_duration_MTurk/v2_DepthDuration_HTML.html#80,80,1280,720,1280,720,8-29-2022,14-31-26,74,depth_duration_stimuli/002763_2014-06-22_19-13-10_094959634447_rgbf000075-resize_4/002763_2014-06-22_19-13-10_094959634447_rgbf000075-resize_4-target.png,1000,1.68375,6,4218,1000,feet,jsons/v1_VE1000_randls_59_rotated.json,844016,1136277,46,Woman
74,646459,DepthScenes,duration_manipulation_targetAtFixation,jsons/v1_VE1000_randls_59_rotated.json,http://54.235.29.9/FacialAge/BNav_EC2/DepthDuration/v2_depth_duration_MTurk/v2_DepthDuration_HTML.html#80,80,1280,720,1280,720,8-29-2022,14-31-26,75,depth_duration_stimuli/002545_2014-06-24_13-38-53_094959634447_rgbf000080-resize_4/002545_2014-06-24_13-38-53_094959634447_rgbf000080-resize_4-target.png,1000,1.9205,8,3968,995,feet,jsons/v1_VE1000_randls_59_rotated.json,844016,1136277,46,Woman
75,646459,DepthScenes,duration_manipulation_targetAtFixation,jsons/v1_VE1000_randls_59_rotated.json,http://54.235.29.9/FacialAge/BNav_EC2/DepthDuration/v2_depth_duration_MTurk/v2_DepthDuration_HTML.html#80,80,1280,720,1280,720,8-29-2022,14-31-26,76,depth_duration_stimuli/001092_2014-06-15_17-34-58_260595134347_rgbf000171-resize_3/001092_2014-06-15_17-34-58_260595134347_rgbf000171-resize_3-target.png,1000,2.6935,6,4137,991,feet,jsons/v1_VE1000_randls_59_rotated.json,844016,1136277,46,Woman
76,646459,DepthScenes,duration_manipulation_targetAtFixation,jsons/v1_VE1000_randls_59_rotated.json,http://54.235.29.9/FacialAge/BNav_EC2/DepthDuration/v2_depth_duration_MTurk/v2_DepthDuration_HTML.html#80,80,1280,720,1280,720,8-29-2022,14-31-26,77,depth_duration_stimuli/001032_2014-06-08_13-23-17_260595134347_rgbf000021-resize_3/001032_2014-06-08_13-23-17_260595134347_rgbf000021-resize_3-target.png,1000,3.2725,6,4798,1004,feet,jsons/v1_VE1000_randls_59_rotated.json,844016,1136277,46,Woman
77,646459,DepthScenes,duration_manipulation_targetAtFixation,jsons/v1_VE1000_randls_59_rotated.json,http://54.235.29.9/FacialAge/BNav_EC2/DepthDuration/v2_depth_duration_MTurk/v2_DepthDuration_HTML.html#80,80,1280,720,1280,720,8-29-2022,14-31-26,78,depth_duration_stimuli/001059_2014-06-08_21-53-27_260595134347_rgbf000061-resize_4/001059_2014-06-08_21-53-27_260595134347_rgbf000061-resize_4-target.png,1000,2.4185,5,4202,1001,feet,jsons/v1_VE1000_randls_59_rotated.json,844016,1136277,46,Woman
78,646459,DepthScenes,duration_manipulation_targetAtFixation,jsons/v1_VE1000_randls_59_rotated.json,http://54.235.29.9/FacialAge/BNav_EC2/DepthDuration/v2_depth_duration_MTurk/v2_DepthDuration_HTML.html#80,80,1280,720,1280,720,8-29-2022,14-31-26,79,depth_duration_stimuli/001447_2014-06-19_17-00-32_260595134347_rgbf000082-resize_5/001447_2014-06-19_17-00-32_260595134347_rgbf000082-resize_5-target.png,1000,4.13775,8,4867,1003,feet,jsons/v1_VE1000_randls_59_rotated.json,844016,1136277,46,Woman
79,646459,DepthScenes,duration_manipulation_targetAtFixation,jsons/v1_VE1000_randls_59_rotated.json,http://54.235.29.9/FacialAge/BNav_EC2/DepthDuration/v2_depth_duration_MTurk/v2_DepthDuration_HTML.html#80,80,1280,720,1280,720,8-29-2022,14-31-26,80,depth_duration_stimuli/000447_2014-06-08_16-15-46_260595134347_rgbf000130-resize_1/000447_2014-06-08_16-15-46_260595134347_rgbf000130-resize_1-target.png,1000,4.479,10,4458,994,feet,jsons/v1_VE1000_randls_59_rotated.json,844016,1136277,46,Woman
80,646459,DepthScenes,duration_manipulation_targetAtFixation,jsons/v1_VE1000_randls_59_rotated.json,http://54.235.29.9/FacialAge/BNav_EC2/DepthDuration/v2_depth_duration_MTurk/v2_DepthDuration_HTML.html#80,80,1280,720,1280,720,8-29-2022,14-31-26,81,depth_duration_stimuli/002136_2014-06-25_21-18-03_260595134347_rgbf000109-resize_3/002136_2014-06-25_21-18-03_260595134347_rgbf000109-resize_3-target.png,1000,1.9569999999999999,5,4474,1005,feet,jsons/v1_VE1000_randls_59_rotated.json,844016,1136277,46,Woman
81,646459,DepthScenes,duration_manipulation_targetAtFixation,jsons/v1_VE1000_randls_59_rotated.json,http://54.235.29.9/FacialAge/BNav_EC2/DepthDuration/v2_depth_duration_MTurk/v2_DepthDuration_HTML.html#80,80,1280,720,1280,720,8-29-2022,14-31-26,82,depth_duration_stimuli/002964_2014-06-08_17-46-11_094959634447_rgbf000091-resize_4/002964_2014-06-08_17-46-11_094959634447_rgbf000091-resize_4-target.png,1000,1.6909999999999998,3,5003,1005,feet,jsons/v1_VE1000_randls_59_rotated.json,844016,1136277,46,Woman
82,646459,DepthScenes,duration_manipulation_targetAtFixation,jsons/v1_VE1000_randls_59_rotated.json,http://54.235.29.9/FacialAge/BNav_EC2/DepthDuration/v2_depth_duration_MTurk/v2_DepthDuration_HTML.html#80,80,1280,720,1280,720,8-29-2022,14-31-26,83,depth_duration_stimuli/003048_2014-06-15_13-49-43_094959634447_rgbf000150-resize_1/003048_2014-06-15_13-49-43_094959634447_rgbf000150-resize_1-target.png,1000,4.0035,10,4439,1012,feet,jsons/v1_VE1000_randls_59_rotated.json,844016,1136277,46,Woman
83,646459,DepthScenes,duration_manipulation_targetAtFixation,jsons/v1_VE1000_randls_59_rotated.json,http://54.235.29.9/FacialAge/BNav_EC2/DepthDuration/v2_depth_duration_MTurk/v2_DepthDuration_HTML.html#80,80,1280,720,1280,720,8-29-2022,14-31-26,84,depth_duration_stimuli/002043_2014-06-24_20-29-38_260595134347_rgbf000039-resize_4/002043_2014-06-24_20-29-38_260595134347_rgbf000039-resize_4-target.png,1000,2.8435,8,5777,1019,feet,jsons/v1_VE1000_randls_59_rotated.json,844016,1136277,46,Woman
84,646459,DepthScenes,duration_manipulation_targetAtFixation,jsons/v1_VE1000_randls_59_rotated.json,http://54.235.29.9/FacialAge/BNav_EC2/DepthDuration/v2_depth_duration_MTurk/v2_DepthDuration_HTML.html#80,80,1280,720,1280,720,8-29-2022,14-31-26,85,depth_duration_stimuli/001094_2014-06-15_17-36-00_260595134347_rgbf000205-resize_0/001094_2014-06-15_17-36-00_260595134347_rgbf000205-resize_0-target.png,1000,4.2175,10,4976,1026,feet,jsons/v1_VE1000_randls_59_rotated.json,844016,1136277,46,Woman
85,646459,DepthScenes,duration_manipulation_targetAtFixation,jsons/v1_VE1000_randls_59_rotated.json,http://54.235.29.9/FacialAge/BNav_EC2/DepthDuration/v2_depth_duration_MTurk/v2_DepthDuration_HTML.html#80,80,1280,720,1280,720,8-29-2022,14-31-26,86,depth_duration_stimuli/000692_2014-06-08_13-09-42_260595134347_rgbf000199-resize_2/000692_2014-06-08_13-09-42_260595134347_rgbf000199-resize_2-target.png,1000,3.661,10,4733,994,feet,jsons/v1_VE1000_randls_59_rotated.json,844016,1136277,46,Woman
86,646459,DepthScenes,duration_manipulation_targetAtFixation,jsons/v1_VE1000_randls_59_rotated.json,http://54.235.29.9/FacialAge/BNav_EC2/DepthDuration/v2_depth_duration_MTurk/v2_DepthDuration_HTML.html#80,80,1280,720,1280,720,8-29-2022,14-31-26,87,depth_duration_stimuli/000854_2014-06-09_19-43-13_260595134347_rgbf000066-resize_0/000854_2014-06-09_19-43-13_260595134347_rgbf000066-resize_0-target.png,1000,3.068,6,4609,1002,feet,jsons/v1_VE1000_randls_59_rotated.json,844016,1136277,46,Woman
87,646459,DepthScenes,duration_manipulation_targetAtFixation,jsons/v1_VE1000_randls_59_rotated.json,http://54.235.29.9/FacialAge/BNav_EC2/DepthDuration/v2_depth_duration_MTurk/v2_DepthDuration_HTML.html#80,80,1280,720,1280,720,8-29-2022,14-31-26,88,depth_duration_stimuli/000758_2014-06-08_22-05-08_260595134347_rgbf000085-resize_0/000758_2014-06-08_22-05-08_260595134347_rgbf000085-resize_0-target.png,1000,3.3810000000000002,8,4489,1003,feet,jsons/v1_VE1000_randls_59_rotated.json,844016,1136277,46,Woman
88,646459,DepthScenes,duration_manipulation_targetAtFixation,jsons/v1_VE1000_randls_59_rotated.json,http://54.235.29.9/FacialAge/BNav_EC2/DepthDuration/v2_depth_duration_MTurk/v2_DepthDuration_HTML.html#80,80,1280,720,1280,720,8-29-2022,14-31-26,89,depth_duration_stimuli/000103_2014-05-14_22-01-17_260595134347_rgbf000152-resize_5/000103_2014-05-14_22-01-17_260595134347_rgbf000152-resize_5-target.png,1000,1.993,8,4213,1004,feet,jsons/v1_VE1000_randls_59_rotated.json,844016,1136277,46,Woman
89,646459,DepthScenes,duration_manipulation_targetAtFixation,jsons/v1_VE1000_randls_59_rotated.json,http://54.235.29.9/FacialAge/BNav_EC2/DepthDuration/v2_depth_duration_MTurk/v2_DepthDuration_HTML.html#80,80,1280,720,1280,720,8-29-2022,14-31-26,90,depth_duration_stimuli/001555_2014-06-20_17-12-10_260595134347_rgbf000065-resize_4/001555_2014-06-20_17-12-10_260595134347_rgbf000065-resize_4-target.png,1000,1.633,4,4493,1003,feet,jsons/v1_VE1000_randls_59_rotated.json,844016,1136277,46,Woman
90,646459,DepthScenes,duration_manipulation_targetAtFixation,jsons/v1_VE1000_randls_59_rotated.json,http://54.235.29.9/FacialAge/BNav_EC2/DepthDuration/v2_depth_duration_MTurk/v2_DepthDuration_HTML.html#80,80,1280,720,1280,720,8-29-2022,14-31-26,91,depth_duration_stimuli/002199_2014-06-28_18-33-56_260595134347_rgbf000074-resize_0/002199_2014-06-28_18-33-56_260595134347_rgbf000074-resize_0-target.png,1000,1.996,5,4997,986,feet,jsons/v1_VE1000_randls_59_rotated.json,844016,1136277,46,Woman
91,646459,DepthScenes,duration_manipulation_targetAtFixation,jsons/v1_VE1000_randls_59_rotated.json,http://54.235.29.9/FacialAge/BNav_EC2/DepthDuration/v2_depth_duration_MTurk/v2_DepthDuration_HTML.html#80,80,1280,720,1280,720,8-29-2022,14-31-26,92,depth_duration_stimuli/001056_2014-06-08_18-46-44_260595134347_rgbf000068-resize_0/001056_2014-06-08_18-46-44_260595134347_rgbf000068-resize_0-target.png,1000,2.6625,8,4862,994,feet,jsons/v1_VE1000_randls_59_rotated.json,844016,1136277,46,Woman
92,646459,DepthScenes,duration_manipulation_targetAtFixation,jsons/v1_VE1000_randls_59_rotated.json,http://54.235.29.9/FacialAge/BNav_EC2/DepthDuration/v2_depth_duration_MTurk/v2_DepthDuration_HTML.html#80,80,1280,720,1280,720,8-29-2022,14-31-26,93,depth_duration_stimuli/001617_2014-06-20_11-35-32_260595134347_rgbf000066-resize_1/001617_2014-06-20_11-35-32_260595134347_rgbf000066-resize_1-target.png,1000,3.7910000000000004,8,4247,995,feet,jsons/v1_VE1000_randls_59_rotated.json,844016,1136277,46,Woman
93,646459,DepthScenes,duration_manipulation_targetAtFixation,jsons/v1_VE1000_randls_59_rotated.json,http://54.235.29.9/FacialAge/BNav_EC2/DepthDuration/v2_depth_duration_MTurk/v2_DepthDuration_HTML.html#80,80,1280,720,1280,720,8-29-2022,14-31-26,94,depth_duration_stimuli/001806_2014-06-26_20-50-20_260595134347_rgbf000091-resize_1/001806_2014-06-26_20-50-20_260595134347_rgbf000091-resize_1-target.png,1000,2.7305,6,4676,998,feet,jsons/v1_VE1000_randls_59_rotated.json,844016,1136277,46,Woman
94,646459,DepthScenes,duration_manipulation_targetAtFixation,jsons/v1_VE1000_randls_59_rotated.json,http://54.235.29.9/FacialAge/BNav_EC2/DepthDuration/v2_depth_duration_MTurk/v2_DepthDuration_HTML.html#80,80,1280,720,1280,720,8-29-2022,14-31-26,95,depth_duration_stimuli/002414_2014-06-28_20-24-58_260595134347_rgbf000067-resize_4/002414_2014-06-28_20-24-58_260595134347_rgbf000067-resize_4-target.png,1000,4.363,10,5097,988,feet,jsons/v1_VE1000_randls_59_rotated.json,844016,1136277,46,Woman
95,646459,DepthScenes,duration_manipulation_targetAtFixation,jsons/v1_VE1000_randls_59_rotated.json,http://54.235.29.9/FacialAge/BNav_EC2/DepthDuration/v2_depth_duration_MTurk/v2_DepthDuration_HTML.html#80,80,1280,720,1280,720,8-29-2022,14-31-26,96,depth_duration_stimuli/000773_2014-06-08_22-24-54_260595134347_rgbf000093-resize_1/000773_2014-06-08_22-24-54_260595134347_rgbf000093-resize_1-target.png,1000,4.973,12,4911,996,feet,jsons/v1_VE1000_randls_59_rotated.json,844016,1136277,46,Woman
96,646459,DepthScenes,duration_manipulation_targetAtFixation,jsons/v1_VE1000_randls_59_rotated.json,http://54.235.29.9/FacialAge/BNav_EC2/DepthDuration/v2_depth_duration_MTurk/v2_DepthDuration_HTML.html#80,80,1280,720,1280,720,8-29-2022,14-31-26,97,depth_duration_stimuli/001584_2014-06-20_11-07-43_260595134347_rgbf000002-resize_1/001584_2014-06-20_11-07-43_260595134347_rgbf000002-resize_1-target.png,1000,3.53,8,4133,998,feet,jsons/v1_VE1000_randls_59_rotated.json,844016,1136277,46,Woman
97,646459,DepthScenes,duration_manipulation_targetAtFixation,jsons/v1_VE1000_randls_59_rotated.json,http://54.235.29.9/FacialAge/BNav_EC2/DepthDuration/v2_depth_duration_MTurk/v2_DepthDuration_HTML.html#80,80,1280,720,1280,720,8-29-2022,14-31-26,98,depth_duration_stimuli/003621_2014-05-23_18-06-08_094959634447_rgbf000101-resize_1/003621_2014-05-23_18-06-08_094959634447_rgbf000101-resize_1-target.png,1000,3.9835,8,5824,1009,feet,jsons/v1_VE1000_randls_59_rotated.json,844016,1136277,46,Woman
98,646459,DepthScenes,duration_manipulation_targetAtFixation,jsons/v1_VE1000_randls_59_rotated.json,http://54.235.29.9/FacialAge/BNav_EC2/DepthDuration/v2_depth_duration_MTurk/v2_DepthDuration_HTML.html#80,80,1280,720,1280,720,8-29-2022,14-31-26,99,depth_duration_stimuli/001222_2014-06-17_16-24-06_260595134347_rgbf000073-resize_0/001222_2014-06-17_16-24-06_260595134347_rgbf000073-resize-original.jpg,1000,1.4385,0,4767,998,feet,jsons/v1_VE1000_randls_59_rotated.json,844016,1136277,46,Woman
99,646459,DepthScenes,duration_manipulation_targetAtFixation,jsons/v1_VE1000_randls_59_rotated.json,http://54.235.29.9/FacialAge/BNav_EC2/DepthDuration/v2_depth_duration_MTurk/v2_DepthDuration_HTML.html#80,80,1280,720,1280,720,8-29-2022,14-31-26,100,depth_duration_stimuli/002639_2014-06-24_14-51-37_094959634447_rgbf000074-resize_4/002639_2014-06-24_14-51-37_094959634447_rgbf000074-resize_4-target.png,1000,4.0375,8,4976,985,feet,jsons/v1_VE1000_randls_59_rotated.json,844016,1136277,46,Woman
100,646459,DepthScenes,duration_manipulation_targetAtFixation,jsons/v1_VE1000_randls_59_rotated.json,http://54.235.29.9/FacialAge/BNav_EC2/DepthDuration/v2_depth_duration_MTurk/v2_DepthDuration_HTML.html#80,80,1280,720,1280,720,8-29-2022,14-31-26,101,depth_duration_stimuli/003292_2014-05-14_21-53-49_094959634447_rgbf000100-resize_2/003292_2014-05-14_21-53-49_094959634447_rgbf000100-resize_2-target.png,1000,3.4815,6,4326,985,feet,jsons/v1_VE1000_randls_59_rotated.json,844016,1136277,46,Woman
101,646459,DepthScenes,duration_manipulation_targetAtFixation,jsons/v1_VE1000_randls_59_rotated.json,http://54.235.29.9/FacialAge/BNav_EC2/DepthDuration/v2_depth_duration_MTurk/v2_DepthDuration_HTML.html#80,80,1280,720,1280,720,8-29-2022,14-31-26,102,depth_duration_stimuli/002103_2014-06-25_20-00-40_260595134347_rgbf000049-resize_0/002103_2014-06-25_20-00-40_260595134347_rgbf000049-resize_0-target.png,1000,4.105,8,4667,987,feet,jsons/v1_VE1000_randls_59_rotated.json,844016,1136277,46,Woman
102,646459,DepthScenes,duration_manipulation_targetAtFixation,jsons/v1_VE1000_randls_59_rotated.json,http://54.235.29.9/FacialAge/BNav_EC2/DepthDuration/v2_depth_duration_MTurk/v2_DepthDuration_HTML.html#80,80,1280,720,1280,720,8-29-2022,14-31-26,103,depth_duration_stimuli/002039_2014-06-24_20-22-38_260595134347_rgbf000084-resize_1/002039_2014-06-24_20-22-38_260595134347_rgbf000084-resize_1-target.png,1000,4.408,15,5351,987,feet,jsons/v1_VE1000_randls_59_rotated.json,844016,1136277,46,Woman
103,646459,DepthScenes,duration_manipulation_targetAtFixation,jsons/v1_VE1000_randls_59_rotated.json,http://54.235.29.9/FacialAge/BNav_EC2/DepthDuration/v2_depth_duration_MTurk/v2_DepthDuration_HTML.html#80,80,1280,720,1280,720,8-29-2022,14-31-26,104,depth_duration_stimuli/001214_2014-06-17_16-13-55_260595134347_rgbf000111-resize_0/001214_2014-06-17_16-13-55_260595134347_rgbf000111-resize_0-target.png,1000,2.6505,8,4423,995,feet,jsons/v1_VE1000_randls_59_rotated.json,844016,1136277,46,Woman
104,646459,DepthScenes,duration_manipulation_targetAtFixation,jsons/v1_VE1000_randls_59_rotated.json,http://54.235.29.9/FacialAge/BNav_EC2/DepthDuration/v2_depth_duration_MTurk/v2_DepthDuration_HTML.html#80,80,1280,720,1280,720,8-29-2022,14-31-26,105,depth_duration_stimuli/000810_2014-06-08_17-20-01_260595134347_rgbf000105-resize_0/000810_2014-06-08_17-20-01_260595134347_rgbf000105-resize_0-target.png,1000,1.4865,6,4529,995,feet,jsons/v1_VE1000_randls_59_rotated.json,844016,1136277,46,Woman
105,646459,DepthScenes,duration_manipulation_targetAtFixation,jsons/v1_VE1000_randls_59_rotated.json,http://54.235.29.9/FacialAge/BNav_EC2/DepthDuration/v2_depth_duration_MTurk/v2_DepthDuration_HTML.html#80,80,1280,720,1280,720,8-29-2022,14-31-26,106,depth_duration_stimuli/002660_2014-06-13_15-44-18_094959634447_rgbf001878-resize_2/002660_2014-06-13_15-44-18_094959634447_rgbf001878-resize_2-target.png,1000,3.576,10,4933,1014,feet,jsons/v1_VE1000_randls_59_rotated.json,844016,1136277,46,Woman
106,646459,DepthScenes,duration_manipulation_targetAtFixation,jsons/v1_VE1000_randls_59_rotated.json,http://54.235.29.9/FacialAge/BNav_EC2/DepthDuration/v2_depth_duration_MTurk/v2_DepthDuration_HTML.html#80,80,1280,720,1280,720,8-29-2022,14-31-26,107,depth_duration_stimuli/002153_2014-06-25_21-27-18_260595134347_rgbf000038-resize_5/002153_2014-06-25_21-27-18_260595134347_rgbf000038-resize_5-target.png,1000,2.505,6,4354,999,feet,jsons/v1_VE1000_randls_59_rotated.json,844016,1136277,46,Woman
107,646459,DepthScenes,duration_manipulation_targetAtFixation,jsons/v1_VE1000_randls_59_rotated.json,http://54.235.29.9/FacialAge/BNav_EC2/DepthDuration/v2_depth_duration_MTurk/v2_DepthDuration_HTML.html#80,80,1280,720,1280,720,8-29-2022,14-31-26,108,depth_duration_stimuli/001235_2014-06-17_16-37-36_260595134347_rgbf000084-resize_4/001235_2014-06-17_16-37-36_260595134347_rgbf000084-resize_4-target.png,1000,3.6605,8,4275,1000,feet,jsons/v1_VE1000_randls_59_rotated.json,844016,1136277,46,Woman
108,646459,DepthScenes,duration_manipulation_targetAtFixation,jsons/v1_VE1000_randls_59_rotated.json,http://54.235.29.9/FacialAge/BNav_EC2/DepthDuration/v2_depth_duration_MTurk/v2_DepthDuration_HTML.html#80,80,1280,720,1280,720,8-29-2022,14-31-26,109,depth_duration_stimuli/000788_2014-06-08_22-34-36_260595134347_rgbf000131-resize_1/000788_2014-06-08_22-34-36_260595134347_rgbf000131-resize_1-target.png,1000,3.359,8,4115,997,feet,jsons/v1_VE1000_randls_59_rotated.json,844016,1136277,46,Woman
109,646459,DepthScenes,duration_manipulation_targetAtFixation,jsons/v1_VE1000_randls_59_rotated.json,http://54.235.29.9/FacialAge/BNav_EC2/DepthDuration/v2_depth_duration_MTurk/v2_DepthDuration_HTML.html#80,80,1280,720,1280,720,8-29-2022,14-31-26,110,depth_duration_stimuli/000556_2014-06-09_22-42-56_260595134347_rgbf000214-resize_1/000556_2014-06-09_22-42-56_260595134347_rgbf000214-resize_1-target.png,1000,4.8415,10,4657,995,feet,jsons/v1_VE1000_randls_59_rotated.json,844016,1136277,46,Woman
110,646459,DepthScenes,duration_manipulation_targetAtFixation,jsons/v1_VE1000_randls_59_rotated.json,http://54.235.29.9/FacialAge/BNav_EC2/DepthDuration/v2_depth_duration_MTurk/v2_DepthDuration_HTML.html#80,80,1280,720,1280,720,8-29-2022,14-31-26,111,depth_duration_stimuli/001158_2014-06-17_15-32-16_260595134347_rgbf000138-resize_2/001158_2014-06-17_15-32-16_260595134347_rgbf000138-resize_2-target.png,1000,4.5315,12,4909,1005,feet,jsons/v1_VE1000_randls_59_rotated.json,844016,1136277,46,Woman
111,646459,DepthScenes,duration_manipulation_targetAtFixation,jsons/v1_VE1000_randls_59_rotated.json,http://54.235.29.9/FacialAge/BNav_EC2/DepthDuration/v2_depth_duration_MTurk/v2_DepthDuration_HTML.html#80,80,1280,720,1280,720,8-29-2022,14-31-26,112,depth_duration_stimuli/003338_2014-05-20_11-01-23_094959634447_rgbf000051-resize_6/003338_2014-05-20_11-01-23_094959634447_rgbf000051-resize_6-target.png,1000,1.693,4,4358,994,feet,jsons/v1_VE1000_randls_59_rotated.json,844016,1136277,46,Woman
112,646459,DepthScenes,duration_manipulation_targetAtFixation,jsons/v1_VE1000_randls_59_rotated.json,http://54.235.29.9/FacialAge/BNav_EC2/DepthDuration/v2_depth_duration_MTurk/v2_DepthDuration_HTML.html#80,80,1280,720,1280,720,8-29-2022,14-31-26,113,depth_duration_stimuli/002509_2014-06-24_13-19-22_094959634447_rgbf000077-resize_0/002509_2014-06-24_13-19-22_094959634447_rgbf000077-resize_0-target.png,1000,1.3065,6,4424,994,feet,jsons/v1_VE1000_randls_59_rotated.json,844016,1136277,46,Woman
113,646459,DepthScenes,duration_manipulation_targetAtFixation,jsons/v1_VE1000_randls_59_rotated.json,http://54.235.29.9/FacialAge/BNav_EC2/DepthDuration/v2_depth_duration_MTurk/v2_DepthDuration_HTML.html#80,80,1280,720,1280,720,8-29-2022,14-31-26,114,depth_duration_stimuli/003079_2014-06-15_15-18-20_094959634447_rgbf000152-resize_8/003079_2014-06-15_15-18-20_094959634447_rgbf000152-resize_8-target.png,1000,2.8775,10,4906,985,feet,jsons/v1_VE1000_randls_59_rotated.json,844016,1136277,46,Woman
114,646459,DepthScenes,duration_manipulation_targetAtFixation,jsons/v1_VE1000_randls_59_rotated.json,http://54.235.29.9/FacialAge/BNav_EC2/DepthDuration/v2_depth_duration_MTurk/v2_DepthDuration_HTML.html#80,80,1280,720,1280,720,8-29-2022,14-31-26,115,depth_duration_stimuli/000506_2014-06-08_23-21-00_260595134347_rgbf000070-resize_7/000506_2014-06-08_23-21-00_260595134347_rgbf000070-resize_7-target.png,1000,4.0585,8,4316,1008,feet,jsons/v1_VE1000_randls_59_rotated.json,844016,1136277,46,Woman
115,646459,DepthScenes,duration_manipulation_targetAtFixation,jsons/v1_VE1000_randls_59_rotated.json,http://54.235.29.9/FacialAge/BNav_EC2/DepthDuration/v2_depth_duration_MTurk/v2_DepthDuration_HTML.html#80,80,1280,720,1280,720,8-29-2022,14-31-26,116,depth_duration_stimuli/002805_2014-06-22_19-54-03_094959634447_rgbf000079-resize_1/002805_2014-06-22_19-54-03_094959634447_rgbf000079-resize_1-target.png,1000,3.1439999999999997,10,4764,999,feet,jsons/v1_VE1000_randls_59_rotated.json,844016,1136277,46,Woman
116,646459,DepthScenes,duration_manipulation_targetAtFixation,jsons/v1_VE1000_randls_59_rotated.json,http://54.235.29.9/FacialAge/BNav_EC2/DepthDuration/v2_depth_duration_MTurk/v2_DepthDuration_HTML.html#80,80,1280,720,1280,720,8-29-2022,14-31-26,117,depth_duration_stimuli/000906_2014-06-08_13-35-43_260595134347_rgbf000155-resize_1/000906_2014-06-08_13-35-43_260595134347_rgbf000155-resize_1-target.png,1000,2.8489999999999998,8,4393,992,feet,jsons/v1_VE1000_randls_59_rotated.json,844016,1136277,46,Woman
117,646459,DepthScenes,duration_manipulation_targetAtFixation,jsons/v1_VE1000_randls_59_rotated.json,http://54.235.29.9/FacialAge/BNav_EC2/DepthDuration/v2_depth_duration_MTurk/v2_DepthDuration_HTML.html#80,80,1280,720,1280,720,8-29-2022,14-31-26,118,depth_duration_stimuli/000866_2014-06-09_20-45-42_260595134347_rgbf000139-resize_1/000866_2014-06-09_20-45-42_260595134347_rgbf000139-resize_1-target.png,1000,3.2155,6,4281,1003,feet,jsons/v1_VE1000_randls_59_rotated.json,844016,1136277,46,Woman
118,646459,DepthScenes,duration_manipulation_targetAtFixation,jsons/v1_VE1000_randls_59_rotated.json,http://54.235.29.9/FacialAge/BNav_EC2/DepthDuration/v2_depth_duration_MTurk/v2_DepthDuration_HTML.html#80,80,1280,720,1280,720,8-29-2022,14-31-26,119,depth_duration_stimuli/002989_2014-06-15_12-25-03_094959634447_rgbf000150-resize_3/002989_2014-06-15_12-25-03_094959634447_rgbf000150-resize_3-target.png,1000,4.1975,10,5314,990,feet,jsons/v1_VE1000_randls_59_rotated.json,844016,1136277,46,Woman
119,646459,DepthScenes,duration_manipulation_targetAtFixation,jsons/v1_VE1000_randls_59_rotated.json,http://54.235.29.9/FacialAge/BNav_EC2/DepthDuration/v2_depth_duration_MTurk/v2_DepthDuration_HTML.html#80,80,1280,720,1280,720,8-29-2022,14-31-26,120,depth_duration_stimuli/000787_2014-06-08_22-33-53_260595134347_rgbf000175-resize_1/000787_2014-06-08_22-33-53_260595134347_rgbf000175-resize-original.jpg,1000,4.784,0,4105,992,feet,jsons/v1_VE1000_randls_59_rotated.json,844016,1136277,46,Woman
120,646459,DepthScenes,duration_manipulation_targetAtFixation,jsons/v1_VE1000_randls_59_rotated.json,http://54.235.29.9/FacialAge/BNav_EC2/DepthDuration/v2_depth_duration_MTurk/v2_DepthDuration_HTML.html#80,80,1280,720,1280,720,8-29-2022,14-31-26,121,depth_duration_stimuli/000483_2014-06-09_20-41-45_260595134347_rgbf000116-resize_4/000483_2014-06-09_20-41-45_260595134347_rgbf000116-resize_4-target.png,1000,1.337,3,4573,999,feet,jsons/v1_VE1000_randls_59_rotated.json,844016,1136277,46,Woman
121,646459,DepthScenes,duration_manipulation_targetAtFixation,jsons/v1_VE1000_randls_59_rotated.json,http://54.235.29.9/FacialAge/BNav_EC2/DepthDuration/v2_depth_duration_MTurk/v2_DepthDuration_HTML.html#80,80,1280,720,1280,720,8-29-2022,14-31-26,122,depth_duration_stimuli/000469_2014-06-09_19-42-10_260595134347_rgbf000081-resize_1/000469_2014-06-09_19-42-10_260595134347_rgbf000081-resize_1-target.png,1000,1.652,4,4338,1019,feet,jsons/v1_VE1000_randls_59_rotated.json,844016,1136277,46,Woman
122,646459,DepthScenes,duration_manipulation_targetAtFixation,jsons/v1_VE1000_randls_59_rotated.json,http://54.235.29.9/FacialAge/BNav_EC2/DepthDuration/v2_depth_duration_MTurk/v2_DepthDuration_HTML.html#80,80,1280,720,1280,720,8-29-2022,14-31-26,123,depth_duration_stimuli/000709_2014-06-08_13-51-55_260595134347_rgbf000068-resize_3/000709_2014-06-08_13-51-55_260595134347_rgbf000068-resize_3-target.png,1000,1.8030000000000002,5,4248,996,feet,jsons/v1_VE1000_randls_59_rotated.json,844016,1136277,46,Woman
123,646459,DepthScenes,duration_manipulation_targetAtFixation,jsons/v1_VE1000_randls_59_rotated.json,http://54.235.29.9/FacialAge/BNav_EC2/DepthDuration/v2_depth_duration_MTurk/v2_DepthDuration_HTML.html#80,80,1280,720,1280,720,8-29-2022,14-31-26,124,depth_duration_stimuli/002057_2014-06-24_21-00-13_260595134347_rgbf000120-resize_1/002057_2014-06-24_21-00-13_260595134347_rgbf000120-resize_1-target.png,1000,2.967,8,3989,998,feet,jsons/v1_VE1000_randls_59_rotated.json,844016,1136277,46,Woman
124,646459,DepthScenes,duration_manipulation_targetAtFixation,jsons/v1_VE1000_randls_59_rotated.json,http://54.235.29.9/FacialAge/BNav_EC2/DepthDuration/v2_depth_duration_MTurk/v2_DepthDuration_HTML.html#80,80,1280,720,1280,720,8-29-2022,14-31-26,125,depth_duration_stimuli/003423_2014-05-21_10-23-26_094959634447_rgbf002665-resize_2/003423_2014-05-21_10-23-26_094959634447_rgbf002665-resize_2-target.png,1000,3.2575,10,5163,986,feet,jsons/v1_VE1000_randls_59_rotated.json,844016,1136277,46,Woman
125,646459,DepthScenes,duration_manipulation_targetAtFixation,jsons/v1_VE1000_randls_59_rotated.json,http://54.235.29.9/FacialAge/BNav_EC2/DepthDuration/v2_depth_duration_MTurk/v2_DepthDuration_HTML.html#80,80,1280,720,1280,720,8-29-2022,14-31-26,126,depth_duration_stimuli/002905_2014-06-03_18-04-43_094959634447_rgbf000151-resize_2/002905_2014-06-03_18-04-43_094959634447_rgbf000151-resize_2-target.png,1000,2.0295,6,4988,987,feet,jsons/v1_VE1000_randls_59_rotated.json,844016,1136277,46,Woman
126,646459,DepthScenes,duration_manipulation_targetAtFixation,jsons/v1_VE1000_randls_59_rotated.json,http://54.235.29.9/FacialAge/BNav_EC2/DepthDuration/v2_depth_duration_MTurk/v2_DepthDuration_HTML.html#80,80,1280,720,1280,720,8-29-2022,14-31-26,127,depth_duration_stimuli/000665_2014-06-09_20-42-35_260595134347_rgbf000110-resize_1/000665_2014-06-09_20-42-35_260595134347_rgbf000110-resize_1-target.png,1000,3.057,8,4513,992,feet,jsons/v1_VE1000_randls_59_rotated.json,844016,1136277,46,Woman
127,646459,DepthScenes,duration_manipulation_targetAtFixation,jsons/v1_VE1000_randls_59_rotated.json,http://54.235.29.9/FacialAge/BNav_EC2/DepthDuration/v2_depth_duration_MTurk/v2_DepthDuration_HTML.html#80,80,1280,720,1280,720,8-29-2022,14-31-26,128,depth_duration_stimuli/001150_2014-06-17_15-27-34_260595134347_rgbf000108-resize_2/001150_2014-06-17_15-27-34_260595134347_rgbf000108-resize_2-target.png,1000,4.0325,8,4427,989,feet,jsons/v1_VE1000_randls_59_rotated.json,844016,1136277,46,Woman
128,646459,DepthScenes,duration_manipulation_targetAtFixation,jsons/v1_VE1000_randls_59_rotated.json,http://54.235.29.9/FacialAge/BNav_EC2/DepthDuration/v2_depth_duration_MTurk/v2_DepthDuration_HTML.html#80,80,1280,720,1280,720,8-29-2022,14-31-26,129,depth_duration_stimuli/001450_2014-06-19_17-02-03_260595134347_rgbf000203-resize_4/001450_2014-06-19_17-02-03_260595134347_rgbf000203-resize_4-target.png,1000,4.0106666666667,10,5129,992,feet,jsons/v1_VE1000_randls_59_rotated.json,844016,1136277,46,Woman
129,646459,DepthScenes,duration_manipulation_targetAtFixation,jsons/v1_VE1000_randls_59_rotated.json,http://54.235.29.9/FacialAge/BNav_EC2/DepthDuration/v2_depth_duration_MTurk/v2_DepthDuration_HTML.html#80,80,1280,720,1280,720,8-29-2022,14-31-26,130,depth_duration_stimuli/001449_2014-06-19_17-01-27_260595134347_rgbf000116-resize_2/001449_2014-06-19_17-01-27_260595134347_rgbf000116-resize_2-target.png,1000,3.452,8,3944,1004,feet,jsons/v1_VE1000_randls_59_rotated.json,844016,1136277,46,Woman
130,646459,DepthScenes,duration_manipulation_targetAtFixation,jsons/v1_VE1000_randls_59_rotated.json,http://54.235.29.9/FacialAge/BNav_EC2/DepthDuration/v2_depth_duration_MTurk/v2_DepthDuration_HTML.html#80,80,1280,720,1280,720,8-29-2022,14-31-26,131,depth_duration_stimuli/000943_2014-06-09_19-31-07_260595134347_rgbf000128-resize_1/000943_2014-06-09_19-31-07_260595134347_rgbf000128-resize_1-target.png,1000,1.9765,5,4645,1011,feet,jsons/v1_VE1000_randls_59_rotated.json,844016,1136277,46,Woman
131,646459,DepthScenes,duration_manipulation_targetAtFixation,jsons/v1_VE1000_randls_59_rotated.json,http://54.235.29.9/FacialAge/BNav_EC2/DepthDuration/v2_depth_duration_MTurk/v2_DepthDuration_HTML.html#80,80,1280,720,1280,720,8-29-2022,14-31-26,132,depth_duration_stimuli/003070_2014-06-15_14-58-27_094959634447_rgbf000150-resize_3/003070_2014-06-15_14-58-27_094959634447_rgbf000150-resize_3-target.png,1000,2.9415,6,4196,968,feet,jsons/v1_VE1000_randls_59_rotated.json,844016,1136277,46,Woman
132,646459,DepthScenes,duration_manipulation_targetAtFixation,jsons/v1_VE1000_randls_59_rotated.json,http://54.235.29.9/FacialAge/BNav_EC2/DepthDuration/v2_depth_duration_MTurk/v2_DepthDuration_HTML.html#80,80,1280,720,1280,720,8-29-2022,14-31-26,133,depth_duration_stimuli/000927_2014-06-09_16-32-30_260595134347_rgbf000123-resize_3/000927_2014-06-09_16-32-30_260595134347_rgbf000123-resize_3-target.png,1000,2.6785,8,4151,1004,feet,jsons/v1_VE1000_randls_59_rotated.json,844016,1136277,46,Woman
133,646459,DepthScenes,duration_manipulation_targetAtFixation,jsons/v1_VE1000_randls_59_rotated.json,http://54.235.29.9/FacialAge/BNav_EC2/DepthDuration/v2_depth_duration_MTurk/v2_DepthDuration_HTML.html#80,80,1280,720,1280,720,8-29-2022,14-31-26,134,depth_duration_stimuli/001110_2014-06-15_17-25-28_260595134347_rgbf000150-resize_1/001110_2014-06-15_17-25-28_260595134347_rgbf000150-resize_1-target.png,1000,1.7115,6,4169,1005,feet,jsons/v1_VE1000_randls_59_rotated.json,844016,1136277,46,Woman
134,646459,DepthScenes,duration_manipulation_targetAtFixation,jsons/v1_VE1000_randls_59_rotated.json,http://54.235.29.9/FacialAge/BNav_EC2/DepthDuration/v2_depth_duration_MTurk/v2_DepthDuration_HTML.html#80,80,1280,720,1280,720,8-29-2022,14-31-26,135,depth_duration_stimuli/000375_2014-06-08_11-17-29_260595134347_rgbf000133-resize_2/000375_2014-06-08_11-17-29_260595134347_rgbf000133-resize-original.jpg,1000,4.718,0,3952,988,feet,jsons/v1_VE1000_randls_59_rotated.json,844016,1136277,46,Woman
135,646459,DepthScenes,duration_manipulation_targetAtFixation,jsons/v1_VE1000_randls_59_rotated.json,http://54.235.29.9/FacialAge/BNav_EC2/DepthDuration/v2_depth_duration_MTurk/v2_DepthDuration_HTML.html#80,80,1280,720,1280,720,8-29-2022,14-31-26,136,depth_duration_stimuli/000691_2014-06-08_13-08-50_260595134347_rgbf000132-resize_3/000691_2014-06-08_13-08-50_260595134347_rgbf000132-resize_3-target.png,1000,4.1530000000000005,8,4423,998,feet,jsons/v1_VE1000_randls_59_rotated.json,844016,1136277,46,Woman
136,646459,DepthScenes,duration_manipulation_targetAtFixation,jsons/v1_VE1000_randls_59_rotated.json,http://54.235.29.9/FacialAge/BNav_EC2/DepthDuration/v2_depth_duration_MTurk/v2_DepthDuration_HTML.html#80,80,1280,720,1280,720,8-29-2022,14-31-26,137,depth_duration_stimuli/002213_2014-06-28_18-37-58_260595134347_rgbf000055-resize_1/002213_2014-06-28_18-37-58_260595134347_rgbf000055-resize_1-target.png,1000,3.62,10,4816,985,feet,jsons/v1_VE1000_randls_59_rotated.json,844016,1136277,46,Woman
137,646459,DepthScenes,duration_manipulation_targetAtFixation,jsons/v1_VE1000_randls_59_rotated.json,http://54.235.29.9/FacialAge/BNav_EC2/DepthDuration/v2_depth_duration_MTurk/v2_DepthDuration_HTML.html#80,80,1280,720,1280,720,8-29-2022,14-31-26,138,depth_duration_stimuli/001136_2014-06-17_15-19-41_260595134347_rgbf000076-resize_3/001136_2014-06-17_15-19-41_260595134347_rgbf000076-resize_3-target.png,1000,1.8655,6,4325,996,feet,jsons/v1_VE1000_randls_59_rotated.json,844016,1136277,46,Woman
138,646459,DepthScenes,duration_manipulation_targetAtFixation,jsons/v1_VE1000_randls_59_rotated.json,http://54.235.29.9/FacialAge/BNav_EC2/DepthDuration/v2_depth_duration_MTurk/v2_DepthDuration_HTML.html#80,80,1280,720,1280,720,8-29-2022,14-31-26,139,depth_duration_stimuli/001164_2014-06-17_15-35-46_260595134347_rgbf000085-resize_3/001164_2014-06-17_15-35-46_260595134347_rgbf000085-resize_3-target.png,1000,2.354,6,4179,987,feet,jsons/v1_VE1000_randls_59_rotated.json,844016,1136277,46,Woman
139,646459,DepthScenes,duration_manipulation_targetAtFixation,jsons/v1_VE1000_randls_59_rotated.json,http://54.235.29.9/FacialAge/BNav_EC2/DepthDuration/v2_depth_duration_MTurk/v2_DepthDuration_HTML.html#80,80,1280,720,1280,720,8-29-2022,14-31-26,140,depth_duration_stimuli/000502_2014-06-08_23-02-32_260595134347_rgbf000063-resize_4/000502_2014-06-08_23-02-32_260595134347_rgbf000063-resize_4-target.png,1000,2.431,6,4320,987,feet,jsons/v1_VE1000_randls_59_rotated.json,844016,1136277,46,Woman
140,646459,DepthScenes,duration_manipulation_targetAtFixation,jsons/v1_VE1000_randls_59_rotated.json,http://54.235.29.9/FacialAge/BNav_EC2/DepthDuration/v2_depth_duration_MTurk/v2_DepthDuration_HTML.html#80,80,1280,720,1280,720,8-29-2022,14-31-26,141,depth_duration_stimuli/001199_2014-06-17_16-03-48_260595134347_rgbf000077-resize_0/001199_2014-06-17_16-03-48_260595134347_rgbf000077-resize_0-target.png,1000,3.4375,10,4744,994,feet,jsons/v1_VE1000_randls_59_rotated.json,844016,1136277,46,Woman
141,646459,DepthScenes,duration_manipulation_targetAtFixation,jsons/v1_VE1000_randls_59_rotated.json,http://54.235.29.9/FacialAge/BNav_EC2/DepthDuration/v2_depth_duration_MTurk/v2_DepthDuration_HTML.html#80,80,1280,720,1280,720,8-29-2022,14-31-26,142,depth_duration_stimuli/002657_2014-06-13_15-29-54_094959634447_rgbf000150-resize_1/002657_2014-06-13_15-29-54_094959634447_rgbf000150-resize_1-target.png,1000,4.919,12,4478,993,feet,jsons/v1_VE1000_randls_59_rotated.json,844016,1136277,46,Woman
142,646459,DepthScenes,duration_manipulation_targetAtFixation,jsons/v1_VE1000_randls_59_rotated.json,http://54.235.29.9/FacialAge/BNav_EC2/DepthDuration/v2_depth_duration_MTurk/v2_DepthDuration_HTML.html#80,80,1280,720,1280,720,8-29-2022,14-31-26,143,depth_duration_stimuli/002375_2014-06-28_20-13-44_260595134347_rgbf000032-resize_1/002375_2014-06-28_20-13-44_260595134347_rgbf000032-resize_1-target.png,1000,4.0175,8,4218,991,feet,jsons/v1_VE1000_randls_59_rotated.json,844016,1136277,46,Woman
143,646459,DepthScenes,duration_manipulation_targetAtFixation,jsons/v1_VE1000_randls_59_rotated.json,http://54.235.29.9/FacialAge/BNav_EC2/DepthDuration/v2_depth_duration_MTurk/v2_DepthDuration_HTML.html#80,80,1280,720,1280,720,8-29-2022,14-31-26,144,depth_duration_stimuli/003587_2014-05-23_16-48-02_094959634447_rgbf002384-resize_2/003587_2014-05-23_16-48-02_094959634447_rgbf002384-resize_2-target.png,1000,1.357,3,4575,1011,feet,jsons/v1_VE1000_randls_59_rotated.json,844016,1136277,46,Woman
144,646459,DepthScenes,duration_manipulation_targetAtFixation,jsons/v1_VE1000_randls_59_rotated.json,http://54.235.29.9/FacialAge/BNav_EC2/DepthDuration/v2_depth_duration_MTurk/v2_DepthDuration_HTML.html#80,80,1280,720,1280,720,8-29-2022,14-31-26,145,depth_duration_stimuli/001167_2014-06-17_15-38-07_260595134347_rgbf000108-resize_0/001167_2014-06-17_15-38-07_260595134347_rgbf000108-resize_0-target.png,1000,1.8505,4,4268,1008,feet,jsons/v1_VE1000_randls_59_rotated.json,844016,1136277,46,Woman
145,646459,DepthScenes,duration_manipulation_targetAtFixation,jsons/v1_VE1000_randls_59_rotated.json,http://54.235.29.9/FacialAge/BNav_EC2/DepthDuration/v2_depth_duration_MTurk/v2_DepthDuration_HTML.html#80,80,1280,720,1280,720,8-29-2022,14-31-26,146,depth_duration_stimuli/001650_2014-06-20_12-09-00_260595134347_rgbf000087-resize_3/001650_2014-06-20_12-09-00_260595134347_rgbf000087-resize_3-target.png,1000,1.9505,3,4392,1000,feet,jsons/v1_VE1000_randls_59_rotated.json,844016,1136277,46,Woman
146,646459,DepthScenes,duration_manipulation_targetAtFixation,jsons/v1_VE1000_randls_59_rotated.json,http://54.235.29.9/FacialAge/BNav_EC2/DepthDuration/v2_depth_duration_MTurk/v2_DepthDuration_HTML.html#80,80,1280,720,1280,720,8-29-2022,14-31-26,147,depth_duration_stimuli/000682_2014-06-08_23-14-58_260595134347_rgbf000041-resize_5/000682_2014-06-08_23-14-58_260595134347_rgbf000041-resize_5-target.png,1000,2.7239999999999998,6,3915,995,feet,jsons/v1_VE1000_randls_59_rotated.json,844016,1136277,46,Woman
147,646459,DepthScenes,duration_manipulation_targetAtFixation,jsons/v1_VE1000_randls_59_rotated.json,http://54.235.29.9/FacialAge/BNav_EC2/DepthDuration/v2_depth_duration_MTurk/v2_DepthDuration_HTML.html#80,80,1280,720,1280,720,8-29-2022,14-31-26,148,depth_duration_stimuli/002995_2014-06-15_12-31-26_094959634447_rgbf000150-resize_1/002995_2014-06-15_12-31-26_094959634447_rgbf000150-resize_1-target.png,1000,3.8360000000000003,10,5626,997,feet,jsons/v1_VE1000_randls_59_rotated.json,844016,1136277,46,Woman
148,646459,DepthScenes,duration_manipulation_targetAtFixation,jsons/v1_VE1000_randls_59_rotated.json,http://54.235.29.9/FacialAge/BNav_EC2/DepthDuration/v2_depth_duration_MTurk/v2_DepthDuration_HTML.html#80,80,1280,720,1280,720,8-29-2022,14-31-26,149,depth_duration_stimuli/002748_2014-06-22_19-07-22_094959634447_rgbf000078-resize_1/002748_2014-06-22_19-07-22_094959634447_rgbf000078-resize_1-target.png,1000,4.6705,20,4776,1003,feet,jsons/v1_VE1000_randls_59_rotated.json,844016,1136277,46,Woman
149,646459,DepthScenes,duration_manipulation_targetAtFixation,jsons/v1_VE1000_randls_59_rotated.json,http://54.235.29.9/FacialAge/BNav_EC2/DepthDuration/v2_depth_duration_MTurk/v2_DepthDuration_HTML.html#80,80,1280,720,1280,720,8-29-2022,14-31-26,150,depth_duration_stimuli/002340_2014-06-28_20-05-46_260595134347_rgbf000113-resize_0/002340_2014-06-28_20-05-46_260595134347_rgbf000113-resize_0-target.png,1000,2.4735,8,4043,1003,feet,jsons/v1_VE1000_randls_59_rotated.json,844016,1136277,46,Woman
150,646459,DepthScenes,duration_manipulation_targetAtFixation,jsons/v1_VE1000_randls_59_rotated.json,http://54.235.29.9/FacialAge/BNav_EC2/DepthDuration/v2_depth_duration_MTurk/v2_DepthDuration_HTML.html#80,80,1280,720,1280,720,8-29-2022,14-31-26,151,depth_duration_stimuli/001016_2014-06-09_16-16-10_260595134347_rgbf000112-resize_5/001016_2014-06-09_16-16-10_260595134347_rgbf000112-resize_5-target.png,1000,1.6565,6,4367,985,feet,jsons/v1_VE1000_randls_59_rotated.json,844016,1136277,46,Woman
151,646459,DepthScenes,duration_manipulation_targetAtFixation,jsons/v1_VE1000_randls_59_rotated.json,http://54.235.29.9/FacialAge/BNav_EC2/DepthDuration/v2_depth_duration_MTurk/v2_DepthDuration_HTML.html#80,80,1280,720,1280,720,8-29-2022,14-31-26,152,depth_duration_stimuli/000569_2014-06-09_22-51-47_260595134347_rgbf000141-resize_3/000569_2014-06-09_22-51-47_260595134347_rgbf000141-resize-original.jpg,1000,4.512,0,4326,988,feet,jsons/v1_VE1000_randls_59_rotated.json,844016,1136277,46,Woman
152,646459,DepthScenes,duration_manipulation_targetAtFixation,jsons/v1_VE1000_randls_59_rotated.json,http://54.235.29.9/FacialAge/BNav_EC2/DepthDuration/v2_depth_duration_MTurk/v2_DepthDuration_HTML.html#80,80,1280,720,1280,720,8-29-2022,14-31-26,153,depth_duration_stimuli/001815_2014-06-26_20-52-55_260595134347_rgbf000020-resize_0/001815_2014-06-26_20-52-55_260595134347_rgbf000020-resize_0-target.png,1000,3.3865,8,3967,994,feet,jsons/v1_VE1000_randls_59_rotated.json,844016,1136277,46,Woman
153,646459,DepthScenes,duration_manipulation_targetAtFixation,jsons/v1_VE1000_randls_59_rotated.json,http://54.235.29.9/FacialAge/BNav_EC2/DepthDuration/v2_depth_duration_MTurk/v2_DepthDuration_HTML.html#80,80,1280,720,1280,720,8-29-2022,14-31-26,154,depth_duration_stimuli/001808_2014-06-26_20-50-58_260595134347_rgbf000029-resize_1/001808_2014-06-26_20-50-58_260595134347_rgbf000029-resize_1-target.png,1000,4.249,10,4705,1001,feet,jsons/v1_VE1000_randls_59_rotated.json,844016,1136277,46,Woman
154,646459,DepthScenes,duration_manipulation_targetAtFixation,jsons/v1_VE1000_randls_59_rotated.json,http://54.235.29.9/FacialAge/BNav_EC2/DepthDuration/v2_depth_duration_MTurk/v2_DepthDuration_HTML.html#80,80,1280,720,1280,720,8-29-2022,14-31-26,155,depth_duration_stimuli/000742_2014-06-08_18-48-09_260595134347_rgbf000164-resize_4/000742_2014-06-08_18-48-09_260595134347_rgbf000164-resize_4-target.png,1000,4.632,8,4168,998,feet,jsons/v1_VE1000_randls_59_rotated.json,844016,1136277,46,Woman
155,646459,DepthScenes,duration_manipulation_targetAtFixation,jsons/v1_VE1000_randls_59_rotated.json,http://54.235.29.9/FacialAge/BNav_EC2/DepthDuration/v2_depth_duration_MTurk/v2_DepthDuration_HTML.html#80,80,1280,720,1280,720,8-29-2022,14-31-26,156,depth_duration_stimuli/001066_2014-06-08_22-03-20_260595134347_rgbf000066-resize_4/001066_2014-06-08_22-03-20_260595134347_rgbf000066-resize_4-target.png,1000,4.2330000000000005,9,5685,1002,feet,jsons/v1_VE1000_randls_59_rotated.json,844016,1136277,46,Woman
156,646459,DepthScenes,duration_manipulation_targetAtFixation,jsons/v1_VE1000_randls_59_rotated.json,http://54.235.29.9/FacialAge/BNav_EC2/DepthDuration/v2_depth_duration_MTurk/v2_DepthDuration_HTML.html#80,80,1280,720,1280,720,8-29-2022,14-31-26,157,depth_duration_stimuli/002444_2014-06-28_20-32-08_260595134347_rgbf000027-resize_0/002444_2014-06-28_20-32-08_260595134347_rgbf000027-resize_0-target.png,1000,4.388999999999999,8,4664,1007,feet,jsons/v1_VE1000_randls_59_rotated.json,844016,1136277,46,Woman
157,646459,DepthScenes,duration_manipulation_targetAtFixation,jsons/v1_VE1000_randls_59_rotated.json,http://54.235.29.9/FacialAge/BNav_EC2/DepthDuration/v2_depth_duration_MTurk/v2_DepthDuration_HTML.html#80,80,1280,720,1280,720,8-29-2022,14-31-26,158,depth_duration_stimuli/000436_2014-06-09_22-25-11_260595134347_rgbf000137-resize_1/000436_2014-06-09_22-25-11_260595134347_rgbf000137-resize_1-target.png,1000,4.0705,10,4662,999,feet,jsons/v1_VE1000_randls_59_rotated.json,844016,1136277,46,Woman
158,646459,DepthScenes,duration_manipulation_targetAtFixation,jsons/v1_VE1000_randls_59_rotated.json,http://54.235.29.9/FacialAge/BNav_EC2/DepthDuration/v2_depth_duration_MTurk/v2_DepthDuration_HTML.html#80,80,1280,720,1280,720,8-29-2022,14-31-26,159,depth_duration_stimuli/002953_2014-06-08_17-32-18_094959634447_rgbf000059-resize_5/002953_2014-06-08_17-32-18_094959634447_rgbf000059-resize_5-target.png,1000,1.551,5,4950,1006,feet,jsons/v1_VE1000_randls_59_rotated.json,844016,1136277,46,Woman
159,646459,DepthScenes,duration_manipulation_targetAtFixation,jsons/v1_VE1000_randls_59_rotated.json,http://54.235.29.9/FacialAge/BNav_EC2/DepthDuration/v2_depth_duration_MTurk/v2_DepthDuration_HTML.html#80,80,1280,720,1280,720,8-29-2022,14-31-26,160,depth_duration_stimuli/000878_2014-06-08_22-52-45_260595134347_rgbf000045-resize_2/000878_2014-06-08_22-52-45_260595134347_rgbf000045-resize_2-target.png,1000,2.092,6,4129,1010,feet,jsons/v1_VE1000_randls_59_rotated.json,844016,1136277,46,Woman
160,646459,DepthScenes,duration_manipulation_targetAtFixation,jsons/v1_VE1000_randls_59_rotated.json,http://54.235.29.9/FacialAge/BNav_EC2/DepthDuration/v2_depth_duration_MTurk/v2_DepthDuration_HTML.html#80,80,1280,720,1280,720,8-29-2022,14-31-26,161,depth_duration_stimuli/002637_2014-06-24_14-51-13_094959634447_rgbf000066-resize_4/002637_2014-06-24_14-51-13_094959634447_rgbf000066-resize_4-target.png,1000,1.9955,6,3934,987,feet,jsons/v1_VE1000_randls_59_rotated.json,844016,1136277,46,Woman
161,646459,DepthScenes,duration_manipulation_targetAtFixation,jsons/v1_VE1000_randls_59_rotated.json,http://54.235.29.9/FacialAge/BNav_EC2/DepthDuration/v2_depth_duration_MTurk/v2_DepthDuration_HTML.html#80,80,1280,720,1280,720,8-29-2022,14-31-26,162,depth_duration_stimuli/003534_2014-05-22_15-06-10_094959634447_rgbf000102-resize_4/003534_2014-05-22_15-06-10_094959634447_rgbf000102-resize_4-target.png,1000,1.426,3,4522,1008,feet,jsons/v1_VE1000_randls_59_rotated.json,844016,1136277,46,Woman
162,646459,DepthScenes,duration_manipulation_targetAtFixation,jsons/v1_VE1000_randls_59_rotated.json,http://54.235.29.9/FacialAge/BNav_EC2/DepthDuration/v2_depth_duration_MTurk/v2_DepthDuration_HTML.html#80,80,1280,720,1280,720,8-29-2022,14-31-26,163,depth_duration_stimuli/000137_2014-05-20_17-04-49_260595134347_rgbf000120-resize_1/000137_2014-05-20_17-04-49_260595134347_rgbf000120-resize_1-target.png,1000,3.786,7,4745,1006,feet,jsons/v1_VE1000_randls_59_rotated.json,844016,1136277,46,Woman
163,646459,DepthScenes,duration_manipulation_targetAtFixation,jsons/v1_VE1000_randls_59_rotated.json,http://54.235.29.9/FacialAge/BNav_EC2/DepthDuration/v2_depth_duration_MTurk/v2_DepthDuration_HTML.html#80,80,1280,720,1280,720,8-29-2022,14-31-26,164,depth_duration_stimuli/000736_2014-06-08_18-24-15_260595134347_rgbf000206-resize_3/000736_2014-06-08_18-24-15_260595134347_rgbf000206-resize_3-target.png,1000,3.515,8,7284,1007,feet,jsons/v1_VE1000_randls_59_rotated.json,844016,1136277,46,Woman
