,subjID,experimentName,versionName,sequenceName,url,selected_row,windowWidth,windowHeight,screenWidth,screenHeight,startDate,startTime,trial,stimulus,duration,actual_depth,depth_estimate,trial_RT,log_sceneDuration,unitSelection,seq_filepath,experimentTime,totalTime,age,gender
0,646735,DepthScenes,duration_manipulation_targetAtFixation,jsons/v1_VE250_randls_22_rotated.json,http://54.235.29.9/FacialAge/BNav_EC2/DepthDuration/v2_depth_duration_MTurk/v2_DepthDuration_HTML.html#63,63,1366,768,1366,768,8-30-2022,10-9-24,1,depth_duration_stimuli/002545_2014-06-24_13-38-53_094959634447_rgbf000080-resize_4/002545_2014-06-24_13-38-53_094959634447_rgbf000080-resize_4-target.png,250,1.9205,3,9738,248,meters,jsons/v1_VE250_randls_22_rotated.json,1274667,1592044,29,Man
1,646735,DepthScenes,duration_manipulation_targetAtFixation,jsons/v1_VE250_randls_22_rotated.json,http://54.235.29.9/FacialAge/BNav_EC2/DepthDuration/v2_depth_duration_MTurk/v2_DepthDuration_HTML.html#63,63,1366,768,1366,768,8-30-2022,10-9-24,2,depth_duration_stimuli/001092_2014-06-15_17-34-58_260595134347_rgbf000171-resize_3/001092_2014-06-15_17-34-58_260595134347_rgbf000171-resize_3-target.png,250,2.6935,5,12263,250,meters,jsons/v1_VE250_randls_22_rotated.json,1274667,1592044,29,Man
2,646735,DepthScenes,duration_manipulation_targetAtFixation,jsons/v1_VE250_randls_22_rotated.json,http://54.235.29.9/FacialAge/BNav_EC2/DepthDuration/v2_depth_duration_MTurk/v2_DepthDuration_HTML.html#63,63,1366,768,1366,768,8-30-2022,10-9-24,3,depth_duration_stimuli/002678_2014-06-13_16-15-32_094959634447_rgbf000151-resize_6/002678_2014-06-13_16-15-32_094959634447_rgbf000151-resize_6-target.png,250,2.1830000000000003,2,8646,250,meters,jsons/v1_VE250_randls_22_rotated.json,1274667,1592044,29,Man
3,646735,DepthScenes,duration_manipulation_targetAtFixation,jsons/v1_VE250_randls_22_rotated.json,http://54.235.29.9/FacialAge/BNav_EC2/DepthDuration/v2_depth_duration_MTurk/v2_DepthDuration_HTML.html#63,63,1366,768,1366,768,8-30-2022,10-9-24,4,depth_duration_stimuli/000368_2014-06-09_15-53-01_260595134347_rgbf000155-resize_2/000368_2014-06-09_15-53-01_260595134347_rgbf000155-resize_2-target.png,250,2.4859999999999998,4,7417,251,meters,jsons/v1_VE250_randls_22_rotated.json,1274667,1592044,29,Man
4,646735,DepthScenes,duration_manipulation_targetAtFixation,jsons/v1_VE250_randls_22_rotated.json,http://54.235.29.9/FacialAge/BNav_EC2/DepthDuration/v2_depth_duration_MTurk/v2_DepthDuration_HTML.html#63,63,1366,768,1366,768,8-30-2022,10-9-24,5,depth_duration_stimuli/001571_2014-06-20_17-21-32_260595134347_rgbf000089-resize_1/001571_2014-06-20_17-21-32_260595134347_rgbf000089-resize_1-target.png,250,1.86,2,7959,250,meters,jsons/v1_VE250_randls_22_rotated.json,1274667,1592044,29,Man
5,646735,DepthScenes,duration_manipulation_targetAtFixation,jsons/v1_VE250_randls_22_rotated.json,http://54.235.29.9/FacialAge/BNav_EC2/DepthDuration/v2_depth_duration_MTurk/v2_DepthDuration_HTML.html#63,63,1366,768,1366,768,8-30-2022,10-9-24,6,depth_duration_stimuli/002272_2014-06-28_18-53-56_260595134347_rgbf000067-resize_2/002272_2014-06-28_18-53-56_260595134347_rgbf000067-resize_2-target.png,250,1.138,5,6133,248,meters,jsons/v1_VE250_randls_22_rotated.json,1274667,1592044,29,Man
6,646735,DepthScenes,duration_manipulation_targetAtFixation,jsons/v1_VE250_randls_22_rotated.json,http://54.235.29.9/FacialAge/BNav_EC2/DepthDuration/v2_depth_duration_MTurk/v2_DepthDuration_HTML.html#63,63,1366,768,1366,768,8-30-2022,10-9-24,7,depth_duration_stimuli/002414_2014-06-28_20-24-58_260595134347_rgbf000067-resize_4/002414_2014-06-28_20-24-58_260595134347_rgbf000067-resize_4-target.png,250,4.363,4,7858,250,meters,jsons/v1_VE250_randls_22_rotated.json,1274667,1592044,29,Man
7,646735,DepthScenes,duration_manipulation_targetAtFixation,jsons/v1_VE250_randls_22_rotated.json,http://54.235.29.9/FacialAge/BNav_EC2/DepthDuration/v2_depth_duration_MTurk/v2_DepthDuration_HTML.html#63,63,1366,768,1366,768,8-30-2022,10-9-24,8,depth_duration_stimuli/000773_2014-06-08_22-24-54_260595134347_rgbf000093-resize_1/000773_2014-06-08_22-24-54_260595134347_rgbf000093-resize_1-target.png,250,4.973,2,6842,250,meters,jsons/v1_VE250_randls_22_rotated.json,1274667,1592044,29,Man
8,646735,DepthScenes,duration_manipulation_targetAtFixation,jsons/v1_VE250_randls_22_rotated.json,http://54.235.29.9/FacialAge/BNav_EC2/DepthDuration/v2_depth_duration_MTurk/v2_DepthDuration_HTML.html#63,63,1366,768,1366,768,8-30-2022,10-9-24,9,depth_duration_stimuli/000556_2014-06-09_22-42-56_260595134347_rgbf000214-resize_1/000556_2014-06-09_22-42-56_260595134347_rgbf000214-resize_1-target.png,250,4.8415,1,6121,247,meters,jsons/v1_VE250_randls_22_rotated.json,1274667,1592044,29,Man
9,646735,DepthScenes,duration_manipulation_targetAtFixation,jsons/v1_VE250_randls_22_rotated.json,http://54.235.29.9/FacialAge/BNav_EC2/DepthDuration/v2_depth_duration_MTurk/v2_DepthDuration_HTML.html#63,63,1366,768,1366,768,8-30-2022,10-9-24,10,depth_duration_stimuli/001158_2014-06-17_15-32-16_260595134347_rgbf000138-resize_2/001158_2014-06-17_15-32-16_260595134347_rgbf000138-resize_2-target.png,250,4.5315,5,8235,263,meters,jsons/v1_VE250_randls_22_rotated.json,1274667,1592044,29,Man
10,646735,DepthScenes,duration_manipulation_targetAtFixation,jsons/v1_VE250_randls_22_rotated.json,http://54.235.29.9/FacialAge/BNav_EC2/DepthDuration/v2_depth_duration_MTurk/v2_DepthDuration_HTML.html#63,63,1366,768,1366,768,8-30-2022,10-9-24,11,depth_duration_stimuli/001132_2014-06-17_14-48-54_260595134347_rgbf000100-resize_2/001132_2014-06-17_14-48-54_260595134347_rgbf000100-resize_2-target.png,250,3.753,3,7382,218,meters,jsons/v1_VE250_randls_22_rotated.json,1274667,1592044,29,Man
11,646735,DepthScenes,duration_manipulation_targetAtFixation,jsons/v1_VE250_randls_22_rotated.json,http://54.235.29.9/FacialAge/BNav_EC2/DepthDuration/v2_depth_duration_MTurk/v2_DepthDuration_HTML.html#63,63,1366,768,1366,768,8-30-2022,10-9-24,12,depth_duration_stimuli/001133_2014-06-17_14-49-16_260595134347_rgbf000100-resize_0/001133_2014-06-17_14-49-16_260595134347_rgbf000100-resize_0-target.png,250,4.2115,5,8723,250,meters,jsons/v1_VE250_randls_22_rotated.json,1274667,1592044,29,Man
12,646735,DepthScenes,duration_manipulation_targetAtFixation,jsons/v1_VE250_randls_22_rotated.json,http://54.235.29.9/FacialAge/BNav_EC2/DepthDuration/v2_depth_duration_MTurk/v2_DepthDuration_HTML.html#63,63,1366,768,1366,768,8-30-2022,10-9-24,13,depth_duration_stimuli/001100_2014-06-15_17-46-26_260595134347_rgbf000225-resize_2/001100_2014-06-15_17-46-26_260595134347_rgbf000225-resize_2-target.png,250,2.24,0,7132,248,meters,jsons/v1_VE250_randls_22_rotated.json,1274667,1592044,29,Man
13,646735,DepthScenes,duration_manipulation_targetAtFixation,jsons/v1_VE250_randls_22_rotated.json,http://54.235.29.9/FacialAge/BNav_EC2/DepthDuration/v2_depth_duration_MTurk/v2_DepthDuration_HTML.html#63,63,1366,768,1366,768,8-30-2022,10-9-24,14,depth_duration_stimuli/002784_2014-06-22_19-26-30_094959634447_rgbf000083-resize_3/002784_2014-06-22_19-26-30_094959634447_rgbf000083-resize_3-target.png,250,1.8046666666667,3,8459,248,meters,jsons/v1_VE250_randls_22_rotated.json,1274667,1592044,29,Man
14,646735,DepthScenes,duration_manipulation_targetAtFixation,jsons/v1_VE250_randls_22_rotated.json,http://54.235.29.9/FacialAge/BNav_EC2/DepthDuration/v2_depth_duration_MTurk/v2_DepthDuration_HTML.html#63,63,1366,768,1366,768,8-30-2022,10-9-24,15,depth_duration_stimuli/000927_2014-06-09_16-32-30_260595134347_rgbf000123-resize_3/000927_2014-06-09_16-32-30_260595134347_rgbf000123-resize_3-target.png,250,2.6785,2,7223,234,meters,jsons/v1_VE250_randls_22_rotated.json,1274667,1592044,29,Man
15,646735,DepthScenes,duration_manipulation_targetAtFixation,jsons/v1_VE250_randls_22_rotated.json,http://54.235.29.9/FacialAge/BNav_EC2/DepthDuration/v2_depth_duration_MTurk/v2_DepthDuration_HTML.html#63,63,1366,768,1366,768,8-30-2022,10-9-24,16,depth_duration_stimuli/001110_2014-06-15_17-25-28_260595134347_rgbf000150-resize_1/001110_2014-06-15_17-25-28_260595134347_rgbf000150-resize_1-target.png,250,1.7115,5,6386,250,meters,jsons/v1_VE250_randls_22_rotated.json,1274667,1592044,29,Man
16,646735,DepthScenes,duration_manipulation_targetAtFixation,jsons/v1_VE250_randls_22_rotated.json,http://54.235.29.9/FacialAge/BNav_EC2/DepthDuration/v2_depth_duration_MTurk/v2_DepthDuration_HTML.html#63,63,1366,768,1366,768,8-30-2022,10-9-24,17,depth_duration_stimuli/001052_2014-06-08_18-24-54_260595134347_rgbf000130-resize_1/001052_2014-06-08_18-24-54_260595134347_rgbf000130-resize_1-target.png,250,4.1045,4,9253,248,meters,jsons/v1_VE250_randls_22_rotated.json,1274667,1592044,29,Man
17,646735,DepthScenes,duration_manipulation_targetAtFixation,jsons/v1_VE250_randls_22_rotated.json,http://54.235.29.9/FacialAge/BNav_EC2/DepthDuration/v2_depth_duration_MTurk/v2_DepthDuration_HTML.html#63,63,1366,768,1366,768,8-30-2022,10-9-24,18,depth_duration_stimuli/002988_2014-06-15_12-24-20_094959634447_rgbf000150-resize_1/002988_2014-06-15_12-24-20_094959634447_rgbf000150-resize_1-target.png,250,4.7669999999999995,1,6237,248,meters,jsons/v1_VE250_randls_22_rotated.json,1274667,1592044,29,Man
18,646735,DepthScenes,duration_manipulation_targetAtFixation,jsons/v1_VE250_randls_22_rotated.json,http://54.235.29.9/FacialAge/BNav_EC2/DepthDuration/v2_depth_duration_MTurk/v2_DepthDuration_HTML.html#63,63,1366,768,1366,768,8-30-2022,10-9-24,19,depth_duration_stimuli/001498_2014-06-19_17-45-14_260595134347_rgbf000129-resize_4/001498_2014-06-19_17-45-14_260595134347_rgbf000129-resize-original.jpg,250,1.4075,0,8062,244,meters,jsons/v1_VE250_randls_22_rotated.json,1274667,1592044,29,Man
19,646735,DepthScenes,duration_manipulation_targetAtFixation,jsons/v1_VE250_randls_22_rotated.json,http://54.235.29.9/FacialAge/BNav_EC2/DepthDuration/v2_depth_duration_MTurk/v2_DepthDuration_HTML.html#63,63,1366,768,1366,768,8-30-2022,10-9-24,20,depth_duration_stimuli/001650_2014-06-20_12-09-00_260595134347_rgbf000087-resize_3/001650_2014-06-20_12-09-00_260595134347_rgbf000087-resize_3-target.png,250,1.9505,3,10131,249,meters,jsons/v1_VE250_randls_22_rotated.json,1274667,1592044,29,Man
20,646735,DepthScenes,duration_manipulation_targetAtFixation,jsons/v1_VE250_randls_22_rotated.json,http://54.235.29.9/FacialAge/BNav_EC2/DepthDuration/v2_depth_duration_MTurk/v2_DepthDuration_HTML.html#63,63,1366,768,1366,768,8-30-2022,10-9-24,21,depth_duration_stimuli/000682_2014-06-08_23-14-58_260595134347_rgbf000041-resize_5/000682_2014-06-08_23-14-58_260595134347_rgbf000041-resize_5-target.png,250,2.7239999999999998,3,8852,248,meters,jsons/v1_VE250_randls_22_rotated.json,1274667,1592044,29,Man
21,646735,DepthScenes,duration_manipulation_targetAtFixation,jsons/v1_VE250_randls_22_rotated.json,http://54.235.29.9/FacialAge/BNav_EC2/DepthDuration/v2_depth_duration_MTurk/v2_DepthDuration_HTML.html#63,63,1366,768,1366,768,8-30-2022,10-9-24,22,depth_duration_stimuli/000742_2014-06-08_18-48-09_260595134347_rgbf000164-resize_4/000742_2014-06-08_18-48-09_260595134347_rgbf000164-resize_4-target.png,250,4.632,4,9586,217,meters,jsons/v1_VE250_randls_22_rotated.json,1274667,1592044,29,Man
22,646735,DepthScenes,duration_manipulation_targetAtFixation,jsons/v1_VE250_randls_22_rotated.json,http://54.235.29.9/FacialAge/BNav_EC2/DepthDuration/v2_depth_duration_MTurk/v2_DepthDuration_HTML.html#63,63,1366,768,1366,768,8-30-2022,10-9-24,23,depth_duration_stimuli/001066_2014-06-08_22-03-20_260595134347_rgbf000066-resize_4/001066_2014-06-08_22-03-20_260595134347_rgbf000066-resize_4-target.png,250,4.2330000000000005,4,12505,250,meters,jsons/v1_VE250_randls_22_rotated.json,1274667,1592044,29,Man
23,646735,DepthScenes,duration_manipulation_targetAtFixation,jsons/v1_VE250_randls_22_rotated.json,http://54.235.29.9/FacialAge/BNav_EC2/DepthDuration/v2_depth_duration_MTurk/v2_DepthDuration_HTML.html#63,63,1366,768,1366,768,8-30-2022,10-9-24,24,depth_duration_stimuli/000549_2014-06-08_22-10-24_260595134347_rgbf000247-resize_3/000549_2014-06-08_22-10-24_260595134347_rgbf000247-resize_3-target.png,250,1.841,0,7884,250,meters,jsons/v1_VE250_randls_22_rotated.json,1274667,1592044,29,Man
24,646735,DepthScenes,duration_manipulation_targetAtFixation,jsons/v1_VE250_randls_22_rotated.json,http://54.235.29.9/FacialAge/BNav_EC2/DepthDuration/v2_depth_duration_MTurk/v2_DepthDuration_HTML.html#63,63,1366,768,1366,768,8-30-2022,10-9-24,25,depth_duration_stimuli/001055_2014-06-08_18-45-35_260595134347_rgbf000111-resize_4/001055_2014-06-08_18-45-35_260595134347_rgbf000111-resize_4-target.png,250,2.4290000000000003,0,10437,251,meters,jsons/v1_VE250_randls_22_rotated.json,1274667,1592044,29,Man
25,646735,DepthScenes,duration_manipulation_targetAtFixation,jsons/v1_VE250_randls_22_rotated.json,http://54.235.29.9/FacialAge/BNav_EC2/DepthDuration/v2_depth_duration_MTurk/v2_DepthDuration_HTML.html#63,63,1366,768,1366,768,8-30-2022,10-9-24,26,depth_duration_stimuli/000734_2014-06-08_17-39-11_260595134347_rgbf000128-resize_2/000734_2014-06-08_17-39-11_260595134347_rgbf000128-resize_2-target.png,250,4.098,2,9874,249,meters,jsons/v1_VE250_randls_22_rotated.json,1274667,1592044,29,Man
26,646735,DepthScenes,duration_manipulation_targetAtFixation,jsons/v1_VE250_randls_22_rotated.json,http://54.235.29.9/FacialAge/BNav_EC2/DepthDuration/v2_depth_duration_MTurk/v2_DepthDuration_HTML.html#63,63,1366,768,1366,768,8-30-2022,10-9-24,27,depth_duration_stimuli/000739_2014-06-08_18-45-58_260595134347_rgbf000068-resize_1/000739_2014-06-08_18-45-58_260595134347_rgbf000068-resize_1-target.png,250,3.534,4,6937,266,meters,jsons/v1_VE250_randls_22_rotated.json,1274667,1592044,29,Man
27,646735,DepthScenes,duration_manipulation_targetAtFixation,jsons/v1_VE250_randls_22_rotated.json,http://54.235.29.9/FacialAge/BNav_EC2/DepthDuration/v2_depth_duration_MTurk/v2_DepthDuration_HTML.html#63,63,1366,768,1366,768,8-30-2022,10-9-24,28,depth_duration_stimuli/003010_2014-06-15_12-54-35_094959634447_rgbf000112-resize_0/003010_2014-06-15_12-54-35_094959634447_rgbf000112-resize_0-target.png,250,3.1185,5,12552,250,meters,jsons/v1_VE250_randls_22_rotated.json,1274667,1592044,29,Man
28,646735,DepthScenes,duration_manipulation_targetAtFixation,jsons/v1_VE250_randls_22_rotated.json,http://54.235.29.9/FacialAge/BNav_EC2/DepthDuration/v2_depth_duration_MTurk/v2_DepthDuration_HTML.html#63,63,1366,768,1366,768,8-30-2022,10-9-24,29,depth_duration_stimuli/001810_2014-06-26_20-51-35_260595134347_rgbf000040-resize_3/001810_2014-06-26_20-51-35_260595134347_rgbf000040-resize_3-target.png,250,2.2525,2,7509,247,meters,jsons/v1_VE250_randls_22_rotated.json,1274667,1592044,29,Man
29,646735,DepthScenes,duration_manipulation_targetAtFixation,jsons/v1_VE250_randls_22_rotated.json,http://54.235.29.9/FacialAge/BNav_EC2/DepthDuration/v2_depth_duration_MTurk/v2_DepthDuration_HTML.html#63,63,1366,768,1366,768,8-30-2022,10-9-24,30,depth_duration_stimuli/002072_2014-06-24_21-48-06_260595134347_rgbf000115-resize_0/002072_2014-06-24_21-48-06_260595134347_rgbf000115-resize-original.jpg,250,4.702,0,9091,249,meters,jsons/v1_VE250_randls_22_rotated.json,1274667,1592044,29,Man
30,646735,DepthScenes,duration_manipulation_targetAtFixation,jsons/v1_VE250_randls_22_rotated.json,http://54.235.29.9/FacialAge/BNav_EC2/DepthDuration/v2_depth_duration_MTurk/v2_DepthDuration_HTML.html#63,63,1366,768,1366,768,8-30-2022,10-9-24,31,depth_duration_stimuli/002340_2014-06-28_20-05-46_260595134347_rgbf000113-resize_0/002340_2014-06-28_20-05-46_260595134347_rgbf000113-resize_0-target.png,250,2.4735,3,7346,248,meters,jsons/v1_VE250_randls_22_rotated.json,1274667,1592044,29,Man
31,646735,DepthScenes,duration_manipulation_targetAtFixation,jsons/v1_VE250_randls_22_rotated.json,http://54.235.29.9/FacialAge/BNav_EC2/DepthDuration/v2_depth_duration_MTurk/v2_DepthDuration_HTML.html#63,63,1366,768,1366,768,8-30-2022,10-9-24,32,depth_duration_stimuli/001016_2014-06-09_16-16-10_260595134347_rgbf000112-resize_5/001016_2014-06-09_16-16-10_260595134347_rgbf000112-resize_5-target.png,250,1.6565,0,7689,245,meters,jsons/v1_VE250_randls_22_rotated.json,1274667,1592044,29,Man
32,646735,DepthScenes,duration_manipulation_targetAtFixation,jsons/v1_VE250_randls_22_rotated.json,http://54.235.29.9/FacialAge/BNav_EC2/DepthDuration/v2_depth_duration_MTurk/v2_DepthDuration_HTML.html#63,63,1366,768,1366,768,8-30-2022,10-9-24,33,depth_duration_stimuli/002209_2014-06-28_18-36-10_260595134347_rgbf000051-resize_1/002209_2014-06-28_18-36-10_260595134347_rgbf000051-resize_1-target.png,250,2.057,1,4948,249,meters,jsons/v1_VE250_randls_22_rotated.json,1274667,1592044,29,Man
33,646735,DepthScenes,duration_manipulation_targetAtFixation,jsons/v1_VE250_randls_22_rotated.json,http://54.235.29.9/FacialAge/BNav_EC2/DepthDuration/v2_depth_duration_MTurk/v2_DepthDuration_HTML.html#63,63,1366,768,1366,768,8-30-2022,10-9-24,34,depth_duration_stimuli/002763_2014-06-22_19-13-10_094959634447_rgbf000075-resize_4/002763_2014-06-22_19-13-10_094959634447_rgbf000075-resize_4-target.png,250,1.68375,4,6313,249,meters,jsons/v1_VE250_randls_22_rotated.json,1274667,1592044,29,Man
34,646735,DepthScenes,duration_manipulation_targetAtFixation,jsons/v1_VE250_randls_22_rotated.json,http://54.235.29.9/FacialAge/BNav_EC2/DepthDuration/v2_depth_duration_MTurk/v2_DepthDuration_HTML.html#63,63,1366,768,1366,768,8-30-2022,10-9-24,35,depth_duration_stimuli/002199_2014-06-28_18-33-56_260595134347_rgbf000074-resize_0/002199_2014-06-28_18-33-56_260595134347_rgbf000074-resize_0-target.png,250,1.996,3,4952,222,meters,jsons/v1_VE250_randls_22_rotated.json,1274667,1592044,29,Man
35,646735,DepthScenes,duration_manipulation_targetAtFixation,jsons/v1_VE250_randls_22_rotated.json,http://54.235.29.9/FacialAge/BNav_EC2/DepthDuration/v2_depth_duration_MTurk/v2_DepthDuration_HTML.html#63,63,1366,768,1366,768,8-30-2022,10-9-24,36,depth_duration_stimuli/001056_2014-06-08_18-46-44_260595134347_rgbf000068-resize_0/001056_2014-06-08_18-46-44_260595134347_rgbf000068-resize_0-target.png,250,2.6625,0,6069,249,meters,jsons/v1_VE250_randls_22_rotated.json,1274667,1592044,29,Man
36,646735,DepthScenes,duration_manipulation_targetAtFixation,jsons/v1_VE250_randls_22_rotated.json,http://54.235.29.9/FacialAge/BNav_EC2/DepthDuration/v2_depth_duration_MTurk/v2_DepthDuration_HTML.html#63,63,1366,768,1366,768,8-30-2022,10-9-24,37,depth_duration_stimuli/003228_2014-05-14_13-42-35_094959634447_rgbf000101-resize_1/003228_2014-05-14_13-42-35_094959634447_rgbf000101-resize_1-target.png,250,1.9680000000000002,0,6529,251,meters,jsons/v1_VE250_randls_22_rotated.json,1274667,1592044,29,Man
37,646735,DepthScenes,duration_manipulation_targetAtFixation,jsons/v1_VE250_randls_22_rotated.json,http://54.235.29.9/FacialAge/BNav_EC2/DepthDuration/v2_depth_duration_MTurk/v2_DepthDuration_HTML.html#63,63,1366,768,1366,768,8-30-2022,10-9-24,38,depth_duration_stimuli/002600_2014-06-24_14-27-04_094959634447_rgbf000074-resize_2/002600_2014-06-24_14-27-04_094959634447_rgbf000074-resize_2-target.png,250,2.7575,4,4100,254,meters,jsons/v1_VE250_randls_22_rotated.json,1274667,1592044,29,Man
38,646735,DepthScenes,duration_manipulation_targetAtFixation,jsons/v1_VE250_randls_22_rotated.json,http://54.235.29.9/FacialAge/BNav_EC2/DepthDuration/v2_depth_duration_MTurk/v2_DepthDuration_HTML.html#63,63,1366,768,1366,768,8-30-2022,10-9-24,39,depth_duration_stimuli/000137_2014-05-20_17-04-49_260595134347_rgbf000120-resize_1/000137_2014-05-20_17-04-49_260595134347_rgbf000120-resize_1-target.png,250,3.786,5,6742,249,meters,jsons/v1_VE250_randls_22_rotated.json,1274667,1592044,29,Man
39,646735,DepthScenes,duration_manipulation_targetAtFixation,jsons/v1_VE250_randls_22_rotated.json,http://54.235.29.9/FacialAge/BNav_EC2/DepthDuration/v2_depth_duration_MTurk/v2_DepthDuration_HTML.html#63,63,1366,768,1366,768,8-30-2022,10-9-24,40,depth_duration_stimuli/000736_2014-06-08_18-24-15_260595134347_rgbf000206-resize_3/000736_2014-06-08_18-24-15_260595134347_rgbf000206-resize_3-target.png,250,3.515,1,5161,250,meters,jsons/v1_VE250_randls_22_rotated.json,1274667,1592044,29,Man
40,646735,DepthScenes,duration_manipulation_targetAtFixation,jsons/v1_VE250_randls_22_rotated.json,http://54.235.29.9/FacialAge/BNav_EC2/DepthDuration/v2_depth_duration_MTurk/v2_DepthDuration_HTML.html#63,63,1366,768,1366,768,8-30-2022,10-9-24,41,depth_duration_stimuli/000103_2014-05-14_22-01-17_260595134347_rgbf000152-resize_5/000103_2014-05-14_22-01-17_260595134347_rgbf000152-resize_5-target.png,250,1.993,3,6369,250,meters,jsons/v1_VE250_randls_22_rotated.json,1274667,1592044,29,Man
41,646735,DepthScenes,duration_manipulation_targetAtFixation,jsons/v1_VE250_randls_22_rotated.json,http://54.235.29.9/FacialAge/BNav_EC2/DepthDuration/v2_depth_duration_MTurk/v2_DepthDuration_HTML.html#63,63,1366,768,1366,768,8-30-2022,10-9-24,42,depth_duration_stimuli/001555_2014-06-20_17-12-10_260595134347_rgbf000065-resize_4/001555_2014-06-20_17-12-10_260595134347_rgbf000065-resize_4-target.png,250,1.633,2,4338,248,meters,jsons/v1_VE250_randls_22_rotated.json,1274667,1592044,29,Man
42,646735,DepthScenes,duration_manipulation_targetAtFixation,jsons/v1_VE250_randls_22_rotated.json,http://54.235.29.9/FacialAge/BNav_EC2/DepthDuration/v2_depth_duration_MTurk/v2_DepthDuration_HTML.html#63,63,1366,768,1366,768,8-30-2022,10-9-24,43,depth_duration_stimuli/003081_2014-06-15_15-19-16_094959634447_rgbf000150-resize_1/003081_2014-06-15_15-19-16_094959634447_rgbf000150-resize_1-target.png,250,3.9125,5,8655,246,meters,jsons/v1_VE250_randls_22_rotated.json,1274667,1592044,29,Man
43,646735,DepthScenes,duration_manipulation_targetAtFixation,jsons/v1_VE250_randls_22_rotated.json,http://54.235.29.9/FacialAge/BNav_EC2/DepthDuration/v2_depth_duration_MTurk/v2_DepthDuration_HTML.html#63,63,1366,768,1366,768,8-30-2022,10-9-24,44,depth_duration_stimuli/001417_2014-06-19_16-25-36_260595134347_rgbf000115-resize_5/001417_2014-06-19_16-25-36_260595134347_rgbf000115-resize_5-target.png,250,4.6255,2,5257,249,meters,jsons/v1_VE250_randls_22_rotated.json,1274667,1592044,29,Man
44,646735,DepthScenes,duration_manipulation_targetAtFixation,jsons/v1_VE250_randls_22_rotated.json,http://54.235.29.9/FacialAge/BNav_EC2/DepthDuration/v2_depth_duration_MTurk/v2_DepthDuration_HTML.html#63,63,1366,768,1366,768,8-30-2022,10-9-24,45,depth_duration_stimuli/000665_2014-06-09_20-42-35_260595134347_rgbf000110-resize_1/000665_2014-06-09_20-42-35_260595134347_rgbf000110-resize_1-target.png,250,3.057,0,5981,248,meters,jsons/v1_VE250_randls_22_rotated.json,1274667,1592044,29,Man
45,646735,DepthScenes,duration_manipulation_targetAtFixation,jsons/v1_VE250_randls_22_rotated.json,http://54.235.29.9/FacialAge/BNav_EC2/DepthDuration/v2_depth_duration_MTurk/v2_DepthDuration_HTML.html#63,63,1366,768,1366,768,8-30-2022,10-9-24,46,depth_duration_stimuli/001150_2014-06-17_15-27-34_260595134347_rgbf000108-resize_2/001150_2014-06-17_15-27-34_260595134347_rgbf000108-resize_2-target.png,250,4.0325,0,5417,250,meters,jsons/v1_VE250_randls_22_rotated.json,1274667,1592044,29,Man
46,646735,DepthScenes,duration_manipulation_targetAtFixation,jsons/v1_VE250_randls_22_rotated.json,http://54.235.29.9/FacialAge/BNav_EC2/DepthDuration/v2_depth_duration_MTurk/v2_DepthDuration_HTML.html#63,63,1366,768,1366,768,8-30-2022,10-9-24,47,depth_duration_stimuli/000854_2014-06-09_19-43-13_260595134347_rgbf000066-resize_0/000854_2014-06-09_19-43-13_260595134347_rgbf000066-resize_0-target.png,250,3.068,0,5176,245,meters,jsons/v1_VE250_randls_22_rotated.json,1274667,1592044,29,Man
47,646735,DepthScenes,duration_manipulation_targetAtFixation,jsons/v1_VE250_randls_22_rotated.json,http://54.235.29.9/FacialAge/BNav_EC2/DepthDuration/v2_depth_duration_MTurk/v2_DepthDuration_HTML.html#63,63,1366,768,1366,768,8-30-2022,10-9-24,48,depth_duration_stimuli/000758_2014-06-08_22-05-08_260595134347_rgbf000085-resize_0/000758_2014-06-08_22-05-08_260595134347_rgbf000085-resize_0-target.png,250,3.3810000000000002,3,9377,250,meters,jsons/v1_VE250_randls_22_rotated.json,1274667,1592044,29,Man
48,646735,DepthScenes,duration_manipulation_targetAtFixation,jsons/v1_VE250_randls_22_rotated.json,http://54.235.29.9/FacialAge/BNav_EC2/DepthDuration/v2_depth_duration_MTurk/v2_DepthDuration_HTML.html#63,63,1366,768,1366,768,8-30-2022,10-9-24,49,depth_duration_stimuli/001170_2014-06-17_15-43-44_260595134347_rgbf000096-resize_6/001170_2014-06-17_15-43-44_260595134347_rgbf000096-resize-original.jpg,250,1.1909999999999998,2,6699,250,meters,jsons/v1_VE250_randls_22_rotated.json,1274667,1592044,29,Man
49,646735,DepthScenes,duration_manipulation_targetAtFixation,jsons/v1_VE250_randls_22_rotated.json,http://54.235.29.9/FacialAge/BNav_EC2/DepthDuration/v2_depth_duration_MTurk/v2_DepthDuration_HTML.html#63,63,1366,768,1366,768,8-30-2022,10-9-24,50,depth_duration_stimuli/001516_2014-06-20_16-25-09_260595134347_rgbf000076-resize_2/001516_2014-06-20_16-25-09_260595134347_rgbf000076-resize_2-target.png,250,1.7445,3,3975,249,meters,jsons/v1_VE250_randls_22_rotated.json,1274667,1592044,29,Man
50,646735,DepthScenes,duration_manipulation_targetAtFixation,jsons/v1_VE250_randls_22_rotated.json,http://54.235.29.9/FacialAge/BNav_EC2/DepthDuration/v2_depth_duration_MTurk/v2_DepthDuration_HTML.html#63,63,1366,768,1366,768,8-30-2022,10-9-24,51,depth_duration_stimuli/002118_2014-06-25_20-32-08_260595134347_rgbf000078-resize_1/002118_2014-06-25_20-32-08_260595134347_rgbf000078-resize_1-target.png,250,2.6460000000000004,5,3534,248,meters,jsons/v1_VE250_randls_22_rotated.json,1274667,1592044,29,Man
51,646735,DepthScenes,duration_manipulation_targetAtFixation,jsons/v1_VE250_randls_22_rotated.json,http://54.235.29.9/FacialAge/BNav_EC2/DepthDuration/v2_depth_duration_MTurk/v2_DepthDuration_HTML.html#63,63,1366,768,1366,768,8-30-2022,10-9-24,52,depth_duration_stimuli/002995_2014-06-15_12-31-26_094959634447_rgbf000150-resize_1/002995_2014-06-15_12-31-26_094959634447_rgbf000150-resize_1-target.png,250,3.8360000000000003,1,7556,250,meters,jsons/v1_VE250_randls_22_rotated.json,1274667,1592044,29,Man
52,646735,DepthScenes,duration_manipulation_targetAtFixation,jsons/v1_VE250_randls_22_rotated.json,http://54.235.29.9/FacialAge/BNav_EC2/DepthDuration/v2_depth_duration_MTurk/v2_DepthDuration_HTML.html#63,63,1366,768,1366,768,8-30-2022,10-9-24,53,depth_duration_stimuli/002748_2014-06-22_19-07-22_094959634447_rgbf000078-resize_1/002748_2014-06-22_19-07-22_094959634447_rgbf000078-resize_1-target.png,250,4.6705,1,22820,249,meters,jsons/v1_VE250_randls_22_rotated.json,1274667,1592044,29,Man
53,646735,DepthScenes,duration_manipulation_targetAtFixation,jsons/v1_VE250_randls_22_rotated.json,http://54.235.29.9/FacialAge/BNav_EC2/DepthDuration/v2_depth_duration_MTurk/v2_DepthDuration_HTML.html#63,63,1366,768,1366,768,8-30-2022,10-9-24,54,depth_duration_stimuli/003048_2014-06-15_13-49-43_094959634447_rgbf000150-resize_1/003048_2014-06-15_13-49-43_094959634447_rgbf000150-resize_1-target.png,250,4.0035,2,6251,242,meters,jsons/v1_VE250_randls_22_rotated.json,1274667,1592044,29,Man
54,646735,DepthScenes,duration_manipulation_targetAtFixation,jsons/v1_VE250_randls_22_rotated.json,http://54.235.29.9/FacialAge/BNav_EC2/DepthDuration/v2_depth_duration_MTurk/v2_DepthDuration_HTML.html#63,63,1366,768,1366,768,8-30-2022,10-9-24,55,depth_duration_stimuli/002043_2014-06-24_20-29-38_260595134347_rgbf000039-resize_4/002043_2014-06-24_20-29-38_260595134347_rgbf000039-resize_4-target.png,250,2.8435,3,4602,249,meters,jsons/v1_VE250_randls_22_rotated.json,1274667,1592044,29,Man
55,646735,DepthScenes,duration_manipulation_targetAtFixation,jsons/v1_VE250_randls_22_rotated.json,http://54.235.29.9/FacialAge/BNav_EC2/DepthDuration/v2_depth_duration_MTurk/v2_DepthDuration_HTML.html#63,63,1366,768,1366,768,8-30-2022,10-9-24,56,depth_duration_stimuli/000943_2014-06-09_19-31-07_260595134347_rgbf000128-resize_1/000943_2014-06-09_19-31-07_260595134347_rgbf000128-resize_1-target.png,250,1.9765,5,6465,250,meters,jsons/v1_VE250_randls_22_rotated.json,1274667,1592044,29,Man
56,646735,DepthScenes,duration_manipulation_targetAtFixation,jsons/v1_VE250_randls_22_rotated.json,http://54.235.29.9/FacialAge/BNav_EC2/DepthDuration/v2_depth_duration_MTurk/v2_DepthDuration_HTML.html#63,63,1366,768,1366,768,8-30-2022,10-9-24,57,depth_duration_stimuli/003070_2014-06-15_14-58-27_094959634447_rgbf000150-resize_3/003070_2014-06-15_14-58-27_094959634447_rgbf000150-resize_3-target.png,250,2.9415,2,4458,247,meters,jsons/v1_VE250_randls_22_rotated.json,1274667,1592044,29,Man
57,646735,DepthScenes,duration_manipulation_targetAtFixation,jsons/v1_VE250_randls_22_rotated.json,http://54.235.29.9/FacialAge/BNav_EC2/DepthDuration/v2_depth_duration_MTurk/v2_DepthDuration_HTML.html#63,63,1366,768,1366,768,8-30-2022,10-9-24,58,depth_duration_stimuli/003490_2014-05-21_15-50-11_094959634447_rgbf000101-resize_3/003490_2014-05-21_15-50-11_094959634447_rgbf000101-resize_3-target.png,250,3.6445,2,11656,249,meters,jsons/v1_VE250_randls_22_rotated.json,1274667,1592044,29,Man
58,646735,DepthScenes,duration_manipulation_targetAtFixation,jsons/v1_VE250_randls_22_rotated.json,http://54.235.29.9/FacialAge/BNav_EC2/DepthDuration/v2_depth_duration_MTurk/v2_DepthDuration_HTML.html#63,63,1366,768,1366,768,8-30-2022,10-9-24,59,depth_duration_stimuli/001175_2014-06-17_15-45-55_260595134347_rgbf000129-resize_4/001175_2014-06-17_15-45-55_260595134347_rgbf000129-resize_4-target.png,250,4.255,3,4771,250,meters,jsons/v1_VE250_randls_22_rotated.json,1274667,1592044,29,Man
59,646735,DepthScenes,duration_manipulation_targetAtFixation,jsons/v1_VE250_randls_22_rotated.json,http://54.235.29.9/FacialAge/BNav_EC2/DepthDuration/v2_depth_duration_MTurk/v2_DepthDuration_HTML.html#63,63,1366,768,1366,768,8-30-2022,10-9-24,60,depth_duration_stimuli/000191_2014-05-12_17-07-38_260595134347_rgbf000199-resize_0/000191_2014-05-12_17-07-38_260595134347_rgbf000199-resize_0-target.png,250,3.7995,2,5312,250,meters,jsons/v1_VE250_randls_22_rotated.json,1274667,1592044,29,Man
60,646735,DepthScenes,duration_manipulation_targetAtFixation,jsons/v1_VE250_randls_22_rotated.json,http://54.235.29.9/FacialAge/BNav_EC2/DepthDuration/v2_depth_duration_MTurk/v2_DepthDuration_HTML.html#63,63,1366,768,1366,768,8-30-2022,10-9-24,61,depth_duration_stimuli/000493_2014-06-09_21-01-18_260595134347_rgbf000196-resize_3/000493_2014-06-09_21-01-18_260595134347_rgbf000196-resize_3-target.png,250,3.44,2,4981,250,meters,jsons/v1_VE250_randls_22_rotated.json,1274667,1592044,29,Man
61,646735,DepthScenes,duration_manipulation_targetAtFixation,jsons/v1_VE250_randls_22_rotated.json,http://54.235.29.9/FacialAge/BNav_EC2/DepthDuration/v2_depth_duration_MTurk/v2_DepthDuration_HTML.html#63,63,1366,768,1366,768,8-30-2022,10-9-24,62,depth_duration_stimuli/001450_2014-06-19_17-02-03_260595134347_rgbf000203-resize_4/001450_2014-06-19_17-02-03_260595134347_rgbf000203-resize_4-target.png,250,4.0106666666667,1,5885,248,meters,jsons/v1_VE250_randls_22_rotated.json,1274667,1592044,29,Man
62,646735,DepthScenes,duration_manipulation_targetAtFixation,jsons/v1_VE250_randls_22_rotated.json,http://54.235.29.9/FacialAge/BNav_EC2/DepthDuration/v2_depth_duration_MTurk/v2_DepthDuration_HTML.html#63,63,1366,768,1366,768,8-30-2022,10-9-24,63,depth_duration_stimuli/001449_2014-06-19_17-01-27_260595134347_rgbf000116-resize_2/001449_2014-06-19_17-01-27_260595134347_rgbf000116-resize_2-target.png,250,3.452,2,4817,249,meters,jsons/v1_VE250_randls_22_rotated.json,1274667,1592044,29,Man
63,646735,DepthScenes,duration_manipulation_targetAtFixation,jsons/v1_VE250_randls_22_rotated.json,http://54.235.29.9/FacialAge/BNav_EC2/DepthDuration/v2_depth_duration_MTurk/v2_DepthDuration_HTML.html#63,63,1366,768,1366,768,8-30-2022,10-9-24,64,depth_duration_stimuli/001032_2014-06-08_13-23-17_260595134347_rgbf000021-resize_3/001032_2014-06-08_13-23-17_260595134347_rgbf000021-resize_3-target.png,250,3.2725,1,8416,250,meters,jsons/v1_VE250_randls_22_rotated.json,1274667,1592044,29,Man
64,646735,DepthScenes,duration_manipulation_targetAtFixation,jsons/v1_VE250_randls_22_rotated.json,http://54.235.29.9/FacialAge/BNav_EC2/DepthDuration/v2_depth_duration_MTurk/v2_DepthDuration_HTML.html#63,63,1366,768,1366,768,8-30-2022,10-9-24,65,depth_duration_stimuli/001059_2014-06-08_21-53-27_260595134347_rgbf000061-resize_4/001059_2014-06-08_21-53-27_260595134347_rgbf000061-resize_4-target.png,250,2.4185,4,7217,250,meters,jsons/v1_VE250_randls_22_rotated.json,1274667,1592044,29,Man
65,646735,DepthScenes,duration_manipulation_targetAtFixation,jsons/v1_VE250_randls_22_rotated.json,http://54.235.29.9/FacialAge/BNav_EC2/DepthDuration/v2_depth_duration_MTurk/v2_DepthDuration_HTML.html#63,63,1366,768,1366,768,8-30-2022,10-9-24,66,depth_duration_stimuli/001540_2014-06-20_17-01-05_260595134347_rgbf000086-resize_2/001540_2014-06-20_17-01-05_260595134347_rgbf000086-resize-original.jpg,250,1.459,0,6097,250,meters,jsons/v1_VE250_randls_22_rotated.json,1274667,1592044,29,Man
66,646735,DepthScenes,duration_manipulation_targetAtFixation,jsons/v1_VE250_randls_22_rotated.json,http://54.235.29.9/FacialAge/BNav_EC2/DepthDuration/v2_depth_duration_MTurk/v2_DepthDuration_HTML.html#63,63,1366,768,1366,768,8-30-2022,10-9-24,67,depth_duration_stimuli/002103_2014-06-25_20-00-40_260595134347_rgbf000049-resize_0/002103_2014-06-25_20-00-40_260595134347_rgbf000049-resize_0-target.png,250,4.105,3,6021,250,meters,jsons/v1_VE250_randls_22_rotated.json,1274667,1592044,29,Man
67,646735,DepthScenes,duration_manipulation_targetAtFixation,jsons/v1_VE250_randls_22_rotated.json,http://54.235.29.9/FacialAge/BNav_EC2/DepthDuration/v2_depth_duration_MTurk/v2_DepthDuration_HTML.html#63,63,1366,768,1366,768,8-30-2022,10-9-24,68,depth_duration_stimuli/002039_2014-06-24_20-22-38_260595134347_rgbf000084-resize_1/002039_2014-06-24_20-22-38_260595134347_rgbf000084-resize_1-target.png,250,4.408,2,4005,218,meters,jsons/v1_VE250_randls_22_rotated.json,1274667,1592044,29,Man
68,646735,DepthScenes,duration_manipulation_targetAtFixation,jsons/v1_VE250_randls_22_rotated.json,http://54.235.29.9/FacialAge/BNav_EC2/DepthDuration/v2_depth_duration_MTurk/v2_DepthDuration_HTML.html#63,63,1366,768,1366,768,8-30-2022,10-9-24,69,depth_duration_stimuli/001392_2014-06-19_16-07-59_260595134347_rgbf000046-resize_1/001392_2014-06-19_16-07-59_260595134347_rgbf000046-resize_1-target.png,250,4.135,5,7463,247,meters,jsons/v1_VE250_randls_22_rotated.json,1274667,1592044,29,Man
69,646735,DepthScenes,duration_manipulation_targetAtFixation,jsons/v1_VE250_randls_22_rotated.json,http://54.235.29.9/FacialAge/BNav_EC2/DepthDuration/v2_depth_duration_MTurk/v2_DepthDuration_HTML.html#63,63,1366,768,1366,768,8-30-2022,10-9-24,70,depth_duration_stimuli/001570_2014-06-20_17-21-09_260595134347_rgbf000135-resize_4/001570_2014-06-20_17-21-09_260595134347_rgbf000135-resize_4-target.png,250,4.467,2,5185,244,meters,jsons/v1_VE250_randls_22_rotated.json,1274667,1592044,29,Man
70,646735,DepthScenes,duration_manipulation_targetAtFixation,jsons/v1_VE250_randls_22_rotated.json,http://54.235.29.9/FacialAge/BNav_EC2/DepthDuration/v2_depth_duration_MTurk/v2_DepthDuration_HTML.html#63,63,1366,768,1366,768,8-30-2022,10-9-24,71,depth_duration_stimuli/002136_2014-06-25_21-18-03_260595134347_rgbf000109-resize_3/002136_2014-06-25_21-18-03_260595134347_rgbf000109-resize_3-target.png,250,1.9569999999999999,3,4852,250,meters,jsons/v1_VE250_randls_22_rotated.json,1274667,1592044,29,Man
71,646735,DepthScenes,duration_manipulation_targetAtFixation,jsons/v1_VE250_randls_22_rotated.json,http://54.235.29.9/FacialAge/BNav_EC2/DepthDuration/v2_depth_duration_MTurk/v2_DepthDuration_HTML.html#63,63,1366,768,1366,768,8-30-2022,10-9-24,72,depth_duration_stimuli/002964_2014-06-08_17-46-11_094959634447_rgbf000091-resize_4/002964_2014-06-08_17-46-11_094959634447_rgbf000091-resize_4-target.png,250,1.6909999999999998,1,3988,248,meters,jsons/v1_VE250_randls_22_rotated.json,1274667,1592044,29,Man
72,646735,DepthScenes,duration_manipulation_targetAtFixation,jsons/v1_VE250_randls_22_rotated.json,http://54.235.29.9/FacialAge/BNav_EC2/DepthDuration/v2_depth_duration_MTurk/v2_DepthDuration_HTML.html#63,63,1366,768,1366,768,8-30-2022,10-9-24,73,depth_duration_stimuli/000677_2014-06-08_23-10-32_260595134347_rgbf000158-resize_6/000677_2014-06-08_23-10-32_260595134347_rgbf000158-resize_6-target.png,250,3.556,5,5260,250,meters,jsons/v1_VE250_randls_22_rotated.json,1274667,1592044,29,Man
73,646735,DepthScenes,duration_manipulation_targetAtFixation,jsons/v1_VE250_randls_22_rotated.json,http://54.235.29.9/FacialAge/BNav_EC2/DepthDuration/v2_depth_duration_MTurk/v2_DepthDuration_HTML.html#63,63,1366,768,1366,768,8-30-2022,10-9-24,74,depth_duration_stimuli/001029_2014-06-08_13-17-57_260595134347_rgbf000065-resize_1/001029_2014-06-08_13-17-57_260595134347_rgbf000065-resize_1-target.png,250,3.0835,2,8322,249,meters,jsons/v1_VE250_randls_22_rotated.json,1274667,1592044,29,Man
74,646735,DepthScenes,duration_manipulation_targetAtFixation,jsons/v1_VE250_randls_22_rotated.json,http://54.235.29.9/FacialAge/BNav_EC2/DepthDuration/v2_depth_duration_MTurk/v2_DepthDuration_HTML.html#63,63,1366,768,1366,768,8-30-2022,10-9-24,75,depth_duration_stimuli/003587_2014-05-23_16-48-02_094959634447_rgbf002384-resize_2/003587_2014-05-23_16-48-02_094959634447_rgbf002384-resize_2-target.png,250,1.357,1,6855,248,meters,jsons/v1_VE250_randls_22_rotated.json,1274667,1592044,29,Man
75,646735,DepthScenes,duration_manipulation_targetAtFixation,jsons/v1_VE250_randls_22_rotated.json,http://54.235.29.9/FacialAge/BNav_EC2/DepthDuration/v2_depth_duration_MTurk/v2_DepthDuration_HTML.html#63,63,1366,768,1366,768,8-30-2022,10-9-24,76,depth_duration_stimuli/001167_2014-06-17_15-38-07_260595134347_rgbf000108-resize_0/001167_2014-06-17_15-38-07_260595134347_rgbf000108-resize_0-target.png,250,1.8505,2,5981,248,meters,jsons/v1_VE250_randls_22_rotated.json,1274667,1592044,29,Man
76,646735,DepthScenes,duration_manipulation_targetAtFixation,jsons/v1_VE250_randls_22_rotated.json,http://54.235.29.9/FacialAge/BNav_EC2/DepthDuration/v2_depth_duration_MTurk/v2_DepthDuration_HTML.html#63,63,1366,768,1366,768,8-30-2022,10-9-24,77,depth_duration_stimuli/000866_2014-06-09_20-45-42_260595134347_rgbf000139-resize_1/000866_2014-06-09_20-45-42_260595134347_rgbf000139-resize_1-target.png,250,3.2155,4,16648,249,meters,jsons/v1_VE250_randls_22_rotated.json,1274667,1592044,29,Man
77,646735,DepthScenes,duration_manipulation_targetAtFixation,jsons/v1_VE250_randls_22_rotated.json,http://54.235.29.9/FacialAge/BNav_EC2/DepthDuration/v2_depth_duration_MTurk/v2_DepthDuration_HTML.html#63,63,1366,768,1366,768,8-30-2022,10-9-24,78,depth_duration_stimuli/002989_2014-06-15_12-25-03_094959634447_rgbf000150-resize_3/002989_2014-06-15_12-25-03_094959634447_rgbf000150-resize_3-target.png,250,4.1975,3,4987,250,meters,jsons/v1_VE250_randls_22_rotated.json,1274667,1592044,29,Man
78,646735,DepthScenes,duration_manipulation_targetAtFixation,jsons/v1_VE250_randls_22_rotated.json,http://54.235.29.9/FacialAge/BNav_EC2/DepthDuration/v2_depth_duration_MTurk/v2_DepthDuration_HTML.html#63,63,1366,768,1366,768,8-30-2022,10-9-24,79,depth_duration_stimuli/000409_2014-06-04_19-23-33_260595134347_rgbf000067-resize_0/000409_2014-06-04_19-23-33_260595134347_rgbf000067-resize_0-target.png,250,3.7335,5,7013,239,meters,jsons/v1_VE250_randls_22_rotated.json,1274667,1592044,29,Man
79,646735,DepthScenes,duration_manipulation_targetAtFixation,jsons/v1_VE250_randls_22_rotated.json,http://54.235.29.9/FacialAge/BNav_EC2/DepthDuration/v2_depth_duration_MTurk/v2_DepthDuration_HTML.html#63,63,1366,768,1366,768,8-30-2022,10-9-24,80,depth_duration_stimuli/002663_2014-06-13_15-50-26_094959634447_rgbf000075-resize_1/002663_2014-06-13_15-50-26_094959634447_rgbf000075-resize_1-target.png,250,4.7495,2,5441,251,meters,jsons/v1_VE250_randls_22_rotated.json,1274667,1592044,29,Man
80,646735,DepthScenes,duration_manipulation_targetAtFixation,jsons/v1_VE250_randls_22_rotated.json,http://54.235.29.9/FacialAge/BNav_EC2/DepthDuration/v2_depth_duration_MTurk/v2_DepthDuration_HTML.html#63,63,1366,768,1366,768,8-30-2022,10-9-24,81,depth_duration_stimuli/002953_2014-06-08_17-32-18_094959634447_rgbf000059-resize_5/002953_2014-06-08_17-32-18_094959634447_rgbf000059-resize_5-target.png,250,1.551,1,8849,248,meters,jsons/v1_VE250_randls_22_rotated.json,1274667,1592044,29,Man
81,646735,DepthScenes,duration_manipulation_targetAtFixation,jsons/v1_VE250_randls_22_rotated.json,http://54.235.29.9/FacialAge/BNav_EC2/DepthDuration/v2_depth_duration_MTurk/v2_DepthDuration_HTML.html#63,63,1366,768,1366,768,8-30-2022,10-9-24,82,depth_duration_stimuli/000878_2014-06-08_22-52-45_260595134347_rgbf000045-resize_2/000878_2014-06-08_22-52-45_260595134347_rgbf000045-resize_2-target.png,250,2.092,1,6101,250,meters,jsons/v1_VE250_randls_22_rotated.json,1274667,1592044,29,Man
82,646735,DepthScenes,duration_manipulation_targetAtFixation,jsons/v1_VE250_randls_22_rotated.json,http://54.235.29.9/FacialAge/BNav_EC2/DepthDuration/v2_depth_duration_MTurk/v2_DepthDuration_HTML.html#63,63,1366,768,1366,768,8-30-2022,10-9-24,83,depth_duration_stimuli/001094_2014-06-15_17-36-00_260595134347_rgbf000205-resize_0/001094_2014-06-15_17-36-00_260595134347_rgbf000205-resize_0-target.png,250,4.2175,2,5136,248,meters,jsons/v1_VE250_randls_22_rotated.json,1274667,1592044,29,Man
83,646735,DepthScenes,duration_manipulation_targetAtFixation,jsons/v1_VE250_randls_22_rotated.json,http://54.235.29.9/FacialAge/BNav_EC2/DepthDuration/v2_depth_duration_MTurk/v2_DepthDuration_HTML.html#63,63,1366,768,1366,768,8-30-2022,10-9-24,84,depth_duration_stimuli/000692_2014-06-08_13-09-42_260595134347_rgbf000199-resize_2/000692_2014-06-08_13-09-42_260595134347_rgbf000199-resize_2-target.png,250,3.661,4,9741,248,meters,jsons/v1_VE250_randls_22_rotated.json,1274667,1592044,29,Man
84,646735,DepthScenes,duration_manipulation_targetAtFixation,jsons/v1_VE250_randls_22_rotated.json,http://54.235.29.9/FacialAge/BNav_EC2/DepthDuration/v2_depth_duration_MTurk/v2_DepthDuration_HTML.html#63,63,1366,768,1366,768,8-30-2022,10-9-24,85,depth_duration_stimuli/001136_2014-06-17_15-19-41_260595134347_rgbf000076-resize_3/001136_2014-06-17_15-19-41_260595134347_rgbf000076-resize_3-target.png,250,1.8655,3,9476,248,meters,jsons/v1_VE250_randls_22_rotated.json,1274667,1592044,29,Man
85,646735,DepthScenes,duration_manipulation_targetAtFixation,jsons/v1_VE250_randls_22_rotated.json,http://54.235.29.9/FacialAge/BNav_EC2/DepthDuration/v2_depth_duration_MTurk/v2_DepthDuration_HTML.html#63,63,1366,768,1366,768,8-30-2022,10-9-24,86,depth_duration_stimuli/001164_2014-06-17_15-35-46_260595134347_rgbf000085-resize_3/001164_2014-06-17_15-35-46_260595134347_rgbf000085-resize_3-target.png,250,2.354,5,5341,251,meters,jsons/v1_VE250_randls_22_rotated.json,1274667,1592044,29,Man
86,646735,DepthScenes,duration_manipulation_targetAtFixation,jsons/v1_VE250_randls_22_rotated.json,http://54.235.29.9/FacialAge/BNav_EC2/DepthDuration/v2_depth_duration_MTurk/v2_DepthDuration_HTML.html#63,63,1366,768,1366,768,8-30-2022,10-9-24,87,depth_duration_stimuli/002657_2014-06-13_15-29-54_094959634447_rgbf000150-resize_1/002657_2014-06-13_15-29-54_094959634447_rgbf000150-resize_1-target.png,250,4.919,3,9587,250,meters,jsons/v1_VE250_randls_22_rotated.json,1274667,1592044,29,Man
87,646735,DepthScenes,duration_manipulation_targetAtFixation,jsons/v1_VE250_randls_22_rotated.json,http://54.235.29.9/FacialAge/BNav_EC2/DepthDuration/v2_depth_duration_MTurk/v2_DepthDuration_HTML.html#63,63,1366,768,1366,768,8-30-2022,10-9-24,88,depth_duration_stimuli/002375_2014-06-28_20-13-44_260595134347_rgbf000032-resize_1/002375_2014-06-28_20-13-44_260595134347_rgbf000032-resize_1-target.png,250,4.0175,4,5528,250,meters,jsons/v1_VE250_randls_22_rotated.json,1274667,1592044,29,Man
88,646735,DepthScenes,duration_manipulation_targetAtFixation,jsons/v1_VE250_randls_22_rotated.json,http://54.235.29.9/FacialAge/BNav_EC2/DepthDuration/v2_depth_duration_MTurk/v2_DepthDuration_HTML.html#63,63,1366,768,1366,768,8-30-2022,10-9-24,89,depth_duration_stimuli/002444_2014-06-28_20-32-08_260595134347_rgbf000027-resize_0/002444_2014-06-28_20-32-08_260595134347_rgbf000027-resize_0-target.png,250,4.388999999999999,3,6691,249,meters,jsons/v1_VE250_randls_22_rotated.json,1274667,1592044,29,Man
89,646735,DepthScenes,duration_manipulation_targetAtFixation,jsons/v1_VE250_randls_22_rotated.json,http://54.235.29.9/FacialAge/BNav_EC2/DepthDuration/v2_depth_duration_MTurk/v2_DepthDuration_HTML.html#63,63,1366,768,1366,768,8-30-2022,10-9-24,90,depth_duration_stimuli/000436_2014-06-09_22-25-11_260595134347_rgbf000137-resize_1/000436_2014-06-09_22-25-11_260595134347_rgbf000137-resize_1-target.png,250,4.0705,4,6202,249,meters,jsons/v1_VE250_randls_22_rotated.json,1274667,1592044,29,Man
90,646735,DepthScenes,duration_manipulation_targetAtFixation,jsons/v1_VE250_randls_22_rotated.json,http://54.235.29.9/FacialAge/BNav_EC2/DepthDuration/v2_depth_duration_MTurk/v2_DepthDuration_HTML.html#63,63,1366,768,1366,768,8-30-2022,10-9-24,91,depth_duration_stimuli/003079_2014-06-15_15-18-20_094959634447_rgbf000152-resize_8/003079_2014-06-15_15-18-20_094959634447_rgbf000152-resize_8-target.png,250,2.8775,3,4972,248,meters,jsons/v1_VE250_randls_22_rotated.json,1274667,1592044,29,Man
91,646735,DepthScenes,duration_manipulation_targetAtFixation,jsons/v1_VE250_randls_22_rotated.json,http://54.235.29.9/FacialAge/BNav_EC2/DepthDuration/v2_depth_duration_MTurk/v2_DepthDuration_HTML.html#63,63,1366,768,1366,768,8-30-2022,10-9-24,92,depth_duration_stimuli/000506_2014-06-08_23-21-00_260595134347_rgbf000070-resize_7/000506_2014-06-08_23-21-00_260595134347_rgbf000070-resize_7-target.png,250,4.0585,1,4497,251,meters,jsons/v1_VE250_randls_22_rotated.json,1274667,1592044,29,Man
92,646735,DepthScenes,duration_manipulation_targetAtFixation,jsons/v1_VE250_randls_22_rotated.json,http://54.235.29.9/FacialAge/BNav_EC2/DepthDuration/v2_depth_duration_MTurk/v2_DepthDuration_HTML.html#63,63,1366,768,1366,768,8-30-2022,10-9-24,93,depth_duration_stimuli/000502_2014-06-08_23-02-32_260595134347_rgbf000063-resize_4/000502_2014-06-08_23-02-32_260595134347_rgbf000063-resize_4-target.png,250,2.431,2,3976,248,meters,jsons/v1_VE250_randls_22_rotated.json,1274667,1592044,29,Man
93,646735,DepthScenes,duration_manipulation_targetAtFixation,jsons/v1_VE250_randls_22_rotated.json,http://54.235.29.9/FacialAge/BNav_EC2/DepthDuration/v2_depth_duration_MTurk/v2_DepthDuration_HTML.html#63,63,1366,768,1366,768,8-30-2022,10-9-24,94,depth_duration_stimuli/001199_2014-06-17_16-03-48_260595134347_rgbf000077-resize_0/001199_2014-06-17_16-03-48_260595134347_rgbf000077-resize_0-target.png,250,3.4375,0,7230,250,meters,jsons/v1_VE250_randls_22_rotated.json,1274667,1592044,29,Man
94,646735,DepthScenes,duration_manipulation_targetAtFixation,jsons/v1_VE250_randls_22_rotated.json,http://54.235.29.9/FacialAge/BNav_EC2/DepthDuration/v2_depth_duration_MTurk/v2_DepthDuration_HTML.html#63,63,1366,768,1366,768,8-30-2022,10-9-24,95,depth_duration_stimuli/000780_2014-06-08_22-28-29_260595134347_rgbf000126-resize_1/000780_2014-06-08_22-28-29_260595134347_rgbf000126-resize_1-target.png,250,3.3825,4,5338,249,meters,jsons/v1_VE250_randls_22_rotated.json,1274667,1592044,29,Man
95,646735,DepthScenes,duration_manipulation_targetAtFixation,jsons/v1_VE250_randls_22_rotated.json,http://54.235.29.9/FacialAge/BNav_EC2/DepthDuration/v2_depth_duration_MTurk/v2_DepthDuration_HTML.html#63,63,1366,768,1366,768,8-30-2022,10-9-24,96,depth_duration_stimuli/002445_2014-06-28_20-32-16_260595134347_rgbf000029-resize_4/002445_2014-06-28_20-32-16_260595134347_rgbf000029-resize_4-target.png,250,2.5315,2,8793,248,meters,jsons/v1_VE250_randls_22_rotated.json,1274667,1592044,29,Man
96,646735,DepthScenes,duration_manipulation_targetAtFixation,jsons/v1_VE250_randls_22_rotated.json,http://54.235.29.9/FacialAge/BNav_EC2/DepthDuration/v2_depth_duration_MTurk/v2_DepthDuration_HTML.html#63,63,1366,768,1366,768,8-30-2022,10-9-24,97,depth_duration_stimuli/001815_2014-06-26_20-52-55_260595134347_rgbf000020-resize_0/001815_2014-06-26_20-52-55_260595134347_rgbf000020-resize_0-target.png,250,3.3865,1,5485,249,meters,jsons/v1_VE250_randls_22_rotated.json,1274667,1592044,29,Man
97,646735,DepthScenes,duration_manipulation_targetAtFixation,jsons/v1_VE250_randls_22_rotated.json,http://54.235.29.9/FacialAge/BNav_EC2/DepthDuration/v2_depth_duration_MTurk/v2_DepthDuration_HTML.html#63,63,1366,768,1366,768,8-30-2022,10-9-24,98,depth_duration_stimuli/001808_2014-06-26_20-50-58_260595134347_rgbf000029-resize_1/001808_2014-06-26_20-50-58_260595134347_rgbf000029-resize_1-target.png,250,4.249,5,5321,246,meters,jsons/v1_VE250_randls_22_rotated.json,1274667,1592044,29,Man
98,646735,DepthScenes,duration_manipulation_targetAtFixation,jsons/v1_VE250_randls_22_rotated.json,http://54.235.29.9/FacialAge/BNav_EC2/DepthDuration/v2_depth_duration_MTurk/v2_DepthDuration_HTML.html#63,63,1366,768,1366,768,8-30-2022,10-9-24,99,depth_duration_stimuli/001222_2014-06-17_16-24-06_260595134347_rgbf000073-resize_0/001222_2014-06-17_16-24-06_260595134347_rgbf000073-resize-original.jpg,250,1.4385,0,9589,240,meters,jsons/v1_VE250_randls_22_rotated.json,1274667,1592044,29,Man
99,646735,DepthScenes,duration_manipulation_targetAtFixation,jsons/v1_VE250_randls_22_rotated.json,http://54.235.29.9/FacialAge/BNav_EC2/DepthDuration/v2_depth_duration_MTurk/v2_DepthDuration_HTML.html#63,63,1366,768,1366,768,8-30-2022,10-9-24,100,depth_duration_stimuli/002425_2014-06-28_20-27-29_260595134347_rgbf000031-resize_8/002425_2014-06-28_20-27-29_260595134347_rgbf000031-resize_8-target.png,250,3.8960000000000004,3,6989,256,meters,jsons/v1_VE250_randls_22_rotated.json,1274667,1592044,29,Man
100,646735,DepthScenes,duration_manipulation_targetAtFixation,jsons/v1_VE250_randls_22_rotated.json,http://54.235.29.9/FacialAge/BNav_EC2/DepthDuration/v2_depth_duration_MTurk/v2_DepthDuration_HTML.html#63,63,1366,768,1366,768,8-30-2022,10-9-24,101,depth_duration_stimuli/000642_2014-06-08_16-59-25_260595134347_rgbf000098-resize_2/000642_2014-06-08_16-59-25_260595134347_rgbf000098-resize_2-target.png,250,2.8815,2,6770,249,meters,jsons/v1_VE250_randls_22_rotated.json,1274667,1592044,29,Man
101,646735,DepthScenes,duration_manipulation_targetAtFixation,jsons/v1_VE250_randls_22_rotated.json,http://54.235.29.9/FacialAge/BNav_EC2/DepthDuration/v2_depth_duration_MTurk/v2_DepthDuration_HTML.html#63,63,1366,768,1366,768,8-30-2022,10-9-24,102,depth_duration_stimuli/002758_2014-06-22_19-11-20_094959634447_rgbf000128-resize_1/002758_2014-06-22_19-11-20_094959634447_rgbf000128-resize_1-target.png,250,2.555,0,5651,249,meters,jsons/v1_VE250_randls_22_rotated.json,1274667,1592044,29,Man
102,646735,DepthScenes,duration_manipulation_targetAtFixation,jsons/v1_VE250_randls_22_rotated.json,http://54.235.29.9/FacialAge/BNav_EC2/DepthDuration/v2_depth_duration_MTurk/v2_DepthDuration_HTML.html#63,63,1366,768,1366,768,8-30-2022,10-9-24,103,depth_duration_stimuli/002630_2014-06-24_14-47-50_094959634447_rgbf000055-resize_1/002630_2014-06-24_14-47-50_094959634447_rgbf000055-resize_1-target.png,250,3.0095,2,7425,264,meters,jsons/v1_VE250_randls_22_rotated.json,1274667,1592044,29,Man
103,646735,DepthScenes,duration_manipulation_targetAtFixation,jsons/v1_VE250_randls_22_rotated.json,http://54.235.29.9/FacialAge/BNav_EC2/DepthDuration/v2_depth_duration_MTurk/v2_DepthDuration_HTML.html#63,63,1366,768,1366,768,8-30-2022,10-9-24,104,depth_duration_stimuli/003423_2014-05-21_10-23-26_094959634447_rgbf002665-resize_2/003423_2014-05-21_10-23-26_094959634447_rgbf002665-resize_2-target.png,250,3.2575,3,6513,250,meters,jsons/v1_VE250_randls_22_rotated.json,1274667,1592044,29,Man
104,646735,DepthScenes,duration_manipulation_targetAtFixation,jsons/v1_VE250_randls_22_rotated.json,http://54.235.29.9/FacialAge/BNav_EC2/DepthDuration/v2_depth_duration_MTurk/v2_DepthDuration_HTML.html#63,63,1366,768,1366,768,8-30-2022,10-9-24,105,depth_duration_stimuli/002905_2014-06-03_18-04-43_094959634447_rgbf000151-resize_2/002905_2014-06-03_18-04-43_094959634447_rgbf000151-resize_2-target.png,250,2.0295,3,5646,250,meters,jsons/v1_VE250_randls_22_rotated.json,1274667,1592044,29,Man
105,646735,DepthScenes,duration_manipulation_targetAtFixation,jsons/v1_VE250_randls_22_rotated.json,http://54.235.29.9/FacialAge/BNav_EC2/DepthDuration/v2_depth_duration_MTurk/v2_DepthDuration_HTML.html#63,63,1366,768,1366,768,8-30-2022,10-9-24,106,depth_duration_stimuli/003495_2014-05-21_16-01-51_094959634447_rgbf000100-resize_3/003495_2014-05-21_16-01-51_094959634447_rgbf000100-resize_3-target.png,250,1.6255,3,9271,250,meters,jsons/v1_VE250_randls_22_rotated.json,1274667,1592044,29,Man
106,646735,DepthScenes,duration_manipulation_targetAtFixation,jsons/v1_VE250_randls_22_rotated.json,http://54.235.29.9/FacialAge/BNav_EC2/DepthDuration/v2_depth_duration_MTurk/v2_DepthDuration_HTML.html#63,63,1366,768,1366,768,8-30-2022,10-9-24,107,depth_duration_stimuli/001244_2014-06-17_16-47-45_260595134347_rgbf000030-resize_4/001244_2014-06-17_16-47-45_260595134347_rgbf000030-resize_4-target.png,250,2.0425,4,5557,249,meters,jsons/v1_VE250_randls_22_rotated.json,1274667,1592044,29,Man
107,646735,DepthScenes,duration_manipulation_targetAtFixation,jsons/v1_VE250_randls_22_rotated.json,http://54.235.29.9/FacialAge/BNav_EC2/DepthDuration/v2_depth_duration_MTurk/v2_DepthDuration_HTML.html#63,63,1366,768,1366,768,8-30-2022,10-9-24,108,depth_duration_stimuli/002660_2014-06-13_15-44-18_094959634447_rgbf001878-resize_2/002660_2014-06-13_15-44-18_094959634447_rgbf001878-resize_2-target.png,250,3.576,6,12868,249,meters,jsons/v1_VE250_randls_22_rotated.json,1274667,1592044,29,Man
108,646735,DepthScenes,duration_manipulation_targetAtFixation,jsons/v1_VE250_randls_22_rotated.json,http://54.235.29.9/FacialAge/BNav_EC2/DepthDuration/v2_depth_duration_MTurk/v2_DepthDuration_HTML.html#63,63,1366,768,1366,768,8-30-2022,10-9-24,109,depth_duration_stimuli/002153_2014-06-25_21-27-18_260595134347_rgbf000038-resize_5/002153_2014-06-25_21-27-18_260595134347_rgbf000038-resize_5-target.png,250,2.505,4,13299,249,meters,jsons/v1_VE250_randls_22_rotated.json,1274667,1592044,29,Man
109,646735,DepthScenes,duration_manipulation_targetAtFixation,jsons/v1_VE250_randls_22_rotated.json,http://54.235.29.9/FacialAge/BNav_EC2/DepthDuration/v2_depth_duration_MTurk/v2_DepthDuration_HTML.html#63,63,1366,768,1366,768,8-30-2022,10-9-24,110,depth_duration_stimuli/002323_2014-06-28_20-01-54_260595134347_rgbf000051-resize_4/002323_2014-06-28_20-01-54_260595134347_rgbf000051-resize_4-target.png,250,3.7310000000000003,3,5889,250,meters,jsons/v1_VE250_randls_22_rotated.json,1274667,1592044,29,Man
110,646735,DepthScenes,duration_manipulation_targetAtFixation,jsons/v1_VE250_randls_22_rotated.json,http://54.235.29.9/FacialAge/BNav_EC2/DepthDuration/v2_depth_duration_MTurk/v2_DepthDuration_HTML.html#63,63,1366,768,1366,768,8-30-2022,10-9-24,111,depth_duration_stimuli/000917_2014-06-09_22-45-29_260595134347_rgbf000149-resize_3/000917_2014-06-09_22-45-29_260595134347_rgbf000149-resize_3-target.png,250,4.1865,1,7144,249,meters,jsons/v1_VE250_randls_22_rotated.json,1274667,1592044,29,Man
111,646735,DepthScenes,duration_manipulation_targetAtFixation,jsons/v1_VE250_randls_22_rotated.json,http://54.235.29.9/FacialAge/BNav_EC2/DepthDuration/v2_depth_duration_MTurk/v2_DepthDuration_HTML.html#63,63,1366,768,1366,768,8-30-2022,10-9-24,112,depth_duration_stimuli/001214_2014-06-17_16-13-55_260595134347_rgbf000111-resize_0/001214_2014-06-17_16-13-55_260595134347_rgbf000111-resize_0-target.png,250,2.6505,2,5748,248,meters,jsons/v1_VE250_randls_22_rotated.json,1274667,1592044,29,Man
112,646735,DepthScenes,duration_manipulation_targetAtFixation,jsons/v1_VE250_randls_22_rotated.json,http://54.235.29.9/FacialAge/BNav_EC2/DepthDuration/v2_depth_duration_MTurk/v2_DepthDuration_HTML.html#63,63,1366,768,1366,768,8-30-2022,10-9-24,113,depth_duration_stimuli/000810_2014-06-08_17-20-01_260595134347_rgbf000105-resize_0/000810_2014-06-08_17-20-01_260595134347_rgbf000105-resize_0-target.png,250,1.4865,3,22337,248,meters,jsons/v1_VE250_randls_22_rotated.json,1274667,1592044,29,Man
113,646735,DepthScenes,duration_manipulation_targetAtFixation,jsons/v1_VE250_randls_22_rotated.json,http://54.235.29.9/FacialAge/BNav_EC2/DepthDuration/v2_depth_duration_MTurk/v2_DepthDuration_HTML.html#63,63,1366,768,1366,768,8-30-2022,10-9-24,114,depth_duration_stimuli/000749_2014-06-08_21-55-06_260595134347_rgbf000070-resize_2/000749_2014-06-08_21-55-06_260595134347_rgbf000070-resize_2-target.png,250,2.331,5,5716,247,meters,jsons/v1_VE250_randls_22_rotated.json,1274667,1592044,29,Man
114,646735,DepthScenes,duration_manipulation_targetAtFixation,jsons/v1_VE250_randls_22_rotated.json,http://54.235.29.9/FacialAge/BNav_EC2/DepthDuration/v2_depth_duration_MTurk/v2_DepthDuration_HTML.html#63,63,1366,768,1366,768,8-30-2022,10-9-24,115,depth_duration_stimuli/002788_2014-06-22_19-36-03_094959634447_rgbf000088-resize_2/002788_2014-06-22_19-36-03_094959634447_rgbf000088-resize_2-target.png,250,1.6465,2,6893,232,meters,jsons/v1_VE250_randls_22_rotated.json,1274667,1592044,29,Man
115,646735,DepthScenes,duration_manipulation_targetAtFixation,jsons/v1_VE250_randls_22_rotated.json,http://54.235.29.9/FacialAge/BNav_EC2/DepthDuration/v2_depth_duration_MTurk/v2_DepthDuration_HTML.html#63,63,1366,768,1366,768,8-30-2022,10-9-24,116,depth_duration_stimuli/001584_2014-06-20_11-07-43_260595134347_rgbf000002-resize_1/001584_2014-06-20_11-07-43_260595134347_rgbf000002-resize_1-target.png,250,3.53,1,5457,250,meters,jsons/v1_VE250_randls_22_rotated.json,1274667,1592044,29,Man
116,646735,DepthScenes,duration_manipulation_targetAtFixation,jsons/v1_VE250_randls_22_rotated.json,http://54.235.29.9/FacialAge/BNav_EC2/DepthDuration/v2_depth_duration_MTurk/v2_DepthDuration_HTML.html#63,63,1366,768,1366,768,8-30-2022,10-9-24,117,depth_duration_stimuli/003621_2014-05-23_18-06-08_094959634447_rgbf000101-resize_1/003621_2014-05-23_18-06-08_094959634447_rgbf000101-resize_1-target.png,250,3.9835,5,4837,250,meters,jsons/v1_VE250_randls_22_rotated.json,1274667,1592044,29,Man
117,646735,DepthScenes,duration_manipulation_targetAtFixation,jsons/v1_VE250_randls_22_rotated.json,http://54.235.29.9/FacialAge/BNav_EC2/DepthDuration/v2_depth_duration_MTurk/v2_DepthDuration_HTML.html#63,63,1366,768,1366,768,8-30-2022,10-9-24,118,depth_duration_stimuli/000483_2014-06-09_20-41-45_260595134347_rgbf000116-resize_4/000483_2014-06-09_20-41-45_260595134347_rgbf000116-resize_4-target.png,250,1.337,3,10548,236,meters,jsons/v1_VE250_randls_22_rotated.json,1274667,1592044,29,Man
118,646735,DepthScenes,duration_manipulation_targetAtFixation,jsons/v1_VE250_randls_22_rotated.json,http://54.235.29.9/FacialAge/BNav_EC2/DepthDuration/v2_depth_duration_MTurk/v2_DepthDuration_HTML.html#63,63,1366,768,1366,768,8-30-2022,10-9-24,119,depth_duration_stimuli/000469_2014-06-09_19-42-10_260595134347_rgbf000081-resize_1/000469_2014-06-09_19-42-10_260595134347_rgbf000081-resize_1-target.png,250,1.652,4,6475,250,meters,jsons/v1_VE250_randls_22_rotated.json,1274667,1592044,29,Man
119,646735,DepthScenes,duration_manipulation_targetAtFixation,jsons/v1_VE250_randls_22_rotated.json,http://54.235.29.9/FacialAge/BNav_EC2/DepthDuration/v2_depth_duration_MTurk/v2_DepthDuration_HTML.html#63,63,1366,768,1366,768,8-30-2022,10-9-24,120,depth_duration_stimuli/000787_2014-06-08_22-33-53_260595134347_rgbf000175-resize_1/000787_2014-06-08_22-33-53_260595134347_rgbf000175-resize-original.jpg,250,4.784,0,9671,250,meters,jsons/v1_VE250_randls_22_rotated.json,1274667,1592044,29,Man
120,646735,DepthScenes,duration_manipulation_targetAtFixation,jsons/v1_VE250_randls_22_rotated.json,http://54.235.29.9/FacialAge/BNav_EC2/DepthDuration/v2_depth_duration_MTurk/v2_DepthDuration_HTML.html#63,63,1366,768,1366,768,8-30-2022,10-9-24,121,depth_duration_stimuli/001235_2014-06-17_16-37-36_260595134347_rgbf000084-resize_4/001235_2014-06-17_16-37-36_260595134347_rgbf000084-resize_4-target.png,250,3.6605,2,5097,250,meters,jsons/v1_VE250_randls_22_rotated.json,1274667,1592044,29,Man
121,646735,DepthScenes,duration_manipulation_targetAtFixation,jsons/v1_VE250_randls_22_rotated.json,http://54.235.29.9/FacialAge/BNav_EC2/DepthDuration/v2_depth_duration_MTurk/v2_DepthDuration_HTML.html#63,63,1366,768,1366,768,8-30-2022,10-9-24,122,depth_duration_stimuli/000788_2014-06-08_22-34-36_260595134347_rgbf000131-resize_1/000788_2014-06-08_22-34-36_260595134347_rgbf000131-resize_1-target.png,250,3.359,2,11034,249,meters,jsons/v1_VE250_randls_22_rotated.json,1274667,1592044,29,Man
122,646735,DepthScenes,duration_manipulation_targetAtFixation,jsons/v1_VE250_randls_22_rotated.json,http://54.235.29.9/FacialAge/BNav_EC2/DepthDuration/v2_depth_duration_MTurk/v2_DepthDuration_HTML.html#63,63,1366,768,1366,768,8-30-2022,10-9-24,123,depth_duration_stimuli/000109_2014-05-14_23-41-52_260595134347_rgbf000035-resize_9/000109_2014-05-14_23-41-52_260595134347_rgbf000035-resize_9-target.png,250,1.3545,3,7378,249,meters,jsons/v1_VE250_randls_22_rotated.json,1274667,1592044,29,Man
123,646735,DepthScenes,duration_manipulation_targetAtFixation,jsons/v1_VE250_randls_22_rotated.json,http://54.235.29.9/FacialAge/BNav_EC2/DepthDuration/v2_depth_duration_MTurk/v2_DepthDuration_HTML.html#63,63,1366,768,1366,768,8-30-2022,10-9-24,124,depth_duration_stimuli/000470_2014-06-09_19-42-40_260595134347_rgbf000094-resize_1/000470_2014-06-09_19-42-40_260595134347_rgbf000094-resize_1-target.png,250,1.831,4,7567,238,meters,jsons/v1_VE250_randls_22_rotated.json,1274667,1592044,29,Man
124,646735,DepthScenes,duration_manipulation_targetAtFixation,jsons/v1_VE250_randls_22_rotated.json,http://54.235.29.9/FacialAge/BNav_EC2/DepthDuration/v2_depth_duration_MTurk/v2_DepthDuration_HTML.html#63,63,1366,768,1366,768,8-30-2022,10-9-24,125,depth_duration_stimuli/003338_2014-05-20_11-01-23_094959634447_rgbf000051-resize_6/003338_2014-05-20_11-01-23_094959634447_rgbf000051-resize_6-target.png,250,1.693,2,6300,249,meters,jsons/v1_VE250_randls_22_rotated.json,1274667,1592044,29,Man
125,646735,DepthScenes,duration_manipulation_targetAtFixation,jsons/v1_VE250_randls_22_rotated.json,http://54.235.29.9/FacialAge/BNav_EC2/DepthDuration/v2_depth_duration_MTurk/v2_DepthDuration_HTML.html#63,63,1366,768,1366,768,8-30-2022,10-9-24,126,depth_duration_stimuli/002509_2014-06-24_13-19-22_094959634447_rgbf000077-resize_0/002509_2014-06-24_13-19-22_094959634447_rgbf000077-resize_0-target.png,250,1.3065,3,5237,250,meters,jsons/v1_VE250_randls_22_rotated.json,1274667,1592044,29,Man
126,646735,DepthScenes,duration_manipulation_targetAtFixation,jsons/v1_VE250_randls_22_rotated.json,http://54.235.29.9/FacialAge/BNav_EC2/DepthDuration/v2_depth_duration_MTurk/v2_DepthDuration_HTML.html#63,63,1366,768,1366,768,8-30-2022,10-9-24,127,depth_duration_stimuli/000709_2014-06-08_13-51-55_260595134347_rgbf000068-resize_3/000709_2014-06-08_13-51-55_260595134347_rgbf000068-resize_3-target.png,250,1.8030000000000002,1,5027,249,meters,jsons/v1_VE250_randls_22_rotated.json,1274667,1592044,29,Man
127,646735,DepthScenes,duration_manipulation_targetAtFixation,jsons/v1_VE250_randls_22_rotated.json,http://54.235.29.9/FacialAge/BNav_EC2/DepthDuration/v2_depth_duration_MTurk/v2_DepthDuration_HTML.html#63,63,1366,768,1366,768,8-30-2022,10-9-24,128,depth_duration_stimuli/002057_2014-06-24_21-00-13_260595134347_rgbf000120-resize_1/002057_2014-06-24_21-00-13_260595134347_rgbf000120-resize_1-target.png,250,2.967,4,5221,244,meters,jsons/v1_VE250_randls_22_rotated.json,1274667,1592044,29,Man
128,646735,DepthScenes,duration_manipulation_targetAtFixation,jsons/v1_VE250_randls_22_rotated.json,http://54.235.29.9/FacialAge/BNav_EC2/DepthDuration/v2_depth_duration_MTurk/v2_DepthDuration_HTML.html#63,63,1366,768,1366,768,8-30-2022,10-9-24,129,depth_duration_stimuli/002637_2014-06-24_14-51-13_094959634447_rgbf000066-resize_4/002637_2014-06-24_14-51-13_094959634447_rgbf000066-resize_4-target.png,250,1.9955,3,7851,250,meters,jsons/v1_VE250_randls_22_rotated.json,1274667,1592044,29,Man
129,646735,DepthScenes,duration_manipulation_targetAtFixation,jsons/v1_VE250_randls_22_rotated.json,http://54.235.29.9/FacialAge/BNav_EC2/DepthDuration/v2_depth_duration_MTurk/v2_DepthDuration_HTML.html#63,63,1366,768,1366,768,8-30-2022,10-9-24,130,depth_duration_stimuli/003534_2014-05-22_15-06-10_094959634447_rgbf000102-resize_4/003534_2014-05-22_15-06-10_094959634447_rgbf000102-resize_4-target.png,250,1.426,2,8213,250,meters,jsons/v1_VE250_randls_22_rotated.json,1274667,1592044,29,Man
130,646735,DepthScenes,duration_manipulation_targetAtFixation,jsons/v1_VE250_randls_22_rotated.json,http://54.235.29.9/FacialAge/BNav_EC2/DepthDuration/v2_depth_duration_MTurk/v2_DepthDuration_HTML.html#63,63,1366,768,1366,768,8-30-2022,10-9-24,131,depth_duration_stimuli/002344_2014-06-28_20-06-29_260595134347_rgbf000030-resize_1/002344_2014-06-28_20-06-29_260595134347_rgbf000030-resize_1-target.png,250,1.5795,2,16883,249,meters,jsons/v1_VE250_randls_22_rotated.json,1274667,1592044,29,Man
131,646735,DepthScenes,duration_manipulation_targetAtFixation,jsons/v1_VE250_randls_22_rotated.json,http://54.235.29.9/FacialAge/BNav_EC2/DepthDuration/v2_depth_duration_MTurk/v2_DepthDuration_HTML.html#63,63,1366,768,1366,768,8-30-2022,10-9-24,132,depth_duration_stimuli/002725_2014-06-22_11-47-51_094959634447_rgbf000070-resize_1/002725_2014-06-22_11-47-51_094959634447_rgbf000070-resize_1-target.png,250,2.195,1,6974,248,meters,jsons/v1_VE250_randls_22_rotated.json,1274667,1592044,29,Man
132,646735,DepthScenes,duration_manipulation_targetAtFixation,jsons/v1_VE250_randls_22_rotated.json,http://54.235.29.9/FacialAge/BNav_EC2/DepthDuration/v2_depth_duration_MTurk/v2_DepthDuration_HTML.html#63,63,1366,768,1366,768,8-30-2022,10-9-24,133,depth_duration_stimuli/002805_2014-06-22_19-54-03_094959634447_rgbf000079-resize_1/002805_2014-06-22_19-54-03_094959634447_rgbf000079-resize_1-target.png,250,3.1439999999999997,5,6139,250,meters,jsons/v1_VE250_randls_22_rotated.json,1274667,1592044,29,Man
133,646735,DepthScenes,duration_manipulation_targetAtFixation,jsons/v1_VE250_randls_22_rotated.json,http://54.235.29.9/FacialAge/BNav_EC2/DepthDuration/v2_depth_duration_MTurk/v2_DepthDuration_HTML.html#63,63,1366,768,1366,768,8-30-2022,10-9-24,134,depth_duration_stimuli/000906_2014-06-08_13-35-43_260595134347_rgbf000155-resize_1/000906_2014-06-08_13-35-43_260595134347_rgbf000155-resize_1-target.png,250,2.8489999999999998,0,7538,266,meters,jsons/v1_VE250_randls_22_rotated.json,1274667,1592044,29,Man
134,646735,DepthScenes,duration_manipulation_targetAtFixation,jsons/v1_VE250_randls_22_rotated.json,http://54.235.29.9/FacialAge/BNav_EC2/DepthDuration/v2_depth_duration_MTurk/v2_DepthDuration_HTML.html#63,63,1366,768,1366,768,8-30-2022,10-9-24,135,depth_duration_stimuli/000375_2014-06-08_11-17-29_260595134347_rgbf000133-resize_2/000375_2014-06-08_11-17-29_260595134347_rgbf000133-resize-original.jpg,250,4.718,1,5154,250,meters,jsons/v1_VE250_randls_22_rotated.json,1274667,1592044,29,Man
135,646735,DepthScenes,duration_manipulation_targetAtFixation,jsons/v1_VE250_randls_22_rotated.json,http://54.235.29.9/FacialAge/BNav_EC2/DepthDuration/v2_depth_duration_MTurk/v2_DepthDuration_HTML.html#63,63,1366,768,1366,768,8-30-2022,10-9-24,136,depth_duration_stimuli/003083_2014-06-15_15-21-03_094959634447_rgbf000063-resize_1/003083_2014-06-15_15-21-03_094959634447_rgbf000063-resize_1-target.png,250,4.1405,2,12276,250,meters,jsons/v1_VE250_randls_22_rotated.json,1274667,1592044,29,Man
136,646735,DepthScenes,duration_manipulation_targetAtFixation,jsons/v1_VE250_randls_22_rotated.json,http://54.235.29.9/FacialAge/BNav_EC2/DepthDuration/v2_depth_duration_MTurk/v2_DepthDuration_HTML.html#63,63,1366,768,1366,768,8-30-2022,10-9-24,137,depth_duration_stimuli/000486_2014-06-09_20-47-20_260595134347_rgbf000143-resize_2/000486_2014-06-09_20-47-20_260595134347_rgbf000143-resize_2-target.png,250,4.8325,4,8723,235,meters,jsons/v1_VE250_randls_22_rotated.json,1274667,1592044,29,Man
137,646735,DepthScenes,duration_manipulation_targetAtFixation,jsons/v1_VE250_randls_22_rotated.json,http://54.235.29.9/FacialAge/BNav_EC2/DepthDuration/v2_depth_duration_MTurk/v2_DepthDuration_HTML.html#63,63,1366,768,1366,768,8-30-2022,10-9-24,138,depth_duration_stimuli/002949_2014-06-26_15-57-42_094959634447_rgbf000079-resize_1/002949_2014-06-26_15-57-42_094959634447_rgbf000079-resize_1-target.png,250,1.8915,4,9723,249,meters,jsons/v1_VE250_randls_22_rotated.json,1274667,1592044,29,Man
138,646735,DepthScenes,duration_manipulation_targetAtFixation,jsons/v1_VE250_randls_22_rotated.json,http://54.235.29.9/FacialAge/BNav_EC2/DepthDuration/v2_depth_duration_MTurk/v2_DepthDuration_HTML.html#63,63,1366,768,1366,768,8-30-2022,10-9-24,139,depth_duration_stimuli/000522_2014-06-08_13-35-06_260595134347_rgbf000244-resize_1/000522_2014-06-08_13-35-06_260595134347_rgbf000244-resize_1-target.png,250,2.3715,5,5865,241,meters,jsons/v1_VE250_randls_22_rotated.json,1274667,1592044,29,Man
139,646735,DepthScenes,duration_manipulation_targetAtFixation,jsons/v1_VE250_randls_22_rotated.json,http://54.235.29.9/FacialAge/BNav_EC2/DepthDuration/v2_depth_duration_MTurk/v2_DepthDuration_HTML.html#63,63,1366,768,1366,768,8-30-2022,10-9-24,140,depth_duration_stimuli/001447_2014-06-19_17-00-32_260595134347_rgbf000082-resize_5/001447_2014-06-19_17-00-32_260595134347_rgbf000082-resize_5-target.png,250,4.13775,3,5694,248,meters,jsons/v1_VE250_randls_22_rotated.json,1274667,1592044,29,Man
140,646735,DepthScenes,duration_manipulation_targetAtFixation,jsons/v1_VE250_randls_22_rotated.json,http://54.235.29.9/FacialAge/BNav_EC2/DepthDuration/v2_depth_duration_MTurk/v2_DepthDuration_HTML.html#63,63,1366,768,1366,768,8-30-2022,10-9-24,141,depth_duration_stimuli/000447_2014-06-08_16-15-46_260595134347_rgbf000130-resize_1/000447_2014-06-08_16-15-46_260595134347_rgbf000130-resize_1-target.png,250,4.479,1,6197,248,meters,jsons/v1_VE250_randls_22_rotated.json,1274667,1592044,29,Man
141,646735,DepthScenes,duration_manipulation_targetAtFixation,jsons/v1_VE250_randls_22_rotated.json,http://54.235.29.9/FacialAge/BNav_EC2/DepthDuration/v2_depth_duration_MTurk/v2_DepthDuration_HTML.html#63,63,1366,768,1366,768,8-30-2022,10-9-24,142,depth_duration_stimuli/000457_2014-06-08_16-52-43_260595134347_rgbf000199-resize_1/000457_2014-06-08_16-52-43_260595134347_rgbf000199-resize_1-target.png,250,3.6489999999999996,1,8435,248,meters,jsons/v1_VE250_randls_22_rotated.json,1274667,1592044,29,Man
142,646735,DepthScenes,duration_manipulation_targetAtFixation,jsons/v1_VE250_randls_22_rotated.json,http://54.235.29.9/FacialAge/BNav_EC2/DepthDuration/v2_depth_duration_MTurk/v2_DepthDuration_HTML.html#63,63,1366,768,1366,768,8-30-2022,10-9-24,143,depth_duration_stimuli/000929_2014-06-09_16-33-19_260595134347_rgbf000139-resize_0/000929_2014-06-09_16-33-19_260595134347_rgbf000139-resize_0-target.png,250,2.8680000000000003,4,4967,248,meters,jsons/v1_VE250_randls_22_rotated.json,1274667,1592044,29,Man
143,646735,DepthScenes,duration_manipulation_targetAtFixation,jsons/v1_VE250_randls_22_rotated.json,http://54.235.29.9/FacialAge/BNav_EC2/DepthDuration/v2_depth_duration_MTurk/v2_DepthDuration_HTML.html#63,63,1366,768,1366,768,8-30-2022,10-9-24,144,depth_duration_stimuli/001828_2014-06-26_21-40-03_260595134347_rgbf000024-resize_0/001828_2014-06-26_21-40-03_260595134347_rgbf000024-resize_0-target.png,250,4.8260000000000005,3,10498,249,meters,jsons/v1_VE250_randls_22_rotated.json,1274667,1592044,29,Man
144,646735,DepthScenes,duration_manipulation_targetAtFixation,jsons/v1_VE250_randls_22_rotated.json,http://54.235.29.9/FacialAge/BNav_EC2/DepthDuration/v2_depth_duration_MTurk/v2_DepthDuration_HTML.html#63,63,1366,768,1366,768,8-30-2022,10-9-24,145,depth_duration_stimuli/000009_2014-05-26_14-32-05_260595134347_rgbf000034-resize_3/000009_2014-05-26_14-32-05_260595134347_rgbf000034-resize_3-target.png,250,3.8715,2,6202,248,meters,jsons/v1_VE250_randls_22_rotated.json,1274667,1592044,29,Man
145,646735,DepthScenes,duration_manipulation_targetAtFixation,jsons/v1_VE250_randls_22_rotated.json,http://54.235.29.9/FacialAge/BNav_EC2/DepthDuration/v2_depth_duration_MTurk/v2_DepthDuration_HTML.html#63,63,1366,768,1366,768,8-30-2022,10-9-24,146,depth_duration_stimuli/002639_2014-06-24_14-51-37_094959634447_rgbf000074-resize_4/002639_2014-06-24_14-51-37_094959634447_rgbf000074-resize_4-target.png,250,4.0375,4,6704,248,meters,jsons/v1_VE250_randls_22_rotated.json,1274667,1592044,29,Man
146,646735,DepthScenes,duration_manipulation_targetAtFixation,jsons/v1_VE250_randls_22_rotated.json,http://54.235.29.9/FacialAge/BNav_EC2/DepthDuration/v2_depth_duration_MTurk/v2_DepthDuration_HTML.html#63,63,1366,768,1366,768,8-30-2022,10-9-24,147,depth_duration_stimuli/003292_2014-05-14_21-53-49_094959634447_rgbf000100-resize_2/003292_2014-05-14_21-53-49_094959634447_rgbf000100-resize_2-target.png,250,3.4815,2,7610,250,meters,jsons/v1_VE250_randls_22_rotated.json,1274667,1592044,29,Man
147,646735,DepthScenes,duration_manipulation_targetAtFixation,jsons/v1_VE250_randls_22_rotated.json,http://54.235.29.9/FacialAge/BNav_EC2/DepthDuration/v2_depth_duration_MTurk/v2_DepthDuration_HTML.html#63,63,1366,768,1366,768,8-30-2022,10-9-24,148,depth_duration_stimuli/000691_2014-06-08_13-08-50_260595134347_rgbf000132-resize_3/000691_2014-06-08_13-08-50_260595134347_rgbf000132-resize_3-target.png,250,4.1530000000000005,5,5588,250,meters,jsons/v1_VE250_randls_22_rotated.json,1274667,1592044,29,Man
148,646735,DepthScenes,duration_manipulation_targetAtFixation,jsons/v1_VE250_randls_22_rotated.json,http://54.235.29.9/FacialAge/BNav_EC2/DepthDuration/v2_depth_duration_MTurk/v2_DepthDuration_HTML.html#63,63,1366,768,1366,768,8-30-2022,10-9-24,149,depth_duration_stimuli/002213_2014-06-28_18-37-58_260595134347_rgbf000055-resize_1/002213_2014-06-28_18-37-58_260595134347_rgbf000055-resize_1-target.png,250,3.62,3,9461,250,meters,jsons/v1_VE250_randls_22_rotated.json,1274667,1592044,29,Man
149,646735,DepthScenes,duration_manipulation_targetAtFixation,jsons/v1_VE250_randls_22_rotated.json,http://54.235.29.9/FacialAge/BNav_EC2/DepthDuration/v2_depth_duration_MTurk/v2_DepthDuration_HTML.html#63,63,1366,768,1366,768,8-30-2022,10-9-24,150,depth_duration_stimuli/002467_2014-06-28_20-38-07_260595134347_rgbf000026-resize_2/002467_2014-06-28_20-38-07_260595134347_rgbf000026-resize_2-target.png,250,4.742,2,4481,247,meters,jsons/v1_VE250_randls_22_rotated.json,1274667,1592044,29,Man
150,646735,DepthScenes,duration_manipulation_targetAtFixation,jsons/v1_VE250_randls_22_rotated.json,http://54.235.29.9/FacialAge/BNav_EC2/DepthDuration/v2_depth_duration_MTurk/v2_DepthDuration_HTML.html#63,63,1366,768,1366,768,8-30-2022,10-9-24,151,depth_duration_stimuli/002570_2014-06-24_13-59-54_094959634447_rgbf000059-resize_0/002570_2014-06-24_13-59-54_094959634447_rgbf000059-resize_0-target.png,250,4.037,1,4552,252,meters,jsons/v1_VE250_randls_22_rotated.json,1274667,1592044,29,Man
151,646735,DepthScenes,duration_manipulation_targetAtFixation,jsons/v1_VE250_randls_22_rotated.json,http://54.235.29.9/FacialAge/BNav_EC2/DepthDuration/v2_depth_duration_MTurk/v2_DepthDuration_HTML.html#63,63,1366,768,1366,768,8-30-2022,10-9-24,152,depth_duration_stimuli/000569_2014-06-09_22-51-47_260595134347_rgbf000141-resize_3/000569_2014-06-09_22-51-47_260595134347_rgbf000141-resize-original.jpg,250,4.512,5,4688,260,meters,jsons/v1_VE250_randls_22_rotated.json,1274667,1592044,29,Man
152,646735,DepthScenes,duration_manipulation_targetAtFixation,jsons/v1_VE250_randls_22_rotated.json,http://54.235.29.9/FacialAge/BNav_EC2/DepthDuration/v2_depth_duration_MTurk/v2_DepthDuration_HTML.html#63,63,1366,768,1366,768,8-30-2022,10-9-24,153,depth_duration_stimuli/003129_2014-05-12_10-48-10_094959634447_rgbf000100-resize_0/003129_2014-05-12_10-48-10_094959634447_rgbf000100-resize_0-target.png,250,4.9305,2,4210,249,meters,jsons/v1_VE250_randls_22_rotated.json,1274667,1592044,29,Man
153,646735,DepthScenes,duration_manipulation_targetAtFixation,jsons/v1_VE250_randls_22_rotated.json,http://54.235.29.9/FacialAge/BNav_EC2/DepthDuration/v2_depth_duration_MTurk/v2_DepthDuration_HTML.html#63,63,1366,768,1366,768,8-30-2022,10-9-24,154,depth_duration_stimuli/000414_2014-06-04_19-49-13_260595134347_rgbf000044-resize_0/000414_2014-06-04_19-49-13_260595134347_rgbf000044-resize_0-target.png,250,4.329,3,5900,249,meters,jsons/v1_VE250_randls_22_rotated.json,1274667,1592044,29,Man
154,646735,DepthScenes,duration_manipulation_targetAtFixation,jsons/v1_VE250_randls_22_rotated.json,http://54.235.29.9/FacialAge/BNav_EC2/DepthDuration/v2_depth_duration_MTurk/v2_DepthDuration_HTML.html#63,63,1366,768,1366,768,8-30-2022,10-9-24,155,depth_duration_stimuli/002875_2014-06-01_15-19-00_094959634447_rgbf000151-resize_1/002875_2014-06-01_15-19-00_094959634447_rgbf000151-resize_1-target.png,250,1.9675,2,6195,248,meters,jsons/v1_VE250_randls_22_rotated.json,1274667,1592044,29,Man
155,646735,DepthScenes,duration_manipulation_targetAtFixation,jsons/v1_VE250_randls_22_rotated.json,http://54.235.29.9/FacialAge/BNav_EC2/DepthDuration/v2_depth_duration_MTurk/v2_DepthDuration_HTML.html#63,63,1366,768,1366,768,8-30-2022,10-9-24,156,depth_duration_stimuli/001011_2014-06-08_23-18-54_260595134347_rgbf000044-resize_4/001011_2014-06-08_23-18-54_260595134347_rgbf000044-resize_4-target.png,250,2.4730000000000003,4,7238,249,meters,jsons/v1_VE250_randls_22_rotated.json,1274667,1592044,29,Man
156,646735,DepthScenes,duration_manipulation_targetAtFixation,jsons/v1_VE250_randls_22_rotated.json,http://54.235.29.9/FacialAge/BNav_EC2/DepthDuration/v2_depth_duration_MTurk/v2_DepthDuration_HTML.html#63,63,1366,768,1366,768,8-30-2022,10-9-24,157,depth_duration_stimuli/002750_2014-06-22_19-08-03_094959634447_rgbf000094-resize_4/002750_2014-06-22_19-08-03_094959634447_rgbf000094-resize_4-target.png,250,2.354,1,6411,250,meters,jsons/v1_VE250_randls_22_rotated.json,1274667,1592044,29,Man
157,646735,DepthScenes,duration_manipulation_targetAtFixation,jsons/v1_VE250_randls_22_rotated.json,http://54.235.29.9/FacialAge/BNav_EC2/DepthDuration/v2_depth_duration_MTurk/v2_DepthDuration_HTML.html#63,63,1366,768,1366,768,8-30-2022,10-9-24,158,depth_duration_stimuli/002549_2014-06-24_13-41-39_094959634447_rgbf000022-resize_3/002549_2014-06-24_13-41-39_094959634447_rgbf000022-resize_3-target.png,250,1.476,5,5857,249,meters,jsons/v1_VE250_randls_22_rotated.json,1274667,1592044,29,Man
158,646735,DepthScenes,duration_manipulation_targetAtFixation,jsons/v1_VE250_randls_22_rotated.json,http://54.235.29.9/FacialAge/BNav_EC2/DepthDuration/v2_depth_duration_MTurk/v2_DepthDuration_HTML.html#63,63,1366,768,1366,768,8-30-2022,10-9-24,159,depth_duration_stimuli/000635_2014-06-08_16-38-42_260595134347_rgbf000106-resize_1/000635_2014-06-08_16-38-42_260595134347_rgbf000106-resize_1-target.png,250,2.074,4,7018,249,meters,jsons/v1_VE250_randls_22_rotated.json,1274667,1592044,29,Man
159,646735,DepthScenes,duration_manipulation_targetAtFixation,jsons/v1_VE250_randls_22_rotated.json,http://54.235.29.9/FacialAge/BNav_EC2/DepthDuration/v2_depth_duration_MTurk/v2_DepthDuration_HTML.html#63,63,1366,768,1366,768,8-30-2022,10-9-24,160,depth_duration_stimuli/002279_2014-06-28_18-55-32_260595134347_rgbf000040-resize_5/002279_2014-06-28_18-55-32_260595134347_rgbf000040-resize_5-target.png,250,1.5043333333333,2,4446,250,meters,jsons/v1_VE250_randls_22_rotated.json,1274667,1592044,29,Man
160,646735,DepthScenes,duration_manipulation_targetAtFixation,jsons/v1_VE250_randls_22_rotated.json,http://54.235.29.9/FacialAge/BNav_EC2/DepthDuration/v2_depth_duration_MTurk/v2_DepthDuration_HTML.html#63,63,1366,768,1366,768,8-30-2022,10-9-24,161,depth_duration_stimuli/002568_2014-06-24_13-59-21_094959634447_rgbf000062-resize_4/002568_2014-06-24_13-59-21_094959634447_rgbf000062-resize_4-target.png,250,3.015,4,5625,250,meters,jsons/v1_VE250_randls_22_rotated.json,1274667,1592044,29,Man
161,646735,DepthScenes,duration_manipulation_targetAtFixation,jsons/v1_VE250_randls_22_rotated.json,http://54.235.29.9/FacialAge/BNav_EC2/DepthDuration/v2_depth_duration_MTurk/v2_DepthDuration_HTML.html#63,63,1366,768,1366,768,8-30-2022,10-9-24,162,depth_duration_stimuli/003492_2014-05-21_15-50-55_094959634447_rgbf000828-resize_1/003492_2014-05-21_15-50-55_094959634447_rgbf000828-resize_1-target.png,250,4.06875,4,5965,264,meters,jsons/v1_VE250_randls_22_rotated.json,1274667,1592044,29,Man
162,646735,DepthScenes,duration_manipulation_targetAtFixation,jsons/v1_VE250_randls_22_rotated.json,http://54.235.29.9/FacialAge/BNav_EC2/DepthDuration/v2_depth_duration_MTurk/v2_DepthDuration_HTML.html#63,63,1366,768,1366,768,8-30-2022,10-9-24,163,depth_duration_stimuli/001617_2014-06-20_11-35-32_260595134347_rgbf000066-resize_1/001617_2014-06-20_11-35-32_260595134347_rgbf000066-resize_1-target.png,250,3.7910000000000004,2,5321,246,meters,jsons/v1_VE250_randls_22_rotated.json,1274667,1592044,29,Man
163,646735,DepthScenes,duration_manipulation_targetAtFixation,jsons/v1_VE250_randls_22_rotated.json,http://54.235.29.9/FacialAge/BNav_EC2/DepthDuration/v2_depth_duration_MTurk/v2_DepthDuration_HTML.html#63,63,1366,768,1366,768,8-30-2022,10-9-24,164,depth_duration_stimuli/001806_2014-06-26_20-50-20_260595134347_rgbf000091-resize_1/001806_2014-06-26_20-50-20_260595134347_rgbf000091-resize_1-target.png,250,2.7305,3,12095,249,meters,jsons/v1_VE250_randls_22_rotated.json,1274667,1592044,29,Man
