,subjID,experimentName,versionName,sequenceName,url,selected_row,windowWidth,windowHeight,screenWidth,screenHeight,startDate,startTime,trial,stimulus,duration,actual_depth,depth_estimate,trial_RT,log_sceneDuration,unitSelection,seq_filepath,experimentTime,totalTime,age,gender
0,648622,DepthScenes,duration_manipulation_targetAtFixation,jsons/VE125_randls_61.json,http://54.235.29.9/FacialAge/BNav_EC2/DepthDuration/v2_depth_duration_MTurk/v2_DepthDuration_HTML.html#427,427,1366,625,1366,768,8-30-2022,11-57-34,1,depth_duration_stimuli/000447_2014-06-08_16-15-46_260595134347_rgbf000130-resize_1/000447_2014-06-08_16-15-46_260595134347_rgbf000130-resize_1-target.png,125,4.479,4,137386,126,meters,jsons/VE125_randls_61.json,1118137,1488860,32,Man
1,648622,DepthScenes,duration_manipulation_targetAtFixation,jsons/VE125_randls_61.json,http://54.235.29.9/FacialAge/BNav_EC2/DepthDuration/v2_depth_duration_MTurk/v2_DepthDuration_HTML.html#427,427,1366,625,1366,768,8-30-2022,11-57-34,2,depth_duration_stimuli/001447_2014-06-19_17-00-32_260595134347_rgbf000082-resize_5/001447_2014-06-19_17-00-32_260595134347_rgbf000082-resize_5-target.png,125,4.13775,0,3182,123,meters,jsons/VE125_randls_61.json,1118137,1488860,32,Man
2,648622,DepthScenes,duration_manipulation_targetAtFixation,jsons/VE125_randls_61.json,http://54.235.29.9/FacialAge/BNav_EC2/DepthDuration/v2_depth_duration_MTurk/v2_DepthDuration_HTML.html#427,427,1366,625,1366,768,8-30-2022,11-57-34,3,depth_duration_stimuli/001244_2014-06-17_16-47-45_260595134347_rgbf000030-resize_4/001244_2014-06-17_16-47-45_260595134347_rgbf000030-resize_4-target.png,125,2.0425,4,3084,119,meters,jsons/VE125_randls_61.json,1118137,1488860,32,Man
3,648622,DepthScenes,duration_manipulation_targetAtFixation,jsons/VE125_randls_61.json,http://54.235.29.9/FacialAge/BNav_EC2/DepthDuration/v2_depth_duration_MTurk/v2_DepthDuration_HTML.html#427,427,1366,625,1366,768,8-30-2022,11-57-34,4,depth_duration_stimuli/003495_2014-05-21_16-01-51_094959634447_rgbf000100-resize_3/003495_2014-05-21_16-01-51_094959634447_rgbf000100-resize_3-target.png,125,1.6255,3,267009,124,meters,jsons/VE125_randls_61.json,1118137,1488860,32,Man
4,648622,DepthScenes,duration_manipulation_targetAtFixation,jsons/VE125_randls_61.json,http://54.235.29.9/FacialAge/BNav_EC2/DepthDuration/v2_depth_duration_MTurk/v2_DepthDuration_HTML.html#427,427,1366,625,1366,768,8-30-2022,11-57-34,5,depth_duration_stimuli/001066_2014-06-08_22-03-20_260595134347_rgbf000066-resize_4/001066_2014-06-08_22-03-20_260595134347_rgbf000066-resize_4-target.png,125,4.2330000000000005,4,48161,128,meters,jsons/VE125_randls_61.json,1118137,1488860,32,Man
5,648622,DepthScenes,duration_manipulation_targetAtFixation,jsons/VE125_randls_61.json,http://54.235.29.9/FacialAge/BNav_EC2/DepthDuration/v2_depth_duration_MTurk/v2_DepthDuration_HTML.html#427,427,1366,625,1366,768,8-30-2022,11-57-34,6,depth_duration_stimuli/000742_2014-06-08_18-48-09_260595134347_rgbf000164-resize_4/000742_2014-06-08_18-48-09_260595134347_rgbf000164-resize_4-target.png,125,4.632,5,3157,123,meters,jsons/VE125_randls_61.json,1118137,1488860,32,Man
6,648622,DepthScenes,duration_manipulation_targetAtFixation,jsons/VE125_randls_61.json,http://54.235.29.9/FacialAge/BNav_EC2/DepthDuration/v2_depth_duration_MTurk/v2_DepthDuration_HTML.html#427,427,1366,625,1366,768,8-30-2022,11-57-34,7,depth_duration_stimuli/002905_2014-06-03_18-04-43_094959634447_rgbf000151-resize_2/002905_2014-06-03_18-04-43_094959634447_rgbf000151-resize_2-target.png,125,2.0295,6,2247,125,meters,jsons/VE125_randls_61.json,1118137,1488860,32,Man
7,648622,DepthScenes,duration_manipulation_targetAtFixation,jsons/VE125_randls_61.json,http://54.235.29.9/FacialAge/BNav_EC2/DepthDuration/v2_depth_duration_MTurk/v2_DepthDuration_HTML.html#427,427,1366,625,1366,768,8-30-2022,11-57-34,8,depth_duration_stimuli/003423_2014-05-21_10-23-26_094959634447_rgbf002665-resize_2/003423_2014-05-21_10-23-26_094959634447_rgbf002665-resize_2-target.png,125,3.2575,3,2928,122,meters,jsons/VE125_randls_61.json,1118137,1488860,32,Man
8,648622,DepthScenes,duration_manipulation_targetAtFixation,jsons/VE125_randls_61.json,http://54.235.29.9/FacialAge/BNav_EC2/DepthDuration/v2_depth_duration_MTurk/v2_DepthDuration_HTML.html#427,427,1366,625,1366,768,8-30-2022,11-57-34,9,depth_duration_stimuli/000692_2014-06-08_13-09-42_260595134347_rgbf000199-resize_2/000692_2014-06-08_13-09-42_260595134347_rgbf000199-resize_2-target.png,125,3.661,3,3380,123,meters,jsons/VE125_randls_61.json,1118137,1488860,32,Man
9,648622,DepthScenes,duration_manipulation_targetAtFixation,jsons/VE125_randls_61.json,http://54.235.29.9/FacialAge/BNav_EC2/DepthDuration/v2_depth_duration_MTurk/v2_DepthDuration_HTML.html#427,427,1366,625,1366,768,8-30-2022,11-57-34,10,depth_duration_stimuli/001094_2014-06-15_17-36-00_260595134347_rgbf000205-resize_0/001094_2014-06-15_17-36-00_260595134347_rgbf000205-resize_0-target.png,125,4.2175,3,2635,108,meters,jsons/VE125_randls_61.json,1118137,1488860,32,Man
10,648622,DepthScenes,duration_manipulation_targetAtFixation,jsons/VE125_randls_61.json,http://54.235.29.9/FacialAge/BNav_EC2/DepthDuration/v2_depth_duration_MTurk/v2_DepthDuration_HTML.html#427,427,1366,625,1366,768,8-30-2022,11-57-34,11,depth_duration_stimuli/002600_2014-06-24_14-27-04_094959634447_rgbf000074-resize_2/002600_2014-06-24_14-27-04_094959634447_rgbf000074-resize_2-target.png,125,2.7575,3,2143,122,meters,jsons/VE125_randls_61.json,1118137,1488860,32,Man
11,648622,DepthScenes,duration_manipulation_targetAtFixation,jsons/VE125_randls_61.json,http://54.235.29.9/FacialAge/BNav_EC2/DepthDuration/v2_depth_duration_MTurk/v2_DepthDuration_HTML.html#427,427,1366,625,1366,768,8-30-2022,11-57-34,12,depth_duration_stimuli/003228_2014-05-14_13-42-35_094959634447_rgbf000101-resize_1/003228_2014-05-14_13-42-35_094959634447_rgbf000101-resize_1-target.png,125,1.9680000000000002,5,2323,114,meters,jsons/VE125_randls_61.json,1118137,1488860,32,Man
12,648622,DepthScenes,duration_manipulation_targetAtFixation,jsons/VE125_randls_61.json,http://54.235.29.9/FacialAge/BNav_EC2/DepthDuration/v2_depth_duration_MTurk/v2_DepthDuration_HTML.html#427,427,1366,625,1366,768,8-30-2022,11-57-34,13,depth_duration_stimuli/000569_2014-06-09_22-51-47_260595134347_rgbf000141-resize_3/000569_2014-06-09_22-51-47_260595134347_rgbf000141-resize-original.jpg,125,4.512,0,3279,110,meters,jsons/VE125_randls_61.json,1118137,1488860,32,Man
13,648622,DepthScenes,duration_manipulation_targetAtFixation,jsons/VE125_randls_61.json,http://54.235.29.9/FacialAge/BNav_EC2/DepthDuration/v2_depth_duration_MTurk/v2_DepthDuration_HTML.html#427,427,1366,625,1366,768,8-30-2022,11-57-34,14,depth_duration_stimuli/001449_2014-06-19_17-01-27_260595134347_rgbf000116-resize_2/001449_2014-06-19_17-01-27_260595134347_rgbf000116-resize_2-target.png,125,3.452,4,3287,117,meters,jsons/VE125_randls_61.json,1118137,1488860,32,Man
14,648622,DepthScenes,duration_manipulation_targetAtFixation,jsons/VE125_randls_61.json,http://54.235.29.9/FacialAge/BNav_EC2/DepthDuration/v2_depth_duration_MTurk/v2_DepthDuration_HTML.html#427,427,1366,625,1366,768,8-30-2022,11-57-34,15,depth_duration_stimuli/001450_2014-06-19_17-02-03_260595134347_rgbf000203-resize_4/001450_2014-06-19_17-02-03_260595134347_rgbf000203-resize_4-target.png,125,4.0106666666667,4,2892,117,meters,jsons/VE125_randls_61.json,1118137,1488860,32,Man
15,648622,DepthScenes,duration_manipulation_targetAtFixation,jsons/VE125_randls_61.json,http://54.235.29.9/FacialAge/BNav_EC2/DepthDuration/v2_depth_duration_MTurk/v2_DepthDuration_HTML.html#427,427,1366,625,1366,768,8-30-2022,11-57-34,16,depth_duration_stimuli/002725_2014-06-22_11-47-51_094959634447_rgbf000070-resize_1/002725_2014-06-22_11-47-51_094959634447_rgbf000070-resize_1-target.png,125,2.195,6,3326,112,meters,jsons/VE125_randls_61.json,1118137,1488860,32,Man
16,648622,DepthScenes,duration_manipulation_targetAtFixation,jsons/VE125_randls_61.json,http://54.235.29.9/FacialAge/BNav_EC2/DepthDuration/v2_depth_duration_MTurk/v2_DepthDuration_HTML.html#427,427,1366,625,1366,768,8-30-2022,11-57-34,17,depth_duration_stimuli/002344_2014-06-28_20-06-29_260595134347_rgbf000030-resize_1/002344_2014-06-28_20-06-29_260595134347_rgbf000030-resize_1-target.png,125,1.5795,3,3262,134,meters,jsons/VE125_randls_61.json,1118137,1488860,32,Man
17,648622,DepthScenes,duration_manipulation_targetAtFixation,jsons/VE125_randls_61.json,http://54.235.29.9/FacialAge/BNav_EC2/DepthDuration/v2_depth_duration_MTurk/v2_DepthDuration_HTML.html#427,427,1366,625,1366,768,8-30-2022,11-57-34,18,depth_duration_stimuli/002213_2014-06-28_18-37-58_260595134347_rgbf000055-resize_1/002213_2014-06-28_18-37-58_260595134347_rgbf000055-resize_1-target.png,125,3.62,2,3078,129,meters,jsons/VE125_randls_61.json,1118137,1488860,32,Man
18,648622,DepthScenes,duration_manipulation_targetAtFixation,jsons/VE125_randls_61.json,http://54.235.29.9/FacialAge/BNav_EC2/DepthDuration/v2_depth_duration_MTurk/v2_DepthDuration_HTML.html#427,427,1366,625,1366,768,8-30-2022,11-57-34,19,depth_duration_stimuli/000691_2014-06-08_13-08-50_260595134347_rgbf000132-resize_3/000691_2014-06-08_13-08-50_260595134347_rgbf000132-resize_3-target.png,125,4.1530000000000005,2,2791,135,meters,jsons/VE125_randls_61.json,1118137,1488860,32,Man
19,648622,DepthScenes,duration_manipulation_targetAtFixation,jsons/VE125_randls_61.json,http://54.235.29.9/FacialAge/BNav_EC2/DepthDuration/v2_depth_duration_MTurk/v2_DepthDuration_HTML.html#427,427,1366,625,1366,768,8-30-2022,11-57-34,20,depth_duration_stimuli/000436_2014-06-09_22-25-11_260595134347_rgbf000137-resize_1/000436_2014-06-09_22-25-11_260595134347_rgbf000137-resize_1-target.png,125,4.0705,3,2472,132,meters,jsons/VE125_randls_61.json,1118137,1488860,32,Man
20,648622,DepthScenes,duration_manipulation_targetAtFixation,jsons/VE125_randls_61.json,http://54.235.29.9/FacialAge/BNav_EC2/DepthDuration/v2_depth_duration_MTurk/v2_DepthDuration_HTML.html#427,427,1366,625,1366,768,8-30-2022,11-57-34,21,depth_duration_stimuli/002444_2014-06-28_20-32-08_260595134347_rgbf000027-resize_0/002444_2014-06-28_20-32-08_260595134347_rgbf000027-resize_0-target.png,125,4.388999999999999,3,2900,126,meters,jsons/VE125_randls_61.json,1118137,1488860,32,Man
21,648622,DepthScenes,duration_manipulation_targetAtFixation,jsons/VE125_randls_61.json,http://54.235.29.9/FacialAge/BNav_EC2/DepthDuration/v2_depth_duration_MTurk/v2_DepthDuration_HTML.html#427,427,1366,625,1366,768,8-30-2022,11-57-34,22,depth_duration_stimuli/000758_2014-06-08_22-05-08_260595134347_rgbf000085-resize_0/000758_2014-06-08_22-05-08_260595134347_rgbf000085-resize_0-target.png,125,3.3810000000000002,4,3985,132,meters,jsons/VE125_randls_61.json,1118137,1488860,32,Man
22,648622,DepthScenes,duration_manipulation_targetAtFixation,jsons/VE125_randls_61.json,http://54.235.29.9/FacialAge/BNav_EC2/DepthDuration/v2_depth_duration_MTurk/v2_DepthDuration_HTML.html#427,427,1366,625,1366,768,8-30-2022,11-57-34,23,depth_duration_stimuli/000854_2014-06-09_19-43-13_260595134347_rgbf000066-resize_0/000854_2014-06-09_19-43-13_260595134347_rgbf000066-resize_0-target.png,125,3.068,3,3570,126,meters,jsons/VE125_randls_61.json,1118137,1488860,32,Man
23,648622,DepthScenes,duration_manipulation_targetAtFixation,jsons/VE125_randls_61.json,http://54.235.29.9/FacialAge/BNav_EC2/DepthDuration/v2_depth_duration_MTurk/v2_DepthDuration_HTML.html#427,427,1366,625,1366,768,8-30-2022,11-57-34,24,depth_duration_stimuli/001570_2014-06-20_17-21-09_260595134347_rgbf000135-resize_4/001570_2014-06-20_17-21-09_260595134347_rgbf000135-resize_4-target.png,125,4.467,3,2283,124,meters,jsons/VE125_randls_61.json,1118137,1488860,32,Man
24,648622,DepthScenes,duration_manipulation_targetAtFixation,jsons/VE125_randls_61.json,http://54.235.29.9/FacialAge/BNav_EC2/DepthDuration/v2_depth_duration_MTurk/v2_DepthDuration_HTML.html#427,427,1366,625,1366,768,8-30-2022,11-57-34,25,depth_duration_stimuli/001392_2014-06-19_16-07-59_260595134347_rgbf000046-resize_1/001392_2014-06-19_16-07-59_260595134347_rgbf000046-resize_1-target.png,125,4.135,2,3169,122,meters,jsons/VE125_randls_61.json,1118137,1488860,32,Man
25,648622,DepthScenes,duration_manipulation_targetAtFixation,jsons/VE125_randls_61.json,http://54.235.29.9/FacialAge/BNav_EC2/DepthDuration/v2_depth_duration_MTurk/v2_DepthDuration_HTML.html#427,427,1366,625,1366,768,8-30-2022,11-57-34,26,depth_duration_stimuli/000682_2014-06-08_23-14-58_260595134347_rgbf000041-resize_5/000682_2014-06-08_23-14-58_260595134347_rgbf000041-resize_5-target.png,125,2.7239999999999998,32,6491,140,meters,jsons/VE125_randls_61.json,1118137,1488860,32,Man
26,648622,DepthScenes,duration_manipulation_targetAtFixation,jsons/VE125_randls_61.json,http://54.235.29.9/FacialAge/BNav_EC2/DepthDuration/v2_depth_duration_MTurk/v2_DepthDuration_HTML.html#427,427,1366,625,1366,768,8-30-2022,11-57-34,27,depth_duration_stimuli/001650_2014-06-20_12-09-00_260595134347_rgbf000087-resize_3/001650_2014-06-20_12-09-00_260595134347_rgbf000087-resize_3-target.png,125,1.9505,4,2120,114,meters,jsons/VE125_randls_61.json,1118137,1488860,32,Man
27,648622,DepthScenes,duration_manipulation_targetAtFixation,jsons/VE125_randls_61.json,http://54.235.29.9/FacialAge/BNav_EC2/DepthDuration/v2_depth_duration_MTurk/v2_DepthDuration_HTML.html#427,427,1366,625,1366,768,8-30-2022,11-57-34,28,depth_duration_stimuli/001175_2014-06-17_15-45-55_260595134347_rgbf000129-resize_4/001175_2014-06-17_15-45-55_260595134347_rgbf000129-resize_4-target.png,125,4.255,4,2385,122,meters,jsons/VE125_randls_61.json,1118137,1488860,32,Man
28,648622,DepthScenes,duration_manipulation_targetAtFixation,jsons/VE125_randls_61.json,http://54.235.29.9/FacialAge/BNav_EC2/DepthDuration/v2_depth_duration_MTurk/v2_DepthDuration_HTML.html#427,427,1366,625,1366,768,8-30-2022,11-57-34,29,depth_duration_stimuli/003490_2014-05-21_15-50-11_094959634447_rgbf000101-resize_3/003490_2014-05-21_15-50-11_094959634447_rgbf000101-resize_3-target.png,125,3.6445,3,2433,124,meters,jsons/VE125_randls_61.json,1118137,1488860,32,Man
29,648622,DepthScenes,duration_manipulation_targetAtFixation,jsons/VE125_randls_61.json,http://54.235.29.9/FacialAge/BNav_EC2/DepthDuration/v2_depth_duration_MTurk/v2_DepthDuration_HTML.html#427,427,1366,625,1366,768,8-30-2022,11-57-34,30,depth_duration_stimuli/000375_2014-06-08_11-17-29_260595134347_rgbf000133-resize_2/000375_2014-06-08_11-17-29_260595134347_rgbf000133-resize-original.jpg,125,4.718,0,2899,126,meters,jsons/VE125_randls_61.json,1118137,1488860,32,Man
30,648622,DepthScenes,duration_manipulation_targetAtFixation,jsons/VE125_randls_61.json,http://54.235.29.9/FacialAge/BNav_EC2/DepthDuration/v2_depth_duration_MTurk/v2_DepthDuration_HTML.html#427,427,1366,625,1366,768,8-30-2022,11-57-34,31,depth_duration_stimuli/001011_2014-06-08_23-18-54_260595134347_rgbf000044-resize_4/001011_2014-06-08_23-18-54_260595134347_rgbf000044-resize_4-target.png,125,2.4730000000000003,2,3194,131,meters,jsons/VE125_randls_61.json,1118137,1488860,32,Man
31,648622,DepthScenes,duration_manipulation_targetAtFixation,jsons/VE125_randls_61.json,http://54.235.29.9/FacialAge/BNav_EC2/DepthDuration/v2_depth_duration_MTurk/v2_DepthDuration_HTML.html#427,427,1366,625,1366,768,8-30-2022,11-57-34,32,depth_duration_stimuli/002875_2014-06-01_15-19-00_094959634447_rgbf000151-resize_1/002875_2014-06-01_15-19-00_094959634447_rgbf000151-resize_1-target.png,125,1.9675,3,1859,126,meters,jsons/VE125_randls_61.json,1118137,1488860,32,Man
32,648622,DepthScenes,duration_manipulation_targetAtFixation,jsons/VE125_randls_61.json,http://54.235.29.9/FacialAge/BNav_EC2/DepthDuration/v2_depth_duration_MTurk/v2_DepthDuration_HTML.html#427,427,1366,625,1366,768,8-30-2022,11-57-34,33,depth_duration_stimuli/002988_2014-06-15_12-24-20_094959634447_rgbf000150-resize_1/002988_2014-06-15_12-24-20_094959634447_rgbf000150-resize_1-target.png,125,4.7669999999999995,4,2427,126,meters,jsons/VE125_randls_61.json,1118137,1488860,32,Man
33,648622,DepthScenes,duration_manipulation_targetAtFixation,jsons/VE125_randls_61.json,http://54.235.29.9/FacialAge/BNav_EC2/DepthDuration/v2_depth_duration_MTurk/v2_DepthDuration_HTML.html#427,427,1366,625,1366,768,8-30-2022,11-57-34,34,depth_duration_stimuli/001052_2014-06-08_18-24-54_260595134347_rgbf000130-resize_1/001052_2014-06-08_18-24-54_260595134347_rgbf000130-resize_1-target.png,125,4.1045,0,2479,130,meters,jsons/VE125_randls_61.json,1118137,1488860,32,Man
34,648622,DepthScenes,duration_manipulation_targetAtFixation,jsons/VE125_randls_61.json,http://54.235.29.9/FacialAge/BNav_EC2/DepthDuration/v2_depth_duration_MTurk/v2_DepthDuration_HTML.html#427,427,1366,625,1366,768,8-30-2022,11-57-34,35,depth_duration_stimuli/002549_2014-06-24_13-41-39_094959634447_rgbf000022-resize_3/002549_2014-06-24_13-41-39_094959634447_rgbf000022-resize_3-target.png,125,1.476,3,2754,135,meters,jsons/VE125_randls_61.json,1118137,1488860,32,Man
35,648622,DepthScenes,duration_manipulation_targetAtFixation,jsons/VE125_randls_61.json,http://54.235.29.9/FacialAge/BNav_EC2/DepthDuration/v2_depth_duration_MTurk/v2_DepthDuration_HTML.html#427,427,1366,625,1366,768,8-30-2022,11-57-34,36,depth_duration_stimuli/002750_2014-06-22_19-08-03_094959634447_rgbf000094-resize_4/002750_2014-06-22_19-08-03_094959634447_rgbf000094-resize_4-target.png,125,2.354,2,2377,113,meters,jsons/VE125_randls_61.json,1118137,1488860,32,Man
36,648622,DepthScenes,duration_manipulation_targetAtFixation,jsons/VE125_randls_61.json,http://54.235.29.9/FacialAge/BNav_EC2/DepthDuration/v2_depth_duration_MTurk/v2_DepthDuration_HTML.html#427,427,1366,625,1366,768,8-30-2022,11-57-34,37,depth_duration_stimuli/002118_2014-06-25_20-32-08_260595134347_rgbf000078-resize_1/002118_2014-06-25_20-32-08_260595134347_rgbf000078-resize_1-target.png,125,2.6460000000000004,3,2731,107,meters,jsons/VE125_randls_61.json,1118137,1488860,32,Man
37,648622,DepthScenes,duration_manipulation_targetAtFixation,jsons/VE125_randls_61.json,http://54.235.29.9/FacialAge/BNav_EC2/DepthDuration/v2_depth_duration_MTurk/v2_DepthDuration_HTML.html#427,427,1366,625,1366,768,8-30-2022,11-57-34,38,depth_duration_stimuli/001516_2014-06-20_16-25-09_260595134347_rgbf000076-resize_2/001516_2014-06-20_16-25-09_260595134347_rgbf000076-resize_2-target.png,125,1.7445,2,3842,113,meters,jsons/VE125_randls_61.json,1118137,1488860,32,Man
38,648622,DepthScenes,duration_manipulation_targetAtFixation,jsons/VE125_randls_61.json,http://54.235.29.9/FacialAge/BNav_EC2/DepthDuration/v2_depth_duration_MTurk/v2_DepthDuration_HTML.html#427,427,1366,625,1366,768,8-30-2022,11-57-34,39,depth_duration_stimuli/002788_2014-06-22_19-36-03_094959634447_rgbf000088-resize_2/002788_2014-06-22_19-36-03_094959634447_rgbf000088-resize_2-target.png,125,1.6465,3,4059,110,meters,jsons/VE125_randls_61.json,1118137,1488860,32,Man
39,648622,DepthScenes,duration_manipulation_targetAtFixation,jsons/VE125_randls_61.json,http://54.235.29.9/FacialAge/BNav_EC2/DepthDuration/v2_depth_duration_MTurk/v2_DepthDuration_HTML.html#427,427,1366,625,1366,768,8-30-2022,11-57-34,40,depth_duration_stimuli/000749_2014-06-08_21-55-06_260595134347_rgbf000070-resize_2/000749_2014-06-08_21-55-06_260595134347_rgbf000070-resize_2-target.png,125,2.331,0,1946,132,meters,jsons/VE125_randls_61.json,1118137,1488860,32,Man
40,648622,DepthScenes,duration_manipulation_targetAtFixation,jsons/VE125_randls_61.json,http://54.235.29.9/FacialAge/BNav_EC2/DepthDuration/v2_depth_duration_MTurk/v2_DepthDuration_HTML.html#427,427,1366,625,1366,768,8-30-2022,11-57-34,41,depth_duration_stimuli/002445_2014-06-28_20-32-16_260595134347_rgbf000029-resize_4/002445_2014-06-28_20-32-16_260595134347_rgbf000029-resize_4-target.png,125,2.5315,0,3330,119,meters,jsons/VE125_randls_61.json,1118137,1488860,32,Man
41,648622,DepthScenes,duration_manipulation_targetAtFixation,jsons/VE125_randls_61.json,http://54.235.29.9/FacialAge/BNav_EC2/DepthDuration/v2_depth_duration_MTurk/v2_DepthDuration_HTML.html#427,427,1366,625,1366,768,8-30-2022,11-57-34,42,depth_duration_stimuli/000780_2014-06-08_22-28-29_260595134347_rgbf000126-resize_1/000780_2014-06-08_22-28-29_260595134347_rgbf000126-resize_1-target.png,125,3.3825,4,6497,125,meters,jsons/VE125_randls_61.json,1118137,1488860,32,Man
42,648622,DepthScenes,duration_manipulation_targetAtFixation,jsons/VE125_randls_61.json,http://54.235.29.9/FacialAge/BNav_EC2/DepthDuration/v2_depth_duration_MTurk/v2_DepthDuration_HTML.html#427,427,1366,625,1366,768,8-30-2022,11-57-34,43,depth_duration_stimuli/001055_2014-06-08_18-45-35_260595134347_rgbf000111-resize_4/001055_2014-06-08_18-45-35_260595134347_rgbf000111-resize_4-target.png,125,2.4290000000000003,3,3082,125,meters,jsons/VE125_randls_61.json,1118137,1488860,32,Man
43,648622,DepthScenes,duration_manipulation_targetAtFixation,jsons/VE125_randls_61.json,http://54.235.29.9/FacialAge/BNav_EC2/DepthDuration/v2_depth_duration_MTurk/v2_DepthDuration_HTML.html#427,427,1366,625,1366,768,8-30-2022,11-57-34,44,depth_duration_stimuli/000549_2014-06-08_22-10-24_260595134347_rgbf000247-resize_3/000549_2014-06-08_22-10-24_260595134347_rgbf000247-resize_3-target.png,125,1.841,2,1890,127,meters,jsons/VE125_randls_61.json,1118137,1488860,32,Man
44,648622,DepthScenes,duration_manipulation_targetAtFixation,jsons/VE125_randls_61.json,http://54.235.29.9/FacialAge/BNav_EC2/DepthDuration/v2_depth_duration_MTurk/v2_DepthDuration_HTML.html#427,427,1366,625,1366,768,8-30-2022,11-57-34,45,depth_duration_stimuli/000787_2014-06-08_22-33-53_260595134347_rgbf000175-resize_1/000787_2014-06-08_22-33-53_260595134347_rgbf000175-resize-original.jpg,125,4.784,0,1714,125,meters,jsons/VE125_randls_61.json,1118137,1488860,32,Man
45,648622,DepthScenes,duration_manipulation_targetAtFixation,jsons/VE125_randls_61.json,http://54.235.29.9/FacialAge/BNav_EC2/DepthDuration/v2_depth_duration_MTurk/v2_DepthDuration_HTML.html#427,427,1366,625,1366,768,8-30-2022,11-57-34,46,depth_duration_stimuli/002570_2014-06-24_13-59-54_094959634447_rgbf000059-resize_0/002570_2014-06-24_13-59-54_094959634447_rgbf000059-resize_0-target.png,125,4.037,4,2435,148,meters,jsons/VE125_randls_61.json,1118137,1488860,32,Man
46,648622,DepthScenes,duration_manipulation_targetAtFixation,jsons/VE125_randls_61.json,http://54.235.29.9/FacialAge/BNav_EC2/DepthDuration/v2_depth_duration_MTurk/v2_DepthDuration_HTML.html#427,427,1366,625,1366,768,8-30-2022,11-57-34,47,depth_duration_stimuli/002467_2014-06-28_20-38-07_260595134347_rgbf000026-resize_2/002467_2014-06-28_20-38-07_260595134347_rgbf000026-resize_2-target.png,125,4.742,5,2393,125,meters,jsons/VE125_randls_61.json,1118137,1488860,32,Man
47,648622,DepthScenes,duration_manipulation_targetAtFixation,jsons/VE125_randls_61.json,http://54.235.29.9/FacialAge/BNav_EC2/DepthDuration/v2_depth_duration_MTurk/v2_DepthDuration_HTML.html#427,427,1366,625,1366,768,8-30-2022,11-57-34,48,depth_duration_stimuli/003534_2014-05-22_15-06-10_094959634447_rgbf000102-resize_4/003534_2014-05-22_15-06-10_094959634447_rgbf000102-resize_4-target.png,125,1.426,4,3128,123,meters,jsons/VE125_randls_61.json,1118137,1488860,32,Man
48,648622,DepthScenes,duration_manipulation_targetAtFixation,jsons/VE125_randls_61.json,http://54.235.29.9/FacialAge/BNav_EC2/DepthDuration/v2_depth_duration_MTurk/v2_DepthDuration_HTML.html#427,427,1366,625,1366,768,8-30-2022,11-57-34,49,depth_duration_stimuli/002637_2014-06-24_14-51-13_094959634447_rgbf000066-resize_4/002637_2014-06-24_14-51-13_094959634447_rgbf000066-resize_4-target.png,125,1.9955,2,2455,120,meters,jsons/VE125_randls_61.json,1118137,1488860,32,Man
49,648622,DepthScenes,duration_manipulation_targetAtFixation,jsons/VE125_randls_61.json,http://54.235.29.9/FacialAge/BNav_EC2/DepthDuration/v2_depth_duration_MTurk/v2_DepthDuration_HTML.html#427,427,1366,625,1366,768,8-30-2022,11-57-34,50,depth_duration_stimuli/000486_2014-06-09_20-47-20_260595134347_rgbf000143-resize_2/000486_2014-06-09_20-47-20_260595134347_rgbf000143-resize_2-target.png,125,4.8325,3,2215,119,meters,jsons/VE125_randls_61.json,1118137,1488860,32,Man
50,648622,DepthScenes,duration_manipulation_targetAtFixation,jsons/VE125_randls_61.json,http://54.235.29.9/FacialAge/BNav_EC2/DepthDuration/v2_depth_duration_MTurk/v2_DepthDuration_HTML.html#427,427,1366,625,1366,768,8-30-2022,11-57-34,51,depth_duration_stimuli/003083_2014-06-15_15-21-03_094959634447_rgbf000063-resize_1/003083_2014-06-15_15-21-03_094959634447_rgbf000063-resize_1-target.png,125,4.1405,2,3265,129,meters,jsons/VE125_randls_61.json,1118137,1488860,32,Man
51,648622,DepthScenes,duration_manipulation_targetAtFixation,jsons/VE125_randls_61.json,http://54.235.29.9/FacialAge/BNav_EC2/DepthDuration/v2_depth_duration_MTurk/v2_DepthDuration_HTML.html#427,427,1366,625,1366,768,8-30-2022,11-57-34,52,depth_duration_stimuli/000773_2014-06-08_22-24-54_260595134347_rgbf000093-resize_1/000773_2014-06-08_22-24-54_260595134347_rgbf000093-resize_1-target.png,125,4.973,3,2181,122,meters,jsons/VE125_randls_61.json,1118137,1488860,32,Man
52,648622,DepthScenes,duration_manipulation_targetAtFixation,jsons/VE125_randls_61.json,http://54.235.29.9/FacialAge/BNav_EC2/DepthDuration/v2_depth_duration_MTurk/v2_DepthDuration_HTML.html#427,427,1366,625,1366,768,8-30-2022,11-57-34,53,depth_duration_stimuli/002414_2014-06-28_20-24-58_260595134347_rgbf000067-resize_4/002414_2014-06-28_20-24-58_260595134347_rgbf000067-resize_4-target.png,125,4.363,4,22405,119,meters,jsons/VE125_randls_61.json,1118137,1488860,32,Man
53,648622,DepthScenes,duration_manipulation_targetAtFixation,jsons/VE125_randls_61.json,http://54.235.29.9/FacialAge/BNav_EC2/DepthDuration/v2_depth_duration_MTurk/v2_DepthDuration_HTML.html#427,427,1366,625,1366,768,8-30-2022,11-57-34,54,depth_duration_stimuli/000506_2014-06-08_23-21-00_260595134347_rgbf000070-resize_7/000506_2014-06-08_23-21-00_260595134347_rgbf000070-resize_7-target.png,125,4.0585,5,3126,120,meters,jsons/VE125_randls_61.json,1118137,1488860,32,Man
54,648622,DepthScenes,duration_manipulation_targetAtFixation,jsons/VE125_randls_61.json,http://54.235.29.9/FacialAge/BNav_EC2/DepthDuration/v2_depth_duration_MTurk/v2_DepthDuration_HTML.html#427,427,1366,625,1366,768,8-30-2022,11-57-34,55,depth_duration_stimuli/003079_2014-06-15_15-18-20_094959634447_rgbf000152-resize_8/003079_2014-06-15_15-18-20_094959634447_rgbf000152-resize_8-target.png,125,2.8775,3,3602,125,meters,jsons/VE125_randls_61.json,1118137,1488860,32,Man
55,648622,DepthScenes,duration_manipulation_targetAtFixation,jsons/VE125_randls_61.json,http://54.235.29.9/FacialAge/BNav_EC2/DepthDuration/v2_depth_duration_MTurk/v2_DepthDuration_HTML.html#427,427,1366,625,1366,768,8-30-2022,11-57-34,56,depth_duration_stimuli/000642_2014-06-08_16-59-25_260595134347_rgbf000098-resize_2/000642_2014-06-08_16-59-25_260595134347_rgbf000098-resize_2-target.png,125,2.8815,2,2719,124,meters,jsons/VE125_randls_61.json,1118137,1488860,32,Man
56,648622,DepthScenes,duration_manipulation_targetAtFixation,jsons/VE125_randls_61.json,http://54.235.29.9/FacialAge/BNav_EC2/DepthDuration/v2_depth_duration_MTurk/v2_DepthDuration_HTML.html#427,427,1366,625,1366,768,8-30-2022,11-57-34,57,depth_duration_stimuli/002425_2014-06-28_20-27-29_260595134347_rgbf000031-resize_8/002425_2014-06-28_20-27-29_260595134347_rgbf000031-resize_8-target.png,125,3.8960000000000004,4,2979,124,meters,jsons/VE125_randls_61.json,1118137,1488860,32,Man
57,648622,DepthScenes,duration_manipulation_targetAtFixation,jsons/VE125_randls_61.json,http://54.235.29.9/FacialAge/BNav_EC2/DepthDuration/v2_depth_duration_MTurk/v2_DepthDuration_HTML.html#427,427,1366,625,1366,768,8-30-2022,11-57-34,58,depth_duration_stimuli/001110_2014-06-15_17-25-28_260595134347_rgbf000150-resize_1/001110_2014-06-15_17-25-28_260595134347_rgbf000150-resize_1-target.png,125,1.7115,2,2516,125,meters,jsons/VE125_randls_61.json,1118137,1488860,32,Man
58,648622,DepthScenes,duration_manipulation_targetAtFixation,jsons/VE125_randls_61.json,http://54.235.29.9/FacialAge/BNav_EC2/DepthDuration/v2_depth_duration_MTurk/v2_DepthDuration_HTML.html#427,427,1366,625,1366,768,8-30-2022,11-57-34,59,depth_duration_stimuli/000927_2014-06-09_16-32-30_260595134347_rgbf000123-resize_3/000927_2014-06-09_16-32-30_260595134347_rgbf000123-resize_3-target.png,125,2.6785,5,2642,119,meters,jsons/VE125_randls_61.json,1118137,1488860,32,Man
59,648622,DepthScenes,duration_manipulation_targetAtFixation,jsons/VE125_randls_61.json,http://54.235.29.9/FacialAge/BNav_EC2/DepthDuration/v2_depth_duration_MTurk/v2_DepthDuration_HTML.html#427,427,1366,625,1366,768,8-30-2022,11-57-34,60,depth_duration_stimuli/001056_2014-06-08_18-46-44_260595134347_rgbf000068-resize_0/001056_2014-06-08_18-46-44_260595134347_rgbf000068-resize_0-target.png,125,2.6625,4,1998,130,meters,jsons/VE125_randls_61.json,1118137,1488860,32,Man
60,648622,DepthScenes,duration_manipulation_targetAtFixation,jsons/VE125_randls_61.json,http://54.235.29.9/FacialAge/BNav_EC2/DepthDuration/v2_depth_duration_MTurk/v2_DepthDuration_HTML.html#427,427,1366,625,1366,768,8-30-2022,11-57-34,61,depth_duration_stimuli/002199_2014-06-28_18-33-56_260595134347_rgbf000074-resize_0/002199_2014-06-28_18-33-56_260595134347_rgbf000074-resize_0-target.png,125,1.996,4,3047,130,meters,jsons/VE125_randls_61.json,1118137,1488860,32,Man
61,648622,DepthScenes,duration_manipulation_targetAtFixation,jsons/VE125_randls_61.json,http://54.235.29.9/FacialAge/BNav_EC2/DepthDuration/v2_depth_duration_MTurk/v2_DepthDuration_HTML.html#427,427,1366,625,1366,768,8-30-2022,11-57-34,62,depth_duration_stimuli/002057_2014-06-24_21-00-13_260595134347_rgbf000120-resize_1/002057_2014-06-24_21-00-13_260595134347_rgbf000120-resize_1-target.png,125,2.967,3,2887,117,meters,jsons/VE125_randls_61.json,1118137,1488860,32,Man
62,648622,DepthScenes,duration_manipulation_targetAtFixation,jsons/VE125_randls_61.json,http://54.235.29.9/FacialAge/BNav_EC2/DepthDuration/v2_depth_duration_MTurk/v2_DepthDuration_HTML.html#427,427,1366,625,1366,768,8-30-2022,11-57-34,63,depth_duration_stimuli/000709_2014-06-08_13-51-55_260595134347_rgbf000068-resize_3/000709_2014-06-08_13-51-55_260595134347_rgbf000068-resize_3-target.png,125,1.8030000000000002,3,8359,121,meters,jsons/VE125_randls_61.json,1118137,1488860,32,Man
63,648622,DepthScenes,duration_manipulation_targetAtFixation,jsons/VE125_randls_61.json,http://54.235.29.9/FacialAge/BNav_EC2/DepthDuration/v2_depth_duration_MTurk/v2_DepthDuration_HTML.html#427,427,1366,625,1366,768,8-30-2022,11-57-34,64,depth_duration_stimuli/002784_2014-06-22_19-26-30_094959634447_rgbf000083-resize_3/002784_2014-06-22_19-26-30_094959634447_rgbf000083-resize_3-target.png,125,1.8046666666667,4,4032,120,meters,jsons/VE125_randls_61.json,1118137,1488860,32,Man
64,648622,DepthScenes,duration_manipulation_targetAtFixation,jsons/VE125_randls_61.json,http://54.235.29.9/FacialAge/BNav_EC2/DepthDuration/v2_depth_duration_MTurk/v2_DepthDuration_HTML.html#427,427,1366,625,1366,768,8-30-2022,11-57-34,65,depth_duration_stimuli/001100_2014-06-15_17-46-26_260595134347_rgbf000225-resize_2/001100_2014-06-15_17-46-26_260595134347_rgbf000225-resize_2-target.png,125,2.24,4,16328,128,meters,jsons/VE125_randls_61.json,1118137,1488860,32,Man
65,648622,DepthScenes,duration_manipulation_targetAtFixation,jsons/VE125_randls_61.json,http://54.235.29.9/FacialAge/BNav_EC2/DepthDuration/v2_depth_duration_MTurk/v2_DepthDuration_HTML.html#427,427,1366,625,1366,768,8-30-2022,11-57-34,66,depth_duration_stimuli/001222_2014-06-17_16-24-06_260595134347_rgbf000073-resize_0/001222_2014-06-17_16-24-06_260595134347_rgbf000073-resize-original.jpg,125,1.4385,0,2300,124,meters,jsons/VE125_randls_61.json,1118137,1488860,32,Man
66,648622,DepthScenes,duration_manipulation_targetAtFixation,jsons/VE125_randls_61.json,http://54.235.29.9/FacialAge/BNav_EC2/DepthDuration/v2_depth_duration_MTurk/v2_DepthDuration_HTML.html#427,427,1366,625,1366,768,8-30-2022,11-57-34,67,depth_duration_stimuli/002630_2014-06-24_14-47-50_094959634447_rgbf000055-resize_1/002630_2014-06-24_14-47-50_094959634447_rgbf000055-resize_1-target.png,125,3.0095,3,9013,138,meters,jsons/VE125_randls_61.json,1118137,1488860,32,Man
67,648622,DepthScenes,duration_manipulation_targetAtFixation,jsons/VE125_randls_61.json,http://54.235.29.9/FacialAge/BNav_EC2/DepthDuration/v2_depth_duration_MTurk/v2_DepthDuration_HTML.html#427,427,1366,625,1366,768,8-30-2022,11-57-34,68,depth_duration_stimuli/002758_2014-06-22_19-11-20_094959634447_rgbf000128-resize_1/002758_2014-06-22_19-11-20_094959634447_rgbf000128-resize_1-target.png,125,2.555,0,2265,141,meters,jsons/VE125_randls_61.json,1118137,1488860,32,Man
68,648622,DepthScenes,duration_manipulation_targetAtFixation,jsons/VE125_randls_61.json,http://54.235.29.9/FacialAge/BNav_EC2/DepthDuration/v2_depth_duration_MTurk/v2_DepthDuration_HTML.html#427,427,1366,625,1366,768,8-30-2022,11-57-34,69,depth_duration_stimuli/002375_2014-06-28_20-13-44_260595134347_rgbf000032-resize_1/002375_2014-06-28_20-13-44_260595134347_rgbf000032-resize_1-target.png,125,4.0175,2,2322,116,meters,jsons/VE125_randls_61.json,1118137,1488860,32,Man
69,648622,DepthScenes,duration_manipulation_targetAtFixation,jsons/VE125_randls_61.json,http://54.235.29.9/FacialAge/BNav_EC2/DepthDuration/v2_depth_duration_MTurk/v2_DepthDuration_HTML.html#427,427,1366,625,1366,768,8-30-2022,11-57-34,70,depth_duration_stimuli/002657_2014-06-13_15-29-54_094959634447_rgbf000150-resize_1/002657_2014-06-13_15-29-54_094959634447_rgbf000150-resize_1-target.png,125,4.919,3,2737,126,meters,jsons/VE125_randls_61.json,1118137,1488860,32,Man
70,648622,DepthScenes,duration_manipulation_targetAtFixation,jsons/VE125_randls_61.json,http://54.235.29.9/FacialAge/BNav_EC2/DepthDuration/v2_depth_duration_MTurk/v2_DepthDuration_HTML.html#427,427,1366,625,1366,768,8-30-2022,11-57-34,71,depth_duration_stimuli/003492_2014-05-21_15-50-55_094959634447_rgbf000828-resize_1/003492_2014-05-21_15-50-55_094959634447_rgbf000828-resize_1-target.png,125,4.06875,4,2660,126,meters,jsons/VE125_randls_61.json,1118137,1488860,32,Man
71,648622,DepthScenes,duration_manipulation_targetAtFixation,jsons/VE125_randls_61.json,http://54.235.29.9/FacialAge/BNav_EC2/DepthDuration/v2_depth_duration_MTurk/v2_DepthDuration_HTML.html#427,427,1366,625,1366,768,8-30-2022,11-57-34,72,depth_duration_stimuli/002568_2014-06-24_13-59-21_094959634447_rgbf000062-resize_4/002568_2014-06-24_13-59-21_094959634447_rgbf000062-resize_4-target.png,125,3.015,2,2931,114,meters,jsons/VE125_randls_61.json,1118137,1488860,32,Man
72,648622,DepthScenes,duration_manipulation_targetAtFixation,jsons/VE125_randls_61.json,http://54.235.29.9/FacialAge/BNav_EC2/DepthDuration/v2_depth_duration_MTurk/v2_DepthDuration_HTML.html#427,427,1366,625,1366,768,8-30-2022,11-57-34,73,depth_duration_stimuli/002763_2014-06-22_19-13-10_094959634447_rgbf000075-resize_4/002763_2014-06-22_19-13-10_094959634447_rgbf000075-resize_4-target.png,125,1.68375,4,3225,117,meters,jsons/VE125_randls_61.json,1118137,1488860,32,Man
73,648622,DepthScenes,duration_manipulation_targetAtFixation,jsons/VE125_randls_61.json,http://54.235.29.9/FacialAge/BNav_EC2/DepthDuration/v2_depth_duration_MTurk/v2_DepthDuration_HTML.html#427,427,1366,625,1366,768,8-30-2022,11-57-34,74,depth_duration_stimuli/002209_2014-06-28_18-36-10_260595134347_rgbf000051-resize_1/002209_2014-06-28_18-36-10_260595134347_rgbf000051-resize_1-target.png,125,2.057,2,2131,125,meters,jsons/VE125_randls_61.json,1118137,1488860,32,Man
74,648622,DepthScenes,duration_manipulation_targetAtFixation,jsons/VE125_randls_61.json,http://54.235.29.9/FacialAge/BNav_EC2/DepthDuration/v2_depth_duration_MTurk/v2_DepthDuration_HTML.html#427,427,1366,625,1366,768,8-30-2022,11-57-34,75,depth_duration_stimuli/001808_2014-06-26_20-50-58_260595134347_rgbf000029-resize_1/001808_2014-06-26_20-50-58_260595134347_rgbf000029-resize_1-target.png,125,4.249,3,2630,124,meters,jsons/VE125_randls_61.json,1118137,1488860,32,Man
75,648622,DepthScenes,duration_manipulation_targetAtFixation,jsons/VE125_randls_61.json,http://54.235.29.9/FacialAge/BNav_EC2/DepthDuration/v2_depth_duration_MTurk/v2_DepthDuration_HTML.html#427,427,1366,625,1366,768,8-30-2022,11-57-34,76,depth_duration_stimuli/001815_2014-06-26_20-52-55_260595134347_rgbf000020-resize_0/001815_2014-06-26_20-52-55_260595134347_rgbf000020-resize_0-target.png,125,3.3865,4,2882,138,meters,jsons/VE125_randls_61.json,1118137,1488860,32,Man
76,648622,DepthScenes,duration_manipulation_targetAtFixation,jsons/VE125_randls_61.json,http://54.235.29.9/FacialAge/BNav_EC2/DepthDuration/v2_depth_duration_MTurk/v2_DepthDuration_HTML.html#427,427,1366,625,1366,768,8-30-2022,11-57-34,77,depth_duration_stimuli/000788_2014-06-08_22-34-36_260595134347_rgbf000131-resize_1/000788_2014-06-08_22-34-36_260595134347_rgbf000131-resize_1-target.png,125,3.359,3,3742,124,meters,jsons/VE125_randls_61.json,1118137,1488860,32,Man
77,648622,DepthScenes,duration_manipulation_targetAtFixation,jsons/VE125_randls_61.json,http://54.235.29.9/FacialAge/BNav_EC2/DepthDuration/v2_depth_duration_MTurk/v2_DepthDuration_HTML.html#427,427,1366,625,1366,768,8-30-2022,11-57-34,78,depth_duration_stimuli/001235_2014-06-17_16-37-36_260595134347_rgbf000084-resize_4/001235_2014-06-17_16-37-36_260595134347_rgbf000084-resize_4-target.png,125,3.6605,3,3531,54,meters,jsons/VE125_randls_61.json,1118137,1488860,32,Man
78,648622,DepthScenes,duration_manipulation_targetAtFixation,jsons/VE125_randls_61.json,http://54.235.29.9/FacialAge/BNav_EC2/DepthDuration/v2_depth_duration_MTurk/v2_DepthDuration_HTML.html#427,427,1366,625,1366,768,8-30-2022,11-57-34,79,depth_duration_stimuli/000470_2014-06-09_19-42-40_260595134347_rgbf000094-resize_1/000470_2014-06-09_19-42-40_260595134347_rgbf000094-resize_1-target.png,125,1.831,3,4060,27,meters,jsons/VE125_randls_61.json,1118137,1488860,32,Man
79,648622,DepthScenes,duration_manipulation_targetAtFixation,jsons/VE125_randls_61.json,http://54.235.29.9/FacialAge/BNav_EC2/DepthDuration/v2_depth_duration_MTurk/v2_DepthDuration_HTML.html#427,427,1366,625,1366,768,8-30-2022,11-57-34,80,depth_duration_stimuli/000109_2014-05-14_23-41-52_260595134347_rgbf000035-resize_9/000109_2014-05-14_23-41-52_260595134347_rgbf000035-resize_9-target.png,125,1.3545,3,8342,125,meters,jsons/VE125_randls_61.json,1118137,1488860,32,Man
80,648622,DepthScenes,duration_manipulation_targetAtFixation,jsons/VE125_randls_61.json,http://54.235.29.9/FacialAge/BNav_EC2/DepthDuration/v2_depth_duration_MTurk/v2_DepthDuration_HTML.html#427,427,1366,625,1366,768,8-30-2022,11-57-34,81,depth_duration_stimuli/001150_2014-06-17_15-27-34_260595134347_rgbf000108-resize_2/001150_2014-06-17_15-27-34_260595134347_rgbf000108-resize_2-target.png,125,4.0325,6,3228,139,meters,jsons/VE125_randls_61.json,1118137,1488860,32,Man
81,648622,DepthScenes,duration_manipulation_targetAtFixation,jsons/VE125_randls_61.json,http://54.235.29.9/FacialAge/BNav_EC2/DepthDuration/v2_depth_duration_MTurk/v2_DepthDuration_HTML.html#427,427,1366,625,1366,768,8-30-2022,11-57-34,82,depth_duration_stimuli/000665_2014-06-09_20-42-35_260595134347_rgbf000110-resize_1/000665_2014-06-09_20-42-35_260595134347_rgbf000110-resize_1-target.png,125,3.057,5,3599,124,meters,jsons/VE125_randls_61.json,1118137,1488860,32,Man
82,648622,DepthScenes,duration_manipulation_targetAtFixation,jsons/VE125_randls_61.json,http://54.235.29.9/FacialAge/BNav_EC2/DepthDuration/v2_depth_duration_MTurk/v2_DepthDuration_HTML.html#427,427,1366,625,1366,768,8-30-2022,11-57-34,83,depth_duration_stimuli/000522_2014-06-08_13-35-06_260595134347_rgbf000244-resize_1/000522_2014-06-08_13-35-06_260595134347_rgbf000244-resize_1-target.png,125,2.3715,4,3267,127,meters,jsons/VE125_randls_61.json,1118137,1488860,32,Man
83,648622,DepthScenes,duration_manipulation_targetAtFixation,jsons/VE125_randls_61.json,http://54.235.29.9/FacialAge/BNav_EC2/DepthDuration/v2_depth_duration_MTurk/v2_DepthDuration_HTML.html#427,427,1366,625,1366,768,8-30-2022,11-57-34,84,depth_duration_stimuli/002949_2014-06-26_15-57-42_094959634447_rgbf000079-resize_1/002949_2014-06-26_15-57-42_094959634447_rgbf000079-resize_1-target.png,125,1.8915,3,3112,125,meters,jsons/VE125_randls_61.json,1118137,1488860,32,Man
84,648622,DepthScenes,duration_manipulation_targetAtFixation,jsons/VE125_randls_61.json,http://54.235.29.9/FacialAge/BNav_EC2/DepthDuration/v2_depth_duration_MTurk/v2_DepthDuration_HTML.html#427,427,1366,625,1366,768,8-30-2022,11-57-34,85,depth_duration_stimuli/000929_2014-06-09_16-33-19_260595134347_rgbf000139-resize_0/000929_2014-06-09_16-33-19_260595134347_rgbf000139-resize_0-target.png,125,2.8680000000000003,6,4252,114,meters,jsons/VE125_randls_61.json,1118137,1488860,32,Man
85,648622,DepthScenes,duration_manipulation_targetAtFixation,jsons/VE125_randls_61.json,http://54.235.29.9/FacialAge/BNav_EC2/DepthDuration/v2_depth_duration_MTurk/v2_DepthDuration_HTML.html#427,427,1366,625,1366,768,8-30-2022,11-57-34,86,depth_duration_stimuli/000457_2014-06-08_16-52-43_260595134347_rgbf000199-resize_1/000457_2014-06-08_16-52-43_260595134347_rgbf000199-resize_1-target.png,125,3.6489999999999996,4,5098,126,meters,jsons/VE125_randls_61.json,1118137,1488860,32,Man
86,648622,DepthScenes,duration_manipulation_targetAtFixation,jsons/VE125_randls_61.json,http://54.235.29.9/FacialAge/BNav_EC2/DepthDuration/v2_depth_duration_MTurk/v2_DepthDuration_HTML.html#427,427,1366,625,1366,768,8-30-2022,11-57-34,87,depth_duration_stimuli/001555_2014-06-20_17-12-10_260595134347_rgbf000065-resize_4/001555_2014-06-20_17-12-10_260595134347_rgbf000065-resize_4-target.png,125,1.633,2,2696,127,meters,jsons/VE125_randls_61.json,1118137,1488860,32,Man
87,648622,DepthScenes,duration_manipulation_targetAtFixation,jsons/VE125_randls_61.json,http://54.235.29.9/FacialAge/BNav_EC2/DepthDuration/v2_depth_duration_MTurk/v2_DepthDuration_HTML.html#427,427,1366,625,1366,768,8-30-2022,11-57-34,88,depth_duration_stimuli/000103_2014-05-14_22-01-17_260595134347_rgbf000152-resize_5/000103_2014-05-14_22-01-17_260595134347_rgbf000152-resize_5-target.png,125,1.993,3,2055,104,meters,jsons/VE125_randls_61.json,1118137,1488860,32,Man
88,648622,DepthScenes,duration_manipulation_targetAtFixation,jsons/VE125_randls_61.json,http://54.235.29.9/FacialAge/BNav_EC2/DepthDuration/v2_depth_duration_MTurk/v2_DepthDuration_HTML.html#427,427,1366,625,1366,768,8-30-2022,11-57-34,89,depth_duration_stimuli/002989_2014-06-15_12-25-03_094959634447_rgbf000150-resize_3/002989_2014-06-15_12-25-03_094959634447_rgbf000150-resize_3-target.png,125,4.1975,0,2185,127,meters,jsons/VE125_randls_61.json,1118137,1488860,32,Man
89,648622,DepthScenes,duration_manipulation_targetAtFixation,jsons/VE125_randls_61.json,http://54.235.29.9/FacialAge/BNav_EC2/DepthDuration/v2_depth_duration_MTurk/v2_DepthDuration_HTML.html#427,427,1366,625,1366,768,8-30-2022,11-57-34,90,depth_duration_stimuli/000866_2014-06-09_20-45-42_260595134347_rgbf000139-resize_1/000866_2014-06-09_20-45-42_260595134347_rgbf000139-resize_1-target.png,125,3.2155,6,5956,123,meters,jsons/VE125_randls_61.json,1118137,1488860,32,Man
90,648622,DepthScenes,duration_manipulation_targetAtFixation,jsons/VE125_randls_61.json,http://54.235.29.9/FacialAge/BNav_EC2/DepthDuration/v2_depth_duration_MTurk/v2_DepthDuration_HTML.html#427,427,1366,625,1366,768,8-30-2022,11-57-34,91,depth_duration_stimuli/001806_2014-06-26_20-50-20_260595134347_rgbf000091-resize_1/001806_2014-06-26_20-50-20_260595134347_rgbf000091-resize_1-target.png,125,2.7305,4,4275,122,meters,jsons/VE125_randls_61.json,1118137,1488860,32,Man
91,648622,DepthScenes,duration_manipulation_targetAtFixation,jsons/VE125_randls_61.json,http://54.235.29.9/FacialAge/BNav_EC2/DepthDuration/v2_depth_duration_MTurk/v2_DepthDuration_HTML.html#427,427,1366,625,1366,768,8-30-2022,11-57-34,92,depth_duration_stimuli/001617_2014-06-20_11-35-32_260595134347_rgbf000066-resize_1/001617_2014-06-20_11-35-32_260595134347_rgbf000066-resize_1-target.png,125,3.7910000000000004,6,3479,128,meters,jsons/VE125_randls_61.json,1118137,1488860,32,Man
92,648622,DepthScenes,duration_manipulation_targetAtFixation,jsons/VE125_randls_61.json,http://54.235.29.9/FacialAge/BNav_EC2/DepthDuration/v2_depth_duration_MTurk/v2_DepthDuration_HTML.html#427,427,1366,625,1366,768,8-30-2022,11-57-34,93,depth_duration_stimuli/000736_2014-06-08_18-24-15_260595134347_rgbf000206-resize_3/000736_2014-06-08_18-24-15_260595134347_rgbf000206-resize_3-target.png,125,3.515,5,3338,127,meters,jsons/VE125_randls_61.json,1118137,1488860,32,Man
93,648622,DepthScenes,duration_manipulation_targetAtFixation,jsons/VE125_randls_61.json,http://54.235.29.9/FacialAge/BNav_EC2/DepthDuration/v2_depth_duration_MTurk/v2_DepthDuration_HTML.html#427,427,1366,625,1366,768,8-30-2022,11-57-34,94,depth_duration_stimuli/000137_2014-05-20_17-04-49_260595134347_rgbf000120-resize_1/000137_2014-05-20_17-04-49_260595134347_rgbf000120-resize_1-target.png,125,3.786,3,3755,114,meters,jsons/VE125_randls_61.json,1118137,1488860,32,Man
94,648622,DepthScenes,duration_manipulation_targetAtFixation,jsons/VE125_randls_61.json,http://54.235.29.9/FacialAge/BNav_EC2/DepthDuration/v2_depth_duration_MTurk/v2_DepthDuration_HTML.html#427,427,1366,625,1366,768,8-30-2022,11-57-34,95,depth_duration_stimuli/002509_2014-06-24_13-19-22_094959634447_rgbf000077-resize_0/002509_2014-06-24_13-19-22_094959634447_rgbf000077-resize_0-target.png,125,1.3065,6,3787,124,meters,jsons/VE125_randls_61.json,1118137,1488860,32,Man
95,648622,DepthScenes,duration_manipulation_targetAtFixation,jsons/VE125_randls_61.json,http://54.235.29.9/FacialAge/BNav_EC2/DepthDuration/v2_depth_duration_MTurk/v2_DepthDuration_HTML.html#427,427,1366,625,1366,768,8-30-2022,11-57-34,96,depth_duration_stimuli/003338_2014-05-20_11-01-23_094959634447_rgbf000051-resize_6/003338_2014-05-20_11-01-23_094959634447_rgbf000051-resize_6-target.png,125,1.693,4,3916,125,meters,jsons/VE125_randls_61.json,1118137,1488860,32,Man
96,648622,DepthScenes,duration_manipulation_targetAtFixation,jsons/VE125_randls_61.json,http://54.235.29.9/FacialAge/BNav_EC2/DepthDuration/v2_depth_duration_MTurk/v2_DepthDuration_HTML.html#427,427,1366,625,1366,768,8-30-2022,11-57-34,97,depth_duration_stimuli/001417_2014-06-19_16-25-36_260595134347_rgbf000115-resize_5/001417_2014-06-19_16-25-36_260595134347_rgbf000115-resize_5-target.png,125,4.6255,3,2912,114,meters,jsons/VE125_randls_61.json,1118137,1488860,32,Man
97,648622,DepthScenes,duration_manipulation_targetAtFixation,jsons/VE125_randls_61.json,http://54.235.29.9/FacialAge/BNav_EC2/DepthDuration/v2_depth_duration_MTurk/v2_DepthDuration_HTML.html#427,427,1366,625,1366,768,8-30-2022,11-57-34,98,depth_duration_stimuli/003081_2014-06-15_15-19-16_094959634447_rgbf000150-resize_1/003081_2014-06-15_15-19-16_094959634447_rgbf000150-resize_1-target.png,125,3.9125,4,2067,134,meters,jsons/VE125_randls_61.json,1118137,1488860,32,Man
98,648622,DepthScenes,duration_manipulation_targetAtFixation,jsons/VE125_randls_61.json,http://54.235.29.9/FacialAge/BNav_EC2/DepthDuration/v2_depth_duration_MTurk/v2_DepthDuration_HTML.html#427,427,1366,625,1366,768,8-30-2022,11-57-34,99,depth_duration_stimuli/001540_2014-06-20_17-01-05_260595134347_rgbf000086-resize_2/001540_2014-06-20_17-01-05_260595134347_rgbf000086-resize-original.jpg,125,1.459,0,3690,129,meters,jsons/VE125_randls_61.json,1118137,1488860,32,Man
99,648622,DepthScenes,duration_manipulation_targetAtFixation,jsons/VE125_randls_61.json,http://54.235.29.9/FacialAge/BNav_EC2/DepthDuration/v2_depth_duration_MTurk/v2_DepthDuration_HTML.html#427,427,1366,625,1366,768,8-30-2022,11-57-34,100,depth_duration_stimuli/002663_2014-06-13_15-50-26_094959634447_rgbf000075-resize_1/002663_2014-06-13_15-50-26_094959634447_rgbf000075-resize_1-target.png,125,4.7495,7,3268,109,meters,jsons/VE125_randls_61.json,1118137,1488860,32,Man
100,648622,DepthScenes,duration_manipulation_targetAtFixation,jsons/VE125_randls_61.json,http://54.235.29.9/FacialAge/BNav_EC2/DepthDuration/v2_depth_duration_MTurk/v2_DepthDuration_HTML.html#427,427,1366,625,1366,768,8-30-2022,11-57-34,101,depth_duration_stimuli/000409_2014-06-04_19-23-33_260595134347_rgbf000067-resize_0/000409_2014-06-04_19-23-33_260595134347_rgbf000067-resize_0-target.png,125,3.7335,3,5319,134,meters,jsons/VE125_randls_61.json,1118137,1488860,32,Man
101,648622,DepthScenes,duration_manipulation_targetAtFixation,jsons/VE125_randls_61.json,http://54.235.29.9/FacialAge/BNav_EC2/DepthDuration/v2_depth_duration_MTurk/v2_DepthDuration_HTML.html#427,427,1366,625,1366,768,8-30-2022,11-57-34,102,depth_duration_stimuli/002043_2014-06-24_20-29-38_260595134347_rgbf000039-resize_4/002043_2014-06-24_20-29-38_260595134347_rgbf000039-resize_4-target.png,125,2.8435,7,4345,123,meters,jsons/VE125_randls_61.json,1118137,1488860,32,Man
102,648622,DepthScenes,duration_manipulation_targetAtFixation,jsons/VE125_randls_61.json,http://54.235.29.9/FacialAge/BNav_EC2/DepthDuration/v2_depth_duration_MTurk/v2_DepthDuration_HTML.html#427,427,1366,625,1366,768,8-30-2022,11-57-34,103,depth_duration_stimuli/003048_2014-06-15_13-49-43_094959634447_rgbf000150-resize_1/003048_2014-06-15_13-49-43_094959634447_rgbf000150-resize_1-target.png,125,4.0035,8,7528,123,meters,jsons/VE125_randls_61.json,1118137,1488860,32,Man
103,648622,DepthScenes,duration_manipulation_targetAtFixation,jsons/VE125_randls_61.json,http://54.235.29.9/FacialAge/BNav_EC2/DepthDuration/v2_depth_duration_MTurk/v2_DepthDuration_HTML.html#427,427,1366,625,1366,768,8-30-2022,11-57-34,104,depth_duration_stimuli/000414_2014-06-04_19-49-13_260595134347_rgbf000044-resize_0/000414_2014-06-04_19-49-13_260595134347_rgbf000044-resize_0-target.png,125,4.329,4,6254,118,meters,jsons/VE125_randls_61.json,1118137,1488860,32,Man
104,648622,DepthScenes,duration_manipulation_targetAtFixation,jsons/VE125_randls_61.json,http://54.235.29.9/FacialAge/BNav_EC2/DepthDuration/v2_depth_duration_MTurk/v2_DepthDuration_HTML.html#427,427,1366,625,1366,768,8-30-2022,11-57-34,105,depth_duration_stimuli/003129_2014-05-12_10-48-10_094959634447_rgbf000100-resize_0/003129_2014-05-12_10-48-10_094959634447_rgbf000100-resize_0-target.png,125,4.9305,6,4536,115,meters,jsons/VE125_randls_61.json,1118137,1488860,32,Man
105,648622,DepthScenes,duration_manipulation_targetAtFixation,jsons/VE125_randls_61.json,http://54.235.29.9/FacialAge/BNav_EC2/DepthDuration/v2_depth_duration_MTurk/v2_DepthDuration_HTML.html#427,427,1366,625,1366,768,8-30-2022,11-57-34,106,depth_duration_stimuli/002748_2014-06-22_19-07-22_094959634447_rgbf000078-resize_1/002748_2014-06-22_19-07-22_094959634447_rgbf000078-resize_1-target.png,125,4.6705,3,4725,135,meters,jsons/VE125_randls_61.json,1118137,1488860,32,Man
106,648622,DepthScenes,duration_manipulation_targetAtFixation,jsons/VE125_randls_61.json,http://54.235.29.9/FacialAge/BNav_EC2/DepthDuration/v2_depth_duration_MTurk/v2_DepthDuration_HTML.html#427,427,1366,625,1366,768,8-30-2022,11-57-34,107,depth_duration_stimuli/002995_2014-06-15_12-31-26_094959634447_rgbf000150-resize_1/002995_2014-06-15_12-31-26_094959634447_rgbf000150-resize_1-target.png,125,3.8360000000000003,4,3191,130,meters,jsons/VE125_randls_61.json,1118137,1488860,32,Man
107,648622,DepthScenes,duration_manipulation_targetAtFixation,jsons/VE125_randls_61.json,http://54.235.29.9/FacialAge/BNav_EC2/DepthDuration/v2_depth_duration_MTurk/v2_DepthDuration_HTML.html#427,427,1366,625,1366,768,8-30-2022,11-57-34,108,depth_duration_stimuli/000917_2014-06-09_22-45-29_260595134347_rgbf000149-resize_3/000917_2014-06-09_22-45-29_260595134347_rgbf000149-resize_3-target.png,125,4.1865,5,3964,128,meters,jsons/VE125_randls_61.json,1118137,1488860,32,Man
108,648622,DepthScenes,duration_manipulation_targetAtFixation,jsons/VE125_randls_61.json,http://54.235.29.9/FacialAge/BNav_EC2/DepthDuration/v2_depth_duration_MTurk/v2_DepthDuration_HTML.html#427,427,1366,625,1366,768,8-30-2022,11-57-34,109,depth_duration_stimuli/002323_2014-06-28_20-01-54_260595134347_rgbf000051-resize_4/002323_2014-06-28_20-01-54_260595134347_rgbf000051-resize_4-target.png,125,3.7310000000000003,4,3389,123,meters,jsons/VE125_randls_61.json,1118137,1488860,32,Man
109,648622,DepthScenes,duration_manipulation_targetAtFixation,jsons/VE125_randls_61.json,http://54.235.29.9/FacialAge/BNav_EC2/DepthDuration/v2_depth_duration_MTurk/v2_DepthDuration_HTML.html#427,427,1366,625,1366,768,8-30-2022,11-57-34,110,depth_duration_stimuli/000368_2014-06-09_15-53-01_260595134347_rgbf000155-resize_2/000368_2014-06-09_15-53-01_260595134347_rgbf000155-resize_2-target.png,125,2.4859999999999998,5,3085,118,meters,jsons/VE125_randls_61.json,1118137,1488860,32,Man
110,648622,DepthScenes,duration_manipulation_targetAtFixation,jsons/VE125_randls_61.json,http://54.235.29.9/FacialAge/BNav_EC2/DepthDuration/v2_depth_duration_MTurk/v2_DepthDuration_HTML.html#427,427,1366,625,1366,768,8-30-2022,11-57-34,111,depth_duration_stimuli/002678_2014-06-13_16-15-32_094959634447_rgbf000151-resize_6/002678_2014-06-13_16-15-32_094959634447_rgbf000151-resize_6-target.png,125,2.1830000000000003,6,3070,119,meters,jsons/VE125_randls_61.json,1118137,1488860,32,Man
111,648622,DepthScenes,duration_manipulation_targetAtFixation,jsons/VE125_randls_61.json,http://54.235.29.9/FacialAge/BNav_EC2/DepthDuration/v2_depth_duration_MTurk/v2_DepthDuration_HTML.html#427,427,1366,625,1366,768,8-30-2022,11-57-34,112,depth_duration_stimuli/003621_2014-05-23_18-06-08_094959634447_rgbf000101-resize_1/003621_2014-05-23_18-06-08_094959634447_rgbf000101-resize_1-target.png,125,3.9835,7,3372,121,meters,jsons/VE125_randls_61.json,1118137,1488860,32,Man
112,648622,DepthScenes,duration_manipulation_targetAtFixation,jsons/VE125_randls_61.json,http://54.235.29.9/FacialAge/BNav_EC2/DepthDuration/v2_depth_duration_MTurk/v2_DepthDuration_HTML.html#427,427,1366,625,1366,768,8-30-2022,11-57-34,113,depth_duration_stimuli/001584_2014-06-20_11-07-43_260595134347_rgbf000002-resize_1/001584_2014-06-20_11-07-43_260595134347_rgbf000002-resize_1-target.png,125,3.53,6,3453,126,meters,jsons/VE125_randls_61.json,1118137,1488860,32,Man
113,648622,DepthScenes,duration_manipulation_targetAtFixation,jsons/VE125_randls_61.json,http://54.235.29.9/FacialAge/BNav_EC2/DepthDuration/v2_depth_duration_MTurk/v2_DepthDuration_HTML.html#427,427,1366,625,1366,768,8-30-2022,11-57-34,114,depth_duration_stimuli/000878_2014-06-08_22-52-45_260595134347_rgbf000045-resize_2/000878_2014-06-08_22-52-45_260595134347_rgbf000045-resize_2-target.png,125,2.092,3,4122,131,meters,jsons/VE125_randls_61.json,1118137,1488860,32,Man
114,648622,DepthScenes,duration_manipulation_targetAtFixation,jsons/VE125_randls_61.json,http://54.235.29.9/FacialAge/BNav_EC2/DepthDuration/v2_depth_duration_MTurk/v2_DepthDuration_HTML.html#427,427,1366,625,1366,768,8-30-2022,11-57-34,115,depth_duration_stimuli/002953_2014-06-08_17-32-18_094959634447_rgbf000059-resize_5/002953_2014-06-08_17-32-18_094959634447_rgbf000059-resize_5-target.png,125,1.551,6,4767,128,meters,jsons/VE125_randls_61.json,1118137,1488860,32,Man
115,648622,DepthScenes,duration_manipulation_targetAtFixation,jsons/VE125_randls_61.json,http://54.235.29.9/FacialAge/BNav_EC2/DepthDuration/v2_depth_duration_MTurk/v2_DepthDuration_HTML.html#427,427,1366,625,1366,768,8-30-2022,11-57-34,116,depth_duration_stimuli/001170_2014-06-17_15-43-44_260595134347_rgbf000096-resize_6/001170_2014-06-17_15-43-44_260595134347_rgbf000096-resize-original.jpg,125,1.1909999999999998,0,3793,123,meters,jsons/VE125_randls_61.json,1118137,1488860,32,Man
116,648622,DepthScenes,duration_manipulation_targetAtFixation,jsons/VE125_randls_61.json,http://54.235.29.9/FacialAge/BNav_EC2/DepthDuration/v2_depth_duration_MTurk/v2_DepthDuration_HTML.html#427,427,1366,625,1366,768,8-30-2022,11-57-34,117,depth_duration_stimuli/001164_2014-06-17_15-35-46_260595134347_rgbf000085-resize_3/001164_2014-06-17_15-35-46_260595134347_rgbf000085-resize_3-target.png,125,2.354,4,3068,61,meters,jsons/VE125_randls_61.json,1118137,1488860,32,Man
117,648622,DepthScenes,duration_manipulation_targetAtFixation,jsons/VE125_randls_61.json,http://54.235.29.9/FacialAge/BNav_EC2/DepthDuration/v2_depth_duration_MTurk/v2_DepthDuration_HTML.html#427,427,1366,625,1366,768,8-30-2022,11-57-34,118,depth_duration_stimuli/001136_2014-06-17_15-19-41_260595134347_rgbf000076-resize_3/001136_2014-06-17_15-19-41_260595134347_rgbf000076-resize_3-target.png,125,1.8655,6,2882,131,meters,jsons/VE125_randls_61.json,1118137,1488860,32,Man
118,648622,DepthScenes,duration_manipulation_targetAtFixation,jsons/VE125_randls_61.json,http://54.235.29.9/FacialAge/BNav_EC2/DepthDuration/v2_depth_duration_MTurk/v2_DepthDuration_HTML.html#427,427,1366,625,1366,768,8-30-2022,11-57-34,119,depth_duration_stimuli/000009_2014-05-26_14-32-05_260595134347_rgbf000034-resize_3/000009_2014-05-26_14-32-05_260595134347_rgbf000034-resize_3-target.png,125,3.8715,4,4047,117,meters,jsons/VE125_randls_61.json,1118137,1488860,32,Man
119,648622,DepthScenes,duration_manipulation_targetAtFixation,jsons/VE125_randls_61.json,http://54.235.29.9/FacialAge/BNav_EC2/DepthDuration/v2_depth_duration_MTurk/v2_DepthDuration_HTML.html#427,427,1366,625,1366,768,8-30-2022,11-57-34,120,depth_duration_stimuli/001828_2014-06-26_21-40-03_260595134347_rgbf000024-resize_0/001828_2014-06-26_21-40-03_260595134347_rgbf000024-resize_0-target.png,125,4.8260000000000005,6,3430,125,meters,jsons/VE125_randls_61.json,1118137,1488860,32,Man
120,648622,DepthScenes,duration_manipulation_targetAtFixation,jsons/VE125_randls_61.json,http://54.235.29.9/FacialAge/BNav_EC2/DepthDuration/v2_depth_duration_MTurk/v2_DepthDuration_HTML.html#427,427,1366,625,1366,768,8-30-2022,11-57-34,121,depth_duration_stimuli/001133_2014-06-17_14-49-16_260595134347_rgbf000100-resize_0/001133_2014-06-17_14-49-16_260595134347_rgbf000100-resize_0-target.png,125,4.2115,4,2561,125,meters,jsons/VE125_randls_61.json,1118137,1488860,32,Man
121,648622,DepthScenes,duration_manipulation_targetAtFixation,jsons/VE125_randls_61.json,http://54.235.29.9/FacialAge/BNav_EC2/DepthDuration/v2_depth_duration_MTurk/v2_DepthDuration_HTML.html#427,427,1366,625,1366,768,8-30-2022,11-57-34,122,depth_duration_stimuli/001132_2014-06-17_14-48-54_260595134347_rgbf000100-resize_2/001132_2014-06-17_14-48-54_260595134347_rgbf000100-resize_2-target.png,125,3.753,5,2477,125,meters,jsons/VE125_randls_61.json,1118137,1488860,32,Man
122,648622,DepthScenes,duration_manipulation_targetAtFixation,jsons/VE125_randls_61.json,http://54.235.29.9/FacialAge/BNav_EC2/DepthDuration/v2_depth_duration_MTurk/v2_DepthDuration_HTML.html#427,427,1366,625,1366,768,8-30-2022,11-57-34,123,depth_duration_stimuli/003292_2014-05-14_21-53-49_094959634447_rgbf000100-resize_2/003292_2014-05-14_21-53-49_094959634447_rgbf000100-resize_2-target.png,125,3.4815,3,1990,124,meters,jsons/VE125_randls_61.json,1118137,1488860,32,Man
123,648622,DepthScenes,duration_manipulation_targetAtFixation,jsons/VE125_randls_61.json,http://54.235.29.9/FacialAge/BNav_EC2/DepthDuration/v2_depth_duration_MTurk/v2_DepthDuration_HTML.html#427,427,1366,625,1366,768,8-30-2022,11-57-34,124,depth_duration_stimuli/002639_2014-06-24_14-51-37_094959634447_rgbf000074-resize_4/002639_2014-06-24_14-51-37_094959634447_rgbf000074-resize_4-target.png,125,4.0375,6,1760,130,meters,jsons/VE125_randls_61.json,1118137,1488860,32,Man
124,648622,DepthScenes,duration_manipulation_targetAtFixation,jsons/VE125_randls_61.json,http://54.235.29.9/FacialAge/BNav_EC2/DepthDuration/v2_depth_duration_MTurk/v2_DepthDuration_HTML.html#427,427,1366,625,1366,768,8-30-2022,11-57-34,125,depth_duration_stimuli/001167_2014-06-17_15-38-07_260595134347_rgbf000108-resize_0/001167_2014-06-17_15-38-07_260595134347_rgbf000108-resize_0-target.png,125,1.8505,2,3153,123,meters,jsons/VE125_randls_61.json,1118137,1488860,32,Man
125,648622,DepthScenes,duration_manipulation_targetAtFixation,jsons/VE125_randls_61.json,http://54.235.29.9/FacialAge/BNav_EC2/DepthDuration/v2_depth_duration_MTurk/v2_DepthDuration_HTML.html#427,427,1366,625,1366,768,8-30-2022,11-57-34,126,depth_duration_stimuli/003587_2014-05-23_16-48-02_094959634447_rgbf002384-resize_2/003587_2014-05-23_16-48-02_094959634447_rgbf002384-resize_2-target.png,125,1.357,3,2408,118,meters,jsons/VE125_randls_61.json,1118137,1488860,32,Man
126,648622,DepthScenes,duration_manipulation_targetAtFixation,jsons/VE125_randls_61.json,http://54.235.29.9/FacialAge/BNav_EC2/DepthDuration/v2_depth_duration_MTurk/v2_DepthDuration_HTML.html#427,427,1366,625,1366,768,8-30-2022,11-57-34,127,depth_duration_stimuli/001158_2014-06-17_15-32-16_260595134347_rgbf000138-resize_2/001158_2014-06-17_15-32-16_260595134347_rgbf000138-resize_2-target.png,125,4.5315,5,3021,125,meters,jsons/VE125_randls_61.json,1118137,1488860,32,Man
127,648622,DepthScenes,duration_manipulation_targetAtFixation,jsons/VE125_randls_61.json,http://54.235.29.9/FacialAge/BNav_EC2/DepthDuration/v2_depth_duration_MTurk/v2_DepthDuration_HTML.html#427,427,1366,625,1366,768,8-30-2022,11-57-34,128,depth_duration_stimuli/000556_2014-06-09_22-42-56_260595134347_rgbf000214-resize_1/000556_2014-06-09_22-42-56_260595134347_rgbf000214-resize_1-target.png,125,4.8415,4,2654,131,meters,jsons/VE125_randls_61.json,1118137,1488860,32,Man
128,648622,DepthScenes,duration_manipulation_targetAtFixation,jsons/VE125_randls_61.json,http://54.235.29.9/FacialAge/BNav_EC2/DepthDuration/v2_depth_duration_MTurk/v2_DepthDuration_HTML.html#427,427,1366,625,1366,768,8-30-2022,11-57-34,129,depth_duration_stimuli/000469_2014-06-09_19-42-10_260595134347_rgbf000081-resize_1/000469_2014-06-09_19-42-10_260595134347_rgbf000081-resize_1-target.png,125,1.652,5,2032,116,meters,jsons/VE125_randls_61.json,1118137,1488860,32,Man
129,648622,DepthScenes,duration_manipulation_targetAtFixation,jsons/VE125_randls_61.json,http://54.235.29.9/FacialAge/BNav_EC2/DepthDuration/v2_depth_duration_MTurk/v2_DepthDuration_HTML.html#427,427,1366,625,1366,768,8-30-2022,11-57-34,130,depth_duration_stimuli/000483_2014-06-09_20-41-45_260595134347_rgbf000116-resize_4/000483_2014-06-09_20-41-45_260595134347_rgbf000116-resize_4-target.png,125,1.337,3,2379,54,meters,jsons/VE125_randls_61.json,1118137,1488860,32,Man
130,648622,DepthScenes,duration_manipulation_targetAtFixation,jsons/VE125_randls_61.json,http://54.235.29.9/FacialAge/BNav_EC2/DepthDuration/v2_depth_duration_MTurk/v2_DepthDuration_HTML.html#427,427,1366,625,1366,768,8-30-2022,11-57-34,131,depth_duration_stimuli/002272_2014-06-28_18-53-56_260595134347_rgbf000067-resize_2/002272_2014-06-28_18-53-56_260595134347_rgbf000067-resize_2-target.png,125,1.138,6,2909,117,meters,jsons/VE125_randls_61.json,1118137,1488860,32,Man
131,648622,DepthScenes,duration_manipulation_targetAtFixation,jsons/VE125_randls_61.json,http://54.235.29.9/FacialAge/BNav_EC2/DepthDuration/v2_depth_duration_MTurk/v2_DepthDuration_HTML.html#427,427,1366,625,1366,768,8-30-2022,11-57-34,132,depth_duration_stimuli/001571_2014-06-20_17-21-32_260595134347_rgbf000089-resize_1/001571_2014-06-20_17-21-32_260595134347_rgbf000089-resize_1-target.png,125,1.86,5,1807,129,meters,jsons/VE125_randls_61.json,1118137,1488860,32,Man
132,648622,DepthScenes,duration_manipulation_targetAtFixation,jsons/VE125_randls_61.json,http://54.235.29.9/FacialAge/BNav_EC2/DepthDuration/v2_depth_duration_MTurk/v2_DepthDuration_HTML.html#427,427,1366,625,1366,768,8-30-2022,11-57-34,133,depth_duration_stimuli/000906_2014-06-08_13-35-43_260595134347_rgbf000155-resize_1/000906_2014-06-08_13-35-43_260595134347_rgbf000155-resize_1-target.png,125,2.8489999999999998,5,2355,124,meters,jsons/VE125_randls_61.json,1118137,1488860,32,Man
133,648622,DepthScenes,duration_manipulation_targetAtFixation,jsons/VE125_randls_61.json,http://54.235.29.9/FacialAge/BNav_EC2/DepthDuration/v2_depth_duration_MTurk/v2_DepthDuration_HTML.html#427,427,1366,625,1366,768,8-30-2022,11-57-34,134,depth_duration_stimuli/002805_2014-06-22_19-54-03_094959634447_rgbf000079-resize_1/002805_2014-06-22_19-54-03_094959634447_rgbf000079-resize_1-target.png,125,3.1439999999999997,4,2172,117,meters,jsons/VE125_randls_61.json,1118137,1488860,32,Man
134,648622,DepthScenes,duration_manipulation_targetAtFixation,jsons/VE125_randls_61.json,http://54.235.29.9/FacialAge/BNav_EC2/DepthDuration/v2_depth_duration_MTurk/v2_DepthDuration_HTML.html#427,427,1366,625,1366,768,8-30-2022,11-57-34,135,depth_duration_stimuli/002072_2014-06-24_21-48-06_260595134347_rgbf000115-resize_0/002072_2014-06-24_21-48-06_260595134347_rgbf000115-resize-original.jpg,125,4.702,0,3007,122,meters,jsons/VE125_randls_61.json,1118137,1488860,32,Man
135,648622,DepthScenes,duration_manipulation_targetAtFixation,jsons/VE125_randls_61.json,http://54.235.29.9/FacialAge/BNav_EC2/DepthDuration/v2_depth_duration_MTurk/v2_DepthDuration_HTML.html#427,427,1366,625,1366,768,8-30-2022,11-57-34,136,depth_duration_stimuli/001016_2014-06-09_16-16-10_260595134347_rgbf000112-resize_5/001016_2014-06-09_16-16-10_260595134347_rgbf000112-resize_5-target.png,125,1.6565,2,2482,125,meters,jsons/VE125_randls_61.json,1118137,1488860,32,Man
136,648622,DepthScenes,duration_manipulation_targetAtFixation,jsons/VE125_randls_61.json,http://54.235.29.9/FacialAge/BNav_EC2/DepthDuration/v2_depth_duration_MTurk/v2_DepthDuration_HTML.html#427,427,1366,625,1366,768,8-30-2022,11-57-34,137,depth_duration_stimuli/002340_2014-06-28_20-05-46_260595134347_rgbf000113-resize_0/002340_2014-06-28_20-05-46_260595134347_rgbf000113-resize_0-target.png,125,2.4735,3,2478,119,meters,jsons/VE125_randls_61.json,1118137,1488860,32,Man
137,648622,DepthScenes,duration_manipulation_targetAtFixation,jsons/VE125_randls_61.json,http://54.235.29.9/FacialAge/BNav_EC2/DepthDuration/v2_depth_duration_MTurk/v2_DepthDuration_HTML.html#427,427,1366,625,1366,768,8-30-2022,11-57-34,138,depth_duration_stimuli/000810_2014-06-08_17-20-01_260595134347_rgbf000105-resize_0/000810_2014-06-08_17-20-01_260595134347_rgbf000105-resize_0-target.png,125,1.4865,3,2489,123,meters,jsons/VE125_randls_61.json,1118137,1488860,32,Man
138,648622,DepthScenes,duration_manipulation_targetAtFixation,jsons/VE125_randls_61.json,http://54.235.29.9/FacialAge/BNav_EC2/DepthDuration/v2_depth_duration_MTurk/v2_DepthDuration_HTML.html#427,427,1366,625,1366,768,8-30-2022,11-57-34,139,depth_duration_stimuli/001214_2014-06-17_16-13-55_260595134347_rgbf000111-resize_0/001214_2014-06-17_16-13-55_260595134347_rgbf000111-resize_0-target.png,125,2.6505,2,2819,124,meters,jsons/VE125_randls_61.json,1118137,1488860,32,Man
139,648622,DepthScenes,duration_manipulation_targetAtFixation,jsons/VE125_randls_61.json,http://54.235.29.9/FacialAge/BNav_EC2/DepthDuration/v2_depth_duration_MTurk/v2_DepthDuration_HTML.html#427,427,1366,625,1366,768,8-30-2022,11-57-34,140,depth_duration_stimuli/001810_2014-06-26_20-51-35_260595134347_rgbf000040-resize_3/001810_2014-06-26_20-51-35_260595134347_rgbf000040-resize_3-target.png,125,2.2525,4,32772,121,meters,jsons/VE125_randls_61.json,1118137,1488860,32,Man
140,648622,DepthScenes,duration_manipulation_targetAtFixation,jsons/VE125_randls_61.json,http://54.235.29.9/FacialAge/BNav_EC2/DepthDuration/v2_depth_duration_MTurk/v2_DepthDuration_HTML.html#427,427,1366,625,1366,768,8-30-2022,11-57-34,141,depth_duration_stimuli/003010_2014-06-15_12-54-35_094959634447_rgbf000112-resize_0/003010_2014-06-15_12-54-35_094959634447_rgbf000112-resize_0-target.png,125,3.1185,4,2586,125,meters,jsons/VE125_randls_61.json,1118137,1488860,32,Man
141,648622,DepthScenes,duration_manipulation_targetAtFixation,jsons/VE125_randls_61.json,http://54.235.29.9/FacialAge/BNav_EC2/DepthDuration/v2_depth_duration_MTurk/v2_DepthDuration_HTML.html#427,427,1366,625,1366,768,8-30-2022,11-57-34,142,depth_duration_stimuli/001059_2014-06-08_21-53-27_260595134347_rgbf000061-resize_4/001059_2014-06-08_21-53-27_260595134347_rgbf000061-resize_4-target.png,125,2.4185,0,3912,122,meters,jsons/VE125_randls_61.json,1118137,1488860,32,Man
142,648622,DepthScenes,duration_manipulation_targetAtFixation,jsons/VE125_randls_61.json,http://54.235.29.9/FacialAge/BNav_EC2/DepthDuration/v2_depth_duration_MTurk/v2_DepthDuration_HTML.html#427,427,1366,625,1366,768,8-30-2022,11-57-34,143,depth_duration_stimuli/001032_2014-06-08_13-23-17_260595134347_rgbf000021-resize_3/001032_2014-06-08_13-23-17_260595134347_rgbf000021-resize_3-target.png,125,3.2725,3,2843,120,meters,jsons/VE125_randls_61.json,1118137,1488860,32,Man
143,648622,DepthScenes,duration_manipulation_targetAtFixation,jsons/VE125_randls_61.json,http://54.235.29.9/FacialAge/BNav_EC2/DepthDuration/v2_depth_duration_MTurk/v2_DepthDuration_HTML.html#427,427,1366,625,1366,768,8-30-2022,11-57-34,144,depth_duration_stimuli/003070_2014-06-15_14-58-27_094959634447_rgbf000150-resize_3/003070_2014-06-15_14-58-27_094959634447_rgbf000150-resize_3-target.png,125,2.9415,5,2036,125,meters,jsons/VE125_randls_61.json,1118137,1488860,32,Man
144,648622,DepthScenes,duration_manipulation_targetAtFixation,jsons/VE125_randls_61.json,http://54.235.29.9/FacialAge/BNav_EC2/DepthDuration/v2_depth_duration_MTurk/v2_DepthDuration_HTML.html#427,427,1366,625,1366,768,8-30-2022,11-57-34,145,depth_duration_stimuli/000943_2014-06-09_19-31-07_260595134347_rgbf000128-resize_1/000943_2014-06-09_19-31-07_260595134347_rgbf000128-resize_1-target.png,125,1.9765,6,2383,114,meters,jsons/VE125_randls_61.json,1118137,1488860,32,Man
145,648622,DepthScenes,duration_manipulation_targetAtFixation,jsons/VE125_randls_61.json,http://54.235.29.9/FacialAge/BNav_EC2/DepthDuration/v2_depth_duration_MTurk/v2_DepthDuration_HTML.html#427,427,1366,625,1366,768,8-30-2022,11-57-34,146,depth_duration_stimuli/001498_2014-06-19_17-45-14_260595134347_rgbf000129-resize_4/001498_2014-06-19_17-45-14_260595134347_rgbf000129-resize-original.jpg,125,1.4075,0,2275,135,meters,jsons/VE125_randls_61.json,1118137,1488860,32,Man
146,648622,DepthScenes,duration_manipulation_targetAtFixation,jsons/VE125_randls_61.json,http://54.235.29.9/FacialAge/BNav_EC2/DepthDuration/v2_depth_duration_MTurk/v2_DepthDuration_HTML.html#427,427,1366,625,1366,768,8-30-2022,11-57-34,147,depth_duration_stimuli/002964_2014-06-08_17-46-11_094959634447_rgbf000091-resize_4/002964_2014-06-08_17-46-11_094959634447_rgbf000091-resize_4-target.png,125,1.6909999999999998,3,2884,120,meters,jsons/VE125_randls_61.json,1118137,1488860,32,Man
147,648622,DepthScenes,duration_manipulation_targetAtFixation,jsons/VE125_randls_61.json,http://54.235.29.9/FacialAge/BNav_EC2/DepthDuration/v2_depth_duration_MTurk/v2_DepthDuration_HTML.html#427,427,1366,625,1366,768,8-30-2022,11-57-34,148,depth_duration_stimuli/002136_2014-06-25_21-18-03_260595134347_rgbf000109-resize_3/002136_2014-06-25_21-18-03_260595134347_rgbf000109-resize_3-target.png,125,1.9569999999999999,6,2576,123,meters,jsons/VE125_randls_61.json,1118137,1488860,32,Man
148,648622,DepthScenes,duration_manipulation_targetAtFixation,jsons/VE125_randls_61.json,http://54.235.29.9/FacialAge/BNav_EC2/DepthDuration/v2_depth_duration_MTurk/v2_DepthDuration_HTML.html#427,427,1366,625,1366,768,8-30-2022,11-57-34,149,depth_duration_stimuli/002039_2014-06-24_20-22-38_260595134347_rgbf000084-resize_1/002039_2014-06-24_20-22-38_260595134347_rgbf000084-resize_1-target.png,125,4.408,6,3121,125,meters,jsons/VE125_randls_61.json,1118137,1488860,32,Man
149,648622,DepthScenes,duration_manipulation_targetAtFixation,jsons/VE125_randls_61.json,http://54.235.29.9/FacialAge/BNav_EC2/DepthDuration/v2_depth_duration_MTurk/v2_DepthDuration_HTML.html#427,427,1366,625,1366,768,8-30-2022,11-57-34,150,depth_duration_stimuli/002103_2014-06-25_20-00-40_260595134347_rgbf000049-resize_0/002103_2014-06-25_20-00-40_260595134347_rgbf000049-resize_0-target.png,125,4.105,5,2403,123,meters,jsons/VE125_randls_61.json,1118137,1488860,32,Man
150,648622,DepthScenes,duration_manipulation_targetAtFixation,jsons/VE125_randls_61.json,http://54.235.29.9/FacialAge/BNav_EC2/DepthDuration/v2_depth_duration_MTurk/v2_DepthDuration_HTML.html#427,427,1366,625,1366,768,8-30-2022,11-57-34,151,depth_duration_stimuli/001029_2014-06-08_13-17-57_260595134347_rgbf000065-resize_1/001029_2014-06-08_13-17-57_260595134347_rgbf000065-resize_1-target.png,125,3.0835,4,3138,132,meters,jsons/VE125_randls_61.json,1118137,1488860,32,Man
151,648622,DepthScenes,duration_manipulation_targetAtFixation,jsons/VE125_randls_61.json,http://54.235.29.9/FacialAge/BNav_EC2/DepthDuration/v2_depth_duration_MTurk/v2_DepthDuration_HTML.html#427,427,1366,625,1366,768,8-30-2022,11-57-34,152,depth_duration_stimuli/000677_2014-06-08_23-10-32_260595134347_rgbf000158-resize_6/000677_2014-06-08_23-10-32_260595134347_rgbf000158-resize_6-target.png,125,3.556,3,3938,141,meters,jsons/VE125_randls_61.json,1118137,1488860,32,Man
152,648622,DepthScenes,duration_manipulation_targetAtFixation,jsons/VE125_randls_61.json,http://54.235.29.9/FacialAge/BNav_EC2/DepthDuration/v2_depth_duration_MTurk/v2_DepthDuration_HTML.html#427,427,1366,625,1366,768,8-30-2022,11-57-34,153,depth_duration_stimuli/001199_2014-06-17_16-03-48_260595134347_rgbf000077-resize_0/001199_2014-06-17_16-03-48_260595134347_rgbf000077-resize_0-target.png,125,3.4375,4,2569,96,meters,jsons/VE125_randls_61.json,1118137,1488860,32,Man
153,648622,DepthScenes,duration_manipulation_targetAtFixation,jsons/VE125_randls_61.json,http://54.235.29.9/FacialAge/BNav_EC2/DepthDuration/v2_depth_duration_MTurk/v2_DepthDuration_HTML.html#427,427,1366,625,1366,768,8-30-2022,11-57-34,154,depth_duration_stimuli/000502_2014-06-08_23-02-32_260595134347_rgbf000063-resize_4/000502_2014-06-08_23-02-32_260595134347_rgbf000063-resize_4-target.png,125,2.431,5,2448,126,meters,jsons/VE125_randls_61.json,1118137,1488860,32,Man
154,648622,DepthScenes,duration_manipulation_targetAtFixation,jsons/VE125_randls_61.json,http://54.235.29.9/FacialAge/BNav_EC2/DepthDuration/v2_depth_duration_MTurk/v2_DepthDuration_HTML.html#427,427,1366,625,1366,768,8-30-2022,11-57-34,155,depth_duration_stimuli/001092_2014-06-15_17-34-58_260595134347_rgbf000171-resize_3/001092_2014-06-15_17-34-58_260595134347_rgbf000171-resize_3-target.png,125,2.6935,6,2712,114,meters,jsons/VE125_randls_61.json,1118137,1488860,32,Man
155,648622,DepthScenes,duration_manipulation_targetAtFixation,jsons/VE125_randls_61.json,http://54.235.29.9/FacialAge/BNav_EC2/DepthDuration/v2_depth_duration_MTurk/v2_DepthDuration_HTML.html#427,427,1366,625,1366,768,8-30-2022,11-57-34,156,depth_duration_stimuli/002545_2014-06-24_13-38-53_094959634447_rgbf000080-resize_4/002545_2014-06-24_13-38-53_094959634447_rgbf000080-resize_4-target.png,125,1.9205,7,2768,115,meters,jsons/VE125_randls_61.json,1118137,1488860,32,Man
156,648622,DepthScenes,duration_manipulation_targetAtFixation,jsons/VE125_randls_61.json,http://54.235.29.9/FacialAge/BNav_EC2/DepthDuration/v2_depth_duration_MTurk/v2_DepthDuration_HTML.html#427,427,1366,625,1366,768,8-30-2022,11-57-34,157,depth_duration_stimuli/002279_2014-06-28_18-55-32_260595134347_rgbf000040-resize_5/002279_2014-06-28_18-55-32_260595134347_rgbf000040-resize_5-target.png,125,1.5043333333333,6,12379,132,meters,jsons/VE125_randls_61.json,1118137,1488860,32,Man
157,648622,DepthScenes,duration_manipulation_targetAtFixation,jsons/VE125_randls_61.json,http://54.235.29.9/FacialAge/BNav_EC2/DepthDuration/v2_depth_duration_MTurk/v2_DepthDuration_HTML.html#427,427,1366,625,1366,768,8-30-2022,11-57-34,158,depth_duration_stimuli/000635_2014-06-08_16-38-42_260595134347_rgbf000106-resize_1/000635_2014-06-08_16-38-42_260595134347_rgbf000106-resize_1-target.png,125,2.074,0,3869,113,meters,jsons/VE125_randls_61.json,1118137,1488860,32,Man
158,648622,DepthScenes,duration_manipulation_targetAtFixation,jsons/VE125_randls_61.json,http://54.235.29.9/FacialAge/BNav_EC2/DepthDuration/v2_depth_duration_MTurk/v2_DepthDuration_HTML.html#427,427,1366,625,1366,768,8-30-2022,11-57-34,159,depth_duration_stimuli/002153_2014-06-25_21-27-18_260595134347_rgbf000038-resize_5/002153_2014-06-25_21-27-18_260595134347_rgbf000038-resize_5-target.png,125,2.505,2,2316,111,meters,jsons/VE125_randls_61.json,1118137,1488860,32,Man
159,648622,DepthScenes,duration_manipulation_targetAtFixation,jsons/VE125_randls_61.json,http://54.235.29.9/FacialAge/BNav_EC2/DepthDuration/v2_depth_duration_MTurk/v2_DepthDuration_HTML.html#427,427,1366,625,1366,768,8-30-2022,11-57-34,160,depth_duration_stimuli/002660_2014-06-13_15-44-18_094959634447_rgbf001878-resize_2/002660_2014-06-13_15-44-18_094959634447_rgbf001878-resize_2-target.png,125,3.576,4,2365,125,meters,jsons/VE125_randls_61.json,1118137,1488860,32,Man
160,648622,DepthScenes,duration_manipulation_targetAtFixation,jsons/VE125_randls_61.json,http://54.235.29.9/FacialAge/BNav_EC2/DepthDuration/v2_depth_duration_MTurk/v2_DepthDuration_HTML.html#427,427,1366,625,1366,768,8-30-2022,11-57-34,161,depth_duration_stimuli/000493_2014-06-09_21-01-18_260595134347_rgbf000196-resize_3/000493_2014-06-09_21-01-18_260595134347_rgbf000196-resize_3-target.png,125,3.44,5,2591,113,meters,jsons/VE125_randls_61.json,1118137,1488860,32,Man
161,648622,DepthScenes,duration_manipulation_targetAtFixation,jsons/VE125_randls_61.json,http://54.235.29.9/FacialAge/BNav_EC2/DepthDuration/v2_depth_duration_MTurk/v2_DepthDuration_HTML.html#427,427,1366,625,1366,768,8-30-2022,11-57-34,162,depth_duration_stimuli/000191_2014-05-12_17-07-38_260595134347_rgbf000199-resize_0/000191_2014-05-12_17-07-38_260595134347_rgbf000199-resize_0-target.png,125,3.7995,4,2378,137,meters,jsons/VE125_randls_61.json,1118137,1488860,32,Man
162,648622,DepthScenes,duration_manipulation_targetAtFixation,jsons/VE125_randls_61.json,http://54.235.29.9/FacialAge/BNav_EC2/DepthDuration/v2_depth_duration_MTurk/v2_DepthDuration_HTML.html#427,427,1366,625,1366,768,8-30-2022,11-57-34,163,depth_duration_stimuli/000739_2014-06-08_18-45-58_260595134347_rgbf000068-resize_1/000739_2014-06-08_18-45-58_260595134347_rgbf000068-resize_1-target.png,125,3.534,4,1796,119,meters,jsons/VE125_randls_61.json,1118137,1488860,32,Man
163,648622,DepthScenes,duration_manipulation_targetAtFixation,jsons/VE125_randls_61.json,http://54.235.29.9/FacialAge/BNav_EC2/DepthDuration/v2_depth_duration_MTurk/v2_DepthDuration_HTML.html#427,427,1366,625,1366,768,8-30-2022,11-57-34,164,depth_duration_stimuli/000734_2014-06-08_17-39-11_260595134347_rgbf000128-resize_2/000734_2014-06-08_17-39-11_260595134347_rgbf000128-resize_2-target.png,125,4.098,6,2533,134,meters,jsons/VE125_randls_61.json,1118137,1488860,32,Man
