,subjID,experimentName,versionName,sequenceName,url,selected_row,windowWidth,windowHeight,screenWidth,screenHeight,startDate,startTime,trial,stimulus,duration,actual_depth,depth_estimate,trial_RT,log_sceneDuration,unitSelection,seq_filepath,experimentTime,totalTime,age,gender
0,649317,DepthScenes,duration_manipulation_targetAtFixation,jsons/v1_VE250_randls_61.json,http://54.235.29.9/FacialAge/BNav_EC2/DepthDuration/v2_depth_duration_MTurk/v2_DepthDuration_HTML.html#381,381,1600,757,1600,900,0-23-2023,12-28-38,1,depth_duration_stimuli/000447_2014-06-08_16-15-46_260595134347_rgbf000130-resize_1/000447_2014-06-08_16-15-46_260595134347_rgbf000130-resize_1-target.png,250,4.479,3,6685,236,meters,jsons/v1_VE250_randls_61.json,647216,915536,1989,Man
1,649317,DepthScenes,duration_manipulation_targetAtFixation,jsons/v1_VE250_randls_61.json,http://54.235.29.9/FacialAge/BNav_EC2/DepthDuration/v2_depth_duration_MTurk/v2_DepthDuration_HTML.html#381,381,1600,757,1600,900,0-23-2023,12-28-38,2,depth_duration_stimuli/001447_2014-06-19_17-00-32_260595134347_rgbf000082-resize_5/001447_2014-06-19_17-00-32_260595134347_rgbf000082-resize_5-target.png,250,4.13775,5,3586,237,meters,jsons/v1_VE250_randls_61.json,647216,915536,1989,Man
2,649317,DepthScenes,duration_manipulation_targetAtFixation,jsons/v1_VE250_randls_61.json,http://54.235.29.9/FacialAge/BNav_EC2/DepthDuration/v2_depth_duration_MTurk/v2_DepthDuration_HTML.html#381,381,1600,757,1600,900,0-23-2023,12-28-38,3,depth_duration_stimuli/001244_2014-06-17_16-47-45_260595134347_rgbf000030-resize_4/001244_2014-06-17_16-47-45_260595134347_rgbf000030-resize_4-target.png,250,2.0425,3,5493,251,meters,jsons/v1_VE250_randls_61.json,647216,915536,1989,Man
3,649317,DepthScenes,duration_manipulation_targetAtFixation,jsons/v1_VE250_randls_61.json,http://54.235.29.9/FacialAge/BNav_EC2/DepthDuration/v2_depth_duration_MTurk/v2_DepthDuration_HTML.html#381,381,1600,757,1600,900,0-23-2023,12-28-38,4,depth_duration_stimuli/003495_2014-05-21_16-01-51_094959634447_rgbf000100-resize_3/003495_2014-05-21_16-01-51_094959634447_rgbf000100-resize_3-target.png,250,1.6255,3,2357,246,meters,jsons/v1_VE250_randls_61.json,647216,915536,1989,Man
4,649317,DepthScenes,duration_manipulation_targetAtFixation,jsons/v1_VE250_randls_61.json,http://54.235.29.9/FacialAge/BNav_EC2/DepthDuration/v2_depth_duration_MTurk/v2_DepthDuration_HTML.html#381,381,1600,757,1600,900,0-23-2023,12-28-38,5,depth_duration_stimuli/001066_2014-06-08_22-03-20_260595134347_rgbf000066-resize_4/001066_2014-06-08_22-03-20_260595134347_rgbf000066-resize_4-target.png,250,4.2330000000000005,5,5665,236,meters,jsons/v1_VE250_randls_61.json,647216,915536,1989,Man
5,649317,DepthScenes,duration_manipulation_targetAtFixation,jsons/v1_VE250_randls_61.json,http://54.235.29.9/FacialAge/BNav_EC2/DepthDuration/v2_depth_duration_MTurk/v2_DepthDuration_HTML.html#381,381,1600,757,1600,900,0-23-2023,12-28-38,6,depth_duration_stimuli/000742_2014-06-08_18-48-09_260595134347_rgbf000164-resize_4/000742_2014-06-08_18-48-09_260595134347_rgbf000164-resize_4-target.png,250,4.632,3,3269,248,meters,jsons/v1_VE250_randls_61.json,647216,915536,1989,Man
6,649317,DepthScenes,duration_manipulation_targetAtFixation,jsons/v1_VE250_randls_61.json,http://54.235.29.9/FacialAge/BNav_EC2/DepthDuration/v2_depth_duration_MTurk/v2_DepthDuration_HTML.html#381,381,1600,757,1600,900,0-23-2023,12-28-38,7,depth_duration_stimuli/002905_2014-06-03_18-04-43_094959634447_rgbf000151-resize_2/002905_2014-06-03_18-04-43_094959634447_rgbf000151-resize_2-target.png,250,2.0295,1,6462,246,meters,jsons/v1_VE250_randls_61.json,647216,915536,1989,Man
7,649317,DepthScenes,duration_manipulation_targetAtFixation,jsons/v1_VE250_randls_61.json,http://54.235.29.9/FacialAge/BNav_EC2/DepthDuration/v2_depth_duration_MTurk/v2_DepthDuration_HTML.html#381,381,1600,757,1600,900,0-23-2023,12-28-38,8,depth_duration_stimuli/003423_2014-05-21_10-23-26_094959634447_rgbf002665-resize_2/003423_2014-05-21_10-23-26_094959634447_rgbf002665-resize_2-target.png,250,3.2575,5,3246,246,meters,jsons/v1_VE250_randls_61.json,647216,915536,1989,Man
8,649317,DepthScenes,duration_manipulation_targetAtFixation,jsons/v1_VE250_randls_61.json,http://54.235.29.9/FacialAge/BNav_EC2/DepthDuration/v2_depth_duration_MTurk/v2_DepthDuration_HTML.html#381,381,1600,757,1600,900,0-23-2023,12-28-38,9,depth_duration_stimuli/000692_2014-06-08_13-09-42_260595134347_rgbf000199-resize_2/000692_2014-06-08_13-09-42_260595134347_rgbf000199-resize_2-target.png,250,3.661,5,6176,251,meters,jsons/v1_VE250_randls_61.json,647216,915536,1989,Man
9,649317,DepthScenes,duration_manipulation_targetAtFixation,jsons/v1_VE250_randls_61.json,http://54.235.29.9/FacialAge/BNav_EC2/DepthDuration/v2_depth_duration_MTurk/v2_DepthDuration_HTML.html#381,381,1600,757,1600,900,0-23-2023,12-28-38,10,depth_duration_stimuli/001094_2014-06-15_17-36-00_260595134347_rgbf000205-resize_0/001094_2014-06-15_17-36-00_260595134347_rgbf000205-resize_0-target.png,250,4.2175,5,3097,237,meters,jsons/v1_VE250_randls_61.json,647216,915536,1989,Man
10,649317,DepthScenes,duration_manipulation_targetAtFixation,jsons/v1_VE250_randls_61.json,http://54.235.29.9/FacialAge/BNav_EC2/DepthDuration/v2_depth_duration_MTurk/v2_DepthDuration_HTML.html#381,381,1600,757,1600,900,0-23-2023,12-28-38,11,depth_duration_stimuli/002600_2014-06-24_14-27-04_094959634447_rgbf000074-resize_2/002600_2014-06-24_14-27-04_094959634447_rgbf000074-resize_2-target.png,250,2.7575,2,6189,244,meters,jsons/v1_VE250_randls_61.json,647216,915536,1989,Man
11,649317,DepthScenes,duration_manipulation_targetAtFixation,jsons/v1_VE250_randls_61.json,http://54.235.29.9/FacialAge/BNav_EC2/DepthDuration/v2_depth_duration_MTurk/v2_DepthDuration_HTML.html#381,381,1600,757,1600,900,0-23-2023,12-28-38,12,depth_duration_stimuli/003228_2014-05-14_13-42-35_094959634447_rgbf000101-resize_1/003228_2014-05-14_13-42-35_094959634447_rgbf000101-resize_1-target.png,250,1.9680000000000002,5,3168,252,meters,jsons/v1_VE250_randls_61.json,647216,915536,1989,Man
12,649317,DepthScenes,duration_manipulation_targetAtFixation,jsons/v1_VE250_randls_61.json,http://54.235.29.9/FacialAge/BNav_EC2/DepthDuration/v2_depth_duration_MTurk/v2_DepthDuration_HTML.html#381,381,1600,757,1600,900,0-23-2023,12-28-38,13,depth_duration_stimuli/000569_2014-06-09_22-51-47_260595134347_rgbf000141-resize_3/000569_2014-06-09_22-51-47_260595134347_rgbf000141-resize-original.jpg,250,4.512,0,5233,236,meters,jsons/v1_VE250_randls_61.json,647216,915536,1989,Man
13,649317,DepthScenes,duration_manipulation_targetAtFixation,jsons/v1_VE250_randls_61.json,http://54.235.29.9/FacialAge/BNav_EC2/DepthDuration/v2_depth_duration_MTurk/v2_DepthDuration_HTML.html#381,381,1600,757,1600,900,0-23-2023,12-28-38,14,depth_duration_stimuli/001449_2014-06-19_17-01-27_260595134347_rgbf000116-resize_2/001449_2014-06-19_17-01-27_260595134347_rgbf000116-resize_2-target.png,250,3.452,5,6106,252,meters,jsons/v1_VE250_randls_61.json,647216,915536,1989,Man
14,649317,DepthScenes,duration_manipulation_targetAtFixation,jsons/v1_VE250_randls_61.json,http://54.235.29.9/FacialAge/BNav_EC2/DepthDuration/v2_depth_duration_MTurk/v2_DepthDuration_HTML.html#381,381,1600,757,1600,900,0-23-2023,12-28-38,15,depth_duration_stimuli/001450_2014-06-19_17-02-03_260595134347_rgbf000203-resize_4/001450_2014-06-19_17-02-03_260595134347_rgbf000203-resize_4-target.png,250,4.0106666666667,5,3179,249,meters,jsons/v1_VE250_randls_61.json,647216,915536,1989,Man
15,649317,DepthScenes,duration_manipulation_targetAtFixation,jsons/v1_VE250_randls_61.json,http://54.235.29.9/FacialAge/BNav_EC2/DepthDuration/v2_depth_duration_MTurk/v2_DepthDuration_HTML.html#381,381,1600,757,1600,900,0-23-2023,12-28-38,16,depth_duration_stimuli/002725_2014-06-22_11-47-51_094959634447_rgbf000070-resize_1/002725_2014-06-22_11-47-51_094959634447_rgbf000070-resize_1-target.png,250,2.195,5,6490,250,meters,jsons/v1_VE250_randls_61.json,647216,915536,1989,Man
16,649317,DepthScenes,duration_manipulation_targetAtFixation,jsons/v1_VE250_randls_61.json,http://54.235.29.9/FacialAge/BNav_EC2/DepthDuration/v2_depth_duration_MTurk/v2_DepthDuration_HTML.html#381,381,1600,757,1600,900,0-23-2023,12-28-38,17,depth_duration_stimuli/002344_2014-06-28_20-06-29_260595134347_rgbf000030-resize_1/002344_2014-06-28_20-06-29_260595134347_rgbf000030-resize_1-target.png,250,1.5795,5,3554,250,meters,jsons/v1_VE250_randls_61.json,647216,915536,1989,Man
17,649317,DepthScenes,duration_manipulation_targetAtFixation,jsons/v1_VE250_randls_61.json,http://54.235.29.9/FacialAge/BNav_EC2/DepthDuration/v2_depth_duration_MTurk/v2_DepthDuration_HTML.html#381,381,1600,757,1600,900,0-23-2023,12-28-38,18,depth_duration_stimuli/002213_2014-06-28_18-37-58_260595134347_rgbf000055-resize_1/002213_2014-06-28_18-37-58_260595134347_rgbf000055-resize_1-target.png,250,3.62,5,5942,252,meters,jsons/v1_VE250_randls_61.json,647216,915536,1989,Man
18,649317,DepthScenes,duration_manipulation_targetAtFixation,jsons/v1_VE250_randls_61.json,http://54.235.29.9/FacialAge/BNav_EC2/DepthDuration/v2_depth_duration_MTurk/v2_DepthDuration_HTML.html#381,381,1600,757,1600,900,0-23-2023,12-28-38,19,depth_duration_stimuli/000691_2014-06-08_13-08-50_260595134347_rgbf000132-resize_3/000691_2014-06-08_13-08-50_260595134347_rgbf000132-resize_3-target.png,250,4.1530000000000005,5,3000,250,meters,jsons/v1_VE250_randls_61.json,647216,915536,1989,Man
19,649317,DepthScenes,duration_manipulation_targetAtFixation,jsons/v1_VE250_randls_61.json,http://54.235.29.9/FacialAge/BNav_EC2/DepthDuration/v2_depth_duration_MTurk/v2_DepthDuration_HTML.html#381,381,1600,757,1600,900,0-23-2023,12-28-38,20,depth_duration_stimuli/000436_2014-06-09_22-25-11_260595134347_rgbf000137-resize_1/000436_2014-06-09_22-25-11_260595134347_rgbf000137-resize_1-target.png,250,4.0705,5,5627,250,meters,jsons/v1_VE250_randls_61.json,647216,915536,1989,Man
20,649317,DepthScenes,duration_manipulation_targetAtFixation,jsons/v1_VE250_randls_61.json,http://54.235.29.9/FacialAge/BNav_EC2/DepthDuration/v2_depth_duration_MTurk/v2_DepthDuration_HTML.html#381,381,1600,757,1600,900,0-23-2023,12-28-38,21,depth_duration_stimuli/002444_2014-06-28_20-32-08_260595134347_rgbf000027-resize_0/002444_2014-06-28_20-32-08_260595134347_rgbf000027-resize_0-target.png,250,4.388999999999999,5,3997,258,meters,jsons/v1_VE250_randls_61.json,647216,915536,1989,Man
21,649317,DepthScenes,duration_manipulation_targetAtFixation,jsons/v1_VE250_randls_61.json,http://54.235.29.9/FacialAge/BNav_EC2/DepthDuration/v2_depth_duration_MTurk/v2_DepthDuration_HTML.html#381,381,1600,757,1600,900,0-23-2023,12-28-38,22,depth_duration_stimuli/000758_2014-06-08_22-05-08_260595134347_rgbf000085-resize_0/000758_2014-06-08_22-05-08_260595134347_rgbf000085-resize_0-target.png,250,3.3810000000000002,3,18209,250,meters,jsons/v1_VE250_randls_61.json,647216,915536,1989,Man
22,649317,DepthScenes,duration_manipulation_targetAtFixation,jsons/v1_VE250_randls_61.json,http://54.235.29.9/FacialAge/BNav_EC2/DepthDuration/v2_depth_duration_MTurk/v2_DepthDuration_HTML.html#381,381,1600,757,1600,900,0-23-2023,12-28-38,23,depth_duration_stimuli/000854_2014-06-09_19-43-13_260595134347_rgbf000066-resize_0/000854_2014-06-09_19-43-13_260595134347_rgbf000066-resize_0-target.png,250,3.068,3,3116,251,meters,jsons/v1_VE250_randls_61.json,647216,915536,1989,Man
23,649317,DepthScenes,duration_manipulation_targetAtFixation,jsons/v1_VE250_randls_61.json,http://54.235.29.9/FacialAge/BNav_EC2/DepthDuration/v2_depth_duration_MTurk/v2_DepthDuration_HTML.html#381,381,1600,757,1600,900,0-23-2023,12-28-38,24,depth_duration_stimuli/001570_2014-06-20_17-21-09_260595134347_rgbf000135-resize_4/001570_2014-06-20_17-21-09_260595134347_rgbf000135-resize_4-target.png,250,4.467,5,5513,251,meters,jsons/v1_VE250_randls_61.json,647216,915536,1989,Man
24,649317,DepthScenes,duration_manipulation_targetAtFixation,jsons/v1_VE250_randls_61.json,http://54.235.29.9/FacialAge/BNav_EC2/DepthDuration/v2_depth_duration_MTurk/v2_DepthDuration_HTML.html#381,381,1600,757,1600,900,0-23-2023,12-28-38,25,depth_duration_stimuli/001392_2014-06-19_16-07-59_260595134347_rgbf000046-resize_1/001392_2014-06-19_16-07-59_260595134347_rgbf000046-resize_1-target.png,250,4.135,3,3540,248,meters,jsons/v1_VE250_randls_61.json,647216,915536,1989,Man
25,649317,DepthScenes,duration_manipulation_targetAtFixation,jsons/v1_VE250_randls_61.json,http://54.235.29.9/FacialAge/BNav_EC2/DepthDuration/v2_depth_duration_MTurk/v2_DepthDuration_HTML.html#381,381,1600,757,1600,900,0-23-2023,12-28-38,26,depth_duration_stimuli/000682_2014-06-08_23-14-58_260595134347_rgbf000041-resize_5/000682_2014-06-08_23-14-58_260595134347_rgbf000041-resize_5-target.png,250,2.7239999999999998,2,5749,249,meters,jsons/v1_VE250_randls_61.json,647216,915536,1989,Man
26,649317,DepthScenes,duration_manipulation_targetAtFixation,jsons/v1_VE250_randls_61.json,http://54.235.29.9/FacialAge/BNav_EC2/DepthDuration/v2_depth_duration_MTurk/v2_DepthDuration_HTML.html#381,381,1600,757,1600,900,0-23-2023,12-28-38,27,depth_duration_stimuli/001650_2014-06-20_12-09-00_260595134347_rgbf000087-resize_3/001650_2014-06-20_12-09-00_260595134347_rgbf000087-resize_3-target.png,250,1.9505,5,3719,250,meters,jsons/v1_VE250_randls_61.json,647216,915536,1989,Man
27,649317,DepthScenes,duration_manipulation_targetAtFixation,jsons/v1_VE250_randls_61.json,http://54.235.29.9/FacialAge/BNav_EC2/DepthDuration/v2_depth_duration_MTurk/v2_DepthDuration_HTML.html#381,381,1600,757,1600,900,0-23-2023,12-28-38,28,depth_duration_stimuli/001175_2014-06-17_15-45-55_260595134347_rgbf000129-resize_4/001175_2014-06-17_15-45-55_260595134347_rgbf000129-resize_4-target.png,250,4.255,5,5939,249,meters,jsons/v1_VE250_randls_61.json,647216,915536,1989,Man
28,649317,DepthScenes,duration_manipulation_targetAtFixation,jsons/v1_VE250_randls_61.json,http://54.235.29.9/FacialAge/BNav_EC2/DepthDuration/v2_depth_duration_MTurk/v2_DepthDuration_HTML.html#381,381,1600,757,1600,900,0-23-2023,12-28-38,29,depth_duration_stimuli/003490_2014-05-21_15-50-11_094959634447_rgbf000101-resize_3/003490_2014-05-21_15-50-11_094959634447_rgbf000101-resize_3-target.png,250,3.6445,5,4376,239,meters,jsons/v1_VE250_randls_61.json,647216,915536,1989,Man
29,649317,DepthScenes,duration_manipulation_targetAtFixation,jsons/v1_VE250_randls_61.json,http://54.235.29.9/FacialAge/BNav_EC2/DepthDuration/v2_depth_duration_MTurk/v2_DepthDuration_HTML.html#381,381,1600,757,1600,900,0-23-2023,12-28-38,30,depth_duration_stimuli/000375_2014-06-08_11-17-29_260595134347_rgbf000133-resize_2/000375_2014-06-08_11-17-29_260595134347_rgbf000133-resize-original.jpg,250,4.718,0,9072,243,meters,jsons/v1_VE250_randls_61.json,647216,915536,1989,Man
30,649317,DepthScenes,duration_manipulation_targetAtFixation,jsons/v1_VE250_randls_61.json,http://54.235.29.9/FacialAge/BNav_EC2/DepthDuration/v2_depth_duration_MTurk/v2_DepthDuration_HTML.html#381,381,1600,757,1600,900,0-23-2023,12-28-38,31,depth_duration_stimuli/001011_2014-06-08_23-18-54_260595134347_rgbf000044-resize_4/001011_2014-06-08_23-18-54_260595134347_rgbf000044-resize_4-target.png,250,2.4730000000000003,3,7085,248,meters,jsons/v1_VE250_randls_61.json,647216,915536,1989,Man
31,649317,DepthScenes,duration_manipulation_targetAtFixation,jsons/v1_VE250_randls_61.json,http://54.235.29.9/FacialAge/BNav_EC2/DepthDuration/v2_depth_duration_MTurk/v2_DepthDuration_HTML.html#381,381,1600,757,1600,900,0-23-2023,12-28-38,32,depth_duration_stimuli/002875_2014-06-01_15-19-00_094959634447_rgbf000151-resize_1/002875_2014-06-01_15-19-00_094959634447_rgbf000151-resize_1-target.png,250,1.9675,5,5164,251,meters,jsons/v1_VE250_randls_61.json,647216,915536,1989,Man
32,649317,DepthScenes,duration_manipulation_targetAtFixation,jsons/v1_VE250_randls_61.json,http://54.235.29.9/FacialAge/BNav_EC2/DepthDuration/v2_depth_duration_MTurk/v2_DepthDuration_HTML.html#381,381,1600,757,1600,900,0-23-2023,12-28-38,33,depth_duration_stimuli/002988_2014-06-15_12-24-20_094959634447_rgbf000150-resize_1/002988_2014-06-15_12-24-20_094959634447_rgbf000150-resize_1-target.png,250,4.7669999999999995,5,7725,250,meters,jsons/v1_VE250_randls_61.json,647216,915536,1989,Man
33,649317,DepthScenes,duration_manipulation_targetAtFixation,jsons/v1_VE250_randls_61.json,http://54.235.29.9/FacialAge/BNav_EC2/DepthDuration/v2_depth_duration_MTurk/v2_DepthDuration_HTML.html#381,381,1600,757,1600,900,0-23-2023,12-28-38,34,depth_duration_stimuli/001052_2014-06-08_18-24-54_260595134347_rgbf000130-resize_1/001052_2014-06-08_18-24-54_260595134347_rgbf000130-resize_1-target.png,250,4.1045,5,3889,250,meters,jsons/v1_VE250_randls_61.json,647216,915536,1989,Man
34,649317,DepthScenes,duration_manipulation_targetAtFixation,jsons/v1_VE250_randls_61.json,http://54.235.29.9/FacialAge/BNav_EC2/DepthDuration/v2_depth_duration_MTurk/v2_DepthDuration_HTML.html#381,381,1600,757,1600,900,0-23-2023,12-28-38,35,depth_duration_stimuli/002549_2014-06-24_13-41-39_094959634447_rgbf000022-resize_3/002549_2014-06-24_13-41-39_094959634447_rgbf000022-resize_3-target.png,250,1.476,2,6020,239,meters,jsons/v1_VE250_randls_61.json,647216,915536,1989,Man
35,649317,DepthScenes,duration_manipulation_targetAtFixation,jsons/v1_VE250_randls_61.json,http://54.235.29.9/FacialAge/BNav_EC2/DepthDuration/v2_depth_duration_MTurk/v2_DepthDuration_HTML.html#381,381,1600,757,1600,900,0-23-2023,12-28-38,36,depth_duration_stimuli/002750_2014-06-22_19-08-03_094959634447_rgbf000094-resize_4/002750_2014-06-22_19-08-03_094959634447_rgbf000094-resize_4-target.png,250,2.354,2,3699,249,meters,jsons/v1_VE250_randls_61.json,647216,915536,1989,Man
36,649317,DepthScenes,duration_manipulation_targetAtFixation,jsons/v1_VE250_randls_61.json,http://54.235.29.9/FacialAge/BNav_EC2/DepthDuration/v2_depth_duration_MTurk/v2_DepthDuration_HTML.html#381,381,1600,757,1600,900,0-23-2023,12-28-38,37,depth_duration_stimuli/002118_2014-06-25_20-32-08_260595134347_rgbf000078-resize_1/002118_2014-06-25_20-32-08_260595134347_rgbf000078-resize_1-target.png,250,2.6460000000000004,2,5501,240,meters,jsons/v1_VE250_randls_61.json,647216,915536,1989,Man
37,649317,DepthScenes,duration_manipulation_targetAtFixation,jsons/v1_VE250_randls_61.json,http://54.235.29.9/FacialAge/BNav_EC2/DepthDuration/v2_depth_duration_MTurk/v2_DepthDuration_HTML.html#381,381,1600,757,1600,900,0-23-2023,12-28-38,38,depth_duration_stimuli/001516_2014-06-20_16-25-09_260595134347_rgbf000076-resize_2/001516_2014-06-20_16-25-09_260595134347_rgbf000076-resize_2-target.png,250,1.7445,5,2981,240,meters,jsons/v1_VE250_randls_61.json,647216,915536,1989,Man
38,649317,DepthScenes,duration_manipulation_targetAtFixation,jsons/v1_VE250_randls_61.json,http://54.235.29.9/FacialAge/BNav_EC2/DepthDuration/v2_depth_duration_MTurk/v2_DepthDuration_HTML.html#381,381,1600,757,1600,900,0-23-2023,12-28-38,39,depth_duration_stimuli/002788_2014-06-22_19-36-03_094959634447_rgbf000088-resize_2/002788_2014-06-22_19-36-03_094959634447_rgbf000088-resize_2-target.png,250,1.6465,3,5268,248,meters,jsons/v1_VE250_randls_61.json,647216,915536,1989,Man
39,649317,DepthScenes,duration_manipulation_targetAtFixation,jsons/v1_VE250_randls_61.json,http://54.235.29.9/FacialAge/BNav_EC2/DepthDuration/v2_depth_duration_MTurk/v2_DepthDuration_HTML.html#381,381,1600,757,1600,900,0-23-2023,12-28-38,40,depth_duration_stimuli/000749_2014-06-08_21-55-06_260595134347_rgbf000070-resize_2/000749_2014-06-08_21-55-06_260595134347_rgbf000070-resize_2-target.png,250,2.331,2,3443,246,meters,jsons/v1_VE250_randls_61.json,647216,915536,1989,Man
40,649317,DepthScenes,duration_manipulation_targetAtFixation,jsons/v1_VE250_randls_61.json,http://54.235.29.9/FacialAge/BNav_EC2/DepthDuration/v2_depth_duration_MTurk/v2_DepthDuration_HTML.html#381,381,1600,757,1600,900,0-23-2023,12-28-38,41,depth_duration_stimuli/002445_2014-06-28_20-32-16_260595134347_rgbf000029-resize_4/002445_2014-06-28_20-32-16_260595134347_rgbf000029-resize_4-target.png,250,2.5315,3,5235,245,meters,jsons/v1_VE250_randls_61.json,647216,915536,1989,Man
41,649317,DepthScenes,duration_manipulation_targetAtFixation,jsons/v1_VE250_randls_61.json,http://54.235.29.9/FacialAge/BNav_EC2/DepthDuration/v2_depth_duration_MTurk/v2_DepthDuration_HTML.html#381,381,1600,757,1600,900,0-23-2023,12-28-38,42,depth_duration_stimuli/000780_2014-06-08_22-28-29_260595134347_rgbf000126-resize_1/000780_2014-06-08_22-28-29_260595134347_rgbf000126-resize_1-target.png,250,3.3825,5,2981,248,meters,jsons/v1_VE250_randls_61.json,647216,915536,1989,Man
42,649317,DepthScenes,duration_manipulation_targetAtFixation,jsons/v1_VE250_randls_61.json,http://54.235.29.9/FacialAge/BNav_EC2/DepthDuration/v2_depth_duration_MTurk/v2_DepthDuration_HTML.html#381,381,1600,757,1600,900,0-23-2023,12-28-38,43,depth_duration_stimuli/001055_2014-06-08_18-45-35_260595134347_rgbf000111-resize_4/001055_2014-06-08_18-45-35_260595134347_rgbf000111-resize_4-target.png,250,2.4290000000000003,5,4824,250,meters,jsons/v1_VE250_randls_61.json,647216,915536,1989,Man
43,649317,DepthScenes,duration_manipulation_targetAtFixation,jsons/v1_VE250_randls_61.json,http://54.235.29.9/FacialAge/BNav_EC2/DepthDuration/v2_depth_duration_MTurk/v2_DepthDuration_HTML.html#381,381,1600,757,1600,900,0-23-2023,12-28-38,44,depth_duration_stimuli/000549_2014-06-08_22-10-24_260595134347_rgbf000247-resize_3/000549_2014-06-08_22-10-24_260595134347_rgbf000247-resize_3-target.png,250,1.841,5,2607,249,meters,jsons/v1_VE250_randls_61.json,647216,915536,1989,Man
44,649317,DepthScenes,duration_manipulation_targetAtFixation,jsons/v1_VE250_randls_61.json,http://54.235.29.9/FacialAge/BNav_EC2/DepthDuration/v2_depth_duration_MTurk/v2_DepthDuration_HTML.html#381,381,1600,757,1600,900,0-23-2023,12-28-38,45,depth_duration_stimuli/000787_2014-06-08_22-33-53_260595134347_rgbf000175-resize_1/000787_2014-06-08_22-33-53_260595134347_rgbf000175-resize-original.jpg,250,4.784,0,5387,249,meters,jsons/v1_VE250_randls_61.json,647216,915536,1989,Man
45,649317,DepthScenes,duration_manipulation_targetAtFixation,jsons/v1_VE250_randls_61.json,http://54.235.29.9/FacialAge/BNav_EC2/DepthDuration/v2_depth_duration_MTurk/v2_DepthDuration_HTML.html#381,381,1600,757,1600,900,0-23-2023,12-28-38,46,depth_duration_stimuli/002570_2014-06-24_13-59-54_094959634447_rgbf000059-resize_0/002570_2014-06-24_13-59-54_094959634447_rgbf000059-resize_0-target.png,250,4.037,3,5033,249,meters,jsons/v1_VE250_randls_61.json,647216,915536,1989,Man
46,649317,DepthScenes,duration_manipulation_targetAtFixation,jsons/v1_VE250_randls_61.json,http://54.235.29.9/FacialAge/BNav_EC2/DepthDuration/v2_depth_duration_MTurk/v2_DepthDuration_HTML.html#381,381,1600,757,1600,900,0-23-2023,12-28-38,47,depth_duration_stimuli/002467_2014-06-28_20-38-07_260595134347_rgbf000026-resize_2/002467_2014-06-28_20-38-07_260595134347_rgbf000026-resize_2-target.png,250,4.742,5,2910,241,meters,jsons/v1_VE250_randls_61.json,647216,915536,1989,Man
47,649317,DepthScenes,duration_manipulation_targetAtFixation,jsons/v1_VE250_randls_61.json,http://54.235.29.9/FacialAge/BNav_EC2/DepthDuration/v2_depth_duration_MTurk/v2_DepthDuration_HTML.html#381,381,1600,757,1600,900,0-23-2023,12-28-38,48,depth_duration_stimuli/003534_2014-05-22_15-06-10_094959634447_rgbf000102-resize_4/003534_2014-05-22_15-06-10_094959634447_rgbf000102-resize_4-target.png,250,1.426,3,6871,249,meters,jsons/v1_VE250_randls_61.json,647216,915536,1989,Man
48,649317,DepthScenes,duration_manipulation_targetAtFixation,jsons/v1_VE250_randls_61.json,http://54.235.29.9/FacialAge/BNav_EC2/DepthDuration/v2_depth_duration_MTurk/v2_DepthDuration_HTML.html#381,381,1600,757,1600,900,0-23-2023,12-28-38,49,depth_duration_stimuli/002637_2014-06-24_14-51-13_094959634447_rgbf000066-resize_4/002637_2014-06-24_14-51-13_094959634447_rgbf000066-resize_4-target.png,250,1.9955,2,2889,237,meters,jsons/v1_VE250_randls_61.json,647216,915536,1989,Man
49,649317,DepthScenes,duration_manipulation_targetAtFixation,jsons/v1_VE250_randls_61.json,http://54.235.29.9/FacialAge/BNav_EC2/DepthDuration/v2_depth_duration_MTurk/v2_DepthDuration_HTML.html#381,381,1600,757,1600,900,0-23-2023,12-28-38,50,depth_duration_stimuli/000486_2014-06-09_20-47-20_260595134347_rgbf000143-resize_2/000486_2014-06-09_20-47-20_260595134347_rgbf000143-resize_2-target.png,250,4.8325,4,5406,259,meters,jsons/v1_VE250_randls_61.json,647216,915536,1989,Man
50,649317,DepthScenes,duration_manipulation_targetAtFixation,jsons/v1_VE250_randls_61.json,http://54.235.29.9/FacialAge/BNav_EC2/DepthDuration/v2_depth_duration_MTurk/v2_DepthDuration_HTML.html#381,381,1600,757,1600,900,0-23-2023,12-28-38,51,depth_duration_stimuli/003083_2014-06-15_15-21-03_094959634447_rgbf000063-resize_1/003083_2014-06-15_15-21-03_094959634447_rgbf000063-resize_1-target.png,250,4.1405,5,2913,251,meters,jsons/v1_VE250_randls_61.json,647216,915536,1989,Man
51,649317,DepthScenes,duration_manipulation_targetAtFixation,jsons/v1_VE250_randls_61.json,http://54.235.29.9/FacialAge/BNav_EC2/DepthDuration/v2_depth_duration_MTurk/v2_DepthDuration_HTML.html#381,381,1600,757,1600,900,0-23-2023,12-28-38,52,depth_duration_stimuli/000773_2014-06-08_22-24-54_260595134347_rgbf000093-resize_1/000773_2014-06-08_22-24-54_260595134347_rgbf000093-resize_1-target.png,250,4.973,5,4835,250,meters,jsons/v1_VE250_randls_61.json,647216,915536,1989,Man
52,649317,DepthScenes,duration_manipulation_targetAtFixation,jsons/v1_VE250_randls_61.json,http://54.235.29.9/FacialAge/BNav_EC2/DepthDuration/v2_depth_duration_MTurk/v2_DepthDuration_HTML.html#381,381,1600,757,1600,900,0-23-2023,12-28-38,53,depth_duration_stimuli/002414_2014-06-28_20-24-58_260595134347_rgbf000067-resize_4/002414_2014-06-28_20-24-58_260595134347_rgbf000067-resize_4-target.png,250,4.363,3,4260,247,meters,jsons/v1_VE250_randls_61.json,647216,915536,1989,Man
53,649317,DepthScenes,duration_manipulation_targetAtFixation,jsons/v1_VE250_randls_61.json,http://54.235.29.9/FacialAge/BNav_EC2/DepthDuration/v2_depth_duration_MTurk/v2_DepthDuration_HTML.html#381,381,1600,757,1600,900,0-23-2023,12-28-38,54,depth_duration_stimuli/000506_2014-06-08_23-21-00_260595134347_rgbf000070-resize_7/000506_2014-06-08_23-21-00_260595134347_rgbf000070-resize_7-target.png,250,4.0585,5,4502,248,meters,jsons/v1_VE250_randls_61.json,647216,915536,1989,Man
54,649317,DepthScenes,duration_manipulation_targetAtFixation,jsons/v1_VE250_randls_61.json,http://54.235.29.9/FacialAge/BNav_EC2/DepthDuration/v2_depth_duration_MTurk/v2_DepthDuration_HTML.html#381,381,1600,757,1600,900,0-23-2023,12-28-38,55,depth_duration_stimuli/003079_2014-06-15_15-18-20_094959634447_rgbf000152-resize_8/003079_2014-06-15_15-18-20_094959634447_rgbf000152-resize_8-target.png,250,2.8775,5,2846,250,meters,jsons/v1_VE250_randls_61.json,647216,915536,1989,Man
55,649317,DepthScenes,duration_manipulation_targetAtFixation,jsons/v1_VE250_randls_61.json,http://54.235.29.9/FacialAge/BNav_EC2/DepthDuration/v2_depth_duration_MTurk/v2_DepthDuration_HTML.html#381,381,1600,757,1600,900,0-23-2023,12-28-38,56,depth_duration_stimuli/000642_2014-06-08_16-59-25_260595134347_rgbf000098-resize_2/000642_2014-06-08_16-59-25_260595134347_rgbf000098-resize_2-target.png,250,2.8815,2,3838,249,meters,jsons/v1_VE250_randls_61.json,647216,915536,1989,Man
56,649317,DepthScenes,duration_manipulation_targetAtFixation,jsons/v1_VE250_randls_61.json,http://54.235.29.9/FacialAge/BNav_EC2/DepthDuration/v2_depth_duration_MTurk/v2_DepthDuration_HTML.html#381,381,1600,757,1600,900,0-23-2023,12-28-38,57,depth_duration_stimuli/002425_2014-06-28_20-27-29_260595134347_rgbf000031-resize_8/002425_2014-06-28_20-27-29_260595134347_rgbf000031-resize_8-target.png,250,3.8960000000000004,5,2376,234,meters,jsons/v1_VE250_randls_61.json,647216,915536,1989,Man
57,649317,DepthScenes,duration_manipulation_targetAtFixation,jsons/v1_VE250_randls_61.json,http://54.235.29.9/FacialAge/BNav_EC2/DepthDuration/v2_depth_duration_MTurk/v2_DepthDuration_HTML.html#381,381,1600,757,1600,900,0-23-2023,12-28-38,58,depth_duration_stimuli/001110_2014-06-15_17-25-28_260595134347_rgbf000150-resize_1/001110_2014-06-15_17-25-28_260595134347_rgbf000150-resize_1-target.png,250,1.7115,2,3510,250,meters,jsons/v1_VE250_randls_61.json,647216,915536,1989,Man
58,649317,DepthScenes,duration_manipulation_targetAtFixation,jsons/v1_VE250_randls_61.json,http://54.235.29.9/FacialAge/BNav_EC2/DepthDuration/v2_depth_duration_MTurk/v2_DepthDuration_HTML.html#381,381,1600,757,1600,900,0-23-2023,12-28-38,59,depth_duration_stimuli/000927_2014-06-09_16-32-30_260595134347_rgbf000123-resize_3/000927_2014-06-09_16-32-30_260595134347_rgbf000123-resize_3-target.png,250,2.6785,5,2277,248,meters,jsons/v1_VE250_randls_61.json,647216,915536,1989,Man
59,649317,DepthScenes,duration_manipulation_targetAtFixation,jsons/v1_VE250_randls_61.json,http://54.235.29.9/FacialAge/BNav_EC2/DepthDuration/v2_depth_duration_MTurk/v2_DepthDuration_HTML.html#381,381,1600,757,1600,900,0-23-2023,12-28-38,60,depth_duration_stimuli/001056_2014-06-08_18-46-44_260595134347_rgbf000068-resize_0/001056_2014-06-08_18-46-44_260595134347_rgbf000068-resize_0-target.png,250,2.6625,1,3944,235,meters,jsons/v1_VE250_randls_61.json,647216,915536,1989,Man
60,649317,DepthScenes,duration_manipulation_targetAtFixation,jsons/v1_VE250_randls_61.json,http://54.235.29.9/FacialAge/BNav_EC2/DepthDuration/v2_depth_duration_MTurk/v2_DepthDuration_HTML.html#381,381,1600,757,1600,900,0-23-2023,12-28-38,61,depth_duration_stimuli/002199_2014-06-28_18-33-56_260595134347_rgbf000074-resize_0/002199_2014-06-28_18-33-56_260595134347_rgbf000074-resize_0-target.png,250,1.996,2,2501,248,meters,jsons/v1_VE250_randls_61.json,647216,915536,1989,Man
61,649317,DepthScenes,duration_manipulation_targetAtFixation,jsons/v1_VE250_randls_61.json,http://54.235.29.9/FacialAge/BNav_EC2/DepthDuration/v2_depth_duration_MTurk/v2_DepthDuration_HTML.html#381,381,1600,757,1600,900,0-23-2023,12-28-38,62,depth_duration_stimuli/002057_2014-06-24_21-00-13_260595134347_rgbf000120-resize_1/002057_2014-06-24_21-00-13_260595134347_rgbf000120-resize_1-target.png,250,2.967,5,3509,260,meters,jsons/v1_VE250_randls_61.json,647216,915536,1989,Man
62,649317,DepthScenes,duration_manipulation_targetAtFixation,jsons/v1_VE250_randls_61.json,http://54.235.29.9/FacialAge/BNav_EC2/DepthDuration/v2_depth_duration_MTurk/v2_DepthDuration_HTML.html#381,381,1600,757,1600,900,0-23-2023,12-28-38,63,depth_duration_stimuli/000709_2014-06-08_13-51-55_260595134347_rgbf000068-resize_3/000709_2014-06-08_13-51-55_260595134347_rgbf000068-resize_3-target.png,250,1.8030000000000002,5,2525,249,meters,jsons/v1_VE250_randls_61.json,647216,915536,1989,Man
63,649317,DepthScenes,duration_manipulation_targetAtFixation,jsons/v1_VE250_randls_61.json,http://54.235.29.9/FacialAge/BNav_EC2/DepthDuration/v2_depth_duration_MTurk/v2_DepthDuration_HTML.html#381,381,1600,757,1600,900,0-23-2023,12-28-38,64,depth_duration_stimuli/002784_2014-06-22_19-26-30_094959634447_rgbf000083-resize_3/002784_2014-06-22_19-26-30_094959634447_rgbf000083-resize_3-target.png,250,1.8046666666667,2,4700,250,meters,jsons/v1_VE250_randls_61.json,647216,915536,1989,Man
64,649317,DepthScenes,duration_manipulation_targetAtFixation,jsons/v1_VE250_randls_61.json,http://54.235.29.9/FacialAge/BNav_EC2/DepthDuration/v2_depth_duration_MTurk/v2_DepthDuration_HTML.html#381,381,1600,757,1600,900,0-23-2023,12-28-38,65,depth_duration_stimuli/001100_2014-06-15_17-46-26_260595134347_rgbf000225-resize_2/001100_2014-06-15_17-46-26_260595134347_rgbf000225-resize_2-target.png,250,2.24,5,3323,234,meters,jsons/v1_VE250_randls_61.json,647216,915536,1989,Man
65,649317,DepthScenes,duration_manipulation_targetAtFixation,jsons/v1_VE250_randls_61.json,http://54.235.29.9/FacialAge/BNav_EC2/DepthDuration/v2_depth_duration_MTurk/v2_DepthDuration_HTML.html#381,381,1600,757,1600,900,0-23-2023,12-28-38,66,depth_duration_stimuli/001222_2014-06-17_16-24-06_260595134347_rgbf000073-resize_0/001222_2014-06-17_16-24-06_260595134347_rgbf000073-resize-original.jpg,250,1.4385,0,5063,234,meters,jsons/v1_VE250_randls_61.json,647216,915536,1989,Man
66,649317,DepthScenes,duration_manipulation_targetAtFixation,jsons/v1_VE250_randls_61.json,http://54.235.29.9/FacialAge/BNav_EC2/DepthDuration/v2_depth_duration_MTurk/v2_DepthDuration_HTML.html#381,381,1600,757,1600,900,0-23-2023,12-28-38,67,depth_duration_stimuli/002630_2014-06-24_14-47-50_094959634447_rgbf000055-resize_1/002630_2014-06-24_14-47-50_094959634447_rgbf000055-resize_1-target.png,250,3.0095,5,3774,248,meters,jsons/v1_VE250_randls_61.json,647216,915536,1989,Man
67,649317,DepthScenes,duration_manipulation_targetAtFixation,jsons/v1_VE250_randls_61.json,http://54.235.29.9/FacialAge/BNav_EC2/DepthDuration/v2_depth_duration_MTurk/v2_DepthDuration_HTML.html#381,381,1600,757,1600,900,0-23-2023,12-28-38,68,depth_duration_stimuli/002758_2014-06-22_19-11-20_094959634447_rgbf000128-resize_1/002758_2014-06-22_19-11-20_094959634447_rgbf000128-resize_1-target.png,250,2.555,12,2762,249,meters,jsons/v1_VE250_randls_61.json,647216,915536,1989,Man
68,649317,DepthScenes,duration_manipulation_targetAtFixation,jsons/v1_VE250_randls_61.json,http://54.235.29.9/FacialAge/BNav_EC2/DepthDuration/v2_depth_duration_MTurk/v2_DepthDuration_HTML.html#381,381,1600,757,1600,900,0-23-2023,12-28-38,69,depth_duration_stimuli/002375_2014-06-28_20-13-44_260595134347_rgbf000032-resize_1/002375_2014-06-28_20-13-44_260595134347_rgbf000032-resize_1-target.png,250,4.0175,5,4230,249,meters,jsons/v1_VE250_randls_61.json,647216,915536,1989,Man
69,649317,DepthScenes,duration_manipulation_targetAtFixation,jsons/v1_VE250_randls_61.json,http://54.235.29.9/FacialAge/BNav_EC2/DepthDuration/v2_depth_duration_MTurk/v2_DepthDuration_HTML.html#381,381,1600,757,1600,900,0-23-2023,12-28-38,70,depth_duration_stimuli/002657_2014-06-13_15-29-54_094959634447_rgbf000150-resize_1/002657_2014-06-13_15-29-54_094959634447_rgbf000150-resize_1-target.png,250,4.919,2,2971,250,meters,jsons/v1_VE250_randls_61.json,647216,915536,1989,Man
70,649317,DepthScenes,duration_manipulation_targetAtFixation,jsons/v1_VE250_randls_61.json,http://54.235.29.9/FacialAge/BNav_EC2/DepthDuration/v2_depth_duration_MTurk/v2_DepthDuration_HTML.html#381,381,1600,757,1600,900,0-23-2023,12-28-38,71,depth_duration_stimuli/003492_2014-05-21_15-50-55_094959634447_rgbf000828-resize_1/003492_2014-05-21_15-50-55_094959634447_rgbf000828-resize_1-target.png,250,4.06875,5,3311,249,meters,jsons/v1_VE250_randls_61.json,647216,915536,1989,Man
71,649317,DepthScenes,duration_manipulation_targetAtFixation,jsons/v1_VE250_randls_61.json,http://54.235.29.9/FacialAge/BNav_EC2/DepthDuration/v2_depth_duration_MTurk/v2_DepthDuration_HTML.html#381,381,1600,757,1600,900,0-23-2023,12-28-38,72,depth_duration_stimuli/002568_2014-06-24_13-59-21_094959634447_rgbf000062-resize_4/002568_2014-06-24_13-59-21_094959634447_rgbf000062-resize_4-target.png,250,3.015,5,2116,254,meters,jsons/v1_VE250_randls_61.json,647216,915536,1989,Man
72,649317,DepthScenes,duration_manipulation_targetAtFixation,jsons/v1_VE250_randls_61.json,http://54.235.29.9/FacialAge/BNav_EC2/DepthDuration/v2_depth_duration_MTurk/v2_DepthDuration_HTML.html#381,381,1600,757,1600,900,0-23-2023,12-28-38,73,depth_duration_stimuli/002763_2014-06-22_19-13-10_094959634447_rgbf000075-resize_4/002763_2014-06-22_19-13-10_094959634447_rgbf000075-resize_4-target.png,250,1.68375,5,3232,250,meters,jsons/v1_VE250_randls_61.json,647216,915536,1989,Man
73,649317,DepthScenes,duration_manipulation_targetAtFixation,jsons/v1_VE250_randls_61.json,http://54.235.29.9/FacialAge/BNav_EC2/DepthDuration/v2_depth_duration_MTurk/v2_DepthDuration_HTML.html#381,381,1600,757,1600,900,0-23-2023,12-28-38,74,depth_duration_stimuli/002209_2014-06-28_18-36-10_260595134347_rgbf000051-resize_1/002209_2014-06-28_18-36-10_260595134347_rgbf000051-resize_1-target.png,250,2.057,2,2237,260,meters,jsons/v1_VE250_randls_61.json,647216,915536,1989,Man
74,649317,DepthScenes,duration_manipulation_targetAtFixation,jsons/v1_VE250_randls_61.json,http://54.235.29.9/FacialAge/BNav_EC2/DepthDuration/v2_depth_duration_MTurk/v2_DepthDuration_HTML.html#381,381,1600,757,1600,900,0-23-2023,12-28-38,75,depth_duration_stimuli/001808_2014-06-26_20-50-58_260595134347_rgbf000029-resize_1/001808_2014-06-26_20-50-58_260595134347_rgbf000029-resize_1-target.png,250,4.249,5,3428,250,meters,jsons/v1_VE250_randls_61.json,647216,915536,1989,Man
75,649317,DepthScenes,duration_manipulation_targetAtFixation,jsons/v1_VE250_randls_61.json,http://54.235.29.9/FacialAge/BNav_EC2/DepthDuration/v2_depth_duration_MTurk/v2_DepthDuration_HTML.html#381,381,1600,757,1600,900,0-23-2023,12-28-38,76,depth_duration_stimuli/001815_2014-06-26_20-52-55_260595134347_rgbf000020-resize_0/001815_2014-06-26_20-52-55_260595134347_rgbf000020-resize_0-target.png,250,3.3865,5,2635,247,meters,jsons/v1_VE250_randls_61.json,647216,915536,1989,Man
76,649317,DepthScenes,duration_manipulation_targetAtFixation,jsons/v1_VE250_randls_61.json,http://54.235.29.9/FacialAge/BNav_EC2/DepthDuration/v2_depth_duration_MTurk/v2_DepthDuration_HTML.html#381,381,1600,757,1600,900,0-23-2023,12-28-38,77,depth_duration_stimuli/000788_2014-06-08_22-34-36_260595134347_rgbf000131-resize_1/000788_2014-06-08_22-34-36_260595134347_rgbf000131-resize_1-target.png,250,3.359,5,3502,249,meters,jsons/v1_VE250_randls_61.json,647216,915536,1989,Man
77,649317,DepthScenes,duration_manipulation_targetAtFixation,jsons/v1_VE250_randls_61.json,http://54.235.29.9/FacialAge/BNav_EC2/DepthDuration/v2_depth_duration_MTurk/v2_DepthDuration_HTML.html#381,381,1600,757,1600,900,0-23-2023,12-28-38,78,depth_duration_stimuli/001235_2014-06-17_16-37-36_260595134347_rgbf000084-resize_4/001235_2014-06-17_16-37-36_260595134347_rgbf000084-resize_4-target.png,250,3.6605,2,2206,256,meters,jsons/v1_VE250_randls_61.json,647216,915536,1989,Man
78,649317,DepthScenes,duration_manipulation_targetAtFixation,jsons/v1_VE250_randls_61.json,http://54.235.29.9/FacialAge/BNav_EC2/DepthDuration/v2_depth_duration_MTurk/v2_DepthDuration_HTML.html#381,381,1600,757,1600,900,0-23-2023,12-28-38,79,depth_duration_stimuli/000470_2014-06-09_19-42-40_260595134347_rgbf000094-resize_1/000470_2014-06-09_19-42-40_260595134347_rgbf000094-resize_1-target.png,250,1.831,1,3098,235,meters,jsons/v1_VE250_randls_61.json,647216,915536,1989,Man
79,649317,DepthScenes,duration_manipulation_targetAtFixation,jsons/v1_VE250_randls_61.json,http://54.235.29.9/FacialAge/BNav_EC2/DepthDuration/v2_depth_duration_MTurk/v2_DepthDuration_HTML.html#381,381,1600,757,1600,900,0-23-2023,12-28-38,80,depth_duration_stimuli/000109_2014-05-14_23-41-52_260595134347_rgbf000035-resize_9/000109_2014-05-14_23-41-52_260595134347_rgbf000035-resize_9-target.png,250,1.3545,2,2400,241,meters,jsons/v1_VE250_randls_61.json,647216,915536,1989,Man
80,649317,DepthScenes,duration_manipulation_targetAtFixation,jsons/v1_VE250_randls_61.json,http://54.235.29.9/FacialAge/BNav_EC2/DepthDuration/v2_depth_duration_MTurk/v2_DepthDuration_HTML.html#381,381,1600,757,1600,900,0-23-2023,12-28-38,81,depth_duration_stimuli/001150_2014-06-17_15-27-34_260595134347_rgbf000108-resize_2/001150_2014-06-17_15-27-34_260595134347_rgbf000108-resize_2-target.png,250,4.0325,5,3060,249,meters,jsons/v1_VE250_randls_61.json,647216,915536,1989,Man
81,649317,DepthScenes,duration_manipulation_targetAtFixation,jsons/v1_VE250_randls_61.json,http://54.235.29.9/FacialAge/BNav_EC2/DepthDuration/v2_depth_duration_MTurk/v2_DepthDuration_HTML.html#381,381,1600,757,1600,900,0-23-2023,12-28-38,82,depth_duration_stimuli/000665_2014-06-09_20-42-35_260595134347_rgbf000110-resize_1/000665_2014-06-09_20-42-35_260595134347_rgbf000110-resize_1-target.png,250,3.057,5,2202,238,meters,jsons/v1_VE250_randls_61.json,647216,915536,1989,Man
82,649317,DepthScenes,duration_manipulation_targetAtFixation,jsons/v1_VE250_randls_61.json,http://54.235.29.9/FacialAge/BNav_EC2/DepthDuration/v2_depth_duration_MTurk/v2_DepthDuration_HTML.html#381,381,1600,757,1600,900,0-23-2023,12-28-38,83,depth_duration_stimuli/000522_2014-06-08_13-35-06_260595134347_rgbf000244-resize_1/000522_2014-06-08_13-35-06_260595134347_rgbf000244-resize_1-target.png,250,2.3715,2,2884,250,meters,jsons/v1_VE250_randls_61.json,647216,915536,1989,Man
83,649317,DepthScenes,duration_manipulation_targetAtFixation,jsons/v1_VE250_randls_61.json,http://54.235.29.9/FacialAge/BNav_EC2/DepthDuration/v2_depth_duration_MTurk/v2_DepthDuration_HTML.html#381,381,1600,757,1600,900,0-23-2023,12-28-38,84,depth_duration_stimuli/002949_2014-06-26_15-57-42_094959634447_rgbf000079-resize_1/002949_2014-06-26_15-57-42_094959634447_rgbf000079-resize_1-target.png,250,1.8915,5,2086,234,meters,jsons/v1_VE250_randls_61.json,647216,915536,1989,Man
84,649317,DepthScenes,duration_manipulation_targetAtFixation,jsons/v1_VE250_randls_61.json,http://54.235.29.9/FacialAge/BNav_EC2/DepthDuration/v2_depth_duration_MTurk/v2_DepthDuration_HTML.html#381,381,1600,757,1600,900,0-23-2023,12-28-38,85,depth_duration_stimuli/000929_2014-06-09_16-33-19_260595134347_rgbf000139-resize_0/000929_2014-06-09_16-33-19_260595134347_rgbf000139-resize_0-target.png,250,2.8680000000000003,2,2765,252,meters,jsons/v1_VE250_randls_61.json,647216,915536,1989,Man
85,649317,DepthScenes,duration_manipulation_targetAtFixation,jsons/v1_VE250_randls_61.json,http://54.235.29.9/FacialAge/BNav_EC2/DepthDuration/v2_depth_duration_MTurk/v2_DepthDuration_HTML.html#381,381,1600,757,1600,900,0-23-2023,12-28-38,86,depth_duration_stimuli/000457_2014-06-08_16-52-43_260595134347_rgbf000199-resize_1/000457_2014-06-08_16-52-43_260595134347_rgbf000199-resize_1-target.png,250,3.6489999999999996,5,2360,252,meters,jsons/v1_VE250_randls_61.json,647216,915536,1989,Man
86,649317,DepthScenes,duration_manipulation_targetAtFixation,jsons/v1_VE250_randls_61.json,http://54.235.29.9/FacialAge/BNav_EC2/DepthDuration/v2_depth_duration_MTurk/v2_DepthDuration_HTML.html#381,381,1600,757,1600,900,0-23-2023,12-28-38,87,depth_duration_stimuli/001555_2014-06-20_17-12-10_260595134347_rgbf000065-resize_4/001555_2014-06-20_17-12-10_260595134347_rgbf000065-resize_4-target.png,250,1.633,2,3183,250,meters,jsons/v1_VE250_randls_61.json,647216,915536,1989,Man
87,649317,DepthScenes,duration_manipulation_targetAtFixation,jsons/v1_VE250_randls_61.json,http://54.235.29.9/FacialAge/BNav_EC2/DepthDuration/v2_depth_duration_MTurk/v2_DepthDuration_HTML.html#381,381,1600,757,1600,900,0-23-2023,12-28-38,88,depth_duration_stimuli/000103_2014-05-14_22-01-17_260595134347_rgbf000152-resize_5/000103_2014-05-14_22-01-17_260595134347_rgbf000152-resize_5-target.png,250,1.993,5,1946,235,meters,jsons/v1_VE250_randls_61.json,647216,915536,1989,Man
88,649317,DepthScenes,duration_manipulation_targetAtFixation,jsons/v1_VE250_randls_61.json,http://54.235.29.9/FacialAge/BNav_EC2/DepthDuration/v2_depth_duration_MTurk/v2_DepthDuration_HTML.html#381,381,1600,757,1600,900,0-23-2023,12-28-38,89,depth_duration_stimuli/002989_2014-06-15_12-25-03_094959634447_rgbf000150-resize_3/002989_2014-06-15_12-25-03_094959634447_rgbf000150-resize_3-target.png,250,4.1975,5,3094,250,meters,jsons/v1_VE250_randls_61.json,647216,915536,1989,Man
89,649317,DepthScenes,duration_manipulation_targetAtFixation,jsons/v1_VE250_randls_61.json,http://54.235.29.9/FacialAge/BNav_EC2/DepthDuration/v2_depth_duration_MTurk/v2_DepthDuration_HTML.html#381,381,1600,757,1600,900,0-23-2023,12-28-38,90,depth_duration_stimuli/000866_2014-06-09_20-45-42_260595134347_rgbf000139-resize_1/000866_2014-06-09_20-45-42_260595134347_rgbf000139-resize_1-target.png,250,3.2155,2,2349,237,meters,jsons/v1_VE250_randls_61.json,647216,915536,1989,Man
90,649317,DepthScenes,duration_manipulation_targetAtFixation,jsons/v1_VE250_randls_61.json,http://54.235.29.9/FacialAge/BNav_EC2/DepthDuration/v2_depth_duration_MTurk/v2_DepthDuration_HTML.html#381,381,1600,757,1600,900,0-23-2023,12-28-38,91,depth_duration_stimuli/001806_2014-06-26_20-50-20_260595134347_rgbf000091-resize_1/001806_2014-06-26_20-50-20_260595134347_rgbf000091-resize_1-target.png,250,2.7305,3,3068,248,meters,jsons/v1_VE250_randls_61.json,647216,915536,1989,Man
91,649317,DepthScenes,duration_manipulation_targetAtFixation,jsons/v1_VE250_randls_61.json,http://54.235.29.9/FacialAge/BNav_EC2/DepthDuration/v2_depth_duration_MTurk/v2_DepthDuration_HTML.html#381,381,1600,757,1600,900,0-23-2023,12-28-38,92,depth_duration_stimuli/001617_2014-06-20_11-35-32_260595134347_rgbf000066-resize_1/001617_2014-06-20_11-35-32_260595134347_rgbf000066-resize_1-target.png,250,3.7910000000000004,5,2037,249,meters,jsons/v1_VE250_randls_61.json,647216,915536,1989,Man
92,649317,DepthScenes,duration_manipulation_targetAtFixation,jsons/v1_VE250_randls_61.json,http://54.235.29.9/FacialAge/BNav_EC2/DepthDuration/v2_depth_duration_MTurk/v2_DepthDuration_HTML.html#381,381,1600,757,1600,900,0-23-2023,12-28-38,93,depth_duration_stimuli/000736_2014-06-08_18-24-15_260595134347_rgbf000206-resize_3/000736_2014-06-08_18-24-15_260595134347_rgbf000206-resize_3-target.png,250,3.515,3,2714,250,meters,jsons/v1_VE250_randls_61.json,647216,915536,1989,Man
93,649317,DepthScenes,duration_manipulation_targetAtFixation,jsons/v1_VE250_randls_61.json,http://54.235.29.9/FacialAge/BNav_EC2/DepthDuration/v2_depth_duration_MTurk/v2_DepthDuration_HTML.html#381,381,1600,757,1600,900,0-23-2023,12-28-38,94,depth_duration_stimuli/000137_2014-05-20_17-04-49_260595134347_rgbf000120-resize_1/000137_2014-05-20_17-04-49_260595134347_rgbf000120-resize_1-target.png,250,3.786,5,3791,250,meters,jsons/v1_VE250_randls_61.json,647216,915536,1989,Man
94,649317,DepthScenes,duration_manipulation_targetAtFixation,jsons/v1_VE250_randls_61.json,http://54.235.29.9/FacialAge/BNav_EC2/DepthDuration/v2_depth_duration_MTurk/v2_DepthDuration_HTML.html#381,381,1600,757,1600,900,0-23-2023,12-28-38,95,depth_duration_stimuli/002509_2014-06-24_13-19-22_094959634447_rgbf000077-resize_0/002509_2014-06-24_13-19-22_094959634447_rgbf000077-resize_0-target.png,250,1.3065,2,3438,249,meters,jsons/v1_VE250_randls_61.json,647216,915536,1989,Man
95,649317,DepthScenes,duration_manipulation_targetAtFixation,jsons/v1_VE250_randls_61.json,http://54.235.29.9/FacialAge/BNav_EC2/DepthDuration/v2_depth_duration_MTurk/v2_DepthDuration_HTML.html#381,381,1600,757,1600,900,0-23-2023,12-28-38,96,depth_duration_stimuli/003338_2014-05-20_11-01-23_094959634447_rgbf000051-resize_6/003338_2014-05-20_11-01-23_094959634447_rgbf000051-resize_6-target.png,250,1.693,3,7189,250,meters,jsons/v1_VE250_randls_61.json,647216,915536,1989,Man
96,649317,DepthScenes,duration_manipulation_targetAtFixation,jsons/v1_VE250_randls_61.json,http://54.235.29.9/FacialAge/BNav_EC2/DepthDuration/v2_depth_duration_MTurk/v2_DepthDuration_HTML.html#381,381,1600,757,1600,900,0-23-2023,12-28-38,97,depth_duration_stimuli/001417_2014-06-19_16-25-36_260595134347_rgbf000115-resize_5/001417_2014-06-19_16-25-36_260595134347_rgbf000115-resize_5-target.png,250,4.6255,5,3801,261,meters,jsons/v1_VE250_randls_61.json,647216,915536,1989,Man
97,649317,DepthScenes,duration_manipulation_targetAtFixation,jsons/v1_VE250_randls_61.json,http://54.235.29.9/FacialAge/BNav_EC2/DepthDuration/v2_depth_duration_MTurk/v2_DepthDuration_HTML.html#381,381,1600,757,1600,900,0-23-2023,12-28-38,98,depth_duration_stimuli/003081_2014-06-15_15-19-16_094959634447_rgbf000150-resize_1/003081_2014-06-15_15-19-16_094959634447_rgbf000150-resize_1-target.png,250,3.9125,2,2852,250,meters,jsons/v1_VE250_randls_61.json,647216,915536,1989,Man
98,649317,DepthScenes,duration_manipulation_targetAtFixation,jsons/v1_VE250_randls_61.json,http://54.235.29.9/FacialAge/BNav_EC2/DepthDuration/v2_depth_duration_MTurk/v2_DepthDuration_HTML.html#381,381,1600,757,1600,900,0-23-2023,12-28-38,99,depth_duration_stimuli/001540_2014-06-20_17-01-05_260595134347_rgbf000086-resize_2/001540_2014-06-20_17-01-05_260595134347_rgbf000086-resize-original.jpg,250,1.459,0,3797,247,meters,jsons/v1_VE250_randls_61.json,647216,915536,1989,Man
99,649317,DepthScenes,duration_manipulation_targetAtFixation,jsons/v1_VE250_randls_61.json,http://54.235.29.9/FacialAge/BNav_EC2/DepthDuration/v2_depth_duration_MTurk/v2_DepthDuration_HTML.html#381,381,1600,757,1600,900,0-23-2023,12-28-38,100,depth_duration_stimuli/002663_2014-06-13_15-50-26_094959634447_rgbf000075-resize_1/002663_2014-06-13_15-50-26_094959634447_rgbf000075-resize_1-target.png,250,4.7495,5,4365,236,meters,jsons/v1_VE250_randls_61.json,647216,915536,1989,Man
100,649317,DepthScenes,duration_manipulation_targetAtFixation,jsons/v1_VE250_randls_61.json,http://54.235.29.9/FacialAge/BNav_EC2/DepthDuration/v2_depth_duration_MTurk/v2_DepthDuration_HTML.html#381,381,1600,757,1600,900,0-23-2023,12-28-38,101,depth_duration_stimuli/000409_2014-06-04_19-23-33_260595134347_rgbf000067-resize_0/000409_2014-06-04_19-23-33_260595134347_rgbf000067-resize_0-target.png,250,3.7335,5,2082,250,meters,jsons/v1_VE250_randls_61.json,647216,915536,1989,Man
101,649317,DepthScenes,duration_manipulation_targetAtFixation,jsons/v1_VE250_randls_61.json,http://54.235.29.9/FacialAge/BNav_EC2/DepthDuration/v2_depth_duration_MTurk/v2_DepthDuration_HTML.html#381,381,1600,757,1600,900,0-23-2023,12-28-38,102,depth_duration_stimuli/002043_2014-06-24_20-29-38_260595134347_rgbf000039-resize_4/002043_2014-06-24_20-29-38_260595134347_rgbf000039-resize_4-target.png,250,2.8435,2,2595,248,meters,jsons/v1_VE250_randls_61.json,647216,915536,1989,Man
102,649317,DepthScenes,duration_manipulation_targetAtFixation,jsons/v1_VE250_randls_61.json,http://54.235.29.9/FacialAge/BNav_EC2/DepthDuration/v2_depth_duration_MTurk/v2_DepthDuration_HTML.html#381,381,1600,757,1600,900,0-23-2023,12-28-38,103,depth_duration_stimuli/003048_2014-06-15_13-49-43_094959634447_rgbf000150-resize_1/003048_2014-06-15_13-49-43_094959634447_rgbf000150-resize_1-target.png,250,4.0035,2,2846,261,meters,jsons/v1_VE250_randls_61.json,647216,915536,1989,Man
103,649317,DepthScenes,duration_manipulation_targetAtFixation,jsons/v1_VE250_randls_61.json,http://54.235.29.9/FacialAge/BNav_EC2/DepthDuration/v2_depth_duration_MTurk/v2_DepthDuration_HTML.html#381,381,1600,757,1600,900,0-23-2023,12-28-38,104,depth_duration_stimuli/000414_2014-06-04_19-49-13_260595134347_rgbf000044-resize_0/000414_2014-06-04_19-49-13_260595134347_rgbf000044-resize_0-target.png,250,4.329,5,2626,250,meters,jsons/v1_VE250_randls_61.json,647216,915536,1989,Man
104,649317,DepthScenes,duration_manipulation_targetAtFixation,jsons/v1_VE250_randls_61.json,http://54.235.29.9/FacialAge/BNav_EC2/DepthDuration/v2_depth_duration_MTurk/v2_DepthDuration_HTML.html#381,381,1600,757,1600,900,0-23-2023,12-28-38,105,depth_duration_stimuli/003129_2014-05-12_10-48-10_094959634447_rgbf000100-resize_0/003129_2014-05-12_10-48-10_094959634447_rgbf000100-resize_0-target.png,250,4.9305,5,1849,251,meters,jsons/v1_VE250_randls_61.json,647216,915536,1989,Man
105,649317,DepthScenes,duration_manipulation_targetAtFixation,jsons/v1_VE250_randls_61.json,http://54.235.29.9/FacialAge/BNav_EC2/DepthDuration/v2_depth_duration_MTurk/v2_DepthDuration_HTML.html#381,381,1600,757,1600,900,0-23-2023,12-28-38,106,depth_duration_stimuli/002748_2014-06-22_19-07-22_094959634447_rgbf000078-resize_1/002748_2014-06-22_19-07-22_094959634447_rgbf000078-resize_1-target.png,250,4.6705,5,2334,250,meters,jsons/v1_VE250_randls_61.json,647216,915536,1989,Man
106,649317,DepthScenes,duration_manipulation_targetAtFixation,jsons/v1_VE250_randls_61.json,http://54.235.29.9/FacialAge/BNav_EC2/DepthDuration/v2_depth_duration_MTurk/v2_DepthDuration_HTML.html#381,381,1600,757,1600,900,0-23-2023,12-28-38,107,depth_duration_stimuli/002995_2014-06-15_12-31-26_094959634447_rgbf000150-resize_1/002995_2014-06-15_12-31-26_094959634447_rgbf000150-resize_1-target.png,250,3.8360000000000003,5,1930,250,meters,jsons/v1_VE250_randls_61.json,647216,915536,1989,Man
107,649317,DepthScenes,duration_manipulation_targetAtFixation,jsons/v1_VE250_randls_61.json,http://54.235.29.9/FacialAge/BNav_EC2/DepthDuration/v2_depth_duration_MTurk/v2_DepthDuration_HTML.html#381,381,1600,757,1600,900,0-23-2023,12-28-38,108,depth_duration_stimuli/000917_2014-06-09_22-45-29_260595134347_rgbf000149-resize_3/000917_2014-06-09_22-45-29_260595134347_rgbf000149-resize_3-target.png,250,4.1865,5,2367,249,meters,jsons/v1_VE250_randls_61.json,647216,915536,1989,Man
108,649317,DepthScenes,duration_manipulation_targetAtFixation,jsons/v1_VE250_randls_61.json,http://54.235.29.9/FacialAge/BNav_EC2/DepthDuration/v2_depth_duration_MTurk/v2_DepthDuration_HTML.html#381,381,1600,757,1600,900,0-23-2023,12-28-38,109,depth_duration_stimuli/002323_2014-06-28_20-01-54_260595134347_rgbf000051-resize_4/002323_2014-06-28_20-01-54_260595134347_rgbf000051-resize_4-target.png,250,3.7310000000000003,5,1870,253,meters,jsons/v1_VE250_randls_61.json,647216,915536,1989,Man
109,649317,DepthScenes,duration_manipulation_targetAtFixation,jsons/v1_VE250_randls_61.json,http://54.235.29.9/FacialAge/BNav_EC2/DepthDuration/v2_depth_duration_MTurk/v2_DepthDuration_HTML.html#381,381,1600,757,1600,900,0-23-2023,12-28-38,110,depth_duration_stimuli/000368_2014-06-09_15-53-01_260595134347_rgbf000155-resize_2/000368_2014-06-09_15-53-01_260595134347_rgbf000155-resize_2-target.png,250,2.4859999999999998,5,2247,252,meters,jsons/v1_VE250_randls_61.json,647216,915536,1989,Man
110,649317,DepthScenes,duration_manipulation_targetAtFixation,jsons/v1_VE250_randls_61.json,http://54.235.29.9/FacialAge/BNav_EC2/DepthDuration/v2_depth_duration_MTurk/v2_DepthDuration_HTML.html#381,381,1600,757,1600,900,0-23-2023,12-28-38,111,depth_duration_stimuli/002678_2014-06-13_16-15-32_094959634447_rgbf000151-resize_6/002678_2014-06-13_16-15-32_094959634447_rgbf000151-resize_6-target.png,250,2.1830000000000003,5,1869,251,meters,jsons/v1_VE250_randls_61.json,647216,915536,1989,Man
111,649317,DepthScenes,duration_manipulation_targetAtFixation,jsons/v1_VE250_randls_61.json,http://54.235.29.9/FacialAge/BNav_EC2/DepthDuration/v2_depth_duration_MTurk/v2_DepthDuration_HTML.html#381,381,1600,757,1600,900,0-23-2023,12-28-38,112,depth_duration_stimuli/003621_2014-05-23_18-06-08_094959634447_rgbf000101-resize_1/003621_2014-05-23_18-06-08_094959634447_rgbf000101-resize_1-target.png,250,3.9835,5,2381,248,meters,jsons/v1_VE250_randls_61.json,647216,915536,1989,Man
112,649317,DepthScenes,duration_manipulation_targetAtFixation,jsons/v1_VE250_randls_61.json,http://54.235.29.9/FacialAge/BNav_EC2/DepthDuration/v2_depth_duration_MTurk/v2_DepthDuration_HTML.html#381,381,1600,757,1600,900,0-23-2023,12-28-38,113,depth_duration_stimuli/001584_2014-06-20_11-07-43_260595134347_rgbf000002-resize_1/001584_2014-06-20_11-07-43_260595134347_rgbf000002-resize_1-target.png,250,3.53,5,2019,249,meters,jsons/v1_VE250_randls_61.json,647216,915536,1989,Man
113,649317,DepthScenes,duration_manipulation_targetAtFixation,jsons/v1_VE250_randls_61.json,http://54.235.29.9/FacialAge/BNav_EC2/DepthDuration/v2_depth_duration_MTurk/v2_DepthDuration_HTML.html#381,381,1600,757,1600,900,0-23-2023,12-28-38,114,depth_duration_stimuli/000878_2014-06-08_22-52-45_260595134347_rgbf000045-resize_2/000878_2014-06-08_22-52-45_260595134347_rgbf000045-resize_2-target.png,250,2.092,5,2569,250,meters,jsons/v1_VE250_randls_61.json,647216,915536,1989,Man
114,649317,DepthScenes,duration_manipulation_targetAtFixation,jsons/v1_VE250_randls_61.json,http://54.235.29.9/FacialAge/BNav_EC2/DepthDuration/v2_depth_duration_MTurk/v2_DepthDuration_HTML.html#381,381,1600,757,1600,900,0-23-2023,12-28-38,115,depth_duration_stimuli/002953_2014-06-08_17-32-18_094959634447_rgbf000059-resize_5/002953_2014-06-08_17-32-18_094959634447_rgbf000059-resize_5-target.png,250,1.551,5,1838,252,meters,jsons/v1_VE250_randls_61.json,647216,915536,1989,Man
115,649317,DepthScenes,duration_manipulation_targetAtFixation,jsons/v1_VE250_randls_61.json,http://54.235.29.9/FacialAge/BNav_EC2/DepthDuration/v2_depth_duration_MTurk/v2_DepthDuration_HTML.html#381,381,1600,757,1600,900,0-23-2023,12-28-38,116,depth_duration_stimuli/001170_2014-06-17_15-43-44_260595134347_rgbf000096-resize_6/001170_2014-06-17_15-43-44_260595134347_rgbf000096-resize-original.jpg,250,1.1909999999999998,0,2987,250,meters,jsons/v1_VE250_randls_61.json,647216,915536,1989,Man
116,649317,DepthScenes,duration_manipulation_targetAtFixation,jsons/v1_VE250_randls_61.json,http://54.235.29.9/FacialAge/BNav_EC2/DepthDuration/v2_depth_duration_MTurk/v2_DepthDuration_HTML.html#381,381,1600,757,1600,900,0-23-2023,12-28-38,117,depth_duration_stimuli/001164_2014-06-17_15-35-46_260595134347_rgbf000085-resize_3/001164_2014-06-17_15-35-46_260595134347_rgbf000085-resize_3-target.png,250,2.354,5,3405,247,meters,jsons/v1_VE250_randls_61.json,647216,915536,1989,Man
117,649317,DepthScenes,duration_manipulation_targetAtFixation,jsons/v1_VE250_randls_61.json,http://54.235.29.9/FacialAge/BNav_EC2/DepthDuration/v2_depth_duration_MTurk/v2_DepthDuration_HTML.html#381,381,1600,757,1600,900,0-23-2023,12-28-38,118,depth_duration_stimuli/001136_2014-06-17_15-19-41_260595134347_rgbf000076-resize_3/001136_2014-06-17_15-19-41_260595134347_rgbf000076-resize_3-target.png,250,1.8655,5,1909,250,meters,jsons/v1_VE250_randls_61.json,647216,915536,1989,Man
118,649317,DepthScenes,duration_manipulation_targetAtFixation,jsons/v1_VE250_randls_61.json,http://54.235.29.9/FacialAge/BNav_EC2/DepthDuration/v2_depth_duration_MTurk/v2_DepthDuration_HTML.html#381,381,1600,757,1600,900,0-23-2023,12-28-38,119,depth_duration_stimuli/000009_2014-05-26_14-32-05_260595134347_rgbf000034-resize_3/000009_2014-05-26_14-32-05_260595134347_rgbf000034-resize_3-target.png,250,3.8715,5,2314,252,meters,jsons/v1_VE250_randls_61.json,647216,915536,1989,Man
119,649317,DepthScenes,duration_manipulation_targetAtFixation,jsons/v1_VE250_randls_61.json,http://54.235.29.9/FacialAge/BNav_EC2/DepthDuration/v2_depth_duration_MTurk/v2_DepthDuration_HTML.html#381,381,1600,757,1600,900,0-23-2023,12-28-38,120,depth_duration_stimuli/001828_2014-06-26_21-40-03_260595134347_rgbf000024-resize_0/001828_2014-06-26_21-40-03_260595134347_rgbf000024-resize_0-target.png,250,4.8260000000000005,5,1718,253,meters,jsons/v1_VE250_randls_61.json,647216,915536,1989,Man
120,649317,DepthScenes,duration_manipulation_targetAtFixation,jsons/v1_VE250_randls_61.json,http://54.235.29.9/FacialAge/BNav_EC2/DepthDuration/v2_depth_duration_MTurk/v2_DepthDuration_HTML.html#381,381,1600,757,1600,900,0-23-2023,12-28-38,121,depth_duration_stimuli/001133_2014-06-17_14-49-16_260595134347_rgbf000100-resize_0/001133_2014-06-17_14-49-16_260595134347_rgbf000100-resize_0-target.png,250,4.2115,5,2404,247,meters,jsons/v1_VE250_randls_61.json,647216,915536,1989,Man
121,649317,DepthScenes,duration_manipulation_targetAtFixation,jsons/v1_VE250_randls_61.json,http://54.235.29.9/FacialAge/BNav_EC2/DepthDuration/v2_depth_duration_MTurk/v2_DepthDuration_HTML.html#381,381,1600,757,1600,900,0-23-2023,12-28-38,122,depth_duration_stimuli/001132_2014-06-17_14-48-54_260595134347_rgbf000100-resize_2/001132_2014-06-17_14-48-54_260595134347_rgbf000100-resize_2-target.png,250,3.753,5,1844,257,meters,jsons/v1_VE250_randls_61.json,647216,915536,1989,Man
122,649317,DepthScenes,duration_manipulation_targetAtFixation,jsons/v1_VE250_randls_61.json,http://54.235.29.9/FacialAge/BNav_EC2/DepthDuration/v2_depth_duration_MTurk/v2_DepthDuration_HTML.html#381,381,1600,757,1600,900,0-23-2023,12-28-38,123,depth_duration_stimuli/003292_2014-05-14_21-53-49_094959634447_rgbf000100-resize_2/003292_2014-05-14_21-53-49_094959634447_rgbf000100-resize_2-target.png,250,3.4815,5,2821,249,meters,jsons/v1_VE250_randls_61.json,647216,915536,1989,Man
123,649317,DepthScenes,duration_manipulation_targetAtFixation,jsons/v1_VE250_randls_61.json,http://54.235.29.9/FacialAge/BNav_EC2/DepthDuration/v2_depth_duration_MTurk/v2_DepthDuration_HTML.html#381,381,1600,757,1600,900,0-23-2023,12-28-38,124,depth_duration_stimuli/002639_2014-06-24_14-51-37_094959634447_rgbf000074-resize_4/002639_2014-06-24_14-51-37_094959634447_rgbf000074-resize_4-target.png,250,4.0375,5,2092,249,meters,jsons/v1_VE250_randls_61.json,647216,915536,1989,Man
124,649317,DepthScenes,duration_manipulation_targetAtFixation,jsons/v1_VE250_randls_61.json,http://54.235.29.9/FacialAge/BNav_EC2/DepthDuration/v2_depth_duration_MTurk/v2_DepthDuration_HTML.html#381,381,1600,757,1600,900,0-23-2023,12-28-38,125,depth_duration_stimuli/001167_2014-06-17_15-38-07_260595134347_rgbf000108-resize_0/001167_2014-06-17_15-38-07_260595134347_rgbf000108-resize_0-target.png,250,1.8505,5,2269,250,meters,jsons/v1_VE250_randls_61.json,647216,915536,1989,Man
125,649317,DepthScenes,duration_manipulation_targetAtFixation,jsons/v1_VE250_randls_61.json,http://54.235.29.9/FacialAge/BNav_EC2/DepthDuration/v2_depth_duration_MTurk/v2_DepthDuration_HTML.html#381,381,1600,757,1600,900,0-23-2023,12-28-38,126,depth_duration_stimuli/003587_2014-05-23_16-48-02_094959634447_rgbf002384-resize_2/003587_2014-05-23_16-48-02_094959634447_rgbf002384-resize_2-target.png,250,1.357,5,1633,260,meters,jsons/v1_VE250_randls_61.json,647216,915536,1989,Man
126,649317,DepthScenes,duration_manipulation_targetAtFixation,jsons/v1_VE250_randls_61.json,http://54.235.29.9/FacialAge/BNav_EC2/DepthDuration/v2_depth_duration_MTurk/v2_DepthDuration_HTML.html#381,381,1600,757,1600,900,0-23-2023,12-28-38,127,depth_duration_stimuli/001158_2014-06-17_15-32-16_260595134347_rgbf000138-resize_2/001158_2014-06-17_15-32-16_260595134347_rgbf000138-resize_2-target.png,250,4.5315,5,2163,250,meters,jsons/v1_VE250_randls_61.json,647216,915536,1989,Man
127,649317,DepthScenes,duration_manipulation_targetAtFixation,jsons/v1_VE250_randls_61.json,http://54.235.29.9/FacialAge/BNav_EC2/DepthDuration/v2_depth_duration_MTurk/v2_DepthDuration_HTML.html#381,381,1600,757,1600,900,0-23-2023,12-28-38,128,depth_duration_stimuli/000556_2014-06-09_22-42-56_260595134347_rgbf000214-resize_1/000556_2014-06-09_22-42-56_260595134347_rgbf000214-resize_1-target.png,250,4.8415,5,3270,251,meters,jsons/v1_VE250_randls_61.json,647216,915536,1989,Man
128,649317,DepthScenes,duration_manipulation_targetAtFixation,jsons/v1_VE250_randls_61.json,http://54.235.29.9/FacialAge/BNav_EC2/DepthDuration/v2_depth_duration_MTurk/v2_DepthDuration_HTML.html#381,381,1600,757,1600,900,0-23-2023,12-28-38,129,depth_duration_stimuli/000469_2014-06-09_19-42-10_260595134347_rgbf000081-resize_1/000469_2014-06-09_19-42-10_260595134347_rgbf000081-resize_1-target.png,250,1.652,5,2613,250,meters,jsons/v1_VE250_randls_61.json,647216,915536,1989,Man
129,649317,DepthScenes,duration_manipulation_targetAtFixation,jsons/v1_VE250_randls_61.json,http://54.235.29.9/FacialAge/BNav_EC2/DepthDuration/v2_depth_duration_MTurk/v2_DepthDuration_HTML.html#381,381,1600,757,1600,900,0-23-2023,12-28-38,130,depth_duration_stimuli/000483_2014-06-09_20-41-45_260595134347_rgbf000116-resize_4/000483_2014-06-09_20-41-45_260595134347_rgbf000116-resize_4-target.png,250,1.337,5,1846,255,meters,jsons/v1_VE250_randls_61.json,647216,915536,1989,Man
130,649317,DepthScenes,duration_manipulation_targetAtFixation,jsons/v1_VE250_randls_61.json,http://54.235.29.9/FacialAge/BNav_EC2/DepthDuration/v2_depth_duration_MTurk/v2_DepthDuration_HTML.html#381,381,1600,757,1600,900,0-23-2023,12-28-38,131,depth_duration_stimuli/002272_2014-06-28_18-53-56_260595134347_rgbf000067-resize_2/002272_2014-06-28_18-53-56_260595134347_rgbf000067-resize_2-target.png,250,1.138,5,2329,250,meters,jsons/v1_VE250_randls_61.json,647216,915536,1989,Man
131,649317,DepthScenes,duration_manipulation_targetAtFixation,jsons/v1_VE250_randls_61.json,http://54.235.29.9/FacialAge/BNav_EC2/DepthDuration/v2_depth_duration_MTurk/v2_DepthDuration_HTML.html#381,381,1600,757,1600,900,0-23-2023,12-28-38,132,depth_duration_stimuli/001571_2014-06-20_17-21-32_260595134347_rgbf000089-resize_1/001571_2014-06-20_17-21-32_260595134347_rgbf000089-resize_1-target.png,250,1.86,5,3004,239,meters,jsons/v1_VE250_randls_61.json,647216,915536,1989,Man
132,649317,DepthScenes,duration_manipulation_targetAtFixation,jsons/v1_VE250_randls_61.json,http://54.235.29.9/FacialAge/BNav_EC2/DepthDuration/v2_depth_duration_MTurk/v2_DepthDuration_HTML.html#381,381,1600,757,1600,900,0-23-2023,12-28-38,133,depth_duration_stimuli/000906_2014-06-08_13-35-43_260595134347_rgbf000155-resize_1/000906_2014-06-08_13-35-43_260595134347_rgbf000155-resize_1-target.png,250,2.8489999999999998,5,2649,244,meters,jsons/v1_VE250_randls_61.json,647216,915536,1989,Man
133,649317,DepthScenes,duration_manipulation_targetAtFixation,jsons/v1_VE250_randls_61.json,http://54.235.29.9/FacialAge/BNav_EC2/DepthDuration/v2_depth_duration_MTurk/v2_DepthDuration_HTML.html#381,381,1600,757,1600,900,0-23-2023,12-28-38,134,depth_duration_stimuli/002805_2014-06-22_19-54-03_094959634447_rgbf000079-resize_1/002805_2014-06-22_19-54-03_094959634447_rgbf000079-resize_1-target.png,250,3.1439999999999997,5,2053,249,meters,jsons/v1_VE250_randls_61.json,647216,915536,1989,Man
134,649317,DepthScenes,duration_manipulation_targetAtFixation,jsons/v1_VE250_randls_61.json,http://54.235.29.9/FacialAge/BNav_EC2/DepthDuration/v2_depth_duration_MTurk/v2_DepthDuration_HTML.html#381,381,1600,757,1600,900,0-23-2023,12-28-38,135,depth_duration_stimuli/002072_2014-06-24_21-48-06_260595134347_rgbf000115-resize_0/002072_2014-06-24_21-48-06_260595134347_rgbf000115-resize-original.jpg,250,4.702,0,3131,251,meters,jsons/v1_VE250_randls_61.json,647216,915536,1989,Man
135,649317,DepthScenes,duration_manipulation_targetAtFixation,jsons/v1_VE250_randls_61.json,http://54.235.29.9/FacialAge/BNav_EC2/DepthDuration/v2_depth_duration_MTurk/v2_DepthDuration_HTML.html#381,381,1600,757,1600,900,0-23-2023,12-28-38,136,depth_duration_stimuli/001016_2014-06-09_16-16-10_260595134347_rgbf000112-resize_5/001016_2014-06-09_16-16-10_260595134347_rgbf000112-resize_5-target.png,250,1.6565,5,3094,248,meters,jsons/v1_VE250_randls_61.json,647216,915536,1989,Man
136,649317,DepthScenes,duration_manipulation_targetAtFixation,jsons/v1_VE250_randls_61.json,http://54.235.29.9/FacialAge/BNav_EC2/DepthDuration/v2_depth_duration_MTurk/v2_DepthDuration_HTML.html#381,381,1600,757,1600,900,0-23-2023,12-28-38,137,depth_duration_stimuli/002340_2014-06-28_20-05-46_260595134347_rgbf000113-resize_0/002340_2014-06-28_20-05-46_260595134347_rgbf000113-resize_0-target.png,250,2.4735,5,1821,262,meters,jsons/v1_VE250_randls_61.json,647216,915536,1989,Man
137,649317,DepthScenes,duration_manipulation_targetAtFixation,jsons/v1_VE250_randls_61.json,http://54.235.29.9/FacialAge/BNav_EC2/DepthDuration/v2_depth_duration_MTurk/v2_DepthDuration_HTML.html#381,381,1600,757,1600,900,0-23-2023,12-28-38,138,depth_duration_stimuli/000810_2014-06-08_17-20-01_260595134347_rgbf000105-resize_0/000810_2014-06-08_17-20-01_260595134347_rgbf000105-resize_0-target.png,250,1.4865,5,2393,250,meters,jsons/v1_VE250_randls_61.json,647216,915536,1989,Man
138,649317,DepthScenes,duration_manipulation_targetAtFixation,jsons/v1_VE250_randls_61.json,http://54.235.29.9/FacialAge/BNav_EC2/DepthDuration/v2_depth_duration_MTurk/v2_DepthDuration_HTML.html#381,381,1600,757,1600,900,0-23-2023,12-28-38,139,depth_duration_stimuli/001214_2014-06-17_16-13-55_260595134347_rgbf000111-resize_0/001214_2014-06-17_16-13-55_260595134347_rgbf000111-resize_0-target.png,250,2.6505,5,1822,250,meters,jsons/v1_VE250_randls_61.json,647216,915536,1989,Man
139,649317,DepthScenes,duration_manipulation_targetAtFixation,jsons/v1_VE250_randls_61.json,http://54.235.29.9/FacialAge/BNav_EC2/DepthDuration/v2_depth_duration_MTurk/v2_DepthDuration_HTML.html#381,381,1600,757,1600,900,0-23-2023,12-28-38,140,depth_duration_stimuli/001810_2014-06-26_20-51-35_260595134347_rgbf000040-resize_3/001810_2014-06-26_20-51-35_260595134347_rgbf000040-resize_3-target.png,250,2.2525,5,2310,234,meters,jsons/v1_VE250_randls_61.json,647216,915536,1989,Man
140,649317,DepthScenes,duration_manipulation_targetAtFixation,jsons/v1_VE250_randls_61.json,http://54.235.29.9/FacialAge/BNav_EC2/DepthDuration/v2_depth_duration_MTurk/v2_DepthDuration_HTML.html#381,381,1600,757,1600,900,0-23-2023,12-28-38,141,depth_duration_stimuli/003010_2014-06-15_12-54-35_094959634447_rgbf000112-resize_0/003010_2014-06-15_12-54-35_094959634447_rgbf000112-resize_0-target.png,250,3.1185,5,1882,252,meters,jsons/v1_VE250_randls_61.json,647216,915536,1989,Man
141,649317,DepthScenes,duration_manipulation_targetAtFixation,jsons/v1_VE250_randls_61.json,http://54.235.29.9/FacialAge/BNav_EC2/DepthDuration/v2_depth_duration_MTurk/v2_DepthDuration_HTML.html#381,381,1600,757,1600,900,0-23-2023,12-28-38,142,depth_duration_stimuli/001059_2014-06-08_21-53-27_260595134347_rgbf000061-resize_4/001059_2014-06-08_21-53-27_260595134347_rgbf000061-resize_4-target.png,250,2.4185,5,2493,252,meters,jsons/v1_VE250_randls_61.json,647216,915536,1989,Man
142,649317,DepthScenes,duration_manipulation_targetAtFixation,jsons/v1_VE250_randls_61.json,http://54.235.29.9/FacialAge/BNav_EC2/DepthDuration/v2_depth_duration_MTurk/v2_DepthDuration_HTML.html#381,381,1600,757,1600,900,0-23-2023,12-28-38,143,depth_duration_stimuli/001032_2014-06-08_13-23-17_260595134347_rgbf000021-resize_3/001032_2014-06-08_13-23-17_260595134347_rgbf000021-resize_3-target.png,250,3.2725,5,1731,250,meters,jsons/v1_VE250_randls_61.json,647216,915536,1989,Man
143,649317,DepthScenes,duration_manipulation_targetAtFixation,jsons/v1_VE250_randls_61.json,http://54.235.29.9/FacialAge/BNav_EC2/DepthDuration/v2_depth_duration_MTurk/v2_DepthDuration_HTML.html#381,381,1600,757,1600,900,0-23-2023,12-28-38,144,depth_duration_stimuli/003070_2014-06-15_14-58-27_094959634447_rgbf000150-resize_3/003070_2014-06-15_14-58-27_094959634447_rgbf000150-resize_3-target.png,250,2.9415,5,2277,261,meters,jsons/v1_VE250_randls_61.json,647216,915536,1989,Man
144,649317,DepthScenes,duration_manipulation_targetAtFixation,jsons/v1_VE250_randls_61.json,http://54.235.29.9/FacialAge/BNav_EC2/DepthDuration/v2_depth_duration_MTurk/v2_DepthDuration_HTML.html#381,381,1600,757,1600,900,0-23-2023,12-28-38,145,depth_duration_stimuli/000943_2014-06-09_19-31-07_260595134347_rgbf000128-resize_1/000943_2014-06-09_19-31-07_260595134347_rgbf000128-resize_1-target.png,250,1.9765,5,1828,251,meters,jsons/v1_VE250_randls_61.json,647216,915536,1989,Man
145,649317,DepthScenes,duration_manipulation_targetAtFixation,jsons/v1_VE250_randls_61.json,http://54.235.29.9/FacialAge/BNav_EC2/DepthDuration/v2_depth_duration_MTurk/v2_DepthDuration_HTML.html#381,381,1600,757,1600,900,0-23-2023,12-28-38,146,depth_duration_stimuli/001498_2014-06-19_17-45-14_260595134347_rgbf000129-resize_4/001498_2014-06-19_17-45-14_260595134347_rgbf000129-resize-original.jpg,250,1.4075,0,3317,250,meters,jsons/v1_VE250_randls_61.json,647216,915536,1989,Man
146,649317,DepthScenes,duration_manipulation_targetAtFixation,jsons/v1_VE250_randls_61.json,http://54.235.29.9/FacialAge/BNav_EC2/DepthDuration/v2_depth_duration_MTurk/v2_DepthDuration_HTML.html#381,381,1600,757,1600,900,0-23-2023,12-28-38,147,depth_duration_stimuli/002964_2014-06-08_17-46-11_094959634447_rgbf000091-resize_4/002964_2014-06-08_17-46-11_094959634447_rgbf000091-resize_4-target.png,250,1.6909999999999998,5,3628,244,meters,jsons/v1_VE250_randls_61.json,647216,915536,1989,Man
147,649317,DepthScenes,duration_manipulation_targetAtFixation,jsons/v1_VE250_randls_61.json,http://54.235.29.9/FacialAge/BNav_EC2/DepthDuration/v2_depth_duration_MTurk/v2_DepthDuration_HTML.html#381,381,1600,757,1600,900,0-23-2023,12-28-38,148,depth_duration_stimuli/002136_2014-06-25_21-18-03_260595134347_rgbf000109-resize_3/002136_2014-06-25_21-18-03_260595134347_rgbf000109-resize_3-target.png,250,1.9569999999999999,5,2093,248,meters,jsons/v1_VE250_randls_61.json,647216,915536,1989,Man
148,649317,DepthScenes,duration_manipulation_targetAtFixation,jsons/v1_VE250_randls_61.json,http://54.235.29.9/FacialAge/BNav_EC2/DepthDuration/v2_depth_duration_MTurk/v2_DepthDuration_HTML.html#381,381,1600,757,1600,900,0-23-2023,12-28-38,149,depth_duration_stimuli/002039_2014-06-24_20-22-38_260595134347_rgbf000084-resize_1/002039_2014-06-24_20-22-38_260595134347_rgbf000084-resize_1-target.png,250,4.408,5,3109,247,meters,jsons/v1_VE250_randls_61.json,647216,915536,1989,Man
149,649317,DepthScenes,duration_manipulation_targetAtFixation,jsons/v1_VE250_randls_61.json,http://54.235.29.9/FacialAge/BNav_EC2/DepthDuration/v2_depth_duration_MTurk/v2_DepthDuration_HTML.html#381,381,1600,757,1600,900,0-23-2023,12-28-38,150,depth_duration_stimuli/002103_2014-06-25_20-00-40_260595134347_rgbf000049-resize_0/002103_2014-06-25_20-00-40_260595134347_rgbf000049-resize_0-target.png,250,4.105,5,2749,245,meters,jsons/v1_VE250_randls_61.json,647216,915536,1989,Man
150,649317,DepthScenes,duration_manipulation_targetAtFixation,jsons/v1_VE250_randls_61.json,http://54.235.29.9/FacialAge/BNav_EC2/DepthDuration/v2_depth_duration_MTurk/v2_DepthDuration_HTML.html#381,381,1600,757,1600,900,0-23-2023,12-28-38,151,depth_duration_stimuli/001029_2014-06-08_13-17-57_260595134347_rgbf000065-resize_1/001029_2014-06-08_13-17-57_260595134347_rgbf000065-resize_1-target.png,250,3.0835,5,2215,249,meters,jsons/v1_VE250_randls_61.json,647216,915536,1989,Man
151,649317,DepthScenes,duration_manipulation_targetAtFixation,jsons/v1_VE250_randls_61.json,http://54.235.29.9/FacialAge/BNav_EC2/DepthDuration/v2_depth_duration_MTurk/v2_DepthDuration_HTML.html#381,381,1600,757,1600,900,0-23-2023,12-28-38,152,depth_duration_stimuli/000677_2014-06-08_23-10-32_260595134347_rgbf000158-resize_6/000677_2014-06-08_23-10-32_260595134347_rgbf000158-resize_6-target.png,250,3.556,5,2128,236,meters,jsons/v1_VE250_randls_61.json,647216,915536,1989,Man
152,649317,DepthScenes,duration_manipulation_targetAtFixation,jsons/v1_VE250_randls_61.json,http://54.235.29.9/FacialAge/BNav_EC2/DepthDuration/v2_depth_duration_MTurk/v2_DepthDuration_HTML.html#381,381,1600,757,1600,900,0-23-2023,12-28-38,153,depth_duration_stimuli/001199_2014-06-17_16-03-48_260595134347_rgbf000077-resize_0/001199_2014-06-17_16-03-48_260595134347_rgbf000077-resize_0-target.png,250,3.4375,5,2468,254,meters,jsons/v1_VE250_randls_61.json,647216,915536,1989,Man
153,649317,DepthScenes,duration_manipulation_targetAtFixation,jsons/v1_VE250_randls_61.json,http://54.235.29.9/FacialAge/BNav_EC2/DepthDuration/v2_depth_duration_MTurk/v2_DepthDuration_HTML.html#381,381,1600,757,1600,900,0-23-2023,12-28-38,154,depth_duration_stimuli/000502_2014-06-08_23-02-32_260595134347_rgbf000063-resize_4/000502_2014-06-08_23-02-32_260595134347_rgbf000063-resize_4-target.png,250,2.431,5,2463,234,meters,jsons/v1_VE250_randls_61.json,647216,915536,1989,Man
154,649317,DepthScenes,duration_manipulation_targetAtFixation,jsons/v1_VE250_randls_61.json,http://54.235.29.9/FacialAge/BNav_EC2/DepthDuration/v2_depth_duration_MTurk/v2_DepthDuration_HTML.html#381,381,1600,757,1600,900,0-23-2023,12-28-38,155,depth_duration_stimuli/001092_2014-06-15_17-34-58_260595134347_rgbf000171-resize_3/001092_2014-06-15_17-34-58_260595134347_rgbf000171-resize_3-target.png,250,2.6935,5,2255,250,meters,jsons/v1_VE250_randls_61.json,647216,915536,1989,Man
155,649317,DepthScenes,duration_manipulation_targetAtFixation,jsons/v1_VE250_randls_61.json,http://54.235.29.9/FacialAge/BNav_EC2/DepthDuration/v2_depth_duration_MTurk/v2_DepthDuration_HTML.html#381,381,1600,757,1600,900,0-23-2023,12-28-38,156,depth_duration_stimuli/002545_2014-06-24_13-38-53_094959634447_rgbf000080-resize_4/002545_2014-06-24_13-38-53_094959634447_rgbf000080-resize_4-target.png,250,1.9205,5,2012,248,meters,jsons/v1_VE250_randls_61.json,647216,915536,1989,Man
156,649317,DepthScenes,duration_manipulation_targetAtFixation,jsons/v1_VE250_randls_61.json,http://54.235.29.9/FacialAge/BNav_EC2/DepthDuration/v2_depth_duration_MTurk/v2_DepthDuration_HTML.html#381,381,1600,757,1600,900,0-23-2023,12-28-38,157,depth_duration_stimuli/002279_2014-06-28_18-55-32_260595134347_rgbf000040-resize_5/002279_2014-06-28_18-55-32_260595134347_rgbf000040-resize_5-target.png,250,1.5043333333333,5,2501,248,meters,jsons/v1_VE250_randls_61.json,647216,915536,1989,Man
157,649317,DepthScenes,duration_manipulation_targetAtFixation,jsons/v1_VE250_randls_61.json,http://54.235.29.9/FacialAge/BNav_EC2/DepthDuration/v2_depth_duration_MTurk/v2_DepthDuration_HTML.html#381,381,1600,757,1600,900,0-23-2023,12-28-38,158,depth_duration_stimuli/000635_2014-06-08_16-38-42_260595134347_rgbf000106-resize_1/000635_2014-06-08_16-38-42_260595134347_rgbf000106-resize_1-target.png,250,2.074,5,1950,250,meters,jsons/v1_VE250_randls_61.json,647216,915536,1989,Man
158,649317,DepthScenes,duration_manipulation_targetAtFixation,jsons/v1_VE250_randls_61.json,http://54.235.29.9/FacialAge/BNav_EC2/DepthDuration/v2_depth_duration_MTurk/v2_DepthDuration_HTML.html#381,381,1600,757,1600,900,0-23-2023,12-28-38,159,depth_duration_stimuli/002153_2014-06-25_21-27-18_260595134347_rgbf000038-resize_5/002153_2014-06-25_21-27-18_260595134347_rgbf000038-resize_5-target.png,250,2.505,5,2354,266,meters,jsons/v1_VE250_randls_61.json,647216,915536,1989,Man
159,649317,DepthScenes,duration_manipulation_targetAtFixation,jsons/v1_VE250_randls_61.json,http://54.235.29.9/FacialAge/BNav_EC2/DepthDuration/v2_depth_duration_MTurk/v2_DepthDuration_HTML.html#381,381,1600,757,1600,900,0-23-2023,12-28-38,160,depth_duration_stimuli/002660_2014-06-13_15-44-18_094959634447_rgbf001878-resize_2/002660_2014-06-13_15-44-18_094959634447_rgbf001878-resize_2-target.png,250,3.576,5,1742,233,meters,jsons/v1_VE250_randls_61.json,647216,915536,1989,Man
160,649317,DepthScenes,duration_manipulation_targetAtFixation,jsons/v1_VE250_randls_61.json,http://54.235.29.9/FacialAge/BNav_EC2/DepthDuration/v2_depth_duration_MTurk/v2_DepthDuration_HTML.html#381,381,1600,757,1600,900,0-23-2023,12-28-38,161,depth_duration_stimuli/000493_2014-06-09_21-01-18_260595134347_rgbf000196-resize_3/000493_2014-06-09_21-01-18_260595134347_rgbf000196-resize_3-target.png,250,3.44,5,2413,251,meters,jsons/v1_VE250_randls_61.json,647216,915536,1989,Man
161,649317,DepthScenes,duration_manipulation_targetAtFixation,jsons/v1_VE250_randls_61.json,http://54.235.29.9/FacialAge/BNav_EC2/DepthDuration/v2_depth_duration_MTurk/v2_DepthDuration_HTML.html#381,381,1600,757,1600,900,0-23-2023,12-28-38,162,depth_duration_stimuli/000191_2014-05-12_17-07-38_260595134347_rgbf000199-resize_0/000191_2014-05-12_17-07-38_260595134347_rgbf000199-resize_0-target.png,250,3.7995,5,1850,250,meters,jsons/v1_VE250_randls_61.json,647216,915536,1989,Man
162,649317,DepthScenes,duration_manipulation_targetAtFixation,jsons/v1_VE250_randls_61.json,http://54.235.29.9/FacialAge/BNav_EC2/DepthDuration/v2_depth_duration_MTurk/v2_DepthDuration_HTML.html#381,381,1600,757,1600,900,0-23-2023,12-28-38,163,depth_duration_stimuli/000739_2014-06-08_18-45-58_260595134347_rgbf000068-resize_1/000739_2014-06-08_18-45-58_260595134347_rgbf000068-resize_1-target.png,250,3.534,5,2196,250,meters,jsons/v1_VE250_randls_61.json,647216,915536,1989,Man
163,649317,DepthScenes,duration_manipulation_targetAtFixation,jsons/v1_VE250_randls_61.json,http://54.235.29.9/FacialAge/BNav_EC2/DepthDuration/v2_depth_duration_MTurk/v2_DepthDuration_HTML.html#381,381,1600,757,1600,900,0-23-2023,12-28-38,164,depth_duration_stimuli/000734_2014-06-08_17-39-11_260595134347_rgbf000128-resize_2/000734_2014-06-08_17-39-11_260595134347_rgbf000128-resize_2-target.png,250,4.098,5,2069,249,meters,jsons/v1_VE250_randls_61.json,647216,915536,1989,Man
