,subjID,experimentName,versionName,sequenceName,url,selected_row,windowWidth,windowHeight,screenWidth,screenHeight,startDate,startTime,trial,stimulus,duration,actual_depth,depth_estimate,trial_RT,log_sceneDuration,unitSelection,seq_filepath,experimentTime,totalTime,age,gender
0,653002,DepthScenes,duration_manipulation_targetAtFixation,jsons/v1_VE1000_randls_24_rotated.json,http://54.235.29.9/FacialAge/BNav_EC2/DepthDuration/v2_depth_duration_MTurk/v2_DepthDuration_HTML.html#219,219,1536,864,1536,864,8-30-2022,9-16-19,1,depth_duration_stimuli/000457_2014-06-08_16-52-43_260595134347_rgbf000199-resize_1/000457_2014-06-08_16-52-43_260595134347_rgbf000199-resize_1-target.png,1000,3.6489999999999996,15,4693,987,feet,jsons/v1_VE1000_randls_24_rotated.json,801063,1041840,43,Man
1,653002,DepthScenes,duration_manipulation_targetAtFixation,jsons/v1_VE1000_randls_24_rotated.json,http://54.235.29.9/FacialAge/BNav_EC2/DepthDuration/v2_depth_duration_MTurk/v2_DepthDuration_HTML.html#219,219,1536,864,1536,864,8-30-2022,9-16-19,2,depth_duration_stimuli/000929_2014-06-09_16-33-19_260595134347_rgbf000139-resize_0/000929_2014-06-09_16-33-19_260595134347_rgbf000139-resize_0-target.png,1000,2.8680000000000003,11,6328,988,feet,jsons/v1_VE1000_randls_24_rotated.json,801063,1041840,43,Man
2,653002,DepthScenes,duration_manipulation_targetAtFixation,jsons/v1_VE1000_randls_24_rotated.json,http://54.235.29.9/FacialAge/BNav_EC2/DepthDuration/v2_depth_duration_MTurk/v2_DepthDuration_HTML.html#219,219,1536,864,1536,864,8-30-2022,9-16-19,3,depth_duration_stimuli/003587_2014-05-23_16-48-02_094959634447_rgbf002384-resize_2/003587_2014-05-23_16-48-02_094959634447_rgbf002384-resize_2-target.png,1000,1.357,3,3360,995,feet,jsons/v1_VE1000_randls_24_rotated.json,801063,1041840,43,Man
3,653002,DepthScenes,duration_manipulation_targetAtFixation,jsons/v1_VE1000_randls_24_rotated.json,http://54.235.29.9/FacialAge/BNav_EC2/DepthDuration/v2_depth_duration_MTurk/v2_DepthDuration_HTML.html#219,219,1536,864,1536,864,8-30-2022,9-16-19,4,depth_duration_stimuli/001167_2014-06-17_15-38-07_260595134347_rgbf000108-resize_0/001167_2014-06-17_15-38-07_260595134347_rgbf000108-resize_0-target.png,1000,1.8505,6,3387,1015,feet,jsons/v1_VE1000_randls_24_rotated.json,801063,1041840,43,Man
4,653002,DepthScenes,duration_manipulation_targetAtFixation,jsons/v1_VE1000_randls_24_rotated.json,http://54.235.29.9/FacialAge/BNav_EC2/DepthDuration/v2_depth_duration_MTurk/v2_DepthDuration_HTML.html#219,219,1536,864,1536,864,8-30-2022,9-16-19,5,depth_duration_stimuli/000137_2014-05-20_17-04-49_260595134347_rgbf000120-resize_1/000137_2014-05-20_17-04-49_260595134347_rgbf000120-resize_1-target.png,1000,3.786,15,3917,1001,feet,jsons/v1_VE1000_randls_24_rotated.json,801063,1041840,43,Man
5,653002,DepthScenes,duration_manipulation_targetAtFixation,jsons/v1_VE1000_randls_24_rotated.json,http://54.235.29.9/FacialAge/BNav_EC2/DepthDuration/v2_depth_duration_MTurk/v2_DepthDuration_HTML.html#219,219,1536,864,1536,864,8-30-2022,9-16-19,6,depth_duration_stimuli/000736_2014-06-08_18-24-15_260595134347_rgbf000206-resize_3/000736_2014-06-08_18-24-15_260595134347_rgbf000206-resize_3-target.png,1000,3.515,9,4047,996,feet,jsons/v1_VE1000_randls_24_rotated.json,801063,1041840,43,Man
6,653002,DepthScenes,duration_manipulation_targetAtFixation,jsons/v1_VE1000_randls_24_rotated.json,http://54.235.29.9/FacialAge/BNav_EC2/DepthDuration/v2_depth_duration_MTurk/v2_DepthDuration_HTML.html#219,219,1536,864,1536,864,8-30-2022,9-16-19,7,depth_duration_stimuli/000927_2014-06-09_16-32-30_260595134347_rgbf000123-resize_3/000927_2014-06-09_16-32-30_260595134347_rgbf000123-resize_3-target.png,1000,2.6785,14,5038,995,feet,jsons/v1_VE1000_randls_24_rotated.json,801063,1041840,43,Man
7,653002,DepthScenes,duration_manipulation_targetAtFixation,jsons/v1_VE1000_randls_24_rotated.json,http://54.235.29.9/FacialAge/BNav_EC2/DepthDuration/v2_depth_duration_MTurk/v2_DepthDuration_HTML.html#219,219,1536,864,1536,864,8-30-2022,9-16-19,8,depth_duration_stimuli/001110_2014-06-15_17-25-28_260595134347_rgbf000150-resize_1/001110_2014-06-15_17-25-28_260595134347_rgbf000150-resize_1-target.png,1000,1.7115,7,3514,1000,feet,jsons/v1_VE1000_randls_24_rotated.json,801063,1041840,43,Man
8,653002,DepthScenes,duration_manipulation_targetAtFixation,jsons/v1_VE1000_randls_24_rotated.json,http://54.235.29.9/FacialAge/BNav_EC2/DepthDuration/v2_depth_duration_MTurk/v2_DepthDuration_HTML.html#219,219,1536,864,1536,864,8-30-2022,9-16-19,9,depth_duration_stimuli/002657_2014-06-13_15-29-54_094959634447_rgbf000150-resize_1/002657_2014-06-13_15-29-54_094959634447_rgbf000150-resize_1-target.png,1000,4.919,16,4161,997,feet,jsons/v1_VE1000_randls_24_rotated.json,801063,1041840,43,Man
9,653002,DepthScenes,duration_manipulation_targetAtFixation,jsons/v1_VE1000_randls_24_rotated.json,http://54.235.29.9/FacialAge/BNav_EC2/DepthDuration/v2_depth_duration_MTurk/v2_DepthDuration_HTML.html#219,219,1536,864,1536,864,8-30-2022,9-16-19,10,depth_duration_stimuli/002375_2014-06-28_20-13-44_260595134347_rgbf000032-resize_1/002375_2014-06-28_20-13-44_260595134347_rgbf000032-resize_1-target.png,1000,4.0175,9,3695,999,feet,jsons/v1_VE1000_randls_24_rotated.json,801063,1041840,43,Man
10,653002,DepthScenes,duration_manipulation_targetAtFixation,jsons/v1_VE1000_randls_24_rotated.json,http://54.235.29.9/FacialAge/BNav_EC2/DepthDuration/v2_depth_duration_MTurk/v2_DepthDuration_HTML.html#219,219,1536,864,1536,864,8-30-2022,9-16-19,11,depth_duration_stimuli/000409_2014-06-04_19-23-33_260595134347_rgbf000067-resize_0/000409_2014-06-04_19-23-33_260595134347_rgbf000067-resize_0-target.png,1000,3.7335,13,5211,1001,feet,jsons/v1_VE1000_randls_24_rotated.json,801063,1041840,43,Man
11,653002,DepthScenes,duration_manipulation_targetAtFixation,jsons/v1_VE1000_randls_24_rotated.json,http://54.235.29.9/FacialAge/BNav_EC2/DepthDuration/v2_depth_duration_MTurk/v2_DepthDuration_HTML.html#219,219,1536,864,1536,864,8-30-2022,9-16-19,12,depth_duration_stimuli/002663_2014-06-13_15-50-26_094959634447_rgbf000075-resize_1/002663_2014-06-13_15-50-26_094959634447_rgbf000075-resize_1-target.png,1000,4.7495,25,7247,998,feet,jsons/v1_VE1000_randls_24_rotated.json,801063,1041840,43,Man
12,653002,DepthScenes,duration_manipulation_targetAtFixation,jsons/v1_VE1000_randls_24_rotated.json,http://54.235.29.9/FacialAge/BNav_EC2/DepthDuration/v2_depth_duration_MTurk/v2_DepthDuration_HTML.html#219,219,1536,864,1536,864,8-30-2022,9-16-19,13,depth_duration_stimuli/000780_2014-06-08_22-28-29_260595134347_rgbf000126-resize_1/000780_2014-06-08_22-28-29_260595134347_rgbf000126-resize_1-target.png,1000,3.3825,14,4639,997,feet,jsons/v1_VE1000_randls_24_rotated.json,801063,1041840,43,Man
13,653002,DepthScenes,duration_manipulation_targetAtFixation,jsons/v1_VE1000_randls_24_rotated.json,http://54.235.29.9/FacialAge/BNav_EC2/DepthDuration/v2_depth_duration_MTurk/v2_DepthDuration_HTML.html#219,219,1536,864,1536,864,8-30-2022,9-16-19,14,depth_duration_stimuli/002445_2014-06-28_20-32-16_260595134347_rgbf000029-resize_4/002445_2014-06-28_20-32-16_260595134347_rgbf000029-resize_4-target.png,1000,2.5315,6,3595,1000,feet,jsons/v1_VE1000_randls_24_rotated.json,801063,1041840,43,Man
14,653002,DepthScenes,duration_manipulation_targetAtFixation,jsons/v1_VE1000_randls_24_rotated.json,http://54.235.29.9/FacialAge/BNav_EC2/DepthDuration/v2_depth_duration_MTurk/v2_DepthDuration_HTML.html#219,219,1536,864,1536,864,8-30-2022,9-16-19,15,depth_duration_stimuli/001100_2014-06-15_17-46-26_260595134347_rgbf000225-resize_2/001100_2014-06-15_17-46-26_260595134347_rgbf000225-resize_2-target.png,1000,2.24,3,3255,999,feet,jsons/v1_VE1000_randls_24_rotated.json,801063,1041840,43,Man
15,653002,DepthScenes,duration_manipulation_targetAtFixation,jsons/v1_VE1000_randls_24_rotated.json,http://54.235.29.9/FacialAge/BNav_EC2/DepthDuration/v2_depth_duration_MTurk/v2_DepthDuration_HTML.html#219,219,1536,864,1536,864,8-30-2022,9-16-19,16,depth_duration_stimuli/002784_2014-06-22_19-26-30_094959634447_rgbf000083-resize_3/002784_2014-06-22_19-26-30_094959634447_rgbf000083-resize_3-target.png,1000,1.8046666666667,4,3144,1011,feet,jsons/v1_VE1000_randls_24_rotated.json,801063,1041840,43,Man
16,653002,DepthScenes,duration_manipulation_targetAtFixation,jsons/v1_VE1000_randls_24_rotated.json,http://54.235.29.9/FacialAge/BNav_EC2/DepthDuration/v2_depth_duration_MTurk/v2_DepthDuration_HTML.html#219,219,1536,864,1536,864,8-30-2022,9-16-19,17,depth_duration_stimuli/000556_2014-06-09_22-42-56_260595134347_rgbf000214-resize_1/000556_2014-06-09_22-42-56_260595134347_rgbf000214-resize_1-target.png,1000,4.8415,16,4173,994,feet,jsons/v1_VE1000_randls_24_rotated.json,801063,1041840,43,Man
17,653002,DepthScenes,duration_manipulation_targetAtFixation,jsons/v1_VE1000_randls_24_rotated.json,http://54.235.29.9/FacialAge/BNav_EC2/DepthDuration/v2_depth_duration_MTurk/v2_DepthDuration_HTML.html#219,219,1536,864,1536,864,8-30-2022,9-16-19,18,depth_duration_stimuli/001158_2014-06-17_15-32-16_260595134347_rgbf000138-resize_2/001158_2014-06-17_15-32-16_260595134347_rgbf000138-resize_2-target.png,1000,4.5315,15,4947,1000,feet,jsons/v1_VE1000_randls_24_rotated.json,801063,1041840,43,Man
18,653002,DepthScenes,duration_manipulation_targetAtFixation,jsons/v1_VE1000_randls_24_rotated.json,http://54.235.29.9/FacialAge/BNav_EC2/DepthDuration/v2_depth_duration_MTurk/v2_DepthDuration_HTML.html#219,219,1536,864,1536,864,8-30-2022,9-16-19,19,depth_duration_stimuli/001498_2014-06-19_17-45-14_260595134347_rgbf000129-resize_4/001498_2014-06-19_17-45-14_260595134347_rgbf000129-resize-original.jpg,1000,1.4075,0,3292,1000,feet,jsons/v1_VE1000_randls_24_rotated.json,801063,1041840,43,Man
19,653002,DepthScenes,duration_manipulation_targetAtFixation,jsons/v1_VE1000_randls_24_rotated.json,http://54.235.29.9/FacialAge/BNav_EC2/DepthDuration/v2_depth_duration_MTurk/v2_DepthDuration_HTML.html#219,219,1536,864,1536,864,8-30-2022,9-16-19,20,depth_duration_stimuli/000709_2014-06-08_13-51-55_260595134347_rgbf000068-resize_3/000709_2014-06-08_13-51-55_260595134347_rgbf000068-resize_3-target.png,1000,1.8030000000000002,5,3547,1010,feet,jsons/v1_VE1000_randls_24_rotated.json,801063,1041840,43,Man
20,653002,DepthScenes,duration_manipulation_targetAtFixation,jsons/v1_VE1000_randls_24_rotated.json,http://54.235.29.9/FacialAge/BNav_EC2/DepthDuration/v2_depth_duration_MTurk/v2_DepthDuration_HTML.html#219,219,1536,864,1536,864,8-30-2022,9-16-19,21,depth_duration_stimuli/002057_2014-06-24_21-00-13_260595134347_rgbf000120-resize_1/002057_2014-06-24_21-00-13_260595134347_rgbf000120-resize_1-target.png,1000,2.967,16,4686,994,feet,jsons/v1_VE1000_randls_24_rotated.json,801063,1041840,43,Man
21,653002,DepthScenes,duration_manipulation_targetAtFixation,jsons/v1_VE1000_randls_24_rotated.json,http://54.235.29.9/FacialAge/BNav_EC2/DepthDuration/v2_depth_duration_MTurk/v2_DepthDuration_HTML.html#219,219,1536,864,1536,864,8-30-2022,9-16-19,22,depth_duration_stimuli/002444_2014-06-28_20-32-08_260595134347_rgbf000027-resize_0/002444_2014-06-28_20-32-08_260595134347_rgbf000027-resize_0-target.png,1000,4.388999999999999,12,3491,1012,feet,jsons/v1_VE1000_randls_24_rotated.json,801063,1041840,43,Man
22,653002,DepthScenes,duration_manipulation_targetAtFixation,jsons/v1_VE1000_randls_24_rotated.json,http://54.235.29.9/FacialAge/BNav_EC2/DepthDuration/v2_depth_duration_MTurk/v2_DepthDuration_HTML.html#219,219,1536,864,1536,864,8-30-2022,9-16-19,23,depth_duration_stimuli/000436_2014-06-09_22-25-11_260595134347_rgbf000137-resize_1/000436_2014-06-09_22-25-11_260595134347_rgbf000137-resize_1-target.png,1000,4.0705,20,4399,999,feet,jsons/v1_VE1000_randls_24_rotated.json,801063,1041840,43,Man
23,653002,DepthScenes,duration_manipulation_targetAtFixation,jsons/v1_VE1000_randls_24_rotated.json,http://54.235.29.9/FacialAge/BNav_EC2/DepthDuration/v2_depth_duration_MTurk/v2_DepthDuration_HTML.html#219,219,1536,864,1536,864,8-30-2022,9-16-19,24,depth_duration_stimuli/000854_2014-06-09_19-43-13_260595134347_rgbf000066-resize_0/000854_2014-06-09_19-43-13_260595134347_rgbf000066-resize_0-target.png,1000,3.068,6,4538,1008,feet,jsons/v1_VE1000_randls_24_rotated.json,801063,1041840,43,Man
24,653002,DepthScenes,duration_manipulation_targetAtFixation,jsons/v1_VE1000_randls_24_rotated.json,http://54.235.29.9/FacialAge/BNav_EC2/DepthDuration/v2_depth_duration_MTurk/v2_DepthDuration_HTML.html#219,219,1536,864,1536,864,8-30-2022,9-16-19,25,depth_duration_stimuli/000758_2014-06-08_22-05-08_260595134347_rgbf000085-resize_0/000758_2014-06-08_22-05-08_260595134347_rgbf000085-resize_0-target.png,1000,3.3810000000000002,18,4397,986,feet,jsons/v1_VE1000_randls_24_rotated.json,801063,1041840,43,Man
25,653002,DepthScenes,duration_manipulation_targetAtFixation,jsons/v1_VE1000_randls_24_rotated.json,http://54.235.29.9/FacialAge/BNav_EC2/DepthDuration/v2_depth_duration_MTurk/v2_DepthDuration_HTML.html#219,219,1536,864,1536,864,8-30-2022,9-16-19,26,depth_duration_stimuli/001032_2014-06-08_13-23-17_260595134347_rgbf000021-resize_3/001032_2014-06-08_13-23-17_260595134347_rgbf000021-resize_3-target.png,1000,3.2725,7,3624,997,feet,jsons/v1_VE1000_randls_24_rotated.json,801063,1041840,43,Man
26,653002,DepthScenes,duration_manipulation_targetAtFixation,jsons/v1_VE1000_randls_24_rotated.json,http://54.235.29.9/FacialAge/BNav_EC2/DepthDuration/v2_depth_duration_MTurk/v2_DepthDuration_HTML.html#219,219,1536,864,1536,864,8-30-2022,9-16-19,27,depth_duration_stimuli/001059_2014-06-08_21-53-27_260595134347_rgbf000061-resize_4/001059_2014-06-08_21-53-27_260595134347_rgbf000061-resize_4-target.png,1000,2.4185,5,3393,1004,feet,jsons/v1_VE1000_randls_24_rotated.json,801063,1041840,43,Man
27,653002,DepthScenes,duration_manipulation_targetAtFixation,jsons/v1_VE1000_randls_24_rotated.json,http://54.235.29.9/FacialAge/BNav_EC2/DepthDuration/v2_depth_duration_MTurk/v2_DepthDuration_HTML.html#219,219,1536,864,1536,864,8-30-2022,9-16-19,28,depth_duration_stimuli/003490_2014-05-21_15-50-11_094959634447_rgbf000101-resize_3/003490_2014-05-21_15-50-11_094959634447_rgbf000101-resize_3-target.png,1000,3.6445,8,3383,1005,feet,jsons/v1_VE1000_randls_24_rotated.json,801063,1041840,43,Man
28,653002,DepthScenes,duration_manipulation_targetAtFixation,jsons/v1_VE1000_randls_24_rotated.json,http://54.235.29.9/FacialAge/BNav_EC2/DepthDuration/v2_depth_duration_MTurk/v2_DepthDuration_HTML.html#219,219,1536,864,1536,864,8-30-2022,9-16-19,29,depth_duration_stimuli/001175_2014-06-17_15-45-55_260595134347_rgbf000129-resize_4/001175_2014-06-17_15-45-55_260595134347_rgbf000129-resize_4-target.png,1000,4.255,18,4613,998,feet,jsons/v1_VE1000_randls_24_rotated.json,801063,1041840,43,Man
29,653002,DepthScenes,duration_manipulation_targetAtFixation,jsons/v1_VE1000_randls_24_rotated.json,http://54.235.29.9/FacialAge/BNav_EC2/DepthDuration/v2_depth_duration_MTurk/v2_DepthDuration_HTML.html#219,219,1536,864,1536,864,8-30-2022,9-16-19,30,depth_duration_stimuli/002072_2014-06-24_21-48-06_260595134347_rgbf000115-resize_0/002072_2014-06-24_21-48-06_260595134347_rgbf000115-resize-original.jpg,1000,4.702,0,4804,984,feet,jsons/v1_VE1000_randls_24_rotated.json,801063,1041840,43,Man
30,653002,DepthScenes,duration_manipulation_targetAtFixation,jsons/v1_VE1000_randls_24_rotated.json,http://54.235.29.9/FacialAge/BNav_EC2/DepthDuration/v2_depth_duration_MTurk/v2_DepthDuration_HTML.html#219,219,1536,864,1536,864,8-30-2022,9-16-19,31,depth_duration_stimuli/000103_2014-05-14_22-01-17_260595134347_rgbf000152-resize_5/000103_2014-05-14_22-01-17_260595134347_rgbf000152-resize_5-target.png,1000,1.993,7,3805,1000,feet,jsons/v1_VE1000_randls_24_rotated.json,801063,1041840,43,Man
31,653002,DepthScenes,duration_manipulation_targetAtFixation,jsons/v1_VE1000_randls_24_rotated.json,http://54.235.29.9/FacialAge/BNav_EC2/DepthDuration/v2_depth_duration_MTurk/v2_DepthDuration_HTML.html#219,219,1536,864,1536,864,8-30-2022,9-16-19,32,depth_duration_stimuli/001555_2014-06-20_17-12-10_260595134347_rgbf000065-resize_4/001555_2014-06-20_17-12-10_260595134347_rgbf000065-resize_4-target.png,1000,1.633,3,3877,987,feet,jsons/v1_VE1000_randls_24_rotated.json,801063,1041840,43,Man
32,653002,DepthScenes,duration_manipulation_targetAtFixation,jsons/v1_VE1000_randls_24_rotated.json,http://54.235.29.9/FacialAge/BNav_EC2/DepthDuration/v2_depth_duration_MTurk/v2_DepthDuration_HTML.html#219,219,1536,864,1536,864,8-30-2022,9-16-19,33,depth_duration_stimuli/002875_2014-06-01_15-19-00_094959634447_rgbf000151-resize_1/002875_2014-06-01_15-19-00_094959634447_rgbf000151-resize_1-target.png,1000,1.9675,2,3276,985,feet,jsons/v1_VE1000_randls_24_rotated.json,801063,1041840,43,Man
33,653002,DepthScenes,duration_manipulation_targetAtFixation,jsons/v1_VE1000_randls_24_rotated.json,http://54.235.29.9/FacialAge/BNav_EC2/DepthDuration/v2_depth_duration_MTurk/v2_DepthDuration_HTML.html#219,219,1536,864,1536,864,8-30-2022,9-16-19,34,depth_duration_stimuli/001011_2014-06-08_23-18-54_260595134347_rgbf000044-resize_4/001011_2014-06-08_23-18-54_260595134347_rgbf000044-resize_4-target.png,1000,2.4730000000000003,8,3755,992,feet,jsons/v1_VE1000_randls_24_rotated.json,801063,1041840,43,Man
34,653002,DepthScenes,duration_manipulation_targetAtFixation,jsons/v1_VE1000_randls_24_rotated.json,http://54.235.29.9/FacialAge/BNav_EC2/DepthDuration/v2_depth_duration_MTurk/v2_DepthDuration_HTML.html#219,219,1536,864,1536,864,8-30-2022,9-16-19,35,depth_duration_stimuli/003129_2014-05-12_10-48-10_094959634447_rgbf000100-resize_0/003129_2014-05-12_10-48-10_094959634447_rgbf000100-resize_0-target.png,1000,4.9305,8,3777,999,feet,jsons/v1_VE1000_randls_24_rotated.json,801063,1041840,43,Man
35,653002,DepthScenes,duration_manipulation_targetAtFixation,jsons/v1_VE1000_randls_24_rotated.json,http://54.235.29.9/FacialAge/BNav_EC2/DepthDuration/v2_depth_duration_MTurk/v2_DepthDuration_HTML.html#219,219,1536,864,1536,864,8-30-2022,9-16-19,36,depth_duration_stimuli/000414_2014-06-04_19-49-13_260595134347_rgbf000044-resize_0/000414_2014-06-04_19-49-13_260595134347_rgbf000044-resize_0-target.png,1000,4.329,12,4304,997,feet,jsons/v1_VE1000_randls_24_rotated.json,801063,1041840,43,Man
36,653002,DepthScenes,duration_manipulation_targetAtFixation,jsons/v1_VE1000_randls_24_rotated.json,http://54.235.29.9/FacialAge/BNav_EC2/DepthDuration/v2_depth_duration_MTurk/v2_DepthDuration_HTML.html#219,219,1536,864,1536,864,8-30-2022,9-16-19,37,depth_duration_stimuli/000665_2014-06-09_20-42-35_260595134347_rgbf000110-resize_1/000665_2014-06-09_20-42-35_260595134347_rgbf000110-resize_1-target.png,1000,3.057,10,4311,988,feet,jsons/v1_VE1000_randls_24_rotated.json,801063,1041840,43,Man
37,653002,DepthScenes,duration_manipulation_targetAtFixation,jsons/v1_VE1000_randls_24_rotated.json,http://54.235.29.9/FacialAge/BNav_EC2/DepthDuration/v2_depth_duration_MTurk/v2_DepthDuration_HTML.html#219,219,1536,864,1536,864,8-30-2022,9-16-19,38,depth_duration_stimuli/001150_2014-06-17_15-27-34_260595134347_rgbf000108-resize_2/001150_2014-06-17_15-27-34_260595134347_rgbf000108-resize_2-target.png,1000,4.0325,12,4028,1006,feet,jsons/v1_VE1000_randls_24_rotated.json,801063,1041840,43,Man
38,653002,DepthScenes,duration_manipulation_targetAtFixation,jsons/v1_VE1000_randls_24_rotated.json,http://54.235.29.9/FacialAge/BNav_EC2/DepthDuration/v2_depth_duration_MTurk/v2_DepthDuration_HTML.html#219,219,1536,864,1536,864,8-30-2022,9-16-19,39,depth_duration_stimuli/002639_2014-06-24_14-51-37_094959634447_rgbf000074-resize_4/002639_2014-06-24_14-51-37_094959634447_rgbf000074-resize_4-target.png,1000,4.0375,11,4249,990,feet,jsons/v1_VE1000_randls_24_rotated.json,801063,1041840,43,Man
39,653002,DepthScenes,duration_manipulation_targetAtFixation,jsons/v1_VE1000_randls_24_rotated.json,http://54.235.29.9/FacialAge/BNav_EC2/DepthDuration/v2_depth_duration_MTurk/v2_DepthDuration_HTML.html#219,219,1536,864,1536,864,8-30-2022,9-16-19,40,depth_duration_stimuli/003292_2014-05-14_21-53-49_094959634447_rgbf000100-resize_2/003292_2014-05-14_21-53-49_094959634447_rgbf000100-resize_2-target.png,1000,3.4815,5,3267,986,feet,jsons/v1_VE1000_randls_24_rotated.json,801063,1041840,43,Man
40,653002,DepthScenes,duration_manipulation_targetAtFixation,jsons/v1_VE1000_randls_24_rotated.json,http://54.235.29.9/FacialAge/BNav_EC2/DepthDuration/v2_depth_duration_MTurk/v2_DepthDuration_HTML.html#219,219,1536,864,1536,864,8-30-2022,9-16-19,41,depth_duration_stimuli/000749_2014-06-08_21-55-06_260595134347_rgbf000070-resize_2/000749_2014-06-08_21-55-06_260595134347_rgbf000070-resize_2-target.png,1000,2.331,7,3373,994,feet,jsons/v1_VE1000_randls_24_rotated.json,801063,1041840,43,Man
41,653002,DepthScenes,duration_manipulation_targetAtFixation,jsons/v1_VE1000_randls_24_rotated.json,http://54.235.29.9/FacialAge/BNav_EC2/DepthDuration/v2_depth_duration_MTurk/v2_DepthDuration_HTML.html#219,219,1536,864,1536,864,8-30-2022,9-16-19,42,depth_duration_stimuli/002788_2014-06-22_19-36-03_094959634447_rgbf000088-resize_2/002788_2014-06-22_19-36-03_094959634447_rgbf000088-resize_2-target.png,1000,1.6465,6,3508,1002,feet,jsons/v1_VE1000_randls_24_rotated.json,801063,1041840,43,Man
42,653002,DepthScenes,duration_manipulation_targetAtFixation,jsons/v1_VE1000_randls_24_rotated.json,http://54.235.29.9/FacialAge/BNav_EC2/DepthDuration/v2_depth_duration_MTurk/v2_DepthDuration_HTML.html#219,219,1536,864,1536,864,8-30-2022,9-16-19,43,depth_duration_stimuli/000109_2014-05-14_23-41-52_260595134347_rgbf000035-resize_9/000109_2014-05-14_23-41-52_260595134347_rgbf000035-resize_9-target.png,1000,1.3545,3,3684,985,feet,jsons/v1_VE1000_randls_24_rotated.json,801063,1041840,43,Man
43,653002,DepthScenes,duration_manipulation_targetAtFixation,jsons/v1_VE1000_randls_24_rotated.json,http://54.235.29.9/FacialAge/BNav_EC2/DepthDuration/v2_depth_duration_MTurk/v2_DepthDuration_HTML.html#219,219,1536,864,1536,864,8-30-2022,9-16-19,44,depth_duration_stimuli/000470_2014-06-09_19-42-40_260595134347_rgbf000094-resize_1/000470_2014-06-09_19-42-40_260595134347_rgbf000094-resize_1-target.png,1000,1.831,4,3132,1008,feet,jsons/v1_VE1000_randls_24_rotated.json,801063,1041840,43,Man
44,653002,DepthScenes,duration_manipulation_targetAtFixation,jsons/v1_VE1000_randls_24_rotated.json,http://54.235.29.9/FacialAge/BNav_EC2/DepthDuration/v2_depth_duration_MTurk/v2_DepthDuration_HTML.html#219,219,1536,864,1536,864,8-30-2022,9-16-19,45,depth_duration_stimuli/000691_2014-06-08_13-08-50_260595134347_rgbf000132-resize_3/000691_2014-06-08_13-08-50_260595134347_rgbf000132-resize_3-target.png,1000,4.1530000000000005,10,4745,990,feet,jsons/v1_VE1000_randls_24_rotated.json,801063,1041840,43,Man
45,653002,DepthScenes,duration_manipulation_targetAtFixation,jsons/v1_VE1000_randls_24_rotated.json,http://54.235.29.9/FacialAge/BNav_EC2/DepthDuration/v2_depth_duration_MTurk/v2_DepthDuration_HTML.html#219,219,1536,864,1536,864,8-30-2022,9-16-19,46,depth_duration_stimuli/002213_2014-06-28_18-37-58_260595134347_rgbf000055-resize_1/002213_2014-06-28_18-37-58_260595134347_rgbf000055-resize_1-target.png,1000,3.62,12,3822,996,feet,jsons/v1_VE1000_randls_24_rotated.json,801063,1041840,43,Man
46,653002,DepthScenes,duration_manipulation_targetAtFixation,jsons/v1_VE1000_randls_24_rotated.json,http://54.235.29.9/FacialAge/BNav_EC2/DepthDuration/v2_depth_duration_MTurk/v2_DepthDuration_HTML.html#219,219,1536,864,1536,864,8-30-2022,9-16-19,47,depth_duration_stimuli/002340_2014-06-28_20-05-46_260595134347_rgbf000113-resize_0/002340_2014-06-28_20-05-46_260595134347_rgbf000113-resize_0-target.png,1000,2.4735,12,3427,995,feet,jsons/v1_VE1000_randls_24_rotated.json,801063,1041840,43,Man
47,653002,DepthScenes,duration_manipulation_targetAtFixation,jsons/v1_VE1000_randls_24_rotated.json,http://54.235.29.9/FacialAge/BNav_EC2/DepthDuration/v2_depth_duration_MTurk/v2_DepthDuration_HTML.html#219,219,1536,864,1536,864,8-30-2022,9-16-19,48,depth_duration_stimuli/001016_2014-06-09_16-16-10_260595134347_rgbf000112-resize_5/001016_2014-06-09_16-16-10_260595134347_rgbf000112-resize_5-target.png,1000,1.6565,7,3548,995,feet,jsons/v1_VE1000_randls_24_rotated.json,801063,1041840,43,Man
48,653002,DepthScenes,duration_manipulation_targetAtFixation,jsons/v1_VE1000_randls_24_rotated.json,http://54.235.29.9/FacialAge/BNav_EC2/DepthDuration/v2_depth_duration_MTurk/v2_DepthDuration_HTML.html#219,219,1536,864,1536,864,8-30-2022,9-16-19,49,depth_duration_stimuli/001170_2014-06-17_15-43-44_260595134347_rgbf000096-resize_6/001170_2014-06-17_15-43-44_260595134347_rgbf000096-resize-original.jpg,1000,1.1909999999999998,0,3771,996,feet,jsons/v1_VE1000_randls_24_rotated.json,801063,1041840,43,Man
49,653002,DepthScenes,duration_manipulation_targetAtFixation,jsons/v1_VE1000_randls_24_rotated.json,http://54.235.29.9/FacialAge/BNav_EC2/DepthDuration/v2_depth_duration_MTurk/v2_DepthDuration_HTML.html#219,219,1536,864,1536,864,8-30-2022,9-16-19,50,depth_duration_stimuli/001815_2014-06-26_20-52-55_260595134347_rgbf000020-resize_0/001815_2014-06-26_20-52-55_260595134347_rgbf000020-resize_0-target.png,1000,3.3865,9,5452,1002,feet,jsons/v1_VE1000_randls_24_rotated.json,801063,1041840,43,Man
50,653002,DepthScenes,duration_manipulation_targetAtFixation,jsons/v1_VE1000_randls_24_rotated.json,http://54.235.29.9/FacialAge/BNav_EC2/DepthDuration/v2_depth_duration_MTurk/v2_DepthDuration_HTML.html#219,219,1536,864,1536,864,8-30-2022,9-16-19,51,depth_duration_stimuli/001808_2014-06-26_20-50-58_260595134347_rgbf000029-resize_1/001808_2014-06-26_20-50-58_260595134347_rgbf000029-resize_1-target.png,1000,4.249,11,7056,998,feet,jsons/v1_VE1000_randls_24_rotated.json,801063,1041840,43,Man
51,653002,DepthScenes,duration_manipulation_targetAtFixation,jsons/v1_VE1000_randls_24_rotated.json,http://54.235.29.9/FacialAge/BNav_EC2/DepthDuration/v2_depth_duration_MTurk/v2_DepthDuration_HTML.html#219,219,1536,864,1536,864,8-30-2022,9-16-19,52,depth_duration_stimuli/003338_2014-05-20_11-01-23_094959634447_rgbf000051-resize_6/003338_2014-05-20_11-01-23_094959634447_rgbf000051-resize_6-target.png,1000,1.693,4,3324,1006,feet,jsons/v1_VE1000_randls_24_rotated.json,801063,1041840,43,Man
52,653002,DepthScenes,duration_manipulation_targetAtFixation,jsons/v1_VE1000_randls_24_rotated.json,http://54.235.29.9/FacialAge/BNav_EC2/DepthDuration/v2_depth_duration_MTurk/v2_DepthDuration_HTML.html#219,219,1536,864,1536,864,8-30-2022,9-16-19,53,depth_duration_stimuli/002509_2014-06-24_13-19-22_094959634447_rgbf000077-resize_0/002509_2014-06-24_13-19-22_094959634447_rgbf000077-resize_0-target.png,1000,1.3065,2,3169,998,feet,jsons/v1_VE1000_randls_24_rotated.json,801063,1041840,43,Man
53,653002,DepthScenes,duration_manipulation_targetAtFixation,jsons/v1_VE1000_randls_24_rotated.json,http://54.235.29.9/FacialAge/BNav_EC2/DepthDuration/v2_depth_duration_MTurk/v2_DepthDuration_HTML.html#219,219,1536,864,1536,864,8-30-2022,9-16-19,54,depth_duration_stimuli/001828_2014-06-26_21-40-03_260595134347_rgbf000024-resize_0/001828_2014-06-26_21-40-03_260595134347_rgbf000024-resize_0-target.png,1000,4.8260000000000005,8,3766,1006,feet,jsons/v1_VE1000_randls_24_rotated.json,801063,1041840,43,Man
54,653002,DepthScenes,duration_manipulation_targetAtFixation,jsons/v1_VE1000_randls_24_rotated.json,http://54.235.29.9/FacialAge/BNav_EC2/DepthDuration/v2_depth_duration_MTurk/v2_DepthDuration_HTML.html#219,219,1536,864,1536,864,8-30-2022,9-16-19,55,depth_duration_stimuli/000009_2014-05-26_14-32-05_260595134347_rgbf000034-resize_3/000009_2014-05-26_14-32-05_260595134347_rgbf000034-resize_3-target.png,1000,3.8715,11,3178,1001,feet,jsons/v1_VE1000_randls_24_rotated.json,801063,1041840,43,Man
55,653002,DepthScenes,duration_manipulation_targetAtFixation,jsons/v1_VE1000_randls_24_rotated.json,http://54.235.29.9/FacialAge/BNav_EC2/DepthDuration/v2_depth_duration_MTurk/v2_DepthDuration_HTML.html#219,219,1536,864,1536,864,8-30-2022,9-16-19,56,depth_duration_stimuli/002545_2014-06-24_13-38-53_094959634447_rgbf000080-resize_4/002545_2014-06-24_13-38-53_094959634447_rgbf000080-resize_4-target.png,1000,1.9205,5,3098,995,feet,jsons/v1_VE1000_randls_24_rotated.json,801063,1041840,43,Man
56,653002,DepthScenes,duration_manipulation_targetAtFixation,jsons/v1_VE1000_randls_24_rotated.json,http://54.235.29.9/FacialAge/BNav_EC2/DepthDuration/v2_depth_duration_MTurk/v2_DepthDuration_HTML.html#219,219,1536,864,1536,864,8-30-2022,9-16-19,57,depth_duration_stimuli/001092_2014-06-15_17-34-58_260595134347_rgbf000171-resize_3/001092_2014-06-15_17-34-58_260595134347_rgbf000171-resize_3-target.png,1000,2.6935,6,3235,1002,feet,jsons/v1_VE1000_randls_24_rotated.json,801063,1041840,43,Man
57,653002,DepthScenes,duration_manipulation_targetAtFixation,jsons/v1_VE1000_randls_24_rotated.json,http://54.235.29.9/FacialAge/BNav_EC2/DepthDuration/v2_depth_duration_MTurk/v2_DepthDuration_HTML.html#219,219,1536,864,1536,864,8-30-2022,9-16-19,58,depth_duration_stimuli/000191_2014-05-12_17-07-38_260595134347_rgbf000199-resize_0/000191_2014-05-12_17-07-38_260595134347_rgbf000199-resize_0-target.png,1000,3.7995,9,3235,1000,feet,jsons/v1_VE1000_randls_24_rotated.json,801063,1041840,43,Man
58,653002,DepthScenes,duration_manipulation_targetAtFixation,jsons/v1_VE1000_randls_24_rotated.json,http://54.235.29.9/FacialAge/BNav_EC2/DepthDuration/v2_depth_duration_MTurk/v2_DepthDuration_HTML.html#219,219,1536,864,1536,864,8-30-2022,9-16-19,59,depth_duration_stimuli/000493_2014-06-09_21-01-18_260595134347_rgbf000196-resize_3/000493_2014-06-09_21-01-18_260595134347_rgbf000196-resize_3-target.png,1000,3.44,8,3619,1000,feet,jsons/v1_VE1000_randls_24_rotated.json,801063,1041840,43,Man
59,653002,DepthScenes,duration_manipulation_targetAtFixation,jsons/v1_VE1000_randls_24_rotated.json,http://54.235.29.9/FacialAge/BNav_EC2/DepthDuration/v2_depth_duration_MTurk/v2_DepthDuration_HTML.html#219,219,1536,864,1536,864,8-30-2022,9-16-19,60,depth_duration_stimuli/002637_2014-06-24_14-51-13_094959634447_rgbf000066-resize_4/002637_2014-06-24_14-51-13_094959634447_rgbf000066-resize_4-target.png,1000,1.9955,5,3373,989,feet,jsons/v1_VE1000_randls_24_rotated.json,801063,1041840,43,Man
60,653002,DepthScenes,duration_manipulation_targetAtFixation,jsons/v1_VE1000_randls_24_rotated.json,http://54.235.29.9/FacialAge/BNav_EC2/DepthDuration/v2_depth_duration_MTurk/v2_DepthDuration_HTML.html#219,219,1536,864,1536,864,8-30-2022,9-16-19,61,depth_duration_stimuli/003534_2014-05-22_15-06-10_094959634447_rgbf000102-resize_4/003534_2014-05-22_15-06-10_094959634447_rgbf000102-resize_4-target.png,1000,1.426,3,3488,997,feet,jsons/v1_VE1000_randls_24_rotated.json,801063,1041840,43,Man
61,653002,DepthScenes,duration_manipulation_targetAtFixation,jsons/v1_VE1000_randls_24_rotated.json,http://54.235.29.9/FacialAge/BNav_EC2/DepthDuration/v2_depth_duration_MTurk/v2_DepthDuration_HTML.html#219,219,1536,864,1536,864,8-30-2022,9-16-19,62,depth_duration_stimuli/000742_2014-06-08_18-48-09_260595134347_rgbf000164-resize_4/000742_2014-06-08_18-48-09_260595134347_rgbf000164-resize_4-target.png,1000,4.632,9,3932,1008,feet,jsons/v1_VE1000_randls_24_rotated.json,801063,1041840,43,Man
62,653002,DepthScenes,duration_manipulation_targetAtFixation,jsons/v1_VE1000_randls_24_rotated.json,http://54.235.29.9/FacialAge/BNav_EC2/DepthDuration/v2_depth_duration_MTurk/v2_DepthDuration_HTML.html#219,219,1536,864,1536,864,8-30-2022,9-16-19,63,depth_duration_stimuli/001066_2014-06-08_22-03-20_260595134347_rgbf000066-resize_4/001066_2014-06-08_22-03-20_260595134347_rgbf000066-resize_4-target.png,1000,4.2330000000000005,10,5301,986,feet,jsons/v1_VE1000_randls_24_rotated.json,801063,1041840,43,Man
63,653002,DepthScenes,duration_manipulation_targetAtFixation,jsons/v1_VE1000_randls_24_rotated.json,http://54.235.29.9/FacialAge/BNav_EC2/DepthDuration/v2_depth_duration_MTurk/v2_DepthDuration_HTML.html#219,219,1536,864,1536,864,8-30-2022,9-16-19,64,depth_duration_stimuli/003083_2014-06-15_15-21-03_094959634447_rgbf000063-resize_1/003083_2014-06-15_15-21-03_094959634447_rgbf000063-resize_1-target.png,1000,4.1405,7,4742,1003,feet,jsons/v1_VE1000_randls_24_rotated.json,801063,1041840,43,Man
64,653002,DepthScenes,duration_manipulation_targetAtFixation,jsons/v1_VE1000_randls_24_rotated.json,http://54.235.29.9/FacialAge/BNav_EC2/DepthDuration/v2_depth_duration_MTurk/v2_DepthDuration_HTML.html#219,219,1536,864,1536,864,8-30-2022,9-16-19,65,depth_duration_stimuli/000486_2014-06-09_20-47-20_260595134347_rgbf000143-resize_2/000486_2014-06-09_20-47-20_260595134347_rgbf000143-resize_2-target.png,1000,4.8325,8,3381,992,feet,jsons/v1_VE1000_randls_24_rotated.json,801063,1041840,43,Man
65,653002,DepthScenes,duration_manipulation_targetAtFixation,jsons/v1_VE1000_randls_24_rotated.json,http://54.235.29.9/FacialAge/BNav_EC2/DepthDuration/v2_depth_duration_MTurk/v2_DepthDuration_HTML.html#219,219,1536,864,1536,864,8-30-2022,9-16-19,66,depth_duration_stimuli/001540_2014-06-20_17-01-05_260595134347_rgbf000086-resize_2/001540_2014-06-20_17-01-05_260595134347_rgbf000086-resize-original.jpg,1000,1.459,0,3323,1009,feet,jsons/v1_VE1000_randls_24_rotated.json,801063,1041840,43,Man
66,653002,DepthScenes,duration_manipulation_targetAtFixation,jsons/v1_VE1000_randls_24_rotated.json,http://54.235.29.9/FacialAge/BNav_EC2/DepthDuration/v2_depth_duration_MTurk/v2_DepthDuration_HTML.html#219,219,1536,864,1536,864,8-30-2022,9-16-19,67,depth_duration_stimuli/002425_2014-06-28_20-27-29_260595134347_rgbf000031-resize_8/002425_2014-06-28_20-27-29_260595134347_rgbf000031-resize_8-target.png,1000,3.8960000000000004,7,3728,1001,feet,jsons/v1_VE1000_randls_24_rotated.json,801063,1041840,43,Man
67,653002,DepthScenes,duration_manipulation_targetAtFixation,jsons/v1_VE1000_randls_24_rotated.json,http://54.235.29.9/FacialAge/BNav_EC2/DepthDuration/v2_depth_duration_MTurk/v2_DepthDuration_HTML.html#219,219,1536,864,1536,864,8-30-2022,9-16-19,68,depth_duration_stimuli/000642_2014-06-08_16-59-25_260595134347_rgbf000098-resize_2/000642_2014-06-08_16-59-25_260595134347_rgbf000098-resize_2-target.png,1000,2.8815,7,4173,1008,feet,jsons/v1_VE1000_randls_24_rotated.json,801063,1041840,43,Man
68,653002,DepthScenes,duration_manipulation_targetAtFixation,jsons/v1_VE1000_randls_24_rotated.json,http://54.235.29.9/FacialAge/BNav_EC2/DepthDuration/v2_depth_duration_MTurk/v2_DepthDuration_HTML.html#219,219,1536,864,1536,864,8-30-2022,9-16-19,69,depth_duration_stimuli/001447_2014-06-19_17-00-32_260595134347_rgbf000082-resize_5/001447_2014-06-19_17-00-32_260595134347_rgbf000082-resize_5-target.png,1000,4.13775,4,3343,994,feet,jsons/v1_VE1000_randls_24_rotated.json,801063,1041840,43,Man
69,653002,DepthScenes,duration_manipulation_targetAtFixation,jsons/v1_VE1000_randls_24_rotated.json,http://54.235.29.9/FacialAge/BNav_EC2/DepthDuration/v2_depth_duration_MTurk/v2_DepthDuration_HTML.html#219,219,1536,864,1536,864,8-30-2022,9-16-19,70,depth_duration_stimuli/000447_2014-06-08_16-15-46_260595134347_rgbf000130-resize_1/000447_2014-06-08_16-15-46_260595134347_rgbf000130-resize_1-target.png,1000,4.479,9,7647,998,feet,jsons/v1_VE1000_randls_24_rotated.json,801063,1041840,43,Man
70,653002,DepthScenes,duration_manipulation_targetAtFixation,jsons/v1_VE1000_randls_24_rotated.json,http://54.235.29.9/FacialAge/BNav_EC2/DepthDuration/v2_depth_duration_MTurk/v2_DepthDuration_HTML.html#219,219,1536,864,1536,864,8-30-2022,9-16-19,71,depth_duration_stimuli/003010_2014-06-15_12-54-35_094959634447_rgbf000112-resize_0/003010_2014-06-15_12-54-35_094959634447_rgbf000112-resize_0-target.png,1000,3.1185,8,4208,1001,feet,jsons/v1_VE1000_randls_24_rotated.json,801063,1041840,43,Man
71,653002,DepthScenes,duration_manipulation_targetAtFixation,jsons/v1_VE1000_randls_24_rotated.json,http://54.235.29.9/FacialAge/BNav_EC2/DepthDuration/v2_depth_duration_MTurk/v2_DepthDuration_HTML.html#219,219,1536,864,1536,864,8-30-2022,9-16-19,72,depth_duration_stimuli/001810_2014-06-26_20-51-35_260595134347_rgbf000040-resize_3/001810_2014-06-26_20-51-35_260595134347_rgbf000040-resize_3-target.png,1000,2.2525,5,2954,992,feet,jsons/v1_VE1000_randls_24_rotated.json,801063,1041840,43,Man
72,653002,DepthScenes,duration_manipulation_targetAtFixation,jsons/v1_VE1000_randls_24_rotated.json,http://54.235.29.9/FacialAge/BNav_EC2/DepthDuration/v2_depth_duration_MTurk/v2_DepthDuration_HTML.html#219,219,1536,864,1536,864,8-30-2022,9-16-19,73,depth_duration_stimuli/000734_2014-06-08_17-39-11_260595134347_rgbf000128-resize_2/000734_2014-06-08_17-39-11_260595134347_rgbf000128-resize_2-target.png,1000,4.098,5,2435,1004,feet,jsons/v1_VE1000_randls_24_rotated.json,801063,1041840,43,Man
73,653002,DepthScenes,duration_manipulation_targetAtFixation,jsons/v1_VE1000_randls_24_rotated.json,http://54.235.29.9/FacialAge/BNav_EC2/DepthDuration/v2_depth_duration_MTurk/v2_DepthDuration_HTML.html#219,219,1536,864,1536,864,8-30-2022,9-16-19,74,depth_duration_stimuli/000739_2014-06-08_18-45-58_260595134347_rgbf000068-resize_1/000739_2014-06-08_18-45-58_260595134347_rgbf000068-resize_1-target.png,1000,3.534,6,3018,999,feet,jsons/v1_VE1000_randls_24_rotated.json,801063,1041840,43,Man
74,653002,DepthScenes,duration_manipulation_targetAtFixation,jsons/v1_VE1000_randls_24_rotated.json,http://54.235.29.9/FacialAge/BNav_EC2/DepthDuration/v2_depth_duration_MTurk/v2_DepthDuration_HTML.html#219,219,1536,864,1536,864,8-30-2022,9-16-19,75,depth_duration_stimuli/002949_2014-06-26_15-57-42_094959634447_rgbf000079-resize_1/002949_2014-06-26_15-57-42_094959634447_rgbf000079-resize_1-target.png,1000,1.8915,3,2999,1000,feet,jsons/v1_VE1000_randls_24_rotated.json,801063,1041840,43,Man
75,653002,DepthScenes,duration_manipulation_targetAtFixation,jsons/v1_VE1000_randls_24_rotated.json,http://54.235.29.9/FacialAge/BNav_EC2/DepthDuration/v2_depth_duration_MTurk/v2_DepthDuration_HTML.html#219,219,1536,864,1536,864,8-30-2022,9-16-19,76,depth_duration_stimuli/000522_2014-06-08_13-35-06_260595134347_rgbf000244-resize_1/000522_2014-06-08_13-35-06_260595134347_rgbf000244-resize_1-target.png,1000,2.3715,2,2749,987,feet,jsons/v1_VE1000_randls_24_rotated.json,801063,1041840,43,Man
76,653002,DepthScenes,duration_manipulation_targetAtFixation,jsons/v1_VE1000_randls_24_rotated.json,http://54.235.29.9/FacialAge/BNav_EC2/DepthDuration/v2_depth_duration_MTurk/v2_DepthDuration_HTML.html#219,219,1536,864,1536,864,8-30-2022,9-16-19,77,depth_duration_stimuli/001392_2014-06-19_16-07-59_260595134347_rgbf000046-resize_1/001392_2014-06-19_16-07-59_260595134347_rgbf000046-resize_1-target.png,1000,4.135,8,4072,997,feet,jsons/v1_VE1000_randls_24_rotated.json,801063,1041840,43,Man
77,653002,DepthScenes,duration_manipulation_targetAtFixation,jsons/v1_VE1000_randls_24_rotated.json,http://54.235.29.9/FacialAge/BNav_EC2/DepthDuration/v2_depth_duration_MTurk/v2_DepthDuration_HTML.html#219,219,1536,864,1536,864,8-30-2022,9-16-19,78,depth_duration_stimuli/001570_2014-06-20_17-21-09_260595134347_rgbf000135-resize_4/001570_2014-06-20_17-21-09_260595134347_rgbf000135-resize_4-target.png,1000,4.467,7,3371,1007,feet,jsons/v1_VE1000_randls_24_rotated.json,801063,1041840,43,Man
78,653002,DepthScenes,duration_manipulation_targetAtFixation,jsons/v1_VE1000_randls_24_rotated.json,http://54.235.29.9/FacialAge/BNav_EC2/DepthDuration/v2_depth_duration_MTurk/v2_DepthDuration_HTML.html#219,219,1536,864,1536,864,8-30-2022,9-16-19,79,depth_duration_stimuli/001516_2014-06-20_16-25-09_260595134347_rgbf000076-resize_2/001516_2014-06-20_16-25-09_260595134347_rgbf000076-resize_2-target.png,1000,1.7445,4,4229,1000,feet,jsons/v1_VE1000_randls_24_rotated.json,801063,1041840,43,Man
79,653002,DepthScenes,duration_manipulation_targetAtFixation,jsons/v1_VE1000_randls_24_rotated.json,http://54.235.29.9/FacialAge/BNav_EC2/DepthDuration/v2_depth_duration_MTurk/v2_DepthDuration_HTML.html#219,219,1536,864,1536,864,8-30-2022,9-16-19,80,depth_duration_stimuli/002118_2014-06-25_20-32-08_260595134347_rgbf000078-resize_1/002118_2014-06-25_20-32-08_260595134347_rgbf000078-resize_1-target.png,1000,2.6460000000000004,6,3445,1007,feet,jsons/v1_VE1000_randls_24_rotated.json,801063,1041840,43,Man
80,653002,DepthScenes,duration_manipulation_targetAtFixation,jsons/v1_VE1000_randls_24_rotated.json,http://54.235.29.9/FacialAge/BNav_EC2/DepthDuration/v2_depth_duration_MTurk/v2_DepthDuration_HTML.html#219,219,1536,864,1536,864,8-30-2022,9-16-19,81,depth_duration_stimuli/003423_2014-05-21_10-23-26_094959634447_rgbf002665-resize_2/003423_2014-05-21_10-23-26_094959634447_rgbf002665-resize_2-target.png,1000,3.2575,8,3452,995,feet,jsons/v1_VE1000_randls_24_rotated.json,801063,1041840,43,Man
81,653002,DepthScenes,duration_manipulation_targetAtFixation,jsons/v1_VE1000_randls_24_rotated.json,http://54.235.29.9/FacialAge/BNav_EC2/DepthDuration/v2_depth_duration_MTurk/v2_DepthDuration_HTML.html#219,219,1536,864,1536,864,8-30-2022,9-16-19,82,depth_duration_stimuli/002905_2014-06-03_18-04-43_094959634447_rgbf000151-resize_2/002905_2014-06-03_18-04-43_094959634447_rgbf000151-resize_2-target.png,1000,2.0295,6,3449,1007,feet,jsons/v1_VE1000_randls_24_rotated.json,801063,1041840,43,Man
82,653002,DepthScenes,duration_manipulation_targetAtFixation,jsons/v1_VE1000_randls_24_rotated.json,http://54.235.29.9/FacialAge/BNav_EC2/DepthDuration/v2_depth_duration_MTurk/v2_DepthDuration_HTML.html#219,219,1536,864,1536,864,8-30-2022,9-16-19,83,depth_duration_stimuli/002678_2014-06-13_16-15-32_094959634447_rgbf000151-resize_6/002678_2014-06-13_16-15-32_094959634447_rgbf000151-resize_6-target.png,1000,2.1830000000000003,7,3035,1013,feet,jsons/v1_VE1000_randls_24_rotated.json,801063,1041840,43,Man
83,653002,DepthScenes,duration_manipulation_targetAtFixation,jsons/v1_VE1000_randls_24_rotated.json,http://54.235.29.9/FacialAge/BNav_EC2/DepthDuration/v2_depth_duration_MTurk/v2_DepthDuration_HTML.html#219,219,1536,864,1536,864,8-30-2022,9-16-19,84,depth_duration_stimuli/000368_2014-06-09_15-53-01_260595134347_rgbf000155-resize_2/000368_2014-06-09_15-53-01_260595134347_rgbf000155-resize_2-target.png,1000,2.4859999999999998,5,3092,993,feet,jsons/v1_VE1000_randls_24_rotated.json,801063,1041840,43,Man
84,653002,DepthScenes,duration_manipulation_targetAtFixation,jsons/v1_VE1000_randls_24_rotated.json,http://54.235.29.9/FacialAge/BNav_EC2/DepthDuration/v2_depth_duration_MTurk/v2_DepthDuration_HTML.html#219,219,1536,864,1536,864,8-30-2022,9-16-19,85,depth_duration_stimuli/003048_2014-06-15_13-49-43_094959634447_rgbf000150-resize_1/003048_2014-06-15_13-49-43_094959634447_rgbf000150-resize_1-target.png,1000,4.0035,7,3284,1000,feet,jsons/v1_VE1000_randls_24_rotated.json,801063,1041840,43,Man
85,653002,DepthScenes,duration_manipulation_targetAtFixation,jsons/v1_VE1000_randls_24_rotated.json,http://54.235.29.9/FacialAge/BNav_EC2/DepthDuration/v2_depth_duration_MTurk/v2_DepthDuration_HTML.html#219,219,1536,864,1536,864,8-30-2022,9-16-19,86,depth_duration_stimuli/002043_2014-06-24_20-29-38_260595134347_rgbf000039-resize_4/002043_2014-06-24_20-29-38_260595134347_rgbf000039-resize_4-target.png,1000,2.8435,8,3136,998,feet,jsons/v1_VE1000_randls_24_rotated.json,801063,1041840,43,Man
86,653002,DepthScenes,duration_manipulation_targetAtFixation,jsons/v1_VE1000_randls_24_rotated.json,http://54.235.29.9/FacialAge/BNav_EC2/DepthDuration/v2_depth_duration_MTurk/v2_DepthDuration_HTML.html#219,219,1536,864,1536,864,8-30-2022,9-16-19,87,depth_duration_stimuli/002568_2014-06-24_13-59-21_094959634447_rgbf000062-resize_4/002568_2014-06-24_13-59-21_094959634447_rgbf000062-resize_4-target.png,1000,3.015,7,3171,1008,feet,jsons/v1_VE1000_randls_24_rotated.json,801063,1041840,43,Man
87,653002,DepthScenes,duration_manipulation_targetAtFixation,jsons/v1_VE1000_randls_24_rotated.json,http://54.235.29.9/FacialAge/BNav_EC2/DepthDuration/v2_depth_duration_MTurk/v2_DepthDuration_HTML.html#219,219,1536,864,1536,864,8-30-2022,9-16-19,88,depth_duration_stimuli/003492_2014-05-21_15-50-55_094959634447_rgbf000828-resize_1/003492_2014-05-21_15-50-55_094959634447_rgbf000828-resize_1-target.png,1000,4.06875,9,3337,997,feet,jsons/v1_VE1000_randls_24_rotated.json,801063,1041840,43,Man
88,653002,DepthScenes,duration_manipulation_targetAtFixation,jsons/v1_VE1000_randls_24_rotated.json,http://54.235.29.9/FacialAge/BNav_EC2/DepthDuration/v2_depth_duration_MTurk/v2_DepthDuration_HTML.html#219,219,1536,864,1536,864,8-30-2022,9-16-19,89,depth_duration_stimuli/001584_2014-06-20_11-07-43_260595134347_rgbf000002-resize_1/001584_2014-06-20_11-07-43_260595134347_rgbf000002-resize_1-target.png,1000,3.53,6,2915,1009,feet,jsons/v1_VE1000_randls_24_rotated.json,801063,1041840,43,Man
89,653002,DepthScenes,duration_manipulation_targetAtFixation,jsons/v1_VE1000_randls_24_rotated.json,http://54.235.29.9/FacialAge/BNav_EC2/DepthDuration/v2_depth_duration_MTurk/v2_DepthDuration_HTML.html#219,219,1536,864,1536,864,8-30-2022,9-16-19,90,depth_duration_stimuli/003621_2014-05-23_18-06-08_094959634447_rgbf000101-resize_1/003621_2014-05-23_18-06-08_094959634447_rgbf000101-resize_1-target.png,1000,3.9835,7,3198,1006,feet,jsons/v1_VE1000_randls_24_rotated.json,801063,1041840,43,Man
90,653002,DepthScenes,duration_manipulation_targetAtFixation,jsons/v1_VE1000_randls_24_rotated.json,http://54.235.29.9/FacialAge/BNav_EC2/DepthDuration/v2_depth_duration_MTurk/v2_DepthDuration_HTML.html#219,219,1536,864,1536,864,8-30-2022,9-16-19,91,depth_duration_stimuli/003081_2014-06-15_15-19-16_094959634447_rgbf000150-resize_1/003081_2014-06-15_15-19-16_094959634447_rgbf000150-resize_1-target.png,1000,3.9125,8,3104,988,feet,jsons/v1_VE1000_randls_24_rotated.json,801063,1041840,43,Man
91,653002,DepthScenes,duration_manipulation_targetAtFixation,jsons/v1_VE1000_randls_24_rotated.json,http://54.235.29.9/FacialAge/BNav_EC2/DepthDuration/v2_depth_duration_MTurk/v2_DepthDuration_HTML.html#219,219,1536,864,1536,864,8-30-2022,9-16-19,92,depth_duration_stimuli/001417_2014-06-19_16-25-36_260595134347_rgbf000115-resize_5/001417_2014-06-19_16-25-36_260595134347_rgbf000115-resize_5-target.png,1000,4.6255,5,3329,998,feet,jsons/v1_VE1000_randls_24_rotated.json,801063,1041840,43,Man
92,653002,DepthScenes,duration_manipulation_targetAtFixation,jsons/v1_VE1000_randls_24_rotated.json,http://54.235.29.9/FacialAge/BNav_EC2/DepthDuration/v2_depth_duration_MTurk/v2_DepthDuration_HTML.html#219,219,1536,864,1536,864,8-30-2022,9-16-19,93,depth_duration_stimuli/003228_2014-05-14_13-42-35_094959634447_rgbf000101-resize_1/003228_2014-05-14_13-42-35_094959634447_rgbf000101-resize_1-target.png,1000,1.9680000000000002,3,2830,999,feet,jsons/v1_VE1000_randls_24_rotated.json,801063,1041840,43,Man
93,653002,DepthScenes,duration_manipulation_targetAtFixation,jsons/v1_VE1000_randls_24_rotated.json,http://54.235.29.9/FacialAge/BNav_EC2/DepthDuration/v2_depth_duration_MTurk/v2_DepthDuration_HTML.html#219,219,1536,864,1536,864,8-30-2022,9-16-19,94,depth_duration_stimuli/002600_2014-06-24_14-27-04_094959634447_rgbf000074-resize_2/002600_2014-06-24_14-27-04_094959634447_rgbf000074-resize_2-target.png,1000,2.7575,6,3135,988,feet,jsons/v1_VE1000_randls_24_rotated.json,801063,1041840,43,Man
94,653002,DepthScenes,duration_manipulation_targetAtFixation,jsons/v1_VE1000_randls_24_rotated.json,http://54.235.29.9/FacialAge/BNav_EC2/DepthDuration/v2_depth_duration_MTurk/v2_DepthDuration_HTML.html#219,219,1536,864,1536,864,8-30-2022,9-16-19,95,depth_duration_stimuli/003079_2014-06-15_15-18-20_094959634447_rgbf000152-resize_8/003079_2014-06-15_15-18-20_094959634447_rgbf000152-resize_8-target.png,1000,2.8775,7,28542,1004,feet,jsons/v1_VE1000_randls_24_rotated.json,801063,1041840,43,Man
95,653002,DepthScenes,duration_manipulation_targetAtFixation,jsons/v1_VE1000_randls_24_rotated.json,http://54.235.29.9/FacialAge/BNav_EC2/DepthDuration/v2_depth_duration_MTurk/v2_DepthDuration_HTML.html#219,219,1536,864,1536,864,8-30-2022,9-16-19,96,depth_duration_stimuli/000506_2014-06-08_23-21-00_260595134347_rgbf000070-resize_7/000506_2014-06-08_23-21-00_260595134347_rgbf000070-resize_7-target.png,1000,4.0585,8,4252,1000,feet,jsons/v1_VE1000_randls_24_rotated.json,801063,1041840,43,Man
96,653002,DepthScenes,duration_manipulation_targetAtFixation,jsons/v1_VE1000_randls_24_rotated.json,http://54.235.29.9/FacialAge/BNav_EC2/DepthDuration/v2_depth_duration_MTurk/v2_DepthDuration_HTML.html#219,219,1536,864,1536,864,8-30-2022,9-16-19,97,depth_duration_stimuli/000677_2014-06-08_23-10-32_260595134347_rgbf000158-resize_6/000677_2014-06-08_23-10-32_260595134347_rgbf000158-resize_6-target.png,1000,3.556,6,3561,990,feet,jsons/v1_VE1000_randls_24_rotated.json,801063,1041840,43,Man
97,653002,DepthScenes,duration_manipulation_targetAtFixation,jsons/v1_VE1000_randls_24_rotated.json,http://54.235.29.9/FacialAge/BNav_EC2/DepthDuration/v2_depth_duration_MTurk/v2_DepthDuration_HTML.html#219,219,1536,864,1536,864,8-30-2022,9-16-19,98,depth_duration_stimuli/001029_2014-06-08_13-17-57_260595134347_rgbf000065-resize_1/001029_2014-06-08_13-17-57_260595134347_rgbf000065-resize_1-target.png,1000,3.0835,6,3247,989,feet,jsons/v1_VE1000_randls_24_rotated.json,801063,1041840,43,Man
98,653002,DepthScenes,duration_manipulation_targetAtFixation,jsons/v1_VE1000_randls_24_rotated.json,http://54.235.29.9/FacialAge/BNav_EC2/DepthDuration/v2_depth_duration_MTurk/v2_DepthDuration_HTML.html#219,219,1536,864,1536,864,8-30-2022,9-16-19,99,depth_duration_stimuli/001222_2014-06-17_16-24-06_260595134347_rgbf000073-resize_0/001222_2014-06-17_16-24-06_260595134347_rgbf000073-resize-original.jpg,1000,1.4385,0,3225,997,feet,jsons/v1_VE1000_randls_24_rotated.json,801063,1041840,43,Man
99,653002,DepthScenes,duration_manipulation_targetAtFixation,jsons/v1_VE1000_randls_24_rotated.json,http://54.235.29.9/FacialAge/BNav_EC2/DepthDuration/v2_depth_duration_MTurk/v2_DepthDuration_HTML.html#219,219,1536,864,1536,864,8-30-2022,9-16-19,100,depth_duration_stimuli/002199_2014-06-28_18-33-56_260595134347_rgbf000074-resize_0/002199_2014-06-28_18-33-56_260595134347_rgbf000074-resize_0-target.png,1000,1.996,2,3194,997,feet,jsons/v1_VE1000_randls_24_rotated.json,801063,1041840,43,Man
100,653002,DepthScenes,duration_manipulation_targetAtFixation,jsons/v1_VE1000_randls_24_rotated.json,http://54.235.29.9/FacialAge/BNav_EC2/DepthDuration/v2_depth_duration_MTurk/v2_DepthDuration_HTML.html#219,219,1536,864,1536,864,8-30-2022,9-16-19,101,depth_duration_stimuli/001056_2014-06-08_18-46-44_260595134347_rgbf000068-resize_0/001056_2014-06-08_18-46-44_260595134347_rgbf000068-resize_0-target.png,1000,2.6625,6,3049,998,feet,jsons/v1_VE1000_randls_24_rotated.json,801063,1041840,43,Man
101,653002,DepthScenes,duration_manipulation_targetAtFixation,jsons/v1_VE1000_randls_24_rotated.json,http://54.235.29.9/FacialAge/BNav_EC2/DepthDuration/v2_depth_duration_MTurk/v2_DepthDuration_HTML.html#219,219,1536,864,1536,864,8-30-2022,9-16-19,102,depth_duration_stimuli/002414_2014-06-28_20-24-58_260595134347_rgbf000067-resize_4/002414_2014-06-28_20-24-58_260595134347_rgbf000067-resize_4-target.png,1000,4.363,8,3080,997,feet,jsons/v1_VE1000_randls_24_rotated.json,801063,1041840,43,Man
102,653002,DepthScenes,duration_manipulation_targetAtFixation,jsons/v1_VE1000_randls_24_rotated.json,http://54.235.29.9/FacialAge/BNav_EC2/DepthDuration/v2_depth_duration_MTurk/v2_DepthDuration_HTML.html#219,219,1536,864,1536,864,8-30-2022,9-16-19,103,depth_duration_stimuli/000773_2014-06-08_22-24-54_260595134347_rgbf000093-resize_1/000773_2014-06-08_22-24-54_260595134347_rgbf000093-resize_1-target.png,1000,4.973,10,4113,1012,feet,jsons/v1_VE1000_randls_24_rotated.json,801063,1041840,43,Man
103,653002,DepthScenes,duration_manipulation_targetAtFixation,jsons/v1_VE1000_randls_24_rotated.json,http://54.235.29.9/FacialAge/BNav_EC2/DepthDuration/v2_depth_duration_MTurk/v2_DepthDuration_HTML.html#219,219,1536,864,1536,864,8-30-2022,9-16-19,104,depth_duration_stimuli/001571_2014-06-20_17-21-32_260595134347_rgbf000089-resize_1/001571_2014-06-20_17-21-32_260595134347_rgbf000089-resize_1-target.png,1000,1.86,4,3623,988,feet,jsons/v1_VE1000_randls_24_rotated.json,801063,1041840,43,Man
104,653002,DepthScenes,duration_manipulation_targetAtFixation,jsons/v1_VE1000_randls_24_rotated.json,http://54.235.29.9/FacialAge/BNav_EC2/DepthDuration/v2_depth_duration_MTurk/v2_DepthDuration_HTML.html#219,219,1536,864,1536,864,8-30-2022,9-16-19,105,depth_duration_stimuli/002272_2014-06-28_18-53-56_260595134347_rgbf000067-resize_2/002272_2014-06-28_18-53-56_260595134347_rgbf000067-resize_2-target.png,1000,1.138,2,3107,1012,feet,jsons/v1_VE1000_randls_24_rotated.json,801063,1041840,43,Man
105,653002,DepthScenes,duration_manipulation_targetAtFixation,jsons/v1_VE1000_randls_24_rotated.json,http://54.235.29.9/FacialAge/BNav_EC2/DepthDuration/v2_depth_duration_MTurk/v2_DepthDuration_HTML.html#219,219,1536,864,1536,864,8-30-2022,9-16-19,106,depth_duration_stimuli/001450_2014-06-19_17-02-03_260595134347_rgbf000203-resize_4/001450_2014-06-19_17-02-03_260595134347_rgbf000203-resize_4-target.png,1000,4.0106666666667,9,3314,998,feet,jsons/v1_VE1000_randls_24_rotated.json,801063,1041840,43,Man
106,653002,DepthScenes,duration_manipulation_targetAtFixation,jsons/v1_VE1000_randls_24_rotated.json,http://54.235.29.9/FacialAge/BNav_EC2/DepthDuration/v2_depth_duration_MTurk/v2_DepthDuration_HTML.html#219,219,1536,864,1536,864,8-30-2022,9-16-19,107,depth_duration_stimuli/001449_2014-06-19_17-01-27_260595134347_rgbf000116-resize_2/001449_2014-06-19_17-01-27_260595134347_rgbf000116-resize_2-target.png,1000,3.452,8,3360,1003,feet,jsons/v1_VE1000_randls_24_rotated.json,801063,1041840,43,Man
107,653002,DepthScenes,duration_manipulation_targetAtFixation,jsons/v1_VE1000_randls_24_rotated.json,http://54.235.29.9/FacialAge/BNav_EC2/DepthDuration/v2_depth_duration_MTurk/v2_DepthDuration_HTML.html#219,219,1536,864,1536,864,8-30-2022,9-16-19,108,depth_duration_stimuli/001136_2014-06-17_15-19-41_260595134347_rgbf000076-resize_3/001136_2014-06-17_15-19-41_260595134347_rgbf000076-resize_3-target.png,1000,1.8655,6,3209,997,feet,jsons/v1_VE1000_randls_24_rotated.json,801063,1041840,43,Man
108,653002,DepthScenes,duration_manipulation_targetAtFixation,jsons/v1_VE1000_randls_24_rotated.json,http://54.235.29.9/FacialAge/BNav_EC2/DepthDuration/v2_depth_duration_MTurk/v2_DepthDuration_HTML.html#219,219,1536,864,1536,864,8-30-2022,9-16-19,109,depth_duration_stimuli/001164_2014-06-17_15-35-46_260595134347_rgbf000085-resize_3/001164_2014-06-17_15-35-46_260595134347_rgbf000085-resize_3-target.png,1000,2.354,5,3003,999,feet,jsons/v1_VE1000_randls_24_rotated.json,801063,1041840,43,Man
109,653002,DepthScenes,duration_manipulation_targetAtFixation,jsons/v1_VE1000_randls_24_rotated.json,http://54.235.29.9/FacialAge/BNav_EC2/DepthDuration/v2_depth_duration_MTurk/v2_DepthDuration_HTML.html#219,219,1536,864,1536,864,8-30-2022,9-16-19,110,depth_duration_stimuli/002103_2014-06-25_20-00-40_260595134347_rgbf000049-resize_0/002103_2014-06-25_20-00-40_260595134347_rgbf000049-resize_0-target.png,1000,4.105,7,2897,999,feet,jsons/v1_VE1000_randls_24_rotated.json,801063,1041840,43,Man
110,653002,DepthScenes,duration_manipulation_targetAtFixation,jsons/v1_VE1000_randls_24_rotated.json,http://54.235.29.9/FacialAge/BNav_EC2/DepthDuration/v2_depth_duration_MTurk/v2_DepthDuration_HTML.html#219,219,1536,864,1536,864,8-30-2022,9-16-19,111,depth_duration_stimuli/002039_2014-06-24_20-22-38_260595134347_rgbf000084-resize_1/002039_2014-06-24_20-22-38_260595134347_rgbf000084-resize_1-target.png,1000,4.408,9,3110,987,feet,jsons/v1_VE1000_randls_24_rotated.json,801063,1041840,43,Man
111,653002,DepthScenes,duration_manipulation_targetAtFixation,jsons/v1_VE1000_randls_24_rotated.json,http://54.235.29.9/FacialAge/BNav_EC2/DepthDuration/v2_depth_duration_MTurk/v2_DepthDuration_HTML.html#219,219,1536,864,1536,864,8-30-2022,9-16-19,112,depth_duration_stimuli/001052_2014-06-08_18-24-54_260595134347_rgbf000130-resize_1/001052_2014-06-08_18-24-54_260595134347_rgbf000130-resize_1-target.png,1000,4.1045,8,3117,986,feet,jsons/v1_VE1000_randls_24_rotated.json,801063,1041840,43,Man
112,653002,DepthScenes,duration_manipulation_targetAtFixation,jsons/v1_VE1000_randls_24_rotated.json,http://54.235.29.9/FacialAge/BNav_EC2/DepthDuration/v2_depth_duration_MTurk/v2_DepthDuration_HTML.html#219,219,1536,864,1536,864,8-30-2022,9-16-19,113,depth_duration_stimuli/002988_2014-06-15_12-24-20_094959634447_rgbf000150-resize_1/002988_2014-06-15_12-24-20_094959634447_rgbf000150-resize_1-target.png,1000,4.7669999999999995,8,3604,992,feet,jsons/v1_VE1000_randls_24_rotated.json,801063,1041840,43,Man
113,653002,DepthScenes,duration_manipulation_targetAtFixation,jsons/v1_VE1000_randls_24_rotated.json,http://54.235.29.9/FacialAge/BNav_EC2/DepthDuration/v2_depth_duration_MTurk/v2_DepthDuration_HTML.html#219,219,1536,864,1536,864,8-30-2022,9-16-19,114,depth_duration_stimuli/001650_2014-06-20_12-09-00_260595134347_rgbf000087-resize_3/001650_2014-06-20_12-09-00_260595134347_rgbf000087-resize_3-target.png,1000,1.9505,2,3246,998,feet,jsons/v1_VE1000_randls_24_rotated.json,801063,1041840,43,Man
114,653002,DepthScenes,duration_manipulation_targetAtFixation,jsons/v1_VE1000_randls_24_rotated.json,http://54.235.29.9/FacialAge/BNav_EC2/DepthDuration/v2_depth_duration_MTurk/v2_DepthDuration_HTML.html#219,219,1536,864,1536,864,8-30-2022,9-16-19,115,depth_duration_stimuli/000682_2014-06-08_23-14-58_260595134347_rgbf000041-resize_5/000682_2014-06-08_23-14-58_260595134347_rgbf000041-resize_5-target.png,1000,2.7239999999999998,5,3485,988,feet,jsons/v1_VE1000_randls_24_rotated.json,801063,1041840,43,Man
115,653002,DepthScenes,duration_manipulation_targetAtFixation,jsons/v1_VE1000_randls_24_rotated.json,http://54.235.29.9/FacialAge/BNav_EC2/DepthDuration/v2_depth_duration_MTurk/v2_DepthDuration_HTML.html#219,219,1536,864,1536,864,8-30-2022,9-16-19,116,depth_duration_stimuli/000549_2014-06-08_22-10-24_260595134347_rgbf000247-resize_3/000549_2014-06-08_22-10-24_260595134347_rgbf000247-resize_3-target.png,1000,1.841,3,3320,1002,feet,jsons/v1_VE1000_randls_24_rotated.json,801063,1041840,43,Man
116,653002,DepthScenes,duration_manipulation_targetAtFixation,jsons/v1_VE1000_randls_24_rotated.json,http://54.235.29.9/FacialAge/BNav_EC2/DepthDuration/v2_depth_duration_MTurk/v2_DepthDuration_HTML.html#219,219,1536,864,1536,864,8-30-2022,9-16-19,117,depth_duration_stimuli/001055_2014-06-08_18-45-35_260595134347_rgbf000111-resize_4/001055_2014-06-08_18-45-35_260595134347_rgbf000111-resize_4-target.png,1000,2.4290000000000003,8,3292,989,feet,jsons/v1_VE1000_randls_24_rotated.json,801063,1041840,43,Man
117,653002,DepthScenes,duration_manipulation_targetAtFixation,jsons/v1_VE1000_randls_24_rotated.json,http://54.235.29.9/FacialAge/BNav_EC2/DepthDuration/v2_depth_duration_MTurk/v2_DepthDuration_HTML.html#219,219,1536,864,1536,864,8-30-2022,9-16-19,118,depth_duration_stimuli/002805_2014-06-22_19-54-03_094959634447_rgbf000079-resize_1/002805_2014-06-22_19-54-03_094959634447_rgbf000079-resize_1-target.png,1000,3.1439999999999997,9,3613,1004,feet,jsons/v1_VE1000_randls_24_rotated.json,801063,1041840,43,Man
118,653002,DepthScenes,duration_manipulation_targetAtFixation,jsons/v1_VE1000_randls_24_rotated.json,http://54.235.29.9/FacialAge/BNav_EC2/DepthDuration/v2_depth_duration_MTurk/v2_DepthDuration_HTML.html#219,219,1536,864,1536,864,8-30-2022,9-16-19,119,depth_duration_stimuli/000906_2014-06-08_13-35-43_260595134347_rgbf000155-resize_1/000906_2014-06-08_13-35-43_260595134347_rgbf000155-resize_1-target.png,1000,2.8489999999999998,6,6908,984,feet,jsons/v1_VE1000_randls_24_rotated.json,801063,1041840,43,Man
119,653002,DepthScenes,duration_manipulation_targetAtFixation,jsons/v1_VE1000_randls_24_rotated.json,http://54.235.29.9/FacialAge/BNav_EC2/DepthDuration/v2_depth_duration_MTurk/v2_DepthDuration_HTML.html#219,219,1536,864,1536,864,8-30-2022,9-16-19,120,depth_duration_stimuli/000787_2014-06-08_22-33-53_260595134347_rgbf000175-resize_1/000787_2014-06-08_22-33-53_260595134347_rgbf000175-resize-original.jpg,1000,4.784,0,3350,987,feet,jsons/v1_VE1000_randls_24_rotated.json,801063,1041840,43,Man
120,653002,DepthScenes,duration_manipulation_targetAtFixation,jsons/v1_VE1000_randls_24_rotated.json,http://54.235.29.9/FacialAge/BNav_EC2/DepthDuration/v2_depth_duration_MTurk/v2_DepthDuration_HTML.html#219,219,1536,864,1536,864,8-30-2022,9-16-19,121,depth_duration_stimuli/001132_2014-06-17_14-48-54_260595134347_rgbf000100-resize_2/001132_2014-06-17_14-48-54_260595134347_rgbf000100-resize_2-target.png,1000,3.753,7,3064,994,feet,jsons/v1_VE1000_randls_24_rotated.json,801063,1041840,43,Man
121,653002,DepthScenes,duration_manipulation_targetAtFixation,jsons/v1_VE1000_randls_24_rotated.json,http://54.235.29.9/FacialAge/BNav_EC2/DepthDuration/v2_depth_duration_MTurk/v2_DepthDuration_HTML.html#219,219,1536,864,1536,864,8-30-2022,9-16-19,122,depth_duration_stimuli/001133_2014-06-17_14-49-16_260595134347_rgbf000100-resize_0/001133_2014-06-17_14-49-16_260595134347_rgbf000100-resize_0-target.png,1000,4.2115,7,2689,989,feet,jsons/v1_VE1000_randls_24_rotated.json,801063,1041840,43,Man
122,653002,DepthScenes,duration_manipulation_targetAtFixation,jsons/v1_VE1000_randls_24_rotated.json,http://54.235.29.9/FacialAge/BNav_EC2/DepthDuration/v2_depth_duration_MTurk/v2_DepthDuration_HTML.html#219,219,1536,864,1536,864,8-30-2022,9-16-19,123,depth_duration_stimuli/000502_2014-06-08_23-02-32_260595134347_rgbf000063-resize_4/000502_2014-06-08_23-02-32_260595134347_rgbf000063-resize_4-target.png,1000,2.431,4,3020,993,feet,jsons/v1_VE1000_randls_24_rotated.json,801063,1041840,43,Man
123,653002,DepthScenes,duration_manipulation_targetAtFixation,jsons/v1_VE1000_randls_24_rotated.json,http://54.235.29.9/FacialAge/BNav_EC2/DepthDuration/v2_depth_duration_MTurk/v2_DepthDuration_HTML.html#219,219,1536,864,1536,864,8-30-2022,9-16-19,124,depth_duration_stimuli/001199_2014-06-17_16-03-48_260595134347_rgbf000077-resize_0/001199_2014-06-17_16-03-48_260595134347_rgbf000077-resize_0-target.png,1000,3.4375,9,3378,1001,feet,jsons/v1_VE1000_randls_24_rotated.json,801063,1041840,43,Man
124,653002,DepthScenes,duration_manipulation_targetAtFixation,jsons/v1_VE1000_randls_24_rotated.json,http://54.235.29.9/FacialAge/BNav_EC2/DepthDuration/v2_depth_duration_MTurk/v2_DepthDuration_HTML.html#219,219,1536,864,1536,864,8-30-2022,9-16-19,125,depth_duration_stimuli/003495_2014-05-21_16-01-51_094959634447_rgbf000100-resize_3/003495_2014-05-21_16-01-51_094959634447_rgbf000100-resize_3-target.png,1000,1.6255,3,3045,993,feet,jsons/v1_VE1000_randls_24_rotated.json,801063,1041840,43,Man
125,653002,DepthScenes,duration_manipulation_targetAtFixation,jsons/v1_VE1000_randls_24_rotated.json,http://54.235.29.9/FacialAge/BNav_EC2/DepthDuration/v2_depth_duration_MTurk/v2_DepthDuration_HTML.html#219,219,1536,864,1536,864,8-30-2022,9-16-19,126,depth_duration_stimuli/001244_2014-06-17_16-47-45_260595134347_rgbf000030-resize_4/001244_2014-06-17_16-47-45_260595134347_rgbf000030-resize_4-target.png,1000,2.0425,4,3026,991,feet,jsons/v1_VE1000_randls_24_rotated.json,801063,1041840,43,Man
126,653002,DepthScenes,duration_manipulation_targetAtFixation,jsons/v1_VE1000_randls_24_rotated.json,http://54.235.29.9/FacialAge/BNav_EC2/DepthDuration/v2_depth_duration_MTurk/v2_DepthDuration_HTML.html#219,219,1536,864,1536,864,8-30-2022,9-16-19,127,depth_duration_stimuli/000635_2014-06-08_16-38-42_260595134347_rgbf000106-resize_1/000635_2014-06-08_16-38-42_260595134347_rgbf000106-resize_1-target.png,1000,2.074,5,3003,1000,feet,jsons/v1_VE1000_randls_24_rotated.json,801063,1041840,43,Man
127,653002,DepthScenes,duration_manipulation_targetAtFixation,jsons/v1_VE1000_randls_24_rotated.json,http://54.235.29.9/FacialAge/BNav_EC2/DepthDuration/v2_depth_duration_MTurk/v2_DepthDuration_HTML.html#219,219,1536,864,1536,864,8-30-2022,9-16-19,128,depth_duration_stimuli/002279_2014-06-28_18-55-32_260595134347_rgbf000040-resize_5/002279_2014-06-28_18-55-32_260595134347_rgbf000040-resize_5-target.png,1000,1.5043333333333,3,2855,1004,feet,jsons/v1_VE1000_randls_24_rotated.json,801063,1041840,43,Man
128,653002,DepthScenes,duration_manipulation_targetAtFixation,jsons/v1_VE1000_randls_24_rotated.json,http://54.235.29.9/FacialAge/BNav_EC2/DepthDuration/v2_depth_duration_MTurk/v2_DepthDuration_HTML.html#219,219,1536,864,1536,864,8-30-2022,9-16-19,129,depth_duration_stimuli/001094_2014-06-15_17-36-00_260595134347_rgbf000205-resize_0/001094_2014-06-15_17-36-00_260595134347_rgbf000205-resize_0-target.png,1000,4.2175,8,3236,984,feet,jsons/v1_VE1000_randls_24_rotated.json,801063,1041840,43,Man
129,653002,DepthScenes,duration_manipulation_targetAtFixation,jsons/v1_VE1000_randls_24_rotated.json,http://54.235.29.9/FacialAge/BNav_EC2/DepthDuration/v2_depth_duration_MTurk/v2_DepthDuration_HTML.html#219,219,1536,864,1536,864,8-30-2022,9-16-19,130,depth_duration_stimuli/000692_2014-06-08_13-09-42_260595134347_rgbf000199-resize_2/000692_2014-06-08_13-09-42_260595134347_rgbf000199-resize_2-target.png,1000,3.661,6,3100,1007,feet,jsons/v1_VE1000_randls_24_rotated.json,801063,1041840,43,Man
130,653002,DepthScenes,duration_manipulation_targetAtFixation,jsons/v1_VE1000_randls_24_rotated.json,http://54.235.29.9/FacialAge/BNav_EC2/DepthDuration/v2_depth_duration_MTurk/v2_DepthDuration_HTML.html#219,219,1536,864,1536,864,8-30-2022,9-16-19,131,depth_duration_stimuli/002758_2014-06-22_19-11-20_094959634447_rgbf000128-resize_1/002758_2014-06-22_19-11-20_094959634447_rgbf000128-resize_1-target.png,1000,2.555,6,3163,998,feet,jsons/v1_VE1000_randls_24_rotated.json,801063,1041840,43,Man
131,653002,DepthScenes,duration_manipulation_targetAtFixation,jsons/v1_VE1000_randls_24_rotated.json,http://54.235.29.9/FacialAge/BNav_EC2/DepthDuration/v2_depth_duration_MTurk/v2_DepthDuration_HTML.html#219,219,1536,864,1536,864,8-30-2022,9-16-19,132,depth_duration_stimuli/002630_2014-06-24_14-47-50_094959634447_rgbf000055-resize_1/002630_2014-06-24_14-47-50_094959634447_rgbf000055-resize_1-target.png,1000,3.0095,7,3228,1005,feet,jsons/v1_VE1000_randls_24_rotated.json,801063,1041840,43,Man
132,653002,DepthScenes,duration_manipulation_targetAtFixation,jsons/v1_VE1000_randls_24_rotated.json,http://54.235.29.9/FacialAge/BNav_EC2/DepthDuration/v2_depth_duration_MTurk/v2_DepthDuration_HTML.html#219,219,1536,864,1536,864,8-30-2022,9-16-19,133,depth_duration_stimuli/002750_2014-06-22_19-08-03_094959634447_rgbf000094-resize_4/002750_2014-06-22_19-08-03_094959634447_rgbf000094-resize_4-target.png,1000,2.354,5,3396,1003,feet,jsons/v1_VE1000_randls_24_rotated.json,801063,1041840,43,Man
133,653002,DepthScenes,duration_manipulation_targetAtFixation,jsons/v1_VE1000_randls_24_rotated.json,http://54.235.29.9/FacialAge/BNav_EC2/DepthDuration/v2_depth_duration_MTurk/v2_DepthDuration_HTML.html#219,219,1536,864,1536,864,8-30-2022,9-16-19,134,depth_duration_stimuli/002549_2014-06-24_13-41-39_094959634447_rgbf000022-resize_3/002549_2014-06-24_13-41-39_094959634447_rgbf000022-resize_3-target.png,1000,1.476,4,3170,998,feet,jsons/v1_VE1000_randls_24_rotated.json,801063,1041840,43,Man
134,653002,DepthScenes,duration_manipulation_targetAtFixation,jsons/v1_VE1000_randls_24_rotated.json,http://54.235.29.9/FacialAge/BNav_EC2/DepthDuration/v2_depth_duration_MTurk/v2_DepthDuration_HTML.html#219,219,1536,864,1536,864,8-30-2022,9-16-19,135,depth_duration_stimuli/000375_2014-06-08_11-17-29_260595134347_rgbf000133-resize_2/000375_2014-06-08_11-17-29_260595134347_rgbf000133-resize-original.jpg,1000,4.718,0,3482,995,feet,jsons/v1_VE1000_randls_24_rotated.json,801063,1041840,43,Man
135,653002,DepthScenes,duration_manipulation_targetAtFixation,jsons/v1_VE1000_randls_24_rotated.json,http://54.235.29.9/FacialAge/BNav_EC2/DepthDuration/v2_depth_duration_MTurk/v2_DepthDuration_HTML.html#219,219,1536,864,1536,864,8-30-2022,9-16-19,136,depth_duration_stimuli/002136_2014-06-25_21-18-03_260595134347_rgbf000109-resize_3/002136_2014-06-25_21-18-03_260595134347_rgbf000109-resize_3-target.png,1000,1.9569999999999999,3,5167,1000,feet,jsons/v1_VE1000_randls_24_rotated.json,801063,1041840,43,Man
136,653002,DepthScenes,duration_manipulation_targetAtFixation,jsons/v1_VE1000_randls_24_rotated.json,http://54.235.29.9/FacialAge/BNav_EC2/DepthDuration/v2_depth_duration_MTurk/v2_DepthDuration_HTML.html#219,219,1536,864,1536,864,8-30-2022,9-16-19,137,depth_duration_stimuli/002964_2014-06-08_17-46-11_094959634447_rgbf000091-resize_4/002964_2014-06-08_17-46-11_094959634447_rgbf000091-resize_4-target.png,1000,1.6909999999999998,1,2965,986,feet,jsons/v1_VE1000_randls_24_rotated.json,801063,1041840,43,Man
137,653002,DepthScenes,duration_manipulation_targetAtFixation,jsons/v1_VE1000_randls_24_rotated.json,http://54.235.29.9/FacialAge/BNav_EC2/DepthDuration/v2_depth_duration_MTurk/v2_DepthDuration_HTML.html#219,219,1536,864,1536,864,8-30-2022,9-16-19,138,depth_duration_stimuli/002953_2014-06-08_17-32-18_094959634447_rgbf000059-resize_5/002953_2014-06-08_17-32-18_094959634447_rgbf000059-resize_5-target.png,1000,1.551,2,2746,1006,feet,jsons/v1_VE1000_randls_24_rotated.json,801063,1041840,43,Man
138,653002,DepthScenes,duration_manipulation_targetAtFixation,jsons/v1_VE1000_randls_24_rotated.json,http://54.235.29.9/FacialAge/BNav_EC2/DepthDuration/v2_depth_duration_MTurk/v2_DepthDuration_HTML.html#219,219,1536,864,1536,864,8-30-2022,9-16-19,139,depth_duration_stimuli/000878_2014-06-08_22-52-45_260595134347_rgbf000045-resize_2/000878_2014-06-08_22-52-45_260595134347_rgbf000045-resize_2-target.png,1000,2.092,4,3170,993,feet,jsons/v1_VE1000_randls_24_rotated.json,801063,1041840,43,Man
139,653002,DepthScenes,duration_manipulation_targetAtFixation,jsons/v1_VE1000_randls_24_rotated.json,http://54.235.29.9/FacialAge/BNav_EC2/DepthDuration/v2_depth_duration_MTurk/v2_DepthDuration_HTML.html#219,219,1536,864,1536,864,8-30-2022,9-16-19,140,depth_duration_stimuli/002467_2014-06-28_20-38-07_260595134347_rgbf000026-resize_2/002467_2014-06-28_20-38-07_260595134347_rgbf000026-resize_2-target.png,1000,4.742,3,4740,992,feet,jsons/v1_VE1000_randls_24_rotated.json,801063,1041840,43,Man
140,653002,DepthScenes,duration_manipulation_targetAtFixation,jsons/v1_VE1000_randls_24_rotated.json,http://54.235.29.9/FacialAge/BNav_EC2/DepthDuration/v2_depth_duration_MTurk/v2_DepthDuration_HTML.html#219,219,1536,864,1536,864,8-30-2022,9-16-19,141,depth_duration_stimuli/002570_2014-06-24_13-59-54_094959634447_rgbf000059-resize_0/002570_2014-06-24_13-59-54_094959634447_rgbf000059-resize_0-target.png,1000,4.037,6,49196,985,feet,jsons/v1_VE1000_randls_24_rotated.json,801063,1041840,43,Man
141,653002,DepthScenes,duration_manipulation_targetAtFixation,jsons/v1_VE1000_randls_24_rotated.json,http://54.235.29.9/FacialAge/BNav_EC2/DepthDuration/v2_depth_duration_MTurk/v2_DepthDuration_HTML.html#219,219,1536,864,1536,864,8-30-2022,9-16-19,142,depth_duration_stimuli/002344_2014-06-28_20-06-29_260595134347_rgbf000030-resize_1/002344_2014-06-28_20-06-29_260595134347_rgbf000030-resize_1-target.png,1000,1.5795,2,2730,1000,feet,jsons/v1_VE1000_randls_24_rotated.json,801063,1041840,43,Man
142,653002,DepthScenes,duration_manipulation_targetAtFixation,jsons/v1_VE1000_randls_24_rotated.json,http://54.235.29.9/FacialAge/BNav_EC2/DepthDuration/v2_depth_duration_MTurk/v2_DepthDuration_HTML.html#219,219,1536,864,1536,864,8-30-2022,9-16-19,143,depth_duration_stimuli/002725_2014-06-22_11-47-51_094959634447_rgbf000070-resize_1/002725_2014-06-22_11-47-51_094959634447_rgbf000070-resize_1-target.png,1000,2.195,4,2899,992,feet,jsons/v1_VE1000_randls_24_rotated.json,801063,1041840,43,Man
143,653002,DepthScenes,duration_manipulation_targetAtFixation,jsons/v1_VE1000_randls_24_rotated.json,http://54.235.29.9/FacialAge/BNav_EC2/DepthDuration/v2_depth_duration_MTurk/v2_DepthDuration_HTML.html#219,219,1536,864,1536,864,8-30-2022,9-16-19,144,depth_duration_stimuli/001617_2014-06-20_11-35-32_260595134347_rgbf000066-resize_1/001617_2014-06-20_11-35-32_260595134347_rgbf000066-resize_1-target.png,1000,3.7910000000000004,6,3297,990,feet,jsons/v1_VE1000_randls_24_rotated.json,801063,1041840,43,Man
144,653002,DepthScenes,duration_manipulation_targetAtFixation,jsons/v1_VE1000_randls_24_rotated.json,http://54.235.29.9/FacialAge/BNav_EC2/DepthDuration/v2_depth_duration_MTurk/v2_DepthDuration_HTML.html#219,219,1536,864,1536,864,8-30-2022,9-16-19,145,depth_duration_stimuli/001806_2014-06-26_20-50-20_260595134347_rgbf000091-resize_1/001806_2014-06-26_20-50-20_260595134347_rgbf000091-resize_1-target.png,1000,2.7305,5,3247,1001,feet,jsons/v1_VE1000_randls_24_rotated.json,801063,1041840,43,Man
145,653002,DepthScenes,duration_manipulation_targetAtFixation,jsons/v1_VE1000_randls_24_rotated.json,http://54.235.29.9/FacialAge/BNav_EC2/DepthDuration/v2_depth_duration_MTurk/v2_DepthDuration_HTML.html#219,219,1536,864,1536,864,8-30-2022,9-16-19,146,depth_duration_stimuli/002323_2014-06-28_20-01-54_260595134347_rgbf000051-resize_4/002323_2014-06-28_20-01-54_260595134347_rgbf000051-resize_4-target.png,1000,3.7310000000000003,7,3098,1003,feet,jsons/v1_VE1000_randls_24_rotated.json,801063,1041840,43,Man
146,653002,DepthScenes,duration_manipulation_targetAtFixation,jsons/v1_VE1000_randls_24_rotated.json,http://54.235.29.9/FacialAge/BNav_EC2/DepthDuration/v2_depth_duration_MTurk/v2_DepthDuration_HTML.html#219,219,1536,864,1536,864,8-30-2022,9-16-19,147,depth_duration_stimuli/000917_2014-06-09_22-45-29_260595134347_rgbf000149-resize_3/000917_2014-06-09_22-45-29_260595134347_rgbf000149-resize_3-target.png,1000,4.1865,5,3280,994,feet,jsons/v1_VE1000_randls_24_rotated.json,801063,1041840,43,Man
147,653002,DepthScenes,duration_manipulation_targetAtFixation,jsons/v1_VE1000_randls_24_rotated.json,http://54.235.29.9/FacialAge/BNav_EC2/DepthDuration/v2_depth_duration_MTurk/v2_DepthDuration_HTML.html#219,219,1536,864,1536,864,8-30-2022,9-16-19,148,depth_duration_stimuli/001214_2014-06-17_16-13-55_260595134347_rgbf000111-resize_0/001214_2014-06-17_16-13-55_260595134347_rgbf000111-resize_0-target.png,1000,2.6505,4,3092,994,feet,jsons/v1_VE1000_randls_24_rotated.json,801063,1041840,43,Man
148,653002,DepthScenes,duration_manipulation_targetAtFixation,jsons/v1_VE1000_randls_24_rotated.json,http://54.235.29.9/FacialAge/BNav_EC2/DepthDuration/v2_depth_duration_MTurk/v2_DepthDuration_HTML.html#219,219,1536,864,1536,864,8-30-2022,9-16-19,149,depth_duration_stimuli/000810_2014-06-08_17-20-01_260595134347_rgbf000105-resize_0/000810_2014-06-08_17-20-01_260595134347_rgbf000105-resize_0-target.png,1000,1.4865,4,2831,1012,feet,jsons/v1_VE1000_randls_24_rotated.json,801063,1041840,43,Man
149,653002,DepthScenes,duration_manipulation_targetAtFixation,jsons/v1_VE1000_randls_24_rotated.json,http://54.235.29.9/FacialAge/BNav_EC2/DepthDuration/v2_depth_duration_MTurk/v2_DepthDuration_HTML.html#219,219,1536,864,1536,864,8-30-2022,9-16-19,150,depth_duration_stimuli/000483_2014-06-09_20-41-45_260595134347_rgbf000116-resize_4/000483_2014-06-09_20-41-45_260595134347_rgbf000116-resize_4-target.png,1000,1.337,3,2984,986,feet,jsons/v1_VE1000_randls_24_rotated.json,801063,1041840,43,Man
150,653002,DepthScenes,duration_manipulation_targetAtFixation,jsons/v1_VE1000_randls_24_rotated.json,http://54.235.29.9/FacialAge/BNav_EC2/DepthDuration/v2_depth_duration_MTurk/v2_DepthDuration_HTML.html#219,219,1536,864,1536,864,8-30-2022,9-16-19,151,depth_duration_stimuli/000469_2014-06-09_19-42-10_260595134347_rgbf000081-resize_1/000469_2014-06-09_19-42-10_260595134347_rgbf000081-resize_1-target.png,1000,1.652,3,56699,992,feet,jsons/v1_VE1000_randls_24_rotated.json,801063,1041840,43,Man
151,653002,DepthScenes,duration_manipulation_targetAtFixation,jsons/v1_VE1000_randls_24_rotated.json,http://54.235.29.9/FacialAge/BNav_EC2/DepthDuration/v2_depth_duration_MTurk/v2_DepthDuration_HTML.html#219,219,1536,864,1536,864,8-30-2022,9-16-19,152,depth_duration_stimuli/000569_2014-06-09_22-51-47_260595134347_rgbf000141-resize_3/000569_2014-06-09_22-51-47_260595134347_rgbf000141-resize-original.jpg,1000,4.512,0,3248,1006,feet,jsons/v1_VE1000_randls_24_rotated.json,801063,1041840,43,Man
152,653002,DepthScenes,duration_manipulation_targetAtFixation,jsons/v1_VE1000_randls_24_rotated.json,http://54.235.29.9/FacialAge/BNav_EC2/DepthDuration/v2_depth_duration_MTurk/v2_DepthDuration_HTML.html#219,219,1536,864,1536,864,8-30-2022,9-16-19,153,depth_duration_stimuli/000943_2014-06-09_19-31-07_260595134347_rgbf000128-resize_1/000943_2014-06-09_19-31-07_260595134347_rgbf000128-resize_1-target.png,1000,1.9765,3,3162,1000,feet,jsons/v1_VE1000_randls_24_rotated.json,801063,1041840,43,Man
153,653002,DepthScenes,duration_manipulation_targetAtFixation,jsons/v1_VE1000_randls_24_rotated.json,http://54.235.29.9/FacialAge/BNav_EC2/DepthDuration/v2_depth_duration_MTurk/v2_DepthDuration_HTML.html#219,219,1536,864,1536,864,8-30-2022,9-16-19,154,depth_duration_stimuli/003070_2014-06-15_14-58-27_094959634447_rgbf000150-resize_3/003070_2014-06-15_14-58-27_094959634447_rgbf000150-resize_3-target.png,1000,2.9415,5,3180,989,feet,jsons/v1_VE1000_randls_24_rotated.json,801063,1041840,43,Man
154,653002,DepthScenes,duration_manipulation_targetAtFixation,jsons/v1_VE1000_randls_24_rotated.json,http://54.235.29.9/FacialAge/BNav_EC2/DepthDuration/v2_depth_duration_MTurk/v2_DepthDuration_HTML.html#219,219,1536,864,1536,864,8-30-2022,9-16-19,155,depth_duration_stimuli/001235_2014-06-17_16-37-36_260595134347_rgbf000084-resize_4/001235_2014-06-17_16-37-36_260595134347_rgbf000084-resize_4-target.png,1000,3.6605,6,3383,991,feet,jsons/v1_VE1000_randls_24_rotated.json,801063,1041840,43,Man
155,653002,DepthScenes,duration_manipulation_targetAtFixation,jsons/v1_VE1000_randls_24_rotated.json,http://54.235.29.9/FacialAge/BNav_EC2/DepthDuration/v2_depth_duration_MTurk/v2_DepthDuration_HTML.html#219,219,1536,864,1536,864,8-30-2022,9-16-19,156,depth_duration_stimuli/000788_2014-06-08_22-34-36_260595134347_rgbf000131-resize_1/000788_2014-06-08_22-34-36_260595134347_rgbf000131-resize_1-target.png,1000,3.359,6,2637,1000,feet,jsons/v1_VE1000_randls_24_rotated.json,801063,1041840,43,Man
156,653002,DepthScenes,duration_manipulation_targetAtFixation,jsons/v1_VE1000_randls_24_rotated.json,http://54.235.29.9/FacialAge/BNav_EC2/DepthDuration/v2_depth_duration_MTurk/v2_DepthDuration_HTML.html#219,219,1536,864,1536,864,8-30-2022,9-16-19,157,depth_duration_stimuli/000866_2014-06-09_20-45-42_260595134347_rgbf000139-resize_1/000866_2014-06-09_20-45-42_260595134347_rgbf000139-resize_1-target.png,1000,3.2155,5,3110,996,feet,jsons/v1_VE1000_randls_24_rotated.json,801063,1041840,43,Man
157,653002,DepthScenes,duration_manipulation_targetAtFixation,jsons/v1_VE1000_randls_24_rotated.json,http://54.235.29.9/FacialAge/BNav_EC2/DepthDuration/v2_depth_duration_MTurk/v2_DepthDuration_HTML.html#219,219,1536,864,1536,864,8-30-2022,9-16-19,158,depth_duration_stimuli/002989_2014-06-15_12-25-03_094959634447_rgbf000150-resize_3/002989_2014-06-15_12-25-03_094959634447_rgbf000150-resize_3-target.png,1000,4.1975,7,2853,986,feet,jsons/v1_VE1000_randls_24_rotated.json,801063,1041840,43,Man
158,653002,DepthScenes,duration_manipulation_targetAtFixation,jsons/v1_VE1000_randls_24_rotated.json,http://54.235.29.9/FacialAge/BNav_EC2/DepthDuration/v2_depth_duration_MTurk/v2_DepthDuration_HTML.html#219,219,1536,864,1536,864,8-30-2022,9-16-19,159,depth_duration_stimuli/002995_2014-06-15_12-31-26_094959634447_rgbf000150-resize_1/002995_2014-06-15_12-31-26_094959634447_rgbf000150-resize_1-target.png,1000,3.8360000000000003,7,2485,992,feet,jsons/v1_VE1000_randls_24_rotated.json,801063,1041840,43,Man
159,653002,DepthScenes,duration_manipulation_targetAtFixation,jsons/v1_VE1000_randls_24_rotated.json,http://54.235.29.9/FacialAge/BNav_EC2/DepthDuration/v2_depth_duration_MTurk/v2_DepthDuration_HTML.html#219,219,1536,864,1536,864,8-30-2022,9-16-19,160,depth_duration_stimuli/002748_2014-06-22_19-07-22_094959634447_rgbf000078-resize_1/002748_2014-06-22_19-07-22_094959634447_rgbf000078-resize_1-target.png,1000,4.6705,8,3325,1001,feet,jsons/v1_VE1000_randls_24_rotated.json,801063,1041840,43,Man
160,653002,DepthScenes,duration_manipulation_targetAtFixation,jsons/v1_VE1000_randls_24_rotated.json,http://54.235.29.9/FacialAge/BNav_EC2/DepthDuration/v2_depth_duration_MTurk/v2_DepthDuration_HTML.html#219,219,1536,864,1536,864,8-30-2022,9-16-19,161,depth_duration_stimuli/002209_2014-06-28_18-36-10_260595134347_rgbf000051-resize_1/002209_2014-06-28_18-36-10_260595134347_rgbf000051-resize_1-target.png,1000,2.057,4,3190,987,feet,jsons/v1_VE1000_randls_24_rotated.json,801063,1041840,43,Man
161,653002,DepthScenes,duration_manipulation_targetAtFixation,jsons/v1_VE1000_randls_24_rotated.json,http://54.235.29.9/FacialAge/BNav_EC2/DepthDuration/v2_depth_duration_MTurk/v2_DepthDuration_HTML.html#219,219,1536,864,1536,864,8-30-2022,9-16-19,162,depth_duration_stimuli/002763_2014-06-22_19-13-10_094959634447_rgbf000075-resize_4/002763_2014-06-22_19-13-10_094959634447_rgbf000075-resize_4-target.png,1000,1.68375,3,2995,1000,feet,jsons/v1_VE1000_randls_24_rotated.json,801063,1041840,43,Man
162,653002,DepthScenes,duration_manipulation_targetAtFixation,jsons/v1_VE1000_randls_24_rotated.json,http://54.235.29.9/FacialAge/BNav_EC2/DepthDuration/v2_depth_duration_MTurk/v2_DepthDuration_HTML.html#219,219,1536,864,1536,864,8-30-2022,9-16-19,163,depth_duration_stimuli/002660_2014-06-13_15-44-18_094959634447_rgbf001878-resize_2/002660_2014-06-13_15-44-18_094959634447_rgbf001878-resize_2-target.png,1000,3.576,8,4020,986,feet,jsons/v1_VE1000_randls_24_rotated.json,801063,1041840,43,Man
163,653002,DepthScenes,duration_manipulation_targetAtFixation,jsons/v1_VE1000_randls_24_rotated.json,http://54.235.29.9/FacialAge/BNav_EC2/DepthDuration/v2_depth_duration_MTurk/v2_DepthDuration_HTML.html#219,219,1536,864,1536,864,8-30-2022,9-16-19,164,depth_duration_stimuli/002153_2014-06-25_21-27-18_260595134347_rgbf000038-resize_5/002153_2014-06-25_21-27-18_260595134347_rgbf000038-resize_5-target.png,1000,2.505,5,3565,1005,feet,jsons/v1_VE1000_randls_24_rotated.json,801063,1041840,43,Man
