,subjID,experimentName,versionName,sequenceName,url,selected_row,windowWidth,windowHeight,screenWidth,screenHeight,startDate,startTime,trial,stimulus,duration,actual_depth,depth_estimate,trial_RT,log_sceneDuration,unitSelection,seq_filepath,experimentTime,totalTime,age,gender
0,653144,DepthScenes,duration_manipulation_targetAtFixation,jsons/VE125_randls_17_rotated.json,http://54.235.29.9/FacialAge/BNav_EC2/DepthDuration/v2_depth_duration_MTurk/v2_DepthDuration_HTML.html#299,299,1600,827,1600,900,9-3-2022,13-39-18,1,depth_duration_stimuli/002875_2014-06-01_15-19-00_094959634447_rgbf000151-resize_1/002875_2014-06-01_15-19-00_094959634447_rgbf000151-resize_1-target.png,125,1.9675,4,6118,124,feet,jsons/VE125_randls_17_rotated.json,1184449,1566452,59,Man
1,653144,DepthScenes,duration_manipulation_targetAtFixation,jsons/VE125_randls_17_rotated.json,http://54.235.29.9/FacialAge/BNav_EC2/DepthDuration/v2_depth_duration_MTurk/v2_DepthDuration_HTML.html#299,299,1600,827,1600,900,9-3-2022,13-39-18,2,depth_duration_stimuli/001011_2014-06-08_23-18-54_260595134347_rgbf000044-resize_4/001011_2014-06-08_23-18-54_260595134347_rgbf000044-resize_4-target.png,125,2.4730000000000003,6,8321,123,feet,jsons/VE125_randls_17_rotated.json,1184449,1566452,59,Man
2,653144,DepthScenes,duration_manipulation_targetAtFixation,jsons/VE125_randls_17_rotated.json,http://54.235.29.9/FacialAge/BNav_EC2/DepthDuration/v2_depth_duration_MTurk/v2_DepthDuration_HTML.html#299,299,1600,827,1600,900,9-3-2022,13-39-18,3,depth_duration_stimuli/002995_2014-06-15_12-31-26_094959634447_rgbf000150-resize_1/002995_2014-06-15_12-31-26_094959634447_rgbf000150-resize_1-target.png,125,3.8360000000000003,9,6801,139,feet,jsons/VE125_randls_17_rotated.json,1184449,1566452,59,Man
3,653144,DepthScenes,duration_manipulation_targetAtFixation,jsons/VE125_randls_17_rotated.json,http://54.235.29.9/FacialAge/BNav_EC2/DepthDuration/v2_depth_duration_MTurk/v2_DepthDuration_HTML.html#299,299,1600,827,1600,900,9-3-2022,13-39-18,4,depth_duration_stimuli/002748_2014-06-22_19-07-22_094959634447_rgbf000078-resize_1/002748_2014-06-22_19-07-22_094959634447_rgbf000078-resize_1-target.png,125,4.6705,12,6521,131,feet,jsons/VE125_randls_17_rotated.json,1184449,1566452,59,Man
4,653144,DepthScenes,duration_manipulation_targetAtFixation,jsons/VE125_randls_17_rotated.json,http://54.235.29.9/FacialAge/BNav_EC2/DepthDuration/v2_depth_duration_MTurk/v2_DepthDuration_HTML.html#299,299,1600,827,1600,900,9-3-2022,13-39-18,5,depth_duration_stimuli/000943_2014-06-09_19-31-07_260595134347_rgbf000128-resize_1/000943_2014-06-09_19-31-07_260595134347_rgbf000128-resize_1-target.png,125,1.9765,6,6699,131,feet,jsons/VE125_randls_17_rotated.json,1184449,1566452,59,Man
5,653144,DepthScenes,duration_manipulation_targetAtFixation,jsons/VE125_randls_17_rotated.json,http://54.235.29.9/FacialAge/BNav_EC2/DepthDuration/v2_depth_duration_MTurk/v2_DepthDuration_HTML.html#299,299,1600,827,1600,900,9-3-2022,13-39-18,6,depth_duration_stimuli/003070_2014-06-15_14-58-27_094959634447_rgbf000150-resize_3/003070_2014-06-15_14-58-27_094959634447_rgbf000150-resize_3-target.png,125,2.9415,10,6339,130,feet,jsons/VE125_randls_17_rotated.json,1184449,1566452,59,Man
6,653144,DepthScenes,duration_manipulation_targetAtFixation,jsons/VE125_randls_17_rotated.json,http://54.235.29.9/FacialAge/BNav_EC2/DepthDuration/v2_depth_duration_MTurk/v2_DepthDuration_HTML.html#299,299,1600,827,1600,900,9-3-2022,13-39-18,7,depth_duration_stimuli/000734_2014-06-08_17-39-11_260595134347_rgbf000128-resize_2/000734_2014-06-08_17-39-11_260595134347_rgbf000128-resize_2-target.png,125,4.098,11,7262,134,feet,jsons/VE125_randls_17_rotated.json,1184449,1566452,59,Man
7,653144,DepthScenes,duration_manipulation_targetAtFixation,jsons/VE125_randls_17_rotated.json,http://54.235.29.9/FacialAge/BNav_EC2/DepthDuration/v2_depth_duration_MTurk/v2_DepthDuration_HTML.html#299,299,1600,827,1600,900,9-3-2022,13-39-18,8,depth_duration_stimuli/000739_2014-06-08_18-45-58_260595134347_rgbf000068-resize_1/000739_2014-06-08_18-45-58_260595134347_rgbf000068-resize_1-target.png,125,3.534,13,6601,118,feet,jsons/VE125_randls_17_rotated.json,1184449,1566452,59,Man
8,653144,DepthScenes,duration_manipulation_targetAtFixation,jsons/VE125_randls_17_rotated.json,http://54.235.29.9/FacialAge/BNav_EC2/DepthDuration/v2_depth_duration_MTurk/v2_DepthDuration_HTML.html#299,299,1600,827,1600,900,9-3-2022,13-39-18,9,depth_duration_stimuli/002568_2014-06-24_13-59-21_094959634447_rgbf000062-resize_4/002568_2014-06-24_13-59-21_094959634447_rgbf000062-resize_4-target.png,125,3.015,9,6317,121,feet,jsons/VE125_randls_17_rotated.json,1184449,1566452,59,Man
9,653144,DepthScenes,duration_manipulation_targetAtFixation,jsons/VE125_randls_17_rotated.json,http://54.235.29.9/FacialAge/BNav_EC2/DepthDuration/v2_depth_duration_MTurk/v2_DepthDuration_HTML.html#299,299,1600,827,1600,900,9-3-2022,13-39-18,10,depth_duration_stimuli/003492_2014-05-21_15-50-55_094959634447_rgbf000828-resize_1/003492_2014-05-21_15-50-55_094959634447_rgbf000828-resize_1-target.png,125,4.06875,10,5616,116,feet,jsons/VE125_randls_17_rotated.json,1184449,1566452,59,Man
10,653144,DepthScenes,duration_manipulation_targetAtFixation,jsons/VE125_randls_17_rotated.json,http://54.235.29.9/FacialAge/BNav_EC2/DepthDuration/v2_depth_duration_MTurk/v2_DepthDuration_HTML.html#299,299,1600,827,1600,900,9-3-2022,13-39-18,11,depth_duration_stimuli/003081_2014-06-15_15-19-16_094959634447_rgbf000150-resize_1/003081_2014-06-15_15-19-16_094959634447_rgbf000150-resize_1-target.png,125,3.9125,14,7317,139,feet,jsons/VE125_randls_17_rotated.json,1184449,1566452,59,Man
11,653144,DepthScenes,duration_manipulation_targetAtFixation,jsons/VE125_randls_17_rotated.json,http://54.235.29.9/FacialAge/BNav_EC2/DepthDuration/v2_depth_duration_MTurk/v2_DepthDuration_HTML.html#299,299,1600,827,1600,900,9-3-2022,13-39-18,12,depth_duration_stimuli/001417_2014-06-19_16-25-36_260595134347_rgbf000115-resize_5/001417_2014-06-19_16-25-36_260595134347_rgbf000115-resize_5-target.png,125,4.6255,9,6886,119,feet,jsons/VE125_randls_17_rotated.json,1184449,1566452,59,Man
12,653144,DepthScenes,duration_manipulation_targetAtFixation,jsons/VE125_randls_17_rotated.json,http://54.235.29.9/FacialAge/BNav_EC2/DepthDuration/v2_depth_duration_MTurk/v2_DepthDuration_HTML.html#299,299,1600,827,1600,900,9-3-2022,13-39-18,13,depth_duration_stimuli/000691_2014-06-08_13-08-50_260595134347_rgbf000132-resize_3/000691_2014-06-08_13-08-50_260595134347_rgbf000132-resize_3-target.png,125,4.1530000000000005,12,8587,114,feet,jsons/VE125_randls_17_rotated.json,1184449,1566452,59,Man
13,653144,DepthScenes,duration_manipulation_targetAtFixation,jsons/VE125_randls_17_rotated.json,http://54.235.29.9/FacialAge/BNav_EC2/DepthDuration/v2_depth_duration_MTurk/v2_DepthDuration_HTML.html#299,299,1600,827,1600,900,9-3-2022,13-39-18,14,depth_duration_stimuli/002213_2014-06-28_18-37-58_260595134347_rgbf000055-resize_1/002213_2014-06-28_18-37-58_260595134347_rgbf000055-resize_1-target.png,125,3.62,13,6461,134,feet,jsons/VE125_randls_17_rotated.json,1184449,1566452,59,Man
14,653144,DepthScenes,duration_manipulation_targetAtFixation,jsons/VE125_randls_17_rotated.json,http://54.235.29.9/FacialAge/BNav_EC2/DepthDuration/v2_depth_duration_MTurk/v2_DepthDuration_HTML.html#299,299,1600,827,1600,900,9-3-2022,13-39-18,15,depth_duration_stimuli/002444_2014-06-28_20-32-08_260595134347_rgbf000027-resize_0/002444_2014-06-28_20-32-08_260595134347_rgbf000027-resize_0-target.png,125,4.388999999999999,7,5709,123,feet,jsons/VE125_randls_17_rotated.json,1184449,1566452,59,Man
15,653144,DepthScenes,duration_manipulation_targetAtFixation,jsons/VE125_randls_17_rotated.json,http://54.235.29.9/FacialAge/BNav_EC2/DepthDuration/v2_depth_duration_MTurk/v2_DepthDuration_HTML.html#299,299,1600,827,1600,900,9-3-2022,13-39-18,16,depth_duration_stimuli/000436_2014-06-09_22-25-11_260595134347_rgbf000137-resize_1/000436_2014-06-09_22-25-11_260595134347_rgbf000137-resize_1-target.png,125,4.0705,14,7425,139,feet,jsons/VE125_randls_17_rotated.json,1184449,1566452,59,Man
16,653144,DepthScenes,duration_manipulation_targetAtFixation,jsons/VE125_randls_17_rotated.json,http://54.235.29.9/FacialAge/BNav_EC2/DepthDuration/v2_depth_duration_MTurk/v2_DepthDuration_HTML.html#299,299,1600,827,1600,900,9-3-2022,13-39-18,17,depth_duration_stimuli/003010_2014-06-15_12-54-35_094959634447_rgbf000112-resize_0/003010_2014-06-15_12-54-35_094959634447_rgbf000112-resize_0-target.png,125,3.1185,12,5786,139,feet,jsons/VE125_randls_17_rotated.json,1184449,1566452,59,Man
17,653144,DepthScenes,duration_manipulation_targetAtFixation,jsons/VE125_randls_17_rotated.json,http://54.235.29.9/FacialAge/BNav_EC2/DepthDuration/v2_depth_duration_MTurk/v2_DepthDuration_HTML.html#299,299,1600,827,1600,900,9-3-2022,13-39-18,18,depth_duration_stimuli/001810_2014-06-26_20-51-35_260595134347_rgbf000040-resize_3/001810_2014-06-26_20-51-35_260595134347_rgbf000040-resize_3-target.png,125,2.2525,8,6360,125,feet,jsons/VE125_randls_17_rotated.json,1184449,1566452,59,Man
18,653144,DepthScenes,duration_manipulation_targetAtFixation,jsons/VE125_randls_17_rotated.json,http://54.235.29.9/FacialAge/BNav_EC2/DepthDuration/v2_depth_duration_MTurk/v2_DepthDuration_HTML.html#299,299,1600,827,1600,900,9-3-2022,13-39-18,19,depth_duration_stimuli/001498_2014-06-19_17-45-14_260595134347_rgbf000129-resize_4/001498_2014-06-19_17-45-14_260595134347_rgbf000129-resize-original.jpg,125,1.4075,0,6917,109,feet,jsons/VE125_randls_17_rotated.json,1184449,1566452,59,Man
19,653144,DepthScenes,duration_manipulation_targetAtFixation,jsons/VE125_randls_17_rotated.json,http://54.235.29.9/FacialAge/BNav_EC2/DepthDuration/v2_depth_duration_MTurk/v2_DepthDuration_HTML.html#299,299,1600,827,1600,900,9-3-2022,13-39-18,20,depth_duration_stimuli/002414_2014-06-28_20-24-58_260595134347_rgbf000067-resize_4/002414_2014-06-28_20-24-58_260595134347_rgbf000067-resize_4-target.png,125,4.363,12,5887,131,feet,jsons/VE125_randls_17_rotated.json,1184449,1566452,59,Man
20,653144,DepthScenes,duration_manipulation_targetAtFixation,jsons/VE125_randls_17_rotated.json,http://54.235.29.9/FacialAge/BNav_EC2/DepthDuration/v2_depth_duration_MTurk/v2_DepthDuration_HTML.html#299,299,1600,827,1600,900,9-3-2022,13-39-18,21,depth_duration_stimuli/000773_2014-06-08_22-24-54_260595134347_rgbf000093-resize_1/000773_2014-06-08_22-24-54_260595134347_rgbf000093-resize_1-target.png,125,4.973,15,7772,134,feet,jsons/VE125_randls_17_rotated.json,1184449,1566452,59,Man
21,653144,DepthScenes,duration_manipulation_targetAtFixation,jsons/VE125_randls_17_rotated.json,http://54.235.29.9/FacialAge/BNav_EC2/DepthDuration/v2_depth_duration_MTurk/v2_DepthDuration_HTML.html#299,299,1600,827,1600,900,9-3-2022,13-39-18,22,depth_duration_stimuli/000483_2014-06-09_20-41-45_260595134347_rgbf000116-resize_4/000483_2014-06-09_20-41-45_260595134347_rgbf000116-resize_4-target.png,125,1.337,6,5562,119,feet,jsons/VE125_randls_17_rotated.json,1184449,1566452,59,Man
22,653144,DepthScenes,duration_manipulation_targetAtFixation,jsons/VE125_randls_17_rotated.json,http://54.235.29.9/FacialAge/BNav_EC2/DepthDuration/v2_depth_duration_MTurk/v2_DepthDuration_HTML.html#299,299,1600,827,1600,900,9-3-2022,13-39-18,23,depth_duration_stimuli/000469_2014-06-09_19-42-10_260595134347_rgbf000081-resize_1/000469_2014-06-09_19-42-10_260595134347_rgbf000081-resize_1-target.png,125,1.652,5,5200,118,feet,jsons/VE125_randls_17_rotated.json,1184449,1566452,59,Man
23,653144,DepthScenes,duration_manipulation_targetAtFixation,jsons/VE125_randls_17_rotated.json,http://54.235.29.9/FacialAge/BNav_EC2/DepthDuration/v2_depth_duration_MTurk/v2_DepthDuration_HTML.html#299,299,1600,827,1600,900,9-3-2022,13-39-18,24,depth_duration_stimuli/000635_2014-06-08_16-38-42_260595134347_rgbf000106-resize_1/000635_2014-06-08_16-38-42_260595134347_rgbf000106-resize_1-target.png,125,2.074,7,13166,138,feet,jsons/VE125_randls_17_rotated.json,1184449,1566452,59,Man
24,653144,DepthScenes,duration_manipulation_targetAtFixation,jsons/VE125_randls_17_rotated.json,http://54.235.29.9/FacialAge/BNav_EC2/DepthDuration/v2_depth_duration_MTurk/v2_DepthDuration_HTML.html#299,299,1600,827,1600,900,9-3-2022,13-39-18,25,depth_duration_stimuli/002279_2014-06-28_18-55-32_260595134347_rgbf000040-resize_5/002279_2014-06-28_18-55-32_260595134347_rgbf000040-resize_5-target.png,125,1.5043333333333,6,5635,117,feet,jsons/VE125_randls_17_rotated.json,1184449,1566452,59,Man
25,653144,DepthScenes,duration_manipulation_targetAtFixation,jsons/VE125_randls_17_rotated.json,http://54.235.29.9/FacialAge/BNav_EC2/DepthDuration/v2_depth_duration_MTurk/v2_DepthDuration_HTML.html#299,299,1600,827,1600,900,9-3-2022,13-39-18,26,depth_duration_stimuli/001447_2014-06-19_17-00-32_260595134347_rgbf000082-resize_5/001447_2014-06-19_17-00-32_260595134347_rgbf000082-resize_5-target.png,125,4.13775,6,5278,136,feet,jsons/VE125_randls_17_rotated.json,1184449,1566452,59,Man
26,653144,DepthScenes,duration_manipulation_targetAtFixation,jsons/VE125_randls_17_rotated.json,http://54.235.29.9/FacialAge/BNav_EC2/DepthDuration/v2_depth_duration_MTurk/v2_DepthDuration_HTML.html#299,299,1600,827,1600,900,9-3-2022,13-39-18,27,depth_duration_stimuli/000447_2014-06-08_16-15-46_260595134347_rgbf000130-resize_1/000447_2014-06-08_16-15-46_260595134347_rgbf000130-resize_1-target.png,125,4.479,12,5659,117,feet,jsons/VE125_randls_17_rotated.json,1184449,1566452,59,Man
27,653144,DepthScenes,duration_manipulation_targetAtFixation,jsons/VE125_randls_17_rotated.json,http://54.235.29.9/FacialAge/BNav_EC2/DepthDuration/v2_depth_duration_MTurk/v2_DepthDuration_HTML.html#299,299,1600,827,1600,900,9-3-2022,13-39-18,28,depth_duration_stimuli/002209_2014-06-28_18-36-10_260595134347_rgbf000051-resize_1/002209_2014-06-28_18-36-10_260595134347_rgbf000051-resize_1-target.png,125,2.057,6,5134,133,feet,jsons/VE125_randls_17_rotated.json,1184449,1566452,59,Man
28,653144,DepthScenes,duration_manipulation_targetAtFixation,jsons/VE125_randls_17_rotated.json,http://54.235.29.9/FacialAge/BNav_EC2/DepthDuration/v2_depth_duration_MTurk/v2_DepthDuration_HTML.html#299,299,1600,827,1600,900,9-3-2022,13-39-18,29,depth_duration_stimuli/002763_2014-06-22_19-13-10_094959634447_rgbf000075-resize_4/002763_2014-06-22_19-13-10_094959634447_rgbf000075-resize_4-target.png,125,1.68375,5,4243,120,feet,jsons/VE125_randls_17_rotated.json,1184449,1566452,59,Man
29,653144,DepthScenes,duration_manipulation_targetAtFixation,jsons/VE125_randls_17_rotated.json,http://54.235.29.9/FacialAge/BNav_EC2/DepthDuration/v2_depth_duration_MTurk/v2_DepthDuration_HTML.html#299,299,1600,827,1600,900,9-3-2022,13-39-18,30,depth_duration_stimuli/002072_2014-06-24_21-48-06_260595134347_rgbf000115-resize_0/002072_2014-06-24_21-48-06_260595134347_rgbf000115-resize-original.jpg,125,4.702,0,5336,134,feet,jsons/VE125_randls_17_rotated.json,1184449,1566452,59,Man
30,653144,DepthScenes,duration_manipulation_targetAtFixation,jsons/VE125_randls_17_rotated.json,http://54.235.29.9/FacialAge/BNav_EC2/DepthDuration/v2_depth_duration_MTurk/v2_DepthDuration_HTML.html#299,299,1600,827,1600,900,9-3-2022,13-39-18,31,depth_duration_stimuli/001815_2014-06-26_20-52-55_260595134347_rgbf000020-resize_0/001815_2014-06-26_20-52-55_260595134347_rgbf000020-resize_0-target.png,125,3.3865,7,7129,115,feet,jsons/VE125_randls_17_rotated.json,1184449,1566452,59,Man
31,653144,DepthScenes,duration_manipulation_targetAtFixation,jsons/VE125_randls_17_rotated.json,http://54.235.29.9/FacialAge/BNav_EC2/DepthDuration/v2_depth_duration_MTurk/v2_DepthDuration_HTML.html#299,299,1600,827,1600,900,9-3-2022,13-39-18,32,depth_duration_stimuli/001808_2014-06-26_20-50-58_260595134347_rgbf000029-resize_1/001808_2014-06-26_20-50-58_260595134347_rgbf000029-resize_1-target.png,125,4.249,8,6269,119,feet,jsons/VE125_randls_17_rotated.json,1184449,1566452,59,Man
32,653144,DepthScenes,duration_manipulation_targetAtFixation,jsons/VE125_randls_17_rotated.json,http://54.235.29.9/FacialAge/BNav_EC2/DepthDuration/v2_depth_duration_MTurk/v2_DepthDuration_HTML.html#299,299,1600,827,1600,900,9-3-2022,13-39-18,33,depth_duration_stimuli/001392_2014-06-19_16-07-59_260595134347_rgbf000046-resize_1/001392_2014-06-19_16-07-59_260595134347_rgbf000046-resize_1-target.png,125,4.135,10,10486,115,feet,jsons/VE125_randls_17_rotated.json,1184449,1566452,59,Man
33,653144,DepthScenes,duration_manipulation_targetAtFixation,jsons/VE125_randls_17_rotated.json,http://54.235.29.9/FacialAge/BNav_EC2/DepthDuration/v2_depth_duration_MTurk/v2_DepthDuration_HTML.html#299,299,1600,827,1600,900,9-3-2022,13-39-18,34,depth_duration_stimuli/001570_2014-06-20_17-21-09_260595134347_rgbf000135-resize_4/001570_2014-06-20_17-21-09_260595134347_rgbf000135-resize_4-target.png,125,4.467,11,5548,121,feet,jsons/VE125_randls_17_rotated.json,1184449,1566452,59,Man
34,653144,DepthScenes,duration_manipulation_targetAtFixation,jsons/VE125_randls_17_rotated.json,http://54.235.29.9/FacialAge/BNav_EC2/DepthDuration/v2_depth_duration_MTurk/v2_DepthDuration_HTML.html#299,299,1600,827,1600,900,9-3-2022,13-39-18,35,depth_duration_stimuli/000457_2014-06-08_16-52-43_260595134347_rgbf000199-resize_1/000457_2014-06-08_16-52-43_260595134347_rgbf000199-resize_1-target.png,125,3.6489999999999996,8,293255,115,feet,jsons/VE125_randls_17_rotated.json,1184449,1566452,59,Man
35,653144,DepthScenes,duration_manipulation_targetAtFixation,jsons/VE125_randls_17_rotated.json,http://54.235.29.9/FacialAge/BNav_EC2/DepthDuration/v2_depth_duration_MTurk/v2_DepthDuration_HTML.html#299,299,1600,827,1600,900,9-3-2022,13-39-18,36,depth_duration_stimuli/000929_2014-06-09_16-33-19_260595134347_rgbf000139-resize_0/000929_2014-06-09_16-33-19_260595134347_rgbf000139-resize_0-target.png,125,2.8680000000000003,11,5825,123,feet,jsons/VE125_randls_17_rotated.json,1184449,1566452,59,Man
36,653144,DepthScenes,duration_manipulation_targetAtFixation,jsons/VE125_randls_17_rotated.json,http://54.235.29.9/FacialAge/BNav_EC2/DepthDuration/v2_depth_duration_MTurk/v2_DepthDuration_HTML.html#299,299,1600,827,1600,900,9-3-2022,13-39-18,37,depth_duration_stimuli/002467_2014-06-28_20-38-07_260595134347_rgbf000026-resize_2/002467_2014-06-28_20-38-07_260595134347_rgbf000026-resize_2-target.png,125,4.742,14,5737,128,feet,jsons/VE125_randls_17_rotated.json,1184449,1566452,59,Man
37,653144,DepthScenes,duration_manipulation_targetAtFixation,jsons/VE125_randls_17_rotated.json,http://54.235.29.9/FacialAge/BNav_EC2/DepthDuration/v2_depth_duration_MTurk/v2_DepthDuration_HTML.html#299,299,1600,827,1600,900,9-3-2022,13-39-18,38,depth_duration_stimuli/002570_2014-06-24_13-59-54_094959634447_rgbf000059-resize_0/002570_2014-06-24_13-59-54_094959634447_rgbf000059-resize_0-target.png,125,4.037,7,5136,125,feet,jsons/VE125_randls_17_rotated.json,1184449,1566452,59,Man
38,653144,DepthScenes,duration_manipulation_targetAtFixation,jsons/VE125_randls_17_rotated.json,http://54.235.29.9/FacialAge/BNav_EC2/DepthDuration/v2_depth_duration_MTurk/v2_DepthDuration_HTML.html#299,299,1600,827,1600,900,9-3-2022,13-39-18,39,depth_duration_stimuli/003495_2014-05-21_16-01-51_094959634447_rgbf000100-resize_3/003495_2014-05-21_16-01-51_094959634447_rgbf000100-resize_3-target.png,125,1.6255,4,5366,116,feet,jsons/VE125_randls_17_rotated.json,1184449,1566452,59,Man
39,653144,DepthScenes,duration_manipulation_targetAtFixation,jsons/VE125_randls_17_rotated.json,http://54.235.29.9/FacialAge/BNav_EC2/DepthDuration/v2_depth_duration_MTurk/v2_DepthDuration_HTML.html#299,299,1600,827,1600,900,9-3-2022,13-39-18,40,depth_duration_stimuli/001244_2014-06-17_16-47-45_260595134347_rgbf000030-resize_4/001244_2014-06-17_16-47-45_260595134347_rgbf000030-resize_4-target.png,125,2.0425,6,5167,117,feet,jsons/VE125_randls_17_rotated.json,1184449,1566452,59,Man
40,653144,DepthScenes,duration_manipulation_targetAtFixation,jsons/VE125_randls_17_rotated.json,http://54.235.29.9/FacialAge/BNav_EC2/DepthDuration/v2_depth_duration_MTurk/v2_DepthDuration_HTML.html#299,299,1600,827,1600,900,9-3-2022,13-39-18,41,depth_duration_stimuli/002425_2014-06-28_20-27-29_260595134347_rgbf000031-resize_8/002425_2014-06-28_20-27-29_260595134347_rgbf000031-resize_8-target.png,125,3.8960000000000004,10,6612,125,feet,jsons/VE125_randls_17_rotated.json,1184449,1566452,59,Man
41,653144,DepthScenes,duration_manipulation_targetAtFixation,jsons/VE125_randls_17_rotated.json,http://54.235.29.9/FacialAge/BNav_EC2/DepthDuration/v2_depth_duration_MTurk/v2_DepthDuration_HTML.html#299,299,1600,827,1600,900,9-3-2022,13-39-18,42,depth_duration_stimuli/000642_2014-06-08_16-59-25_260595134347_rgbf000098-resize_2/000642_2014-06-08_16-59-25_260595134347_rgbf000098-resize_2-target.png,125,2.8815,9,7461,132,feet,jsons/VE125_randls_17_rotated.json,1184449,1566452,59,Man
42,653144,DepthScenes,duration_manipulation_targetAtFixation,jsons/VE125_randls_17_rotated.json,http://54.235.29.9/FacialAge/BNav_EC2/DepthDuration/v2_depth_duration_MTurk/v2_DepthDuration_HTML.html#299,299,1600,827,1600,900,9-3-2022,13-39-18,43,depth_duration_stimuli/001094_2014-06-15_17-36-00_260595134347_rgbf000205-resize_0/001094_2014-06-15_17-36-00_260595134347_rgbf000205-resize_0-target.png,125,4.2175,10,5419,125,feet,jsons/VE125_randls_17_rotated.json,1184449,1566452,59,Man
43,653144,DepthScenes,duration_manipulation_targetAtFixation,jsons/VE125_randls_17_rotated.json,http://54.235.29.9/FacialAge/BNav_EC2/DepthDuration/v2_depth_duration_MTurk/v2_DepthDuration_HTML.html#299,299,1600,827,1600,900,9-3-2022,13-39-18,44,depth_duration_stimuli/000692_2014-06-08_13-09-42_260595134347_rgbf000199-resize_2/000692_2014-06-08_13-09-42_260595134347_rgbf000199-resize_2-target.png,125,3.661,17,6812,119,feet,jsons/VE125_randls_17_rotated.json,1184449,1566452,59,Man
44,653144,DepthScenes,duration_manipulation_targetAtFixation,jsons/VE125_randls_17_rotated.json,http://54.235.29.9/FacialAge/BNav_EC2/DepthDuration/v2_depth_duration_MTurk/v2_DepthDuration_HTML.html#299,299,1600,827,1600,900,9-3-2022,13-39-18,45,depth_duration_stimuli/000137_2014-05-20_17-04-49_260595134347_rgbf000120-resize_1/000137_2014-05-20_17-04-49_260595134347_rgbf000120-resize_1-target.png,125,3.786,9,6938,111,feet,jsons/VE125_randls_17_rotated.json,1184449,1566452,59,Man
45,653144,DepthScenes,duration_manipulation_targetAtFixation,jsons/VE125_randls_17_rotated.json,http://54.235.29.9/FacialAge/BNav_EC2/DepthDuration/v2_depth_duration_MTurk/v2_DepthDuration_HTML.html#299,299,1600,827,1600,900,9-3-2022,13-39-18,46,depth_duration_stimuli/000736_2014-06-08_18-24-15_260595134347_rgbf000206-resize_3/000736_2014-06-08_18-24-15_260595134347_rgbf000206-resize_3-target.png,125,3.515,8,6262,124,feet,jsons/VE125_randls_17_rotated.json,1184449,1566452,59,Man
46,653144,DepthScenes,duration_manipulation_targetAtFixation,jsons/VE125_randls_17_rotated.json,http://54.235.29.9/FacialAge/BNav_EC2/DepthDuration/v2_depth_duration_MTurk/v2_DepthDuration_HTML.html#299,299,1600,827,1600,900,9-3-2022,13-39-18,47,depth_duration_stimuli/003338_2014-05-20_11-01-23_094959634447_rgbf000051-resize_6/003338_2014-05-20_11-01-23_094959634447_rgbf000051-resize_6-target.png,125,1.693,5,6436,135,feet,jsons/VE125_randls_17_rotated.json,1184449,1566452,59,Man
47,653144,DepthScenes,duration_manipulation_targetAtFixation,jsons/VE125_randls_17_rotated.json,http://54.235.29.9/FacialAge/BNav_EC2/DepthDuration/v2_depth_duration_MTurk/v2_DepthDuration_HTML.html#299,299,1600,827,1600,900,9-3-2022,13-39-18,48,depth_duration_stimuli/002509_2014-06-24_13-19-22_094959634447_rgbf000077-resize_0/002509_2014-06-24_13-19-22_094959634447_rgbf000077-resize_0-target.png,125,1.3065,6,5896,124,feet,jsons/VE125_randls_17_rotated.json,1184449,1566452,59,Man
48,653144,DepthScenes,duration_manipulation_targetAtFixation,jsons/VE125_randls_17_rotated.json,http://54.235.29.9/FacialAge/BNav_EC2/DepthDuration/v2_depth_duration_MTurk/v2_DepthDuration_HTML.html#299,299,1600,827,1600,900,9-3-2022,13-39-18,49,depth_duration_stimuli/001170_2014-06-17_15-43-44_260595134347_rgbf000096-resize_6/001170_2014-06-17_15-43-44_260595134347_rgbf000096-resize-original.jpg,125,1.1909999999999998,0,6394,137,feet,jsons/VE125_randls_17_rotated.json,1184449,1566452,59,Man
49,653144,DepthScenes,duration_manipulation_targetAtFixation,jsons/VE125_randls_17_rotated.json,http://54.235.29.9/FacialAge/BNav_EC2/DepthDuration/v2_depth_duration_MTurk/v2_DepthDuration_HTML.html#299,299,1600,827,1600,900,9-3-2022,13-39-18,50,depth_duration_stimuli/001828_2014-06-26_21-40-03_260595134347_rgbf000024-resize_0/001828_2014-06-26_21-40-03_260595134347_rgbf000024-resize_0-target.png,125,4.8260000000000005,9,7097,132,feet,jsons/VE125_randls_17_rotated.json,1184449,1566452,59,Man
50,653144,DepthScenes,duration_manipulation_targetAtFixation,jsons/VE125_randls_17_rotated.json,http://54.235.29.9/FacialAge/BNav_EC2/DepthDuration/v2_depth_duration_MTurk/v2_DepthDuration_HTML.html#299,299,1600,827,1600,900,9-3-2022,13-39-18,51,depth_duration_stimuli/000009_2014-05-26_14-32-05_260595134347_rgbf000034-resize_3/000009_2014-05-26_14-32-05_260595134347_rgbf000034-resize_3-target.png,125,3.8715,10,6479,130,feet,jsons/VE125_randls_17_rotated.json,1184449,1566452,59,Man
51,653144,DepthScenes,duration_manipulation_targetAtFixation,jsons/VE125_randls_17_rotated.json,http://54.235.29.9/FacialAge/BNav_EC2/DepthDuration/v2_depth_duration_MTurk/v2_DepthDuration_HTML.html#299,299,1600,827,1600,900,9-3-2022,13-39-18,52,depth_duration_stimuli/000103_2014-05-14_22-01-17_260595134347_rgbf000152-resize_5/000103_2014-05-14_22-01-17_260595134347_rgbf000152-resize_5-target.png,125,1.993,8,9492,120,feet,jsons/VE125_randls_17_rotated.json,1184449,1566452,59,Man
52,653144,DepthScenes,duration_manipulation_targetAtFixation,jsons/VE125_randls_17_rotated.json,http://54.235.29.9/FacialAge/BNav_EC2/DepthDuration/v2_depth_duration_MTurk/v2_DepthDuration_HTML.html#299,299,1600,827,1600,900,9-3-2022,13-39-18,53,depth_duration_stimuli/001555_2014-06-20_17-12-10_260595134347_rgbf000065-resize_4/001555_2014-06-20_17-12-10_260595134347_rgbf000065-resize_4-target.png,125,1.633,5,4347,126,feet,jsons/VE125_randls_17_rotated.json,1184449,1566452,59,Man
53,653144,DepthScenes,duration_manipulation_targetAtFixation,jsons/VE125_randls_17_rotated.json,http://54.235.29.9/FacialAge/BNav_EC2/DepthDuration/v2_depth_duration_MTurk/v2_DepthDuration_HTML.html#299,299,1600,827,1600,900,9-3-2022,13-39-18,54,depth_duration_stimuli/002953_2014-06-08_17-32-18_094959634447_rgbf000059-resize_5/002953_2014-06-08_17-32-18_094959634447_rgbf000059-resize_5-target.png,125,1.551,3,6452,135,feet,jsons/VE125_randls_17_rotated.json,1184449,1566452,59,Man
54,653144,DepthScenes,duration_manipulation_targetAtFixation,jsons/VE125_randls_17_rotated.json,http://54.235.29.9/FacialAge/BNav_EC2/DepthDuration/v2_depth_duration_MTurk/v2_DepthDuration_HTML.html#299,299,1600,827,1600,900,9-3-2022,13-39-18,55,depth_duration_stimuli/000878_2014-06-08_22-52-45_260595134347_rgbf000045-resize_2/000878_2014-06-08_22-52-45_260595134347_rgbf000045-resize_2-target.png,125,2.092,6,5142,115,feet,jsons/VE125_randls_17_rotated.json,1184449,1566452,59,Man
55,653144,DepthScenes,duration_manipulation_targetAtFixation,jsons/VE125_randls_17_rotated.json,http://54.235.29.9/FacialAge/BNav_EC2/DepthDuration/v2_depth_duration_MTurk/v2_DepthDuration_HTML.html#299,299,1600,827,1600,900,9-3-2022,13-39-18,56,depth_duration_stimuli/001214_2014-06-17_16-13-55_260595134347_rgbf000111-resize_0/001214_2014-06-17_16-13-55_260595134347_rgbf000111-resize_0-target.png,125,2.6505,7,6790,128,feet,jsons/VE125_randls_17_rotated.json,1184449,1566452,59,Man
56,653144,DepthScenes,duration_manipulation_targetAtFixation,jsons/VE125_randls_17_rotated.json,http://54.235.29.9/FacialAge/BNav_EC2/DepthDuration/v2_depth_duration_MTurk/v2_DepthDuration_HTML.html#299,299,1600,827,1600,900,9-3-2022,13-39-18,57,depth_duration_stimuli/000810_2014-06-08_17-20-01_260595134347_rgbf000105-resize_0/000810_2014-06-08_17-20-01_260595134347_rgbf000105-resize_0-target.png,125,1.4865,6,4430,116,feet,jsons/VE125_randls_17_rotated.json,1184449,1566452,59,Man
57,653144,DepthScenes,duration_manipulation_targetAtFixation,jsons/VE125_randls_17_rotated.json,http://54.235.29.9/FacialAge/BNav_EC2/DepthDuration/v2_depth_duration_MTurk/v2_DepthDuration_HTML.html#299,299,1600,827,1600,900,9-3-2022,13-39-18,58,depth_duration_stimuli/002639_2014-06-24_14-51-37_094959634447_rgbf000074-resize_4/002639_2014-06-24_14-51-37_094959634447_rgbf000074-resize_4-target.png,125,4.0375,10,5453,121,feet,jsons/VE125_randls_17_rotated.json,1184449,1566452,59,Man
58,653144,DepthScenes,duration_manipulation_targetAtFixation,jsons/VE125_randls_17_rotated.json,http://54.235.29.9/FacialAge/BNav_EC2/DepthDuration/v2_depth_duration_MTurk/v2_DepthDuration_HTML.html#299,299,1600,827,1600,900,9-3-2022,13-39-18,59,depth_duration_stimuli/003292_2014-05-14_21-53-49_094959634447_rgbf000100-resize_2/003292_2014-05-14_21-53-49_094959634447_rgbf000100-resize_2-target.png,125,3.4815,9,6251,124,feet,jsons/VE125_randls_17_rotated.json,1184449,1566452,59,Man
59,653144,DepthScenes,duration_manipulation_targetAtFixation,jsons/VE125_randls_17_rotated.json,http://54.235.29.9/FacialAge/BNav_EC2/DepthDuration/v2_depth_duration_MTurk/v2_DepthDuration_HTML.html#299,299,1600,827,1600,900,9-3-2022,13-39-18,60,depth_duration_stimuli/003490_2014-05-21_15-50-11_094959634447_rgbf000101-resize_3/003490_2014-05-21_15-50-11_094959634447_rgbf000101-resize_3-target.png,125,3.6445,12,5757,110,feet,jsons/VE125_randls_17_rotated.json,1184449,1566452,59,Man
60,653144,DepthScenes,duration_manipulation_targetAtFixation,jsons/VE125_randls_17_rotated.json,http://54.235.29.9/FacialAge/BNav_EC2/DepthDuration/v2_depth_duration_MTurk/v2_DepthDuration_HTML.html#299,299,1600,827,1600,900,9-3-2022,13-39-18,61,depth_duration_stimuli/001175_2014-06-17_15-45-55_260595134347_rgbf000129-resize_4/001175_2014-06-17_15-45-55_260595134347_rgbf000129-resize_4-target.png,125,4.255,15,5342,113,feet,jsons/VE125_randls_17_rotated.json,1184449,1566452,59,Man
61,653144,DepthScenes,duration_manipulation_targetAtFixation,jsons/VE125_randls_17_rotated.json,http://54.235.29.9/FacialAge/BNav_EC2/DepthDuration/v2_depth_duration_MTurk/v2_DepthDuration_HTML.html#299,299,1600,827,1600,900,9-3-2022,13-39-18,62,depth_duration_stimuli/001571_2014-06-20_17-21-32_260595134347_rgbf000089-resize_1/001571_2014-06-20_17-21-32_260595134347_rgbf000089-resize_1-target.png,125,1.86,4,6145,125,feet,jsons/VE125_randls_17_rotated.json,1184449,1566452,59,Man
62,653144,DepthScenes,duration_manipulation_targetAtFixation,jsons/VE125_randls_17_rotated.json,http://54.235.29.9/FacialAge/BNav_EC2/DepthDuration/v2_depth_duration_MTurk/v2_DepthDuration_HTML.html#299,299,1600,827,1600,900,9-3-2022,13-39-18,63,depth_duration_stimuli/002272_2014-06-28_18-53-56_260595134347_rgbf000067-resize_2/002272_2014-06-28_18-53-56_260595134347_rgbf000067-resize_2-target.png,125,1.138,3,7144,112,feet,jsons/VE125_randls_17_rotated.json,1184449,1566452,59,Man
63,653144,DepthScenes,duration_manipulation_targetAtFixation,jsons/VE125_randls_17_rotated.json,http://54.235.29.9/FacialAge/BNav_EC2/DepthDuration/v2_depth_duration_MTurk/v2_DepthDuration_HTML.html#299,299,1600,827,1600,900,9-3-2022,13-39-18,64,depth_duration_stimuli/003129_2014-05-12_10-48-10_094959634447_rgbf000100-resize_0/003129_2014-05-12_10-48-10_094959634447_rgbf000100-resize_0-target.png,125,4.9305,12,4125,131,feet,jsons/VE125_randls_17_rotated.json,1184449,1566452,59,Man
64,653144,DepthScenes,duration_manipulation_targetAtFixation,jsons/VE125_randls_17_rotated.json,http://54.235.29.9/FacialAge/BNav_EC2/DepthDuration/v2_depth_duration_MTurk/v2_DepthDuration_HTML.html#299,299,1600,827,1600,900,9-3-2022,13-39-18,65,depth_duration_stimuli/000414_2014-06-04_19-49-13_260595134347_rgbf000044-resize_0/000414_2014-06-04_19-49-13_260595134347_rgbf000044-resize_0-target.png,125,4.329,10,5445,123,feet,jsons/VE125_randls_17_rotated.json,1184449,1566452,59,Man
65,653144,DepthScenes,duration_manipulation_targetAtFixation,jsons/VE125_randls_17_rotated.json,http://54.235.29.9/FacialAge/BNav_EC2/DepthDuration/v2_depth_duration_MTurk/v2_DepthDuration_HTML.html#299,299,1600,827,1600,900,9-3-2022,13-39-18,66,depth_duration_stimuli/001540_2014-06-20_17-01-05_260595134347_rgbf000086-resize_2/001540_2014-06-20_17-01-05_260595134347_rgbf000086-resize-original.jpg,125,1.459,0,4880,127,feet,jsons/VE125_randls_17_rotated.json,1184449,1566452,59,Man
66,653144,DepthScenes,duration_manipulation_targetAtFixation,jsons/VE125_randls_17_rotated.json,http://54.235.29.9/FacialAge/BNav_EC2/DepthDuration/v2_depth_duration_MTurk/v2_DepthDuration_HTML.html#299,299,1600,827,1600,900,9-3-2022,13-39-18,67,depth_duration_stimuli/000927_2014-06-09_16-32-30_260595134347_rgbf000123-resize_3/000927_2014-06-09_16-32-30_260595134347_rgbf000123-resize_3-target.png,125,2.6785,7,4908,123,feet,jsons/VE125_randls_17_rotated.json,1184449,1566452,59,Man
67,653144,DepthScenes,duration_manipulation_targetAtFixation,jsons/VE125_randls_17_rotated.json,http://54.235.29.9/FacialAge/BNav_EC2/DepthDuration/v2_depth_duration_MTurk/v2_DepthDuration_HTML.html#299,299,1600,827,1600,900,9-3-2022,13-39-18,68,depth_duration_stimuli/001110_2014-06-15_17-25-28_260595134347_rgbf000150-resize_1/001110_2014-06-15_17-25-28_260595134347_rgbf000150-resize_1-target.png,125,1.7115,4,5170,126,feet,jsons/VE125_randls_17_rotated.json,1184449,1566452,59,Man
68,653144,DepthScenes,duration_manipulation_targetAtFixation,jsons/VE125_randls_17_rotated.json,http://54.235.29.9/FacialAge/BNav_EC2/DepthDuration/v2_depth_duration_MTurk/v2_DepthDuration_HTML.html#299,299,1600,827,1600,900,9-3-2022,13-39-18,69,depth_duration_stimuli/002344_2014-06-28_20-06-29_260595134347_rgbf000030-resize_1/002344_2014-06-28_20-06-29_260595134347_rgbf000030-resize_1-target.png,125,1.5795,6,5753,129,feet,jsons/VE125_randls_17_rotated.json,1184449,1566452,59,Man
69,653144,DepthScenes,duration_manipulation_targetAtFixation,jsons/VE125_randls_17_rotated.json,http://54.235.29.9/FacialAge/BNav_EC2/DepthDuration/v2_depth_duration_MTurk/v2_DepthDuration_HTML.html#299,299,1600,827,1600,900,9-3-2022,13-39-18,70,depth_duration_stimuli/002725_2014-06-22_11-47-51_094959634447_rgbf000070-resize_1/002725_2014-06-22_11-47-51_094959634447_rgbf000070-resize_1-target.png,125,2.195,7,5566,133,feet,jsons/VE125_randls_17_rotated.json,1184449,1566452,59,Man
70,653144,DepthScenes,duration_manipulation_targetAtFixation,jsons/VE125_randls_17_rotated.json,http://54.235.29.9/FacialAge/BNav_EC2/DepthDuration/v2_depth_duration_MTurk/v2_DepthDuration_HTML.html#299,299,1600,827,1600,900,9-3-2022,13-39-18,71,depth_duration_stimuli/002758_2014-06-22_19-11-20_094959634447_rgbf000128-resize_1/002758_2014-06-22_19-11-20_094959634447_rgbf000128-resize_1-target.png,125,2.555,5,5619,123,feet,jsons/VE125_randls_17_rotated.json,1184449,1566452,59,Man
71,653144,DepthScenes,duration_manipulation_targetAtFixation,jsons/VE125_randls_17_rotated.json,http://54.235.29.9/FacialAge/BNav_EC2/DepthDuration/v2_depth_duration_MTurk/v2_DepthDuration_HTML.html#299,299,1600,827,1600,900,9-3-2022,13-39-18,72,depth_duration_stimuli/002630_2014-06-24_14-47-50_094959634447_rgbf000055-resize_1/002630_2014-06-24_14-47-50_094959634447_rgbf000055-resize_1-target.png,125,3.0095,11,5058,117,feet,jsons/VE125_randls_17_rotated.json,1184449,1566452,59,Man
72,653144,DepthScenes,duration_manipulation_targetAtFixation,jsons/VE125_randls_17_rotated.json,http://54.235.29.9/FacialAge/BNav_EC2/DepthDuration/v2_depth_duration_MTurk/v2_DepthDuration_HTML.html#299,299,1600,827,1600,900,9-3-2022,13-39-18,73,depth_duration_stimuli/002340_2014-06-28_20-05-46_260595134347_rgbf000113-resize_0/002340_2014-06-28_20-05-46_260595134347_rgbf000113-resize_0-target.png,125,2.4735,8,5549,126,feet,jsons/VE125_randls_17_rotated.json,1184449,1566452,59,Man
73,653144,DepthScenes,duration_manipulation_targetAtFixation,jsons/VE125_randls_17_rotated.json,http://54.235.29.9/FacialAge/BNav_EC2/DepthDuration/v2_depth_duration_MTurk/v2_DepthDuration_HTML.html#299,299,1600,827,1600,900,9-3-2022,13-39-18,74,depth_duration_stimuli/001016_2014-06-09_16-16-10_260595134347_rgbf000112-resize_5/001016_2014-06-09_16-16-10_260595134347_rgbf000112-resize_5-target.png,125,1.6565,6,3176,129,feet,jsons/VE125_randls_17_rotated.json,1184449,1566452,59,Man
74,653144,DepthScenes,duration_manipulation_targetAtFixation,jsons/VE125_randls_17_rotated.json,http://54.235.29.9/FacialAge/BNav_EC2/DepthDuration/v2_depth_duration_MTurk/v2_DepthDuration_HTML.html#299,299,1600,827,1600,900,9-3-2022,13-39-18,75,depth_duration_stimuli/001450_2014-06-19_17-02-03_260595134347_rgbf000203-resize_4/001450_2014-06-19_17-02-03_260595134347_rgbf000203-resize_4-target.png,125,4.0106666666667,11,5276,128,feet,jsons/VE125_randls_17_rotated.json,1184449,1566452,59,Man
75,653144,DepthScenes,duration_manipulation_targetAtFixation,jsons/VE125_randls_17_rotated.json,http://54.235.29.9/FacialAge/BNav_EC2/DepthDuration/v2_depth_duration_MTurk/v2_DepthDuration_HTML.html#299,299,1600,827,1600,900,9-3-2022,13-39-18,76,depth_duration_stimuli/001449_2014-06-19_17-01-27_260595134347_rgbf000116-resize_2/001449_2014-06-19_17-01-27_260595134347_rgbf000116-resize_2-target.png,125,3.452,9,3510,126,feet,jsons/VE125_randls_17_rotated.json,1184449,1566452,59,Man
76,653144,DepthScenes,duration_manipulation_targetAtFixation,jsons/VE125_randls_17_rotated.json,http://54.235.29.9/FacialAge/BNav_EC2/DepthDuration/v2_depth_duration_MTurk/v2_DepthDuration_HTML.html#299,299,1600,827,1600,900,9-3-2022,13-39-18,77,depth_duration_stimuli/002323_2014-06-28_20-01-54_260595134347_rgbf000051-resize_4/002323_2014-06-28_20-01-54_260595134347_rgbf000051-resize_4-target.png,125,3.7310000000000003,10,4766,112,feet,jsons/VE125_randls_17_rotated.json,1184449,1566452,59,Man
77,653144,DepthScenes,duration_manipulation_targetAtFixation,jsons/VE125_randls_17_rotated.json,http://54.235.29.9/FacialAge/BNav_EC2/DepthDuration/v2_depth_duration_MTurk/v2_DepthDuration_HTML.html#299,299,1600,827,1600,900,9-3-2022,13-39-18,78,depth_duration_stimuli/000917_2014-06-09_22-45-29_260595134347_rgbf000149-resize_3/000917_2014-06-09_22-45-29_260595134347_rgbf000149-resize_3-target.png,125,4.1865,9,5824,141,feet,jsons/VE125_randls_17_rotated.json,1184449,1566452,59,Man
78,653144,DepthScenes,duration_manipulation_targetAtFixation,jsons/VE125_randls_17_rotated.json,http://54.235.29.9/FacialAge/BNav_EC2/DepthDuration/v2_depth_duration_MTurk/v2_DepthDuration_HTML.html#299,299,1600,827,1600,900,9-3-2022,13-39-18,79,depth_duration_stimuli/000749_2014-06-08_21-55-06_260595134347_rgbf000070-resize_2/000749_2014-06-08_21-55-06_260595134347_rgbf000070-resize_2-target.png,125,2.331,8,3371,138,feet,jsons/VE125_randls_17_rotated.json,1184449,1566452,59,Man
79,653144,DepthScenes,duration_manipulation_targetAtFixation,jsons/VE125_randls_17_rotated.json,http://54.235.29.9/FacialAge/BNav_EC2/DepthDuration/v2_depth_duration_MTurk/v2_DepthDuration_HTML.html#299,299,1600,827,1600,900,9-3-2022,13-39-18,80,depth_duration_stimuli/002788_2014-06-22_19-36-03_094959634447_rgbf000088-resize_2/002788_2014-06-22_19-36-03_094959634447_rgbf000088-resize_2-target.png,125,1.6465,8,4101,117,feet,jsons/VE125_randls_17_rotated.json,1184449,1566452,59,Man
80,653144,DepthScenes,duration_manipulation_targetAtFixation,jsons/VE125_randls_17_rotated.json,http://54.235.29.9/FacialAge/BNav_EC2/DepthDuration/v2_depth_duration_MTurk/v2_DepthDuration_HTML.html#299,299,1600,827,1600,900,9-3-2022,13-39-18,81,depth_duration_stimuli/002678_2014-06-13_16-15-32_094959634447_rgbf000151-resize_6/002678_2014-06-13_16-15-32_094959634447_rgbf000151-resize_6-target.png,125,2.1830000000000003,14,4250,139,feet,jsons/VE125_randls_17_rotated.json,1184449,1566452,59,Man
81,653144,DepthScenes,duration_manipulation_targetAtFixation,jsons/VE125_randls_17_rotated.json,http://54.235.29.9/FacialAge/BNav_EC2/DepthDuration/v2_depth_duration_MTurk/v2_DepthDuration_HTML.html#299,299,1600,827,1600,900,9-3-2022,13-39-18,82,depth_duration_stimuli/000368_2014-06-09_15-53-01_260595134347_rgbf000155-resize_2/000368_2014-06-09_15-53-01_260595134347_rgbf000155-resize_2-target.png,125,2.4859999999999998,7,5882,123,feet,jsons/VE125_randls_17_rotated.json,1184449,1566452,59,Man
82,653144,DepthScenes,duration_manipulation_targetAtFixation,jsons/VE125_randls_17_rotated.json,http://54.235.29.9/FacialAge/BNav_EC2/DepthDuration/v2_depth_duration_MTurk/v2_DepthDuration_HTML.html#299,299,1600,827,1600,900,9-3-2022,13-39-18,83,depth_duration_stimuli/000742_2014-06-08_18-48-09_260595134347_rgbf000164-resize_4/000742_2014-06-08_18-48-09_260595134347_rgbf000164-resize_4-target.png,125,4.632,12,3703,135,feet,jsons/VE125_randls_17_rotated.json,1184449,1566452,59,Man
83,653144,DepthScenes,duration_manipulation_targetAtFixation,jsons/VE125_randls_17_rotated.json,http://54.235.29.9/FacialAge/BNav_EC2/DepthDuration/v2_depth_duration_MTurk/v2_DepthDuration_HTML.html#299,299,1600,827,1600,900,9-3-2022,13-39-18,84,depth_duration_stimuli/001066_2014-06-08_22-03-20_260595134347_rgbf000066-resize_4/001066_2014-06-08_22-03-20_260595134347_rgbf000066-resize_4-target.png,125,4.2330000000000005,15,3144,115,feet,jsons/VE125_randls_17_rotated.json,1184449,1566452,59,Man
84,653144,DepthScenes,duration_manipulation_targetAtFixation,jsons/VE125_randls_17_rotated.json,http://54.235.29.9/FacialAge/BNav_EC2/DepthDuration/v2_depth_duration_MTurk/v2_DepthDuration_HTML.html#299,299,1600,827,1600,900,9-3-2022,13-39-18,85,depth_duration_stimuli/002949_2014-06-26_15-57-42_094959634447_rgbf000079-resize_1/002949_2014-06-26_15-57-42_094959634447_rgbf000079-resize_1-target.png,125,1.8915,4,7319,132,feet,jsons/VE125_randls_17_rotated.json,1184449,1566452,59,Man
85,653144,DepthScenes,duration_manipulation_targetAtFixation,jsons/VE125_randls_17_rotated.json,http://54.235.29.9/FacialAge/BNav_EC2/DepthDuration/v2_depth_duration_MTurk/v2_DepthDuration_HTML.html#299,299,1600,827,1600,900,9-3-2022,13-39-18,86,depth_duration_stimuli/000522_2014-06-08_13-35-06_260595134347_rgbf000244-resize_1/000522_2014-06-08_13-35-06_260595134347_rgbf000244-resize_1-target.png,125,2.3715,3,2812,125,feet,jsons/VE125_randls_17_rotated.json,1184449,1566452,59,Man
86,653144,DepthScenes,duration_manipulation_targetAtFixation,jsons/VE125_randls_17_rotated.json,http://54.235.29.9/FacialAge/BNav_EC2/DepthDuration/v2_depth_duration_MTurk/v2_DepthDuration_HTML.html#299,299,1600,827,1600,900,9-3-2022,13-39-18,87,depth_duration_stimuli/000549_2014-06-08_22-10-24_260595134347_rgbf000247-resize_3/000549_2014-06-08_22-10-24_260595134347_rgbf000247-resize_3-target.png,125,1.841,4,3093,126,feet,jsons/VE125_randls_17_rotated.json,1184449,1566452,59,Man
87,653144,DepthScenes,duration_manipulation_targetAtFixation,jsons/VE125_randls_17_rotated.json,http://54.235.29.9/FacialAge/BNav_EC2/DepthDuration/v2_depth_duration_MTurk/v2_DepthDuration_HTML.html#299,299,1600,827,1600,900,9-3-2022,13-39-18,88,depth_duration_stimuli/001055_2014-06-08_18-45-35_260595134347_rgbf000111-resize_4/001055_2014-06-08_18-45-35_260595134347_rgbf000111-resize_4-target.png,125,2.4290000000000003,5,2910,122,feet,jsons/VE125_randls_17_rotated.json,1184449,1566452,59,Man
88,653144,DepthScenes,duration_manipulation_targetAtFixation,jsons/VE125_randls_17_rotated.json,http://54.235.29.9/FacialAge/BNav_EC2/DepthDuration/v2_depth_duration_MTurk/v2_DepthDuration_HTML.html#299,299,1600,827,1600,900,9-3-2022,13-39-18,89,depth_duration_stimuli/001650_2014-06-20_12-09-00_260595134347_rgbf000087-resize_3/001650_2014-06-20_12-09-00_260595134347_rgbf000087-resize_3-target.png,125,1.9505,3,4326,127,feet,jsons/VE125_randls_17_rotated.json,1184449,1566452,59,Man
89,653144,DepthScenes,duration_manipulation_targetAtFixation,jsons/VE125_randls_17_rotated.json,http://54.235.29.9/FacialAge/BNav_EC2/DepthDuration/v2_depth_duration_MTurk/v2_DepthDuration_HTML.html#299,299,1600,827,1600,900,9-3-2022,13-39-18,90,depth_duration_stimuli/000682_2014-06-08_23-14-58_260595134347_rgbf000041-resize_5/000682_2014-06-08_23-14-58_260595134347_rgbf000041-resize_5-target.png,125,2.7239999999999998,6,2645,123,feet,jsons/VE125_randls_17_rotated.json,1184449,1566452,59,Man
90,653144,DepthScenes,duration_manipulation_targetAtFixation,jsons/VE125_randls_17_rotated.json,http://54.235.29.9/FacialAge/BNav_EC2/DepthDuration/v2_depth_duration_MTurk/v2_DepthDuration_HTML.html#299,299,1600,827,1600,900,9-3-2022,13-39-18,91,depth_duration_stimuli/001100_2014-06-15_17-46-26_260595134347_rgbf000225-resize_2/001100_2014-06-15_17-46-26_260595134347_rgbf000225-resize_2-target.png,125,2.24,5,3210,112,feet,jsons/VE125_randls_17_rotated.json,1184449,1566452,59,Man
91,653144,DepthScenes,duration_manipulation_targetAtFixation,jsons/VE125_randls_17_rotated.json,http://54.235.29.9/FacialAge/BNav_EC2/DepthDuration/v2_depth_duration_MTurk/v2_DepthDuration_HTML.html#299,299,1600,827,1600,900,9-3-2022,13-39-18,92,depth_duration_stimuli/002784_2014-06-22_19-26-30_094959634447_rgbf000083-resize_3/002784_2014-06-22_19-26-30_094959634447_rgbf000083-resize_3-target.png,125,1.8046666666667,4,6718,127,feet,jsons/VE125_randls_17_rotated.json,1184449,1566452,59,Man
92,653144,DepthScenes,duration_manipulation_targetAtFixation,jsons/VE125_randls_17_rotated.json,http://54.235.29.9/FacialAge/BNav_EC2/DepthDuration/v2_depth_duration_MTurk/v2_DepthDuration_HTML.html#299,299,1600,827,1600,900,9-3-2022,13-39-18,93,depth_duration_stimuli/002545_2014-06-24_13-38-53_094959634447_rgbf000080-resize_4/002545_2014-06-24_13-38-53_094959634447_rgbf000080-resize_4-target.png,125,1.9205,7,3705,122,feet,jsons/VE125_randls_17_rotated.json,1184449,1566452,59,Man
93,653144,DepthScenes,duration_manipulation_targetAtFixation,jsons/VE125_randls_17_rotated.json,http://54.235.29.9/FacialAge/BNav_EC2/DepthDuration/v2_depth_duration_MTurk/v2_DepthDuration_HTML.html#299,299,1600,827,1600,900,9-3-2022,13-39-18,94,depth_duration_stimuli/001092_2014-06-15_17-34-58_260595134347_rgbf000171-resize_3/001092_2014-06-15_17-34-58_260595134347_rgbf000171-resize_3-target.png,125,2.6935,5,3217,124,feet,jsons/VE125_randls_17_rotated.json,1184449,1566452,59,Man
94,653144,DepthScenes,duration_manipulation_targetAtFixation,jsons/VE125_randls_17_rotated.json,http://54.235.29.9/FacialAge/BNav_EC2/DepthDuration/v2_depth_duration_MTurk/v2_DepthDuration_HTML.html#299,299,1600,827,1600,900,9-3-2022,13-39-18,95,depth_duration_stimuli/000854_2014-06-09_19-43-13_260595134347_rgbf000066-resize_0/000854_2014-06-09_19-43-13_260595134347_rgbf000066-resize_0-target.png,125,3.068,6,3458,132,feet,jsons/VE125_randls_17_rotated.json,1184449,1566452,59,Man
95,653144,DepthScenes,duration_manipulation_targetAtFixation,jsons/VE125_randls_17_rotated.json,http://54.235.29.9/FacialAge/BNav_EC2/DepthDuration/v2_depth_duration_MTurk/v2_DepthDuration_HTML.html#299,299,1600,827,1600,900,9-3-2022,13-39-18,96,depth_duration_stimuli/000758_2014-06-08_22-05-08_260595134347_rgbf000085-resize_0/000758_2014-06-08_22-05-08_260595134347_rgbf000085-resize_0-target.png,125,3.3810000000000002,9,4022,124,feet,jsons/VE125_randls_17_rotated.json,1184449,1566452,59,Man
96,653144,DepthScenes,duration_manipulation_targetAtFixation,jsons/VE125_randls_17_rotated.json,http://54.235.29.9/FacialAge/BNav_EC2/DepthDuration/v2_depth_duration_MTurk/v2_DepthDuration_HTML.html#299,299,1600,827,1600,900,9-3-2022,13-39-18,97,depth_duration_stimuli/000191_2014-05-12_17-07-38_260595134347_rgbf000199-resize_0/000191_2014-05-12_17-07-38_260595134347_rgbf000199-resize_0-target.png,125,3.7995,11,3317,115,feet,jsons/VE125_randls_17_rotated.json,1184449,1566452,59,Man
97,653144,DepthScenes,duration_manipulation_targetAtFixation,jsons/VE125_randls_17_rotated.json,http://54.235.29.9/FacialAge/BNav_EC2/DepthDuration/v2_depth_duration_MTurk/v2_DepthDuration_HTML.html#299,299,1600,827,1600,900,9-3-2022,13-39-18,98,depth_duration_stimuli/000493_2014-06-09_21-01-18_260595134347_rgbf000196-resize_3/000493_2014-06-09_21-01-18_260595134347_rgbf000196-resize_3-target.png,125,3.44,9,4535,122,feet,jsons/VE125_randls_17_rotated.json,1184449,1566452,59,Man
98,653144,DepthScenes,duration_manipulation_targetAtFixation,jsons/VE125_randls_17_rotated.json,http://54.235.29.9/FacialAge/BNav_EC2/DepthDuration/v2_depth_duration_MTurk/v2_DepthDuration_HTML.html#299,299,1600,827,1600,900,9-3-2022,13-39-18,99,depth_duration_stimuli/001222_2014-06-17_16-24-06_260595134347_rgbf000073-resize_0/001222_2014-06-17_16-24-06_260595134347_rgbf000073-resize-original.jpg,125,1.4385,0,4874,117,feet,jsons/VE125_randls_17_rotated.json,1184449,1566452,59,Man
99,653144,DepthScenes,duration_manipulation_targetAtFixation,jsons/VE125_randls_17_rotated.json,http://54.235.29.9/FacialAge/BNav_EC2/DepthDuration/v2_depth_duration_MTurk/v2_DepthDuration_HTML.html#299,299,1600,827,1600,900,9-3-2022,13-39-18,100,depth_duration_stimuli/002660_2014-06-13_15-44-18_094959634447_rgbf001878-resize_2/002660_2014-06-13_15-44-18_094959634447_rgbf001878-resize_2-target.png,125,3.576,6,5031,114,feet,jsons/VE125_randls_17_rotated.json,1184449,1566452,59,Man
100,653144,DepthScenes,duration_manipulation_targetAtFixation,jsons/VE125_randls_17_rotated.json,http://54.235.29.9/FacialAge/BNav_EC2/DepthDuration/v2_depth_duration_MTurk/v2_DepthDuration_HTML.html#299,299,1600,827,1600,900,9-3-2022,13-39-18,101,depth_duration_stimuli/002153_2014-06-25_21-27-18_260595134347_rgbf000038-resize_5/002153_2014-06-25_21-27-18_260595134347_rgbf000038-resize_5-target.png,125,2.505,6,3670,132,feet,jsons/VE125_randls_17_rotated.json,1184449,1566452,59,Man
101,653144,DepthScenes,duration_manipulation_targetAtFixation,jsons/VE125_randls_17_rotated.json,http://54.235.29.9/FacialAge/BNav_EC2/DepthDuration/v2_depth_duration_MTurk/v2_DepthDuration_HTML.html#299,299,1600,827,1600,900,9-3-2022,13-39-18,102,depth_duration_stimuli/000866_2014-06-09_20-45-42_260595134347_rgbf000139-resize_1/000866_2014-06-09_20-45-42_260595134347_rgbf000139-resize_1-target.png,125,3.2155,7,3565,138,feet,jsons/VE125_randls_17_rotated.json,1184449,1566452,59,Man
102,653144,DepthScenes,duration_manipulation_targetAtFixation,jsons/VE125_randls_17_rotated.json,http://54.235.29.9/FacialAge/BNav_EC2/DepthDuration/v2_depth_duration_MTurk/v2_DepthDuration_HTML.html#299,299,1600,827,1600,900,9-3-2022,13-39-18,103,depth_duration_stimuli/002989_2014-06-15_12-25-03_094959634447_rgbf000150-resize_3/002989_2014-06-15_12-25-03_094959634447_rgbf000150-resize_3-target.png,125,4.1975,8,3148,126,feet,jsons/VE125_randls_17_rotated.json,1184449,1566452,59,Man
103,653144,DepthScenes,duration_manipulation_targetAtFixation,jsons/VE125_randls_17_rotated.json,http://54.235.29.9/FacialAge/BNav_EC2/DepthDuration/v2_depth_duration_MTurk/v2_DepthDuration_HTML.html#299,299,1600,827,1600,900,9-3-2022,13-39-18,104,depth_duration_stimuli/002136_2014-06-25_21-18-03_260595134347_rgbf000109-resize_3/002136_2014-06-25_21-18-03_260595134347_rgbf000109-resize_3-target.png,125,1.9569999999999999,6,3353,112,feet,jsons/VE125_randls_17_rotated.json,1184449,1566452,59,Man
104,653144,DepthScenes,duration_manipulation_targetAtFixation,jsons/VE125_randls_17_rotated.json,http://54.235.29.9/FacialAge/BNav_EC2/DepthDuration/v2_depth_duration_MTurk/v2_DepthDuration_HTML.html#299,299,1600,827,1600,900,9-3-2022,13-39-18,105,depth_duration_stimuli/002964_2014-06-08_17-46-11_094959634447_rgbf000091-resize_4/002964_2014-06-08_17-46-11_094959634447_rgbf000091-resize_4-target.png,125,1.6909999999999998,5,2758,125,feet,jsons/VE125_randls_17_rotated.json,1184449,1566452,59,Man
105,653144,DepthScenes,duration_manipulation_targetAtFixation,jsons/VE125_randls_17_rotated.json,http://54.235.29.9/FacialAge/BNav_EC2/DepthDuration/v2_depth_duration_MTurk/v2_DepthDuration_HTML.html#299,299,1600,827,1600,900,9-3-2022,13-39-18,106,depth_duration_stimuli/001032_2014-06-08_13-23-17_260595134347_rgbf000021-resize_3/001032_2014-06-08_13-23-17_260595134347_rgbf000021-resize_3-target.png,125,3.2725,6,2862,117,feet,jsons/VE125_randls_17_rotated.json,1184449,1566452,59,Man
106,653144,DepthScenes,duration_manipulation_targetAtFixation,jsons/VE125_randls_17_rotated.json,http://54.235.29.9/FacialAge/BNav_EC2/DepthDuration/v2_depth_duration_MTurk/v2_DepthDuration_HTML.html#299,299,1600,827,1600,900,9-3-2022,13-39-18,107,depth_duration_stimuli/001059_2014-06-08_21-53-27_260595134347_rgbf000061-resize_4/001059_2014-06-08_21-53-27_260595134347_rgbf000061-resize_4-target.png,125,2.4185,6,2709,134,feet,jsons/VE125_randls_17_rotated.json,1184449,1566452,59,Man
107,653144,DepthScenes,duration_manipulation_targetAtFixation,jsons/VE125_randls_17_rotated.json,http://54.235.29.9/FacialAge/BNav_EC2/DepthDuration/v2_depth_duration_MTurk/v2_DepthDuration_HTML.html#299,299,1600,827,1600,900,9-3-2022,13-39-18,108,depth_duration_stimuli/001052_2014-06-08_18-24-54_260595134347_rgbf000130-resize_1/001052_2014-06-08_18-24-54_260595134347_rgbf000130-resize_1-target.png,125,4.1045,8,2607,114,feet,jsons/VE125_randls_17_rotated.json,1184449,1566452,59,Man
108,653144,DepthScenes,duration_manipulation_targetAtFixation,jsons/VE125_randls_17_rotated.json,http://54.235.29.9/FacialAge/BNav_EC2/DepthDuration/v2_depth_duration_MTurk/v2_DepthDuration_HTML.html#299,299,1600,827,1600,900,9-3-2022,13-39-18,109,depth_duration_stimuli/002988_2014-06-15_12-24-20_094959634447_rgbf000150-resize_1/002988_2014-06-15_12-24-20_094959634447_rgbf000150-resize_1-target.png,125,4.7669999999999995,10,3102,123,feet,jsons/VE125_randls_17_rotated.json,1184449,1566452,59,Man
109,653144,DepthScenes,duration_manipulation_targetAtFixation,jsons/VE125_randls_17_rotated.json,http://54.235.29.9/FacialAge/BNav_EC2/DepthDuration/v2_depth_duration_MTurk/v2_DepthDuration_HTML.html#299,299,1600,827,1600,900,9-3-2022,13-39-18,110,depth_duration_stimuli/002637_2014-06-24_14-51-13_094959634447_rgbf000066-resize_4/002637_2014-06-24_14-51-13_094959634447_rgbf000066-resize_4-target.png,125,1.9955,8,2873,95,feet,jsons/VE125_randls_17_rotated.json,1184449,1566452,59,Man
110,653144,DepthScenes,duration_manipulation_targetAtFixation,jsons/VE125_randls_17_rotated.json,http://54.235.29.9/FacialAge/BNav_EC2/DepthDuration/v2_depth_duration_MTurk/v2_DepthDuration_HTML.html#299,299,1600,827,1600,900,9-3-2022,13-39-18,111,depth_duration_stimuli/003534_2014-05-22_15-06-10_094959634447_rgbf000102-resize_4/003534_2014-05-22_15-06-10_094959634447_rgbf000102-resize_4-target.png,125,1.426,6,2670,122,feet,jsons/VE125_randls_17_rotated.json,1184449,1566452,59,Man
111,653144,DepthScenes,duration_manipulation_targetAtFixation,jsons/VE125_randls_17_rotated.json,http://54.235.29.9/FacialAge/BNav_EC2/DepthDuration/v2_depth_duration_MTurk/v2_DepthDuration_HTML.html#299,299,1600,827,1600,900,9-3-2022,13-39-18,112,depth_duration_stimuli/000677_2014-06-08_23-10-32_260595134347_rgbf000158-resize_6/000677_2014-06-08_23-10-32_260595134347_rgbf000158-resize_6-target.png,125,3.556,6,3425,116,feet,jsons/VE125_randls_17_rotated.json,1184449,1566452,59,Man
112,653144,DepthScenes,duration_manipulation_targetAtFixation,jsons/VE125_randls_17_rotated.json,http://54.235.29.9/FacialAge/BNav_EC2/DepthDuration/v2_depth_duration_MTurk/v2_DepthDuration_HTML.html#299,299,1600,827,1600,900,9-3-2022,13-39-18,113,depth_duration_stimuli/001029_2014-06-08_13-17-57_260595134347_rgbf000065-resize_1/001029_2014-06-08_13-17-57_260595134347_rgbf000065-resize_1-target.png,125,3.0835,7,2611,125,feet,jsons/VE125_randls_17_rotated.json,1184449,1566452,59,Man
113,653144,DepthScenes,duration_manipulation_targetAtFixation,jsons/VE125_randls_17_rotated.json,http://54.235.29.9/FacialAge/BNav_EC2/DepthDuration/v2_depth_duration_MTurk/v2_DepthDuration_HTML.html#299,299,1600,827,1600,900,9-3-2022,13-39-18,114,depth_duration_stimuli/000780_2014-06-08_22-28-29_260595134347_rgbf000126-resize_1/000780_2014-06-08_22-28-29_260595134347_rgbf000126-resize_1-target.png,125,3.3825,8,2764,109,feet,jsons/VE125_randls_17_rotated.json,1184449,1566452,59,Man
114,653144,DepthScenes,duration_manipulation_targetAtFixation,jsons/VE125_randls_17_rotated.json,http://54.235.29.9/FacialAge/BNav_EC2/DepthDuration/v2_depth_duration_MTurk/v2_DepthDuration_HTML.html#299,299,1600,827,1600,900,9-3-2022,13-39-18,115,depth_duration_stimuli/002445_2014-06-28_20-32-16_260595134347_rgbf000029-resize_4/002445_2014-06-28_20-32-16_260595134347_rgbf000029-resize_4-target.png,125,2.5315,7,3417,115,feet,jsons/VE125_randls_17_rotated.json,1184449,1566452,59,Man
115,653144,DepthScenes,duration_manipulation_targetAtFixation,jsons/VE125_randls_17_rotated.json,http://54.235.29.9/FacialAge/BNav_EC2/DepthDuration/v2_depth_duration_MTurk/v2_DepthDuration_HTML.html#299,299,1600,827,1600,900,9-3-2022,13-39-18,116,depth_duration_stimuli/003587_2014-05-23_16-48-02_094959634447_rgbf002384-resize_2/003587_2014-05-23_16-48-02_094959634447_rgbf002384-resize_2-target.png,125,1.357,6,2490,112,feet,jsons/VE125_randls_17_rotated.json,1184449,1566452,59,Man
116,653144,DepthScenes,duration_manipulation_targetAtFixation,jsons/VE125_randls_17_rotated.json,http://54.235.29.9/FacialAge/BNav_EC2/DepthDuration/v2_depth_duration_MTurk/v2_DepthDuration_HTML.html#299,299,1600,827,1600,900,9-3-2022,13-39-18,117,depth_duration_stimuli/001167_2014-06-17_15-38-07_260595134347_rgbf000108-resize_0/001167_2014-06-17_15-38-07_260595134347_rgbf000108-resize_0-target.png,125,1.8505,5,2422,120,feet,jsons/VE125_randls_17_rotated.json,1184449,1566452,59,Man
117,653144,DepthScenes,duration_manipulation_targetAtFixation,jsons/VE125_randls_17_rotated.json,http://54.235.29.9/FacialAge/BNav_EC2/DepthDuration/v2_depth_duration_MTurk/v2_DepthDuration_HTML.html#299,299,1600,827,1600,900,9-3-2022,13-39-18,118,depth_duration_stimuli/001132_2014-06-17_14-48-54_260595134347_rgbf000100-resize_2/001132_2014-06-17_14-48-54_260595134347_rgbf000100-resize_2-target.png,125,3.753,11,3904,126,feet,jsons/VE125_randls_17_rotated.json,1184449,1566452,59,Man
118,653144,DepthScenes,duration_manipulation_targetAtFixation,jsons/VE125_randls_17_rotated.json,http://54.235.29.9/FacialAge/BNav_EC2/DepthDuration/v2_depth_duration_MTurk/v2_DepthDuration_HTML.html#299,299,1600,827,1600,900,9-3-2022,13-39-18,119,depth_duration_stimuli/001133_2014-06-17_14-49-16_260595134347_rgbf000100-resize_0/001133_2014-06-17_14-49-16_260595134347_rgbf000100-resize_0-target.png,125,4.2115,12,3263,125,feet,jsons/VE125_randls_17_rotated.json,1184449,1566452,59,Man
119,653144,DepthScenes,duration_manipulation_targetAtFixation,jsons/VE125_randls_17_rotated.json,http://54.235.29.9/FacialAge/BNav_EC2/DepthDuration/v2_depth_duration_MTurk/v2_DepthDuration_HTML.html#299,299,1600,827,1600,900,9-3-2022,13-39-18,120,depth_duration_stimuli/000787_2014-06-08_22-33-53_260595134347_rgbf000175-resize_1/000787_2014-06-08_22-33-53_260595134347_rgbf000175-resize-original.jpg,125,4.784,0,3106,136,feet,jsons/VE125_randls_17_rotated.json,1184449,1566452,59,Man
120,653144,DepthScenes,duration_manipulation_targetAtFixation,jsons/VE125_randls_17_rotated.json,http://54.235.29.9/FacialAge/BNav_EC2/DepthDuration/v2_depth_duration_MTurk/v2_DepthDuration_HTML.html#299,299,1600,827,1600,900,9-3-2022,13-39-18,121,depth_duration_stimuli/000109_2014-05-14_23-41-52_260595134347_rgbf000035-resize_9/000109_2014-05-14_23-41-52_260595134347_rgbf000035-resize_9-target.png,125,1.3545,4,2675,111,feet,jsons/VE125_randls_17_rotated.json,1184449,1566452,59,Man
121,653144,DepthScenes,duration_manipulation_targetAtFixation,jsons/VE125_randls_17_rotated.json,http://54.235.29.9/FacialAge/BNav_EC2/DepthDuration/v2_depth_duration_MTurk/v2_DepthDuration_HTML.html#299,299,1600,827,1600,900,9-3-2022,13-39-18,122,depth_duration_stimuli/000470_2014-06-09_19-42-40_260595134347_rgbf000094-resize_1/000470_2014-06-09_19-42-40_260595134347_rgbf000094-resize_1-target.png,125,1.831,4,5277,122,feet,jsons/VE125_randls_17_rotated.json,1184449,1566452,59,Man
122,653144,DepthScenes,duration_manipulation_targetAtFixation,jsons/VE125_randls_17_rotated.json,http://54.235.29.9/FacialAge/BNav_EC2/DepthDuration/v2_depth_duration_MTurk/v2_DepthDuration_HTML.html#299,299,1600,827,1600,900,9-3-2022,13-39-18,123,depth_duration_stimuli/000665_2014-06-09_20-42-35_260595134347_rgbf000110-resize_1/000665_2014-06-09_20-42-35_260595134347_rgbf000110-resize_1-target.png,125,3.057,5,2625,127,feet,jsons/VE125_randls_17_rotated.json,1184449,1566452,59,Man
123,653144,DepthScenes,duration_manipulation_targetAtFixation,jsons/VE125_randls_17_rotated.json,http://54.235.29.9/FacialAge/BNav_EC2/DepthDuration/v2_depth_duration_MTurk/v2_DepthDuration_HTML.html#299,299,1600,827,1600,900,9-3-2022,13-39-18,124,depth_duration_stimuli/001150_2014-06-17_15-27-34_260595134347_rgbf000108-resize_2/001150_2014-06-17_15-27-34_260595134347_rgbf000108-resize_2-target.png,125,4.0325,6,3366,118,feet,jsons/VE125_randls_17_rotated.json,1184449,1566452,59,Man
124,653144,DepthScenes,duration_manipulation_targetAtFixation,jsons/VE125_randls_17_rotated.json,http://54.235.29.9/FacialAge/BNav_EC2/DepthDuration/v2_depth_duration_MTurk/v2_DepthDuration_HTML.html#299,299,1600,827,1600,900,9-3-2022,13-39-18,125,depth_duration_stimuli/000409_2014-06-04_19-23-33_260595134347_rgbf000067-resize_0/000409_2014-06-04_19-23-33_260595134347_rgbf000067-resize_0-target.png,125,3.7335,8,2747,119,feet,jsons/VE125_randls_17_rotated.json,1184449,1566452,59,Man
125,653144,DepthScenes,duration_manipulation_targetAtFixation,jsons/VE125_randls_17_rotated.json,http://54.235.29.9/FacialAge/BNav_EC2/DepthDuration/v2_depth_duration_MTurk/v2_DepthDuration_HTML.html#299,299,1600,827,1600,900,9-3-2022,13-39-18,126,depth_duration_stimuli/002663_2014-06-13_15-50-26_094959634447_rgbf000075-resize_1/002663_2014-06-13_15-50-26_094959634447_rgbf000075-resize_1-target.png,125,4.7495,10,3939,127,feet,jsons/VE125_randls_17_rotated.json,1184449,1566452,59,Man
126,653144,DepthScenes,duration_manipulation_targetAtFixation,jsons/VE125_randls_17_rotated.json,http://54.235.29.9/FacialAge/BNav_EC2/DepthDuration/v2_depth_duration_MTurk/v2_DepthDuration_HTML.html#299,299,1600,827,1600,900,9-3-2022,13-39-18,127,depth_duration_stimuli/002199_2014-06-28_18-33-56_260595134347_rgbf000074-resize_0/002199_2014-06-28_18-33-56_260595134347_rgbf000074-resize_0-target.png,125,1.996,3,2764,132,feet,jsons/VE125_randls_17_rotated.json,1184449,1566452,59,Man
127,653144,DepthScenes,duration_manipulation_targetAtFixation,jsons/VE125_randls_17_rotated.json,http://54.235.29.9/FacialAge/BNav_EC2/DepthDuration/v2_depth_duration_MTurk/v2_DepthDuration_HTML.html#299,299,1600,827,1600,900,9-3-2022,13-39-18,128,depth_duration_stimuli/001056_2014-06-08_18-46-44_260595134347_rgbf000068-resize_0/001056_2014-06-08_18-46-44_260595134347_rgbf000068-resize_0-target.png,125,2.6625,8,2938,115,feet,jsons/VE125_randls_17_rotated.json,1184449,1566452,59,Man
128,653144,DepthScenes,duration_manipulation_targetAtFixation,jsons/VE125_randls_17_rotated.json,http://54.235.29.9/FacialAge/BNav_EC2/DepthDuration/v2_depth_duration_MTurk/v2_DepthDuration_HTML.html#299,299,1600,827,1600,900,9-3-2022,13-39-18,129,depth_duration_stimuli/003079_2014-06-15_15-18-20_094959634447_rgbf000152-resize_8/003079_2014-06-15_15-18-20_094959634447_rgbf000152-resize_8-target.png,125,2.8775,9,9012,122,feet,jsons/VE125_randls_17_rotated.json,1184449,1566452,59,Man
129,653144,DepthScenes,duration_manipulation_targetAtFixation,jsons/VE125_randls_17_rotated.json,http://54.235.29.9/FacialAge/BNav_EC2/DepthDuration/v2_depth_duration_MTurk/v2_DepthDuration_HTML.html#299,299,1600,827,1600,900,9-3-2022,13-39-18,130,depth_duration_stimuli/000506_2014-06-08_23-21-00_260595134347_rgbf000070-resize_7/000506_2014-06-08_23-21-00_260595134347_rgbf000070-resize_7-target.png,125,4.0585,8,5990,116,feet,jsons/VE125_randls_17_rotated.json,1184449,1566452,59,Man
130,653144,DepthScenes,duration_manipulation_targetAtFixation,jsons/VE125_randls_17_rotated.json,http://54.235.29.9/FacialAge/BNav_EC2/DepthDuration/v2_depth_duration_MTurk/v2_DepthDuration_HTML.html#299,299,1600,827,1600,900,9-3-2022,13-39-18,131,depth_duration_stimuli/003048_2014-06-15_13-49-43_094959634447_rgbf000150-resize_1/003048_2014-06-15_13-49-43_094959634447_rgbf000150-resize_1-target.png,125,4.0035,10,3576,124,feet,jsons/VE125_randls_17_rotated.json,1184449,1566452,59,Man
131,653144,DepthScenes,duration_manipulation_targetAtFixation,jsons/VE125_randls_17_rotated.json,http://54.235.29.9/FacialAge/BNav_EC2/DepthDuration/v2_depth_duration_MTurk/v2_DepthDuration_HTML.html#299,299,1600,827,1600,900,9-3-2022,13-39-18,132,depth_duration_stimuli/002043_2014-06-24_20-29-38_260595134347_rgbf000039-resize_4/002043_2014-06-24_20-29-38_260595134347_rgbf000039-resize_4-target.png,125,2.8435,8,4946,129,feet,jsons/VE125_randls_17_rotated.json,1184449,1566452,59,Man
132,653144,DepthScenes,duration_manipulation_targetAtFixation,jsons/VE125_randls_17_rotated.json,http://54.235.29.9/FacialAge/BNav_EC2/DepthDuration/v2_depth_duration_MTurk/v2_DepthDuration_HTML.html#299,299,1600,827,1600,900,9-3-2022,13-39-18,133,depth_duration_stimuli/001516_2014-06-20_16-25-09_260595134347_rgbf000076-resize_2/001516_2014-06-20_16-25-09_260595134347_rgbf000076-resize_2-target.png,125,1.7445,5,3876,127,feet,jsons/VE125_randls_17_rotated.json,1184449,1566452,59,Man
133,653144,DepthScenes,duration_manipulation_targetAtFixation,jsons/VE125_randls_17_rotated.json,http://54.235.29.9/FacialAge/BNav_EC2/DepthDuration/v2_depth_duration_MTurk/v2_DepthDuration_HTML.html#299,299,1600,827,1600,900,9-3-2022,13-39-18,134,depth_duration_stimuli/002118_2014-06-25_20-32-08_260595134347_rgbf000078-resize_1/002118_2014-06-25_20-32-08_260595134347_rgbf000078-resize_1-target.png,125,2.6460000000000004,9,2974,119,feet,jsons/VE125_randls_17_rotated.json,1184449,1566452,59,Man
134,653144,DepthScenes,duration_manipulation_targetAtFixation,jsons/VE125_randls_17_rotated.json,http://54.235.29.9/FacialAge/BNav_EC2/DepthDuration/v2_depth_duration_MTurk/v2_DepthDuration_HTML.html#299,299,1600,827,1600,900,9-3-2022,13-39-18,135,depth_duration_stimuli/000375_2014-06-08_11-17-29_260595134347_rgbf000133-resize_2/000375_2014-06-08_11-17-29_260595134347_rgbf000133-resize-original.jpg,125,4.718,0,3131,132,feet,jsons/VE125_randls_17_rotated.json,1184449,1566452,59,Man
135,653144,DepthScenes,duration_manipulation_targetAtFixation,jsons/VE125_randls_17_rotated.json,http://54.235.29.9/FacialAge/BNav_EC2/DepthDuration/v2_depth_duration_MTurk/v2_DepthDuration_HTML.html#299,299,1600,827,1600,900,9-3-2022,13-39-18,136,depth_duration_stimuli/002750_2014-06-22_19-08-03_094959634447_rgbf000094-resize_4/002750_2014-06-22_19-08-03_094959634447_rgbf000094-resize_4-target.png,125,2.354,6,2859,124,feet,jsons/VE125_randls_17_rotated.json,1184449,1566452,59,Man
136,653144,DepthScenes,duration_manipulation_targetAtFixation,jsons/VE125_randls_17_rotated.json,http://54.235.29.9/FacialAge/BNav_EC2/DepthDuration/v2_depth_duration_MTurk/v2_DepthDuration_HTML.html#299,299,1600,827,1600,900,9-3-2022,13-39-18,137,depth_duration_stimuli/002549_2014-06-24_13-41-39_094959634447_rgbf000022-resize_3/002549_2014-06-24_13-41-39_094959634447_rgbf000022-resize_3-target.png,125,1.476,5,2788,123,feet,jsons/VE125_randls_17_rotated.json,1184449,1566452,59,Man
137,653144,DepthScenes,duration_manipulation_targetAtFixation,jsons/VE125_randls_17_rotated.json,http://54.235.29.9/FacialAge/BNav_EC2/DepthDuration/v2_depth_duration_MTurk/v2_DepthDuration_HTML.html#299,299,1600,827,1600,900,9-3-2022,13-39-18,138,depth_duration_stimuli/000556_2014-06-09_22-42-56_260595134347_rgbf000214-resize_1/000556_2014-06-09_22-42-56_260595134347_rgbf000214-resize_1-target.png,125,4.8415,12,3252,118,feet,jsons/VE125_randls_17_rotated.json,1184449,1566452,59,Man
138,653144,DepthScenes,duration_manipulation_targetAtFixation,jsons/VE125_randls_17_rotated.json,http://54.235.29.9/FacialAge/BNav_EC2/DepthDuration/v2_depth_duration_MTurk/v2_DepthDuration_HTML.html#299,299,1600,827,1600,900,9-3-2022,13-39-18,139,depth_duration_stimuli/001158_2014-06-17_15-32-16_260595134347_rgbf000138-resize_2/001158_2014-06-17_15-32-16_260595134347_rgbf000138-resize_2-target.png,125,4.5315,15,3357,117,feet,jsons/VE125_randls_17_rotated.json,1184449,1566452,59,Man
139,653144,DepthScenes,duration_manipulation_targetAtFixation,jsons/VE125_randls_17_rotated.json,http://54.235.29.9/FacialAge/BNav_EC2/DepthDuration/v2_depth_duration_MTurk/v2_DepthDuration_HTML.html#299,299,1600,827,1600,900,9-3-2022,13-39-18,140,depth_duration_stimuli/001617_2014-06-20_11-35-32_260595134347_rgbf000066-resize_1/001617_2014-06-20_11-35-32_260595134347_rgbf000066-resize_1-target.png,125,3.7910000000000004,9,3066,132,feet,jsons/VE125_randls_17_rotated.json,1184449,1566452,59,Man
140,653144,DepthScenes,duration_manipulation_targetAtFixation,jsons/VE125_randls_17_rotated.json,http://54.235.29.9/FacialAge/BNav_EC2/DepthDuration/v2_depth_duration_MTurk/v2_DepthDuration_HTML.html#299,299,1600,827,1600,900,9-3-2022,13-39-18,141,depth_duration_stimuli/001806_2014-06-26_20-50-20_260595134347_rgbf000091-resize_1/001806_2014-06-26_20-50-20_260595134347_rgbf000091-resize_1-target.png,125,2.7305,7,3232,124,feet,jsons/VE125_randls_17_rotated.json,1184449,1566452,59,Man
141,653144,DepthScenes,duration_manipulation_targetAtFixation,jsons/VE125_randls_17_rotated.json,http://54.235.29.9/FacialAge/BNav_EC2/DepthDuration/v2_depth_duration_MTurk/v2_DepthDuration_HTML.html#299,299,1600,827,1600,900,9-3-2022,13-39-18,142,depth_duration_stimuli/003423_2014-05-21_10-23-26_094959634447_rgbf002665-resize_2/003423_2014-05-21_10-23-26_094959634447_rgbf002665-resize_2-target.png,125,3.2575,14,3873,124,feet,jsons/VE125_randls_17_rotated.json,1184449,1566452,59,Man
142,653144,DepthScenes,duration_manipulation_targetAtFixation,jsons/VE125_randls_17_rotated.json,http://54.235.29.9/FacialAge/BNav_EC2/DepthDuration/v2_depth_duration_MTurk/v2_DepthDuration_HTML.html#299,299,1600,827,1600,900,9-3-2022,13-39-18,143,depth_duration_stimuli/002905_2014-06-03_18-04-43_094959634447_rgbf000151-resize_2/002905_2014-06-03_18-04-43_094959634447_rgbf000151-resize_2-target.png,125,2.0295,6,3501,135,feet,jsons/VE125_randls_17_rotated.json,1184449,1566452,59,Man
143,653144,DepthScenes,duration_manipulation_targetAtFixation,jsons/VE125_randls_17_rotated.json,http://54.235.29.9/FacialAge/BNav_EC2/DepthDuration/v2_depth_duration_MTurk/v2_DepthDuration_HTML.html#299,299,1600,827,1600,900,9-3-2022,13-39-18,144,depth_duration_stimuli/000709_2014-06-08_13-51-55_260595134347_rgbf000068-resize_3/000709_2014-06-08_13-51-55_260595134347_rgbf000068-resize_3-target.png,125,1.8030000000000002,5,8865,124,feet,jsons/VE125_randls_17_rotated.json,1184449,1566452,59,Man
144,653144,DepthScenes,duration_manipulation_targetAtFixation,jsons/VE125_randls_17_rotated.json,http://54.235.29.9/FacialAge/BNav_EC2/DepthDuration/v2_depth_duration_MTurk/v2_DepthDuration_HTML.html#299,299,1600,827,1600,900,9-3-2022,13-39-18,145,depth_duration_stimuli/002057_2014-06-24_21-00-13_260595134347_rgbf000120-resize_1/002057_2014-06-24_21-00-13_260595134347_rgbf000120-resize_1-target.png,125,2.967,9,4760,125,feet,jsons/VE125_randls_17_rotated.json,1184449,1566452,59,Man
145,653144,DepthScenes,duration_manipulation_targetAtFixation,jsons/VE125_randls_17_rotated.json,http://54.235.29.9/FacialAge/BNav_EC2/DepthDuration/v2_depth_duration_MTurk/v2_DepthDuration_HTML.html#299,299,1600,827,1600,900,9-3-2022,13-39-18,146,depth_duration_stimuli/002805_2014-06-22_19-54-03_094959634447_rgbf000079-resize_1/002805_2014-06-22_19-54-03_094959634447_rgbf000079-resize_1-target.png,125,3.1439999999999997,8,2862,121,feet,jsons/VE125_randls_17_rotated.json,1184449,1566452,59,Man
146,653144,DepthScenes,duration_manipulation_targetAtFixation,jsons/VE125_randls_17_rotated.json,http://54.235.29.9/FacialAge/BNav_EC2/DepthDuration/v2_depth_duration_MTurk/v2_DepthDuration_HTML.html#299,299,1600,827,1600,900,9-3-2022,13-39-18,147,depth_duration_stimuli/000906_2014-06-08_13-35-43_260595134347_rgbf000155-resize_1/000906_2014-06-08_13-35-43_260595134347_rgbf000155-resize_1-target.png,125,2.8489999999999998,11,3636,123,feet,jsons/VE125_randls_17_rotated.json,1184449,1566452,59,Man
147,653144,DepthScenes,duration_manipulation_targetAtFixation,jsons/VE125_randls_17_rotated.json,http://54.235.29.9/FacialAge/BNav_EC2/DepthDuration/v2_depth_duration_MTurk/v2_DepthDuration_HTML.html#299,299,1600,827,1600,900,9-3-2022,13-39-18,148,depth_duration_stimuli/001136_2014-06-17_15-19-41_260595134347_rgbf000076-resize_3/001136_2014-06-17_15-19-41_260595134347_rgbf000076-resize_3-target.png,125,1.8655,6,2713,128,feet,jsons/VE125_randls_17_rotated.json,1184449,1566452,59,Man
148,653144,DepthScenes,duration_manipulation_targetAtFixation,jsons/VE125_randls_17_rotated.json,http://54.235.29.9/FacialAge/BNav_EC2/DepthDuration/v2_depth_duration_MTurk/v2_DepthDuration_HTML.html#299,299,1600,827,1600,900,9-3-2022,13-39-18,149,depth_duration_stimuli/001164_2014-06-17_15-35-46_260595134347_rgbf000085-resize_3/001164_2014-06-17_15-35-46_260595134347_rgbf000085-resize_3-target.png,125,2.354,5,2867,127,feet,jsons/VE125_randls_17_rotated.json,1184449,1566452,59,Man
149,653144,DepthScenes,duration_manipulation_targetAtFixation,jsons/VE125_randls_17_rotated.json,http://54.235.29.9/FacialAge/BNav_EC2/DepthDuration/v2_depth_duration_MTurk/v2_DepthDuration_HTML.html#299,299,1600,827,1600,900,9-3-2022,13-39-18,150,depth_duration_stimuli/003083_2014-06-15_15-21-03_094959634447_rgbf000063-resize_1/003083_2014-06-15_15-21-03_094959634447_rgbf000063-resize_1-target.png,125,4.1405,11,5580,125,feet,jsons/VE125_randls_17_rotated.json,1184449,1566452,59,Man
150,653144,DepthScenes,duration_manipulation_targetAtFixation,jsons/VE125_randls_17_rotated.json,http://54.235.29.9/FacialAge/BNav_EC2/DepthDuration/v2_depth_duration_MTurk/v2_DepthDuration_HTML.html#299,299,1600,827,1600,900,9-3-2022,13-39-18,151,depth_duration_stimuli/000486_2014-06-09_20-47-20_260595134347_rgbf000143-resize_2/000486_2014-06-09_20-47-20_260595134347_rgbf000143-resize_2-target.png,125,4.8325,12,3127,131,feet,jsons/VE125_randls_17_rotated.json,1184449,1566452,59,Man
151,653144,DepthScenes,duration_manipulation_targetAtFixation,jsons/VE125_randls_17_rotated.json,http://54.235.29.9/FacialAge/BNav_EC2/DepthDuration/v2_depth_duration_MTurk/v2_DepthDuration_HTML.html#299,299,1600,827,1600,900,9-3-2022,13-39-18,152,depth_duration_stimuli/000569_2014-06-09_22-51-47_260595134347_rgbf000141-resize_3/000569_2014-06-09_22-51-47_260595134347_rgbf000141-resize-original.jpg,125,4.512,0,4190,124,feet,jsons/VE125_randls_17_rotated.json,1184449,1566452,59,Man
152,653144,DepthScenes,duration_manipulation_targetAtFixation,jsons/VE125_randls_17_rotated.json,http://54.235.29.9/FacialAge/BNav_EC2/DepthDuration/v2_depth_duration_MTurk/v2_DepthDuration_HTML.html#299,299,1600,827,1600,900,9-3-2022,13-39-18,153,depth_duration_stimuli/001235_2014-06-17_16-37-36_260595134347_rgbf000084-resize_4/001235_2014-06-17_16-37-36_260595134347_rgbf000084-resize_4-target.png,125,3.6605,7,4878,112,feet,jsons/VE125_randls_17_rotated.json,1184449,1566452,59,Man
153,653144,DepthScenes,duration_manipulation_targetAtFixation,jsons/VE125_randls_17_rotated.json,http://54.235.29.9/FacialAge/BNav_EC2/DepthDuration/v2_depth_duration_MTurk/v2_DepthDuration_HTML.html#299,299,1600,827,1600,900,9-3-2022,13-39-18,154,depth_duration_stimuli/000788_2014-06-08_22-34-36_260595134347_rgbf000131-resize_1/000788_2014-06-08_22-34-36_260595134347_rgbf000131-resize_1-target.png,125,3.359,8,4459,116,feet,jsons/VE125_randls_17_rotated.json,1184449,1566452,59,Man
154,653144,DepthScenes,duration_manipulation_targetAtFixation,jsons/VE125_randls_17_rotated.json,http://54.235.29.9/FacialAge/BNav_EC2/DepthDuration/v2_depth_duration_MTurk/v2_DepthDuration_HTML.html#299,299,1600,827,1600,900,9-3-2022,13-39-18,155,depth_duration_stimuli/000502_2014-06-08_23-02-32_260595134347_rgbf000063-resize_4/000502_2014-06-08_23-02-32_260595134347_rgbf000063-resize_4-target.png,125,2.431,7,15361,119,feet,jsons/VE125_randls_17_rotated.json,1184449,1566452,59,Man
155,653144,DepthScenes,duration_manipulation_targetAtFixation,jsons/VE125_randls_17_rotated.json,http://54.235.29.9/FacialAge/BNav_EC2/DepthDuration/v2_depth_duration_MTurk/v2_DepthDuration_HTML.html#299,299,1600,827,1600,900,9-3-2022,13-39-18,156,depth_duration_stimuli/001199_2014-06-17_16-03-48_260595134347_rgbf000077-resize_0/001199_2014-06-17_16-03-48_260595134347_rgbf000077-resize_0-target.png,125,3.4375,8,5220,137,feet,jsons/VE125_randls_17_rotated.json,1184449,1566452,59,Man
156,653144,DepthScenes,duration_manipulation_targetAtFixation,jsons/VE125_randls_17_rotated.json,http://54.235.29.9/FacialAge/BNav_EC2/DepthDuration/v2_depth_duration_MTurk/v2_DepthDuration_HTML.html#299,299,1600,827,1600,900,9-3-2022,13-39-18,157,depth_duration_stimuli/002657_2014-06-13_15-29-54_094959634447_rgbf000150-resize_1/002657_2014-06-13_15-29-54_094959634447_rgbf000150-resize_1-target.png,125,4.919,12,3033,122,feet,jsons/VE125_randls_17_rotated.json,1184449,1566452,59,Man
157,653144,DepthScenes,duration_manipulation_targetAtFixation,jsons/VE125_randls_17_rotated.json,http://54.235.29.9/FacialAge/BNav_EC2/DepthDuration/v2_depth_duration_MTurk/v2_DepthDuration_HTML.html#299,299,1600,827,1600,900,9-3-2022,13-39-18,158,depth_duration_stimuli/002375_2014-06-28_20-13-44_260595134347_rgbf000032-resize_1/002375_2014-06-28_20-13-44_260595134347_rgbf000032-resize_1-target.png,125,4.0175,9,3823,110,feet,jsons/VE125_randls_17_rotated.json,1184449,1566452,59,Man
158,653144,DepthScenes,duration_manipulation_targetAtFixation,jsons/VE125_randls_17_rotated.json,http://54.235.29.9/FacialAge/BNav_EC2/DepthDuration/v2_depth_duration_MTurk/v2_DepthDuration_HTML.html#299,299,1600,827,1600,900,9-3-2022,13-39-18,159,depth_duration_stimuli/001584_2014-06-20_11-07-43_260595134347_rgbf000002-resize_1/001584_2014-06-20_11-07-43_260595134347_rgbf000002-resize_1-target.png,125,3.53,11,4319,129,feet,jsons/VE125_randls_17_rotated.json,1184449,1566452,59,Man
159,653144,DepthScenes,duration_manipulation_targetAtFixation,jsons/VE125_randls_17_rotated.json,http://54.235.29.9/FacialAge/BNav_EC2/DepthDuration/v2_depth_duration_MTurk/v2_DepthDuration_HTML.html#299,299,1600,827,1600,900,9-3-2022,13-39-18,160,depth_duration_stimuli/003621_2014-05-23_18-06-08_094959634447_rgbf000101-resize_1/003621_2014-05-23_18-06-08_094959634447_rgbf000101-resize_1-target.png,125,3.9835,13,3389,127,feet,jsons/VE125_randls_17_rotated.json,1184449,1566452,59,Man
160,653144,DepthScenes,duration_manipulation_targetAtFixation,jsons/VE125_randls_17_rotated.json,http://54.235.29.9/FacialAge/BNav_EC2/DepthDuration/v2_depth_duration_MTurk/v2_DepthDuration_HTML.html#299,299,1600,827,1600,900,9-3-2022,13-39-18,161,depth_duration_stimuli/002103_2014-06-25_20-00-40_260595134347_rgbf000049-resize_0/002103_2014-06-25_20-00-40_260595134347_rgbf000049-resize_0-target.png,125,4.105,11,3011,125,feet,jsons/VE125_randls_17_rotated.json,1184449,1566452,59,Man
161,653144,DepthScenes,duration_manipulation_targetAtFixation,jsons/VE125_randls_17_rotated.json,http://54.235.29.9/FacialAge/BNav_EC2/DepthDuration/v2_depth_duration_MTurk/v2_DepthDuration_HTML.html#299,299,1600,827,1600,900,9-3-2022,13-39-18,162,depth_duration_stimuli/002039_2014-06-24_20-22-38_260595134347_rgbf000084-resize_1/002039_2014-06-24_20-22-38_260595134347_rgbf000084-resize_1-target.png,125,4.408,10,4731,120,feet,jsons/VE125_randls_17_rotated.json,1184449,1566452,59,Man
162,653144,DepthScenes,duration_manipulation_targetAtFixation,jsons/VE125_randls_17_rotated.json,http://54.235.29.9/FacialAge/BNav_EC2/DepthDuration/v2_depth_duration_MTurk/v2_DepthDuration_HTML.html#299,299,1600,827,1600,900,9-3-2022,13-39-18,163,depth_duration_stimuli/003228_2014-05-14_13-42-35_094959634447_rgbf000101-resize_1/003228_2014-05-14_13-42-35_094959634447_rgbf000101-resize_1-target.png,125,1.9680000000000002,6,4810,117,feet,jsons/VE125_randls_17_rotated.json,1184449,1566452,59,Man
163,653144,DepthScenes,duration_manipulation_targetAtFixation,jsons/VE125_randls_17_rotated.json,http://54.235.29.9/FacialAge/BNav_EC2/DepthDuration/v2_depth_duration_MTurk/v2_DepthDuration_HTML.html#299,299,1600,827,1600,900,9-3-2022,13-39-18,164,depth_duration_stimuli/002600_2014-06-24_14-27-04_094959634447_rgbf000074-resize_2/002600_2014-06-24_14-27-04_094959634447_rgbf000074-resize_2-target.png,125,2.7575,8,3233,126,feet,jsons/VE125_randls_17_rotated.json,1184449,1566452,59,Man
