,subjID,experimentName,versionName,sequenceName,url,selected_row,windowWidth,windowHeight,screenWidth,screenHeight,startDate,startTime,trial,stimulus,duration,actual_depth,depth_estimate,trial_RT,log_sceneDuration,unitSelection,seq_filepath,experimentTime,totalTime,age,gender
0,654696,DepthScenes,duration_manipulation_targetAtFixation,jsons/v1_VE1000_randls_68_rotated.json,http://54.235.29.9/FacialAge/BNav_EC2/DepthDuration/v2_depth_duration_MTurk/v2_DepthDuration_HTML.html#101,101,1920,1080,1920,1080,8-29-2022,9-42-56,1,depth_duration_stimuli/001617_2014-06-20_11-35-32_260595134347_rgbf000066-resize_1/001617_2014-06-20_11-35-32_260595134347_rgbf000066-resize_1-target.png,1000,3.7910000000000004,4,3015,1000,feet,jsons/v1_VE1000_randls_68_rotated.json,756988,949156,35,Woman
1,654696,DepthScenes,duration_manipulation_targetAtFixation,jsons/v1_VE1000_randls_68_rotated.json,http://54.235.29.9/FacialAge/BNav_EC2/DepthDuration/v2_depth_duration_MTurk/v2_DepthDuration_HTML.html#101,101,1920,1080,1920,1080,8-29-2022,9-42-56,2,depth_duration_stimuli/001806_2014-06-26_20-50-20_260595134347_rgbf000091-resize_1/001806_2014-06-26_20-50-20_260595134347_rgbf000091-resize_1-target.png,1000,2.7305,2,2526,1000,feet,jsons/v1_VE1000_randls_68_rotated.json,756988,949156,35,Woman
2,654696,DepthScenes,duration_manipulation_targetAtFixation,jsons/v1_VE1000_randls_68_rotated.json,http://54.235.29.9/FacialAge/BNav_EC2/DepthDuration/v2_depth_duration_MTurk/v2_DepthDuration_HTML.html#101,101,1920,1080,1920,1080,8-29-2022,9-42-56,3,depth_duration_stimuli/000742_2014-06-08_18-48-09_260595134347_rgbf000164-resize_4/000742_2014-06-08_18-48-09_260595134347_rgbf000164-resize_4-target.png,1000,4.632,5,3302,1000,feet,jsons/v1_VE1000_randls_68_rotated.json,756988,949156,35,Woman
3,654696,DepthScenes,duration_manipulation_targetAtFixation,jsons/v1_VE1000_randls_68_rotated.json,http://54.235.29.9/FacialAge/BNav_EC2/DepthDuration/v2_depth_duration_MTurk/v2_DepthDuration_HTML.html#101,101,1920,1080,1920,1080,8-29-2022,9-42-56,4,depth_duration_stimuli/001066_2014-06-08_22-03-20_260595134347_rgbf000066-resize_4/001066_2014-06-08_22-03-20_260595134347_rgbf000066-resize_4-target.png,1000,4.2330000000000005,7,3306,999,feet,jsons/v1_VE1000_randls_68_rotated.json,756988,949156,35,Woman
4,654696,DepthScenes,duration_manipulation_targetAtFixation,jsons/v1_VE1000_randls_68_rotated.json,http://54.235.29.9/FacialAge/BNav_EC2/DepthDuration/v2_depth_duration_MTurk/v2_DepthDuration_HTML.html#101,101,1920,1080,1920,1080,8-29-2022,9-42-56,5,depth_duration_stimuli/000927_2014-06-09_16-32-30_260595134347_rgbf000123-resize_3/000927_2014-06-09_16-32-30_260595134347_rgbf000123-resize_3-target.png,1000,2.6785,3,2753,999,feet,jsons/v1_VE1000_randls_68_rotated.json,756988,949156,35,Woman
5,654696,DepthScenes,duration_manipulation_targetAtFixation,jsons/v1_VE1000_randls_68_rotated.json,http://54.235.29.9/FacialAge/BNav_EC2/DepthDuration/v2_depth_duration_MTurk/v2_DepthDuration_HTML.html#101,101,1920,1080,1920,1080,8-29-2022,9-42-56,6,depth_duration_stimuli/001110_2014-06-15_17-25-28_260595134347_rgbf000150-resize_1/001110_2014-06-15_17-25-28_260595134347_rgbf000150-resize_1-target.png,1000,1.7115,2,3070,1000,feet,jsons/v1_VE1000_randls_68_rotated.json,756988,949156,35,Woman
6,654696,DepthScenes,duration_manipulation_targetAtFixation,jsons/v1_VE1000_randls_68_rotated.json,http://54.235.29.9/FacialAge/BNav_EC2/DepthDuration/v2_depth_duration_MTurk/v2_DepthDuration_HTML.html#101,101,1920,1080,1920,1080,8-29-2022,9-42-56,7,depth_duration_stimuli/002340_2014-06-28_20-05-46_260595134347_rgbf000113-resize_0/002340_2014-06-28_20-05-46_260595134347_rgbf000113-resize_0-target.png,1000,2.4735,4,3546,1001,feet,jsons/v1_VE1000_randls_68_rotated.json,756988,949156,35,Woman
7,654696,DepthScenes,duration_manipulation_targetAtFixation,jsons/v1_VE1000_randls_68_rotated.json,http://54.235.29.9/FacialAge/BNav_EC2/DepthDuration/v2_depth_duration_MTurk/v2_DepthDuration_HTML.html#101,101,1920,1080,1920,1080,8-29-2022,9-42-56,8,depth_duration_stimuli/001016_2014-06-09_16-16-10_260595134347_rgbf000112-resize_5/001016_2014-06-09_16-16-10_260595134347_rgbf000112-resize_5-target.png,1000,1.6565,2,2733,1000,feet,jsons/v1_VE1000_randls_68_rotated.json,756988,949156,35,Woman
8,654696,DepthScenes,duration_manipulation_targetAtFixation,jsons/v1_VE1000_randls_68_rotated.json,http://54.235.29.9/FacialAge/BNav_EC2/DepthDuration/v2_depth_duration_MTurk/v2_DepthDuration_HTML.html#101,101,1920,1080,1920,1080,8-29-2022,9-42-56,9,depth_duration_stimuli/001571_2014-06-20_17-21-32_260595134347_rgbf000089-resize_1/001571_2014-06-20_17-21-32_260595134347_rgbf000089-resize_1-target.png,1000,1.86,4,2844,1001,feet,jsons/v1_VE1000_randls_68_rotated.json,756988,949156,35,Woman
9,654696,DepthScenes,duration_manipulation_targetAtFixation,jsons/v1_VE1000_randls_68_rotated.json,http://54.235.29.9/FacialAge/BNav_EC2/DepthDuration/v2_depth_duration_MTurk/v2_DepthDuration_HTML.html#101,101,1920,1080,1920,1080,8-29-2022,9-42-56,10,depth_duration_stimuli/002272_2014-06-28_18-53-56_260595134347_rgbf000067-resize_2/002272_2014-06-28_18-53-56_260595134347_rgbf000067-resize_2-target.png,1000,1.138,1,2819,1000,feet,jsons/v1_VE1000_randls_68_rotated.json,756988,949156,35,Woman
10,654696,DepthScenes,duration_manipulation_targetAtFixation,jsons/v1_VE1000_randls_68_rotated.json,http://54.235.29.9/FacialAge/BNav_EC2/DepthDuration/v2_depth_duration_MTurk/v2_DepthDuration_HTML.html#101,101,1920,1080,1920,1080,8-29-2022,9-42-56,11,depth_duration_stimuli/002875_2014-06-01_15-19-00_094959634447_rgbf000151-resize_1/002875_2014-06-01_15-19-00_094959634447_rgbf000151-resize_1-target.png,1000,1.9675,2,2984,1001,feet,jsons/v1_VE1000_randls_68_rotated.json,756988,949156,35,Woman
11,654696,DepthScenes,duration_manipulation_targetAtFixation,jsons/v1_VE1000_randls_68_rotated.json,http://54.235.29.9/FacialAge/BNav_EC2/DepthDuration/v2_depth_duration_MTurk/v2_DepthDuration_HTML.html#101,101,1920,1080,1920,1080,8-29-2022,9-42-56,12,depth_duration_stimuli/001011_2014-06-08_23-18-54_260595134347_rgbf000044-resize_4/001011_2014-06-08_23-18-54_260595134347_rgbf000044-resize_4-target.png,1000,2.4730000000000003,4,3139,1001,feet,jsons/v1_VE1000_randls_68_rotated.json,756988,949156,35,Woman
12,654696,DepthScenes,duration_manipulation_targetAtFixation,jsons/v1_VE1000_randls_68_rotated.json,http://54.235.29.9/FacialAge/BNav_EC2/DepthDuration/v2_depth_duration_MTurk/v2_DepthDuration_HTML.html#101,101,1920,1080,1920,1080,8-29-2022,9-42-56,13,depth_duration_stimuli/002639_2014-06-24_14-51-37_094959634447_rgbf000074-resize_4/002639_2014-06-24_14-51-37_094959634447_rgbf000074-resize_4-target.png,1000,4.0375,6,3257,999,feet,jsons/v1_VE1000_randls_68_rotated.json,756988,949156,35,Woman
13,654696,DepthScenes,duration_manipulation_targetAtFixation,jsons/v1_VE1000_randls_68_rotated.json,http://54.235.29.9/FacialAge/BNav_EC2/DepthDuration/v2_depth_duration_MTurk/v2_DepthDuration_HTML.html#101,101,1920,1080,1920,1080,8-29-2022,9-42-56,14,depth_duration_stimuli/003292_2014-05-14_21-53-49_094959634447_rgbf000100-resize_2/003292_2014-05-14_21-53-49_094959634447_rgbf000100-resize_2-target.png,1000,3.4815,3,2981,1000,feet,jsons/v1_VE1000_randls_68_rotated.json,756988,949156,35,Woman
14,654696,DepthScenes,duration_manipulation_targetAtFixation,jsons/v1_VE1000_randls_68_rotated.json,http://54.235.29.9/FacialAge/BNav_EC2/DepthDuration/v2_depth_duration_MTurk/v2_DepthDuration_HTML.html#101,101,1920,1080,1920,1080,8-29-2022,9-42-56,15,depth_duration_stimuli/002678_2014-06-13_16-15-32_094959634447_rgbf000151-resize_6/002678_2014-06-13_16-15-32_094959634447_rgbf000151-resize_6-target.png,1000,2.1830000000000003,2,2781,1001,feet,jsons/v1_VE1000_randls_68_rotated.json,756988,949156,35,Woman
15,654696,DepthScenes,duration_manipulation_targetAtFixation,jsons/v1_VE1000_randls_68_rotated.json,http://54.235.29.9/FacialAge/BNav_EC2/DepthDuration/v2_depth_duration_MTurk/v2_DepthDuration_HTML.html#101,101,1920,1080,1920,1080,8-29-2022,9-42-56,16,depth_duration_stimuli/000368_2014-06-09_15-53-01_260595134347_rgbf000155-resize_2/000368_2014-06-09_15-53-01_260595134347_rgbf000155-resize_2-target.png,1000,2.4859999999999998,2,2651,999,feet,jsons/v1_VE1000_randls_68_rotated.json,756988,949156,35,Woman
16,654696,DepthScenes,duration_manipulation_targetAtFixation,jsons/v1_VE1000_randls_68_rotated.json,http://54.235.29.9/FacialAge/BNav_EC2/DepthDuration/v2_depth_duration_MTurk/v2_DepthDuration_HTML.html#101,101,1920,1080,1920,1080,8-29-2022,9-42-56,17,depth_duration_stimuli/001447_2014-06-19_17-00-32_260595134347_rgbf000082-resize_5/001447_2014-06-19_17-00-32_260595134347_rgbf000082-resize_5-target.png,1000,4.13775,3,4570,1001,feet,jsons/v1_VE1000_randls_68_rotated.json,756988,949156,35,Woman
17,654696,DepthScenes,duration_manipulation_targetAtFixation,jsons/v1_VE1000_randls_68_rotated.json,http://54.235.29.9/FacialAge/BNav_EC2/DepthDuration/v2_depth_duration_MTurk/v2_DepthDuration_HTML.html#101,101,1920,1080,1920,1080,8-29-2022,9-42-56,18,depth_duration_stimuli/000447_2014-06-08_16-15-46_260595134347_rgbf000130-resize_1/000447_2014-06-08_16-15-46_260595134347_rgbf000130-resize_1-target.png,1000,4.479,4,3641,1000,feet,jsons/v1_VE1000_randls_68_rotated.json,756988,949156,35,Woman
18,654696,DepthScenes,duration_manipulation_targetAtFixation,jsons/v1_VE1000_randls_68_rotated.json,http://54.235.29.9/FacialAge/BNav_EC2/DepthDuration/v2_depth_duration_MTurk/v2_DepthDuration_HTML.html#101,101,1920,1080,1920,1080,8-29-2022,9-42-56,19,depth_duration_stimuli/001498_2014-06-19_17-45-14_260595134347_rgbf000129-resize_4/001498_2014-06-19_17-45-14_260595134347_rgbf000129-resize-original.jpg,1000,1.4075,0,3245,1000,feet,jsons/v1_VE1000_randls_68_rotated.json,756988,949156,35,Woman
19,654696,DepthScenes,duration_manipulation_targetAtFixation,jsons/v1_VE1000_randls_68_rotated.json,http://54.235.29.9/FacialAge/BNav_EC2/DepthDuration/v2_depth_duration_MTurk/v2_DepthDuration_HTML.html#101,101,1920,1080,1920,1080,8-29-2022,9-42-56,20,depth_duration_stimuli/002995_2014-06-15_12-31-26_094959634447_rgbf000150-resize_1/002995_2014-06-15_12-31-26_094959634447_rgbf000150-resize_1-target.png,1000,3.8360000000000003,6,3556,1001,feet,jsons/v1_VE1000_randls_68_rotated.json,756988,949156,35,Woman
20,654696,DepthScenes,duration_manipulation_targetAtFixation,jsons/v1_VE1000_randls_68_rotated.json,http://54.235.29.9/FacialAge/BNav_EC2/DepthDuration/v2_depth_duration_MTurk/v2_DepthDuration_HTML.html#101,101,1920,1080,1920,1080,8-29-2022,9-42-56,21,depth_duration_stimuli/002748_2014-06-22_19-07-22_094959634447_rgbf000078-resize_1/002748_2014-06-22_19-07-22_094959634447_rgbf000078-resize_1-target.png,1000,4.6705,8,3993,1000,feet,jsons/v1_VE1000_randls_68_rotated.json,756988,949156,35,Woman
21,654696,DepthScenes,duration_manipulation_targetAtFixation,jsons/v1_VE1000_randls_68_rotated.json,http://54.235.29.9/FacialAge/BNav_EC2/DepthDuration/v2_depth_duration_MTurk/v2_DepthDuration_HTML.html#101,101,1920,1080,1920,1080,8-29-2022,9-42-56,22,depth_duration_stimuli/002136_2014-06-25_21-18-03_260595134347_rgbf000109-resize_3/002136_2014-06-25_21-18-03_260595134347_rgbf000109-resize_3-target.png,1000,1.9569999999999999,3,2785,1000,feet,jsons/v1_VE1000_randls_68_rotated.json,756988,949156,35,Woman
22,654696,DepthScenes,duration_manipulation_targetAtFixation,jsons/v1_VE1000_randls_68_rotated.json,http://54.235.29.9/FacialAge/BNav_EC2/DepthDuration/v2_depth_duration_MTurk/v2_DepthDuration_HTML.html#101,101,1920,1080,1920,1080,8-29-2022,9-42-56,23,depth_duration_stimuli/002964_2014-06-08_17-46-11_094959634447_rgbf000091-resize_4/002964_2014-06-08_17-46-11_094959634447_rgbf000091-resize_4-target.png,1000,1.6909999999999998,2,2955,1000,feet,jsons/v1_VE1000_randls_68_rotated.json,756988,949156,35,Woman
23,654696,DepthScenes,duration_manipulation_targetAtFixation,jsons/v1_VE1000_randls_68_rotated.json,http://54.235.29.9/FacialAge/BNav_EC2/DepthDuration/v2_depth_duration_MTurk/v2_DepthDuration_HTML.html#101,101,1920,1080,1920,1080,8-29-2022,9-42-56,24,depth_duration_stimuli/000103_2014-05-14_22-01-17_260595134347_rgbf000152-resize_5/000103_2014-05-14_22-01-17_260595134347_rgbf000152-resize_5-target.png,1000,1.993,4,2695,1000,feet,jsons/v1_VE1000_randls_68_rotated.json,756988,949156,35,Woman
24,654696,DepthScenes,duration_manipulation_targetAtFixation,jsons/v1_VE1000_randls_68_rotated.json,http://54.235.29.9/FacialAge/BNav_EC2/DepthDuration/v2_depth_duration_MTurk/v2_DepthDuration_HTML.html#101,101,1920,1080,1920,1080,8-29-2022,9-42-56,25,depth_duration_stimuli/001555_2014-06-20_17-12-10_260595134347_rgbf000065-resize_4/001555_2014-06-20_17-12-10_260595134347_rgbf000065-resize_4-target.png,1000,1.633,1,3304,999,feet,jsons/v1_VE1000_randls_68_rotated.json,756988,949156,35,Woman
25,654696,DepthScenes,duration_manipulation_targetAtFixation,jsons/v1_VE1000_randls_68_rotated.json,http://54.235.29.9/FacialAge/BNav_EC2/DepthDuration/v2_depth_duration_MTurk/v2_DepthDuration_HTML.html#101,101,1920,1080,1920,1080,8-29-2022,9-42-56,26,depth_duration_stimuli/003083_2014-06-15_15-21-03_094959634447_rgbf000063-resize_1/003083_2014-06-15_15-21-03_094959634447_rgbf000063-resize_1-target.png,1000,4.1405,6,3769,1000,feet,jsons/v1_VE1000_randls_68_rotated.json,756988,949156,35,Woman
26,654696,DepthScenes,duration_manipulation_targetAtFixation,jsons/v1_VE1000_randls_68_rotated.json,http://54.235.29.9/FacialAge/BNav_EC2/DepthDuration/v2_depth_duration_MTurk/v2_DepthDuration_HTML.html#101,101,1920,1080,1920,1080,8-29-2022,9-42-56,27,depth_duration_stimuli/000486_2014-06-09_20-47-20_260595134347_rgbf000143-resize_2/000486_2014-06-09_20-47-20_260595134347_rgbf000143-resize_2-target.png,1000,4.8325,5,3393,1000,feet,jsons/v1_VE1000_randls_68_rotated.json,756988,949156,35,Woman
27,654696,DepthScenes,duration_manipulation_targetAtFixation,jsons/v1_VE1000_randls_68_rotated.json,http://54.235.29.9/FacialAge/BNav_EC2/DepthDuration/v2_depth_duration_MTurk/v2_DepthDuration_HTML.html#101,101,1920,1080,1920,1080,8-29-2022,9-42-56,28,depth_duration_stimuli/000457_2014-06-08_16-52-43_260595134347_rgbf000199-resize_1/000457_2014-06-08_16-52-43_260595134347_rgbf000199-resize_1-target.png,1000,3.6489999999999996,3,2742,1001,feet,jsons/v1_VE1000_randls_68_rotated.json,756988,949156,35,Woman
28,654696,DepthScenes,duration_manipulation_targetAtFixation,jsons/v1_VE1000_randls_68_rotated.json,http://54.235.29.9/FacialAge/BNav_EC2/DepthDuration/v2_depth_duration_MTurk/v2_DepthDuration_HTML.html#101,101,1920,1080,1920,1080,8-29-2022,9-42-56,29,depth_duration_stimuli/000929_2014-06-09_16-33-19_260595134347_rgbf000139-resize_0/000929_2014-06-09_16-33-19_260595134347_rgbf000139-resize_0-target.png,1000,2.8680000000000003,4,3343,1000,feet,jsons/v1_VE1000_randls_68_rotated.json,756988,949156,35,Woman
29,654696,DepthScenes,duration_manipulation_targetAtFixation,jsons/v1_VE1000_randls_68_rotated.json,http://54.235.29.9/FacialAge/BNav_EC2/DepthDuration/v2_depth_duration_MTurk/v2_DepthDuration_HTML.html#101,101,1920,1080,1920,1080,8-29-2022,9-42-56,30,depth_duration_stimuli/002072_2014-06-24_21-48-06_260595134347_rgbf000115-resize_0/002072_2014-06-24_21-48-06_260595134347_rgbf000115-resize-original.jpg,1000,4.702,0,3532,999,feet,jsons/v1_VE1000_randls_68_rotated.json,756988,949156,35,Woman
30,654696,DepthScenes,duration_manipulation_targetAtFixation,jsons/v1_VE1000_randls_68_rotated.json,http://54.235.29.9/FacialAge/BNav_EC2/DepthDuration/v2_depth_duration_MTurk/v2_DepthDuration_HTML.html#101,101,1920,1080,1920,1080,8-29-2022,9-42-56,31,depth_duration_stimuli/000734_2014-06-08_17-39-11_260595134347_rgbf000128-resize_2/000734_2014-06-08_17-39-11_260595134347_rgbf000128-resize_2-target.png,1000,4.098,3,2998,1000,feet,jsons/v1_VE1000_randls_68_rotated.json,756988,949156,35,Woman
31,654696,DepthScenes,duration_manipulation_targetAtFixation,jsons/v1_VE1000_randls_68_rotated.json,http://54.235.29.9/FacialAge/BNav_EC2/DepthDuration/v2_depth_duration_MTurk/v2_DepthDuration_HTML.html#101,101,1920,1080,1920,1080,8-29-2022,9-42-56,32,depth_duration_stimuli/000739_2014-06-08_18-45-58_260595134347_rgbf000068-resize_1/000739_2014-06-08_18-45-58_260595134347_rgbf000068-resize_1-target.png,1000,3.534,5,3194,1000,feet,jsons/v1_VE1000_randls_68_rotated.json,756988,949156,35,Woman
32,654696,DepthScenes,duration_manipulation_targetAtFixation,jsons/v1_VE1000_randls_68_rotated.json,http://54.235.29.9/FacialAge/BNav_EC2/DepthDuration/v2_depth_duration_MTurk/v2_DepthDuration_HTML.html#101,101,1920,1080,1920,1080,8-29-2022,9-42-56,33,depth_duration_stimuli/003129_2014-05-12_10-48-10_094959634447_rgbf000100-resize_0/003129_2014-05-12_10-48-10_094959634447_rgbf000100-resize_0-target.png,1000,4.9305,6,3927,1001,feet,jsons/v1_VE1000_randls_68_rotated.json,756988,949156,35,Woman
33,654696,DepthScenes,duration_manipulation_targetAtFixation,jsons/v1_VE1000_randls_68_rotated.json,http://54.235.29.9/FacialAge/BNav_EC2/DepthDuration/v2_depth_duration_MTurk/v2_DepthDuration_HTML.html#101,101,1920,1080,1920,1080,8-29-2022,9-42-56,34,depth_duration_stimuli/000414_2014-06-04_19-49-13_260595134347_rgbf000044-resize_0/000414_2014-06-04_19-49-13_260595134347_rgbf000044-resize_0-target.png,1000,4.329,5,3881,998,feet,jsons/v1_VE1000_randls_68_rotated.json,756988,949156,35,Woman
34,654696,DepthScenes,duration_manipulation_targetAtFixation,jsons/v1_VE1000_randls_68_rotated.json,http://54.235.29.9/FacialAge/BNav_EC2/DepthDuration/v2_depth_duration_MTurk/v2_DepthDuration_HTML.html#101,101,1920,1080,1920,1080,8-29-2022,9-42-56,35,depth_duration_stimuli/002657_2014-06-13_15-29-54_094959634447_rgbf000150-resize_1/002657_2014-06-13_15-29-54_094959634447_rgbf000150-resize_1-target.png,1000,4.919,5,4007,1000,feet,jsons/v1_VE1000_randls_68_rotated.json,756988,949156,35,Woman
35,654696,DepthScenes,duration_manipulation_targetAtFixation,jsons/v1_VE1000_randls_68_rotated.json,http://54.235.29.9/FacialAge/BNav_EC2/DepthDuration/v2_depth_duration_MTurk/v2_DepthDuration_HTML.html#101,101,1920,1080,1920,1080,8-29-2022,9-42-56,36,depth_duration_stimuli/002375_2014-06-28_20-13-44_260595134347_rgbf000032-resize_1/002375_2014-06-28_20-13-44_260595134347_rgbf000032-resize_1-target.png,1000,4.0175,3,2653,1000,feet,jsons/v1_VE1000_randls_68_rotated.json,756988,949156,35,Woman
36,654696,DepthScenes,duration_manipulation_targetAtFixation,jsons/v1_VE1000_randls_68_rotated.json,http://54.235.29.9/FacialAge/BNav_EC2/DepthDuration/v2_depth_duration_MTurk/v2_DepthDuration_HTML.html#101,101,1920,1080,1920,1080,8-29-2022,9-42-56,37,depth_duration_stimuli/001132_2014-06-17_14-48-54_260595134347_rgbf000100-resize_2/001132_2014-06-17_14-48-54_260595134347_rgbf000100-resize_2-target.png,1000,3.753,6,5399,1000,feet,jsons/v1_VE1000_randls_68_rotated.json,756988,949156,35,Woman
37,654696,DepthScenes,duration_manipulation_targetAtFixation,jsons/v1_VE1000_randls_68_rotated.json,http://54.235.29.9/FacialAge/BNav_EC2/DepthDuration/v2_depth_duration_MTurk/v2_DepthDuration_HTML.html#101,101,1920,1080,1920,1080,8-29-2022,9-42-56,38,depth_duration_stimuli/001133_2014-06-17_14-49-16_260595134347_rgbf000100-resize_0/001133_2014-06-17_14-49-16_260595134347_rgbf000100-resize_0-target.png,1000,4.2115,8,3305,1000,feet,jsons/v1_VE1000_randls_68_rotated.json,756988,949156,35,Woman
38,654696,DepthScenes,duration_manipulation_targetAtFixation,jsons/v1_VE1000_randls_68_rotated.json,http://54.235.29.9/FacialAge/BNav_EC2/DepthDuration/v2_depth_duration_MTurk/v2_DepthDuration_HTML.html#101,101,1920,1080,1920,1080,8-29-2022,9-42-56,39,depth_duration_stimuli/000556_2014-06-09_22-42-56_260595134347_rgbf000214-resize_1/000556_2014-06-09_22-42-56_260595134347_rgbf000214-resize_1-target.png,1000,4.8415,4,2929,1000,feet,jsons/v1_VE1000_randls_68_rotated.json,756988,949156,35,Woman
39,654696,DepthScenes,duration_manipulation_targetAtFixation,jsons/v1_VE1000_randls_68_rotated.json,http://54.235.29.9/FacialAge/BNav_EC2/DepthDuration/v2_depth_duration_MTurk/v2_DepthDuration_HTML.html#101,101,1920,1080,1920,1080,8-29-2022,9-42-56,40,depth_duration_stimuli/001158_2014-06-17_15-32-16_260595134347_rgbf000138-resize_2/001158_2014-06-17_15-32-16_260595134347_rgbf000138-resize_2-target.png,1000,4.5315,9,3694,998,feet,jsons/v1_VE1000_randls_68_rotated.json,756988,949156,35,Woman
40,654696,DepthScenes,duration_manipulation_targetAtFixation,jsons/v1_VE1000_randls_68_rotated.json,http://54.235.29.9/FacialAge/BNav_EC2/DepthDuration/v2_depth_duration_MTurk/v2_DepthDuration_HTML.html#101,101,1920,1080,1920,1080,8-29-2022,9-42-56,41,depth_duration_stimuli/002568_2014-06-24_13-59-21_094959634447_rgbf000062-resize_4/002568_2014-06-24_13-59-21_094959634447_rgbf000062-resize_4-target.png,1000,3.015,4,3139,999,feet,jsons/v1_VE1000_randls_68_rotated.json,756988,949156,35,Woman
41,654696,DepthScenes,duration_manipulation_targetAtFixation,jsons/v1_VE1000_randls_68_rotated.json,http://54.235.29.9/FacialAge/BNav_EC2/DepthDuration/v2_depth_duration_MTurk/v2_DepthDuration_HTML.html#101,101,1920,1080,1920,1080,8-29-2022,9-42-56,42,depth_duration_stimuli/003492_2014-05-21_15-50-55_094959634447_rgbf000828-resize_1/003492_2014-05-21_15-50-55_094959634447_rgbf000828-resize_1-target.png,1000,4.06875,5,4532,998,feet,jsons/v1_VE1000_randls_68_rotated.json,756988,949156,35,Woman
42,654696,DepthScenes,duration_manipulation_targetAtFixation,jsons/v1_VE1000_randls_68_rotated.json,http://54.235.29.9/FacialAge/BNav_EC2/DepthDuration/v2_depth_duration_MTurk/v2_DepthDuration_HTML.html#101,101,1920,1080,1920,1080,8-29-2022,9-42-56,43,depth_duration_stimuli/003490_2014-05-21_15-50-11_094959634447_rgbf000101-resize_3/003490_2014-05-21_15-50-11_094959634447_rgbf000101-resize_3-target.png,1000,3.6445,3,4737,1000,feet,jsons/v1_VE1000_randls_68_rotated.json,756988,949156,35,Woman
43,654696,DepthScenes,duration_manipulation_targetAtFixation,jsons/v1_VE1000_randls_68_rotated.json,http://54.235.29.9/FacialAge/BNav_EC2/DepthDuration/v2_depth_duration_MTurk/v2_DepthDuration_HTML.html#101,101,1920,1080,1920,1080,8-29-2022,9-42-56,44,depth_duration_stimuli/001175_2014-06-17_15-45-55_260595134347_rgbf000129-resize_4/001175_2014-06-17_15-45-55_260595134347_rgbf000129-resize_4-target.png,1000,4.255,7,3565,1000,feet,jsons/v1_VE1000_randls_68_rotated.json,756988,949156,35,Woman
44,654696,DepthScenes,duration_manipulation_targetAtFixation,jsons/v1_VE1000_randls_68_rotated.json,http://54.235.29.9/FacialAge/BNav_EC2/DepthDuration/v2_depth_duration_MTurk/v2_DepthDuration_HTML.html#101,101,1920,1080,1920,1080,8-29-2022,9-42-56,45,depth_duration_stimuli/002467_2014-06-28_20-38-07_260595134347_rgbf000026-resize_2/002467_2014-06-28_20-38-07_260595134347_rgbf000026-resize_2-target.png,1000,4.742,8,3820,999,feet,jsons/v1_VE1000_randls_68_rotated.json,756988,949156,35,Woman
45,654696,DepthScenes,duration_manipulation_targetAtFixation,jsons/v1_VE1000_randls_68_rotated.json,http://54.235.29.9/FacialAge/BNav_EC2/DepthDuration/v2_depth_duration_MTurk/v2_DepthDuration_HTML.html#101,101,1920,1080,1920,1080,8-29-2022,9-42-56,46,depth_duration_stimuli/002570_2014-06-24_13-59-54_094959634447_rgbf000059-resize_0/002570_2014-06-24_13-59-54_094959634447_rgbf000059-resize_0-target.png,1000,4.037,5,3692,998,feet,jsons/v1_VE1000_randls_68_rotated.json,756988,949156,35,Woman
46,654696,DepthScenes,duration_manipulation_targetAtFixation,jsons/v1_VE1000_randls_68_rotated.json,http://54.235.29.9/FacialAge/BNav_EC2/DepthDuration/v2_depth_duration_MTurk/v2_DepthDuration_HTML.html#101,101,1920,1080,1920,1080,8-29-2022,9-42-56,47,depth_duration_stimuli/003228_2014-05-14_13-42-35_094959634447_rgbf000101-resize_1/003228_2014-05-14_13-42-35_094959634447_rgbf000101-resize_1-target.png,1000,1.9680000000000002,2,3041,1001,feet,jsons/v1_VE1000_randls_68_rotated.json,756988,949156,35,Woman
47,654696,DepthScenes,duration_manipulation_targetAtFixation,jsons/v1_VE1000_randls_68_rotated.json,http://54.235.29.9/FacialAge/BNav_EC2/DepthDuration/v2_depth_duration_MTurk/v2_DepthDuration_HTML.html#101,101,1920,1080,1920,1080,8-29-2022,9-42-56,48,depth_duration_stimuli/002600_2014-06-24_14-27-04_094959634447_rgbf000074-resize_2/002600_2014-06-24_14-27-04_094959634447_rgbf000074-resize_2-target.png,1000,2.7575,4,3385,1000,feet,jsons/v1_VE1000_randls_68_rotated.json,756988,949156,35,Woman
48,654696,DepthScenes,duration_manipulation_targetAtFixation,jsons/v1_VE1000_randls_68_rotated.json,http://54.235.29.9/FacialAge/BNav_EC2/DepthDuration/v2_depth_duration_MTurk/v2_DepthDuration_HTML.html#101,101,1920,1080,1920,1080,8-29-2022,9-42-56,49,depth_duration_stimuli/001170_2014-06-17_15-43-44_260595134347_rgbf000096-resize_6/001170_2014-06-17_15-43-44_260595134347_rgbf000096-resize-original.jpg,1000,1.1909999999999998,0,3339,1000,feet,jsons/v1_VE1000_randls_68_rotated.json,756988,949156,35,Woman
49,654696,DepthScenes,duration_manipulation_targetAtFixation,jsons/v1_VE1000_randls_68_rotated.json,http://54.235.29.9/FacialAge/BNav_EC2/DepthDuration/v2_depth_duration_MTurk/v2_DepthDuration_HTML.html#101,101,1920,1080,1920,1080,8-29-2022,9-42-56,50,depth_duration_stimuli/001584_2014-06-20_11-07-43_260595134347_rgbf000002-resize_1/001584_2014-06-20_11-07-43_260595134347_rgbf000002-resize_1-target.png,1000,3.53,2,2755,1000,feet,jsons/v1_VE1000_randls_68_rotated.json,756988,949156,35,Woman
50,654696,DepthScenes,duration_manipulation_targetAtFixation,jsons/v1_VE1000_randls_68_rotated.json,http://54.235.29.9/FacialAge/BNav_EC2/DepthDuration/v2_depth_duration_MTurk/v2_DepthDuration_HTML.html#101,101,1920,1080,1920,1080,8-29-2022,9-42-56,51,depth_duration_stimuli/003621_2014-05-23_18-06-08_094959634447_rgbf000101-resize_1/003621_2014-05-23_18-06-08_094959634447_rgbf000101-resize_1-target.png,1000,3.9835,7,3629,1000,feet,jsons/v1_VE1000_randls_68_rotated.json,756988,949156,35,Woman
51,654696,DepthScenes,duration_manipulation_targetAtFixation,jsons/v1_VE1000_randls_68_rotated.json,http://54.235.29.9/FacialAge/BNav_EC2/DepthDuration/v2_depth_duration_MTurk/v2_DepthDuration_HTML.html#101,101,1920,1080,1920,1080,8-29-2022,9-42-56,52,depth_duration_stimuli/002323_2014-06-28_20-01-54_260595134347_rgbf000051-resize_4/002323_2014-06-28_20-01-54_260595134347_rgbf000051-resize_4-target.png,1000,3.7310000000000003,4,3154,999,feet,jsons/v1_VE1000_randls_68_rotated.json,756988,949156,35,Woman
52,654696,DepthScenes,duration_manipulation_targetAtFixation,jsons/v1_VE1000_randls_68_rotated.json,http://54.235.29.9/FacialAge/BNav_EC2/DepthDuration/v2_depth_duration_MTurk/v2_DepthDuration_HTML.html#101,101,1920,1080,1920,1080,8-29-2022,9-42-56,53,depth_duration_stimuli/000917_2014-06-09_22-45-29_260595134347_rgbf000149-resize_3/000917_2014-06-09_22-45-29_260595134347_rgbf000149-resize_3-target.png,1000,4.1865,5,4033,1000,feet,jsons/v1_VE1000_randls_68_rotated.json,756988,949156,35,Woman
53,654696,DepthScenes,duration_manipulation_targetAtFixation,jsons/v1_VE1000_randls_68_rotated.json,http://54.235.29.9/FacialAge/BNav_EC2/DepthDuration/v2_depth_duration_MTurk/v2_DepthDuration_HTML.html#101,101,1920,1080,1920,1080,8-29-2022,9-42-56,54,depth_duration_stimuli/000677_2014-06-08_23-10-32_260595134347_rgbf000158-resize_6/000677_2014-06-08_23-10-32_260595134347_rgbf000158-resize_6-target.png,1000,3.556,7,3137,1000,feet,jsons/v1_VE1000_randls_68_rotated.json,756988,949156,35,Woman
54,654696,DepthScenes,duration_manipulation_targetAtFixation,jsons/v1_VE1000_randls_68_rotated.json,http://54.235.29.9/FacialAge/BNav_EC2/DepthDuration/v2_depth_duration_MTurk/v2_DepthDuration_HTML.html#101,101,1920,1080,1920,1080,8-29-2022,9-42-56,55,depth_duration_stimuli/001029_2014-06-08_13-17-57_260595134347_rgbf000065-resize_1/001029_2014-06-08_13-17-57_260595134347_rgbf000065-resize_1-target.png,1000,3.0835,5,5183,1000,feet,jsons/v1_VE1000_randls_68_rotated.json,756988,949156,35,Woman
55,654696,DepthScenes,duration_manipulation_targetAtFixation,jsons/v1_VE1000_randls_68_rotated.json,http://54.235.29.9/FacialAge/BNav_EC2/DepthDuration/v2_depth_duration_MTurk/v2_DepthDuration_HTML.html#101,101,1920,1080,1920,1080,8-29-2022,9-42-56,56,depth_duration_stimuli/002637_2014-06-24_14-51-13_094959634447_rgbf000066-resize_4/002637_2014-06-24_14-51-13_094959634447_rgbf000066-resize_4-target.png,1000,1.9955,4,4277,1001,feet,jsons/v1_VE1000_randls_68_rotated.json,756988,949156,35,Woman
56,654696,DepthScenes,duration_manipulation_targetAtFixation,jsons/v1_VE1000_randls_68_rotated.json,http://54.235.29.9/FacialAge/BNav_EC2/DepthDuration/v2_depth_duration_MTurk/v2_DepthDuration_HTML.html#101,101,1920,1080,1920,1080,8-29-2022,9-42-56,57,depth_duration_stimuli/003534_2014-05-22_15-06-10_094959634447_rgbf000102-resize_4/003534_2014-05-22_15-06-10_094959634447_rgbf000102-resize_4-target.png,1000,1.426,2,3099,1000,feet,jsons/v1_VE1000_randls_68_rotated.json,756988,949156,35,Woman
57,654696,DepthScenes,duration_manipulation_targetAtFixation,jsons/v1_VE1000_randls_68_rotated.json,http://54.235.29.9/FacialAge/BNav_EC2/DepthDuration/v2_depth_duration_MTurk/v2_DepthDuration_HTML.html#101,101,1920,1080,1920,1080,8-29-2022,9-42-56,58,depth_duration_stimuli/001100_2014-06-15_17-46-26_260595134347_rgbf000225-resize_2/001100_2014-06-15_17-46-26_260595134347_rgbf000225-resize_2-target.png,1000,2.24,1,3771,1000,feet,jsons/v1_VE1000_randls_68_rotated.json,756988,949156,35,Woman
58,654696,DepthScenes,duration_manipulation_targetAtFixation,jsons/v1_VE1000_randls_68_rotated.json,http://54.235.29.9/FacialAge/BNav_EC2/DepthDuration/v2_depth_duration_MTurk/v2_DepthDuration_HTML.html#101,101,1920,1080,1920,1080,8-29-2022,9-42-56,59,depth_duration_stimuli/002784_2014-06-22_19-26-30_094959634447_rgbf000083-resize_3/002784_2014-06-22_19-26-30_094959634447_rgbf000083-resize_3-target.png,1000,1.8046666666667,3,3120,999,feet,jsons/v1_VE1000_randls_68_rotated.json,756988,949156,35,Woman
59,654696,DepthScenes,duration_manipulation_targetAtFixation,jsons/v1_VE1000_randls_68_rotated.json,http://54.235.29.9/FacialAge/BNav_EC2/DepthDuration/v2_depth_duration_MTurk/v2_DepthDuration_HTML.html#101,101,1920,1080,1920,1080,8-29-2022,9-42-56,60,depth_duration_stimuli/000409_2014-06-04_19-23-33_260595134347_rgbf000067-resize_0/000409_2014-06-04_19-23-33_260595134347_rgbf000067-resize_0-target.png,1000,3.7335,6,3413,1000,feet,jsons/v1_VE1000_randls_68_rotated.json,756988,949156,35,Woman
60,654696,DepthScenes,duration_manipulation_targetAtFixation,jsons/v1_VE1000_randls_68_rotated.json,http://54.235.29.9/FacialAge/BNav_EC2/DepthDuration/v2_depth_duration_MTurk/v2_DepthDuration_HTML.html#101,101,1920,1080,1920,1080,8-29-2022,9-42-56,61,depth_duration_stimuli/002663_2014-06-13_15-50-26_094959634447_rgbf000075-resize_1/002663_2014-06-13_15-50-26_094959634447_rgbf000075-resize_1-target.png,1000,4.7495,8,3827,999,feet,jsons/v1_VE1000_randls_68_rotated.json,756988,949156,35,Woman
61,654696,DepthScenes,duration_manipulation_targetAtFixation,jsons/v1_VE1000_randls_68_rotated.json,http://54.235.29.9/FacialAge/BNav_EC2/DepthDuration/v2_depth_duration_MTurk/v2_DepthDuration_HTML.html#101,101,1920,1080,1920,1080,8-29-2022,9-42-56,62,depth_duration_stimuli/002199_2014-06-28_18-33-56_260595134347_rgbf000074-resize_0/002199_2014-06-28_18-33-56_260595134347_rgbf000074-resize_0-target.png,1000,1.996,1,2906,1000,feet,jsons/v1_VE1000_randls_68_rotated.json,756988,949156,35,Woman
62,654696,DepthScenes,duration_manipulation_targetAtFixation,jsons/v1_VE1000_randls_68_rotated.json,http://54.235.29.9/FacialAge/BNav_EC2/DepthDuration/v2_depth_duration_MTurk/v2_DepthDuration_HTML.html#101,101,1920,1080,1920,1080,8-29-2022,9-42-56,63,depth_duration_stimuli/001056_2014-06-08_18-46-44_260595134347_rgbf000068-resize_0/001056_2014-06-08_18-46-44_260595134347_rgbf000068-resize_0-target.png,1000,2.6625,5,4105,1000,feet,jsons/v1_VE1000_randls_68_rotated.json,756988,949156,35,Woman
63,654696,DepthScenes,duration_manipulation_targetAtFixation,jsons/v1_VE1000_randls_68_rotated.json,http://54.235.29.9/FacialAge/BNav_EC2/DepthDuration/v2_depth_duration_MTurk/v2_DepthDuration_HTML.html#101,101,1920,1080,1920,1080,8-29-2022,9-42-56,64,depth_duration_stimuli/001052_2014-06-08_18-24-54_260595134347_rgbf000130-resize_1/001052_2014-06-08_18-24-54_260595134347_rgbf000130-resize_1-target.png,1000,4.1045,6,4041,1000,feet,jsons/v1_VE1000_randls_68_rotated.json,756988,949156,35,Woman
64,654696,DepthScenes,duration_manipulation_targetAtFixation,jsons/v1_VE1000_randls_68_rotated.json,http://54.235.29.9/FacialAge/BNav_EC2/DepthDuration/v2_depth_duration_MTurk/v2_DepthDuration_HTML.html#101,101,1920,1080,1920,1080,8-29-2022,9-42-56,65,depth_duration_stimuli/002988_2014-06-15_12-24-20_094959634447_rgbf000150-resize_1/002988_2014-06-15_12-24-20_094959634447_rgbf000150-resize_1-target.png,1000,4.7669999999999995,9,3519,1000,feet,jsons/v1_VE1000_randls_68_rotated.json,756988,949156,35,Woman
65,654696,DepthScenes,duration_manipulation_targetAtFixation,jsons/v1_VE1000_randls_68_rotated.json,http://54.235.29.9/FacialAge/BNav_EC2/DepthDuration/v2_depth_duration_MTurk/v2_DepthDuration_HTML.html#101,101,1920,1080,1920,1080,8-29-2022,9-42-56,66,depth_duration_stimuli/001540_2014-06-20_17-01-05_260595134347_rgbf000086-resize_2/001540_2014-06-20_17-01-05_260595134347_rgbf000086-resize-original.jpg,1000,1.459,0,3235,1000,feet,jsons/v1_VE1000_randls_68_rotated.json,756988,949156,35,Woman
66,654696,DepthScenes,duration_manipulation_targetAtFixation,jsons/v1_VE1000_randls_68_rotated.json,http://54.235.29.9/FacialAge/BNav_EC2/DepthDuration/v2_depth_duration_MTurk/v2_DepthDuration_HTML.html#101,101,1920,1080,1920,1080,8-29-2022,9-42-56,67,depth_duration_stimuli/001650_2014-06-20_12-09-00_260595134347_rgbf000087-resize_3/001650_2014-06-20_12-09-00_260595134347_rgbf000087-resize_3-target.png,1000,1.9505,1,2805,1000,feet,jsons/v1_VE1000_randls_68_rotated.json,756988,949156,35,Woman
67,654696,DepthScenes,duration_manipulation_targetAtFixation,jsons/v1_VE1000_randls_68_rotated.json,http://54.235.29.9/FacialAge/BNav_EC2/DepthDuration/v2_depth_duration_MTurk/v2_DepthDuration_HTML.html#101,101,1920,1080,1920,1080,8-29-2022,9-42-56,68,depth_duration_stimuli/000682_2014-06-08_23-14-58_260595134347_rgbf000041-resize_5/000682_2014-06-08_23-14-58_260595134347_rgbf000041-resize_5-target.png,1000,2.7239999999999998,3,3167,1000,feet,jsons/v1_VE1000_randls_68_rotated.json,756988,949156,35,Woman
68,654696,DepthScenes,duration_manipulation_targetAtFixation,jsons/v1_VE1000_randls_68_rotated.json,http://54.235.29.9/FacialAge/BNav_EC2/DepthDuration/v2_depth_duration_MTurk/v2_DepthDuration_HTML.html#101,101,1920,1080,1920,1080,8-29-2022,9-42-56,69,depth_duration_stimuli/001516_2014-06-20_16-25-09_260595134347_rgbf000076-resize_2/001516_2014-06-20_16-25-09_260595134347_rgbf000076-resize_2-target.png,1000,1.7445,2,2951,1001,feet,jsons/v1_VE1000_randls_68_rotated.json,756988,949156,35,Woman
69,654696,DepthScenes,duration_manipulation_targetAtFixation,jsons/v1_VE1000_randls_68_rotated.json,http://54.235.29.9/FacialAge/BNav_EC2/DepthDuration/v2_depth_duration_MTurk/v2_DepthDuration_HTML.html#101,101,1920,1080,1920,1080,8-29-2022,9-42-56,70,depth_duration_stimuli/002118_2014-06-25_20-32-08_260595134347_rgbf000078-resize_1/002118_2014-06-25_20-32-08_260595134347_rgbf000078-resize_1-target.png,1000,2.6460000000000004,4,4138,998,feet,jsons/v1_VE1000_randls_68_rotated.json,756988,949156,35,Woman
70,654696,DepthScenes,duration_manipulation_targetAtFixation,jsons/v1_VE1000_randls_68_rotated.json,http://54.235.29.9/FacialAge/BNav_EC2/DepthDuration/v2_depth_duration_MTurk/v2_DepthDuration_HTML.html#101,101,1920,1080,1920,1080,8-29-2022,9-42-56,71,depth_duration_stimuli/003079_2014-06-15_15-18-20_094959634447_rgbf000152-resize_8/003079_2014-06-15_15-18-20_094959634447_rgbf000152-resize_8-target.png,1000,2.8775,5,4311,999,feet,jsons/v1_VE1000_randls_68_rotated.json,756988,949156,35,Woman
71,654696,DepthScenes,duration_manipulation_targetAtFixation,jsons/v1_VE1000_randls_68_rotated.json,http://54.235.29.9/FacialAge/BNav_EC2/DepthDuration/v2_depth_duration_MTurk/v2_DepthDuration_HTML.html#101,101,1920,1080,1920,1080,8-29-2022,9-42-56,72,depth_duration_stimuli/000506_2014-06-08_23-21-00_260595134347_rgbf000070-resize_7/000506_2014-06-08_23-21-00_260595134347_rgbf000070-resize_7-target.png,1000,4.0585,4,4565,1000,feet,jsons/v1_VE1000_randls_68_rotated.json,756988,949156,35,Woman
72,654696,DepthScenes,duration_manipulation_targetAtFixation,jsons/v1_VE1000_randls_68_rotated.json,http://54.235.29.9/FacialAge/BNav_EC2/DepthDuration/v2_depth_duration_MTurk/v2_DepthDuration_HTML.html#101,101,1920,1080,1920,1080,8-29-2022,9-42-56,73,depth_duration_stimuli/002758_2014-06-22_19-11-20_094959634447_rgbf000128-resize_1/002758_2014-06-22_19-11-20_094959634447_rgbf000128-resize_1-target.png,1000,2.555,3,3881,1000,feet,jsons/v1_VE1000_randls_68_rotated.json,756988,949156,35,Woman
73,654696,DepthScenes,duration_manipulation_targetAtFixation,jsons/v1_VE1000_randls_68_rotated.json,http://54.235.29.9/FacialAge/BNav_EC2/DepthDuration/v2_depth_duration_MTurk/v2_DepthDuration_HTML.html#101,101,1920,1080,1920,1080,8-29-2022,9-42-56,74,depth_duration_stimuli/002630_2014-06-24_14-47-50_094959634447_rgbf000055-resize_1/002630_2014-06-24_14-47-50_094959634447_rgbf000055-resize_1-target.png,1000,3.0095,7,5661,1000,feet,jsons/v1_VE1000_randls_68_rotated.json,756988,949156,35,Woman
74,654696,DepthScenes,duration_manipulation_targetAtFixation,jsons/v1_VE1000_randls_68_rotated.json,http://54.235.29.9/FacialAge/BNav_EC2/DepthDuration/v2_depth_duration_MTurk/v2_DepthDuration_HTML.html#101,101,1920,1080,1920,1080,8-29-2022,9-42-56,75,depth_duration_stimuli/000137_2014-05-20_17-04-49_260595134347_rgbf000120-resize_1/000137_2014-05-20_17-04-49_260595134347_rgbf000120-resize_1-target.png,1000,3.786,5,6128,1000,feet,jsons/v1_VE1000_randls_68_rotated.json,756988,949156,35,Woman
75,654696,DepthScenes,duration_manipulation_targetAtFixation,jsons/v1_VE1000_randls_68_rotated.json,http://54.235.29.9/FacialAge/BNav_EC2/DepthDuration/v2_depth_duration_MTurk/v2_DepthDuration_HTML.html#101,101,1920,1080,1920,1080,8-29-2022,9-42-56,76,depth_duration_stimuli/000736_2014-06-08_18-24-15_260595134347_rgbf000206-resize_3/000736_2014-06-08_18-24-15_260595134347_rgbf000206-resize_3-target.png,1000,3.515,3,3035,1000,feet,jsons/v1_VE1000_randls_68_rotated.json,756988,949156,35,Woman
76,654696,DepthScenes,duration_manipulation_targetAtFixation,jsons/v1_VE1000_randls_68_rotated.json,http://54.235.29.9/FacialAge/BNav_EC2/DepthDuration/v2_depth_duration_MTurk/v2_DepthDuration_HTML.html#101,101,1920,1080,1920,1080,8-29-2022,9-42-56,77,depth_duration_stimuli/000691_2014-06-08_13-08-50_260595134347_rgbf000132-resize_3/000691_2014-06-08_13-08-50_260595134347_rgbf000132-resize_3-target.png,1000,4.1530000000000005,4,4578,1001,feet,jsons/v1_VE1000_randls_68_rotated.json,756988,949156,35,Woman
77,654696,DepthScenes,duration_manipulation_targetAtFixation,jsons/v1_VE1000_randls_68_rotated.json,http://54.235.29.9/FacialAge/BNav_EC2/DepthDuration/v2_depth_duration_MTurk/v2_DepthDuration_HTML.html#101,101,1920,1080,1920,1080,8-29-2022,9-42-56,78,depth_duration_stimuli/002213_2014-06-28_18-37-58_260595134347_rgbf000055-resize_1/002213_2014-06-28_18-37-58_260595134347_rgbf000055-resize_1-target.png,1000,3.62,8,3848,1001,feet,jsons/v1_VE1000_randls_68_rotated.json,756988,949156,35,Woman
78,654696,DepthScenes,duration_manipulation_targetAtFixation,jsons/v1_VE1000_randls_68_rotated.json,http://54.235.29.9/FacialAge/BNav_EC2/DepthDuration/v2_depth_duration_MTurk/v2_DepthDuration_HTML.html#101,101,1920,1080,1920,1080,8-29-2022,9-42-56,79,depth_duration_stimuli/000109_2014-05-14_23-41-52_260595134347_rgbf000035-resize_9/000109_2014-05-14_23-41-52_260595134347_rgbf000035-resize_9-target.png,1000,1.3545,1,3429,1000,feet,jsons/v1_VE1000_randls_68_rotated.json,756988,949156,35,Woman
79,654696,DepthScenes,duration_manipulation_targetAtFixation,jsons/v1_VE1000_randls_68_rotated.json,http://54.235.29.9/FacialAge/BNav_EC2/DepthDuration/v2_depth_duration_MTurk/v2_DepthDuration_HTML.html#101,101,1920,1080,1920,1080,8-29-2022,9-42-56,80,depth_duration_stimuli/000470_2014-06-09_19-42-40_260595134347_rgbf000094-resize_1/000470_2014-06-09_19-42-40_260595134347_rgbf000094-resize_1-target.png,1000,1.831,2,2865,1001,feet,jsons/v1_VE1000_randls_68_rotated.json,756988,949156,35,Woman
80,654696,DepthScenes,duration_manipulation_targetAtFixation,jsons/v1_VE1000_randls_68_rotated.json,http://54.235.29.9/FacialAge/BNav_EC2/DepthDuration/v2_depth_duration_MTurk/v2_DepthDuration_HTML.html#101,101,1920,1080,1920,1080,8-29-2022,9-42-56,81,depth_duration_stimuli/002103_2014-06-25_20-00-40_260595134347_rgbf000049-resize_0/002103_2014-06-25_20-00-40_260595134347_rgbf000049-resize_0-target.png,1000,4.105,6,5500,1000,feet,jsons/v1_VE1000_randls_68_rotated.json,756988,949156,35,Woman
81,654696,DepthScenes,duration_manipulation_targetAtFixation,jsons/v1_VE1000_randls_68_rotated.json,http://54.235.29.9/FacialAge/BNav_EC2/DepthDuration/v2_depth_duration_MTurk/v2_DepthDuration_HTML.html#101,101,1920,1080,1920,1080,8-29-2022,9-42-56,82,depth_duration_stimuli/002039_2014-06-24_20-22-38_260595134347_rgbf000084-resize_1/002039_2014-06-24_20-22-38_260595134347_rgbf000084-resize_1-target.png,1000,4.408,5,6962,998,feet,jsons/v1_VE1000_randls_68_rotated.json,756988,949156,35,Woman
82,654696,DepthScenes,duration_manipulation_targetAtFixation,jsons/v1_VE1000_randls_68_rotated.json,http://54.235.29.9/FacialAge/BNav_EC2/DepthDuration/v2_depth_duration_MTurk/v2_DepthDuration_HTML.html#101,101,1920,1080,1920,1080,8-29-2022,9-42-56,83,depth_duration_stimuli/002660_2014-06-13_15-44-18_094959634447_rgbf001878-resize_2/002660_2014-06-13_15-44-18_094959634447_rgbf001878-resize_2-target.png,1000,3.576,3,4585,1000,feet,jsons/v1_VE1000_randls_68_rotated.json,756988,949156,35,Woman
83,654696,DepthScenes,duration_manipulation_targetAtFixation,jsons/v1_VE1000_randls_68_rotated.json,http://54.235.29.9/FacialAge/BNav_EC2/DepthDuration/v2_depth_duration_MTurk/v2_DepthDuration_HTML.html#101,101,1920,1080,1920,1080,8-29-2022,9-42-56,84,depth_duration_stimuli/002153_2014-06-25_21-27-18_260595134347_rgbf000038-resize_5/002153_2014-06-25_21-27-18_260595134347_rgbf000038-resize_5-target.png,1000,2.505,2,2740,999,feet,jsons/v1_VE1000_randls_68_rotated.json,756988,949156,35,Woman
84,654696,DepthScenes,duration_manipulation_targetAtFixation,jsons/v1_VE1000_randls_68_rotated.json,http://54.235.29.9/FacialAge/BNav_EC2/DepthDuration/v2_depth_duration_MTurk/v2_DepthDuration_HTML.html#101,101,1920,1080,1920,1080,8-29-2022,9-42-56,85,depth_duration_stimuli/003338_2014-05-20_11-01-23_094959634447_rgbf000051-resize_6/003338_2014-05-20_11-01-23_094959634447_rgbf000051-resize_6-target.png,1000,1.693,2,2723,999,feet,jsons/v1_VE1000_randls_68_rotated.json,756988,949156,35,Woman
85,654696,DepthScenes,duration_manipulation_targetAtFixation,jsons/v1_VE1000_randls_68_rotated.json,http://54.235.29.9/FacialAge/BNav_EC2/DepthDuration/v2_depth_duration_MTurk/v2_DepthDuration_HTML.html#101,101,1920,1080,1920,1080,8-29-2022,9-42-56,86,depth_duration_stimuli/002509_2014-06-24_13-19-22_094959634447_rgbf000077-resize_0/002509_2014-06-24_13-19-22_094959634447_rgbf000077-resize_0-target.png,1000,1.3065,1,2669,1000,feet,jsons/v1_VE1000_randls_68_rotated.json,756988,949156,35,Woman
86,654696,DepthScenes,duration_manipulation_targetAtFixation,jsons/v1_VE1000_randls_68_rotated.json,http://54.235.29.9/FacialAge/BNav_EC2/DepthDuration/v2_depth_duration_MTurk/v2_DepthDuration_HTML.html#101,101,1920,1080,1920,1080,8-29-2022,9-42-56,87,depth_duration_stimuli/000635_2014-06-08_16-38-42_260595134347_rgbf000106-resize_1/000635_2014-06-08_16-38-42_260595134347_rgbf000106-resize_1-target.png,1000,2.074,3,3531,1000,feet,jsons/v1_VE1000_randls_68_rotated.json,756988,949156,35,Woman
87,654696,DepthScenes,duration_manipulation_targetAtFixation,jsons/v1_VE1000_randls_68_rotated.json,http://54.235.29.9/FacialAge/BNav_EC2/DepthDuration/v2_depth_duration_MTurk/v2_DepthDuration_HTML.html#101,101,1920,1080,1920,1080,8-29-2022,9-42-56,88,depth_duration_stimuli/002279_2014-06-28_18-55-32_260595134347_rgbf000040-resize_5/002279_2014-06-28_18-55-32_260595134347_rgbf000040-resize_5-target.png,1000,1.5043333333333,1,2726,1002,feet,jsons/v1_VE1000_randls_68_rotated.json,756988,949156,35,Woman
88,654696,DepthScenes,duration_manipulation_targetAtFixation,jsons/v1_VE1000_randls_68_rotated.json,http://54.235.29.9/FacialAge/BNav_EC2/DepthDuration/v2_depth_duration_MTurk/v2_DepthDuration_HTML.html#101,101,1920,1080,1920,1080,8-29-2022,9-42-56,89,depth_duration_stimuli/002953_2014-06-08_17-32-18_094959634447_rgbf000059-resize_5/002953_2014-06-08_17-32-18_094959634447_rgbf000059-resize_5-target.png,1000,1.551,1,3155,998,feet,jsons/v1_VE1000_randls_68_rotated.json,756988,949156,35,Woman
89,654696,DepthScenes,duration_manipulation_targetAtFixation,jsons/v1_VE1000_randls_68_rotated.json,http://54.235.29.9/FacialAge/BNav_EC2/DepthDuration/v2_depth_duration_MTurk/v2_DepthDuration_HTML.html#101,101,1920,1080,1920,1080,8-29-2022,9-42-56,90,depth_duration_stimuli/000878_2014-06-08_22-52-45_260595134347_rgbf000045-resize_2/000878_2014-06-08_22-52-45_260595134347_rgbf000045-resize_2-target.png,1000,2.092,2,3505,1000,feet,jsons/v1_VE1000_randls_68_rotated.json,756988,949156,35,Woman
90,654696,DepthScenes,duration_manipulation_targetAtFixation,jsons/v1_VE1000_randls_68_rotated.json,http://54.235.29.9/FacialAge/BNav_EC2/DepthDuration/v2_depth_duration_MTurk/v2_DepthDuration_HTML.html#101,101,1920,1080,1920,1080,8-29-2022,9-42-56,91,depth_duration_stimuli/002344_2014-06-28_20-06-29_260595134347_rgbf000030-resize_1/002344_2014-06-28_20-06-29_260595134347_rgbf000030-resize_1-target.png,1000,1.5795,1,2513,1000,feet,jsons/v1_VE1000_randls_68_rotated.json,756988,949156,35,Woman
91,654696,DepthScenes,duration_manipulation_targetAtFixation,jsons/v1_VE1000_randls_68_rotated.json,http://54.235.29.9/FacialAge/BNav_EC2/DepthDuration/v2_depth_duration_MTurk/v2_DepthDuration_HTML.html#101,101,1920,1080,1920,1080,8-29-2022,9-42-56,92,depth_duration_stimuli/002725_2014-06-22_11-47-51_094959634447_rgbf000070-resize_1/002725_2014-06-22_11-47-51_094959634447_rgbf000070-resize_1-target.png,1000,2.195,3,2673,1000,feet,jsons/v1_VE1000_randls_68_rotated.json,756988,949156,35,Woman
92,654696,DepthScenes,duration_manipulation_targetAtFixation,jsons/v1_VE1000_randls_68_rotated.json,http://54.235.29.9/FacialAge/BNav_EC2/DepthDuration/v2_depth_duration_MTurk/v2_DepthDuration_HTML.html#101,101,1920,1080,1920,1080,8-29-2022,9-42-56,93,depth_duration_stimuli/002444_2014-06-28_20-32-08_260595134347_rgbf000027-resize_0/002444_2014-06-28_20-32-08_260595134347_rgbf000027-resize_0-target.png,1000,4.388999999999999,8,5429,1000,feet,jsons/v1_VE1000_randls_68_rotated.json,756988,949156,35,Woman
93,654696,DepthScenes,duration_manipulation_targetAtFixation,jsons/v1_VE1000_randls_68_rotated.json,http://54.235.29.9/FacialAge/BNav_EC2/DepthDuration/v2_depth_duration_MTurk/v2_DepthDuration_HTML.html#101,101,1920,1080,1920,1080,8-29-2022,9-42-56,94,depth_duration_stimuli/000436_2014-06-09_22-25-11_260595134347_rgbf000137-resize_1/000436_2014-06-09_22-25-11_260595134347_rgbf000137-resize_1-target.png,1000,4.0705,6,5587,1001,feet,jsons/v1_VE1000_randls_68_rotated.json,756988,949156,35,Woman
94,654696,DepthScenes,duration_manipulation_targetAtFixation,jsons/v1_VE1000_randls_68_rotated.json,http://54.235.29.9/FacialAge/BNav_EC2/DepthDuration/v2_depth_duration_MTurk/v2_DepthDuration_HTML.html#101,101,1920,1080,1920,1080,8-29-2022,9-42-56,95,depth_duration_stimuli/001094_2014-06-15_17-36-00_260595134347_rgbf000205-resize_0/001094_2014-06-15_17-36-00_260595134347_rgbf000205-resize_0-target.png,1000,4.2175,5,7486,998,feet,jsons/v1_VE1000_randls_68_rotated.json,756988,949156,35,Woman
95,654696,DepthScenes,duration_manipulation_targetAtFixation,jsons/v1_VE1000_randls_68_rotated.json,http://54.235.29.9/FacialAge/BNav_EC2/DepthDuration/v2_depth_duration_MTurk/v2_DepthDuration_HTML.html#101,101,1920,1080,1920,1080,8-29-2022,9-42-56,96,depth_duration_stimuli/000692_2014-06-08_13-09-42_260595134347_rgbf000199-resize_2/000692_2014-06-08_13-09-42_260595134347_rgbf000199-resize_2-target.png,1000,3.661,7,4158,999,feet,jsons/v1_VE1000_randls_68_rotated.json,756988,949156,35,Woman
96,654696,DepthScenes,duration_manipulation_targetAtFixation,jsons/v1_VE1000_randls_68_rotated.json,http://54.235.29.9/FacialAge/BNav_EC2/DepthDuration/v2_depth_duration_MTurk/v2_DepthDuration_HTML.html#101,101,1920,1080,1920,1080,8-29-2022,9-42-56,97,depth_duration_stimuli/000665_2014-06-09_20-42-35_260595134347_rgbf000110-resize_1/000665_2014-06-09_20-42-35_260595134347_rgbf000110-resize_1-target.png,1000,3.057,3,3662,999,feet,jsons/v1_VE1000_randls_68_rotated.json,756988,949156,35,Woman
97,654696,DepthScenes,duration_manipulation_targetAtFixation,jsons/v1_VE1000_randls_68_rotated.json,http://54.235.29.9/FacialAge/BNav_EC2/DepthDuration/v2_depth_duration_MTurk/v2_DepthDuration_HTML.html#101,101,1920,1080,1920,1080,8-29-2022,9-42-56,98,depth_duration_stimuli/001150_2014-06-17_15-27-34_260595134347_rgbf000108-resize_2/001150_2014-06-17_15-27-34_260595134347_rgbf000108-resize_2-target.png,1000,4.0325,5,4303,999,feet,jsons/v1_VE1000_randls_68_rotated.json,756988,949156,35,Woman
98,654696,DepthScenes,duration_manipulation_targetAtFixation,jsons/v1_VE1000_randls_68_rotated.json,http://54.235.29.9/FacialAge/BNav_EC2/DepthDuration/v2_depth_duration_MTurk/v2_DepthDuration_HTML.html#101,101,1920,1080,1920,1080,8-29-2022,9-42-56,99,depth_duration_stimuli/001222_2014-06-17_16-24-06_260595134347_rgbf000073-resize_0/001222_2014-06-17_16-24-06_260595134347_rgbf000073-resize-original.jpg,1000,1.4385,0,3624,1001,feet,jsons/v1_VE1000_randls_68_rotated.json,756988,949156,35,Woman
99,654696,DepthScenes,duration_manipulation_targetAtFixation,jsons/v1_VE1000_randls_68_rotated.json,http://54.235.29.9/FacialAge/BNav_EC2/DepthDuration/v2_depth_duration_MTurk/v2_DepthDuration_HTML.html#101,101,1920,1080,1920,1080,8-29-2022,9-42-56,100,depth_duration_stimuli/002414_2014-06-28_20-24-58_260595134347_rgbf000067-resize_4/002414_2014-06-28_20-24-58_260595134347_rgbf000067-resize_4-target.png,1000,4.363,6,10020,999,feet,jsons/v1_VE1000_randls_68_rotated.json,756988,949156,35,Woman
100,654696,DepthScenes,duration_manipulation_targetAtFixation,jsons/v1_VE1000_randls_68_rotated.json,http://54.235.29.9/FacialAge/BNav_EC2/DepthDuration/v2_depth_duration_MTurk/v2_DepthDuration_HTML.html#101,101,1920,1080,1920,1080,8-29-2022,9-42-56,101,depth_duration_stimuli/000773_2014-06-08_22-24-54_260595134347_rgbf000093-resize_1/000773_2014-06-08_22-24-54_260595134347_rgbf000093-resize_1-target.png,1000,4.973,4,5435,1000,feet,jsons/v1_VE1000_randls_68_rotated.json,756988,949156,35,Woman
101,654696,DepthScenes,duration_manipulation_targetAtFixation,jsons/v1_VE1000_randls_68_rotated.json,http://54.235.29.9/FacialAge/BNav_EC2/DepthDuration/v2_depth_duration_MTurk/v2_DepthDuration_HTML.html#101,101,1920,1080,1920,1080,8-29-2022,9-42-56,102,depth_duration_stimuli/003048_2014-06-15_13-49-43_094959634447_rgbf000150-resize_1/003048_2014-06-15_13-49-43_094959634447_rgbf000150-resize_1-target.png,1000,4.0035,4,4753,1000,feet,jsons/v1_VE1000_randls_68_rotated.json,756988,949156,35,Woman
102,654696,DepthScenes,duration_manipulation_targetAtFixation,jsons/v1_VE1000_randls_68_rotated.json,http://54.235.29.9/FacialAge/BNav_EC2/DepthDuration/v2_depth_duration_MTurk/v2_DepthDuration_HTML.html#101,101,1920,1080,1920,1080,8-29-2022,9-42-56,103,depth_duration_stimuli/002043_2014-06-24_20-29-38_260595134347_rgbf000039-resize_4/002043_2014-06-24_20-29-38_260595134347_rgbf000039-resize_4-target.png,1000,2.8435,4,9783,1000,feet,jsons/v1_VE1000_randls_68_rotated.json,756988,949156,35,Woman
103,654696,DepthScenes,duration_manipulation_targetAtFixation,jsons/v1_VE1000_randls_68_rotated.json,http://54.235.29.9/FacialAge/BNav_EC2/DepthDuration/v2_depth_duration_MTurk/v2_DepthDuration_HTML.html#101,101,1920,1080,1920,1080,8-29-2022,9-42-56,104,depth_duration_stimuli/003495_2014-05-21_16-01-51_094959634447_rgbf000100-resize_3/003495_2014-05-21_16-01-51_094959634447_rgbf000100-resize_3-target.png,1000,1.6255,1,2859,1000,feet,jsons/v1_VE1000_randls_68_rotated.json,756988,949156,35,Woman
104,654696,DepthScenes,duration_manipulation_targetAtFixation,jsons/v1_VE1000_randls_68_rotated.json,http://54.235.29.9/FacialAge/BNav_EC2/DepthDuration/v2_depth_duration_MTurk/v2_DepthDuration_HTML.html#101,101,1920,1080,1920,1080,8-29-2022,9-42-56,105,depth_duration_stimuli/001244_2014-06-17_16-47-45_260595134347_rgbf000030-resize_4/001244_2014-06-17_16-47-45_260595134347_rgbf000030-resize_4-target.png,1000,2.0425,2,3795,999,feet,jsons/v1_VE1000_randls_68_rotated.json,756988,949156,35,Woman
105,654696,DepthScenes,duration_manipulation_targetAtFixation,jsons/v1_VE1000_randls_68_rotated.json,http://54.235.29.9/FacialAge/BNav_EC2/DepthDuration/v2_depth_duration_MTurk/v2_DepthDuration_HTML.html#101,101,1920,1080,1920,1080,8-29-2022,9-42-56,106,depth_duration_stimuli/000866_2014-06-09_20-45-42_260595134347_rgbf000139-resize_1/000866_2014-06-09_20-45-42_260595134347_rgbf000139-resize_1-target.png,1000,3.2155,2,3181,1000,feet,jsons/v1_VE1000_randls_68_rotated.json,756988,949156,35,Woman
106,654696,DepthScenes,duration_manipulation_targetAtFixation,jsons/v1_VE1000_randls_68_rotated.json,http://54.235.29.9/FacialAge/BNav_EC2/DepthDuration/v2_depth_duration_MTurk/v2_DepthDuration_HTML.html#101,101,1920,1080,1920,1080,8-29-2022,9-42-56,107,depth_duration_stimuli/002989_2014-06-15_12-25-03_094959634447_rgbf000150-resize_3/002989_2014-06-15_12-25-03_094959634447_rgbf000150-resize_3-target.png,1000,4.1975,6,3641,1000,feet,jsons/v1_VE1000_randls_68_rotated.json,756988,949156,35,Woman
107,654696,DepthScenes,duration_manipulation_targetAtFixation,jsons/v1_VE1000_randls_68_rotated.json,http://54.235.29.9/FacialAge/BNav_EC2/DepthDuration/v2_depth_duration_MTurk/v2_DepthDuration_HTML.html#101,101,1920,1080,1920,1080,8-29-2022,9-42-56,108,depth_duration_stimuli/002545_2014-06-24_13-38-53_094959634447_rgbf000080-resize_4/002545_2014-06-24_13-38-53_094959634447_rgbf000080-resize_4-target.png,1000,1.9205,3,3091,999,feet,jsons/v1_VE1000_randls_68_rotated.json,756988,949156,35,Woman
108,654696,DepthScenes,duration_manipulation_targetAtFixation,jsons/v1_VE1000_randls_68_rotated.json,http://54.235.29.9/FacialAge/BNav_EC2/DepthDuration/v2_depth_duration_MTurk/v2_DepthDuration_HTML.html#101,101,1920,1080,1920,1080,8-29-2022,9-42-56,109,depth_duration_stimuli/001092_2014-06-15_17-34-58_260595134347_rgbf000171-resize_3/001092_2014-06-15_17-34-58_260595134347_rgbf000171-resize_3-target.png,1000,2.6935,3,3755,1000,feet,jsons/v1_VE1000_randls_68_rotated.json,756988,949156,35,Woman
109,654696,DepthScenes,duration_manipulation_targetAtFixation,jsons/v1_VE1000_randls_68_rotated.json,http://54.235.29.9/FacialAge/BNav_EC2/DepthDuration/v2_depth_duration_MTurk/v2_DepthDuration_HTML.html#101,101,1920,1080,1920,1080,8-29-2022,9-42-56,110,depth_duration_stimuli/001214_2014-06-17_16-13-55_260595134347_rgbf000111-resize_0/001214_2014-06-17_16-13-55_260595134347_rgbf000111-resize_0-target.png,1000,2.6505,2,4735,999,feet,jsons/v1_VE1000_randls_68_rotated.json,756988,949156,35,Woman
110,654696,DepthScenes,duration_manipulation_targetAtFixation,jsons/v1_VE1000_randls_68_rotated.json,http://54.235.29.9/FacialAge/BNav_EC2/DepthDuration/v2_depth_duration_MTurk/v2_DepthDuration_HTML.html#101,101,1920,1080,1920,1080,8-29-2022,9-42-56,111,depth_duration_stimuli/000810_2014-06-08_17-20-01_260595134347_rgbf000105-resize_0/000810_2014-06-08_17-20-01_260595134347_rgbf000105-resize_0-target.png,1000,1.4865,3,3359,1001,feet,jsons/v1_VE1000_randls_68_rotated.json,756988,949156,35,Woman
111,654696,DepthScenes,duration_manipulation_targetAtFixation,jsons/v1_VE1000_randls_68_rotated.json,http://54.235.29.9/FacialAge/BNav_EC2/DepthDuration/v2_depth_duration_MTurk/v2_DepthDuration_HTML.html#101,101,1920,1080,1920,1080,8-29-2022,9-42-56,112,depth_duration_stimuli/000549_2014-06-08_22-10-24_260595134347_rgbf000247-resize_3/000549_2014-06-08_22-10-24_260595134347_rgbf000247-resize_3-target.png,1000,1.841,1,2879,1000,feet,jsons/v1_VE1000_randls_68_rotated.json,756988,949156,35,Woman
112,654696,DepthScenes,duration_manipulation_targetAtFixation,jsons/v1_VE1000_randls_68_rotated.json,http://54.235.29.9/FacialAge/BNav_EC2/DepthDuration/v2_depth_duration_MTurk/v2_DepthDuration_HTML.html#101,101,1920,1080,1920,1080,8-29-2022,9-42-56,113,depth_duration_stimuli/001055_2014-06-08_18-45-35_260595134347_rgbf000111-resize_4/001055_2014-06-08_18-45-35_260595134347_rgbf000111-resize_4-target.png,1000,2.4290000000000003,3,5328,1000,feet,jsons/v1_VE1000_randls_68_rotated.json,756988,949156,35,Woman
113,654696,DepthScenes,duration_manipulation_targetAtFixation,jsons/v1_VE1000_randls_68_rotated.json,http://54.235.29.9/FacialAge/BNav_EC2/DepthDuration/v2_depth_duration_MTurk/v2_DepthDuration_HTML.html#101,101,1920,1080,1920,1080,8-29-2022,9-42-56,114,depth_duration_stimuli/000483_2014-06-09_20-41-45_260595134347_rgbf000116-resize_4/000483_2014-06-09_20-41-45_260595134347_rgbf000116-resize_4-target.png,1000,1.337,2,3407,1000,feet,jsons/v1_VE1000_randls_68_rotated.json,756988,949156,35,Woman
114,654696,DepthScenes,duration_manipulation_targetAtFixation,jsons/v1_VE1000_randls_68_rotated.json,http://54.235.29.9/FacialAge/BNav_EC2/DepthDuration/v2_depth_duration_MTurk/v2_DepthDuration_HTML.html#101,101,1920,1080,1920,1080,8-29-2022,9-42-56,115,depth_duration_stimuli/000469_2014-06-09_19-42-10_260595134347_rgbf000081-resize_1/000469_2014-06-09_19-42-10_260595134347_rgbf000081-resize_1-target.png,1000,1.652,2,2861,1001,feet,jsons/v1_VE1000_randls_68_rotated.json,756988,949156,35,Woman
115,654696,DepthScenes,duration_manipulation_targetAtFixation,jsons/v1_VE1000_randls_68_rotated.json,http://54.235.29.9/FacialAge/BNav_EC2/DepthDuration/v2_depth_duration_MTurk/v2_DepthDuration_HTML.html#101,101,1920,1080,1920,1080,8-29-2022,9-42-56,116,depth_duration_stimuli/000749_2014-06-08_21-55-06_260595134347_rgbf000070-resize_2/000749_2014-06-08_21-55-06_260595134347_rgbf000070-resize_2-target.png,1000,2.331,3,3363,1000,feet,jsons/v1_VE1000_randls_68_rotated.json,756988,949156,35,Woman
116,654696,DepthScenes,duration_manipulation_targetAtFixation,jsons/v1_VE1000_randls_68_rotated.json,http://54.235.29.9/FacialAge/BNav_EC2/DepthDuration/v2_depth_duration_MTurk/v2_DepthDuration_HTML.html#101,101,1920,1080,1920,1080,8-29-2022,9-42-56,117,depth_duration_stimuli/002788_2014-06-22_19-36-03_094959634447_rgbf000088-resize_2/002788_2014-06-22_19-36-03_094959634447_rgbf000088-resize_2-target.png,1000,1.6465,4,4245,999,feet,jsons/v1_VE1000_randls_68_rotated.json,756988,949156,35,Woman
117,654696,DepthScenes,duration_manipulation_targetAtFixation,jsons/v1_VE1000_randls_68_rotated.json,http://54.235.29.9/FacialAge/BNav_EC2/DepthDuration/v2_depth_duration_MTurk/v2_DepthDuration_HTML.html#101,101,1920,1080,1920,1080,8-29-2022,9-42-56,118,depth_duration_stimuli/001032_2014-06-08_13-23-17_260595134347_rgbf000021-resize_3/001032_2014-06-08_13-23-17_260595134347_rgbf000021-resize_3-target.png,1000,3.2725,3,4370,999,feet,jsons/v1_VE1000_randls_68_rotated.json,756988,949156,35,Woman
118,654696,DepthScenes,duration_manipulation_targetAtFixation,jsons/v1_VE1000_randls_68_rotated.json,http://54.235.29.9/FacialAge/BNav_EC2/DepthDuration/v2_depth_duration_MTurk/v2_DepthDuration_HTML.html#101,101,1920,1080,1920,1080,8-29-2022,9-42-56,119,depth_duration_stimuli/001059_2014-06-08_21-53-27_260595134347_rgbf000061-resize_4/001059_2014-06-08_21-53-27_260595134347_rgbf000061-resize_4-target.png,1000,2.4185,3,5064,998,feet,jsons/v1_VE1000_randls_68_rotated.json,756988,949156,35,Woman
119,654696,DepthScenes,duration_manipulation_targetAtFixation,jsons/v1_VE1000_randls_68_rotated.json,http://54.235.29.9/FacialAge/BNav_EC2/DepthDuration/v2_depth_duration_MTurk/v2_DepthDuration_HTML.html#101,101,1920,1080,1920,1080,8-29-2022,9-42-56,120,depth_duration_stimuli/000787_2014-06-08_22-33-53_260595134347_rgbf000175-resize_1/000787_2014-06-08_22-33-53_260595134347_rgbf000175-resize-original.jpg,1000,4.784,0,4125,999,feet,jsons/v1_VE1000_randls_68_rotated.json,756988,949156,35,Woman
120,654696,DepthScenes,duration_manipulation_targetAtFixation,jsons/v1_VE1000_randls_68_rotated.json,http://54.235.29.9/FacialAge/BNav_EC2/DepthDuration/v2_depth_duration_MTurk/v2_DepthDuration_HTML.html#101,101,1920,1080,1920,1080,8-29-2022,9-42-56,121,depth_duration_stimuli/002209_2014-06-28_18-36-10_260595134347_rgbf000051-resize_1/002209_2014-06-28_18-36-10_260595134347_rgbf000051-resize_1-target.png,1000,2.057,2,3278,1000,feet,jsons/v1_VE1000_randls_68_rotated.json,756988,949156,35,Woman
121,654696,DepthScenes,duration_manipulation_targetAtFixation,jsons/v1_VE1000_randls_68_rotated.json,http://54.235.29.9/FacialAge/BNav_EC2/DepthDuration/v2_depth_duration_MTurk/v2_DepthDuration_HTML.html#101,101,1920,1080,1920,1080,8-29-2022,9-42-56,122,depth_duration_stimuli/002763_2014-06-22_19-13-10_094959634447_rgbf000075-resize_4/002763_2014-06-22_19-13-10_094959634447_rgbf000075-resize_4-target.png,1000,1.68375,2,4209,1000,feet,jsons/v1_VE1000_randls_68_rotated.json,756988,949156,35,Woman
122,654696,DepthScenes,duration_manipulation_targetAtFixation,jsons/v1_VE1000_randls_68_rotated.json,http://54.235.29.9/FacialAge/BNav_EC2/DepthDuration/v2_depth_duration_MTurk/v2_DepthDuration_HTML.html#101,101,1920,1080,1920,1080,8-29-2022,9-42-56,123,depth_duration_stimuli/001235_2014-06-17_16-37-36_260595134347_rgbf000084-resize_4/001235_2014-06-17_16-37-36_260595134347_rgbf000084-resize_4-target.png,1000,3.6605,5,5835,1001,feet,jsons/v1_VE1000_randls_68_rotated.json,756988,949156,35,Woman
123,654696,DepthScenes,duration_manipulation_targetAtFixation,jsons/v1_VE1000_randls_68_rotated.json,http://54.235.29.9/FacialAge/BNav_EC2/DepthDuration/v2_depth_duration_MTurk/v2_DepthDuration_HTML.html#101,101,1920,1080,1920,1080,8-29-2022,9-42-56,124,depth_duration_stimuli/000788_2014-06-08_22-34-36_260595134347_rgbf000131-resize_1/000788_2014-06-08_22-34-36_260595134347_rgbf000131-resize_1-target.png,1000,3.359,3,5129,999,feet,jsons/v1_VE1000_randls_68_rotated.json,756988,949156,35,Woman
124,654696,DepthScenes,duration_manipulation_targetAtFixation,jsons/v1_VE1000_randls_68_rotated.json,http://54.235.29.9/FacialAge/BNav_EC2/DepthDuration/v2_depth_duration_MTurk/v2_DepthDuration_HTML.html#101,101,1920,1080,1920,1080,8-29-2022,9-42-56,125,depth_duration_stimuli/002425_2014-06-28_20-27-29_260595134347_rgbf000031-resize_8/002425_2014-06-28_20-27-29_260595134347_rgbf000031-resize_8-target.png,1000,3.8960000000000004,7,7415,1000,feet,jsons/v1_VE1000_randls_68_rotated.json,756988,949156,35,Woman
125,654696,DepthScenes,duration_manipulation_targetAtFixation,jsons/v1_VE1000_randls_68_rotated.json,http://54.235.29.9/FacialAge/BNav_EC2/DepthDuration/v2_depth_duration_MTurk/v2_DepthDuration_HTML.html#101,101,1920,1080,1920,1080,8-29-2022,9-42-56,126,depth_duration_stimuli/000642_2014-06-08_16-59-25_260595134347_rgbf000098-resize_2/000642_2014-06-08_16-59-25_260595134347_rgbf000098-resize_2-target.png,1000,2.8815,4,3782,1000,feet,jsons/v1_VE1000_randls_68_rotated.json,756988,949156,35,Woman
126,654696,DepthScenes,duration_manipulation_targetAtFixation,jsons/v1_VE1000_randls_68_rotated.json,http://54.235.29.9/FacialAge/BNav_EC2/DepthDuration/v2_depth_duration_MTurk/v2_DepthDuration_HTML.html#101,101,1920,1080,1920,1080,8-29-2022,9-42-56,127,depth_duration_stimuli/001828_2014-06-26_21-40-03_260595134347_rgbf000024-resize_0/001828_2014-06-26_21-40-03_260595134347_rgbf000024-resize_0-target.png,1000,4.8260000000000005,6,7335,1000,feet,jsons/v1_VE1000_randls_68_rotated.json,756988,949156,35,Woman
127,654696,DepthScenes,duration_manipulation_targetAtFixation,jsons/v1_VE1000_randls_68_rotated.json,http://54.235.29.9/FacialAge/BNav_EC2/DepthDuration/v2_depth_duration_MTurk/v2_DepthDuration_HTML.html#101,101,1920,1080,1920,1080,8-29-2022,9-42-56,128,depth_duration_stimuli/000009_2014-05-26_14-32-05_260595134347_rgbf000034-resize_3/000009_2014-05-26_14-32-05_260595134347_rgbf000034-resize_3-target.png,1000,3.8715,7,7655,999,feet,jsons/v1_VE1000_randls_68_rotated.json,756988,949156,35,Woman
128,654696,DepthScenes,duration_manipulation_targetAtFixation,jsons/v1_VE1000_randls_68_rotated.json,http://54.235.29.9/FacialAge/BNav_EC2/DepthDuration/v2_depth_duration_MTurk/v2_DepthDuration_HTML.html#101,101,1920,1080,1920,1080,8-29-2022,9-42-56,129,depth_duration_stimuli/000780_2014-06-08_22-28-29_260595134347_rgbf000126-resize_1/000780_2014-06-08_22-28-29_260595134347_rgbf000126-resize_1-target.png,1000,3.3825,6,8569,1000,feet,jsons/v1_VE1000_randls_68_rotated.json,756988,949156,35,Woman
129,654696,DepthScenes,duration_manipulation_targetAtFixation,jsons/v1_VE1000_randls_68_rotated.json,http://54.235.29.9/FacialAge/BNav_EC2/DepthDuration/v2_depth_duration_MTurk/v2_DepthDuration_HTML.html#101,101,1920,1080,1920,1080,8-29-2022,9-42-56,130,depth_duration_stimuli/002445_2014-06-28_20-32-16_260595134347_rgbf000029-resize_4/002445_2014-06-28_20-32-16_260595134347_rgbf000029-resize_4-target.png,1000,2.5315,2,3105,1001,feet,jsons/v1_VE1000_randls_68_rotated.json,756988,949156,35,Woman
130,654696,DepthScenes,duration_manipulation_targetAtFixation,jsons/v1_VE1000_randls_68_rotated.json,http://54.235.29.9/FacialAge/BNav_EC2/DepthDuration/v2_depth_duration_MTurk/v2_DepthDuration_HTML.html#101,101,1920,1080,1920,1080,8-29-2022,9-42-56,131,depth_duration_stimuli/003423_2014-05-21_10-23-26_094959634447_rgbf002665-resize_2/003423_2014-05-21_10-23-26_094959634447_rgbf002665-resize_2-target.png,1000,3.2575,4,4999,1000,feet,jsons/v1_VE1000_randls_68_rotated.json,756988,949156,35,Woman
131,654696,DepthScenes,duration_manipulation_targetAtFixation,jsons/v1_VE1000_randls_68_rotated.json,http://54.235.29.9/FacialAge/BNav_EC2/DepthDuration/v2_depth_duration_MTurk/v2_DepthDuration_HTML.html#101,101,1920,1080,1920,1080,8-29-2022,9-42-56,132,depth_duration_stimuli/002905_2014-06-03_18-04-43_094959634447_rgbf000151-resize_2/002905_2014-06-03_18-04-43_094959634447_rgbf000151-resize_2-target.png,1000,2.0295,2,4075,1000,feet,jsons/v1_VE1000_randls_68_rotated.json,756988,949156,35,Woman
132,654696,DepthScenes,duration_manipulation_targetAtFixation,jsons/v1_VE1000_randls_68_rotated.json,http://54.235.29.9/FacialAge/BNav_EC2/DepthDuration/v2_depth_duration_MTurk/v2_DepthDuration_HTML.html#101,101,1920,1080,1920,1080,8-29-2022,9-42-56,133,depth_duration_stimuli/001450_2014-06-19_17-02-03_260595134347_rgbf000203-resize_4/001450_2014-06-19_17-02-03_260595134347_rgbf000203-resize_4-target.png,1000,4.0106666666667,5,6227,1000,feet,jsons/v1_VE1000_randls_68_rotated.json,756988,949156,35,Woman
133,654696,DepthScenes,duration_manipulation_targetAtFixation,jsons/v1_VE1000_randls_68_rotated.json,http://54.235.29.9/FacialAge/BNav_EC2/DepthDuration/v2_depth_duration_MTurk/v2_DepthDuration_HTML.html#101,101,1920,1080,1920,1080,8-29-2022,9-42-56,134,depth_duration_stimuli/001449_2014-06-19_17-01-27_260595134347_rgbf000116-resize_2/001449_2014-06-19_17-01-27_260595134347_rgbf000116-resize_2-target.png,1000,3.452,3,3255,1000,feet,jsons/v1_VE1000_randls_68_rotated.json,756988,949156,35,Woman
134,654696,DepthScenes,duration_manipulation_targetAtFixation,jsons/v1_VE1000_randls_68_rotated.json,http://54.235.29.9/FacialAge/BNav_EC2/DepthDuration/v2_depth_duration_MTurk/v2_DepthDuration_HTML.html#101,101,1920,1080,1920,1080,8-29-2022,9-42-56,135,depth_duration_stimuli/000375_2014-06-08_11-17-29_260595134347_rgbf000133-resize_2/000375_2014-06-08_11-17-29_260595134347_rgbf000133-resize-original.jpg,1000,4.718,0,3935,1001,feet,jsons/v1_VE1000_randls_68_rotated.json,756988,949156,35,Woman
135,654696,DepthScenes,duration_manipulation_targetAtFixation,jsons/v1_VE1000_randls_68_rotated.json,http://54.235.29.9/FacialAge/BNav_EC2/DepthDuration/v2_depth_duration_MTurk/v2_DepthDuration_HTML.html#101,101,1920,1080,1920,1080,8-29-2022,9-42-56,136,depth_duration_stimuli/001392_2014-06-19_16-07-59_260595134347_rgbf000046-resize_1/001392_2014-06-19_16-07-59_260595134347_rgbf000046-resize_1-target.png,1000,4.135,4,5142,1002,feet,jsons/v1_VE1000_randls_68_rotated.json,756988,949156,35,Woman
136,654696,DepthScenes,duration_manipulation_targetAtFixation,jsons/v1_VE1000_randls_68_rotated.json,http://54.235.29.9/FacialAge/BNav_EC2/DepthDuration/v2_depth_duration_MTurk/v2_DepthDuration_HTML.html#101,101,1920,1080,1920,1080,8-29-2022,9-42-56,137,depth_duration_stimuli/001570_2014-06-20_17-21-09_260595134347_rgbf000135-resize_4/001570_2014-06-20_17-21-09_260595134347_rgbf000135-resize_4-target.png,1000,4.467,5,6024,999,feet,jsons/v1_VE1000_randls_68_rotated.json,756988,949156,35,Woman
137,654696,DepthScenes,duration_manipulation_targetAtFixation,jsons/v1_VE1000_randls_68_rotated.json,http://54.235.29.9/FacialAge/BNav_EC2/DepthDuration/v2_depth_duration_MTurk/v2_DepthDuration_HTML.html#101,101,1920,1080,1920,1080,8-29-2022,9-42-56,138,depth_duration_stimuli/002750_2014-06-22_19-08-03_094959634447_rgbf000094-resize_4/002750_2014-06-22_19-08-03_094959634447_rgbf000094-resize_4-target.png,1000,2.354,3,3291,1000,feet,jsons/v1_VE1000_randls_68_rotated.json,756988,949156,35,Woman
138,654696,DepthScenes,duration_manipulation_targetAtFixation,jsons/v1_VE1000_randls_68_rotated.json,http://54.235.29.9/FacialAge/BNav_EC2/DepthDuration/v2_depth_duration_MTurk/v2_DepthDuration_HTML.html#101,101,1920,1080,1920,1080,8-29-2022,9-42-56,139,depth_duration_stimuli/002549_2014-06-24_13-41-39_094959634447_rgbf000022-resize_3/002549_2014-06-24_13-41-39_094959634447_rgbf000022-resize_3-target.png,1000,1.476,2,2965,1000,feet,jsons/v1_VE1000_randls_68_rotated.json,756988,949156,35,Woman
139,654696,DepthScenes,duration_manipulation_targetAtFixation,jsons/v1_VE1000_randls_68_rotated.json,http://54.235.29.9/FacialAge/BNav_EC2/DepthDuration/v2_depth_duration_MTurk/v2_DepthDuration_HTML.html#101,101,1920,1080,1920,1080,8-29-2022,9-42-56,140,depth_duration_stimuli/002805_2014-06-22_19-54-03_094959634447_rgbf000079-resize_1/002805_2014-06-22_19-54-03_094959634447_rgbf000079-resize_1-target.png,1000,3.1439999999999997,4,4927,1000,feet,jsons/v1_VE1000_randls_68_rotated.json,756988,949156,35,Woman
140,654696,DepthScenes,duration_manipulation_targetAtFixation,jsons/v1_VE1000_randls_68_rotated.json,http://54.235.29.9/FacialAge/BNav_EC2/DepthDuration/v2_depth_duration_MTurk/v2_DepthDuration_HTML.html#101,101,1920,1080,1920,1080,8-29-2022,9-42-56,141,depth_duration_stimuli/000906_2014-06-08_13-35-43_260595134347_rgbf000155-resize_1/000906_2014-06-08_13-35-43_260595134347_rgbf000155-resize_1-target.png,1000,2.8489999999999998,5,5195,1000,feet,jsons/v1_VE1000_randls_68_rotated.json,756988,949156,35,Woman
141,654696,DepthScenes,duration_manipulation_targetAtFixation,jsons/v1_VE1000_randls_68_rotated.json,http://54.235.29.9/FacialAge/BNav_EC2/DepthDuration/v2_depth_duration_MTurk/v2_DepthDuration_HTML.html#101,101,1920,1080,1920,1080,8-29-2022,9-42-56,142,depth_duration_stimuli/001815_2014-06-26_20-52-55_260595134347_rgbf000020-resize_0/001815_2014-06-26_20-52-55_260595134347_rgbf000020-resize_0-target.png,1000,3.3865,4,6527,1000,feet,jsons/v1_VE1000_randls_68_rotated.json,756988,949156,35,Woman
142,654696,DepthScenes,duration_manipulation_targetAtFixation,jsons/v1_VE1000_randls_68_rotated.json,http://54.235.29.9/FacialAge/BNav_EC2/DepthDuration/v2_depth_duration_MTurk/v2_DepthDuration_HTML.html#101,101,1920,1080,1920,1080,8-29-2022,9-42-56,143,depth_duration_stimuli/001808_2014-06-26_20-50-58_260595134347_rgbf000029-resize_1/001808_2014-06-26_20-50-58_260595134347_rgbf000029-resize_1-target.png,1000,4.249,6,7021,1001,feet,jsons/v1_VE1000_randls_68_rotated.json,756988,949156,35,Woman
143,654696,DepthScenes,duration_manipulation_targetAtFixation,jsons/v1_VE1000_randls_68_rotated.json,http://54.235.29.9/FacialAge/BNav_EC2/DepthDuration/v2_depth_duration_MTurk/v2_DepthDuration_HTML.html#101,101,1920,1080,1920,1080,8-29-2022,9-42-56,144,depth_duration_stimuli/000191_2014-05-12_17-07-38_260595134347_rgbf000199-resize_0/000191_2014-05-12_17-07-38_260595134347_rgbf000199-resize_0-target.png,1000,3.7995,4,6543,1000,feet,jsons/v1_VE1000_randls_68_rotated.json,756988,949156,35,Woman
144,654696,DepthScenes,duration_manipulation_targetAtFixation,jsons/v1_VE1000_randls_68_rotated.json,http://54.235.29.9/FacialAge/BNav_EC2/DepthDuration/v2_depth_duration_MTurk/v2_DepthDuration_HTML.html#101,101,1920,1080,1920,1080,8-29-2022,9-42-56,145,depth_duration_stimuli/000493_2014-06-09_21-01-18_260595134347_rgbf000196-resize_3/000493_2014-06-09_21-01-18_260595134347_rgbf000196-resize_3-target.png,1000,3.44,4,6008,1001,feet,jsons/v1_VE1000_randls_68_rotated.json,756988,949156,35,Woman
145,654696,DepthScenes,duration_manipulation_targetAtFixation,jsons/v1_VE1000_randls_68_rotated.json,http://54.235.29.9/FacialAge/BNav_EC2/DepthDuration/v2_depth_duration_MTurk/v2_DepthDuration_HTML.html#101,101,1920,1080,1920,1080,8-29-2022,9-42-56,146,depth_duration_stimuli/000502_2014-06-08_23-02-32_260595134347_rgbf000063-resize_4/000502_2014-06-08_23-02-32_260595134347_rgbf000063-resize_4-target.png,1000,2.431,3,3375,1000,feet,jsons/v1_VE1000_randls_68_rotated.json,756988,949156,35,Woman
146,654696,DepthScenes,duration_manipulation_targetAtFixation,jsons/v1_VE1000_randls_68_rotated.json,http://54.235.29.9/FacialAge/BNav_EC2/DepthDuration/v2_depth_duration_MTurk/v2_DepthDuration_HTML.html#101,101,1920,1080,1920,1080,8-29-2022,9-42-56,147,depth_duration_stimuli/001199_2014-06-17_16-03-48_260595134347_rgbf000077-resize_0/001199_2014-06-17_16-03-48_260595134347_rgbf000077-resize_0-target.png,1000,3.4375,6,3799,1000,feet,jsons/v1_VE1000_randls_68_rotated.json,756988,949156,35,Woman
147,654696,DepthScenes,duration_manipulation_targetAtFixation,jsons/v1_VE1000_randls_68_rotated.json,http://54.235.29.9/FacialAge/BNav_EC2/DepthDuration/v2_depth_duration_MTurk/v2_DepthDuration_HTML.html#101,101,1920,1080,1920,1080,8-29-2022,9-42-56,148,depth_duration_stimuli/000709_2014-06-08_13-51-55_260595134347_rgbf000068-resize_3/000709_2014-06-08_13-51-55_260595134347_rgbf000068-resize_3-target.png,1000,1.8030000000000002,3,2926,1000,feet,jsons/v1_VE1000_randls_68_rotated.json,756988,949156,35,Woman
148,654696,DepthScenes,duration_manipulation_targetAtFixation,jsons/v1_VE1000_randls_68_rotated.json,http://54.235.29.9/FacialAge/BNav_EC2/DepthDuration/v2_depth_duration_MTurk/v2_DepthDuration_HTML.html#101,101,1920,1080,1920,1080,8-29-2022,9-42-56,149,depth_duration_stimuli/002057_2014-06-24_21-00-13_260595134347_rgbf000120-resize_1/002057_2014-06-24_21-00-13_260595134347_rgbf000120-resize_1-target.png,1000,2.967,5,6048,999,feet,jsons/v1_VE1000_randls_68_rotated.json,756988,949156,35,Woman
149,654696,DepthScenes,duration_manipulation_targetAtFixation,jsons/v1_VE1000_randls_68_rotated.json,http://54.235.29.9/FacialAge/BNav_EC2/DepthDuration/v2_depth_duration_MTurk/v2_DepthDuration_HTML.html#101,101,1920,1080,1920,1080,8-29-2022,9-42-56,150,depth_duration_stimuli/001136_2014-06-17_15-19-41_260595134347_rgbf000076-resize_3/001136_2014-06-17_15-19-41_260595134347_rgbf000076-resize_3-target.png,1000,1.8655,3,3162,1000,feet,jsons/v1_VE1000_randls_68_rotated.json,756988,949156,35,Woman
150,654696,DepthScenes,duration_manipulation_targetAtFixation,jsons/v1_VE1000_randls_68_rotated.json,http://54.235.29.9/FacialAge/BNav_EC2/DepthDuration/v2_depth_duration_MTurk/v2_DepthDuration_HTML.html#101,101,1920,1080,1920,1080,8-29-2022,9-42-56,151,depth_duration_stimuli/001164_2014-06-17_15-35-46_260595134347_rgbf000085-resize_3/001164_2014-06-17_15-35-46_260595134347_rgbf000085-resize_3-target.png,1000,2.354,2,3673,1001,feet,jsons/v1_VE1000_randls_68_rotated.json,756988,949156,35,Woman
151,654696,DepthScenes,duration_manipulation_targetAtFixation,jsons/v1_VE1000_randls_68_rotated.json,http://54.235.29.9/FacialAge/BNav_EC2/DepthDuration/v2_depth_duration_MTurk/v2_DepthDuration_HTML.html#101,101,1920,1080,1920,1080,8-29-2022,9-42-56,152,depth_duration_stimuli/000569_2014-06-09_22-51-47_260595134347_rgbf000141-resize_3/000569_2014-06-09_22-51-47_260595134347_rgbf000141-resize-original.jpg,1000,4.512,0,3607,999,feet,jsons/v1_VE1000_randls_68_rotated.json,756988,949156,35,Woman
152,654696,DepthScenes,duration_manipulation_targetAtFixation,jsons/v1_VE1000_randls_68_rotated.json,http://54.235.29.9/FacialAge/BNav_EC2/DepthDuration/v2_depth_duration_MTurk/v2_DepthDuration_HTML.html#101,101,1920,1080,1920,1080,8-29-2022,9-42-56,153,depth_duration_stimuli/003081_2014-06-15_15-19-16_094959634447_rgbf000150-resize_1/003081_2014-06-15_15-19-16_094959634447_rgbf000150-resize_1-target.png,1000,3.9125,4,6802,1001,feet,jsons/v1_VE1000_randls_68_rotated.json,756988,949156,35,Woman
153,654696,DepthScenes,duration_manipulation_targetAtFixation,jsons/v1_VE1000_randls_68_rotated.json,http://54.235.29.9/FacialAge/BNav_EC2/DepthDuration/v2_depth_duration_MTurk/v2_DepthDuration_HTML.html#101,101,1920,1080,1920,1080,8-29-2022,9-42-56,154,depth_duration_stimuli/001417_2014-06-19_16-25-36_260595134347_rgbf000115-resize_5/001417_2014-06-19_16-25-36_260595134347_rgbf000115-resize_5-target.png,1000,4.6255,5,6781,1000,feet,jsons/v1_VE1000_randls_68_rotated.json,756988,949156,35,Woman
154,654696,DepthScenes,duration_manipulation_targetAtFixation,jsons/v1_VE1000_randls_68_rotated.json,http://54.235.29.9/FacialAge/BNav_EC2/DepthDuration/v2_depth_duration_MTurk/v2_DepthDuration_HTML.html#101,101,1920,1080,1920,1080,8-29-2022,9-42-56,155,depth_duration_stimuli/000854_2014-06-09_19-43-13_260595134347_rgbf000066-resize_0/000854_2014-06-09_19-43-13_260595134347_rgbf000066-resize_0-target.png,1000,3.068,2,3277,1000,feet,jsons/v1_VE1000_randls_68_rotated.json,756988,949156,35,Woman
155,654696,DepthScenes,duration_manipulation_targetAtFixation,jsons/v1_VE1000_randls_68_rotated.json,http://54.235.29.9/FacialAge/BNav_EC2/DepthDuration/v2_depth_duration_MTurk/v2_DepthDuration_HTML.html#101,101,1920,1080,1920,1080,8-29-2022,9-42-56,156,depth_duration_stimuli/000758_2014-06-08_22-05-08_260595134347_rgbf000085-resize_0/000758_2014-06-08_22-05-08_260595134347_rgbf000085-resize_0-target.png,1000,3.3810000000000002,7,6700,1001,feet,jsons/v1_VE1000_randls_68_rotated.json,756988,949156,35,Woman
156,654696,DepthScenes,duration_manipulation_targetAtFixation,jsons/v1_VE1000_randls_68_rotated.json,http://54.235.29.9/FacialAge/BNav_EC2/DepthDuration/v2_depth_duration_MTurk/v2_DepthDuration_HTML.html#101,101,1920,1080,1920,1080,8-29-2022,9-42-56,157,depth_duration_stimuli/003010_2014-06-15_12-54-35_094959634447_rgbf000112-resize_0/003010_2014-06-15_12-54-35_094959634447_rgbf000112-resize_0-target.png,1000,3.1185,4,10598,1001,feet,jsons/v1_VE1000_randls_68_rotated.json,756988,949156,35,Woman
157,654696,DepthScenes,duration_manipulation_targetAtFixation,jsons/v1_VE1000_randls_68_rotated.json,http://54.235.29.9/FacialAge/BNav_EC2/DepthDuration/v2_depth_duration_MTurk/v2_DepthDuration_HTML.html#101,101,1920,1080,1920,1080,8-29-2022,9-42-56,158,depth_duration_stimuli/001810_2014-06-26_20-51-35_260595134347_rgbf000040-resize_3/001810_2014-06-26_20-51-35_260595134347_rgbf000040-resize_3-target.png,1000,2.2525,2,8031,1001,feet,jsons/v1_VE1000_randls_68_rotated.json,756988,949156,35,Woman
158,654696,DepthScenes,duration_manipulation_targetAtFixation,jsons/v1_VE1000_randls_68_rotated.json,http://54.235.29.9/FacialAge/BNav_EC2/DepthDuration/v2_depth_duration_MTurk/v2_DepthDuration_HTML.html#101,101,1920,1080,1920,1080,8-29-2022,9-42-56,159,depth_duration_stimuli/000943_2014-06-09_19-31-07_260595134347_rgbf000128-resize_1/000943_2014-06-09_19-31-07_260595134347_rgbf000128-resize_1-target.png,1000,1.9765,2,3285,1000,feet,jsons/v1_VE1000_randls_68_rotated.json,756988,949156,35,Woman
159,654696,DepthScenes,duration_manipulation_targetAtFixation,jsons/v1_VE1000_randls_68_rotated.json,http://54.235.29.9/FacialAge/BNav_EC2/DepthDuration/v2_depth_duration_MTurk/v2_DepthDuration_HTML.html#101,101,1920,1080,1920,1080,8-29-2022,9-42-56,160,depth_duration_stimuli/003070_2014-06-15_14-58-27_094959634447_rgbf000150-resize_3/003070_2014-06-15_14-58-27_094959634447_rgbf000150-resize_3-target.png,1000,2.9415,3,5091,1001,feet,jsons/v1_VE1000_randls_68_rotated.json,756988,949156,35,Woman
160,654696,DepthScenes,duration_manipulation_targetAtFixation,jsons/v1_VE1000_randls_68_rotated.json,http://54.235.29.9/FacialAge/BNav_EC2/DepthDuration/v2_depth_duration_MTurk/v2_DepthDuration_HTML.html#101,101,1920,1080,1920,1080,8-29-2022,9-42-56,161,depth_duration_stimuli/003587_2014-05-23_16-48-02_094959634447_rgbf002384-resize_2/003587_2014-05-23_16-48-02_094959634447_rgbf002384-resize_2-target.png,1000,1.357,1,2941,1000,feet,jsons/v1_VE1000_randls_68_rotated.json,756988,949156,35,Woman
161,654696,DepthScenes,duration_manipulation_targetAtFixation,jsons/v1_VE1000_randls_68_rotated.json,http://54.235.29.9/FacialAge/BNav_EC2/DepthDuration/v2_depth_duration_MTurk/v2_DepthDuration_HTML.html#101,101,1920,1080,1920,1080,8-29-2022,9-42-56,162,depth_duration_stimuli/001167_2014-06-17_15-38-07_260595134347_rgbf000108-resize_0/001167_2014-06-17_15-38-07_260595134347_rgbf000108-resize_0-target.png,1000,1.8505,1,3063,1000,feet,jsons/v1_VE1000_randls_68_rotated.json,756988,949156,35,Woman
162,654696,DepthScenes,duration_manipulation_targetAtFixation,jsons/v1_VE1000_randls_68_rotated.json,http://54.235.29.9/FacialAge/BNav_EC2/DepthDuration/v2_depth_duration_MTurk/v2_DepthDuration_HTML.html#101,101,1920,1080,1920,1080,8-29-2022,9-42-56,163,depth_duration_stimuli/002949_2014-06-26_15-57-42_094959634447_rgbf000079-resize_1/002949_2014-06-26_15-57-42_094959634447_rgbf000079-resize_1-target.png,1000,1.8915,2,2785,1001,feet,jsons/v1_VE1000_randls_68_rotated.json,756988,949156,35,Woman
163,654696,DepthScenes,duration_manipulation_targetAtFixation,jsons/v1_VE1000_randls_68_rotated.json,http://54.235.29.9/FacialAge/BNav_EC2/DepthDuration/v2_depth_duration_MTurk/v2_DepthDuration_HTML.html#101,101,1920,1080,1920,1080,8-29-2022,9-42-56,164,depth_duration_stimuli/000522_2014-06-08_13-35-06_260595134347_rgbf000244-resize_1/000522_2014-06-08_13-35-06_260595134347_rgbf000244-resize_1-target.png,1000,2.3715,1,3824,998,feet,jsons/v1_VE1000_randls_68_rotated.json,756988,949156,35,Woman
