,subjID,experimentName,versionName,sequenceName,url,selected_row,windowWidth,windowHeight,screenWidth,screenHeight,startDate,startTime,trial,stimulus,duration,actual_depth,depth_estimate,trial_RT,log_sceneDuration,unitSelection,seq_filepath,experimentTime,totalTime,age,gender
0,655019,DepthScenes,duration_manipulation_targetAtFixation,jsons/v1_VE1000_randls_27.json,http://54.235.29.9/FacialAge/BNav_EC2/DepthDuration/v2_depth_duration_MTurk/v2_DepthDuration_HTML.html#118,118,3072,1728,3072,1728,8-29-2022,11-22-21,1,depth_duration_stimuli/000469_2014-06-09_19-42-10_260595134347_rgbf000081-resize_1/000469_2014-06-09_19-42-10_260595134347_rgbf000081-resize_1-target.png,1000,1.652,4.0,2846,1000,feet,jsons/v1_VE1000_randls_27.json,865535,2597185,44,Man
1,655019,DepthScenes,duration_manipulation_targetAtFixation,jsons/v1_VE1000_randls_27.json,http://54.235.29.9/FacialAge/BNav_EC2/DepthDuration/v2_depth_duration_MTurk/v2_DepthDuration_HTML.html#118,118,3072,1728,3072,1728,8-29-2022,11-22-21,2,depth_duration_stimuli/000483_2014-06-09_20-41-45_260595134347_rgbf000116-resize_4/000483_2014-06-09_20-41-45_260595134347_rgbf000116-resize_4-target.png,1000,1.337,3.0,3855,1014,feet,jsons/v1_VE1000_randls_27.json,865535,2597185,44,Man
2,655019,DepthScenes,duration_manipulation_targetAtFixation,jsons/v1_VE1000_randls_27.json,http://54.235.29.9/FacialAge/BNav_EC2/DepthDuration/v2_depth_duration_MTurk/v2_DepthDuration_HTML.html#118,118,3072,1728,3072,1728,8-29-2022,11-22-21,3,depth_duration_stimuli/002788_2014-06-22_19-36-03_094959634447_rgbf000088-resize_2/002788_2014-06-22_19-36-03_094959634447_rgbf000088-resize_2-target.png,1000,1.6465,9.0,4858,1005,feet,jsons/v1_VE1000_randls_27.json,865535,2597185,44,Man
3,655019,DepthScenes,duration_manipulation_targetAtFixation,jsons/v1_VE1000_randls_27.json,http://54.235.29.9/FacialAge/BNav_EC2/DepthDuration/v2_depth_duration_MTurk/v2_DepthDuration_HTML.html#118,118,3072,1728,3072,1728,8-29-2022,11-22-21,4,depth_duration_stimuli/000749_2014-06-08_21-55-06_260595134347_rgbf000070-resize_2/000749_2014-06-08_21-55-06_260595134347_rgbf000070-resize_2-target.png,1000,2.331,6.0,4495,1003,feet,jsons/v1_VE1000_randls_27.json,865535,2597185,44,Man
4,655019,DepthScenes,duration_manipulation_targetAtFixation,jsons/v1_VE1000_randls_27.json,http://54.235.29.9/FacialAge/BNav_EC2/DepthDuration/v2_depth_duration_MTurk/v2_DepthDuration_HTML.html#118,118,3072,1728,3072,1728,8-29-2022,11-22-21,5,depth_duration_stimuli/001175_2014-06-17_15-45-55_260595134347_rgbf000129-resize_4/001175_2014-06-17_15-45-55_260595134347_rgbf000129-resize_4-target.png,1000,4.255,15.0,5410,1002,feet,jsons/v1_VE1000_randls_27.json,865535,2597185,44,Man
5,655019,DepthScenes,duration_manipulation_targetAtFixation,jsons/v1_VE1000_randls_27.json,http://54.235.29.9/FacialAge/BNav_EC2/DepthDuration/v2_depth_duration_MTurk/v2_DepthDuration_HTML.html#118,118,3072,1728,3072,1728,8-29-2022,11-22-21,6,depth_duration_stimuli/003490_2014-05-21_15-50-11_094959634447_rgbf000101-resize_3/003490_2014-05-21_15-50-11_094959634447_rgbf000101-resize_3-target.png,1000,3.6445,11.0,4352,992,feet,jsons/v1_VE1000_randls_27.json,865535,2597185,44,Man
6,655019,DepthScenes,duration_manipulation_targetAtFixation,jsons/v1_VE1000_randls_27.json,http://54.235.29.9/FacialAge/BNav_EC2/DepthDuration/v2_depth_duration_MTurk/v2_DepthDuration_HTML.html#118,118,3072,1728,3072,1728,8-29-2022,11-22-21,7,depth_duration_stimuli/001016_2014-06-09_16-16-10_260595134347_rgbf000112-resize_5/001016_2014-06-09_16-16-10_260595134347_rgbf000112-resize_5-target.png,1000,1.6565,6.0,4642,986,feet,jsons/v1_VE1000_randls_27.json,865535,2597185,44,Man
7,655019,DepthScenes,duration_manipulation_targetAtFixation,jsons/v1_VE1000_randls_27.json,http://54.235.29.9/FacialAge/BNav_EC2/DepthDuration/v2_depth_duration_MTurk/v2_DepthDuration_HTML.html#118,118,3072,1728,3072,1728,8-29-2022,11-22-21,8,depth_duration_stimuli/002340_2014-06-28_20-05-46_260595134347_rgbf000113-resize_0/002340_2014-06-28_20-05-46_260595134347_rgbf000113-resize_0-target.png,1000,2.4735,10.0,7584,997,feet,jsons/v1_VE1000_randls_27.json,865535,2597185,44,Man
8,655019,DepthScenes,duration_manipulation_targetAtFixation,jsons/v1_VE1000_randls_27.json,http://54.235.29.9/FacialAge/BNav_EC2/DepthDuration/v2_depth_duration_MTurk/v2_DepthDuration_HTML.html#118,118,3072,1728,3072,1728,8-29-2022,11-22-21,9,depth_duration_stimuli/000447_2014-06-08_16-15-46_260595134347_rgbf000130-resize_1/000447_2014-06-08_16-15-46_260595134347_rgbf000130-resize_1-target.png,1000,4.479,18.0,3821,994,feet,jsons/v1_VE1000_randls_27.json,865535,2597185,44,Man
9,655019,DepthScenes,duration_manipulation_targetAtFixation,jsons/v1_VE1000_randls_27.json,http://54.235.29.9/FacialAge/BNav_EC2/DepthDuration/v2_depth_duration_MTurk/v2_DepthDuration_HTML.html#118,118,3072,1728,3072,1728,8-29-2022,11-22-21,10,depth_duration_stimuli/001447_2014-06-19_17-00-32_260595134347_rgbf000082-resize_5/001447_2014-06-19_17-00-32_260595134347_rgbf000082-resize_5-target.png,1000,4.13775,8.0,4091,1001,feet,jsons/v1_VE1000_randls_27.json,865535,2597185,44,Man
10,655019,DepthScenes,duration_manipulation_targetAtFixation,jsons/v1_VE1000_randls_27.json,http://54.235.29.9/FacialAge/BNav_EC2/DepthDuration/v2_depth_duration_MTurk/v2_DepthDuration_HTML.html#118,118,3072,1728,3072,1728,8-29-2022,11-22-21,11,depth_duration_stimuli/001570_2014-06-20_17-21-09_260595134347_rgbf000135-resize_4/001570_2014-06-20_17-21-09_260595134347_rgbf000135-resize_4-target.png,1000,4.467,15.0,6318,992,feet,jsons/v1_VE1000_randls_27.json,865535,2597185,44,Man
11,655019,DepthScenes,duration_manipulation_targetAtFixation,jsons/v1_VE1000_randls_27.json,http://54.235.29.9/FacialAge/BNav_EC2/DepthDuration/v2_depth_duration_MTurk/v2_DepthDuration_HTML.html#118,118,3072,1728,3072,1728,8-29-2022,11-22-21,12,depth_duration_stimuli/001392_2014-06-19_16-07-59_260595134347_rgbf000046-resize_1/001392_2014-06-19_16-07-59_260595134347_rgbf000046-resize_1-target.png,1000,4.135,12.0,5113,1005,feet,jsons/v1_VE1000_randls_27.json,865535,2597185,44,Man
12,655019,DepthScenes,duration_manipulation_targetAtFixation,jsons/v1_VE1000_randls_27.json,http://54.235.29.9/FacialAge/BNav_EC2/DepthDuration/v2_depth_duration_MTurk/v2_DepthDuration_HTML.html#118,118,3072,1728,3072,1728,8-29-2022,11-22-21,13,depth_duration_stimuli/000569_2014-06-09_22-51-47_260595134347_rgbf000141-resize_3/000569_2014-06-09_22-51-47_260595134347_rgbf000141-resize-original.jpg,1000,4.512,0.0,3708,989,feet,jsons/v1_VE1000_randls_27.json,865535,2597185,44,Man
13,655019,DepthScenes,duration_manipulation_targetAtFixation,jsons/v1_VE1000_randls_27.json,http://54.235.29.9/FacialAge/BNav_EC2/DepthDuration/v2_depth_duration_MTurk/v2_DepthDuration_HTML.html#118,118,3072,1728,3072,1728,8-29-2022,11-22-21,14,depth_duration_stimuli/002988_2014-06-15_12-24-20_094959634447_rgbf000150-resize_1/002988_2014-06-15_12-24-20_094959634447_rgbf000150-resize_1-target.png,1000,4.7669999999999995,9.0,6938,1004,feet,jsons/v1_VE1000_randls_27.json,865535,2597185,44,Man
14,655019,DepthScenes,duration_manipulation_targetAtFixation,jsons/v1_VE1000_randls_27.json,http://54.235.29.9/FacialAge/BNav_EC2/DepthDuration/v2_depth_duration_MTurk/v2_DepthDuration_HTML.html#118,118,3072,1728,3072,1728,8-29-2022,11-22-21,15,depth_duration_stimuli/001052_2014-06-08_18-24-54_260595134347_rgbf000130-resize_1/001052_2014-06-08_18-24-54_260595134347_rgbf000130-resize_1-target.png,1000,4.1045,9.0,5407,1011,feet,jsons/v1_VE1000_randls_27.json,865535,2597185,44,Man
15,655019,DepthScenes,duration_manipulation_targetAtFixation,jsons/v1_VE1000_randls_27.json,http://54.235.29.9/FacialAge/BNav_EC2/DepthDuration/v2_depth_duration_MTurk/v2_DepthDuration_HTML.html#118,118,3072,1728,3072,1728,8-29-2022,11-22-21,16,depth_duration_stimuli/001055_2014-06-08_18-45-35_260595134347_rgbf000111-resize_4/001055_2014-06-08_18-45-35_260595134347_rgbf000111-resize_4-target.png,1000,2.4290000000000003,6.0,3626,990,feet,jsons/v1_VE1000_randls_27.json,865535,2597185,44,Man
16,655019,DepthScenes,duration_manipulation_targetAtFixation,jsons/v1_VE1000_randls_27.json,http://54.235.29.9/FacialAge/BNav_EC2/DepthDuration/v2_depth_duration_MTurk/v2_DepthDuration_HTML.html#118,118,3072,1728,3072,1728,8-29-2022,11-22-21,17,depth_duration_stimuli/000549_2014-06-08_22-10-24_260595134347_rgbf000247-resize_3/000549_2014-06-08_22-10-24_260595134347_rgbf000247-resize_3-target.png,1000,1.841,2.0,3947,996,feet,jsons/v1_VE1000_randls_27.json,865535,2597185,44,Man
17,655019,DepthScenes,duration_manipulation_targetAtFixation,jsons/v1_VE1000_randls_27.json,http://54.235.29.9/FacialAge/BNav_EC2/DepthDuration/v2_depth_duration_MTurk/v2_DepthDuration_HTML.html#118,118,3072,1728,3072,1728,8-29-2022,11-22-21,18,depth_duration_stimuli/002509_2014-06-24_13-19-22_094959634447_rgbf000077-resize_0/002509_2014-06-24_13-19-22_094959634447_rgbf000077-resize_0-target.png,1000,1.3065,2.0,3337,996,feet,jsons/v1_VE1000_randls_27.json,865535,2597185,44,Man
18,655019,DepthScenes,duration_manipulation_targetAtFixation,jsons/v1_VE1000_randls_27.json,http://54.235.29.9/FacialAge/BNav_EC2/DepthDuration/v2_depth_duration_MTurk/v2_DepthDuration_HTML.html#118,118,3072,1728,3072,1728,8-29-2022,11-22-21,19,depth_duration_stimuli/003338_2014-05-20_11-01-23_094959634447_rgbf000051-resize_6/003338_2014-05-20_11-01-23_094959634447_rgbf000051-resize_6-target.png,1000,1.693,3.0,2841,999,feet,jsons/v1_VE1000_randls_27.json,865535,2597185,44,Man
19,655019,DepthScenes,duration_manipulation_targetAtFixation,jsons/v1_VE1000_randls_27.json,http://54.235.29.9/FacialAge/BNav_EC2/DepthDuration/v2_depth_duration_MTurk/v2_DepthDuration_HTML.html#118,118,3072,1728,3072,1728,8-29-2022,11-22-21,20,depth_duration_stimuli/003292_2014-05-14_21-53-49_094959634447_rgbf000100-resize_2/003292_2014-05-14_21-53-49_094959634447_rgbf000100-resize_2-target.png,1000,3.4815,6.0,3979,1003,feet,jsons/v1_VE1000_randls_27.json,865535,2597185,44,Man
20,655019,DepthScenes,duration_manipulation_targetAtFixation,jsons/v1_VE1000_randls_27.json,http://54.235.29.9/FacialAge/BNav_EC2/DepthDuration/v2_depth_duration_MTurk/v2_DepthDuration_HTML.html#118,118,3072,1728,3072,1728,8-29-2022,11-22-21,21,depth_duration_stimuli/002639_2014-06-24_14-51-37_094959634447_rgbf000074-resize_4/002639_2014-06-24_14-51-37_094959634447_rgbf000074-resize_4-target.png,1000,4.0375,10.0,6405,998,feet,jsons/v1_VE1000_randls_27.json,865535,2597185,44,Man
21,655019,DepthScenes,duration_manipulation_targetAtFixation,jsons/v1_VE1000_randls_27.json,http://54.235.29.9/FacialAge/BNav_EC2/DepthDuration/v2_depth_duration_MTurk/v2_DepthDuration_HTML.html#118,118,3072,1728,3072,1728,8-29-2022,11-22-21,22,depth_duration_stimuli/002964_2014-06-08_17-46-11_094959634447_rgbf000091-resize_4/002964_2014-06-08_17-46-11_094959634447_rgbf000091-resize_4-target.png,1000,1.6909999999999998,2.0,3131,999,feet,jsons/v1_VE1000_randls_27.json,865535,2597185,44,Man
22,655019,DepthScenes,duration_manipulation_targetAtFixation,jsons/v1_VE1000_randls_27.json,http://54.235.29.9/FacialAge/BNav_EC2/DepthDuration/v2_depth_duration_MTurk/v2_DepthDuration_HTML.html#118,118,3072,1728,3072,1728,8-29-2022,11-22-21,23,depth_duration_stimuli/002136_2014-06-25_21-18-03_260595134347_rgbf000109-resize_3/002136_2014-06-25_21-18-03_260595134347_rgbf000109-resize_3-target.png,1000,1.9569999999999999,4.0,2870,999,feet,jsons/v1_VE1000_randls_27.json,865535,2597185,44,Man
23,655019,DepthScenes,duration_manipulation_targetAtFixation,jsons/v1_VE1000_randls_27.json,http://54.235.29.9/FacialAge/BNav_EC2/DepthDuration/v2_depth_duration_MTurk/v2_DepthDuration_HTML.html#118,118,3072,1728,3072,1728,8-29-2022,11-22-21,24,depth_duration_stimuli/001808_2014-06-26_20-50-58_260595134347_rgbf000029-resize_1/001808_2014-06-26_20-50-58_260595134347_rgbf000029-resize_1-target.png,1000,4.249,9.0,7578,1008,feet,jsons/v1_VE1000_randls_27.json,865535,2597185,44,Man
24,655019,DepthScenes,duration_manipulation_targetAtFixation,jsons/v1_VE1000_randls_27.json,http://54.235.29.9/FacialAge/BNav_EC2/DepthDuration/v2_depth_duration_MTurk/v2_DepthDuration_HTML.html#118,118,3072,1728,3072,1728,8-29-2022,11-22-21,25,depth_duration_stimuli/001815_2014-06-26_20-52-55_260595134347_rgbf000020-resize_0/001815_2014-06-26_20-52-55_260595134347_rgbf000020-resize_0-target.png,1000,3.3865,8.0,5445,990,feet,jsons/v1_VE1000_randls_27.json,865535,2597185,44,Man
25,655019,DepthScenes,duration_manipulation_targetAtFixation,jsons/v1_VE1000_randls_27.json,http://54.235.29.9/FacialAge/BNav_EC2/DepthDuration/v2_depth_duration_MTurk/v2_DepthDuration_HTML.html#118,118,3072,1728,3072,1728,8-29-2022,11-22-21,26,depth_duration_stimuli/001059_2014-06-08_21-53-27_260595134347_rgbf000061-resize_4/001059_2014-06-08_21-53-27_260595134347_rgbf000061-resize_4-target.png,1000,2.4185,4.0,2944,997,feet,jsons/v1_VE1000_randls_27.json,865535,2597185,44,Man
26,655019,DepthScenes,duration_manipulation_targetAtFixation,jsons/v1_VE1000_randls_27.json,http://54.235.29.9/FacialAge/BNav_EC2/DepthDuration/v2_depth_duration_MTurk/v2_DepthDuration_HTML.html#118,118,3072,1728,3072,1728,8-29-2022,11-22-21,27,depth_duration_stimuli/001032_2014-06-08_13-23-17_260595134347_rgbf000021-resize_3/001032_2014-06-08_13-23-17_260595134347_rgbf000021-resize_3-target.png,1000,3.2725,5.0,3990,1001,feet,jsons/v1_VE1000_randls_27.json,865535,2597185,44,Man
27,655019,DepthScenes,duration_manipulation_targetAtFixation,jsons/v1_VE1000_randls_27.json,http://54.235.29.9/FacialAge/BNav_EC2/DepthDuration/v2_depth_duration_MTurk/v2_DepthDuration_HTML.html#118,118,3072,1728,3072,1728,8-29-2022,11-22-21,28,depth_duration_stimuli/000906_2014-06-08_13-35-43_260595134347_rgbf000155-resize_1/000906_2014-06-08_13-35-43_260595134347_rgbf000155-resize_1-target.png,1000,2.8489999999999998,8.0,3341,999,feet,jsons/v1_VE1000_randls_27.json,865535,2597185,44,Man
28,655019,DepthScenes,duration_manipulation_targetAtFixation,jsons/v1_VE1000_randls_27.json,http://54.235.29.9/FacialAge/BNav_EC2/DepthDuration/v2_depth_duration_MTurk/v2_DepthDuration_HTML.html#118,118,3072,1728,3072,1728,8-29-2022,11-22-21,29,depth_duration_stimuli/002805_2014-06-22_19-54-03_094959634447_rgbf000079-resize_1/002805_2014-06-22_19-54-03_094959634447_rgbf000079-resize_1-target.png,1000,3.1439999999999997,10.0,3787,1000,feet,jsons/v1_VE1000_randls_27.json,865535,2597185,44,Man
29,655019,DepthScenes,duration_manipulation_targetAtFixation,jsons/v1_VE1000_randls_27.json,http://54.235.29.9/FacialAge/BNav_EC2/DepthDuration/v2_depth_duration_MTurk/v2_DepthDuration_HTML.html#118,118,3072,1728,3072,1728,8-29-2022,11-22-21,30,depth_duration_stimuli/000375_2014-06-08_11-17-29_260595134347_rgbf000133-resize_2/000375_2014-06-08_11-17-29_260595134347_rgbf000133-resize-original.jpg,1000,4.718,0.0,2822,988,feet,jsons/v1_VE1000_randls_27.json,865535,2597185,44,Man
30,655019,DepthScenes,duration_manipulation_targetAtFixation,jsons/v1_VE1000_randls_27.json,http://54.235.29.9/FacialAge/BNav_EC2/DepthDuration/v2_depth_duration_MTurk/v2_DepthDuration_HTML.html#118,118,3072,1728,3072,1728,8-29-2022,11-22-21,31,depth_duration_stimuli/002213_2014-06-28_18-37-58_260595134347_rgbf000055-resize_1/002213_2014-06-28_18-37-58_260595134347_rgbf000055-resize_1-target.png,1000,3.62,12.0,4568,1007,feet,jsons/v1_VE1000_randls_27.json,865535,2597185,44,Man
31,655019,DepthScenes,duration_manipulation_targetAtFixation,jsons/v1_VE1000_randls_27.json,http://54.235.29.9/FacialAge/BNav_EC2/DepthDuration/v2_depth_duration_MTurk/v2_DepthDuration_HTML.html#118,118,3072,1728,3072,1728,8-29-2022,11-22-21,32,depth_duration_stimuli/000691_2014-06-08_13-08-50_260595134347_rgbf000132-resize_3/000691_2014-06-08_13-08-50_260595134347_rgbf000132-resize_3-target.png,1000,4.1530000000000005,9.0,3287,993,feet,jsons/v1_VE1000_randls_27.json,865535,2597185,44,Man
32,655019,DepthScenes,duration_manipulation_targetAtFixation,jsons/v1_VE1000_randls_27.json,http://54.235.29.9/FacialAge/BNav_EC2/DepthDuration/v2_depth_duration_MTurk/v2_DepthDuration_HTML.html#118,118,3072,1728,3072,1728,8-29-2022,11-22-21,33,depth_duration_stimuli/000682_2014-06-08_23-14-58_260595134347_rgbf000041-resize_5/000682_2014-06-08_23-14-58_260595134347_rgbf000041-resize_5-target.png,1000,2.7239999999999998,4.0,3159,1001,feet,jsons/v1_VE1000_randls_27.json,865535,2597185,44,Man
33,655019,DepthScenes,duration_manipulation_targetAtFixation,jsons/v1_VE1000_randls_27.json,http://54.235.29.9/FacialAge/BNav_EC2/DepthDuration/v2_depth_duration_MTurk/v2_DepthDuration_HTML.html#118,118,3072,1728,3072,1728,8-29-2022,11-22-21,34,depth_duration_stimuli/001650_2014-06-20_12-09-00_260595134347_rgbf000087-resize_3/001650_2014-06-20_12-09-00_260595134347_rgbf000087-resize_3-target.png,1000,1.9505,2.0,3989,1009,feet,jsons/v1_VE1000_randls_27.json,865535,2597185,44,Man
34,655019,DepthScenes,duration_manipulation_targetAtFixation,jsons/v1_VE1000_randls_27.json,http://54.235.29.9/FacialAge/BNav_EC2/DepthDuration/v2_depth_duration_MTurk/v2_DepthDuration_HTML.html#118,118,3072,1728,3072,1728,8-29-2022,11-22-21,35,depth_duration_stimuli/000773_2014-06-08_22-24-54_260595134347_rgbf000093-resize_1/000773_2014-06-08_22-24-54_260595134347_rgbf000093-resize_1-target.png,1000,4.973,9.0,4646,1008,feet,jsons/v1_VE1000_randls_27.json,865535,2597185,44,Man
35,655019,DepthScenes,duration_manipulation_targetAtFixation,jsons/v1_VE1000_randls_27.json,http://54.235.29.9/FacialAge/BNav_EC2/DepthDuration/v2_depth_duration_MTurk/v2_DepthDuration_HTML.html#118,118,3072,1728,3072,1728,8-29-2022,11-22-21,36,depth_duration_stimuli/002414_2014-06-28_20-24-58_260595134347_rgbf000067-resize_4/002414_2014-06-28_20-24-58_260595134347_rgbf000067-resize_4-target.png,1000,4.363,10.0,6399,1010,feet,jsons/v1_VE1000_randls_27.json,865535,2597185,44,Man
36,655019,DepthScenes,duration_manipulation_targetAtFixation,jsons/v1_VE1000_randls_27.json,http://54.235.29.9/FacialAge/BNav_EC2/DepthDuration/v2_depth_duration_MTurk/v2_DepthDuration_HTML.html#118,118,3072,1728,3072,1728,8-29-2022,11-22-21,37,depth_duration_stimuli/002375_2014-06-28_20-13-44_260595134347_rgbf000032-resize_1/002375_2014-06-28_20-13-44_260595134347_rgbf000032-resize_1-target.png,1000,4.0175,8.0,4736,994,feet,jsons/v1_VE1000_randls_27.json,865535,2597185,44,Man
37,655019,DepthScenes,duration_manipulation_targetAtFixation,jsons/v1_VE1000_randls_27.json,http://54.235.29.9/FacialAge/BNav_EC2/DepthDuration/v2_depth_duration_MTurk/v2_DepthDuration_HTML.html#118,118,3072,1728,3072,1728,8-29-2022,11-22-21,38,depth_duration_stimuli/002657_2014-06-13_15-29-54_094959634447_rgbf000150-resize_1/002657_2014-06-13_15-29-54_094959634447_rgbf000150-resize_1-target.png,1000,4.919,10.0,3640,995,feet,jsons/v1_VE1000_randls_27.json,865535,2597185,44,Man
38,655019,DepthScenes,duration_manipulation_targetAtFixation,jsons/v1_VE1000_randls_27.json,http://54.235.29.9/FacialAge/BNav_EC2/DepthDuration/v2_depth_duration_MTurk/v2_DepthDuration_HTML.html#118,118,3072,1728,3072,1728,8-29-2022,11-22-21,39,depth_duration_stimuli/002118_2014-06-25_20-32-08_260595134347_rgbf000078-resize_1/002118_2014-06-25_20-32-08_260595134347_rgbf000078-resize_1-target.png,1000,2.6460000000000004,7.0,4376,992,feet,jsons/v1_VE1000_randls_27.json,865535,2597185,44,Man
39,655019,DepthScenes,duration_manipulation_targetAtFixation,jsons/v1_VE1000_randls_27.json,http://54.235.29.9/FacialAge/BNav_EC2/DepthDuration/v2_depth_duration_MTurk/v2_DepthDuration_HTML.html#118,118,3072,1728,3072,1728,8-29-2022,11-22-21,40,depth_duration_stimuli/001516_2014-06-20_16-25-09_260595134347_rgbf000076-resize_2/001516_2014-06-20_16-25-09_260595134347_rgbf000076-resize_2-target.png,1000,1.7445,5.0,4918,1008,feet,jsons/v1_VE1000_randls_27.json,865535,2597185,44,Man
40,655019,DepthScenes,duration_manipulation_targetAtFixation,jsons/v1_VE1000_randls_27.json,http://54.235.29.9/FacialAge/BNav_EC2/DepthDuration/v2_depth_duration_MTurk/v2_DepthDuration_HTML.html#118,118,3072,1728,3072,1728,8-29-2022,11-22-21,41,depth_duration_stimuli/000522_2014-06-08_13-35-06_260595134347_rgbf000244-resize_1/000522_2014-06-08_13-35-06_260595134347_rgbf000244-resize_1-target.png,1000,2.3715,1.5,4486,987,feet,jsons/v1_VE1000_randls_27.json,865535,2597185,44,Man
41,655019,DepthScenes,duration_manipulation_targetAtFixation,jsons/v1_VE1000_randls_27.json,http://54.235.29.9/FacialAge/BNav_EC2/DepthDuration/v2_depth_duration_MTurk/v2_DepthDuration_HTML.html#118,118,3072,1728,3072,1728,8-29-2022,11-22-21,42,depth_duration_stimuli/002949_2014-06-26_15-57-42_094959634447_rgbf000079-resize_1/002949_2014-06-26_15-57-42_094959634447_rgbf000079-resize_1-target.png,1000,1.8915,3.5,4085,992,feet,jsons/v1_VE1000_randls_27.json,865535,2597185,44,Man
42,655019,DepthScenes,duration_manipulation_targetAtFixation,jsons/v1_VE1000_randls_27.json,http://54.235.29.9/FacialAge/BNav_EC2/DepthDuration/v2_depth_duration_MTurk/v2_DepthDuration_HTML.html#118,118,3072,1728,3072,1728,8-29-2022,11-22-21,43,depth_duration_stimuli/002057_2014-06-24_21-00-13_260595134347_rgbf000120-resize_1/002057_2014-06-24_21-00-13_260595134347_rgbf000120-resize_1-target.png,1000,2.967,10.0,21924,1001,feet,jsons/v1_VE1000_randls_27.json,865535,2597185,44,Man
43,655019,DepthScenes,duration_manipulation_targetAtFixation,jsons/v1_VE1000_randls_27.json,http://54.235.29.9/FacialAge/BNav_EC2/DepthDuration/v2_depth_duration_MTurk/v2_DepthDuration_HTML.html#118,118,3072,1728,3072,1728,8-29-2022,11-22-21,44,depth_duration_stimuli/000709_2014-06-08_13-51-55_260595134347_rgbf000068-resize_3/000709_2014-06-08_13-51-55_260595134347_rgbf000068-resize_3-target.png,1000,1.8030000000000002,4.0,4548,999,feet,jsons/v1_VE1000_randls_27.json,865535,2597185,44,Man
44,655019,DepthScenes,duration_manipulation_targetAtFixation,jsons/v1_VE1000_randls_27.json,http://54.235.29.9/FacialAge/BNav_EC2/DepthDuration/v2_depth_duration_MTurk/v2_DepthDuration_HTML.html#118,118,3072,1728,3072,1728,8-29-2022,11-22-21,45,depth_duration_stimuli/000787_2014-06-08_22-33-53_260595134347_rgbf000175-resize_1/000787_2014-06-08_22-33-53_260595134347_rgbf000175-resize-original.jpg,1000,4.784,0.0,3032,1002,feet,jsons/v1_VE1000_randls_27.json,865535,2597185,44,Man
45,655019,DepthScenes,duration_manipulation_targetAtFixation,jsons/v1_VE1000_randls_27.json,http://54.235.29.9/FacialAge/BNav_EC2/DepthDuration/v2_depth_duration_MTurk/v2_DepthDuration_HTML.html#118,118,3072,1728,3072,1728,8-29-2022,11-22-21,46,depth_duration_stimuli/002039_2014-06-24_20-22-38_260595134347_rgbf000084-resize_1/002039_2014-06-24_20-22-38_260595134347_rgbf000084-resize_1-target.png,1000,4.408,14.0,5789,999,feet,jsons/v1_VE1000_randls_27.json,865535,2597185,44,Man
46,655019,DepthScenes,duration_manipulation_targetAtFixation,jsons/v1_VE1000_randls_27.json,http://54.235.29.9/FacialAge/BNav_EC2/DepthDuration/v2_depth_duration_MTurk/v2_DepthDuration_HTML.html#118,118,3072,1728,3072,1728,8-29-2022,11-22-21,47,depth_duration_stimuli/002103_2014-06-25_20-00-40_260595134347_rgbf000049-resize_0/002103_2014-06-25_20-00-40_260595134347_rgbf000049-resize_0-target.png,1000,4.105,12.0,4988,993,feet,jsons/v1_VE1000_randls_27.json,865535,2597185,44,Man
47,655019,DepthScenes,duration_manipulation_targetAtFixation,jsons/v1_VE1000_randls_27.json,http://54.235.29.9/FacialAge/BNav_EC2/DepthDuration/v2_depth_duration_MTurk/v2_DepthDuration_HTML.html#118,118,3072,1728,3072,1728,8-29-2022,11-22-21,48,depth_duration_stimuli/002043_2014-06-24_20-29-38_260595134347_rgbf000039-resize_4/002043_2014-06-24_20-29-38_260595134347_rgbf000039-resize_4-target.png,1000,2.8435,10.0,3218,991,feet,jsons/v1_VE1000_randls_27.json,865535,2597185,44,Man
48,655019,DepthScenes,duration_manipulation_targetAtFixation,jsons/v1_VE1000_randls_27.json,http://54.235.29.9/FacialAge/BNav_EC2/DepthDuration/v2_depth_duration_MTurk/v2_DepthDuration_HTML.html#118,118,3072,1728,3072,1728,8-29-2022,11-22-21,49,depth_duration_stimuli/003048_2014-06-15_13-49-43_094959634447_rgbf000150-resize_1/003048_2014-06-15_13-49-43_094959634447_rgbf000150-resize_1-target.png,1000,4.0035,7.0,13368,997,feet,jsons/v1_VE1000_randls_27.json,865535,2597185,44,Man
49,655019,DepthScenes,duration_manipulation_targetAtFixation,jsons/v1_VE1000_randls_27.json,http://54.235.29.9/FacialAge/BNav_EC2/DepthDuration/v2_depth_duration_MTurk/v2_DepthDuration_HTML.html#118,118,3072,1728,3072,1728,8-29-2022,11-22-21,50,depth_duration_stimuli/002600_2014-06-24_14-27-04_094959634447_rgbf000074-resize_2/002600_2014-06-24_14-27-04_094959634447_rgbf000074-resize_2-target.png,1000,2.7575,7.0,4402,996,feet,jsons/v1_VE1000_randls_27.json,865535,2597185,44,Man
50,655019,DepthScenes,duration_manipulation_targetAtFixation,jsons/v1_VE1000_randls_27.json,http://54.235.29.9/FacialAge/BNav_EC2/DepthDuration/v2_depth_duration_MTurk/v2_DepthDuration_HTML.html#118,118,3072,1728,3072,1728,8-29-2022,11-22-21,51,depth_duration_stimuli/003228_2014-05-14_13-42-35_094959634447_rgbf000101-resize_1/003228_2014-05-14_13-42-35_094959634447_rgbf000101-resize_1-target.png,1000,1.9680000000000002,3.0,3388,984,feet,jsons/v1_VE1000_randls_27.json,865535,2597185,44,Man
51,655019,DepthScenes,duration_manipulation_targetAtFixation,jsons/v1_VE1000_randls_27.json,http://54.235.29.9/FacialAge/BNav_EC2/DepthDuration/v2_depth_duration_MTurk/v2_DepthDuration_HTML.html#118,118,3072,1728,3072,1728,8-29-2022,11-22-21,52,depth_duration_stimuli/002784_2014-06-22_19-26-30_094959634447_rgbf000083-resize_3/002784_2014-06-22_19-26-30_094959634447_rgbf000083-resize_3-target.png,1000,1.8046666666667,3.5,6657,1003,feet,jsons/v1_VE1000_randls_27.json,865535,2597185,44,Man
52,655019,DepthScenes,duration_manipulation_targetAtFixation,jsons/v1_VE1000_randls_27.json,http://54.235.29.9/FacialAge/BNav_EC2/DepthDuration/v2_depth_duration_MTurk/v2_DepthDuration_HTML.html#118,118,3072,1728,3072,1728,8-29-2022,11-22-21,53,depth_duration_stimuli/001100_2014-06-15_17-46-26_260595134347_rgbf000225-resize_2/001100_2014-06-15_17-46-26_260595134347_rgbf000225-resize_2-target.png,1000,2.24,2.5,3628,986,feet,jsons/v1_VE1000_randls_27.json,865535,2597185,44,Man
53,655019,DepthScenes,duration_manipulation_targetAtFixation,jsons/v1_VE1000_randls_27.json,http://54.235.29.9/FacialAge/BNav_EC2/DepthDuration/v2_depth_duration_MTurk/v2_DepthDuration_HTML.html#118,118,3072,1728,3072,1728,8-29-2022,11-22-21,54,depth_duration_stimuli/001029_2014-06-08_13-17-57_260595134347_rgbf000065-resize_1/001029_2014-06-08_13-17-57_260595134347_rgbf000065-resize_1-target.png,1000,3.0835,4.0,4916,1003,feet,jsons/v1_VE1000_randls_27.json,865535,2597185,44,Man
54,655019,DepthScenes,duration_manipulation_targetAtFixation,jsons/v1_VE1000_randls_27.json,http://54.235.29.9/FacialAge/BNav_EC2/DepthDuration/v2_depth_duration_MTurk/v2_DepthDuration_HTML.html#118,118,3072,1728,3072,1728,8-29-2022,11-22-21,55,depth_duration_stimuli/000677_2014-06-08_23-10-32_260595134347_rgbf000158-resize_6/000677_2014-06-08_23-10-32_260595134347_rgbf000158-resize_6-target.png,1000,3.556,6.0,2869,999,feet,jsons/v1_VE1000_randls_27.json,865535,2597185,44,Man
55,655019,DepthScenes,duration_manipulation_targetAtFixation,jsons/v1_VE1000_randls_27.json,http://54.235.29.9/FacialAge/BNav_EC2/DepthDuration/v2_depth_duration_MTurk/v2_DepthDuration_HTML.html#118,118,3072,1728,3072,1728,8-29-2022,11-22-21,56,depth_duration_stimuli/000878_2014-06-08_22-52-45_260595134347_rgbf000045-resize_2/000878_2014-06-08_22-52-45_260595134347_rgbf000045-resize_2-target.png,1000,2.092,5.0,6323,988,feet,jsons/v1_VE1000_randls_27.json,865535,2597185,44,Man
56,655019,DepthScenes,duration_manipulation_targetAtFixation,jsons/v1_VE1000_randls_27.json,http://54.235.29.9/FacialAge/BNav_EC2/DepthDuration/v2_depth_duration_MTurk/v2_DepthDuration_HTML.html#118,118,3072,1728,3072,1728,8-29-2022,11-22-21,57,depth_duration_stimuli/002953_2014-06-08_17-32-18_094959634447_rgbf000059-resize_5/002953_2014-06-08_17-32-18_094959634447_rgbf000059-resize_5-target.png,1000,1.551,3.0,2556,995,feet,jsons/v1_VE1000_randls_27.json,865535,2597185,44,Man
57,655019,DepthScenes,duration_manipulation_targetAtFixation,jsons/v1_VE1000_randls_27.json,http://54.235.29.9/FacialAge/BNav_EC2/DepthDuration/v2_depth_duration_MTurk/v2_DepthDuration_HTML.html#118,118,3072,1728,3072,1728,8-29-2022,11-22-21,58,depth_duration_stimuli/000470_2014-06-09_19-42-40_260595134347_rgbf000094-resize_1/000470_2014-06-09_19-42-40_260595134347_rgbf000094-resize_1-target.png,1000,1.831,3.5,4468,999,feet,jsons/v1_VE1000_randls_27.json,865535,2597185,44,Man
58,655019,DepthScenes,duration_manipulation_targetAtFixation,jsons/v1_VE1000_randls_27.json,http://54.235.29.9/FacialAge/BNav_EC2/DepthDuration/v2_depth_duration_MTurk/v2_DepthDuration_HTML.html#118,118,3072,1728,3072,1728,8-29-2022,11-22-21,59,depth_duration_stimuli/000109_2014-05-14_23-41-52_260595134347_rgbf000035-resize_9/000109_2014-05-14_23-41-52_260595134347_rgbf000035-resize_9-target.png,1000,1.3545,2.5,4443,998,feet,jsons/v1_VE1000_randls_27.json,865535,2597185,44,Man
59,655019,DepthScenes,duration_manipulation_targetAtFixation,jsons/v1_VE1000_randls_27.json,http://54.235.29.9/FacialAge/BNav_EC2/DepthDuration/v2_depth_duration_MTurk/v2_DepthDuration_HTML.html#118,118,3072,1728,3072,1728,8-29-2022,11-22-21,60,depth_duration_stimuli/001150_2014-06-17_15-27-34_260595134347_rgbf000108-resize_2/001150_2014-06-17_15-27-34_260595134347_rgbf000108-resize_2-target.png,1000,4.0325,7.5,3491,999,feet,jsons/v1_VE1000_randls_27.json,865535,2597185,44,Man
60,655019,DepthScenes,duration_manipulation_targetAtFixation,jsons/v1_VE1000_randls_27.json,http://54.235.29.9/FacialAge/BNav_EC2/DepthDuration/v2_depth_duration_MTurk/v2_DepthDuration_HTML.html#118,118,3072,1728,3072,1728,8-29-2022,11-22-21,61,depth_duration_stimuli/000665_2014-06-09_20-42-35_260595134347_rgbf000110-resize_1/000665_2014-06-09_20-42-35_260595134347_rgbf000110-resize_1-target.png,1000,3.057,8.0,4286,1000,feet,jsons/v1_VE1000_randls_27.json,865535,2597185,44,Man
61,655019,DepthScenes,duration_manipulation_targetAtFixation,jsons/v1_VE1000_randls_27.json,http://54.235.29.9/FacialAge/BNav_EC2/DepthDuration/v2_depth_duration_MTurk/v2_DepthDuration_HTML.html#118,118,3072,1728,3072,1728,8-29-2022,11-22-21,62,depth_duration_stimuli/002272_2014-06-28_18-53-56_260595134347_rgbf000067-resize_2/002272_2014-06-28_18-53-56_260595134347_rgbf000067-resize_2-target.png,1000,1.138,3.0,3600,1012,feet,jsons/v1_VE1000_randls_27.json,865535,2597185,44,Man
62,655019,DepthScenes,duration_manipulation_targetAtFixation,jsons/v1_VE1000_randls_27.json,http://54.235.29.9/FacialAge/BNav_EC2/DepthDuration/v2_depth_duration_MTurk/v2_DepthDuration_HTML.html#118,118,3072,1728,3072,1728,8-29-2022,11-22-21,63,depth_duration_stimuli/001571_2014-06-20_17-21-32_260595134347_rgbf000089-resize_1/001571_2014-06-20_17-21-32_260595134347_rgbf000089-resize_1-target.png,1000,1.86,4.0,3961,1010,feet,jsons/v1_VE1000_randls_27.json,865535,2597185,44,Man
63,655019,DepthScenes,duration_manipulation_targetAtFixation,jsons/v1_VE1000_randls_27.json,http://54.235.29.9/FacialAge/BNav_EC2/DepthDuration/v2_depth_duration_MTurk/v2_DepthDuration_HTML.html#118,118,3072,1728,3072,1728,8-29-2022,11-22-21,64,depth_duration_stimuli/001167_2014-06-17_15-38-07_260595134347_rgbf000108-resize_0/001167_2014-06-17_15-38-07_260595134347_rgbf000108-resize_0-target.png,1000,1.8505,3.0,3689,1012,feet,jsons/v1_VE1000_randls_27.json,865535,2597185,44,Man
64,655019,DepthScenes,duration_manipulation_targetAtFixation,jsons/v1_VE1000_randls_27.json,http://54.235.29.9/FacialAge/BNav_EC2/DepthDuration/v2_depth_duration_MTurk/v2_DepthDuration_HTML.html#118,118,3072,1728,3072,1728,8-29-2022,11-22-21,65,depth_duration_stimuli/003587_2014-05-23_16-48-02_094959634447_rgbf002384-resize_2/003587_2014-05-23_16-48-02_094959634447_rgbf002384-resize_2-target.png,1000,1.357,2.5,7178,1000,feet,jsons/v1_VE1000_randls_27.json,865535,2597185,44,Man
65,655019,DepthScenes,duration_manipulation_targetAtFixation,jsons/v1_VE1000_randls_27.json,http://54.235.29.9/FacialAge/BNav_EC2/DepthDuration/v2_depth_duration_MTurk/v2_DepthDuration_HTML.html#118,118,3072,1728,3072,1728,8-29-2022,11-22-21,66,depth_duration_stimuli/001222_2014-06-17_16-24-06_260595134347_rgbf000073-resize_0/001222_2014-06-17_16-24-06_260595134347_rgbf000073-resize-original.jpg,1000,1.4385,0.0,2858,1007,feet,jsons/v1_VE1000_randls_27.json,865535,2597185,44,Man
66,655019,DepthScenes,duration_manipulation_targetAtFixation,jsons/v1_VE1000_randls_27.json,http://54.235.29.9/FacialAge/BNav_EC2/DepthDuration/v2_depth_duration_MTurk/v2_DepthDuration_HTML.html#118,118,3072,1728,3072,1728,8-29-2022,11-22-21,67,depth_duration_stimuli/001110_2014-06-15_17-25-28_260595134347_rgbf000150-resize_1/001110_2014-06-15_17-25-28_260595134347_rgbf000150-resize_1-target.png,1000,1.7115,4.5,4818,1000,feet,jsons/v1_VE1000_randls_27.json,865535,2597185,44,Man
67,655019,DepthScenes,duration_manipulation_targetAtFixation,jsons/v1_VE1000_randls_27.json,http://54.235.29.9/FacialAge/BNav_EC2/DepthDuration/v2_depth_duration_MTurk/v2_DepthDuration_HTML.html#118,118,3072,1728,3072,1728,8-29-2022,11-22-21,68,depth_duration_stimuli/000927_2014-06-09_16-32-30_260595134347_rgbf000123-resize_3/000927_2014-06-09_16-32-30_260595134347_rgbf000123-resize_3-target.png,1000,2.6785,6.5,4179,991,feet,jsons/v1_VE1000_randls_27.json,865535,2597185,44,Man
68,655019,DepthScenes,duration_manipulation_targetAtFixation,jsons/v1_VE1000_randls_27.json,http://54.235.29.9/FacialAge/BNav_EC2/DepthDuration/v2_depth_duration_MTurk/v2_DepthDuration_HTML.html#118,118,3072,1728,3072,1728,8-29-2022,11-22-21,69,depth_duration_stimuli/000788_2014-06-08_22-34-36_260595134347_rgbf000131-resize_1/000788_2014-06-08_22-34-36_260595134347_rgbf000131-resize_1-target.png,1000,3.359,8.0,3519,999,feet,jsons/v1_VE1000_randls_27.json,865535,2597185,44,Man
69,655019,DepthScenes,duration_manipulation_targetAtFixation,jsons/v1_VE1000_randls_27.json,http://54.235.29.9/FacialAge/BNav_EC2/DepthDuration/v2_depth_duration_MTurk/v2_DepthDuration_HTML.html#118,118,3072,1728,3072,1728,8-29-2022,11-22-21,70,depth_duration_stimuli/001235_2014-06-17_16-37-36_260595134347_rgbf000084-resize_4/001235_2014-06-17_16-37-36_260595134347_rgbf000084-resize_4-target.png,1000,3.6605,8.5,3644,987,feet,jsons/v1_VE1000_randls_27.json,865535,2597185,44,Man
70,655019,DepthScenes,duration_manipulation_targetAtFixation,jsons/v1_VE1000_randls_27.json,http://54.235.29.9/FacialAge/BNav_EC2/DepthDuration/v2_depth_duration_MTurk/v2_DepthDuration_HTML.html#118,118,3072,1728,3072,1728,8-29-2022,11-22-21,71,depth_duration_stimuli/000929_2014-06-09_16-33-19_260595134347_rgbf000139-resize_0/000929_2014-06-09_16-33-19_260595134347_rgbf000139-resize_0-target.png,1000,2.8680000000000003,9.0,4832,988,feet,jsons/v1_VE1000_randls_27.json,865535,2597185,44,Man
71,655019,DepthScenes,duration_manipulation_targetAtFixation,jsons/v1_VE1000_randls_27.json,http://54.235.29.9/FacialAge/BNav_EC2/DepthDuration/v2_depth_duration_MTurk/v2_DepthDuration_HTML.html#118,118,3072,1728,3072,1728,8-29-2022,11-22-21,72,depth_duration_stimuli/000457_2014-06-08_16-52-43_260595134347_rgbf000199-resize_1/000457_2014-06-08_16-52-43_260595134347_rgbf000199-resize_1-target.png,1000,3.6489999999999996,6.5,4261,988,feet,jsons/v1_VE1000_randls_27.json,865535,2597185,44,Man
72,655019,DepthScenes,duration_manipulation_targetAtFixation,jsons/v1_VE1000_randls_27.json,http://54.235.29.9/FacialAge/BNav_EC2/DepthDuration/v2_depth_duration_MTurk/v2_DepthDuration_HTML.html#118,118,3072,1728,3072,1728,8-29-2022,11-22-21,73,depth_duration_stimuli/001449_2014-06-19_17-01-27_260595134347_rgbf000116-resize_2/001449_2014-06-19_17-01-27_260595134347_rgbf000116-resize_2-target.png,1000,3.452,5.0,4187,1002,feet,jsons/v1_VE1000_randls_27.json,865535,2597185,44,Man
73,655019,DepthScenes,duration_manipulation_targetAtFixation,jsons/v1_VE1000_randls_27.json,http://54.235.29.9/FacialAge/BNav_EC2/DepthDuration/v2_depth_duration_MTurk/v2_DepthDuration_HTML.html#118,118,3072,1728,3072,1728,8-29-2022,11-22-21,74,depth_duration_stimuli/001450_2014-06-19_17-02-03_260595134347_rgbf000203-resize_4/001450_2014-06-19_17-02-03_260595134347_rgbf000203-resize_4-target.png,1000,4.0106666666667,9.0,6927,993,feet,jsons/v1_VE1000_randls_27.json,865535,2597185,44,Man
74,655019,DepthScenes,duration_manipulation_targetAtFixation,jsons/v1_VE1000_randls_27.json,http://54.235.29.9/FacialAge/BNav_EC2/DepthDuration/v2_depth_duration_MTurk/v2_DepthDuration_HTML.html#118,118,3072,1728,3072,1728,8-29-2022,11-22-21,75,depth_duration_stimuli/002725_2014-06-22_11-47-51_094959634447_rgbf000070-resize_1/002725_2014-06-22_11-47-51_094959634447_rgbf000070-resize_1-target.png,1000,2.195,4.0,3321,998,feet,jsons/v1_VE1000_randls_27.json,865535,2597185,44,Man
75,655019,DepthScenes,duration_manipulation_targetAtFixation,jsons/v1_VE1000_randls_27.json,http://54.235.29.9/FacialAge/BNav_EC2/DepthDuration/v2_depth_duration_MTurk/v2_DepthDuration_HTML.html#118,118,3072,1728,3072,1728,8-29-2022,11-22-21,76,depth_duration_stimuli/002344_2014-06-28_20-06-29_260595134347_rgbf000030-resize_1/002344_2014-06-28_20-06-29_260595134347_rgbf000030-resize_1-target.png,1000,1.5795,2.0,3819,995,feet,jsons/v1_VE1000_randls_27.json,865535,2597185,44,Man
76,655019,DepthScenes,duration_manipulation_targetAtFixation,jsons/v1_VE1000_randls_27.json,http://54.235.29.9/FacialAge/BNav_EC2/DepthDuration/v2_depth_duration_MTurk/v2_DepthDuration_HTML.html#118,118,3072,1728,3072,1728,8-29-2022,11-22-21,77,depth_duration_stimuli/001092_2014-06-15_17-34-58_260595134347_rgbf000171-resize_3/001092_2014-06-15_17-34-58_260595134347_rgbf000171-resize_3-target.png,1000,2.6935,4.0,5235,995,feet,jsons/v1_VE1000_randls_27.json,865535,2597185,44,Man
77,655019,DepthScenes,duration_manipulation_targetAtFixation,jsons/v1_VE1000_randls_27.json,http://54.235.29.9/FacialAge/BNav_EC2/DepthDuration/v2_depth_duration_MTurk/v2_DepthDuration_HTML.html#118,118,3072,1728,3072,1728,8-29-2022,11-22-21,78,depth_duration_stimuli/002545_2014-06-24_13-38-53_094959634447_rgbf000080-resize_4/002545_2014-06-24_13-38-53_094959634447_rgbf000080-resize_4-target.png,1000,1.9205,5.0,3322,997,feet,jsons/v1_VE1000_randls_27.json,865535,2597185,44,Man
78,655019,DepthScenes,duration_manipulation_targetAtFixation,jsons/v1_VE1000_randls_27.json,http://54.235.29.9/FacialAge/BNav_EC2/DepthDuration/v2_depth_duration_MTurk/v2_DepthDuration_HTML.html#118,118,3072,1728,3072,1728,8-29-2022,11-22-21,79,depth_duration_stimuli/000917_2014-06-09_22-45-29_260595134347_rgbf000149-resize_3/000917_2014-06-09_22-45-29_260595134347_rgbf000149-resize_3-target.png,1000,4.1865,7.0,3410,993,feet,jsons/v1_VE1000_randls_27.json,865535,2597185,44,Man
79,655019,DepthScenes,duration_manipulation_targetAtFixation,jsons/v1_VE1000_randls_27.json,http://54.235.29.9/FacialAge/BNav_EC2/DepthDuration/v2_depth_duration_MTurk/v2_DepthDuration_HTML.html#118,118,3072,1728,3072,1728,8-29-2022,11-22-21,80,depth_duration_stimuli/002323_2014-06-28_20-01-54_260595134347_rgbf000051-resize_4/002323_2014-06-28_20-01-54_260595134347_rgbf000051-resize_4-target.png,1000,3.7310000000000003,8.0,3770,995,feet,jsons/v1_VE1000_randls_27.json,865535,2597185,44,Man
80,655019,DepthScenes,duration_manipulation_targetAtFixation,jsons/v1_VE1000_randls_27.json,http://54.235.29.9/FacialAge/BNav_EC2/DepthDuration/v2_depth_duration_MTurk/v2_DepthDuration_HTML.html#118,118,3072,1728,3072,1728,8-29-2022,11-22-21,81,depth_duration_stimuli/001133_2014-06-17_14-49-16_260595134347_rgbf000100-resize_0/001133_2014-06-17_14-49-16_260595134347_rgbf000100-resize_0-target.png,1000,4.2115,13.0,3575,1006,feet,jsons/v1_VE1000_randls_27.json,865535,2597185,44,Man
81,655019,DepthScenes,duration_manipulation_targetAtFixation,jsons/v1_VE1000_randls_27.json,http://54.235.29.9/FacialAge/BNav_EC2/DepthDuration/v2_depth_duration_MTurk/v2_DepthDuration_HTML.html#118,118,3072,1728,3072,1728,8-29-2022,11-22-21,82,depth_duration_stimuli/001132_2014-06-17_14-48-54_260595134347_rgbf000100-resize_2/001132_2014-06-17_14-48-54_260595134347_rgbf000100-resize_2-target.png,1000,3.753,8.0,3633,990,feet,jsons/v1_VE1000_randls_27.json,865535,2597185,44,Man
82,655019,DepthScenes,duration_manipulation_targetAtFixation,jsons/v1_VE1000_randls_27.json,http://54.235.29.9/FacialAge/BNav_EC2/DepthDuration/v2_depth_duration_MTurk/v2_DepthDuration_HTML.html#118,118,3072,1728,3072,1728,8-29-2022,11-22-21,83,depth_duration_stimuli/001555_2014-06-20_17-12-10_260595134347_rgbf000065-resize_4/001555_2014-06-20_17-12-10_260595134347_rgbf000065-resize_4-target.png,1000,1.633,2.5,3637,995,feet,jsons/v1_VE1000_randls_27.json,865535,2597185,44,Man
83,655019,DepthScenes,duration_manipulation_targetAtFixation,jsons/v1_VE1000_randls_27.json,http://54.235.29.9/FacialAge/BNav_EC2/DepthDuration/v2_depth_duration_MTurk/v2_DepthDuration_HTML.html#118,118,3072,1728,3072,1728,8-29-2022,11-22-21,84,depth_duration_stimuli/000103_2014-05-14_22-01-17_260595134347_rgbf000152-resize_5/000103_2014-05-14_22-01-17_260595134347_rgbf000152-resize_5-target.png,1000,1.993,5.0,3447,998,feet,jsons/v1_VE1000_randls_27.json,865535,2597185,44,Man
84,655019,DepthScenes,duration_manipulation_targetAtFixation,jsons/v1_VE1000_randls_27.json,http://54.235.29.9/FacialAge/BNav_EC2/DepthDuration/v2_depth_duration_MTurk/v2_DepthDuration_HTML.html#118,118,3072,1728,3072,1728,8-29-2022,11-22-21,85,depth_duration_stimuli/000810_2014-06-08_17-20-01_260595134347_rgbf000105-resize_0/000810_2014-06-08_17-20-01_260595134347_rgbf000105-resize_0-target.png,1000,1.4865,3.5,4610,993,feet,jsons/v1_VE1000_randls_27.json,865535,2597185,44,Man
85,655019,DepthScenes,duration_manipulation_targetAtFixation,jsons/v1_VE1000_randls_27.json,http://54.235.29.9/FacialAge/BNav_EC2/DepthDuration/v2_depth_duration_MTurk/v2_DepthDuration_HTML.html#118,118,3072,1728,3072,1728,8-29-2022,11-22-21,86,depth_duration_stimuli/001214_2014-06-17_16-13-55_260595134347_rgbf000111-resize_0/001214_2014-06-17_16-13-55_260595134347_rgbf000111-resize_0-target.png,1000,2.6505,4.0,3074,998,feet,jsons/v1_VE1000_randls_27.json,865535,2597185,44,Man
86,655019,DepthScenes,duration_manipulation_targetAtFixation,jsons/v1_VE1000_randls_27.json,http://54.235.29.9/FacialAge/BNav_EC2/DepthDuration/v2_depth_duration_MTurk/v2_DepthDuration_HTML.html#118,118,3072,1728,3072,1728,8-29-2022,11-22-21,87,depth_duration_stimuli/001810_2014-06-26_20-51-35_260595134347_rgbf000040-resize_3/001810_2014-06-26_20-51-35_260595134347_rgbf000040-resize_3-target.png,1000,2.2525,4.0,3131,1003,feet,jsons/v1_VE1000_randls_27.json,865535,2597185,44,Man
87,655019,DepthScenes,duration_manipulation_targetAtFixation,jsons/v1_VE1000_randls_27.json,http://54.235.29.9/FacialAge/BNav_EC2/DepthDuration/v2_depth_duration_MTurk/v2_DepthDuration_HTML.html#118,118,3072,1728,3072,1728,8-29-2022,11-22-21,88,depth_duration_stimuli/003010_2014-06-15_12-54-35_094959634447_rgbf000112-resize_0/003010_2014-06-15_12-54-35_094959634447_rgbf000112-resize_0-target.png,1000,3.1185,7.5,4587,1000,feet,jsons/v1_VE1000_randls_27.json,865535,2597185,44,Man
88,655019,DepthScenes,duration_manipulation_targetAtFixation,jsons/v1_VE1000_randls_27.json,http://54.235.29.9/FacialAge/BNav_EC2/DepthDuration/v2_depth_duration_MTurk/v2_DepthDuration_HTML.html#118,118,3072,1728,3072,1728,8-29-2022,11-22-21,89,depth_duration_stimuli/002663_2014-06-13_15-50-26_094959634447_rgbf000075-resize_1/002663_2014-06-13_15-50-26_094959634447_rgbf000075-resize_1-target.png,1000,4.7495,11.0,8723,989,feet,jsons/v1_VE1000_randls_27.json,865535,2597185,44,Man
89,655019,DepthScenes,duration_manipulation_targetAtFixation,jsons/v1_VE1000_randls_27.json,http://54.235.29.9/FacialAge/BNav_EC2/DepthDuration/v2_depth_duration_MTurk/v2_DepthDuration_HTML.html#118,118,3072,1728,3072,1728,8-29-2022,11-22-21,90,depth_duration_stimuli/000409_2014-06-04_19-23-33_260595134347_rgbf000067-resize_0/000409_2014-06-04_19-23-33_260595134347_rgbf000067-resize_0-target.png,1000,3.7335,8.0,3618,1002,feet,jsons/v1_VE1000_randls_27.json,865535,2597185,44,Man
90,655019,DepthScenes,duration_manipulation_targetAtFixation,jsons/v1_VE1000_randls_27.json,http://54.235.29.9/FacialAge/BNav_EC2/DepthDuration/v2_depth_duration_MTurk/v2_DepthDuration_HTML.html#118,118,3072,1728,3072,1728,8-29-2022,11-22-21,91,depth_duration_stimuli/003534_2014-05-22_15-06-10_094959634447_rgbf000102-resize_4/003534_2014-05-22_15-06-10_094959634447_rgbf000102-resize_4-target.png,1000,1.426,1.5,3841,997,feet,jsons/v1_VE1000_randls_27.json,865535,2597185,44,Man
91,655019,DepthScenes,duration_manipulation_targetAtFixation,jsons/v1_VE1000_randls_27.json,http://54.235.29.9/FacialAge/BNav_EC2/DepthDuration/v2_depth_duration_MTurk/v2_DepthDuration_HTML.html#118,118,3072,1728,3072,1728,8-29-2022,11-22-21,92,depth_duration_stimuli/002637_2014-06-24_14-51-13_094959634447_rgbf000066-resize_4/002637_2014-06-24_14-51-13_094959634447_rgbf000066-resize_4-target.png,1000,1.9955,3.5,6715,993,feet,jsons/v1_VE1000_randls_27.json,865535,2597185,44,Man
92,655019,DepthScenes,duration_manipulation_targetAtFixation,jsons/v1_VE1000_randls_27.json,http://54.235.29.9/FacialAge/BNav_EC2/DepthDuration/v2_depth_duration_MTurk/v2_DepthDuration_HTML.html#118,118,3072,1728,3072,1728,8-29-2022,11-22-21,93,depth_duration_stimuli/002279_2014-06-28_18-55-32_260595134347_rgbf000040-resize_5/002279_2014-06-28_18-55-32_260595134347_rgbf000040-resize_5-target.png,1000,1.5043333333333,2.0,6935,998,feet,jsons/v1_VE1000_randls_27.json,865535,2597185,44,Man
93,655019,DepthScenes,duration_manipulation_targetAtFixation,jsons/v1_VE1000_randls_27.json,http://54.235.29.9/FacialAge/BNav_EC2/DepthDuration/v2_depth_duration_MTurk/v2_DepthDuration_HTML.html#118,118,3072,1728,3072,1728,8-29-2022,11-22-21,94,depth_duration_stimuli/000635_2014-06-08_16-38-42_260595134347_rgbf000106-resize_1/000635_2014-06-08_16-38-42_260595134347_rgbf000106-resize_1-target.png,1000,2.074,0.0,5412,997,feet,jsons/v1_VE1000_randls_27.json,865535,2597185,44,Man
94,655019,DepthScenes,duration_manipulation_targetAtFixation,jsons/v1_VE1000_randls_27.json,http://54.235.29.9/FacialAge/BNav_EC2/DepthDuration/v2_depth_duration_MTurk/v2_DepthDuration_HTML.html#118,118,3072,1728,3072,1728,8-29-2022,11-22-21,95,depth_duration_stimuli/001158_2014-06-17_15-32-16_260595134347_rgbf000138-resize_2/001158_2014-06-17_15-32-16_260595134347_rgbf000138-resize_2-target.png,1000,4.5315,14.0,5189,1006,feet,jsons/v1_VE1000_randls_27.json,865535,2597185,44,Man
95,655019,DepthScenes,duration_manipulation_targetAtFixation,jsons/v1_VE1000_randls_27.json,http://54.235.29.9/FacialAge/BNav_EC2/DepthDuration/v2_depth_duration_MTurk/v2_DepthDuration_HTML.html#118,118,3072,1728,3072,1728,8-29-2022,11-22-21,96,depth_duration_stimuli/000556_2014-06-09_22-42-56_260595134347_rgbf000214-resize_1/000556_2014-06-09_22-42-56_260595134347_rgbf000214-resize_1-target.png,1000,4.8415,10.0,9522,999,feet,jsons/v1_VE1000_randls_27.json,865535,2597185,44,Man
96,655019,DepthScenes,duration_manipulation_targetAtFixation,jsons/v1_VE1000_randls_27.json,http://54.235.29.9/FacialAge/BNav_EC2/DepthDuration/v2_depth_duration_MTurk/v2_DepthDuration_HTML.html#118,118,3072,1728,3072,1728,8-29-2022,11-22-21,97,depth_duration_stimuli/001806_2014-06-26_20-50-20_260595134347_rgbf000091-resize_1/001806_2014-06-26_20-50-20_260595134347_rgbf000091-resize_1-target.png,1000,2.7305,4.0,3439,1000,feet,jsons/v1_VE1000_randls_27.json,865535,2597185,44,Man
97,655019,DepthScenes,duration_manipulation_targetAtFixation,jsons/v1_VE1000_randls_27.json,http://54.235.29.9/FacialAge/BNav_EC2/DepthDuration/v2_depth_duration_MTurk/v2_DepthDuration_HTML.html#118,118,3072,1728,3072,1728,8-29-2022,11-22-21,98,depth_duration_stimuli/001617_2014-06-20_11-35-32_260595134347_rgbf000066-resize_1/001617_2014-06-20_11-35-32_260595134347_rgbf000066-resize_1-target.png,1000,3.7910000000000004,9.0,6264,999,feet,jsons/v1_VE1000_randls_27.json,865535,2597185,44,Man
98,655019,DepthScenes,duration_manipulation_targetAtFixation,jsons/v1_VE1000_randls_27.json,http://54.235.29.9/FacialAge/BNav_EC2/DepthDuration/v2_depth_duration_MTurk/v2_DepthDuration_HTML.html#118,118,3072,1728,3072,1728,8-29-2022,11-22-21,99,depth_duration_stimuli/001540_2014-06-20_17-01-05_260595134347_rgbf000086-resize_2/001540_2014-06-20_17-01-05_260595134347_rgbf000086-resize-original.jpg,1000,1.459,0.0,3057,997,feet,jsons/v1_VE1000_randls_27.json,865535,2597185,44,Man
99,655019,DepthScenes,duration_manipulation_targetAtFixation,jsons/v1_VE1000_randls_27.json,http://54.235.29.9/FacialAge/BNav_EC2/DepthDuration/v2_depth_duration_MTurk/v2_DepthDuration_HTML.html#118,118,3072,1728,3072,1728,8-29-2022,11-22-21,100,depth_duration_stimuli/003621_2014-05-23_18-06-08_094959634447_rgbf000101-resize_1/003621_2014-05-23_18-06-08_094959634447_rgbf000101-resize_1-target.png,1000,3.9835,10.0,3739,1002,feet,jsons/v1_VE1000_randls_27.json,865535,2597185,44,Man
100,655019,DepthScenes,duration_manipulation_targetAtFixation,jsons/v1_VE1000_randls_27.json,http://54.235.29.9/FacialAge/BNav_EC2/DepthDuration/v2_depth_duration_MTurk/v2_DepthDuration_HTML.html#118,118,3072,1728,3072,1728,8-29-2022,11-22-21,101,depth_duration_stimuli/001584_2014-06-20_11-07-43_260595134347_rgbf000002-resize_1/001584_2014-06-20_11-07-43_260595134347_rgbf000002-resize_1-target.png,1000,3.53,9.0,4983,991,feet,jsons/v1_VE1000_randls_27.json,865535,2597185,44,Man
101,655019,DepthScenes,duration_manipulation_targetAtFixation,jsons/v1_VE1000_randls_27.json,http://54.235.29.9/FacialAge/BNav_EC2/DepthDuration/v2_depth_duration_MTurk/v2_DepthDuration_HTML.html#118,118,3072,1728,3072,1728,8-29-2022,11-22-21,102,depth_duration_stimuli/000758_2014-06-08_22-05-08_260595134347_rgbf000085-resize_0/000758_2014-06-08_22-05-08_260595134347_rgbf000085-resize_0-target.png,1000,3.3810000000000002,10.0,3209,998,feet,jsons/v1_VE1000_randls_27.json,865535,2597185,44,Man
102,655019,DepthScenes,duration_manipulation_targetAtFixation,jsons/v1_VE1000_randls_27.json,http://54.235.29.9/FacialAge/BNav_EC2/DepthDuration/v2_depth_duration_MTurk/v2_DepthDuration_HTML.html#118,118,3072,1728,3072,1728,8-29-2022,11-22-21,103,depth_duration_stimuli/000854_2014-06-09_19-43-13_260595134347_rgbf000066-resize_0/000854_2014-06-09_19-43-13_260595134347_rgbf000066-resize_0-target.png,1000,3.068,4.5,3973,1008,feet,jsons/v1_VE1000_randls_27.json,865535,2597185,44,Man
103,655019,DepthScenes,duration_manipulation_targetAtFixation,jsons/v1_VE1000_randls_27.json,http://54.235.29.9/FacialAge/BNav_EC2/DepthDuration/v2_depth_duration_MTurk/v2_DepthDuration_HTML.html#118,118,3072,1728,3072,1728,8-29-2022,11-22-21,104,depth_duration_stimuli/001244_2014-06-17_16-47-45_260595134347_rgbf000030-resize_4/001244_2014-06-17_16-47-45_260595134347_rgbf000030-resize_4-target.png,1000,2.0425,4.0,3633,999,feet,jsons/v1_VE1000_randls_27.json,865535,2597185,44,Man
104,655019,DepthScenes,duration_manipulation_targetAtFixation,jsons/v1_VE1000_randls_27.json,http://54.235.29.9/FacialAge/BNav_EC2/DepthDuration/v2_depth_duration_MTurk/v2_DepthDuration_HTML.html#118,118,3072,1728,3072,1728,8-29-2022,11-22-21,105,depth_duration_stimuli/003495_2014-05-21_16-01-51_094959634447_rgbf000100-resize_3/003495_2014-05-21_16-01-51_094959634447_rgbf000100-resize_3-target.png,1000,1.6255,3.0,3796,997,feet,jsons/v1_VE1000_randls_27.json,865535,2597185,44,Man
105,655019,DepthScenes,duration_manipulation_targetAtFixation,jsons/v1_VE1000_randls_27.json,http://54.235.29.9/FacialAge/BNav_EC2/DepthDuration/v2_depth_duration_MTurk/v2_DepthDuration_HTML.html#118,118,3072,1728,3072,1728,8-29-2022,11-22-21,106,depth_duration_stimuli/000368_2014-06-09_15-53-01_260595134347_rgbf000155-resize_2/000368_2014-06-09_15-53-01_260595134347_rgbf000155-resize_2-target.png,1000,2.4859999999999998,4.0,3212,1001,feet,jsons/v1_VE1000_randls_27.json,865535,2597185,44,Man
106,655019,DepthScenes,duration_manipulation_targetAtFixation,jsons/v1_VE1000_randls_27.json,http://54.235.29.9/FacialAge/BNav_EC2/DepthDuration/v2_depth_duration_MTurk/v2_DepthDuration_HTML.html#118,118,3072,1728,3072,1728,8-29-2022,11-22-21,107,depth_duration_stimuli/002678_2014-06-13_16-15-32_094959634447_rgbf000151-resize_6/002678_2014-06-13_16-15-32_094959634447_rgbf000151-resize_6-target.png,1000,2.1830000000000003,6.5,3797,997,feet,jsons/v1_VE1000_randls_27.json,865535,2597185,44,Man
107,655019,DepthScenes,duration_manipulation_targetAtFixation,jsons/v1_VE1000_randls_27.json,http://54.235.29.9/FacialAge/BNav_EC2/DepthDuration/v2_depth_duration_MTurk/v2_DepthDuration_HTML.html#118,118,3072,1728,3072,1728,8-29-2022,11-22-21,108,depth_duration_stimuli/001066_2014-06-08_22-03-20_260595134347_rgbf000066-resize_4/001066_2014-06-08_22-03-20_260595134347_rgbf000066-resize_4-target.png,1000,4.2330000000000005,12.0,5493,993,feet,jsons/v1_VE1000_randls_27.json,865535,2597185,44,Man
108,655019,DepthScenes,duration_manipulation_targetAtFixation,jsons/v1_VE1000_randls_27.json,http://54.235.29.9/FacialAge/BNav_EC2/DepthDuration/v2_depth_duration_MTurk/v2_DepthDuration_HTML.html#118,118,3072,1728,3072,1728,8-29-2022,11-22-21,109,depth_duration_stimuli/000742_2014-06-08_18-48-09_260595134347_rgbf000164-resize_4/000742_2014-06-08_18-48-09_260595134347_rgbf000164-resize_4-target.png,1000,4.632,10.0,3143,1002,feet,jsons/v1_VE1000_randls_27.json,865535,2597185,44,Man
109,655019,DepthScenes,duration_manipulation_targetAtFixation,jsons/v1_VE1000_randls_27.json,http://54.235.29.9/FacialAge/BNav_EC2/DepthDuration/v2_depth_duration_MTurk/v2_DepthDuration_HTML.html#118,118,3072,1728,3072,1728,8-29-2022,11-22-21,110,depth_duration_stimuli/002630_2014-06-24_14-47-50_094959634447_rgbf000055-resize_1/002630_2014-06-24_14-47-50_094959634447_rgbf000055-resize_1-target.png,1000,3.0095,10.0,3916,1001,feet,jsons/v1_VE1000_randls_27.json,865535,2597185,44,Man
110,655019,DepthScenes,duration_manipulation_targetAtFixation,jsons/v1_VE1000_randls_27.json,http://54.235.29.9/FacialAge/BNav_EC2/DepthDuration/v2_depth_duration_MTurk/v2_DepthDuration_HTML.html#118,118,3072,1728,3072,1728,8-29-2022,11-22-21,111,depth_duration_stimuli/002758_2014-06-22_19-11-20_094959634447_rgbf000128-resize_1/002758_2014-06-22_19-11-20_094959634447_rgbf000128-resize_1-target.png,1000,2.555,4.5,4549,993,feet,jsons/v1_VE1000_randls_27.json,865535,2597185,44,Man
111,655019,DepthScenes,duration_manipulation_targetAtFixation,jsons/v1_VE1000_randls_27.json,http://54.235.29.9/FacialAge/BNav_EC2/DepthDuration/v2_depth_duration_MTurk/v2_DepthDuration_HTML.html#118,118,3072,1728,3072,1728,8-29-2022,11-22-21,112,depth_duration_stimuli/000736_2014-06-08_18-24-15_260595134347_rgbf000206-resize_3/000736_2014-06-08_18-24-15_260595134347_rgbf000206-resize_3-target.png,1000,3.515,8.5,5875,996,feet,jsons/v1_VE1000_randls_27.json,865535,2597185,44,Man
112,655019,DepthScenes,duration_manipulation_targetAtFixation,jsons/v1_VE1000_randls_27.json,http://54.235.29.9/FacialAge/BNav_EC2/DepthDuration/v2_depth_duration_MTurk/v2_DepthDuration_HTML.html#118,118,3072,1728,3072,1728,8-29-2022,11-22-21,113,depth_duration_stimuli/000137_2014-05-20_17-04-49_260595134347_rgbf000120-resize_1/000137_2014-05-20_17-04-49_260595134347_rgbf000120-resize_1-target.png,1000,3.786,10.0,3925,986,feet,jsons/v1_VE1000_randls_27.json,865535,2597185,44,Man
113,655019,DepthScenes,duration_manipulation_targetAtFixation,jsons/v1_VE1000_randls_27.json,http://54.235.29.9/FacialAge/BNav_EC2/DepthDuration/v2_depth_duration_MTurk/v2_DepthDuration_HTML.html#118,118,3072,1728,3072,1728,8-29-2022,11-22-21,114,depth_duration_stimuli/002905_2014-06-03_18-04-43_094959634447_rgbf000151-resize_2/002905_2014-06-03_18-04-43_094959634447_rgbf000151-resize_2-target.png,1000,2.0295,3.5,4492,1011,feet,jsons/v1_VE1000_randls_27.json,865535,2597185,44,Man
114,655019,DepthScenes,duration_manipulation_targetAtFixation,jsons/v1_VE1000_randls_27.json,http://54.235.29.9/FacialAge/BNav_EC2/DepthDuration/v2_depth_duration_MTurk/v2_DepthDuration_HTML.html#118,118,3072,1728,3072,1728,8-29-2022,11-22-21,115,depth_duration_stimuli/003423_2014-05-21_10-23-26_094959634447_rgbf002665-resize_2/003423_2014-05-21_10-23-26_094959634447_rgbf002665-resize_2-target.png,1000,3.2575,11.0,6745,998,feet,jsons/v1_VE1000_randls_27.json,865535,2597185,44,Man
115,655019,DepthScenes,duration_manipulation_targetAtFixation,jsons/v1_VE1000_randls_27.json,http://54.235.29.9/FacialAge/BNav_EC2/DepthDuration/v2_depth_duration_MTurk/v2_DepthDuration_HTML.html#118,118,3072,1728,3072,1728,8-29-2022,11-22-21,116,depth_duration_stimuli/001170_2014-06-17_15-43-44_260595134347_rgbf000096-resize_6/001170_2014-06-17_15-43-44_260595134347_rgbf000096-resize-original.jpg,1000,1.1909999999999998,0.0,3638,988,feet,jsons/v1_VE1000_randls_27.json,865535,2597185,44,Man
116,655019,DepthScenes,duration_manipulation_targetAtFixation,jsons/v1_VE1000_randls_27.json,http://54.235.29.9/FacialAge/BNav_EC2/DepthDuration/v2_depth_duration_MTurk/v2_DepthDuration_HTML.html#118,118,3072,1728,3072,1728,8-29-2022,11-22-21,117,depth_duration_stimuli/002445_2014-06-28_20-32-16_260595134347_rgbf000029-resize_4/002445_2014-06-28_20-32-16_260595134347_rgbf000029-resize_4-target.png,1000,2.5315,4.0,7172,990,feet,jsons/v1_VE1000_randls_27.json,865535,2597185,44,Man
117,655019,DepthScenes,duration_manipulation_targetAtFixation,jsons/v1_VE1000_randls_27.json,http://54.235.29.9/FacialAge/BNav_EC2/DepthDuration/v2_depth_duration_MTurk/v2_DepthDuration_HTML.html#118,118,3072,1728,3072,1728,8-29-2022,11-22-21,118,depth_duration_stimuli/000780_2014-06-08_22-28-29_260595134347_rgbf000126-resize_1/000780_2014-06-08_22-28-29_260595134347_rgbf000126-resize_1-target.png,1000,3.3825,7.0,3788,988,feet,jsons/v1_VE1000_randls_27.json,865535,2597185,44,Man
118,655019,DepthScenes,duration_manipulation_targetAtFixation,jsons/v1_VE1000_randls_27.json,http://54.235.29.9/FacialAge/BNav_EC2/DepthDuration/v2_depth_duration_MTurk/v2_DepthDuration_HTML.html#118,118,3072,1728,3072,1728,8-29-2022,11-22-21,119,depth_duration_stimuli/002748_2014-06-22_19-07-22_094959634447_rgbf000078-resize_1/002748_2014-06-22_19-07-22_094959634447_rgbf000078-resize_1-target.png,1000,4.6705,12.0,6486,999,feet,jsons/v1_VE1000_randls_27.json,865535,2597185,44,Man
119,655019,DepthScenes,duration_manipulation_targetAtFixation,jsons/v1_VE1000_randls_27.json,http://54.235.29.9/FacialAge/BNav_EC2/DepthDuration/v2_depth_duration_MTurk/v2_DepthDuration_HTML.html#118,118,3072,1728,3072,1728,8-29-2022,11-22-21,120,depth_duration_stimuli/002995_2014-06-15_12-31-26_094959634447_rgbf000150-resize_1/002995_2014-06-15_12-31-26_094959634447_rgbf000150-resize_1-target.png,1000,3.8360000000000003,1.0,4039,992,feet,jsons/v1_VE1000_randls_27.json,865535,2597185,44,Man
120,655019,DepthScenes,duration_manipulation_targetAtFixation,jsons/v1_VE1000_randls_27.json,http://54.235.29.9/FacialAge/BNav_EC2/DepthDuration/v2_depth_duration_MTurk/v2_DepthDuration_HTML.html#118,118,3072,1728,3072,1728,8-29-2022,11-22-21,121,depth_duration_stimuli/000009_2014-05-26_14-32-05_260595134347_rgbf000034-resize_3/000009_2014-05-26_14-32-05_260595134347_rgbf000034-resize_3-target.png,1000,3.8715,14.0,6201,998,feet,jsons/v1_VE1000_randls_27.json,865535,2597185,44,Man
121,655019,DepthScenes,duration_manipulation_targetAtFixation,jsons/v1_VE1000_randls_27.json,http://54.235.29.9/FacialAge/BNav_EC2/DepthDuration/v2_depth_duration_MTurk/v2_DepthDuration_HTML.html#118,118,3072,1728,3072,1728,8-29-2022,11-22-21,122,depth_duration_stimuli/001828_2014-06-26_21-40-03_260595134347_rgbf000024-resize_0/001828_2014-06-26_21-40-03_260595134347_rgbf000024-resize_0-target.png,1000,4.8260000000000005,12.0,3379,997,feet,jsons/v1_VE1000_randls_27.json,865535,2597185,44,Man
122,655019,DepthScenes,duration_manipulation_targetAtFixation,jsons/v1_VE1000_randls_27.json,http://54.235.29.9/FacialAge/BNav_EC2/DepthDuration/v2_depth_duration_MTurk/v2_DepthDuration_HTML.html#118,118,3072,1728,3072,1728,8-29-2022,11-22-21,123,depth_duration_stimuli/000493_2014-06-09_21-01-18_260595134347_rgbf000196-resize_3/000493_2014-06-09_21-01-18_260595134347_rgbf000196-resize_3-target.png,1000,3.44,7.0,3374,1015,feet,jsons/v1_VE1000_randls_27.json,865535,2597185,44,Man
123,655019,DepthScenes,duration_manipulation_targetAtFixation,jsons/v1_VE1000_randls_27.json,http://54.235.29.9/FacialAge/BNav_EC2/DepthDuration/v2_depth_duration_MTurk/v2_DepthDuration_HTML.html#118,118,3072,1728,3072,1728,8-29-2022,11-22-21,124,depth_duration_stimuli/000191_2014-05-12_17-07-38_260595134347_rgbf000199-resize_0/000191_2014-05-12_17-07-38_260595134347_rgbf000199-resize_0-target.png,1000,3.7995,9.0,4864,1006,feet,jsons/v1_VE1000_randls_27.json,865535,2597185,44,Man
124,655019,DepthScenes,duration_manipulation_targetAtFixation,jsons/v1_VE1000_randls_27.json,http://54.235.29.9/FacialAge/BNav_EC2/DepthDuration/v2_depth_duration_MTurk/v2_DepthDuration_HTML.html#118,118,3072,1728,3072,1728,8-29-2022,11-22-21,125,depth_duration_stimuli/000414_2014-06-04_19-49-13_260595134347_rgbf000044-resize_0/000414_2014-06-04_19-49-13_260595134347_rgbf000044-resize_0-target.png,1000,4.329,12.0,5210,995,feet,jsons/v1_VE1000_randls_27.json,865535,2597185,44,Man
125,655019,DepthScenes,duration_manipulation_targetAtFixation,jsons/v1_VE1000_randls_27.json,http://54.235.29.9/FacialAge/BNav_EC2/DepthDuration/v2_depth_duration_MTurk/v2_DepthDuration_HTML.html#118,118,3072,1728,3072,1728,8-29-2022,11-22-21,126,depth_duration_stimuli/003129_2014-05-12_10-48-10_094959634447_rgbf000100-resize_0/003129_2014-05-12_10-48-10_094959634447_rgbf000100-resize_0-target.png,1000,4.9305,15.0,3528,989,feet,jsons/v1_VE1000_randls_27.json,865535,2597185,44,Man
126,655019,DepthScenes,duration_manipulation_targetAtFixation,jsons/v1_VE1000_randls_27.json,http://54.235.29.9/FacialAge/BNav_EC2/DepthDuration/v2_depth_duration_MTurk/v2_DepthDuration_HTML.html#118,118,3072,1728,3072,1728,8-29-2022,11-22-21,127,depth_duration_stimuli/001164_2014-06-17_15-35-46_260595134347_rgbf000085-resize_3/001164_2014-06-17_15-35-46_260595134347_rgbf000085-resize_3-target.png,1000,2.354,6.0,3275,1014,feet,jsons/v1_VE1000_randls_27.json,865535,2597185,44,Man
127,655019,DepthScenes,duration_manipulation_targetAtFixation,jsons/v1_VE1000_randls_27.json,http://54.235.29.9/FacialAge/BNav_EC2/DepthDuration/v2_depth_duration_MTurk/v2_DepthDuration_HTML.html#118,118,3072,1728,3072,1728,8-29-2022,11-22-21,128,depth_duration_stimuli/001136_2014-06-17_15-19-41_260595134347_rgbf000076-resize_3/001136_2014-06-17_15-19-41_260595134347_rgbf000076-resize_3-target.png,1000,1.8655,4.0,2929,1003,feet,jsons/v1_VE1000_randls_27.json,865535,2597185,44,Man
128,655019,DepthScenes,duration_manipulation_targetAtFixation,jsons/v1_VE1000_randls_27.json,http://54.235.29.9/FacialAge/BNav_EC2/DepthDuration/v2_depth_duration_MTurk/v2_DepthDuration_HTML.html#118,118,3072,1728,3072,1728,8-29-2022,11-22-21,129,depth_duration_stimuli/001199_2014-06-17_16-03-48_260595134347_rgbf000077-resize_0/001199_2014-06-17_16-03-48_260595134347_rgbf000077-resize_0-target.png,1000,3.4375,15.0,3320,1002,feet,jsons/v1_VE1000_randls_27.json,865535,2597185,44,Man
129,655019,DepthScenes,duration_manipulation_targetAtFixation,jsons/v1_VE1000_randls_27.json,http://54.235.29.9/FacialAge/BNav_EC2/DepthDuration/v2_depth_duration_MTurk/v2_DepthDuration_HTML.html#118,118,3072,1728,3072,1728,8-29-2022,11-22-21,130,depth_duration_stimuli/000502_2014-06-08_23-02-32_260595134347_rgbf000063-resize_4/000502_2014-06-08_23-02-32_260595134347_rgbf000063-resize_4-target.png,1000,2.431,5.0,3078,997,feet,jsons/v1_VE1000_randls_27.json,865535,2597185,44,Man
130,655019,DepthScenes,duration_manipulation_targetAtFixation,jsons/v1_VE1000_randls_27.json,http://54.235.29.9/FacialAge/BNav_EC2/DepthDuration/v2_depth_duration_MTurk/v2_DepthDuration_HTML.html#118,118,3072,1728,3072,1728,8-29-2022,11-22-21,131,depth_duration_stimuli/000436_2014-06-09_22-25-11_260595134347_rgbf000137-resize_1/000436_2014-06-09_22-25-11_260595134347_rgbf000137-resize_1-target.png,1000,4.0705,11.0,3777,1000,feet,jsons/v1_VE1000_randls_27.json,865535,2597185,44,Man
131,655019,DepthScenes,duration_manipulation_targetAtFixation,jsons/v1_VE1000_randls_27.json,http://54.235.29.9/FacialAge/BNav_EC2/DepthDuration/v2_depth_duration_MTurk/v2_DepthDuration_HTML.html#118,118,3072,1728,3072,1728,8-29-2022,11-22-21,132,depth_duration_stimuli/002444_2014-06-28_20-32-08_260595134347_rgbf000027-resize_0/002444_2014-06-28_20-32-08_260595134347_rgbf000027-resize_0-target.png,1000,4.388999999999999,14.0,3574,1012,feet,jsons/v1_VE1000_randls_27.json,865535,2597185,44,Man
132,655019,DepthScenes,duration_manipulation_targetAtFixation,jsons/v1_VE1000_randls_27.json,http://54.235.29.9/FacialAge/BNav_EC2/DepthDuration/v2_depth_duration_MTurk/v2_DepthDuration_HTML.html#118,118,3072,1728,3072,1728,8-29-2022,11-22-21,133,depth_duration_stimuli/000486_2014-06-09_20-47-20_260595134347_rgbf000143-resize_2/000486_2014-06-09_20-47-20_260595134347_rgbf000143-resize_2-target.png,1000,4.8325,12.0,3129,1002,feet,jsons/v1_VE1000_randls_27.json,865535,2597185,44,Man
133,655019,DepthScenes,duration_manipulation_targetAtFixation,jsons/v1_VE1000_randls_27.json,http://54.235.29.9/FacialAge/BNav_EC2/DepthDuration/v2_depth_duration_MTurk/v2_DepthDuration_HTML.html#118,118,3072,1728,3072,1728,8-29-2022,11-22-21,134,depth_duration_stimuli/003083_2014-06-15_15-21-03_094959634447_rgbf000063-resize_1/003083_2014-06-15_15-21-03_094959634447_rgbf000063-resize_1-target.png,1000,4.1405,10.0,3211,997,feet,jsons/v1_VE1000_randls_27.json,865535,2597185,44,Man
134,655019,DepthScenes,duration_manipulation_targetAtFixation,jsons/v1_VE1000_randls_27.json,http://54.235.29.9/FacialAge/BNav_EC2/DepthDuration/v2_depth_duration_MTurk/v2_DepthDuration_HTML.html#118,118,3072,1728,3072,1728,8-29-2022,11-22-21,135,depth_duration_stimuli/002072_2014-06-24_21-48-06_260595134347_rgbf000115-resize_0/002072_2014-06-24_21-48-06_260595134347_rgbf000115-resize-original.jpg,1000,4.702,0.0,3436,1010,feet,jsons/v1_VE1000_randls_27.json,865535,2597185,44,Man
135,655019,DepthScenes,duration_manipulation_targetAtFixation,jsons/v1_VE1000_randls_27.json,http://54.235.29.9/FacialAge/BNav_EC2/DepthDuration/v2_depth_duration_MTurk/v2_DepthDuration_HTML.html#118,118,3072,1728,3072,1728,8-29-2022,11-22-21,136,depth_duration_stimuli/002549_2014-06-24_13-41-39_094959634447_rgbf000022-resize_3/002549_2014-06-24_13-41-39_094959634447_rgbf000022-resize_3-target.png,1000,1.476,2.0,3898,995,feet,jsons/v1_VE1000_randls_27.json,865535,2597185,44,Man
136,655019,DepthScenes,duration_manipulation_targetAtFixation,jsons/v1_VE1000_randls_27.json,http://54.235.29.9/FacialAge/BNav_EC2/DepthDuration/v2_depth_duration_MTurk/v2_DepthDuration_HTML.html#118,118,3072,1728,3072,1728,8-29-2022,11-22-21,137,depth_duration_stimuli/002750_2014-06-22_19-08-03_094959634447_rgbf000094-resize_4/002750_2014-06-22_19-08-03_094959634447_rgbf000094-resize_4-target.png,1000,2.354,6.0,4520,986,feet,jsons/v1_VE1000_randls_27.json,865535,2597185,44,Man
137,655019,DepthScenes,duration_manipulation_targetAtFixation,jsons/v1_VE1000_randls_27.json,http://54.235.29.9/FacialAge/BNav_EC2/DepthDuration/v2_depth_duration_MTurk/v2_DepthDuration_HTML.html#118,118,3072,1728,3072,1728,8-29-2022,11-22-21,138,depth_duration_stimuli/003070_2014-06-15_14-58-27_094959634447_rgbf000150-resize_3/003070_2014-06-15_14-58-27_094959634447_rgbf000150-resize_3-target.png,1000,2.9415,8.0,3388,993,feet,jsons/v1_VE1000_randls_27.json,865535,2597185,44,Man
138,655019,DepthScenes,duration_manipulation_targetAtFixation,jsons/v1_VE1000_randls_27.json,http://54.235.29.9/FacialAge/BNav_EC2/DepthDuration/v2_depth_duration_MTurk/v2_DepthDuration_HTML.html#118,118,3072,1728,3072,1728,8-29-2022,11-22-21,139,depth_duration_stimuli/000943_2014-06-09_19-31-07_260595134347_rgbf000128-resize_1/000943_2014-06-09_19-31-07_260595134347_rgbf000128-resize_1-target.png,1000,1.9765,3.5,5137,998,feet,jsons/v1_VE1000_randls_27.json,865535,2597185,44,Man
139,655019,DepthScenes,duration_manipulation_targetAtFixation,jsons/v1_VE1000_randls_27.json,http://54.235.29.9/FacialAge/BNav_EC2/DepthDuration/v2_depth_duration_MTurk/v2_DepthDuration_HTML.html#118,118,3072,1728,3072,1728,8-29-2022,11-22-21,140,depth_duration_stimuli/001056_2014-06-08_18-46-44_260595134347_rgbf000068-resize_0/001056_2014-06-08_18-46-44_260595134347_rgbf000068-resize_0-target.png,1000,2.6625,6.5,4653,995,feet,jsons/v1_VE1000_randls_27.json,865535,2597185,44,Man
140,655019,DepthScenes,duration_manipulation_targetAtFixation,jsons/v1_VE1000_randls_27.json,http://54.235.29.9/FacialAge/BNav_EC2/DepthDuration/v2_depth_duration_MTurk/v2_DepthDuration_HTML.html#118,118,3072,1728,3072,1728,8-29-2022,11-22-21,141,depth_duration_stimuli/002199_2014-06-28_18-33-56_260595134347_rgbf000074-resize_0/002199_2014-06-28_18-33-56_260595134347_rgbf000074-resize_0-target.png,1000,1.996,2.0,3290,998,feet,jsons/v1_VE1000_randls_27.json,865535,2597185,44,Man
141,655019,DepthScenes,duration_manipulation_targetAtFixation,jsons/v1_VE1000_randls_27.json,http://54.235.29.9/FacialAge/BNav_EC2/DepthDuration/v2_depth_duration_MTurk/v2_DepthDuration_HTML.html#118,118,3072,1728,3072,1728,8-29-2022,11-22-21,142,depth_duration_stimuli/000739_2014-06-08_18-45-58_260595134347_rgbf000068-resize_1/000739_2014-06-08_18-45-58_260595134347_rgbf000068-resize_1-target.png,1000,3.534,8.0,4694,991,feet,jsons/v1_VE1000_randls_27.json,865535,2597185,44,Man
142,655019,DepthScenes,duration_manipulation_targetAtFixation,jsons/v1_VE1000_randls_27.json,http://54.235.29.9/FacialAge/BNav_EC2/DepthDuration/v2_depth_duration_MTurk/v2_DepthDuration_HTML.html#118,118,3072,1728,3072,1728,8-29-2022,11-22-21,143,depth_duration_stimuli/000734_2014-06-08_17-39-11_260595134347_rgbf000128-resize_2/000734_2014-06-08_17-39-11_260595134347_rgbf000128-resize_2-target.png,1000,4.098,7.0,4405,998,feet,jsons/v1_VE1000_randls_27.json,865535,2597185,44,Man
143,655019,DepthScenes,duration_manipulation_targetAtFixation,jsons/v1_VE1000_randls_27.json,http://54.235.29.9/FacialAge/BNav_EC2/DepthDuration/v2_depth_duration_MTurk/v2_DepthDuration_HTML.html#118,118,3072,1728,3072,1728,8-29-2022,11-22-21,144,depth_duration_stimuli/002570_2014-06-24_13-59-54_094959634447_rgbf000059-resize_0/002570_2014-06-24_13-59-54_094959634447_rgbf000059-resize_0-target.png,1000,4.037,15.0,3633,997,feet,jsons/v1_VE1000_randls_27.json,865535,2597185,44,Man
144,655019,DepthScenes,duration_manipulation_targetAtFixation,jsons/v1_VE1000_randls_27.json,http://54.235.29.9/FacialAge/BNav_EC2/DepthDuration/v2_depth_duration_MTurk/v2_DepthDuration_HTML.html#118,118,3072,1728,3072,1728,8-29-2022,11-22-21,145,depth_duration_stimuli/002467_2014-06-28_20-38-07_260595134347_rgbf000026-resize_2/002467_2014-06-28_20-38-07_260595134347_rgbf000026-resize_2-target.png,1000,4.742,11.0,3212,993,feet,jsons/v1_VE1000_randls_27.json,865535,2597185,44,Man
145,655019,DepthScenes,duration_manipulation_targetAtFixation,jsons/v1_VE1000_randls_27.json,http://54.235.29.9/FacialAge/BNav_EC2/DepthDuration/v2_depth_duration_MTurk/v2_DepthDuration_HTML.html#118,118,3072,1728,3072,1728,8-29-2022,11-22-21,146,depth_duration_stimuli/001498_2014-06-19_17-45-14_260595134347_rgbf000129-resize_4/001498_2014-06-19_17-45-14_260595134347_rgbf000129-resize-original.jpg,1000,1.4075,0.0,3177,1001,feet,jsons/v1_VE1000_randls_27.json,865535,2597185,44,Man
146,655019,DepthScenes,duration_manipulation_targetAtFixation,jsons/v1_VE1000_randls_27.json,http://54.235.29.9/FacialAge/BNav_EC2/DepthDuration/v2_depth_duration_MTurk/v2_DepthDuration_HTML.html#118,118,3072,1728,3072,1728,8-29-2022,11-22-21,147,depth_duration_stimuli/003492_2014-05-21_15-50-55_094959634447_rgbf000828-resize_1/003492_2014-05-21_15-50-55_094959634447_rgbf000828-resize_1-target.png,1000,4.06875,0.0,5014,999,feet,jsons/v1_VE1000_randls_27.json,865535,2597185,44,Man
147,655019,DepthScenes,duration_manipulation_targetAtFixation,jsons/v1_VE1000_randls_27.json,http://54.235.29.9/FacialAge/BNav_EC2/DepthDuration/v2_depth_duration_MTurk/v2_DepthDuration_HTML.html#118,118,3072,1728,3072,1728,8-29-2022,11-22-21,148,depth_duration_stimuli/002568_2014-06-24_13-59-21_094959634447_rgbf000062-resize_4/002568_2014-06-24_13-59-21_094959634447_rgbf000062-resize_4-target.png,1000,3.015,8.0,3628,999,feet,jsons/v1_VE1000_randls_27.json,865535,2597185,44,Man
148,655019,DepthScenes,duration_manipulation_targetAtFixation,jsons/v1_VE1000_randls_27.json,http://54.235.29.9/FacialAge/BNav_EC2/DepthDuration/v2_depth_duration_MTurk/v2_DepthDuration_HTML.html#118,118,3072,1728,3072,1728,8-29-2022,11-22-21,149,depth_duration_stimuli/001011_2014-06-08_23-18-54_260595134347_rgbf000044-resize_4/001011_2014-06-08_23-18-54_260595134347_rgbf000044-resize_4-target.png,1000,2.4730000000000003,6.0,4160,1003,feet,jsons/v1_VE1000_randls_27.json,865535,2597185,44,Man
149,655019,DepthScenes,duration_manipulation_targetAtFixation,jsons/v1_VE1000_randls_27.json,http://54.235.29.9/FacialAge/BNav_EC2/DepthDuration/v2_depth_duration_MTurk/v2_DepthDuration_HTML.html#118,118,3072,1728,3072,1728,8-29-2022,11-22-21,150,depth_duration_stimuli/002875_2014-06-01_15-19-00_094959634447_rgbf000151-resize_1/002875_2014-06-01_15-19-00_094959634447_rgbf000151-resize_1-target.png,1000,1.9675,6.5,5945,999,feet,jsons/v1_VE1000_randls_27.json,865535,2597185,44,Man
150,655019,DepthScenes,duration_manipulation_targetAtFixation,jsons/v1_VE1000_randls_27.json,http://54.235.29.9/FacialAge/BNav_EC2/DepthDuration/v2_depth_duration_MTurk/v2_DepthDuration_HTML.html#118,118,3072,1728,3072,1728,8-29-2022,11-22-21,151,depth_duration_stimuli/000642_2014-06-08_16-59-25_260595134347_rgbf000098-resize_2/000642_2014-06-08_16-59-25_260595134347_rgbf000098-resize_2-target.png,1000,2.8815,9.5,13176,992,feet,jsons/v1_VE1000_randls_27.json,865535,2597185,44,Man
151,655019,DepthScenes,duration_manipulation_targetAtFixation,jsons/v1_VE1000_randls_27.json,http://54.235.29.9/FacialAge/BNav_EC2/DepthDuration/v2_depth_duration_MTurk/v2_DepthDuration_HTML.html#118,118,3072,1728,3072,1728,8-29-2022,11-22-21,152,depth_duration_stimuli/002425_2014-06-28_20-27-29_260595134347_rgbf000031-resize_8/002425_2014-06-28_20-27-29_260595134347_rgbf000031-resize_8-target.png,1000,3.8960000000000004,11.0,7495,992,feet,jsons/v1_VE1000_randls_27.json,865535,2597185,44,Man
152,655019,DepthScenes,duration_manipulation_targetAtFixation,jsons/v1_VE1000_randls_27.json,http://54.235.29.9/FacialAge/BNav_EC2/DepthDuration/v2_depth_duration_MTurk/v2_DepthDuration_HTML.html#118,118,3072,1728,3072,1728,8-29-2022,11-22-21,153,depth_duration_stimuli/002153_2014-06-25_21-27-18_260595134347_rgbf000038-resize_5/002153_2014-06-25_21-27-18_260595134347_rgbf000038-resize_5-target.png,1000,2.505,12.0,6443,1008,feet,jsons/v1_VE1000_randls_27.json,865535,2597185,44,Man
153,655019,DepthScenes,duration_manipulation_targetAtFixation,jsons/v1_VE1000_randls_27.json,http://54.235.29.9/FacialAge/BNav_EC2/DepthDuration/v2_depth_duration_MTurk/v2_DepthDuration_HTML.html#118,118,3072,1728,3072,1728,8-29-2022,11-22-21,154,depth_duration_stimuli/002660_2014-06-13_15-44-18_094959634447_rgbf001878-resize_2/002660_2014-06-13_15-44-18_094959634447_rgbf001878-resize_2-target.png,1000,3.576,8.0,25029,1011,feet,jsons/v1_VE1000_randls_27.json,865535,2597185,44,Man
154,655019,DepthScenes,duration_manipulation_targetAtFixation,jsons/v1_VE1000_randls_27.json,http://54.235.29.9/FacialAge/BNav_EC2/DepthDuration/v2_depth_duration_MTurk/v2_DepthDuration_HTML.html#118,118,3072,1728,3072,1728,8-29-2022,11-22-21,155,depth_duration_stimuli/002989_2014-06-15_12-25-03_094959634447_rgbf000150-resize_3/002989_2014-06-15_12-25-03_094959634447_rgbf000150-resize_3-target.png,1000,4.1975,0.0,3917,998,feet,jsons/v1_VE1000_randls_27.json,865535,2597185,44,Man
155,655019,DepthScenes,duration_manipulation_targetAtFixation,jsons/v1_VE1000_randls_27.json,http://54.235.29.9/FacialAge/BNav_EC2/DepthDuration/v2_depth_duration_MTurk/v2_DepthDuration_HTML.html#118,118,3072,1728,3072,1728,8-29-2022,11-22-21,156,depth_duration_stimuli/000866_2014-06-09_20-45-42_260595134347_rgbf000139-resize_1/000866_2014-06-09_20-45-42_260595134347_rgbf000139-resize_1-target.png,1000,3.2155,2.0,4637,1002,feet,jsons/v1_VE1000_randls_27.json,865535,2597185,44,Man
156,655019,DepthScenes,duration_manipulation_targetAtFixation,jsons/v1_VE1000_randls_27.json,http://54.235.29.9/FacialAge/BNav_EC2/DepthDuration/v2_depth_duration_MTurk/v2_DepthDuration_HTML.html#118,118,3072,1728,3072,1728,8-29-2022,11-22-21,157,depth_duration_stimuli/002763_2014-06-22_19-13-10_094959634447_rgbf000075-resize_4/002763_2014-06-22_19-13-10_094959634447_rgbf000075-resize_4-target.png,1000,1.68375,4.0,8223,994,feet,jsons/v1_VE1000_randls_27.json,865535,2597185,44,Man
157,655019,DepthScenes,duration_manipulation_targetAtFixation,jsons/v1_VE1000_randls_27.json,http://54.235.29.9/FacialAge/BNav_EC2/DepthDuration/v2_depth_duration_MTurk/v2_DepthDuration_HTML.html#118,118,3072,1728,3072,1728,8-29-2022,11-22-21,158,depth_duration_stimuli/002209_2014-06-28_18-36-10_260595134347_rgbf000051-resize_1/002209_2014-06-28_18-36-10_260595134347_rgbf000051-resize_1-target.png,1000,2.057,5.0,3514,998,feet,jsons/v1_VE1000_randls_27.json,865535,2597185,44,Man
158,655019,DepthScenes,duration_manipulation_targetAtFixation,jsons/v1_VE1000_randls_27.json,http://54.235.29.9/FacialAge/BNav_EC2/DepthDuration/v2_depth_duration_MTurk/v2_DepthDuration_HTML.html#118,118,3072,1728,3072,1728,8-29-2022,11-22-21,159,depth_duration_stimuli/000692_2014-06-08_13-09-42_260595134347_rgbf000199-resize_2/000692_2014-06-08_13-09-42_260595134347_rgbf000199-resize_2-target.png,1000,3.661,14.0,4056,993,feet,jsons/v1_VE1000_randls_27.json,865535,2597185,44,Man
159,655019,DepthScenes,duration_manipulation_targetAtFixation,jsons/v1_VE1000_randls_27.json,http://54.235.29.9/FacialAge/BNav_EC2/DepthDuration/v2_depth_duration_MTurk/v2_DepthDuration_HTML.html#118,118,3072,1728,3072,1728,8-29-2022,11-22-21,160,depth_duration_stimuli/001094_2014-06-15_17-36-00_260595134347_rgbf000205-resize_0/001094_2014-06-15_17-36-00_260595134347_rgbf000205-resize_0-target.png,1000,4.2175,10.0,5700,995,feet,jsons/v1_VE1000_randls_27.json,865535,2597185,44,Man
160,655019,DepthScenes,duration_manipulation_targetAtFixation,jsons/v1_VE1000_randls_27.json,http://54.235.29.9/FacialAge/BNav_EC2/DepthDuration/v2_depth_duration_MTurk/v2_DepthDuration_HTML.html#118,118,3072,1728,3072,1728,8-29-2022,11-22-21,161,depth_duration_stimuli/001417_2014-06-19_16-25-36_260595134347_rgbf000115-resize_5/001417_2014-06-19_16-25-36_260595134347_rgbf000115-resize_5-target.png,1000,4.6255,11.0,6578,997,feet,jsons/v1_VE1000_randls_27.json,865535,2597185,44,Man
161,655019,DepthScenes,duration_manipulation_targetAtFixation,jsons/v1_VE1000_randls_27.json,http://54.235.29.9/FacialAge/BNav_EC2/DepthDuration/v2_depth_duration_MTurk/v2_DepthDuration_HTML.html#118,118,3072,1728,3072,1728,8-29-2022,11-22-21,162,depth_duration_stimuli/003081_2014-06-15_15-19-16_094959634447_rgbf000150-resize_1/003081_2014-06-15_15-19-16_094959634447_rgbf000150-resize_1-target.png,1000,3.9125,9.0,6534,991,feet,jsons/v1_VE1000_randls_27.json,865535,2597185,44,Man
162,655019,DepthScenes,duration_manipulation_targetAtFixation,jsons/v1_VE1000_randls_27.json,http://54.235.29.9/FacialAge/BNav_EC2/DepthDuration/v2_depth_duration_MTurk/v2_DepthDuration_HTML.html#118,118,3072,1728,3072,1728,8-29-2022,11-22-21,163,depth_duration_stimuli/000506_2014-06-08_23-21-00_260595134347_rgbf000070-resize_7/000506_2014-06-08_23-21-00_260595134347_rgbf000070-resize_7-target.png,1000,4.0585,9.0,3453,1007,feet,jsons/v1_VE1000_randls_27.json,865535,2597185,44,Man
163,655019,DepthScenes,duration_manipulation_targetAtFixation,jsons/v1_VE1000_randls_27.json,http://54.235.29.9/FacialAge/BNav_EC2/DepthDuration/v2_depth_duration_MTurk/v2_DepthDuration_HTML.html#118,118,3072,1728,3072,1728,8-29-2022,11-22-21,164,depth_duration_stimuli/003079_2014-06-15_15-18-20_094959634447_rgbf000152-resize_8/003079_2014-06-15_15-18-20_094959634447_rgbf000152-resize_8-target.png,1000,2.8775,8.0,4008,996,feet,jsons/v1_VE1000_randls_27.json,865535,2597185,44,Man
