,subjID,experimentName,versionName,sequenceName,url,selected_row,windowWidth,windowHeight,screenWidth,screenHeight,startDate,startTime,trial,stimulus,duration,actual_depth,depth_estimate,trial_RT,log_sceneDuration,unitSelection,seq_filepath,experimentTime,totalTime,age,gender
0,655437,DepthScenes,duration_manipulation_targetAtFixation,jsons/VE125_randls_16_rotated.json,http://54.235.29.9/FacialAge/BNav_EC2/DepthDuration/v2_depth_duration_MTurk/v2_DepthDuration_HTML.html#128,128,1364,625,1364,768,8-21-2022,10-15-53,1,depth_duration_stimuli/002344_2014-06-28_20-06-29_260595134347_rgbf000030-resize_1/002344_2014-06-28_20-06-29_260595134347_rgbf000030-resize_1-target.png,125,1.5795,10.0,3220,122,meters,jsons/VE125_randls_16_rotated.json,677571,759251,48,Woman
1,655437,DepthScenes,duration_manipulation_targetAtFixation,jsons/VE125_randls_16_rotated.json,http://54.235.29.9/FacialAge/BNav_EC2/DepthDuration/v2_depth_duration_MTurk/v2_DepthDuration_HTML.html#128,128,1364,625,1364,768,8-21-2022,10-15-53,2,depth_duration_stimuli/002725_2014-06-22_11-47-51_094959634447_rgbf000070-resize_1/002725_2014-06-22_11-47-51_094959634447_rgbf000070-resize_1-target.png,125,2.195,10.0,2698,124,meters,jsons/VE125_randls_16_rotated.json,677571,759251,48,Woman
2,655437,DepthScenes,duration_manipulation_targetAtFixation,jsons/VE125_randls_16_rotated.json,http://54.235.29.9/FacialAge/BNav_EC2/DepthDuration/v2_depth_duration_MTurk/v2_DepthDuration_HTML.html#128,128,1364,625,1364,768,8-21-2022,10-15-53,3,depth_duration_stimuli/001584_2014-06-20_11-07-43_260595134347_rgbf000002-resize_1/001584_2014-06-20_11-07-43_260595134347_rgbf000002-resize_1-target.png,125,3.53,10.0,2625,124,meters,jsons/VE125_randls_16_rotated.json,677571,759251,48,Woman
3,655437,DepthScenes,duration_manipulation_targetAtFixation,jsons/VE125_randls_16_rotated.json,http://54.235.29.9/FacialAge/BNav_EC2/DepthDuration/v2_depth_duration_MTurk/v2_DepthDuration_HTML.html#128,128,1364,625,1364,768,8-21-2022,10-15-53,4,depth_duration_stimuli/003621_2014-05-23_18-06-08_094959634447_rgbf000101-resize_1/003621_2014-05-23_18-06-08_094959634447_rgbf000101-resize_1-target.png,125,3.9835,20.0,2330,123,meters,jsons/VE125_randls_16_rotated.json,677571,759251,48,Woman
4,655437,DepthScenes,duration_manipulation_targetAtFixation,jsons/VE125_randls_16_rotated.json,http://54.235.29.9/FacialAge/BNav_EC2/DepthDuration/v2_depth_duration_MTurk/v2_DepthDuration_HTML.html#128,128,1364,625,1364,768,8-21-2022,10-15-53,5,depth_duration_stimuli/002750_2014-06-22_19-08-03_094959634447_rgbf000094-resize_4/002750_2014-06-22_19-08-03_094959634447_rgbf000094-resize_4-target.png,125,2.354,10.0,2396,122,meters,jsons/VE125_randls_16_rotated.json,677571,759251,48,Woman
5,655437,DepthScenes,duration_manipulation_targetAtFixation,jsons/VE125_randls_16_rotated.json,http://54.235.29.9/FacialAge/BNav_EC2/DepthDuration/v2_depth_duration_MTurk/v2_DepthDuration_HTML.html#128,128,1364,625,1364,768,8-21-2022,10-15-53,6,depth_duration_stimuli/002549_2014-06-24_13-41-39_094959634447_rgbf000022-resize_3/002549_2014-06-24_13-41-39_094959634447_rgbf000022-resize_3-target.png,125,1.476,10.0,2211,122,meters,jsons/VE125_randls_16_rotated.json,677571,759251,48,Woman
6,655437,DepthScenes,duration_manipulation_targetAtFixation,jsons/VE125_randls_16_rotated.json,http://54.235.29.9/FacialAge/BNav_EC2/DepthDuration/v2_depth_duration_MTurk/v2_DepthDuration_HTML.html#128,128,1364,625,1364,768,8-21-2022,10-15-53,7,depth_duration_stimuli/003083_2014-06-15_15-21-03_094959634447_rgbf000063-resize_1/003083_2014-06-15_15-21-03_094959634447_rgbf000063-resize_1-target.png,125,4.1405,15.0,2212,100,meters,jsons/VE125_randls_16_rotated.json,677571,759251,48,Woman
7,655437,DepthScenes,duration_manipulation_targetAtFixation,jsons/VE125_randls_16_rotated.json,http://54.235.29.9/FacialAge/BNav_EC2/DepthDuration/v2_depth_duration_MTurk/v2_DepthDuration_HTML.html#128,128,1364,625,1364,768,8-21-2022,10-15-53,8,depth_duration_stimuli/000486_2014-06-09_20-47-20_260595134347_rgbf000143-resize_2/000486_2014-06-09_20-47-20_260595134347_rgbf000143-resize_2-target.png,125,4.8325,14.0,2057,26,meters,jsons/VE125_randls_16_rotated.json,677571,759251,48,Woman
8,655437,DepthScenes,duration_manipulation_targetAtFixation,jsons/VE125_randls_16_rotated.json,http://54.235.29.9/FacialAge/BNav_EC2/DepthDuration/v2_depth_duration_MTurk/v2_DepthDuration_HTML.html#128,128,1364,625,1364,768,8-21-2022,10-15-53,9,depth_duration_stimuli/002414_2014-06-28_20-24-58_260595134347_rgbf000067-resize_4/002414_2014-06-28_20-24-58_260595134347_rgbf000067-resize_4-target.png,125,4.363,15.0,2070,121,meters,jsons/VE125_randls_16_rotated.json,677571,759251,48,Woman
9,655437,DepthScenes,duration_manipulation_targetAtFixation,jsons/VE125_randls_16_rotated.json,http://54.235.29.9/FacialAge/BNav_EC2/DepthDuration/v2_depth_duration_MTurk/v2_DepthDuration_HTML.html#128,128,1364,625,1364,768,8-21-2022,10-15-53,10,depth_duration_stimuli/000773_2014-06-08_22-24-54_260595134347_rgbf000093-resize_1/000773_2014-06-08_22-24-54_260595134347_rgbf000093-resize_1-target.png,125,4.973,14.0,3669,125,meters,jsons/VE125_randls_16_rotated.json,677571,759251,48,Woman
10,655437,DepthScenes,duration_manipulation_targetAtFixation,jsons/VE125_randls_16_rotated.json,http://54.235.29.9/FacialAge/BNav_EC2/DepthDuration/v2_depth_duration_MTurk/v2_DepthDuration_HTML.html#128,128,1364,625,1364,768,8-21-2022,10-15-53,11,depth_duration_stimuli/000780_2014-06-08_22-28-29_260595134347_rgbf000126-resize_1/000780_2014-06-08_22-28-29_260595134347_rgbf000126-resize_1-target.png,125,3.3825,10.0,3640,122,meters,jsons/VE125_randls_16_rotated.json,677571,759251,48,Woman
11,655437,DepthScenes,duration_manipulation_targetAtFixation,jsons/VE125_randls_16_rotated.json,http://54.235.29.9/FacialAge/BNav_EC2/DepthDuration/v2_depth_duration_MTurk/v2_DepthDuration_HTML.html#128,128,1364,625,1364,768,8-21-2022,10-15-53,12,depth_duration_stimuli/002445_2014-06-28_20-32-16_260595134347_rgbf000029-resize_4/002445_2014-06-28_20-32-16_260595134347_rgbf000029-resize_4-target.png,125,2.5315,10.0,2178,124,meters,jsons/VE125_randls_16_rotated.json,677571,759251,48,Woman
12,655437,DepthScenes,duration_manipulation_targetAtFixation,jsons/VE125_randls_16_rotated.json,http://54.235.29.9/FacialAge/BNav_EC2/DepthDuration/v2_depth_duration_MTurk/v2_DepthDuration_HTML.html#128,128,1364,625,1364,768,8-21-2022,10-15-53,13,depth_duration_stimuli/001094_2014-06-15_17-36-00_260595134347_rgbf000205-resize_0/001094_2014-06-15_17-36-00_260595134347_rgbf000205-resize_0-target.png,125,4.2175,20.0,2226,114,meters,jsons/VE125_randls_16_rotated.json,677571,759251,48,Woman
13,655437,DepthScenes,duration_manipulation_targetAtFixation,jsons/VE125_randls_16_rotated.json,http://54.235.29.9/FacialAge/BNav_EC2/DepthDuration/v2_depth_duration_MTurk/v2_DepthDuration_HTML.html#128,128,1364,625,1364,768,8-21-2022,10-15-53,14,depth_duration_stimuli/000692_2014-06-08_13-09-42_260595134347_rgbf000199-resize_2/000692_2014-06-08_13-09-42_260595134347_rgbf000199-resize_2-target.png,125,3.661,10.0,2204,113,meters,jsons/VE125_randls_16_rotated.json,677571,759251,48,Woman
14,655437,DepthScenes,duration_manipulation_targetAtFixation,jsons/VE125_randls_16_rotated.json,http://54.235.29.9/FacialAge/BNav_EC2/DepthDuration/v2_depth_duration_MTurk/v2_DepthDuration_HTML.html#128,128,1364,625,1364,768,8-21-2022,10-15-53,15,depth_duration_stimuli/003423_2014-05-21_10-23-26_094959634447_rgbf002665-resize_2/003423_2014-05-21_10-23-26_094959634447_rgbf002665-resize_2-target.png,125,3.2575,10.0,2196,119,meters,jsons/VE125_randls_16_rotated.json,677571,759251,48,Woman
15,655437,DepthScenes,duration_manipulation_targetAtFixation,jsons/VE125_randls_16_rotated.json,http://54.235.29.9/FacialAge/BNav_EC2/DepthDuration/v2_depth_duration_MTurk/v2_DepthDuration_HTML.html#128,128,1364,625,1364,768,8-21-2022,10-15-53,16,depth_duration_stimuli/002905_2014-06-03_18-04-43_094959634447_rgbf000151-resize_2/002905_2014-06-03_18-04-43_094959634447_rgbf000151-resize_2-target.png,125,2.0295,10.0,2435,121,meters,jsons/VE125_randls_16_rotated.json,677571,759251,48,Woman
16,655437,DepthScenes,duration_manipulation_targetAtFixation,jsons/VE125_randls_16_rotated.json,http://54.235.29.9/FacialAge/BNav_EC2/DepthDuration/v2_depth_duration_MTurk/v2_DepthDuration_HTML.html#128,128,1364,625,1364,768,8-21-2022,10-15-53,17,depth_duration_stimuli/003081_2014-06-15_15-19-16_094959634447_rgbf000150-resize_1/003081_2014-06-15_15-19-16_094959634447_rgbf000150-resize_1-target.png,125,3.9125,10.0,2199,131,meters,jsons/VE125_randls_16_rotated.json,677571,759251,48,Woman
17,655437,DepthScenes,duration_manipulation_targetAtFixation,jsons/VE125_randls_16_rotated.json,http://54.235.29.9/FacialAge/BNav_EC2/DepthDuration/v2_depth_duration_MTurk/v2_DepthDuration_HTML.html#128,128,1364,625,1364,768,8-21-2022,10-15-53,18,depth_duration_stimuli/001417_2014-06-19_16-25-36_260595134347_rgbf000115-resize_5/001417_2014-06-19_16-25-36_260595134347_rgbf000115-resize_5-target.png,125,4.6255,10.0,2221,120,meters,jsons/VE125_randls_16_rotated.json,677571,759251,48,Woman
18,655437,DepthScenes,duration_manipulation_targetAtFixation,jsons/VE125_randls_16_rotated.json,http://54.235.29.9/FacialAge/BNav_EC2/DepthDuration/v2_depth_duration_MTurk/v2_DepthDuration_HTML.html#128,128,1364,625,1364,768,8-21-2022,10-15-53,19,depth_duration_stimuli/001498_2014-06-19_17-45-14_260595134347_rgbf000129-resize_4/001498_2014-06-19_17-45-14_260595134347_rgbf000129-resize-original.jpg,125,1.4075,10.0,2337,121,meters,jsons/VE125_randls_16_rotated.json,677571,759251,48,Woman
19,655437,DepthScenes,duration_manipulation_targetAtFixation,jsons/VE125_randls_16_rotated.json,http://54.235.29.9/FacialAge/BNav_EC2/DepthDuration/v2_depth_duration_MTurk/v2_DepthDuration_HTML.html#128,128,1364,625,1364,768,8-21-2022,10-15-53,20,depth_duration_stimuli/001235_2014-06-17_16-37-36_260595134347_rgbf000084-resize_4/001235_2014-06-17_16-37-36_260595134347_rgbf000084-resize_4-target.png,125,3.6605,10.0,3196,121,meters,jsons/VE125_randls_16_rotated.json,677571,759251,48,Woman
20,655437,DepthScenes,duration_manipulation_targetAtFixation,jsons/VE125_randls_16_rotated.json,http://54.235.29.9/FacialAge/BNav_EC2/DepthDuration/v2_depth_duration_MTurk/v2_DepthDuration_HTML.html#128,128,1364,625,1364,768,8-21-2022,10-15-53,21,depth_duration_stimuli/000788_2014-06-08_22-34-36_260595134347_rgbf000131-resize_1/000788_2014-06-08_22-34-36_260595134347_rgbf000131-resize_1-target.png,125,3.359,10.0,17403,124,meters,jsons/VE125_randls_16_rotated.json,677571,759251,48,Woman
21,655437,DepthScenes,duration_manipulation_targetAtFixation,jsons/VE125_randls_16_rotated.json,http://54.235.29.9/FacialAge/BNav_EC2/DepthDuration/v2_depth_duration_MTurk/v2_DepthDuration_HTML.html#128,128,1364,625,1364,768,8-21-2022,10-15-53,22,depth_duration_stimuli/003228_2014-05-14_13-42-35_094959634447_rgbf000101-resize_1/003228_2014-05-14_13-42-35_094959634447_rgbf000101-resize_1-target.png,125,1.9680000000000002,10.0,2370,126,meters,jsons/VE125_randls_16_rotated.json,677571,759251,48,Woman
22,655437,DepthScenes,duration_manipulation_targetAtFixation,jsons/VE125_randls_16_rotated.json,http://54.235.29.9/FacialAge/BNav_EC2/DepthDuration/v2_depth_duration_MTurk/v2_DepthDuration_HTML.html#128,128,1364,625,1364,768,8-21-2022,10-15-53,23,depth_duration_stimuli/002600_2014-06-24_14-27-04_094959634447_rgbf000074-resize_2/002600_2014-06-24_14-27-04_094959634447_rgbf000074-resize_2-target.png,125,2.7575,10.0,1994,104,meters,jsons/VE125_randls_16_rotated.json,677571,759251,48,Woman
23,655437,DepthScenes,duration_manipulation_targetAtFixation,jsons/VE125_randls_16_rotated.json,http://54.235.29.9/FacialAge/BNav_EC2/DepthDuration/v2_depth_duration_MTurk/v2_DepthDuration_HTML.html#128,128,1364,625,1364,768,8-21-2022,10-15-53,24,depth_duration_stimuli/001516_2014-06-20_16-25-09_260595134347_rgbf000076-resize_2/001516_2014-06-20_16-25-09_260595134347_rgbf000076-resize_2-target.png,125,1.7445,15.0,1937,33,meters,jsons/VE125_randls_16_rotated.json,677571,759251,48,Woman
24,655437,DepthScenes,duration_manipulation_targetAtFixation,jsons/VE125_randls_16_rotated.json,http://54.235.29.9/FacialAge/BNav_EC2/DepthDuration/v2_depth_duration_MTurk/v2_DepthDuration_HTML.html#128,128,1364,625,1364,768,8-21-2022,10-15-53,25,depth_duration_stimuli/002118_2014-06-25_20-32-08_260595134347_rgbf000078-resize_1/002118_2014-06-25_20-32-08_260595134347_rgbf000078-resize_1-target.png,125,2.6460000000000004,14.0,2082,127,meters,jsons/VE125_randls_16_rotated.json,677571,759251,48,Woman
25,655437,DepthScenes,duration_manipulation_targetAtFixation,jsons/VE125_randls_16_rotated.json,http://54.235.29.9/FacialAge/BNav_EC2/DepthDuration/v2_depth_duration_MTurk/v2_DepthDuration_HTML.html#128,128,1364,625,1364,768,8-21-2022,10-15-53,26,depth_duration_stimuli/002805_2014-06-22_19-54-03_094959634447_rgbf000079-resize_1/002805_2014-06-22_19-54-03_094959634447_rgbf000079-resize_1-target.png,125,3.1439999999999997,20.0,2749,123,meters,jsons/VE125_randls_16_rotated.json,677571,759251,48,Woman
26,655437,DepthScenes,duration_manipulation_targetAtFixation,jsons/VE125_randls_16_rotated.json,http://54.235.29.9/FacialAge/BNav_EC2/DepthDuration/v2_depth_duration_MTurk/v2_DepthDuration_HTML.html#128,128,1364,625,1364,768,8-21-2022,10-15-53,27,depth_duration_stimuli/000906_2014-06-08_13-35-43_260595134347_rgbf000155-resize_1/000906_2014-06-08_13-35-43_260595134347_rgbf000155-resize_1-target.png,125,2.8489999999999998,15.0,2405,119,meters,jsons/VE125_randls_16_rotated.json,677571,759251,48,Woman
27,655437,DepthScenes,duration_manipulation_targetAtFixation,jsons/VE125_randls_16_rotated.json,http://54.235.29.9/FacialAge/BNav_EC2/DepthDuration/v2_depth_duration_MTurk/v2_DepthDuration_HTML.html#128,128,1364,625,1364,768,8-21-2022,10-15-53,28,depth_duration_stimuli/002758_2014-06-22_19-11-20_094959634447_rgbf000128-resize_1/002758_2014-06-22_19-11-20_094959634447_rgbf000128-resize_1-target.png,125,2.555,10.0,3011,122,meters,jsons/VE125_randls_16_rotated.json,677571,759251,48,Woman
28,655437,DepthScenes,duration_manipulation_targetAtFixation,jsons/VE125_randls_16_rotated.json,http://54.235.29.9/FacialAge/BNav_EC2/DepthDuration/v2_depth_duration_MTurk/v2_DepthDuration_HTML.html#128,128,1364,625,1364,768,8-21-2022,10-15-53,29,depth_duration_stimuli/002630_2014-06-24_14-47-50_094959634447_rgbf000055-resize_1/002630_2014-06-24_14-47-50_094959634447_rgbf000055-resize_1-target.png,125,3.0095,10.0,43097,115,meters,jsons/VE125_randls_16_rotated.json,677571,759251,48,Woman
29,655437,DepthScenes,duration_manipulation_targetAtFixation,jsons/VE125_randls_16_rotated.json,http://54.235.29.9/FacialAge/BNav_EC2/DepthDuration/v2_depth_duration_MTurk/v2_DepthDuration_HTML.html#128,128,1364,625,1364,768,8-21-2022,10-15-53,30,depth_duration_stimuli/002072_2014-06-24_21-48-06_260595134347_rgbf000115-resize_0/002072_2014-06-24_21-48-06_260595134347_rgbf000115-resize-original.jpg,125,4.702,20.0,2350,118,meters,jsons/VE125_randls_16_rotated.json,677571,759251,48,Woman
30,655437,DepthScenes,duration_manipulation_targetAtFixation,jsons/VE125_randls_16_rotated.json,http://54.235.29.9/FacialAge/BNav_EC2/DepthDuration/v2_depth_duration_MTurk/v2_DepthDuration_HTML.html#128,128,1364,625,1364,768,8-21-2022,10-15-53,31,depth_duration_stimuli/003338_2014-05-20_11-01-23_094959634447_rgbf000051-resize_6/003338_2014-05-20_11-01-23_094959634447_rgbf000051-resize_6-target.png,125,1.693,10.0,2039,121,meters,jsons/VE125_randls_16_rotated.json,677571,759251,48,Woman
31,655437,DepthScenes,duration_manipulation_targetAtFixation,jsons/VE125_randls_16_rotated.json,http://54.235.29.9/FacialAge/BNav_EC2/DepthDuration/v2_depth_duration_MTurk/v2_DepthDuration_HTML.html#128,128,1364,625,1364,768,8-21-2022,10-15-53,32,depth_duration_stimuli/002509_2014-06-24_13-19-22_094959634447_rgbf000077-resize_0/002509_2014-06-24_13-19-22_094959634447_rgbf000077-resize_0-target.png,125,1.3065,10.0,2364,127,meters,jsons/VE125_randls_16_rotated.json,677571,759251,48,Woman
32,655437,DepthScenes,duration_manipulation_targetAtFixation,jsons/VE125_randls_16_rotated.json,http://54.235.29.9/FacialAge/BNav_EC2/DepthDuration/v2_depth_duration_MTurk/v2_DepthDuration_HTML.html#128,128,1364,625,1364,768,8-21-2022,10-15-53,33,depth_duration_stimuli/002199_2014-06-28_18-33-56_260595134347_rgbf000074-resize_0/002199_2014-06-28_18-33-56_260595134347_rgbf000074-resize_0-target.png,125,1.996,10.0,3932,131,meters,jsons/VE125_randls_16_rotated.json,677571,759251,48,Woman
33,655437,DepthScenes,duration_manipulation_targetAtFixation,jsons/VE125_randls_16_rotated.json,http://54.235.29.9/FacialAge/BNav_EC2/DepthDuration/v2_depth_duration_MTurk/v2_DepthDuration_HTML.html#128,128,1364,625,1364,768,8-21-2022,10-15-53,34,depth_duration_stimuli/001056_2014-06-08_18-46-44_260595134347_rgbf000068-resize_0/001056_2014-06-08_18-46-44_260595134347_rgbf000068-resize_0-target.png,125,2.6625,20.0,2205,117,meters,jsons/VE125_randls_16_rotated.json,677571,759251,48,Woman
34,655437,DepthScenes,duration_manipulation_targetAtFixation,jsons/VE125_randls_16_rotated.json,http://54.235.29.9/FacialAge/BNav_EC2/DepthDuration/v2_depth_duration_MTurk/v2_DepthDuration_HTML.html#128,128,1364,625,1364,768,8-21-2022,10-15-53,35,depth_duration_stimuli/001100_2014-06-15_17-46-26_260595134347_rgbf000225-resize_2/001100_2014-06-15_17-46-26_260595134347_rgbf000225-resize_2-target.png,125,2.24,20.0,2343,108,meters,jsons/VE125_randls_16_rotated.json,677571,759251,48,Woman
35,655437,DepthScenes,duration_manipulation_targetAtFixation,jsons/VE125_randls_16_rotated.json,http://54.235.29.9/FacialAge/BNav_EC2/DepthDuration/v2_depth_duration_MTurk/v2_DepthDuration_HTML.html#128,128,1364,625,1364,768,8-21-2022,10-15-53,36,depth_duration_stimuli/002784_2014-06-22_19-26-30_094959634447_rgbf000083-resize_3/002784_2014-06-22_19-26-30_094959634447_rgbf000083-resize_3-target.png,125,1.8046666666667,20.0,2342,81,meters,jsons/VE125_randls_16_rotated.json,677571,759251,48,Woman
36,655437,DepthScenes,duration_manipulation_targetAtFixation,jsons/VE125_randls_16_rotated.json,http://54.235.29.9/FacialAge/BNav_EC2/DepthDuration/v2_depth_duration_MTurk/v2_DepthDuration_HTML.html#128,128,1364,625,1364,768,8-21-2022,10-15-53,37,depth_duration_stimuli/002875_2014-06-01_15-19-00_094959634447_rgbf000151-resize_1/002875_2014-06-01_15-19-00_094959634447_rgbf000151-resize_1-target.png,125,1.9675,0.0,2786,124,meters,jsons/VE125_randls_16_rotated.json,677571,759251,48,Woman
37,655437,DepthScenes,duration_manipulation_targetAtFixation,jsons/VE125_randls_16_rotated.json,http://54.235.29.9/FacialAge/BNav_EC2/DepthDuration/v2_depth_duration_MTurk/v2_DepthDuration_HTML.html#128,128,1364,625,1364,768,8-21-2022,10-15-53,38,depth_duration_stimuli/001011_2014-06-08_23-18-54_260595134347_rgbf000044-resize_4/001011_2014-06-08_23-18-54_260595134347_rgbf000044-resize_4-target.png,125,2.4730000000000003,10.0,2164,111,meters,jsons/VE125_randls_16_rotated.json,677571,759251,48,Woman
38,655437,DepthScenes,duration_manipulation_targetAtFixation,jsons/VE125_randls_16_rotated.json,http://54.235.29.9/FacialAge/BNav_EC2/DepthDuration/v2_depth_duration_MTurk/v2_DepthDuration_HTML.html#128,128,1364,625,1364,768,8-21-2022,10-15-53,39,depth_duration_stimuli/000549_2014-06-08_22-10-24_260595134347_rgbf000247-resize_3/000549_2014-06-08_22-10-24_260595134347_rgbf000247-resize_3-target.png,125,1.841,10.0,2795,124,meters,jsons/VE125_randls_16_rotated.json,677571,759251,48,Woman
39,655437,DepthScenes,duration_manipulation_targetAtFixation,jsons/VE125_randls_16_rotated.json,http://54.235.29.9/FacialAge/BNav_EC2/DepthDuration/v2_depth_duration_MTurk/v2_DepthDuration_HTML.html#128,128,1364,625,1364,768,8-21-2022,10-15-53,40,depth_duration_stimuli/001055_2014-06-08_18-45-35_260595134347_rgbf000111-resize_4/001055_2014-06-08_18-45-35_260595134347_rgbf000111-resize_4-target.png,125,2.4290000000000003,10.0,2211,86,meters,jsons/VE125_randls_16_rotated.json,677571,759251,48,Woman
40,655437,DepthScenes,duration_manipulation_targetAtFixation,jsons/VE125_randls_16_rotated.json,http://54.235.29.9/FacialAge/BNav_EC2/DepthDuration/v2_depth_duration_MTurk/v2_DepthDuration_HTML.html#128,128,1364,625,1364,768,8-21-2022,10-15-53,41,depth_duration_stimuli/002136_2014-06-25_21-18-03_260595134347_rgbf000109-resize_3/002136_2014-06-25_21-18-03_260595134347_rgbf000109-resize_3-target.png,125,1.9569999999999999,10.0,2299,45,meters,jsons/VE125_randls_16_rotated.json,677571,759251,48,Woman
41,655437,DepthScenes,duration_manipulation_targetAtFixation,jsons/VE125_randls_16_rotated.json,http://54.235.29.9/FacialAge/BNav_EC2/DepthDuration/v2_depth_duration_MTurk/v2_DepthDuration_HTML.html#128,128,1364,625,1364,768,8-21-2022,10-15-53,42,depth_duration_stimuli/002964_2014-06-08_17-46-11_094959634447_rgbf000091-resize_4/002964_2014-06-08_17-46-11_094959634447_rgbf000091-resize_4-target.png,125,1.6909999999999998,10.0,2542,126,meters,jsons/VE125_randls_16_rotated.json,677571,759251,48,Woman
42,655437,DepthScenes,duration_manipulation_targetAtFixation,jsons/VE125_randls_16_rotated.json,http://54.235.29.9/FacialAge/BNav_EC2/DepthDuration/v2_depth_duration_MTurk/v2_DepthDuration_HTML.html#128,128,1364,625,1364,768,8-21-2022,10-15-53,43,depth_duration_stimuli/002545_2014-06-24_13-38-53_094959634447_rgbf000080-resize_4/002545_2014-06-24_13-38-53_094959634447_rgbf000080-resize_4-target.png,125,1.9205,10.0,4336,99,meters,jsons/VE125_randls_16_rotated.json,677571,759251,48,Woman
43,655437,DepthScenes,duration_manipulation_targetAtFixation,jsons/VE125_randls_16_rotated.json,http://54.235.29.9/FacialAge/BNav_EC2/DepthDuration/v2_depth_duration_MTurk/v2_DepthDuration_HTML.html#128,128,1364,625,1364,768,8-21-2022,10-15-53,44,depth_duration_stimuli/001092_2014-06-15_17-34-58_260595134347_rgbf000171-resize_3/001092_2014-06-15_17-34-58_260595134347_rgbf000171-resize_3-target.png,125,2.6935,10.0,2505,126,meters,jsons/VE125_randls_16_rotated.json,677571,759251,48,Woman
44,655437,DepthScenes,duration_manipulation_targetAtFixation,jsons/VE125_randls_16_rotated.json,http://54.235.29.9/FacialAge/BNav_EC2/DepthDuration/v2_depth_duration_MTurk/v2_DepthDuration_HTML.html#128,128,1364,625,1364,768,8-21-2022,10-15-53,45,depth_duration_stimuli/000742_2014-06-08_18-48-09_260595134347_rgbf000164-resize_4/000742_2014-06-08_18-48-09_260595134347_rgbf000164-resize_4-target.png,125,4.632,10.0,2738,123,meters,jsons/VE125_randls_16_rotated.json,677571,759251,48,Woman
45,655437,DepthScenes,duration_manipulation_targetAtFixation,jsons/VE125_randls_16_rotated.json,http://54.235.29.9/FacialAge/BNav_EC2/DepthDuration/v2_depth_duration_MTurk/v2_DepthDuration_HTML.html#128,128,1364,625,1364,768,8-21-2022,10-15-53,46,depth_duration_stimuli/001066_2014-06-08_22-03-20_260595134347_rgbf000066-resize_4/001066_2014-06-08_22-03-20_260595134347_rgbf000066-resize_4-target.png,125,4.2330000000000005,15.0,2751,125,meters,jsons/VE125_randls_16_rotated.json,677571,759251,48,Woman
46,655437,DepthScenes,duration_manipulation_targetAtFixation,jsons/VE125_randls_16_rotated.json,http://54.235.29.9/FacialAge/BNav_EC2/DepthDuration/v2_depth_duration_MTurk/v2_DepthDuration_HTML.html#128,128,1364,625,1364,768,8-21-2022,10-15-53,47,depth_duration_stimuli/002660_2014-06-13_15-44-18_094959634447_rgbf001878-resize_2/002660_2014-06-13_15-44-18_094959634447_rgbf001878-resize_2-target.png,125,3.576,10.0,2621,123,meters,jsons/VE125_randls_16_rotated.json,677571,759251,48,Woman
47,655437,DepthScenes,duration_manipulation_targetAtFixation,jsons/VE125_randls_16_rotated.json,http://54.235.29.9/FacialAge/BNav_EC2/DepthDuration/v2_depth_duration_MTurk/v2_DepthDuration_HTML.html#128,128,1364,625,1364,768,8-21-2022,10-15-53,48,depth_duration_stimuli/002153_2014-06-25_21-27-18_260595134347_rgbf000038-resize_5/002153_2014-06-25_21-27-18_260595134347_rgbf000038-resize_5-target.png,125,2.505,15.0,2155,71,meters,jsons/VE125_randls_16_rotated.json,677571,759251,48,Woman
48,655437,DepthScenes,duration_manipulation_targetAtFixation,jsons/VE125_randls_16_rotated.json,http://54.235.29.9/FacialAge/BNav_EC2/DepthDuration/v2_depth_duration_MTurk/v2_DepthDuration_HTML.html#128,128,1364,625,1364,768,8-21-2022,10-15-53,49,depth_duration_stimuli/001170_2014-06-17_15-43-44_260595134347_rgbf000096-resize_6/001170_2014-06-17_15-43-44_260595134347_rgbf000096-resize-original.jpg,125,1.1909999999999998,10.0,2228,136,meters,jsons/VE125_randls_16_rotated.json,677571,759251,48,Woman
49,655437,DepthScenes,duration_manipulation_targetAtFixation,jsons/VE125_randls_16_rotated.json,http://54.235.29.9/FacialAge/BNav_EC2/DepthDuration/v2_depth_duration_MTurk/v2_DepthDuration_HTML.html#128,128,1364,625,1364,768,8-21-2022,10-15-53,50,depth_duration_stimuli/002637_2014-06-24_14-51-13_094959634447_rgbf000066-resize_4/002637_2014-06-24_14-51-13_094959634447_rgbf000066-resize_4-target.png,125,1.9955,10.0,3218,118,meters,jsons/VE125_randls_16_rotated.json,677571,759251,48,Woman
50,655437,DepthScenes,duration_manipulation_targetAtFixation,jsons/VE125_randls_16_rotated.json,http://54.235.29.9/FacialAge/BNav_EC2/DepthDuration/v2_depth_duration_MTurk/v2_DepthDuration_HTML.html#128,128,1364,625,1364,768,8-21-2022,10-15-53,51,depth_duration_stimuli/003534_2014-05-22_15-06-10_094959634447_rgbf000102-resize_4/003534_2014-05-22_15-06-10_094959634447_rgbf000102-resize_4-target.png,125,1.426,12.0,3006,161,meters,jsons/VE125_randls_16_rotated.json,677571,759251,48,Woman
51,655437,DepthScenes,duration_manipulation_targetAtFixation,jsons/VE125_randls_16_rotated.json,http://54.235.29.9/FacialAge/BNav_EC2/DepthDuration/v2_depth_duration_MTurk/v2_DepthDuration_HTML.html#128,128,1364,625,1364,768,8-21-2022,10-15-53,52,depth_duration_stimuli/003048_2014-06-15_13-49-43_094959634447_rgbf000150-resize_1/003048_2014-06-15_13-49-43_094959634447_rgbf000150-resize_1-target.png,125,4.0035,23.0,2435,123,meters,jsons/VE125_randls_16_rotated.json,677571,759251,48,Woman
52,655437,DepthScenes,duration_manipulation_targetAtFixation,jsons/VE125_randls_16_rotated.json,http://54.235.29.9/FacialAge/BNav_EC2/DepthDuration/v2_depth_duration_MTurk/v2_DepthDuration_HTML.html#128,128,1364,625,1364,768,8-21-2022,10-15-53,53,depth_duration_stimuli/002043_2014-06-24_20-29-38_260595134347_rgbf000039-resize_4/002043_2014-06-24_20-29-38_260595134347_rgbf000039-resize_4-target.png,125,2.8435,10.0,2620,124,meters,jsons/VE125_randls_16_rotated.json,677571,759251,48,Woman
53,655437,DepthScenes,duration_manipulation_targetAtFixation,jsons/VE125_randls_16_rotated.json,http://54.235.29.9/FacialAge/BNav_EC2/DepthDuration/v2_depth_duration_MTurk/v2_DepthDuration_HTML.html#128,128,1364,625,1364,768,8-21-2022,10-15-53,54,depth_duration_stimuli/000734_2014-06-08_17-39-11_260595134347_rgbf000128-resize_2/000734_2014-06-08_17-39-11_260595134347_rgbf000128-resize_2-target.png,125,4.098,10.0,2222,90,meters,jsons/VE125_randls_16_rotated.json,677571,759251,48,Woman
54,655437,DepthScenes,duration_manipulation_targetAtFixation,jsons/VE125_randls_16_rotated.json,http://54.235.29.9/FacialAge/BNav_EC2/DepthDuration/v2_depth_duration_MTurk/v2_DepthDuration_HTML.html#128,128,1364,625,1364,768,8-21-2022,10-15-53,55,depth_duration_stimuli/000739_2014-06-08_18-45-58_260595134347_rgbf000068-resize_1/000739_2014-06-08_18-45-58_260595134347_rgbf000068-resize_1-target.png,125,3.534,10.0,2444,116,meters,jsons/VE125_randls_16_rotated.json,677571,759251,48,Woman
55,655437,DepthScenes,duration_manipulation_targetAtFixation,jsons/VE125_randls_16_rotated.json,http://54.235.29.9/FacialAge/BNav_EC2/DepthDuration/v2_depth_duration_MTurk/v2_DepthDuration_HTML.html#128,128,1364,625,1364,768,8-21-2022,10-15-53,56,depth_duration_stimuli/000635_2014-06-08_16-38-42_260595134347_rgbf000106-resize_1/000635_2014-06-08_16-38-42_260595134347_rgbf000106-resize_1-target.png,125,2.074,15.0,2717,427,meters,jsons/VE125_randls_16_rotated.json,677571,759251,48,Woman
56,655437,DepthScenes,duration_manipulation_targetAtFixation,jsons/VE125_randls_16_rotated.json,http://54.235.29.9/FacialAge/BNav_EC2/DepthDuration/v2_depth_duration_MTurk/v2_DepthDuration_HTML.html#128,128,1364,625,1364,768,8-21-2022,10-15-53,57,depth_duration_stimuli/002279_2014-06-28_18-55-32_260595134347_rgbf000040-resize_5/002279_2014-06-28_18-55-32_260595134347_rgbf000040-resize_5-target.png,125,1.5043333333333,10.0,2219,125,meters,jsons/VE125_randls_16_rotated.json,677571,759251,48,Woman
57,655437,DepthScenes,duration_manipulation_targetAtFixation,jsons/VE125_randls_16_rotated.json,http://54.235.29.9/FacialAge/BNav_EC2/DepthDuration/v2_depth_duration_MTurk/v2_DepthDuration_HTML.html#128,128,1364,625,1364,768,8-21-2022,10-15-53,58,depth_duration_stimuli/000866_2014-06-09_20-45-42_260595134347_rgbf000139-resize_1/000866_2014-06-09_20-45-42_260595134347_rgbf000139-resize_1-target.png,125,3.2155,10.0,3236,124,meters,jsons/VE125_randls_16_rotated.json,677571,759251,48,Woman
58,655437,DepthScenes,duration_manipulation_targetAtFixation,jsons/VE125_randls_16_rotated.json,http://54.235.29.9/FacialAge/BNav_EC2/DepthDuration/v2_depth_duration_MTurk/v2_DepthDuration_HTML.html#128,128,1364,625,1364,768,8-21-2022,10-15-53,59,depth_duration_stimuli/002989_2014-06-15_12-25-03_094959634447_rgbf000150-resize_3/002989_2014-06-15_12-25-03_094959634447_rgbf000150-resize_3-target.png,125,4.1975,10.0,134610,124,meters,jsons/VE125_randls_16_rotated.json,677571,759251,48,Woman
59,655437,DepthScenes,duration_manipulation_targetAtFixation,jsons/VE125_randls_16_rotated.json,http://54.235.29.9/FacialAge/BNav_EC2/DepthDuration/v2_depth_duration_MTurk/v2_DepthDuration_HTML.html#128,128,1364,625,1364,768,8-21-2022,10-15-53,60,depth_duration_stimuli/000457_2014-06-08_16-52-43_260595134347_rgbf000199-resize_1/000457_2014-06-08_16-52-43_260595134347_rgbf000199-resize_1-target.png,125,3.6489999999999996,10.0,2115,124,meters,jsons/VE125_randls_16_rotated.json,677571,759251,48,Woman
60,655437,DepthScenes,duration_manipulation_targetAtFixation,jsons/VE125_randls_16_rotated.json,http://54.235.29.9/FacialAge/BNav_EC2/DepthDuration/v2_depth_duration_MTurk/v2_DepthDuration_HTML.html#128,128,1364,625,1364,768,8-21-2022,10-15-53,61,depth_duration_stimuli/000929_2014-06-09_16-33-19_260595134347_rgbf000139-resize_0/000929_2014-06-09_16-33-19_260595134347_rgbf000139-resize_0-target.png,125,2.8680000000000003,10.0,1953,128,meters,jsons/VE125_randls_16_rotated.json,677571,759251,48,Woman
61,655437,DepthScenes,duration_manipulation_targetAtFixation,jsons/VE125_randls_16_rotated.json,http://54.235.29.9/FacialAge/BNav_EC2/DepthDuration/v2_depth_duration_MTurk/v2_DepthDuration_HTML.html#128,128,1364,625,1364,768,8-21-2022,10-15-53,62,depth_duration_stimuli/001617_2014-06-20_11-35-32_260595134347_rgbf000066-resize_1/001617_2014-06-20_11-35-32_260595134347_rgbf000066-resize_1-target.png,125,3.7910000000000004,10.0,2218,127,meters,jsons/VE125_randls_16_rotated.json,677571,759251,48,Woman
62,655437,DepthScenes,duration_manipulation_targetAtFixation,jsons/VE125_randls_16_rotated.json,http://54.235.29.9/FacialAge/BNav_EC2/DepthDuration/v2_depth_duration_MTurk/v2_DepthDuration_HTML.html#128,128,1364,625,1364,768,8-21-2022,10-15-53,63,depth_duration_stimuli/001806_2014-06-26_20-50-20_260595134347_rgbf000091-resize_1/001806_2014-06-26_20-50-20_260595134347_rgbf000091-resize_1-target.png,125,2.7305,20.0,2230,117,meters,jsons/VE125_randls_16_rotated.json,677571,759251,48,Woman
63,655437,DepthScenes,duration_manipulation_targetAtFixation,jsons/VE125_randls_16_rotated.json,http://54.235.29.9/FacialAge/BNav_EC2/DepthDuration/v2_depth_duration_MTurk/v2_DepthDuration_HTML.html#128,128,1364,625,1364,768,8-21-2022,10-15-53,64,depth_duration_stimuli/000109_2014-05-14_23-41-52_260595134347_rgbf000035-resize_9/000109_2014-05-14_23-41-52_260595134347_rgbf000035-resize_9-target.png,125,1.3545,5.0,1942,136,meters,jsons/VE125_randls_16_rotated.json,677571,759251,48,Woman
64,655437,DepthScenes,duration_manipulation_targetAtFixation,jsons/VE125_randls_16_rotated.json,http://54.235.29.9/FacialAge/BNav_EC2/DepthDuration/v2_depth_duration_MTurk/v2_DepthDuration_HTML.html#128,128,1364,625,1364,768,8-21-2022,10-15-53,65,depth_duration_stimuli/000470_2014-06-09_19-42-40_260595134347_rgbf000094-resize_1/000470_2014-06-09_19-42-40_260595134347_rgbf000094-resize_1-target.png,125,1.831,6.0,2059,113,meters,jsons/VE125_randls_16_rotated.json,677571,759251,48,Woman
65,655437,DepthScenes,duration_manipulation_targetAtFixation,jsons/VE125_randls_16_rotated.json,http://54.235.29.9/FacialAge/BNav_EC2/DepthDuration/v2_depth_duration_MTurk/v2_DepthDuration_HTML.html#128,128,1364,625,1364,768,8-21-2022,10-15-53,66,depth_duration_stimuli/001540_2014-06-20_17-01-05_260595134347_rgbf000086-resize_2/001540_2014-06-20_17-01-05_260595134347_rgbf000086-resize-original.jpg,125,1.459,0.0,3003,123,meters,jsons/VE125_randls_16_rotated.json,677571,759251,48,Woman
66,655437,DepthScenes,duration_manipulation_targetAtFixation,jsons/VE125_randls_16_rotated.json,http://54.235.29.9/FacialAge/BNav_EC2/DepthDuration/v2_depth_duration_MTurk/v2_DepthDuration_HTML.html#128,128,1364,625,1364,768,8-21-2022,10-15-53,67,depth_duration_stimuli/001052_2014-06-08_18-24-54_260595134347_rgbf000130-resize_1/001052_2014-06-08_18-24-54_260595134347_rgbf000130-resize_1-target.png,125,4.1045,0.0,1907,111,meters,jsons/VE125_randls_16_rotated.json,677571,759251,48,Woman
67,655437,DepthScenes,duration_manipulation_targetAtFixation,jsons/VE125_randls_16_rotated.json,http://54.235.29.9/FacialAge/BNav_EC2/DepthDuration/v2_depth_duration_MTurk/v2_DepthDuration_HTML.html#128,128,1364,625,1364,768,8-21-2022,10-15-53,68,depth_duration_stimuli/002988_2014-06-15_12-24-20_094959634447_rgbf000150-resize_1/002988_2014-06-15_12-24-20_094959634447_rgbf000150-resize_1-target.png,125,4.7669999999999995,10.0,2115,127,meters,jsons/VE125_randls_16_rotated.json,677571,759251,48,Woman
68,655437,DepthScenes,duration_manipulation_targetAtFixation,jsons/VE125_randls_16_rotated.json,http://54.235.29.9/FacialAge/BNav_EC2/DepthDuration/v2_depth_duration_MTurk/v2_DepthDuration_HTML.html#128,128,1364,625,1364,768,8-21-2022,10-15-53,69,depth_duration_stimuli/002103_2014-06-25_20-00-40_260595134347_rgbf000049-resize_0/002103_2014-06-25_20-00-40_260595134347_rgbf000049-resize_0-target.png,125,4.105,10.0,2020,124,meters,jsons/VE125_randls_16_rotated.json,677571,759251,48,Woman
69,655437,DepthScenes,duration_manipulation_targetAtFixation,jsons/VE125_randls_16_rotated.json,http://54.235.29.9/FacialAge/BNav_EC2/DepthDuration/v2_depth_duration_MTurk/v2_DepthDuration_HTML.html#128,128,1364,625,1364,768,8-21-2022,10-15-53,70,depth_duration_stimuli/002039_2014-06-24_20-22-38_260595134347_rgbf000084-resize_1/002039_2014-06-24_20-22-38_260595134347_rgbf000084-resize_1-target.png,125,4.408,0.0,1843,123,meters,jsons/VE125_randls_16_rotated.json,677571,759251,48,Woman
70,655437,DepthScenes,duration_manipulation_targetAtFixation,jsons/VE125_randls_16_rotated.json,http://54.235.29.9/FacialAge/BNav_EC2/DepthDuration/v2_depth_duration_MTurk/v2_DepthDuration_HTML.html#128,128,1364,625,1364,768,8-21-2022,10-15-53,71,depth_duration_stimuli/003495_2014-05-21_16-01-51_094959634447_rgbf000100-resize_3/003495_2014-05-21_16-01-51_094959634447_rgbf000100-resize_3-target.png,125,1.6255,0.0,1846,121,meters,jsons/VE125_randls_16_rotated.json,677571,759251,48,Woman
71,655437,DepthScenes,duration_manipulation_targetAtFixation,jsons/VE125_randls_16_rotated.json,http://54.235.29.9/FacialAge/BNav_EC2/DepthDuration/v2_depth_duration_MTurk/v2_DepthDuration_HTML.html#128,128,1364,625,1364,768,8-21-2022,10-15-53,72,depth_duration_stimuli/001244_2014-06-17_16-47-45_260595134347_rgbf000030-resize_4/001244_2014-06-17_16-47-45_260595134347_rgbf000030-resize_4-target.png,125,2.0425,10.0,2227,123,meters,jsons/VE125_randls_16_rotated.json,677571,759251,48,Woman
72,655437,DepthScenes,duration_manipulation_targetAtFixation,jsons/VE125_randls_16_rotated.json,http://54.235.29.9/FacialAge/BNav_EC2/DepthDuration/v2_depth_duration_MTurk/v2_DepthDuration_HTML.html#128,128,1364,625,1364,768,8-21-2022,10-15-53,73,depth_duration_stimuli/002678_2014-06-13_16-15-32_094959634447_rgbf000151-resize_6/002678_2014-06-13_16-15-32_094959634447_rgbf000151-resize_6-target.png,125,2.1830000000000003,10.0,2274,247,meters,jsons/VE125_randls_16_rotated.json,677571,759251,48,Woman
73,655437,DepthScenes,duration_manipulation_targetAtFixation,jsons/VE125_randls_16_rotated.json,http://54.235.29.9/FacialAge/BNav_EC2/DepthDuration/v2_depth_duration_MTurk/v2_DepthDuration_HTML.html#128,128,1364,625,1364,768,8-21-2022,10-15-53,74,depth_duration_stimuli/000368_2014-06-09_15-53-01_260595134347_rgbf000155-resize_2/000368_2014-06-09_15-53-01_260595134347_rgbf000155-resize_2-target.png,125,2.4859999999999998,10.0,3605,124,meters,jsons/VE125_randls_16_rotated.json,677571,759251,48,Woman
74,655437,DepthScenes,duration_manipulation_targetAtFixation,jsons/VE125_randls_16_rotated.json,http://54.235.29.9/FacialAge/BNav_EC2/DepthDuration/v2_depth_duration_MTurk/v2_DepthDuration_HTML.html#128,128,1364,625,1364,768,8-21-2022,10-15-53,75,depth_duration_stimuli/000502_2014-06-08_23-02-32_260595134347_rgbf000063-resize_4/000502_2014-06-08_23-02-32_260595134347_rgbf000063-resize_4-target.png,125,2.431,0.0,2020,120,meters,jsons/VE125_randls_16_rotated.json,677571,759251,48,Woman
75,655437,DepthScenes,duration_manipulation_targetAtFixation,jsons/VE125_randls_16_rotated.json,http://54.235.29.9/FacialAge/BNav_EC2/DepthDuration/v2_depth_duration_MTurk/v2_DepthDuration_HTML.html#128,128,1364,625,1364,768,8-21-2022,10-15-53,76,depth_duration_stimuli/001199_2014-06-17_16-03-48_260595134347_rgbf000077-resize_0/001199_2014-06-17_16-03-48_260595134347_rgbf000077-resize_0-target.png,125,3.4375,10.0,1980,118,meters,jsons/VE125_randls_16_rotated.json,677571,759251,48,Woman
76,655437,DepthScenes,duration_manipulation_targetAtFixation,jsons/VE125_randls_16_rotated.json,http://54.235.29.9/FacialAge/BNav_EC2/DepthDuration/v2_depth_duration_MTurk/v2_DepthDuration_HTML.html#128,128,1364,625,1364,768,8-21-2022,10-15-53,77,depth_duration_stimuli/001447_2014-06-19_17-00-32_260595134347_rgbf000082-resize_5/001447_2014-06-19_17-00-32_260595134347_rgbf000082-resize_5-target.png,125,4.13775,6.0,1938,123,meters,jsons/VE125_randls_16_rotated.json,677571,759251,48,Woman
77,655437,DepthScenes,duration_manipulation_targetAtFixation,jsons/VE125_randls_16_rotated.json,http://54.235.29.9/FacialAge/BNav_EC2/DepthDuration/v2_depth_duration_MTurk/v2_DepthDuration_HTML.html#128,128,1364,625,1364,768,8-21-2022,10-15-53,78,depth_duration_stimuli/000447_2014-06-08_16-15-46_260595134347_rgbf000130-resize_1/000447_2014-06-08_16-15-46_260595134347_rgbf000130-resize_1-target.png,125,4.479,5.0,2739,115,meters,jsons/VE125_randls_16_rotated.json,677571,759251,48,Woman
78,655437,DepthScenes,duration_manipulation_targetAtFixation,jsons/VE125_randls_16_rotated.json,http://54.235.29.9/FacialAge/BNav_EC2/DepthDuration/v2_depth_duration_MTurk/v2_DepthDuration_HTML.html#128,128,1364,625,1364,768,8-21-2022,10-15-53,79,depth_duration_stimuli/001392_2014-06-19_16-07-59_260595134347_rgbf000046-resize_1/001392_2014-06-19_16-07-59_260595134347_rgbf000046-resize_1-target.png,125,4.135,6.0,3082,128,meters,jsons/VE125_randls_16_rotated.json,677571,759251,48,Woman
79,655437,DepthScenes,duration_manipulation_targetAtFixation,jsons/VE125_randls_16_rotated.json,http://54.235.29.9/FacialAge/BNav_EC2/DepthDuration/v2_depth_duration_MTurk/v2_DepthDuration_HTML.html#128,128,1364,625,1364,768,8-21-2022,10-15-53,80,depth_duration_stimuli/001570_2014-06-20_17-21-09_260595134347_rgbf000135-resize_4/001570_2014-06-20_17-21-09_260595134347_rgbf000135-resize_4-target.png,125,4.467,6.0,2023,123,meters,jsons/VE125_randls_16_rotated.json,677571,759251,48,Woman
80,655437,DepthScenes,duration_manipulation_targetAtFixation,jsons/VE125_randls_16_rotated.json,http://54.235.29.9/FacialAge/BNav_EC2/DepthDuration/v2_depth_duration_MTurk/v2_DepthDuration_HTML.html#128,128,1364,625,1364,768,8-21-2022,10-15-53,81,depth_duration_stimuli/001650_2014-06-20_12-09-00_260595134347_rgbf000087-resize_3/001650_2014-06-20_12-09-00_260595134347_rgbf000087-resize_3-target.png,125,1.9505,5.0,1898,114,meters,jsons/VE125_randls_16_rotated.json,677571,759251,48,Woman
81,655437,DepthScenes,duration_manipulation_targetAtFixation,jsons/VE125_randls_16_rotated.json,http://54.235.29.9/FacialAge/BNav_EC2/DepthDuration/v2_depth_duration_MTurk/v2_DepthDuration_HTML.html#128,128,1364,625,1364,768,8-21-2022,10-15-53,82,depth_duration_stimuli/000682_2014-06-08_23-14-58_260595134347_rgbf000041-resize_5/000682_2014-06-08_23-14-58_260595134347_rgbf000041-resize_5-target.png,125,2.7239999999999998,5.0,2205,125,meters,jsons/VE125_randls_16_rotated.json,677571,759251,48,Woman
82,655437,DepthScenes,duration_manipulation_targetAtFixation,jsons/VE125_randls_16_rotated.json,http://54.235.29.9/FacialAge/BNav_EC2/DepthDuration/v2_depth_duration_MTurk/v2_DepthDuration_HTML.html#128,128,1364,625,1364,768,8-21-2022,10-15-53,83,depth_duration_stimuli/002568_2014-06-24_13-59-21_094959634447_rgbf000062-resize_4/002568_2014-06-24_13-59-21_094959634447_rgbf000062-resize_4-target.png,125,3.015,2.0,1895,123,meters,jsons/VE125_randls_16_rotated.json,677571,759251,48,Woman
83,655437,DepthScenes,duration_manipulation_targetAtFixation,jsons/VE125_randls_16_rotated.json,http://54.235.29.9/FacialAge/BNav_EC2/DepthDuration/v2_depth_duration_MTurk/v2_DepthDuration_HTML.html#128,128,1364,625,1364,768,8-21-2022,10-15-53,84,depth_duration_stimuli/003492_2014-05-21_15-50-55_094959634447_rgbf000828-resize_1/003492_2014-05-21_15-50-55_094959634447_rgbf000828-resize_1-target.png,125,4.06875,0.0,3304,120,meters,jsons/VE125_randls_16_rotated.json,677571,759251,48,Woman
84,655437,DepthScenes,duration_manipulation_targetAtFixation,jsons/VE125_randls_16_rotated.json,http://54.235.29.9/FacialAge/BNav_EC2/DepthDuration/v2_depth_duration_MTurk/v2_DepthDuration_HTML.html#128,128,1364,625,1364,768,8-21-2022,10-15-53,85,depth_duration_stimuli/002953_2014-06-08_17-32-18_094959634447_rgbf000059-resize_5/002953_2014-06-08_17-32-18_094959634447_rgbf000059-resize_5-target.png,125,1.551,10.0,2571,174,meters,jsons/VE125_randls_16_rotated.json,677571,759251,48,Woman
85,655437,DepthScenes,duration_manipulation_targetAtFixation,jsons/VE125_randls_16_rotated.json,http://54.235.29.9/FacialAge/BNav_EC2/DepthDuration/v2_depth_duration_MTurk/v2_DepthDuration_HTML.html#128,128,1364,625,1364,768,8-21-2022,10-15-53,86,depth_duration_stimuli/000878_2014-06-08_22-52-45_260595134347_rgbf000045-resize_2/000878_2014-06-08_22-52-45_260595134347_rgbf000045-resize_2-target.png,125,2.092,10.0,3301,122,meters,jsons/VE125_randls_16_rotated.json,677571,759251,48,Woman
86,655437,DepthScenes,duration_manipulation_targetAtFixation,jsons/VE125_randls_16_rotated.json,http://54.235.29.9/FacialAge/BNav_EC2/DepthDuration/v2_depth_duration_MTurk/v2_DepthDuration_HTML.html#128,128,1364,625,1364,768,8-21-2022,10-15-53,87,depth_duration_stimuli/000191_2014-05-12_17-07-38_260595134347_rgbf000199-resize_0/000191_2014-05-12_17-07-38_260595134347_rgbf000199-resize_0-target.png,125,3.7995,5.0,1911,116,meters,jsons/VE125_randls_16_rotated.json,677571,759251,48,Woman
87,655437,DepthScenes,duration_manipulation_targetAtFixation,jsons/VE125_randls_16_rotated.json,http://54.235.29.9/FacialAge/BNav_EC2/DepthDuration/v2_depth_duration_MTurk/v2_DepthDuration_HTML.html#128,128,1364,625,1364,768,8-21-2022,10-15-53,88,depth_duration_stimuli/000493_2014-06-09_21-01-18_260595134347_rgbf000196-resize_3/000493_2014-06-09_21-01-18_260595134347_rgbf000196-resize_3-target.png,125,3.44,0.0,1756,123,meters,jsons/VE125_randls_16_rotated.json,677571,759251,48,Woman
88,655437,DepthScenes,duration_manipulation_targetAtFixation,jsons/VE125_randls_16_rotated.json,http://54.235.29.9/FacialAge/BNav_EC2/DepthDuration/v2_depth_duration_MTurk/v2_DepthDuration_HTML.html#128,128,1364,625,1364,768,8-21-2022,10-15-53,89,depth_duration_stimuli/002949_2014-06-26_15-57-42_094959634447_rgbf000079-resize_1/002949_2014-06-26_15-57-42_094959634447_rgbf000079-resize_1-target.png,125,1.8915,0.0,2509,18,meters,jsons/VE125_randls_16_rotated.json,677571,759251,48,Woman
89,655437,DepthScenes,duration_manipulation_targetAtFixation,jsons/VE125_randls_16_rotated.json,http://54.235.29.9/FacialAge/BNav_EC2/DepthDuration/v2_depth_duration_MTurk/v2_DepthDuration_HTML.html#128,128,1364,625,1364,768,8-21-2022,10-15-53,90,depth_duration_stimuli/000522_2014-06-08_13-35-06_260595134347_rgbf000244-resize_1/000522_2014-06-08_13-35-06_260595134347_rgbf000244-resize_1-target.png,125,2.3715,10.0,2553,123,meters,jsons/VE125_randls_16_rotated.json,677571,759251,48,Woman
90,655437,DepthScenes,duration_manipulation_targetAtFixation,jsons/VE125_randls_16_rotated.json,http://54.235.29.9/FacialAge/BNav_EC2/DepthDuration/v2_depth_duration_MTurk/v2_DepthDuration_HTML.html#128,128,1364,625,1364,768,8-21-2022,10-15-53,91,depth_duration_stimuli/003587_2014-05-23_16-48-02_094959634447_rgbf002384-resize_2/003587_2014-05-23_16-48-02_094959634447_rgbf002384-resize_2-target.png,125,1.357,20.0,2158,122,meters,jsons/VE125_randls_16_rotated.json,677571,759251,48,Woman
91,655437,DepthScenes,duration_manipulation_targetAtFixation,jsons/VE125_randls_16_rotated.json,http://54.235.29.9/FacialAge/BNav_EC2/DepthDuration/v2_depth_duration_MTurk/v2_DepthDuration_HTML.html#128,128,1364,625,1364,768,8-21-2022,10-15-53,92,depth_duration_stimuli/001167_2014-06-17_15-38-07_260595134347_rgbf000108-resize_0/001167_2014-06-17_15-38-07_260595134347_rgbf000108-resize_0-target.png,125,1.8505,15.0,2330,134,meters,jsons/VE125_randls_16_rotated.json,677571,759251,48,Woman
92,655437,DepthScenes,duration_manipulation_targetAtFixation,jsons/VE125_randls_16_rotated.json,http://54.235.29.9/FacialAge/BNav_EC2/DepthDuration/v2_depth_duration_MTurk/v2_DepthDuration_HTML.html#128,128,1364,625,1364,768,8-21-2022,10-15-53,93,depth_duration_stimuli/000556_2014-06-09_22-42-56_260595134347_rgbf000214-resize_1/000556_2014-06-09_22-42-56_260595134347_rgbf000214-resize_1-target.png,125,4.8415,10.0,2113,124,meters,jsons/VE125_randls_16_rotated.json,677571,759251,48,Woman
93,655437,DepthScenes,duration_manipulation_targetAtFixation,jsons/VE125_randls_16_rotated.json,http://54.235.29.9/FacialAge/BNav_EC2/DepthDuration/v2_depth_duration_MTurk/v2_DepthDuration_HTML.html#128,128,1364,625,1364,768,8-21-2022,10-15-53,94,depth_duration_stimuli/001158_2014-06-17_15-32-16_260595134347_rgbf000138-resize_2/001158_2014-06-17_15-32-16_260595134347_rgbf000138-resize_2-target.png,125,4.5315,5.0,2137,127,meters,jsons/VE125_randls_16_rotated.json,677571,759251,48,Woman
94,655437,DepthScenes,duration_manipulation_targetAtFixation,jsons/VE125_randls_16_rotated.json,http://54.235.29.9/FacialAge/BNav_EC2/DepthDuration/v2_depth_duration_MTurk/v2_DepthDuration_HTML.html#128,128,1364,625,1364,768,8-21-2022,10-15-53,95,depth_duration_stimuli/003129_2014-05-12_10-48-10_094959634447_rgbf000100-resize_0/003129_2014-05-12_10-48-10_094959634447_rgbf000100-resize_0-target.png,125,4.9305,6.0,1929,124,meters,jsons/VE125_randls_16_rotated.json,677571,759251,48,Woman
95,655437,DepthScenes,duration_manipulation_targetAtFixation,jsons/VE125_randls_16_rotated.json,http://54.235.29.9/FacialAge/BNav_EC2/DepthDuration/v2_depth_duration_MTurk/v2_DepthDuration_HTML.html#128,128,1364,625,1364,768,8-21-2022,10-15-53,96,depth_duration_stimuli/000414_2014-06-04_19-49-13_260595134347_rgbf000044-resize_0/000414_2014-06-04_19-49-13_260595134347_rgbf000044-resize_0-target.png,125,4.329,5.0,2155,108,meters,jsons/VE125_randls_16_rotated.json,677571,759251,48,Woman
96,655437,DepthScenes,duration_manipulation_targetAtFixation,jsons/VE125_randls_16_rotated.json,http://54.235.29.9/FacialAge/BNav_EC2/DepthDuration/v2_depth_duration_MTurk/v2_DepthDuration_HTML.html#128,128,1364,625,1364,768,8-21-2022,10-15-53,97,depth_duration_stimuli/001136_2014-06-17_15-19-41_260595134347_rgbf000076-resize_3/001136_2014-06-17_15-19-41_260595134347_rgbf000076-resize_3-target.png,125,1.8655,5.0,2268,115,meters,jsons/VE125_randls_16_rotated.json,677571,759251,48,Woman
97,655437,DepthScenes,duration_manipulation_targetAtFixation,jsons/VE125_randls_16_rotated.json,http://54.235.29.9/FacialAge/BNav_EC2/DepthDuration/v2_depth_duration_MTurk/v2_DepthDuration_HTML.html#128,128,1364,625,1364,768,8-21-2022,10-15-53,98,depth_duration_stimuli/001164_2014-06-17_15-35-46_260595134347_rgbf000085-resize_3/001164_2014-06-17_15-35-46_260595134347_rgbf000085-resize_3-target.png,125,2.354,6.0,2080,120,meters,jsons/VE125_randls_16_rotated.json,677571,759251,48,Woman
98,655437,DepthScenes,duration_manipulation_targetAtFixation,jsons/VE125_randls_16_rotated.json,http://54.235.29.9/FacialAge/BNav_EC2/DepthDuration/v2_depth_duration_MTurk/v2_DepthDuration_HTML.html#128,128,1364,625,1364,768,8-21-2022,10-15-53,99,depth_duration_stimuli/001222_2014-06-17_16-24-06_260595134347_rgbf000073-resize_0/001222_2014-06-17_16-24-06_260595134347_rgbf000073-resize-original.jpg,125,1.4385,45.0,3537,112,meters,jsons/VE125_randls_16_rotated.json,677571,759251,48,Woman
99,655437,DepthScenes,duration_manipulation_targetAtFixation,jsons/VE125_randls_16_rotated.json,http://54.235.29.9/FacialAge/BNav_EC2/DepthDuration/v2_depth_duration_MTurk/v2_DepthDuration_HTML.html#128,128,1364,625,1364,768,8-21-2022,10-15-53,100,depth_duration_stimuli/000943_2014-06-09_19-31-07_260595134347_rgbf000128-resize_1/000943_2014-06-09_19-31-07_260595134347_rgbf000128-resize_1-target.png,125,1.9765,10.0,2791,125,meters,jsons/VE125_randls_16_rotated.json,677571,759251,48,Woman
100,655437,DepthScenes,duration_manipulation_targetAtFixation,jsons/VE125_randls_16_rotated.json,http://54.235.29.9/FacialAge/BNav_EC2/DepthDuration/v2_depth_duration_MTurk/v2_DepthDuration_HTML.html#128,128,1364,625,1364,768,8-21-2022,10-15-53,101,depth_duration_stimuli/003070_2014-06-15_14-58-27_094959634447_rgbf000150-resize_3/003070_2014-06-15_14-58-27_094959634447_rgbf000150-resize_3-target.png,125,2.9415,5.0,7226,123,meters,jsons/VE125_randls_16_rotated.json,677571,759251,48,Woman
101,655437,DepthScenes,duration_manipulation_targetAtFixation,jsons/VE125_randls_16_rotated.json,http://54.235.29.9/FacialAge/BNav_EC2/DepthDuration/v2_depth_duration_MTurk/v2_DepthDuration_HTML.html#128,128,1364,625,1364,768,8-21-2022,10-15-53,102,depth_duration_stimuli/002444_2014-06-28_20-32-08_260595134347_rgbf000027-resize_0/002444_2014-06-28_20-32-08_260595134347_rgbf000027-resize_0-target.png,125,4.388999999999999,5.0,3898,123,meters,jsons/VE125_randls_16_rotated.json,677571,759251,48,Woman
102,655437,DepthScenes,duration_manipulation_targetAtFixation,jsons/VE125_randls_16_rotated.json,http://54.235.29.9/FacialAge/BNav_EC2/DepthDuration/v2_depth_duration_MTurk/v2_DepthDuration_HTML.html#128,128,1364,625,1364,768,8-21-2022,10-15-53,103,depth_duration_stimuli/000436_2014-06-09_22-25-11_260595134347_rgbf000137-resize_1/000436_2014-06-09_22-25-11_260595134347_rgbf000137-resize_1-target.png,125,4.0705,5.0,2868,242,meters,jsons/VE125_randls_16_rotated.json,677571,759251,48,Woman
103,655437,DepthScenes,duration_manipulation_targetAtFixation,jsons/VE125_randls_16_rotated.json,http://54.235.29.9/FacialAge/BNav_EC2/DepthDuration/v2_depth_duration_MTurk/v2_DepthDuration_HTML.html#128,128,1364,625,1364,768,8-21-2022,10-15-53,104,depth_duration_stimuli/003490_2014-05-21_15-50-11_094959634447_rgbf000101-resize_3/003490_2014-05-21_15-50-11_094959634447_rgbf000101-resize_3-target.png,125,3.6445,6.0,2074,103,meters,jsons/VE125_randls_16_rotated.json,677571,759251,48,Woman
104,655437,DepthScenes,duration_manipulation_targetAtFixation,jsons/VE125_randls_16_rotated.json,http://54.235.29.9/FacialAge/BNav_EC2/DepthDuration/v2_depth_duration_MTurk/v2_DepthDuration_HTML.html#128,128,1364,625,1364,768,8-21-2022,10-15-53,105,depth_duration_stimuli/001175_2014-06-17_15-45-55_260595134347_rgbf000129-resize_4/001175_2014-06-17_15-45-55_260595134347_rgbf000129-resize_4-target.png,125,4.255,5.0,1991,124,meters,jsons/VE125_randls_16_rotated.json,677571,759251,48,Woman
105,655437,DepthScenes,duration_manipulation_targetAtFixation,jsons/VE125_randls_16_rotated.json,http://54.235.29.9/FacialAge/BNav_EC2/DepthDuration/v2_depth_duration_MTurk/v2_DepthDuration_HTML.html#128,128,1364,625,1364,768,8-21-2022,10-15-53,106,depth_duration_stimuli/002323_2014-06-28_20-01-54_260595134347_rgbf000051-resize_4/002323_2014-06-28_20-01-54_260595134347_rgbf000051-resize_4-target.png,125,3.7310000000000003,5.0,2444,111,meters,jsons/VE125_randls_16_rotated.json,677571,759251,48,Woman
106,655437,DepthScenes,duration_manipulation_targetAtFixation,jsons/VE125_randls_16_rotated.json,http://54.235.29.9/FacialAge/BNav_EC2/DepthDuration/v2_depth_duration_MTurk/v2_DepthDuration_HTML.html#128,128,1364,625,1364,768,8-21-2022,10-15-53,107,depth_duration_stimuli/000917_2014-06-09_22-45-29_260595134347_rgbf000149-resize_3/000917_2014-06-09_22-45-29_260595134347_rgbf000149-resize_3-target.png,125,4.1865,3.0,1893,125,meters,jsons/VE125_randls_16_rotated.json,677571,759251,48,Woman
107,655437,DepthScenes,duration_manipulation_targetAtFixation,jsons/VE125_randls_16_rotated.json,http://54.235.29.9/FacialAge/BNav_EC2/DepthDuration/v2_depth_duration_MTurk/v2_DepthDuration_HTML.html#128,128,1364,625,1364,768,8-21-2022,10-15-53,108,depth_duration_stimuli/000709_2014-06-08_13-51-55_260595134347_rgbf000068-resize_3/000709_2014-06-08_13-51-55_260595134347_rgbf000068-resize_3-target.png,125,1.8030000000000002,5.0,2014,123,meters,jsons/VE125_randls_16_rotated.json,677571,759251,48,Woman
108,655437,DepthScenes,duration_manipulation_targetAtFixation,jsons/VE125_randls_16_rotated.json,http://54.235.29.9/FacialAge/BNav_EC2/DepthDuration/v2_depth_duration_MTurk/v2_DepthDuration_HTML.html#128,128,1364,625,1364,768,8-21-2022,10-15-53,109,depth_duration_stimuli/002057_2014-06-24_21-00-13_260595134347_rgbf000120-resize_1/002057_2014-06-24_21-00-13_260595134347_rgbf000120-resize_1-target.png,125,2.967,3.0,2336,65,meters,jsons/VE125_randls_16_rotated.json,677571,759251,48,Woman
109,655437,DepthScenes,duration_manipulation_targetAtFixation,jsons/VE125_randls_16_rotated.json,http://54.235.29.9/FacialAge/BNav_EC2/DepthDuration/v2_depth_duration_MTurk/v2_DepthDuration_HTML.html#128,128,1364,625,1364,768,8-21-2022,10-15-53,110,depth_duration_stimuli/001815_2014-06-26_20-52-55_260595134347_rgbf000020-resize_0/001815_2014-06-26_20-52-55_260595134347_rgbf000020-resize_0-target.png,125,3.3865,4.0,2622,116,meters,jsons/VE125_randls_16_rotated.json,677571,759251,48,Woman
110,655437,DepthScenes,duration_manipulation_targetAtFixation,jsons/VE125_randls_16_rotated.json,http://54.235.29.9/FacialAge/BNav_EC2/DepthDuration/v2_depth_duration_MTurk/v2_DepthDuration_HTML.html#128,128,1364,625,1364,768,8-21-2022,10-15-53,111,depth_duration_stimuli/001808_2014-06-26_20-50-58_260595134347_rgbf000029-resize_1/001808_2014-06-26_20-50-58_260595134347_rgbf000029-resize_1-target.png,125,4.249,10.0,2225,136,meters,jsons/VE125_randls_16_rotated.json,677571,759251,48,Woman
111,655437,DepthScenes,duration_manipulation_targetAtFixation,jsons/VE125_randls_16_rotated.json,http://54.235.29.9/FacialAge/BNav_EC2/DepthDuration/v2_depth_duration_MTurk/v2_DepthDuration_HTML.html#128,128,1364,625,1364,768,8-21-2022,10-15-53,112,depth_duration_stimuli/002209_2014-06-28_18-36-10_260595134347_rgbf000051-resize_1/002209_2014-06-28_18-36-10_260595134347_rgbf000051-resize_1-target.png,125,2.057,0.0,1909,118,meters,jsons/VE125_randls_16_rotated.json,677571,759251,48,Woman
112,655437,DepthScenes,duration_manipulation_targetAtFixation,jsons/VE125_randls_16_rotated.json,http://54.235.29.9/FacialAge/BNav_EC2/DepthDuration/v2_depth_duration_MTurk/v2_DepthDuration_HTML.html#128,128,1364,625,1364,768,8-21-2022,10-15-53,113,depth_duration_stimuli/002763_2014-06-22_19-13-10_094959634447_rgbf000075-resize_4/002763_2014-06-22_19-13-10_094959634447_rgbf000075-resize_4-target.png,125,1.68375,5.0,1901,128,meters,jsons/VE125_randls_16_rotated.json,677571,759251,48,Woman
113,655437,DepthScenes,duration_manipulation_targetAtFixation,jsons/VE125_randls_16_rotated.json,http://54.235.29.9/FacialAge/BNav_EC2/DepthDuration/v2_depth_duration_MTurk/v2_DepthDuration_HTML.html#128,128,1364,625,1364,768,8-21-2022,10-15-53,114,depth_duration_stimuli/002639_2014-06-24_14-51-37_094959634447_rgbf000074-resize_4/002639_2014-06-24_14-51-37_094959634447_rgbf000074-resize_4-target.png,125,4.0375,6.0,2242,120,meters,jsons/VE125_randls_16_rotated.json,677571,759251,48,Woman
114,655437,DepthScenes,duration_manipulation_targetAtFixation,jsons/VE125_randls_16_rotated.json,http://54.235.29.9/FacialAge/BNav_EC2/DepthDuration/v2_depth_duration_MTurk/v2_DepthDuration_HTML.html#128,128,1364,625,1364,768,8-21-2022,10-15-53,115,depth_duration_stimuli/003292_2014-05-14_21-53-49_094959634447_rgbf000100-resize_2/003292_2014-05-14_21-53-49_094959634447_rgbf000100-resize_2-target.png,125,3.4815,5.0,1964,123,meters,jsons/VE125_randls_16_rotated.json,677571,759251,48,Woman
115,655437,DepthScenes,duration_manipulation_targetAtFixation,jsons/VE125_randls_16_rotated.json,http://54.235.29.9/FacialAge/BNav_EC2/DepthDuration/v2_depth_duration_MTurk/v2_DepthDuration_HTML.html#128,128,1364,625,1364,768,8-21-2022,10-15-53,116,depth_duration_stimuli/001214_2014-06-17_16-13-55_260595134347_rgbf000111-resize_0/001214_2014-06-17_16-13-55_260595134347_rgbf000111-resize_0-target.png,125,2.6505,6.0,2505,135,meters,jsons/VE125_randls_16_rotated.json,677571,759251,48,Woman
116,655437,DepthScenes,duration_manipulation_targetAtFixation,jsons/VE125_randls_16_rotated.json,http://54.235.29.9/FacialAge/BNav_EC2/DepthDuration/v2_depth_duration_MTurk/v2_DepthDuration_HTML.html#128,128,1364,625,1364,768,8-21-2022,10-15-53,117,depth_duration_stimuli/000810_2014-06-08_17-20-01_260595134347_rgbf000105-resize_0/000810_2014-06-08_17-20-01_260595134347_rgbf000105-resize_0-target.png,125,1.4865,3.0,2022,126,meters,jsons/VE125_randls_16_rotated.json,677571,759251,48,Woman
117,655437,DepthScenes,duration_manipulation_targetAtFixation,jsons/VE125_randls_16_rotated.json,http://54.235.29.9/FacialAge/BNav_EC2/DepthDuration/v2_depth_duration_MTurk/v2_DepthDuration_HTML.html#128,128,1364,625,1364,768,8-21-2022,10-15-53,118,depth_duration_stimuli/000677_2014-06-08_23-10-32_260595134347_rgbf000158-resize_6/000677_2014-06-08_23-10-32_260595134347_rgbf000158-resize_6-target.png,125,3.556,6.0,2089,135,meters,jsons/VE125_randls_16_rotated.json,677571,759251,48,Woman
118,655437,DepthScenes,duration_manipulation_targetAtFixation,jsons/VE125_randls_16_rotated.json,http://54.235.29.9/FacialAge/BNav_EC2/DepthDuration/v2_depth_duration_MTurk/v2_DepthDuration_HTML.html#128,128,1364,625,1364,768,8-21-2022,10-15-53,119,depth_duration_stimuli/001029_2014-06-08_13-17-57_260595134347_rgbf000065-resize_1/001029_2014-06-08_13-17-57_260595134347_rgbf000065-resize_1-target.png,125,3.0835,10.0,2281,122,meters,jsons/VE125_randls_16_rotated.json,677571,759251,48,Woman
119,655437,DepthScenes,duration_manipulation_targetAtFixation,jsons/VE125_randls_16_rotated.json,http://54.235.29.9/FacialAge/BNav_EC2/DepthDuration/v2_depth_duration_MTurk/v2_DepthDuration_HTML.html#128,128,1364,625,1364,768,8-21-2022,10-15-53,120,depth_duration_stimuli/000787_2014-06-08_22-33-53_260595134347_rgbf000175-resize_1/000787_2014-06-08_22-33-53_260595134347_rgbf000175-resize-original.jpg,125,4.784,0.0,2691,109,meters,jsons/VE125_randls_16_rotated.json,677571,759251,48,Woman
120,655437,DepthScenes,duration_manipulation_targetAtFixation,jsons/VE125_randls_16_rotated.json,http://54.235.29.9/FacialAge/BNav_EC2/DepthDuration/v2_depth_duration_MTurk/v2_DepthDuration_HTML.html#128,128,1364,625,1364,768,8-21-2022,10-15-53,121,depth_duration_stimuli/002657_2014-06-13_15-29-54_094959634447_rgbf000150-resize_1/002657_2014-06-13_15-29-54_094959634447_rgbf000150-resize_1-target.png,125,4.919,10.0,4546,121,meters,jsons/VE125_randls_16_rotated.json,677571,759251,48,Woman
121,655437,DepthScenes,duration_manipulation_targetAtFixation,jsons/VE125_randls_16_rotated.json,http://54.235.29.9/FacialAge/BNav_EC2/DepthDuration/v2_depth_duration_MTurk/v2_DepthDuration_HTML.html#128,128,1364,625,1364,768,8-21-2022,10-15-53,122,depth_duration_stimuli/002375_2014-06-28_20-13-44_260595134347_rgbf000032-resize_1/002375_2014-06-28_20-13-44_260595134347_rgbf000032-resize_1-target.png,125,4.0175,5.0,1982,123,meters,jsons/VE125_randls_16_rotated.json,677571,759251,48,Woman
122,655437,DepthScenes,duration_manipulation_targetAtFixation,jsons/VE125_randls_16_rotated.json,http://54.235.29.9/FacialAge/BNav_EC2/DepthDuration/v2_depth_duration_MTurk/v2_DepthDuration_HTML.html#128,128,1364,625,1364,768,8-21-2022,10-15-53,123,depth_duration_stimuli/000749_2014-06-08_21-55-06_260595134347_rgbf000070-resize_2/000749_2014-06-08_21-55-06_260595134347_rgbf000070-resize_2-target.png,125,2.331,6.0,1774,0,meters,jsons/VE125_randls_16_rotated.json,677571,759251,48,Woman
123,655437,DepthScenes,duration_manipulation_targetAtFixation,jsons/VE125_randls_16_rotated.json,http://54.235.29.9/FacialAge/BNav_EC2/DepthDuration/v2_depth_duration_MTurk/v2_DepthDuration_HTML.html#128,128,1364,625,1364,768,8-21-2022,10-15-53,124,depth_duration_stimuli/002788_2014-06-22_19-36-03_094959634447_rgbf000088-resize_2/002788_2014-06-22_19-36-03_094959634447_rgbf000088-resize_2-target.png,125,1.6465,15.0,2918,99,meters,jsons/VE125_randls_16_rotated.json,677571,759251,48,Woman
124,655437,DepthScenes,duration_manipulation_targetAtFixation,jsons/VE125_randls_16_rotated.json,http://54.235.29.9/FacialAge/BNav_EC2/DepthDuration/v2_depth_duration_MTurk/v2_DepthDuration_HTML.html#128,128,1364,625,1364,768,8-21-2022,10-15-53,125,depth_duration_stimuli/001032_2014-06-08_13-23-17_260595134347_rgbf000021-resize_3/001032_2014-06-08_13-23-17_260595134347_rgbf000021-resize_3-target.png,125,3.2725,15.0,2129,123,meters,jsons/VE125_randls_16_rotated.json,677571,759251,48,Woman
125,655437,DepthScenes,duration_manipulation_targetAtFixation,jsons/VE125_randls_16_rotated.json,http://54.235.29.9/FacialAge/BNav_EC2/DepthDuration/v2_depth_duration_MTurk/v2_DepthDuration_HTML.html#128,128,1364,625,1364,768,8-21-2022,10-15-53,126,depth_duration_stimuli/001059_2014-06-08_21-53-27_260595134347_rgbf000061-resize_4/001059_2014-06-08_21-53-27_260595134347_rgbf000061-resize_4-target.png,125,2.4185,10.0,2132,138,meters,jsons/VE125_randls_16_rotated.json,677571,759251,48,Woman
126,655437,DepthScenes,duration_manipulation_targetAtFixation,jsons/VE125_randls_16_rotated.json,http://54.235.29.9/FacialAge/BNav_EC2/DepthDuration/v2_depth_duration_MTurk/v2_DepthDuration_HTML.html#128,128,1364,625,1364,768,8-21-2022,10-15-53,127,depth_duration_stimuli/001450_2014-06-19_17-02-03_260595134347_rgbf000203-resize_4/001450_2014-06-19_17-02-03_260595134347_rgbf000203-resize_4-target.png,125,4.0106666666667,10.0,2315,103,meters,jsons/VE125_randls_16_rotated.json,677571,759251,48,Woman
127,655437,DepthScenes,duration_manipulation_targetAtFixation,jsons/VE125_randls_16_rotated.json,http://54.235.29.9/FacialAge/BNav_EC2/DepthDuration/v2_depth_duration_MTurk/v2_DepthDuration_HTML.html#128,128,1364,625,1364,768,8-21-2022,10-15-53,128,depth_duration_stimuli/001449_2014-06-19_17-01-27_260595134347_rgbf000116-resize_2/001449_2014-06-19_17-01-27_260595134347_rgbf000116-resize_2-target.png,125,3.452,5.0,1997,127,meters,jsons/VE125_randls_16_rotated.json,677571,759251,48,Woman
128,655437,DepthScenes,duration_manipulation_targetAtFixation,jsons/VE125_randls_16_rotated.json,http://54.235.29.9/FacialAge/BNav_EC2/DepthDuration/v2_depth_duration_MTurk/v2_DepthDuration_HTML.html#128,128,1364,625,1364,768,8-21-2022,10-15-53,129,depth_duration_stimuli/001571_2014-06-20_17-21-32_260595134347_rgbf000089-resize_1/001571_2014-06-20_17-21-32_260595134347_rgbf000089-resize_1-target.png,125,1.86,0.0,2420,122,meters,jsons/VE125_randls_16_rotated.json,677571,759251,48,Woman
129,655437,DepthScenes,duration_manipulation_targetAtFixation,jsons/VE125_randls_16_rotated.json,http://54.235.29.9/FacialAge/BNav_EC2/DepthDuration/v2_depth_duration_MTurk/v2_DepthDuration_HTML.html#128,128,1364,625,1364,768,8-21-2022,10-15-53,130,depth_duration_stimuli/002272_2014-06-28_18-53-56_260595134347_rgbf000067-resize_2/002272_2014-06-28_18-53-56_260595134347_rgbf000067-resize_2-target.png,125,1.138,0.0,1950,123,meters,jsons/VE125_randls_16_rotated.json,677571,759251,48,Woman
130,655437,DepthScenes,duration_manipulation_targetAtFixation,jsons/VE125_randls_16_rotated.json,http://54.235.29.9/FacialAge/BNav_EC2/DepthDuration/v2_depth_duration_MTurk/v2_DepthDuration_HTML.html#128,128,1364,625,1364,768,8-21-2022,10-15-53,131,depth_duration_stimuli/001132_2014-06-17_14-48-54_260595134347_rgbf000100-resize_2/001132_2014-06-17_14-48-54_260595134347_rgbf000100-resize_2-target.png,125,3.753,0.0,2098,130,meters,jsons/VE125_randls_16_rotated.json,677571,759251,48,Woman
131,655437,DepthScenes,duration_manipulation_targetAtFixation,jsons/VE125_randls_16_rotated.json,http://54.235.29.9/FacialAge/BNav_EC2/DepthDuration/v2_depth_duration_MTurk/v2_DepthDuration_HTML.html#128,128,1364,625,1364,768,8-21-2022,10-15-53,132,depth_duration_stimuli/001133_2014-06-17_14-49-16_260595134347_rgbf000100-resize_0/001133_2014-06-17_14-49-16_260595134347_rgbf000100-resize_0-target.png,125,4.2115,0.0,2811,121,meters,jsons/VE125_randls_16_rotated.json,677571,759251,48,Woman
132,655437,DepthScenes,duration_manipulation_targetAtFixation,jsons/VE125_randls_16_rotated.json,http://54.235.29.9/FacialAge/BNav_EC2/DepthDuration/v2_depth_duration_MTurk/v2_DepthDuration_HTML.html#128,128,1364,625,1364,768,8-21-2022,10-15-53,133,depth_duration_stimuli/002467_2014-06-28_20-38-07_260595134347_rgbf000026-resize_2/002467_2014-06-28_20-38-07_260595134347_rgbf000026-resize_2-target.png,125,4.742,0.0,4135,124,meters,jsons/VE125_randls_16_rotated.json,677571,759251,48,Woman
133,655437,DepthScenes,duration_manipulation_targetAtFixation,jsons/VE125_randls_16_rotated.json,http://54.235.29.9/FacialAge/BNav_EC2/DepthDuration/v2_depth_duration_MTurk/v2_DepthDuration_HTML.html#128,128,1364,625,1364,768,8-21-2022,10-15-53,134,depth_duration_stimuli/002570_2014-06-24_13-59-54_094959634447_rgbf000059-resize_0/002570_2014-06-24_13-59-54_094959634447_rgbf000059-resize_0-target.png,125,4.037,6.0,2112,117,meters,jsons/VE125_randls_16_rotated.json,677571,759251,48,Woman
134,655437,DepthScenes,duration_manipulation_targetAtFixation,jsons/VE125_randls_16_rotated.json,http://54.235.29.9/FacialAge/BNav_EC2/DepthDuration/v2_depth_duration_MTurk/v2_DepthDuration_HTML.html#128,128,1364,625,1364,768,8-21-2022,10-15-53,135,depth_duration_stimuli/000375_2014-06-08_11-17-29_260595134347_rgbf000133-resize_2/000375_2014-06-08_11-17-29_260595134347_rgbf000133-resize-original.jpg,125,4.718,5.0,2383,122,meters,jsons/VE125_randls_16_rotated.json,677571,759251,48,Woman
135,655437,DepthScenes,duration_manipulation_targetAtFixation,jsons/VE125_randls_16_rotated.json,http://54.235.29.9/FacialAge/BNav_EC2/DepthDuration/v2_depth_duration_MTurk/v2_DepthDuration_HTML.html#128,128,1364,625,1364,768,8-21-2022,10-15-53,136,depth_duration_stimuli/000137_2014-05-20_17-04-49_260595134347_rgbf000120-resize_1/000137_2014-05-20_17-04-49_260595134347_rgbf000120-resize_1-target.png,125,3.786,6.0,3823,124,meters,jsons/VE125_randls_16_rotated.json,677571,759251,48,Woman
136,655437,DepthScenes,duration_manipulation_targetAtFixation,jsons/VE125_randls_16_rotated.json,http://54.235.29.9/FacialAge/BNav_EC2/DepthDuration/v2_depth_duration_MTurk/v2_DepthDuration_HTML.html#128,128,1364,625,1364,768,8-21-2022,10-15-53,137,depth_duration_stimuli/000736_2014-06-08_18-24-15_260595134347_rgbf000206-resize_3/000736_2014-06-08_18-24-15_260595134347_rgbf000206-resize_3-target.png,125,3.515,6.0,4169,124,meters,jsons/VE125_randls_16_rotated.json,677571,759251,48,Woman
137,655437,DepthScenes,duration_manipulation_targetAtFixation,jsons/VE125_randls_16_rotated.json,http://54.235.29.9/FacialAge/BNav_EC2/DepthDuration/v2_depth_duration_MTurk/v2_DepthDuration_HTML.html#128,128,1364,625,1364,768,8-21-2022,10-15-53,138,depth_duration_stimuli/002340_2014-06-28_20-05-46_260595134347_rgbf000113-resize_0/002340_2014-06-28_20-05-46_260595134347_rgbf000113-resize_0-target.png,125,2.4735,5.0,2019,117,meters,jsons/VE125_randls_16_rotated.json,677571,759251,48,Woman
138,655437,DepthScenes,duration_manipulation_targetAtFixation,jsons/VE125_randls_16_rotated.json,http://54.235.29.9/FacialAge/BNav_EC2/DepthDuration/v2_depth_duration_MTurk/v2_DepthDuration_HTML.html#128,128,1364,625,1364,768,8-21-2022,10-15-53,139,depth_duration_stimuli/001016_2014-06-09_16-16-10_260595134347_rgbf000112-resize_5/001016_2014-06-09_16-16-10_260595134347_rgbf000112-resize_5-target.png,125,1.6565,6.0,2000,114,meters,jsons/VE125_randls_16_rotated.json,677571,759251,48,Woman
139,655437,DepthScenes,duration_manipulation_targetAtFixation,jsons/VE125_randls_16_rotated.json,http://54.235.29.9/FacialAge/BNav_EC2/DepthDuration/v2_depth_duration_MTurk/v2_DepthDuration_HTML.html#128,128,1364,625,1364,768,8-21-2022,10-15-53,140,depth_duration_stimuli/000103_2014-05-14_22-01-17_260595134347_rgbf000152-resize_5/000103_2014-05-14_22-01-17_260595134347_rgbf000152-resize_5-target.png,125,1.993,5.0,2085,126,meters,jsons/VE125_randls_16_rotated.json,677571,759251,48,Woman
140,655437,DepthScenes,duration_manipulation_targetAtFixation,jsons/VE125_randls_16_rotated.json,http://54.235.29.9/FacialAge/BNav_EC2/DepthDuration/v2_depth_duration_MTurk/v2_DepthDuration_HTML.html#128,128,1364,625,1364,768,8-21-2022,10-15-53,141,depth_duration_stimuli/001555_2014-06-20_17-12-10_260595134347_rgbf000065-resize_4/001555_2014-06-20_17-12-10_260595134347_rgbf000065-resize_4-target.png,125,1.633,5.0,2926,118,meters,jsons/VE125_randls_16_rotated.json,677571,759251,48,Woman
141,655437,DepthScenes,duration_manipulation_targetAtFixation,jsons/VE125_randls_16_rotated.json,http://54.235.29.9/FacialAge/BNav_EC2/DepthDuration/v2_depth_duration_MTurk/v2_DepthDuration_HTML.html#128,128,1364,625,1364,768,8-21-2022,10-15-53,142,depth_duration_stimuli/000665_2014-06-09_20-42-35_260595134347_rgbf000110-resize_1/000665_2014-06-09_20-42-35_260595134347_rgbf000110-resize_1-target.png,125,3.057,5.0,3134,122,meters,jsons/VE125_randls_16_rotated.json,677571,759251,48,Woman
142,655437,DepthScenes,duration_manipulation_targetAtFixation,jsons/VE125_randls_16_rotated.json,http://54.235.29.9/FacialAge/BNav_EC2/DepthDuration/v2_depth_duration_MTurk/v2_DepthDuration_HTML.html#128,128,1364,625,1364,768,8-21-2022,10-15-53,143,depth_duration_stimuli/001150_2014-06-17_15-27-34_260595134347_rgbf000108-resize_2/001150_2014-06-17_15-27-34_260595134347_rgbf000108-resize_2-target.png,125,4.0325,6.0,4257,114,meters,jsons/VE125_randls_16_rotated.json,677571,759251,48,Woman
143,655437,DepthScenes,duration_manipulation_targetAtFixation,jsons/VE125_randls_16_rotated.json,http://54.235.29.9/FacialAge/BNav_EC2/DepthDuration/v2_depth_duration_MTurk/v2_DepthDuration_HTML.html#128,128,1364,625,1364,768,8-21-2022,10-15-53,144,depth_duration_stimuli/000483_2014-06-09_20-41-45_260595134347_rgbf000116-resize_4/000483_2014-06-09_20-41-45_260595134347_rgbf000116-resize_4-target.png,125,1.337,5.0,3154,135,meters,jsons/VE125_randls_16_rotated.json,677571,759251,48,Woman
144,655437,DepthScenes,duration_manipulation_targetAtFixation,jsons/VE125_randls_16_rotated.json,http://54.235.29.9/FacialAge/BNav_EC2/DepthDuration/v2_depth_duration_MTurk/v2_DepthDuration_HTML.html#128,128,1364,625,1364,768,8-21-2022,10-15-53,145,depth_duration_stimuli/000469_2014-06-09_19-42-10_260595134347_rgbf000081-resize_1/000469_2014-06-09_19-42-10_260595134347_rgbf000081-resize_1-target.png,125,1.652,5.0,2209,138,meters,jsons/VE125_randls_16_rotated.json,677571,759251,48,Woman
145,655437,DepthScenes,duration_manipulation_targetAtFixation,jsons/VE125_randls_16_rotated.json,http://54.235.29.9/FacialAge/BNav_EC2/DepthDuration/v2_depth_duration_MTurk/v2_DepthDuration_HTML.html#128,128,1364,625,1364,768,8-21-2022,10-15-53,146,depth_duration_stimuli/002425_2014-06-28_20-27-29_260595134347_rgbf000031-resize_8/002425_2014-06-28_20-27-29_260595134347_rgbf000031-resize_8-target.png,125,3.8960000000000004,5.0,2846,163,meters,jsons/VE125_randls_16_rotated.json,677571,759251,48,Woman
146,655437,DepthScenes,duration_manipulation_targetAtFixation,jsons/VE125_randls_16_rotated.json,http://54.235.29.9/FacialAge/BNav_EC2/DepthDuration/v2_depth_duration_MTurk/v2_DepthDuration_HTML.html#128,128,1364,625,1364,768,8-21-2022,10-15-53,147,depth_duration_stimuli/000642_2014-06-08_16-59-25_260595134347_rgbf000098-resize_2/000642_2014-06-08_16-59-25_260595134347_rgbf000098-resize_2-target.png,125,2.8815,3.0,2081,120,meters,jsons/VE125_randls_16_rotated.json,677571,759251,48,Woman
147,655437,DepthScenes,duration_manipulation_targetAtFixation,jsons/VE125_randls_16_rotated.json,http://54.235.29.9/FacialAge/BNav_EC2/DepthDuration/v2_depth_duration_MTurk/v2_DepthDuration_HTML.html#128,128,1364,625,1364,768,8-21-2022,10-15-53,148,depth_duration_stimuli/003010_2014-06-15_12-54-35_094959634447_rgbf000112-resize_0/003010_2014-06-15_12-54-35_094959634447_rgbf000112-resize_0-target.png,125,3.1185,3.0,2055,124,meters,jsons/VE125_randls_16_rotated.json,677571,759251,48,Woman
148,655437,DepthScenes,duration_manipulation_targetAtFixation,jsons/VE125_randls_16_rotated.json,http://54.235.29.9/FacialAge/BNav_EC2/DepthDuration/v2_depth_duration_MTurk/v2_DepthDuration_HTML.html#128,128,1364,625,1364,768,8-21-2022,10-15-53,149,depth_duration_stimuli/001810_2014-06-26_20-51-35_260595134347_rgbf000040-resize_3/001810_2014-06-26_20-51-35_260595134347_rgbf000040-resize_3-target.png,125,2.2525,5.0,1957,120,meters,jsons/VE125_randls_16_rotated.json,677571,759251,48,Woman
149,655437,DepthScenes,duration_manipulation_targetAtFixation,jsons/VE125_randls_16_rotated.json,http://54.235.29.9/FacialAge/BNav_EC2/DepthDuration/v2_depth_duration_MTurk/v2_DepthDuration_HTML.html#128,128,1364,625,1364,768,8-21-2022,10-15-53,150,depth_duration_stimuli/000927_2014-06-09_16-32-30_260595134347_rgbf000123-resize_3/000927_2014-06-09_16-32-30_260595134347_rgbf000123-resize_3-target.png,125,2.6785,3.0,2840,122,meters,jsons/VE125_randls_16_rotated.json,677571,759251,48,Woman
150,655437,DepthScenes,duration_manipulation_targetAtFixation,jsons/VE125_randls_16_rotated.json,http://54.235.29.9/FacialAge/BNav_EC2/DepthDuration/v2_depth_duration_MTurk/v2_DepthDuration_HTML.html#128,128,1364,625,1364,768,8-21-2022,10-15-53,151,depth_duration_stimuli/001110_2014-06-15_17-25-28_260595134347_rgbf000150-resize_1/001110_2014-06-15_17-25-28_260595134347_rgbf000150-resize_1-target.png,125,1.7115,5.0,1877,137,meters,jsons/VE125_randls_16_rotated.json,677571,759251,48,Woman
151,655437,DepthScenes,duration_manipulation_targetAtFixation,jsons/VE125_randls_16_rotated.json,http://54.235.29.9/FacialAge/BNav_EC2/DepthDuration/v2_depth_duration_MTurk/v2_DepthDuration_HTML.html#128,128,1364,625,1364,768,8-21-2022,10-15-53,152,depth_duration_stimuli/000569_2014-06-09_22-51-47_260595134347_rgbf000141-resize_3/000569_2014-06-09_22-51-47_260595134347_rgbf000141-resize-original.jpg,125,4.512,3.0,2959,124,meters,jsons/VE125_randls_16_rotated.json,677571,759251,48,Woman
152,655437,DepthScenes,duration_manipulation_targetAtFixation,jsons/VE125_randls_16_rotated.json,http://54.235.29.9/FacialAge/BNav_EC2/DepthDuration/v2_depth_duration_MTurk/v2_DepthDuration_HTML.html#128,128,1364,625,1364,768,8-21-2022,10-15-53,153,depth_duration_stimuli/003079_2014-06-15_15-18-20_094959634447_rgbf000152-resize_8/003079_2014-06-15_15-18-20_094959634447_rgbf000152-resize_8-target.png,125,2.8775,3.0,2200,124,meters,jsons/VE125_randls_16_rotated.json,677571,759251,48,Woman
153,655437,DepthScenes,duration_manipulation_targetAtFixation,jsons/VE125_randls_16_rotated.json,http://54.235.29.9/FacialAge/BNav_EC2/DepthDuration/v2_depth_duration_MTurk/v2_DepthDuration_HTML.html#128,128,1364,625,1364,768,8-21-2022,10-15-53,154,depth_duration_stimuli/000506_2014-06-08_23-21-00_260595134347_rgbf000070-resize_7/000506_2014-06-08_23-21-00_260595134347_rgbf000070-resize_7-target.png,125,4.0585,6.0,1883,115,meters,jsons/VE125_randls_16_rotated.json,677571,759251,48,Woman
154,655437,DepthScenes,duration_manipulation_targetAtFixation,jsons/VE125_randls_16_rotated.json,http://54.235.29.9/FacialAge/BNav_EC2/DepthDuration/v2_depth_duration_MTurk/v2_DepthDuration_HTML.html#128,128,1364,625,1364,768,8-21-2022,10-15-53,155,depth_duration_stimuli/000691_2014-06-08_13-08-50_260595134347_rgbf000132-resize_3/000691_2014-06-08_13-08-50_260595134347_rgbf000132-resize_3-target.png,125,4.1530000000000005,5.0,1923,118,meters,jsons/VE125_randls_16_rotated.json,677571,759251,48,Woman
155,655437,DepthScenes,duration_manipulation_targetAtFixation,jsons/VE125_randls_16_rotated.json,http://54.235.29.9/FacialAge/BNav_EC2/DepthDuration/v2_depth_duration_MTurk/v2_DepthDuration_HTML.html#128,128,1364,625,1364,768,8-21-2022,10-15-53,156,depth_duration_stimuli/002213_2014-06-28_18-37-58_260595134347_rgbf000055-resize_1/002213_2014-06-28_18-37-58_260595134347_rgbf000055-resize_1-target.png,125,3.62,10.0,2770,125,meters,jsons/VE125_randls_16_rotated.json,677571,759251,48,Woman
156,655437,DepthScenes,duration_manipulation_targetAtFixation,jsons/VE125_randls_16_rotated.json,http://54.235.29.9/FacialAge/BNav_EC2/DepthDuration/v2_depth_duration_MTurk/v2_DepthDuration_HTML.html#128,128,1364,625,1364,768,8-21-2022,10-15-53,157,depth_duration_stimuli/001828_2014-06-26_21-40-03_260595134347_rgbf000024-resize_0/001828_2014-06-26_21-40-03_260595134347_rgbf000024-resize_0-target.png,125,4.8260000000000005,10.0,2220,114,meters,jsons/VE125_randls_16_rotated.json,677571,759251,48,Woman
157,655437,DepthScenes,duration_manipulation_targetAtFixation,jsons/VE125_randls_16_rotated.json,http://54.235.29.9/FacialAge/BNav_EC2/DepthDuration/v2_depth_duration_MTurk/v2_DepthDuration_HTML.html#128,128,1364,625,1364,768,8-21-2022,10-15-53,158,depth_duration_stimuli/000009_2014-05-26_14-32-05_260595134347_rgbf000034-resize_3/000009_2014-05-26_14-32-05_260595134347_rgbf000034-resize_3-target.png,125,3.8715,5.0,2040,136,meters,jsons/VE125_randls_16_rotated.json,677571,759251,48,Woman
158,655437,DepthScenes,duration_manipulation_targetAtFixation,jsons/VE125_randls_16_rotated.json,http://54.235.29.9/FacialAge/BNav_EC2/DepthDuration/v2_depth_duration_MTurk/v2_DepthDuration_HTML.html#128,128,1364,625,1364,768,8-21-2022,10-15-53,159,depth_duration_stimuli/000854_2014-06-09_19-43-13_260595134347_rgbf000066-resize_0/000854_2014-06-09_19-43-13_260595134347_rgbf000066-resize_0-target.png,125,3.068,0.0,2024,120,meters,jsons/VE125_randls_16_rotated.json,677571,759251,48,Woman
159,655437,DepthScenes,duration_manipulation_targetAtFixation,jsons/VE125_randls_16_rotated.json,http://54.235.29.9/FacialAge/BNav_EC2/DepthDuration/v2_depth_duration_MTurk/v2_DepthDuration_HTML.html#128,128,1364,625,1364,768,8-21-2022,10-15-53,160,depth_duration_stimuli/000758_2014-06-08_22-05-08_260595134347_rgbf000085-resize_0/000758_2014-06-08_22-05-08_260595134347_rgbf000085-resize_0-target.png,125,3.3810000000000002,0.0,1768,117,meters,jsons/VE125_randls_16_rotated.json,677571,759251,48,Woman
160,655437,DepthScenes,duration_manipulation_targetAtFixation,jsons/VE125_randls_16_rotated.json,http://54.235.29.9/FacialAge/BNav_EC2/DepthDuration/v2_depth_duration_MTurk/v2_DepthDuration_HTML.html#128,128,1364,625,1364,768,8-21-2022,10-15-53,161,depth_duration_stimuli/000409_2014-06-04_19-23-33_260595134347_rgbf000067-resize_0/000409_2014-06-04_19-23-33_260595134347_rgbf000067-resize_0-target.png,125,3.7335,10.0,2251,129,meters,jsons/VE125_randls_16_rotated.json,677571,759251,48,Woman
161,655437,DepthScenes,duration_manipulation_targetAtFixation,jsons/VE125_randls_16_rotated.json,http://54.235.29.9/FacialAge/BNav_EC2/DepthDuration/v2_depth_duration_MTurk/v2_DepthDuration_HTML.html#128,128,1364,625,1364,768,8-21-2022,10-15-53,162,depth_duration_stimuli/002663_2014-06-13_15-50-26_094959634447_rgbf000075-resize_1/002663_2014-06-13_15-50-26_094959634447_rgbf000075-resize_1-target.png,125,4.7495,5.0,2029,112,meters,jsons/VE125_randls_16_rotated.json,677571,759251,48,Woman
162,655437,DepthScenes,duration_manipulation_targetAtFixation,jsons/VE125_randls_16_rotated.json,http://54.235.29.9/FacialAge/BNav_EC2/DepthDuration/v2_depth_duration_MTurk/v2_DepthDuration_HTML.html#128,128,1364,625,1364,768,8-21-2022,10-15-53,163,depth_duration_stimuli/002995_2014-06-15_12-31-26_094959634447_rgbf000150-resize_1/002995_2014-06-15_12-31-26_094959634447_rgbf000150-resize_1-target.png,125,3.8360000000000003,10.0,2669,113,meters,jsons/VE125_randls_16_rotated.json,677571,759251,48,Woman
163,655437,DepthScenes,duration_manipulation_targetAtFixation,jsons/VE125_randls_16_rotated.json,http://54.235.29.9/FacialAge/BNav_EC2/DepthDuration/v2_depth_duration_MTurk/v2_DepthDuration_HTML.html#128,128,1364,625,1364,768,8-21-2022,10-15-53,164,depth_duration_stimuli/002748_2014-06-22_19-07-22_094959634447_rgbf000078-resize_1/002748_2014-06-22_19-07-22_094959634447_rgbf000078-resize_1-target.png,125,4.6705,5.0,2061,125,meters,jsons/VE125_randls_16_rotated.json,677571,759251,48,Woman
