,subjID,experimentName,versionName,sequenceName,url,selected_row,windowWidth,windowHeight,screenWidth,screenHeight,startDate,startTime,trial,stimulus,duration,actual_depth,depth_estimate,trial_RT,log_sceneDuration,unitSelection,seq_filepath,experimentTime,totalTime,age,gender
0,659000,DepthScenes,duration_manipulation_targetAtFixation,jsons/v1_VE250_randls_1.json,http://54.235.29.9/FacialAge/BNav_EC2/DepthDuration/v2_depth_duration_MTurk/v2_DepthDuration_HTML.html#96,96,1366,625,1366,768,8-20-2022,7-58-56,1,depth_duration_stimuli/002043_2014-06-24_20-29-38_260595134347_rgbf000039-resize_4/002043_2014-06-24_20-29-38_260595134347_rgbf000039-resize_4-target.png,250,2.8435,3,36869,259,feet,jsons/v1_VE250_randls_1.json,1373869,1602703,35,Woman
1,659000,DepthScenes,duration_manipulation_targetAtFixation,jsons/v1_VE250_randls_1.json,http://54.235.29.9/FacialAge/BNav_EC2/DepthDuration/v2_depth_duration_MTurk/v2_DepthDuration_HTML.html#96,96,1366,625,1366,768,8-20-2022,7-58-56,2,depth_duration_stimuli/003048_2014-06-15_13-49-43_094959634447_rgbf000150-resize_1/003048_2014-06-15_13-49-43_094959634447_rgbf000150-resize_1-target.png,250,4.0035,8,3798,248,feet,jsons/v1_VE250_randls_1.json,1373869,1602703,35,Woman
2,659000,DepthScenes,duration_manipulation_targetAtFixation,jsons/v1_VE250_randls_1.json,http://54.235.29.9/FacialAge/BNav_EC2/DepthDuration/v2_depth_duration_MTurk/v2_DepthDuration_HTML.html#96,96,1366,625,1366,768,8-20-2022,7-58-56,3,depth_duration_stimuli/000469_2014-06-09_19-42-10_260595134347_rgbf000081-resize_1/000469_2014-06-09_19-42-10_260595134347_rgbf000081-resize_1-target.png,250,1.652,2,4682,255,feet,jsons/v1_VE250_randls_1.json,1373869,1602703,35,Woman
3,659000,DepthScenes,duration_manipulation_targetAtFixation,jsons/v1_VE250_randls_1.json,http://54.235.29.9/FacialAge/BNav_EC2/DepthDuration/v2_depth_duration_MTurk/v2_DepthDuration_HTML.html#96,96,1366,625,1366,768,8-20-2022,7-58-56,4,depth_duration_stimuli/000483_2014-06-09_20-41-45_260595134347_rgbf000116-resize_4/000483_2014-06-09_20-41-45_260595134347_rgbf000116-resize_4-target.png,250,1.337,2,32981,259,feet,jsons/v1_VE250_randls_1.json,1373869,1602703,35,Woman
4,659000,DepthScenes,duration_manipulation_targetAtFixation,jsons/v1_VE250_randls_1.json,http://54.235.29.9/FacialAge/BNav_EC2/DepthDuration/v2_depth_duration_MTurk/v2_DepthDuration_HTML.html#96,96,1366,625,1366,768,8-20-2022,7-58-56,5,depth_duration_stimuli/000506_2014-06-08_23-21-00_260595134347_rgbf000070-resize_7/000506_2014-06-08_23-21-00_260595134347_rgbf000070-resize_7-target.png,250,4.0585,8,4255,260,feet,jsons/v1_VE250_randls_1.json,1373869,1602703,35,Woman
5,659000,DepthScenes,duration_manipulation_targetAtFixation,jsons/v1_VE250_randls_1.json,http://54.235.29.9/FacialAge/BNav_EC2/DepthDuration/v2_depth_duration_MTurk/v2_DepthDuration_HTML.html#96,96,1366,625,1366,768,8-20-2022,7-58-56,6,depth_duration_stimuli/003079_2014-06-15_15-18-20_094959634447_rgbf000152-resize_8/003079_2014-06-15_15-18-20_094959634447_rgbf000152-resize_8-target.png,250,2.8775,5,4097,252,feet,jsons/v1_VE250_randls_1.json,1373869,1602703,35,Woman
6,659000,DepthScenes,duration_manipulation_targetAtFixation,jsons/v1_VE250_randls_1.json,http://54.235.29.9/FacialAge/BNav_EC2/DepthDuration/v2_depth_duration_MTurk/v2_DepthDuration_HTML.html#96,96,1366,625,1366,768,8-20-2022,7-58-56,7,depth_duration_stimuli/000788_2014-06-08_22-34-36_260595134347_rgbf000131-resize_1/000788_2014-06-08_22-34-36_260595134347_rgbf000131-resize_1-target.png,250,3.359,6,3653,255,feet,jsons/v1_VE250_randls_1.json,1373869,1602703,35,Woman
7,659000,DepthScenes,duration_manipulation_targetAtFixation,jsons/v1_VE250_randls_1.json,http://54.235.29.9/FacialAge/BNav_EC2/DepthDuration/v2_depth_duration_MTurk/v2_DepthDuration_HTML.html#96,96,1366,625,1366,768,8-20-2022,7-58-56,8,depth_duration_stimuli/001235_2014-06-17_16-37-36_260595134347_rgbf000084-resize_4/001235_2014-06-17_16-37-36_260595134347_rgbf000084-resize_4-target.png,250,3.6605,6,3859,249,feet,jsons/v1_VE250_randls_1.json,1373869,1602703,35,Woman
8,659000,DepthScenes,duration_manipulation_targetAtFixation,jsons/v1_VE250_randls_1.json,http://54.235.29.9/FacialAge/BNav_EC2/DepthDuration/v2_depth_duration_MTurk/v2_DepthDuration_HTML.html#96,96,1366,625,1366,768,8-20-2022,7-58-56,9,depth_duration_stimuli/002057_2014-06-24_21-00-13_260595134347_rgbf000120-resize_1/002057_2014-06-24_21-00-13_260595134347_rgbf000120-resize_1-target.png,250,2.967,7,4316,241,feet,jsons/v1_VE250_randls_1.json,1373869,1602703,35,Woman
9,659000,DepthScenes,duration_manipulation_targetAtFixation,jsons/v1_VE250_randls_1.json,http://54.235.29.9/FacialAge/BNav_EC2/DepthDuration/v2_depth_duration_MTurk/v2_DepthDuration_HTML.html#96,96,1366,625,1366,768,8-20-2022,7-58-56,10,depth_duration_stimuli/000709_2014-06-08_13-51-55_260595134347_rgbf000068-resize_3/000709_2014-06-08_13-51-55_260595134347_rgbf000068-resize_3-target.png,250,1.8030000000000002,6,3306,250,feet,jsons/v1_VE250_randls_1.json,1373869,1602703,35,Woman
10,659000,DepthScenes,duration_manipulation_targetAtFixation,jsons/v1_VE250_randls_1.json,http://54.235.29.9/FacialAge/BNav_EC2/DepthDuration/v2_depth_duration_MTurk/v2_DepthDuration_HTML.html#96,96,1366,625,1366,768,8-20-2022,7-58-56,11,depth_duration_stimuli/002725_2014-06-22_11-47-51_094959634447_rgbf000070-resize_1/002725_2014-06-22_11-47-51_094959634447_rgbf000070-resize_1-target.png,250,2.195,4,3689,251,feet,jsons/v1_VE250_randls_1.json,1373869,1602703,35,Woman
11,659000,DepthScenes,duration_manipulation_targetAtFixation,jsons/v1_VE250_randls_1.json,http://54.235.29.9/FacialAge/BNav_EC2/DepthDuration/v2_depth_duration_MTurk/v2_DepthDuration_HTML.html#96,96,1366,625,1366,768,8-20-2022,7-58-56,12,depth_duration_stimuli/002344_2014-06-28_20-06-29_260595134347_rgbf000030-resize_1/002344_2014-06-28_20-06-29_260595134347_rgbf000030-resize_1-target.png,250,1.5795,2,3172,248,feet,jsons/v1_VE250_randls_1.json,1373869,1602703,35,Woman
12,659000,DepthScenes,duration_manipulation_targetAtFixation,jsons/v1_VE250_randls_1.json,http://54.235.29.9/FacialAge/BNav_EC2/DepthDuration/v2_depth_duration_MTurk/v2_DepthDuration_HTML.html#96,96,1366,625,1366,768,8-20-2022,7-58-56,13,depth_duration_stimuli/000569_2014-06-09_22-51-47_260595134347_rgbf000141-resize_3/000569_2014-06-09_22-51-47_260595134347_rgbf000141-resize-original.jpg,250,4.512,5,4015,249,feet,jsons/v1_VE250_randls_1.json,1373869,1602703,35,Woman
13,659000,DepthScenes,duration_manipulation_targetAtFixation,jsons/v1_VE250_randls_1.json,http://54.235.29.9/FacialAge/BNav_EC2/DepthDuration/v2_depth_duration_MTurk/v2_DepthDuration_HTML.html#96,96,1366,625,1366,768,8-20-2022,7-58-56,14,depth_duration_stimuli/001150_2014-06-17_15-27-34_260595134347_rgbf000108-resize_2/001150_2014-06-17_15-27-34_260595134347_rgbf000108-resize_2-target.png,250,4.0325,6,3907,244,feet,jsons/v1_VE250_randls_1.json,1373869,1602703,35,Woman
14,659000,DepthScenes,duration_manipulation_targetAtFixation,jsons/v1_VE250_randls_1.json,http://54.235.29.9/FacialAge/BNav_EC2/DepthDuration/v2_depth_duration_MTurk/v2_DepthDuration_HTML.html#96,96,1366,625,1366,768,8-20-2022,7-58-56,15,depth_duration_stimuli/000665_2014-06-09_20-42-35_260595134347_rgbf000110-resize_1/000665_2014-06-09_20-42-35_260595134347_rgbf000110-resize_1-target.png,250,3.057,6,3656,248,feet,jsons/v1_VE250_randls_1.json,1373869,1602703,35,Woman
15,659000,DepthScenes,duration_manipulation_targetAtFixation,jsons/v1_VE250_randls_1.json,http://54.235.29.9/FacialAge/BNav_EC2/DepthDuration/v2_depth_duration_MTurk/v2_DepthDuration_HTML.html#96,96,1366,625,1366,768,8-20-2022,7-58-56,16,depth_duration_stimuli/000522_2014-06-08_13-35-06_260595134347_rgbf000244-resize_1/000522_2014-06-08_13-35-06_260595134347_rgbf000244-resize_1-target.png,250,2.3715,2,3499,249,feet,jsons/v1_VE250_randls_1.json,1373869,1602703,35,Woman
16,659000,DepthScenes,duration_manipulation_targetAtFixation,jsons/v1_VE250_randls_1.json,http://54.235.29.9/FacialAge/BNav_EC2/DepthDuration/v2_depth_duration_MTurk/v2_DepthDuration_HTML.html#96,96,1366,625,1366,768,8-20-2022,7-58-56,17,depth_duration_stimuli/002949_2014-06-26_15-57-42_094959634447_rgbf000079-resize_1/002949_2014-06-26_15-57-42_094959634447_rgbf000079-resize_1-target.png,250,1.8915,3,2720,248,feet,jsons/v1_VE250_randls_1.json,1373869,1602703,35,Woman
17,659000,DepthScenes,duration_manipulation_targetAtFixation,jsons/v1_VE250_randls_1.json,http://54.235.29.9/FacialAge/BNav_EC2/DepthDuration/v2_depth_duration_MTurk/v2_DepthDuration_HTML.html#96,96,1366,625,1366,768,8-20-2022,7-58-56,18,depth_duration_stimuli/002788_2014-06-22_19-36-03_094959634447_rgbf000088-resize_2/002788_2014-06-22_19-36-03_094959634447_rgbf000088-resize_2-target.png,250,1.6465,4,3561,248,feet,jsons/v1_VE250_randls_1.json,1373869,1602703,35,Woman
18,659000,DepthScenes,duration_manipulation_targetAtFixation,jsons/v1_VE250_randls_1.json,http://54.235.29.9/FacialAge/BNav_EC2/DepthDuration/v2_depth_duration_MTurk/v2_DepthDuration_HTML.html#96,96,1366,625,1366,768,8-20-2022,7-58-56,19,depth_duration_stimuli/000749_2014-06-08_21-55-06_260595134347_rgbf000070-resize_2/000749_2014-06-08_21-55-06_260595134347_rgbf000070-resize_2-target.png,250,2.331,4,3968,248,feet,jsons/v1_VE250_randls_1.json,1373869,1602703,35,Woman
19,659000,DepthScenes,duration_manipulation_targetAtFixation,jsons/v1_VE250_randls_1.json,http://54.235.29.9/FacialAge/BNav_EC2/DepthDuration/v2_depth_duration_MTurk/v2_DepthDuration_HTML.html#96,96,1366,625,1366,768,8-20-2022,7-58-56,20,depth_duration_stimuli/000878_2014-06-08_22-52-45_260595134347_rgbf000045-resize_2/000878_2014-06-08_22-52-45_260595134347_rgbf000045-resize_2-target.png,250,2.092,5,3859,249,feet,jsons/v1_VE250_randls_1.json,1373869,1602703,35,Woman
20,659000,DepthScenes,duration_manipulation_targetAtFixation,jsons/v1_VE250_randls_1.json,http://54.235.29.9/FacialAge/BNav_EC2/DepthDuration/v2_depth_duration_MTurk/v2_DepthDuration_HTML.html#96,96,1366,625,1366,768,8-20-2022,7-58-56,21,depth_duration_stimuli/002953_2014-06-08_17-32-18_094959634447_rgbf000059-resize_5/002953_2014-06-08_17-32-18_094959634447_rgbf000059-resize_5-target.png,250,1.551,4,3925,248,feet,jsons/v1_VE250_randls_1.json,1373869,1602703,35,Woman
21,659000,DepthScenes,duration_manipulation_targetAtFixation,jsons/v1_VE250_randls_1.json,http://54.235.29.9/FacialAge/BNav_EC2/DepthDuration/v2_depth_duration_MTurk/v2_DepthDuration_HTML.html#96,96,1366,625,1366,768,8-20-2022,7-58-56,22,depth_duration_stimuli/000810_2014-06-08_17-20-01_260595134347_rgbf000105-resize_0/000810_2014-06-08_17-20-01_260595134347_rgbf000105-resize_0-target.png,250,1.4865,4,4375,248,feet,jsons/v1_VE250_randls_1.json,1373869,1602703,35,Woman
22,659000,DepthScenes,duration_manipulation_targetAtFixation,jsons/v1_VE250_randls_1.json,http://54.235.29.9/FacialAge/BNav_EC2/DepthDuration/v2_depth_duration_MTurk/v2_DepthDuration_HTML.html#96,96,1366,625,1366,768,8-20-2022,7-58-56,23,depth_duration_stimuli/001214_2014-06-17_16-13-55_260595134347_rgbf000111-resize_0/001214_2014-06-17_16-13-55_260595134347_rgbf000111-resize_0-target.png,250,2.6505,4,22078,239,feet,jsons/v1_VE250_randls_1.json,1373869,1602703,35,Woman
23,659000,DepthScenes,duration_manipulation_targetAtFixation,jsons/v1_VE250_randls_1.json,http://54.235.29.9/FacialAge/BNav_EC2/DepthDuration/v2_depth_duration_MTurk/v2_DepthDuration_HTML.html#96,96,1366,625,1366,768,8-20-2022,7-58-56,24,depth_duration_stimuli/002445_2014-06-28_20-32-16_260595134347_rgbf000029-resize_4/002445_2014-06-28_20-32-16_260595134347_rgbf000029-resize_4-target.png,250,2.5315,4,5471,249,feet,jsons/v1_VE250_randls_1.json,1373869,1602703,35,Woman
24,659000,DepthScenes,duration_manipulation_targetAtFixation,jsons/v1_VE250_randls_1.json,http://54.235.29.9/FacialAge/BNav_EC2/DepthDuration/v2_depth_duration_MTurk/v2_DepthDuration_HTML.html#96,96,1366,625,1366,768,8-20-2022,7-58-56,25,depth_duration_stimuli/000780_2014-06-08_22-28-29_260595134347_rgbf000126-resize_1/000780_2014-06-08_22-28-29_260595134347_rgbf000126-resize_1-target.png,250,3.3825,6,3156,248,feet,jsons/v1_VE250_randls_1.json,1373869,1602703,35,Woman
25,659000,DepthScenes,duration_manipulation_targetAtFixation,jsons/v1_VE250_randls_1.json,http://54.235.29.9/FacialAge/BNav_EC2/DepthDuration/v2_depth_duration_MTurk/v2_DepthDuration_HTML.html#96,96,1366,625,1366,768,8-20-2022,7-58-56,26,depth_duration_stimuli/001449_2014-06-19_17-01-27_260595134347_rgbf000116-resize_2/001449_2014-06-19_17-01-27_260595134347_rgbf000116-resize_2-target.png,250,3.452,4,5754,263,feet,jsons/v1_VE250_randls_1.json,1373869,1602703,35,Woman
26,659000,DepthScenes,duration_manipulation_targetAtFixation,jsons/v1_VE250_randls_1.json,http://54.235.29.9/FacialAge/BNav_EC2/DepthDuration/v2_depth_duration_MTurk/v2_DepthDuration_HTML.html#96,96,1366,625,1366,768,8-20-2022,7-58-56,27,depth_duration_stimuli/001450_2014-06-19_17-02-03_260595134347_rgbf000203-resize_4/001450_2014-06-19_17-02-03_260595134347_rgbf000203-resize_4-target.png,250,4.0106666666667,8,3781,249,feet,jsons/v1_VE250_randls_1.json,1373869,1602703,35,Woman
27,659000,DepthScenes,duration_manipulation_targetAtFixation,jsons/v1_VE250_randls_1.json,http://54.235.29.9/FacialAge/BNav_EC2/DepthDuration/v2_depth_duration_MTurk/v2_DepthDuration_HTML.html#96,96,1366,625,1366,768,8-20-2022,7-58-56,28,depth_duration_stimuli/002748_2014-06-22_19-07-22_094959634447_rgbf000078-resize_1/002748_2014-06-22_19-07-22_094959634447_rgbf000078-resize_1-target.png,250,4.6705,8,4613,249,feet,jsons/v1_VE250_randls_1.json,1373869,1602703,35,Woman
28,659000,DepthScenes,duration_manipulation_targetAtFixation,jsons/v1_VE250_randls_1.json,http://54.235.29.9/FacialAge/BNav_EC2/DepthDuration/v2_depth_duration_MTurk/v2_DepthDuration_HTML.html#96,96,1366,625,1366,768,8-20-2022,7-58-56,29,depth_duration_stimuli/002995_2014-06-15_12-31-26_094959634447_rgbf000150-resize_1/002995_2014-06-15_12-31-26_094959634447_rgbf000150-resize_1-target.png,250,3.8360000000000003,5,3402,248,feet,jsons/v1_VE250_randls_1.json,1373869,1602703,35,Woman
29,659000,DepthScenes,duration_manipulation_targetAtFixation,jsons/v1_VE250_randls_1.json,http://54.235.29.9/FacialAge/BNav_EC2/DepthDuration/v2_depth_duration_MTurk/v2_DepthDuration_HTML.html#96,96,1366,625,1366,768,8-20-2022,7-58-56,30,depth_duration_stimuli/000375_2014-06-08_11-17-29_260595134347_rgbf000133-resize_2/000375_2014-06-08_11-17-29_260595134347_rgbf000133-resize-original.jpg,250,4.718,0,4230,251,feet,jsons/v1_VE250_randls_1.json,1373869,1602703,35,Woman
30,659000,DepthScenes,duration_manipulation_targetAtFixation,jsons/v1_VE250_randls_1.json,http://54.235.29.9/FacialAge/BNav_EC2/DepthDuration/v2_depth_duration_MTurk/v2_DepthDuration_HTML.html#96,96,1366,625,1366,768,8-20-2022,7-58-56,31,depth_duration_stimuli/002600_2014-06-24_14-27-04_094959634447_rgbf000074-resize_2/002600_2014-06-24_14-27-04_094959634447_rgbf000074-resize_2-target.png,250,2.7575,3,11009,244,feet,jsons/v1_VE250_randls_1.json,1373869,1602703,35,Woman
31,659000,DepthScenes,duration_manipulation_targetAtFixation,jsons/v1_VE250_randls_1.json,http://54.235.29.9/FacialAge/BNav_EC2/DepthDuration/v2_depth_duration_MTurk/v2_DepthDuration_HTML.html#96,96,1366,625,1366,768,8-20-2022,7-58-56,32,depth_duration_stimuli/003228_2014-05-14_13-42-35_094959634447_rgbf000101-resize_1/003228_2014-05-14_13-42-35_094959634447_rgbf000101-resize_1-target.png,250,1.9680000000000002,2,3968,264,feet,jsons/v1_VE250_randls_1.json,1373869,1602703,35,Woman
32,659000,DepthScenes,duration_manipulation_targetAtFixation,jsons/v1_VE250_randls_1.json,http://54.235.29.9/FacialAge/BNav_EC2/DepthDuration/v2_depth_duration_MTurk/v2_DepthDuration_HTML.html#96,96,1366,625,1366,768,8-20-2022,7-58-56,33,depth_duration_stimuli/000436_2014-06-09_22-25-11_260595134347_rgbf000137-resize_1/000436_2014-06-09_22-25-11_260595134347_rgbf000137-resize_1-target.png,250,4.0705,8,3532,250,feet,jsons/v1_VE250_randls_1.json,1373869,1602703,35,Woman
33,659000,DepthScenes,duration_manipulation_targetAtFixation,jsons/v1_VE250_randls_1.json,http://54.235.29.9/FacialAge/BNav_EC2/DepthDuration/v2_depth_duration_MTurk/v2_DepthDuration_HTML.html#96,96,1366,625,1366,768,8-20-2022,7-58-56,34,depth_duration_stimuli/002444_2014-06-28_20-32-08_260595134347_rgbf000027-resize_0/002444_2014-06-28_20-32-08_260595134347_rgbf000027-resize_0-target.png,250,4.388999999999999,5,4331,255,feet,jsons/v1_VE250_randls_1.json,1373869,1602703,35,Woman
34,659000,DepthScenes,duration_manipulation_targetAtFixation,jsons/v1_VE250_randls_1.json,http://54.235.29.9/FacialAge/BNav_EC2/DepthDuration/v2_depth_duration_MTurk/v2_DepthDuration_HTML.html#96,96,1366,625,1366,768,8-20-2022,7-58-56,35,depth_duration_stimuli/002964_2014-06-08_17-46-11_094959634447_rgbf000091-resize_4/002964_2014-06-08_17-46-11_094959634447_rgbf000091-resize_4-target.png,250,1.6909999999999998,3,26423,248,feet,jsons/v1_VE250_randls_1.json,1373869,1602703,35,Woman
35,659000,DepthScenes,duration_manipulation_targetAtFixation,jsons/v1_VE250_randls_1.json,http://54.235.29.9/FacialAge/BNav_EC2/DepthDuration/v2_depth_duration_MTurk/v2_DepthDuration_HTML.html#96,96,1366,625,1366,768,8-20-2022,7-58-56,36,depth_duration_stimuli/002136_2014-06-25_21-18-03_260595134347_rgbf000109-resize_3/002136_2014-06-25_21-18-03_260595134347_rgbf000109-resize_3-target.png,250,1.9569999999999999,5,2985,248,feet,jsons/v1_VE250_randls_1.json,1373869,1602703,35,Woman
36,659000,DepthScenes,duration_manipulation_targetAtFixation,jsons/v1_VE250_randls_1.json,http://54.235.29.9/FacialAge/BNav_EC2/DepthDuration/v2_depth_duration_MTurk/v2_DepthDuration_HTML.html#96,96,1366,625,1366,768,8-20-2022,7-58-56,37,depth_duration_stimuli/002570_2014-06-24_13-59-54_094959634447_rgbf000059-resize_0/002570_2014-06-24_13-59-54_094959634447_rgbf000059-resize_0-target.png,250,4.037,8,4047,233,feet,jsons/v1_VE250_randls_1.json,1373869,1602703,35,Woman
37,659000,DepthScenes,duration_manipulation_targetAtFixation,jsons/v1_VE250_randls_1.json,http://54.235.29.9/FacialAge/BNav_EC2/DepthDuration/v2_depth_duration_MTurk/v2_DepthDuration_HTML.html#96,96,1366,625,1366,768,8-20-2022,7-58-56,38,depth_duration_stimuli/002467_2014-06-28_20-38-07_260595134347_rgbf000026-resize_2/002467_2014-06-28_20-38-07_260595134347_rgbf000026-resize_2-target.png,250,4.742,10,3141,248,feet,jsons/v1_VE250_randls_1.json,1373869,1602703,35,Woman
38,659000,DepthScenes,duration_manipulation_targetAtFixation,jsons/v1_VE250_randls_1.json,http://54.235.29.9/FacialAge/BNav_EC2/DepthDuration/v2_depth_duration_MTurk/v2_DepthDuration_HTML.html#96,96,1366,625,1366,768,8-20-2022,7-58-56,39,depth_duration_stimuli/001164_2014-06-17_15-35-46_260595134347_rgbf000085-resize_3/001164_2014-06-17_15-35-46_260595134347_rgbf000085-resize_3-target.png,250,2.354,4,3872,249,feet,jsons/v1_VE250_randls_1.json,1373869,1602703,35,Woman
39,659000,DepthScenes,duration_manipulation_targetAtFixation,jsons/v1_VE250_randls_1.json,http://54.235.29.9/FacialAge/BNav_EC2/DepthDuration/v2_depth_duration_MTurk/v2_DepthDuration_HTML.html#96,96,1366,625,1366,768,8-20-2022,7-58-56,40,depth_duration_stimuli/001136_2014-06-17_15-19-41_260595134347_rgbf000076-resize_3/001136_2014-06-17_15-19-41_260595134347_rgbf000076-resize_3-target.png,250,1.8655,5,2875,249,feet,jsons/v1_VE250_randls_1.json,1373869,1602703,35,Woman
40,659000,DepthScenes,duration_manipulation_targetAtFixation,jsons/v1_VE250_randls_1.json,http://54.235.29.9/FacialAge/BNav_EC2/DepthDuration/v2_depth_duration_MTurk/v2_DepthDuration_HTML.html#96,96,1366,625,1366,768,8-20-2022,7-58-56,41,depth_duration_stimuli/000447_2014-06-08_16-15-46_260595134347_rgbf000130-resize_1/000447_2014-06-08_16-15-46_260595134347_rgbf000130-resize_1-target.png,250,4.479,8,5625,249,feet,jsons/v1_VE250_randls_1.json,1373869,1602703,35,Woman
41,659000,DepthScenes,duration_manipulation_targetAtFixation,jsons/v1_VE250_randls_1.json,http://54.235.29.9/FacialAge/BNav_EC2/DepthDuration/v2_depth_duration_MTurk/v2_DepthDuration_HTML.html#96,96,1366,625,1366,768,8-20-2022,7-58-56,42,depth_duration_stimuli/001447_2014-06-19_17-00-32_260595134347_rgbf000082-resize_5/001447_2014-06-19_17-00-32_260595134347_rgbf000082-resize_5-target.png,250,4.13775,6,4053,249,feet,jsons/v1_VE250_randls_1.json,1373869,1602703,35,Woman
42,659000,DepthScenes,duration_manipulation_targetAtFixation,jsons/v1_VE250_randls_1.json,http://54.235.29.9/FacialAge/BNav_EC2/DepthDuration/v2_depth_duration_MTurk/v2_DepthDuration_HTML.html#96,96,1366,625,1366,768,8-20-2022,7-58-56,43,depth_duration_stimuli/001158_2014-06-17_15-32-16_260595134347_rgbf000138-resize_2/001158_2014-06-17_15-32-16_260595134347_rgbf000138-resize_2-target.png,250,4.5315,8,11106,244,feet,jsons/v1_VE250_randls_1.json,1373869,1602703,35,Woman
43,659000,DepthScenes,duration_manipulation_targetAtFixation,jsons/v1_VE250_randls_1.json,http://54.235.29.9/FacialAge/BNav_EC2/DepthDuration/v2_depth_duration_MTurk/v2_DepthDuration_HTML.html#96,96,1366,625,1366,768,8-20-2022,7-58-56,44,depth_duration_stimuli/000556_2014-06-09_22-42-56_260595134347_rgbf000214-resize_1/000556_2014-06-09_22-42-56_260595134347_rgbf000214-resize_1-target.png,250,4.8415,8,4962,248,feet,jsons/v1_VE250_randls_1.json,1373869,1602703,35,Woman
44,659000,DepthScenes,duration_manipulation_targetAtFixation,jsons/v1_VE250_randls_1.json,http://54.235.29.9/FacialAge/BNav_EC2/DepthDuration/v2_depth_duration_MTurk/v2_DepthDuration_HTML.html#96,96,1366,625,1366,768,8-20-2022,7-58-56,45,depth_duration_stimuli/000787_2014-06-08_22-33-53_260595134347_rgbf000175-resize_1/000787_2014-06-08_22-33-53_260595134347_rgbf000175-resize-original.jpg,250,4.784,0,4172,246,feet,jsons/v1_VE250_randls_1.json,1373869,1602703,35,Woman
45,659000,DepthScenes,duration_manipulation_targetAtFixation,jsons/v1_VE250_randls_1.json,http://54.235.29.9/FacialAge/BNav_EC2/DepthDuration/v2_depth_duration_MTurk/v2_DepthDuration_HTML.html#96,96,1366,625,1366,768,8-20-2022,7-58-56,46,depth_duration_stimuli/000736_2014-06-08_18-24-15_260595134347_rgbf000206-resize_3/000736_2014-06-08_18-24-15_260595134347_rgbf000206-resize_3-target.png,250,3.515,5,4375,249,feet,jsons/v1_VE250_randls_1.json,1373869,1602703,35,Woman
46,659000,DepthScenes,duration_manipulation_targetAtFixation,jsons/v1_VE250_randls_1.json,http://54.235.29.9/FacialAge/BNav_EC2/DepthDuration/v2_depth_duration_MTurk/v2_DepthDuration_HTML.html#96,96,1366,625,1366,768,8-20-2022,7-58-56,47,depth_duration_stimuli/000137_2014-05-20_17-04-49_260595134347_rgbf000120-resize_1/000137_2014-05-20_17-04-49_260595134347_rgbf000120-resize_1-target.png,250,3.786,8,68186,247,feet,jsons/v1_VE250_randls_1.json,1373869,1602703,35,Woman
47,659000,DepthScenes,duration_manipulation_targetAtFixation,jsons/v1_VE250_randls_1.json,http://54.235.29.9/FacialAge/BNav_EC2/DepthDuration/v2_depth_duration_MTurk/v2_DepthDuration_HTML.html#96,96,1366,625,1366,768,8-20-2022,7-58-56,48,depth_duration_stimuli/002375_2014-06-28_20-13-44_260595134347_rgbf000032-resize_1/002375_2014-06-28_20-13-44_260595134347_rgbf000032-resize_1-target.png,250,4.0175,5,5328,232,feet,jsons/v1_VE250_randls_1.json,1373869,1602703,35,Woman
48,659000,DepthScenes,duration_manipulation_targetAtFixation,jsons/v1_VE250_randls_1.json,http://54.235.29.9/FacialAge/BNav_EC2/DepthDuration/v2_depth_duration_MTurk/v2_DepthDuration_HTML.html#96,96,1366,625,1366,768,8-20-2022,7-58-56,49,depth_duration_stimuli/002657_2014-06-13_15-29-54_094959634447_rgbf000150-resize_1/002657_2014-06-13_15-29-54_094959634447_rgbf000150-resize_1-target.png,250,4.919,5,4985,246,feet,jsons/v1_VE250_randls_1.json,1373869,1602703,35,Woman
49,659000,DepthScenes,duration_manipulation_targetAtFixation,jsons/v1_VE250_randls_1.json,http://54.235.29.9/FacialAge/BNav_EC2/DepthDuration/v2_depth_duration_MTurk/v2_DepthDuration_HTML.html#96,96,1366,625,1366,768,8-20-2022,7-58-56,50,depth_duration_stimuli/000642_2014-06-08_16-59-25_260595134347_rgbf000098-resize_2/000642_2014-06-08_16-59-25_260595134347_rgbf000098-resize_2-target.png,250,2.8815,5,4813,249,feet,jsons/v1_VE250_randls_1.json,1373869,1602703,35,Woman
50,659000,DepthScenes,duration_manipulation_targetAtFixation,jsons/v1_VE250_randls_1.json,http://54.235.29.9/FacialAge/BNav_EC2/DepthDuration/v2_depth_duration_MTurk/v2_DepthDuration_HTML.html#96,96,1366,625,1366,768,8-20-2022,7-58-56,51,depth_duration_stimuli/002425_2014-06-28_20-27-29_260595134347_rgbf000031-resize_8/002425_2014-06-28_20-27-29_260595134347_rgbf000031-resize_8-target.png,250,3.8960000000000004,8,38141,249,feet,jsons/v1_VE250_randls_1.json,1373869,1602703,35,Woman
51,659000,DepthScenes,duration_manipulation_targetAtFixation,jsons/v1_VE250_randls_1.json,http://54.235.29.9/FacialAge/BNav_EC2/DepthDuration/v2_depth_duration_MTurk/v2_DepthDuration_HTML.html#96,96,1366,625,1366,768,8-20-2022,7-58-56,52,depth_duration_stimuli/003534_2014-05-22_15-06-10_094959634447_rgbf000102-resize_4/003534_2014-05-22_15-06-10_094959634447_rgbf000102-resize_4-target.png,250,1.426,2,4384,248,feet,jsons/v1_VE250_randls_1.json,1373869,1602703,35,Woman
52,659000,DepthScenes,duration_manipulation_targetAtFixation,jsons/v1_VE250_randls_1.json,http://54.235.29.9/FacialAge/BNav_EC2/DepthDuration/v2_depth_duration_MTurk/v2_DepthDuration_HTML.html#96,96,1366,625,1366,768,8-20-2022,7-58-56,53,depth_duration_stimuli/002637_2014-06-24_14-51-13_094959634447_rgbf000066-resize_4/002637_2014-06-24_14-51-13_094959634447_rgbf000066-resize_4-target.png,250,1.9955,5,2987,243,feet,jsons/v1_VE250_randls_1.json,1373869,1602703,35,Woman
53,659000,DepthScenes,duration_manipulation_targetAtFixation,jsons/v1_VE250_randls_1.json,http://54.235.29.9/FacialAge/BNav_EC2/DepthDuration/v2_depth_duration_MTurk/v2_DepthDuration_HTML.html#96,96,1366,625,1366,768,8-20-2022,7-58-56,54,depth_duration_stimuli/001417_2014-06-19_16-25-36_260595134347_rgbf000115-resize_5/001417_2014-06-19_16-25-36_260595134347_rgbf000115-resize_5-target.png,250,4.6255,8,3477,250,feet,jsons/v1_VE250_randls_1.json,1373869,1602703,35,Woman
54,659000,DepthScenes,duration_manipulation_targetAtFixation,jsons/v1_VE250_randls_1.json,http://54.235.29.9/FacialAge/BNav_EC2/DepthDuration/v2_depth_duration_MTurk/v2_DepthDuration_HTML.html#96,96,1366,625,1366,768,8-20-2022,7-58-56,55,depth_duration_stimuli/003081_2014-06-15_15-19-16_094959634447_rgbf000150-resize_1/003081_2014-06-15_15-19-16_094959634447_rgbf000150-resize_1-target.png,250,3.9125,10,3600,248,feet,jsons/v1_VE250_randls_1.json,1373869,1602703,35,Woman
55,659000,DepthScenes,duration_manipulation_targetAtFixation,jsons/v1_VE250_randls_1.json,http://54.235.29.9/FacialAge/BNav_EC2/DepthDuration/v2_depth_duration_MTurk/v2_DepthDuration_HTML.html#96,96,1366,625,1366,768,8-20-2022,7-58-56,56,depth_duration_stimuli/001810_2014-06-26_20-51-35_260595134347_rgbf000040-resize_3/001810_2014-06-26_20-51-35_260595134347_rgbf000040-resize_3-target.png,250,2.2525,4,3925,248,feet,jsons/v1_VE250_randls_1.json,1373869,1602703,35,Woman
56,659000,DepthScenes,duration_manipulation_targetAtFixation,jsons/v1_VE250_randls_1.json,http://54.235.29.9/FacialAge/BNav_EC2/DepthDuration/v2_depth_duration_MTurk/v2_DepthDuration_HTML.html#96,96,1366,625,1366,768,8-20-2022,7-58-56,57,depth_duration_stimuli/003010_2014-06-15_12-54-35_094959634447_rgbf000112-resize_0/003010_2014-06-15_12-54-35_094959634447_rgbf000112-resize_0-target.png,250,3.1185,5,26927,250,feet,jsons/v1_VE250_randls_1.json,1373869,1602703,35,Woman
57,659000,DepthScenes,duration_manipulation_targetAtFixation,jsons/v1_VE250_randls_1.json,http://54.235.29.9/FacialAge/BNav_EC2/DepthDuration/v2_depth_duration_MTurk/v2_DepthDuration_HTML.html#96,96,1366,625,1366,768,8-20-2022,7-58-56,58,depth_duration_stimuli/002118_2014-06-25_20-32-08_260595134347_rgbf000078-resize_1/002118_2014-06-25_20-32-08_260595134347_rgbf000078-resize_1-target.png,250,2.6460000000000004,7,4538,248,feet,jsons/v1_VE250_randls_1.json,1373869,1602703,35,Woman
58,659000,DepthScenes,duration_manipulation_targetAtFixation,jsons/v1_VE250_randls_1.json,http://54.235.29.9/FacialAge/BNav_EC2/DepthDuration/v2_depth_duration_MTurk/v2_DepthDuration_HTML.html#96,96,1366,625,1366,768,8-20-2022,7-58-56,59,depth_duration_stimuli/001516_2014-06-20_16-25-09_260595134347_rgbf000076-resize_2/001516_2014-06-20_16-25-09_260595134347_rgbf000076-resize_2-target.png,250,1.7445,5,3200,249,feet,jsons/v1_VE250_randls_1.json,1373869,1602703,35,Woman
59,659000,DepthScenes,duration_manipulation_targetAtFixation,jsons/v1_VE250_randls_1.json,http://54.235.29.9/FacialAge/BNav_EC2/DepthDuration/v2_depth_duration_MTurk/v2_DepthDuration_HTML.html#96,96,1366,625,1366,768,8-20-2022,7-58-56,60,depth_duration_stimuli/001059_2014-06-08_21-53-27_260595134347_rgbf000061-resize_4/001059_2014-06-08_21-53-27_260595134347_rgbf000061-resize_4-target.png,250,2.4185,6,9143,230,feet,jsons/v1_VE250_randls_1.json,1373869,1602703,35,Woman
60,659000,DepthScenes,duration_manipulation_targetAtFixation,jsons/v1_VE250_randls_1.json,http://54.235.29.9/FacialAge/BNav_EC2/DepthDuration/v2_depth_duration_MTurk/v2_DepthDuration_HTML.html#96,96,1366,625,1366,768,8-20-2022,7-58-56,61,depth_duration_stimuli/001032_2014-06-08_13-23-17_260595134347_rgbf000021-resize_3/001032_2014-06-08_13-23-17_260595134347_rgbf000021-resize_3-target.png,250,3.2725,6,18869,250,feet,jsons/v1_VE250_randls_1.json,1373869,1602703,35,Woman
61,659000,DepthScenes,duration_manipulation_targetAtFixation,jsons/v1_VE250_randls_1.json,http://54.235.29.9/FacialAge/BNav_EC2/DepthDuration/v2_depth_duration_MTurk/v2_DepthDuration_HTML.html#96,96,1366,625,1366,768,8-20-2022,7-58-56,62,depth_duration_stimuli/000009_2014-05-26_14-32-05_260595134347_rgbf000034-resize_3/000009_2014-05-26_14-32-05_260595134347_rgbf000034-resize_3-target.png,250,3.8715,12,5599,249,feet,jsons/v1_VE250_randls_1.json,1373869,1602703,35,Woman
62,659000,DepthScenes,duration_manipulation_targetAtFixation,jsons/v1_VE250_randls_1.json,http://54.235.29.9/FacialAge/BNav_EC2/DepthDuration/v2_depth_duration_MTurk/v2_DepthDuration_HTML.html#96,96,1366,625,1366,768,8-20-2022,7-58-56,63,depth_duration_stimuli/001828_2014-06-26_21-40-03_260595134347_rgbf000024-resize_0/001828_2014-06-26_21-40-03_260595134347_rgbf000024-resize_0-target.png,250,4.8260000000000005,10,3823,250,feet,jsons/v1_VE250_randls_1.json,1373869,1602703,35,Woman
63,659000,DepthScenes,duration_manipulation_targetAtFixation,jsons/v1_VE250_randls_1.json,http://54.235.29.9/FacialAge/BNav_EC2/DepthDuration/v2_depth_duration_MTurk/v2_DepthDuration_HTML.html#96,96,1366,625,1366,768,8-20-2022,7-58-56,64,depth_duration_stimuli/000758_2014-06-08_22-05-08_260595134347_rgbf000085-resize_0/000758_2014-06-08_22-05-08_260595134347_rgbf000085-resize_0-target.png,250,3.3810000000000002,11,4444,249,feet,jsons/v1_VE250_randls_1.json,1373869,1602703,35,Woman
64,659000,DepthScenes,duration_manipulation_targetAtFixation,jsons/v1_VE250_randls_1.json,http://54.235.29.9/FacialAge/BNav_EC2/DepthDuration/v2_depth_duration_MTurk/v2_DepthDuration_HTML.html#96,96,1366,625,1366,768,8-20-2022,7-58-56,65,depth_duration_stimuli/000854_2014-06-09_19-43-13_260595134347_rgbf000066-resize_0/000854_2014-06-09_19-43-13_260595134347_rgbf000066-resize_0-target.png,250,3.068,6,2755,249,feet,jsons/v1_VE250_randls_1.json,1373869,1602703,35,Woman
65,659000,DepthScenes,duration_manipulation_targetAtFixation,jsons/v1_VE250_randls_1.json,http://54.235.29.9/FacialAge/BNav_EC2/DepthDuration/v2_depth_duration_MTurk/v2_DepthDuration_HTML.html#96,96,1366,625,1366,768,8-20-2022,7-58-56,66,depth_duration_stimuli/001222_2014-06-17_16-24-06_260595134347_rgbf000073-resize_0/001222_2014-06-17_16-24-06_260595134347_rgbf000073-resize-original.jpg,250,1.4385,0,4128,250,feet,jsons/v1_VE250_randls_1.json,1373869,1602703,35,Woman
66,659000,DepthScenes,duration_manipulation_targetAtFixation,jsons/v1_VE250_randls_1.json,http://54.235.29.9/FacialAge/BNav_EC2/DepthDuration/v2_depth_duration_MTurk/v2_DepthDuration_HTML.html#96,96,1366,625,1366,768,8-20-2022,7-58-56,67,depth_duration_stimuli/002905_2014-06-03_18-04-43_094959634447_rgbf000151-resize_2/002905_2014-06-03_18-04-43_094959634447_rgbf000151-resize_2-target.png,250,2.0295,3,3735,248,feet,jsons/v1_VE250_randls_1.json,1373869,1602703,35,Woman
67,659000,DepthScenes,duration_manipulation_targetAtFixation,jsons/v1_VE250_randls_1.json,http://54.235.29.9/FacialAge/BNav_EC2/DepthDuration/v2_depth_duration_MTurk/v2_DepthDuration_HTML.html#96,96,1366,625,1366,768,8-20-2022,7-58-56,68,depth_duration_stimuli/003423_2014-05-21_10-23-26_094959634447_rgbf002665-resize_2/003423_2014-05-21_10-23-26_094959634447_rgbf002665-resize_2-target.png,250,3.2575,5,3140,248,feet,jsons/v1_VE250_randls_1.json,1373869,1602703,35,Woman
68,659000,DepthScenes,duration_manipulation_targetAtFixation,jsons/v1_VE250_randls_1.json,http://54.235.29.9/FacialAge/BNav_EC2/DepthDuration/v2_depth_duration_MTurk/v2_DepthDuration_HTML.html#96,96,1366,625,1366,768,8-20-2022,7-58-56,69,depth_duration_stimuli/001808_2014-06-26_20-50-58_260595134347_rgbf000029-resize_1/001808_2014-06-26_20-50-58_260595134347_rgbf000029-resize_1-target.png,250,4.249,5,41372,249,feet,jsons/v1_VE250_randls_1.json,1373869,1602703,35,Woman
69,659000,DepthScenes,duration_manipulation_targetAtFixation,jsons/v1_VE250_randls_1.json,http://54.235.29.9/FacialAge/BNav_EC2/DepthDuration/v2_depth_duration_MTurk/v2_DepthDuration_HTML.html#96,96,1366,625,1366,768,8-20-2022,7-58-56,70,depth_duration_stimuli/001815_2014-06-26_20-52-55_260595134347_rgbf000020-resize_0/001815_2014-06-26_20-52-55_260595134347_rgbf000020-resize_0-target.png,250,3.3865,10,3852,233,feet,jsons/v1_VE250_randls_1.json,1373869,1602703,35,Woman
70,659000,DepthScenes,duration_manipulation_targetAtFixation,jsons/v1_VE250_randls_1.json,http://54.235.29.9/FacialAge/BNav_EC2/DepthDuration/v2_depth_duration_MTurk/v2_DepthDuration_HTML.html#96,96,1366,625,1366,768,8-20-2022,7-58-56,71,depth_duration_stimuli/000773_2014-06-08_22-24-54_260595134347_rgbf000093-resize_1/000773_2014-06-08_22-24-54_260595134347_rgbf000093-resize_1-target.png,250,4.973,10,5218,249,feet,jsons/v1_VE250_randls_1.json,1373869,1602703,35,Woman
71,659000,DepthScenes,duration_manipulation_targetAtFixation,jsons/v1_VE250_randls_1.json,http://54.235.29.9/FacialAge/BNav_EC2/DepthDuration/v2_depth_duration_MTurk/v2_DepthDuration_HTML.html#96,96,1366,625,1366,768,8-20-2022,7-58-56,72,depth_duration_stimuli/002414_2014-06-28_20-24-58_260595134347_rgbf000067-resize_4/002414_2014-06-28_20-24-58_260595134347_rgbf000067-resize_4-target.png,250,4.363,10,3031,245,feet,jsons/v1_VE250_randls_1.json,1373869,1602703,35,Woman
72,659000,DepthScenes,duration_manipulation_targetAtFixation,jsons/v1_VE250_randls_1.json,http://54.235.29.9/FacialAge/BNav_EC2/DepthDuration/v2_depth_duration_MTurk/v2_DepthDuration_HTML.html#96,96,1366,625,1366,768,8-20-2022,7-58-56,73,depth_duration_stimuli/002989_2014-06-15_12-25-03_094959634447_rgbf000150-resize_3/002989_2014-06-15_12-25-03_094959634447_rgbf000150-resize_3-target.png,250,4.1975,12,4093,249,feet,jsons/v1_VE250_randls_1.json,1373869,1602703,35,Woman
73,659000,DepthScenes,duration_manipulation_targetAtFixation,jsons/v1_VE250_randls_1.json,http://54.235.29.9/FacialAge/BNav_EC2/DepthDuration/v2_depth_duration_MTurk/v2_DepthDuration_HTML.html#96,96,1366,625,1366,768,8-20-2022,7-58-56,74,depth_duration_stimuli/000866_2014-06-09_20-45-42_260595134347_rgbf000139-resize_1/000866_2014-06-09_20-45-42_260595134347_rgbf000139-resize_1-target.png,250,3.2155,12,2813,248,feet,jsons/v1_VE250_randls_1.json,1373869,1602703,35,Woman
74,659000,DepthScenes,duration_manipulation_targetAtFixation,jsons/v1_VE250_randls_1.json,http://54.235.29.9/FacialAge/BNav_EC2/DepthDuration/v2_depth_duration_MTurk/v2_DepthDuration_HTML.html#96,96,1366,625,1366,768,8-20-2022,7-58-56,75,depth_duration_stimuli/001016_2014-06-09_16-16-10_260595134347_rgbf000112-resize_5/001016_2014-06-09_16-16-10_260595134347_rgbf000112-resize_5-target.png,250,1.6565,6,3469,264,feet,jsons/v1_VE250_randls_1.json,1373869,1602703,35,Woman
75,659000,DepthScenes,duration_manipulation_targetAtFixation,jsons/v1_VE250_randls_1.json,http://54.235.29.9/FacialAge/BNav_EC2/DepthDuration/v2_depth_duration_MTurk/v2_DepthDuration_HTML.html#96,96,1366,625,1366,768,8-20-2022,7-58-56,76,depth_duration_stimuli/002340_2014-06-28_20-05-46_260595134347_rgbf000113-resize_0/002340_2014-06-28_20-05-46_260595134347_rgbf000113-resize_0-target.png,250,2.4735,12,3514,249,feet,jsons/v1_VE250_randls_1.json,1373869,1602703,35,Woman
76,659000,DepthScenes,duration_manipulation_targetAtFixation,jsons/v1_VE250_randls_1.json,http://54.235.29.9/FacialAge/BNav_EC2/DepthDuration/v2_depth_duration_MTurk/v2_DepthDuration_HTML.html#96,96,1366,625,1366,768,8-20-2022,7-58-56,77,depth_duration_stimuli/002763_2014-06-22_19-13-10_094959634447_rgbf000075-resize_4/002763_2014-06-22_19-13-10_094959634447_rgbf000075-resize_4-target.png,250,1.68375,6,3281,248,feet,jsons/v1_VE250_randls_1.json,1373869,1602703,35,Woman
77,659000,DepthScenes,duration_manipulation_targetAtFixation,jsons/v1_VE250_randls_1.json,http://54.235.29.9/FacialAge/BNav_EC2/DepthDuration/v2_depth_duration_MTurk/v2_DepthDuration_HTML.html#96,96,1366,625,1366,768,8-20-2022,7-58-56,78,depth_duration_stimuli/002209_2014-06-28_18-36-10_260595134347_rgbf000051-resize_1/002209_2014-06-28_18-36-10_260595134347_rgbf000051-resize_1-target.png,250,2.057,6,2532,248,feet,jsons/v1_VE250_randls_1.json,1373869,1602703,35,Woman
78,659000,DepthScenes,duration_manipulation_targetAtFixation,jsons/v1_VE250_randls_1.json,http://54.235.29.9/FacialAge/BNav_EC2/DepthDuration/v2_depth_duration_MTurk/v2_DepthDuration_HTML.html#96,96,1366,625,1366,768,8-20-2022,7-58-56,79,depth_duration_stimuli/000486_2014-06-09_20-47-20_260595134347_rgbf000143-resize_2/000486_2014-06-09_20-47-20_260595134347_rgbf000143-resize_2-target.png,250,4.8325,4,18069,265,feet,jsons/v1_VE250_randls_1.json,1373869,1602703,35,Woman
79,659000,DepthScenes,duration_manipulation_targetAtFixation,jsons/v1_VE250_randls_1.json,http://54.235.29.9/FacialAge/BNav_EC2/DepthDuration/v2_depth_duration_MTurk/v2_DepthDuration_HTML.html#96,96,1366,625,1366,768,8-20-2022,7-58-56,80,depth_duration_stimuli/003083_2014-06-15_15-21-03_094959634447_rgbf000063-resize_1/003083_2014-06-15_15-21-03_094959634447_rgbf000063-resize_1-target.png,250,4.1405,8,3625,241,feet,jsons/v1_VE250_randls_1.json,1373869,1602703,35,Woman
80,659000,DepthScenes,duration_manipulation_targetAtFixation,jsons/v1_VE250_randls_1.json,http://54.235.29.9/FacialAge/BNav_EC2/DepthDuration/v2_depth_duration_MTurk/v2_DepthDuration_HTML.html#96,96,1366,625,1366,768,8-20-2022,7-58-56,81,depth_duration_stimuli/003292_2014-05-14_21-53-49_094959634447_rgbf000100-resize_2/003292_2014-05-14_21-53-49_094959634447_rgbf000100-resize_2-target.png,250,3.4815,5,3536,262,feet,jsons/v1_VE250_randls_1.json,1373869,1602703,35,Woman
81,659000,DepthScenes,duration_manipulation_targetAtFixation,jsons/v1_VE250_randls_1.json,http://54.235.29.9/FacialAge/BNav_EC2/DepthDuration/v2_depth_duration_MTurk/v2_DepthDuration_HTML.html#96,96,1366,625,1366,768,8-20-2022,7-58-56,82,depth_duration_stimuli/002639_2014-06-24_14-51-37_094959634447_rgbf000074-resize_4/002639_2014-06-24_14-51-37_094959634447_rgbf000074-resize_4-target.png,250,4.0375,6,2999,248,feet,jsons/v1_VE250_randls_1.json,1373869,1602703,35,Woman
82,659000,DepthScenes,duration_manipulation_targetAtFixation,jsons/v1_VE250_randls_1.json,http://54.235.29.9/FacialAge/BNav_EC2/DepthDuration/v2_depth_duration_MTurk/v2_DepthDuration_HTML.html#96,96,1366,625,1366,768,8-20-2022,7-58-56,83,depth_duration_stimuli/001110_2014-06-15_17-25-28_260595134347_rgbf000150-resize_1/001110_2014-06-15_17-25-28_260595134347_rgbf000150-resize_1-target.png,250,1.7115,3,4554,248,feet,jsons/v1_VE250_randls_1.json,1373869,1602703,35,Woman
83,659000,DepthScenes,duration_manipulation_targetAtFixation,jsons/v1_VE250_randls_1.json,http://54.235.29.9/FacialAge/BNav_EC2/DepthDuration/v2_depth_duration_MTurk/v2_DepthDuration_HTML.html#96,96,1366,625,1366,768,8-20-2022,7-58-56,84,depth_duration_stimuli/000927_2014-06-09_16-32-30_260595134347_rgbf000123-resize_3/000927_2014-06-09_16-32-30_260595134347_rgbf000123-resize_3-target.png,250,2.6785,3,3953,249,feet,jsons/v1_VE250_randls_1.json,1373869,1602703,35,Woman
84,659000,DepthScenes,duration_manipulation_targetAtFixation,jsons/v1_VE250_randls_1.json,http://54.235.29.9/FacialAge/BNav_EC2/DepthDuration/v2_depth_duration_MTurk/v2_DepthDuration_HTML.html#96,96,1366,625,1366,768,8-20-2022,7-58-56,85,depth_duration_stimuli/000368_2014-06-09_15-53-01_260595134347_rgbf000155-resize_2/000368_2014-06-09_15-53-01_260595134347_rgbf000155-resize_2-target.png,250,2.4859999999999998,4,3855,249,feet,jsons/v1_VE250_randls_1.json,1373869,1602703,35,Woman
85,659000,DepthScenes,duration_manipulation_targetAtFixation,jsons/v1_VE250_randls_1.json,http://54.235.29.9/FacialAge/BNav_EC2/DepthDuration/v2_depth_duration_MTurk/v2_DepthDuration_HTML.html#96,96,1366,625,1366,768,8-20-2022,7-58-56,86,depth_duration_stimuli/002678_2014-06-13_16-15-32_094959634447_rgbf000151-resize_6/002678_2014-06-13_16-15-32_094959634447_rgbf000151-resize_6-target.png,250,2.1830000000000003,6,3125,248,feet,jsons/v1_VE250_randls_1.json,1373869,1602703,35,Woman
86,659000,DepthScenes,duration_manipulation_targetAtFixation,jsons/v1_VE250_randls_1.json,http://54.235.29.9/FacialAge/BNav_EC2/DepthDuration/v2_depth_duration_MTurk/v2_DepthDuration_HTML.html#96,96,1366,625,1366,768,8-20-2022,7-58-56,87,depth_duration_stimuli/002663_2014-06-13_15-50-26_094959634447_rgbf000075-resize_1/002663_2014-06-13_15-50-26_094959634447_rgbf000075-resize_1-target.png,250,4.7495,8,3704,249,feet,jsons/v1_VE250_randls_1.json,1373869,1602703,35,Woman
87,659000,DepthScenes,duration_manipulation_targetAtFixation,jsons/v1_VE250_randls_1.json,http://54.235.29.9/FacialAge/BNav_EC2/DepthDuration/v2_depth_duration_MTurk/v2_DepthDuration_HTML.html#96,96,1366,625,1366,768,8-20-2022,7-58-56,88,depth_duration_stimuli/000409_2014-06-04_19-23-33_260595134347_rgbf000067-resize_0/000409_2014-06-04_19-23-33_260595134347_rgbf000067-resize_0-target.png,250,3.7335,8,2844,248,feet,jsons/v1_VE250_randls_1.json,1373869,1602703,35,Woman
88,659000,DepthScenes,duration_manipulation_targetAtFixation,jsons/v1_VE250_randls_1.json,http://54.235.29.9/FacialAge/BNav_EC2/DepthDuration/v2_depth_duration_MTurk/v2_DepthDuration_HTML.html#96,96,1366,625,1366,768,8-20-2022,7-58-56,89,depth_duration_stimuli/002279_2014-06-28_18-55-32_260595134347_rgbf000040-resize_5/002279_2014-06-28_18-55-32_260595134347_rgbf000040-resize_5-target.png,250,1.5043333333333,2,4047,241,feet,jsons/v1_VE250_randls_1.json,1373869,1602703,35,Woman
89,659000,DepthScenes,duration_manipulation_targetAtFixation,jsons/v1_VE250_randls_1.json,http://54.235.29.9/FacialAge/BNav_EC2/DepthDuration/v2_depth_duration_MTurk/v2_DepthDuration_HTML.html#96,96,1366,625,1366,768,8-20-2022,7-58-56,90,depth_duration_stimuli/000635_2014-06-08_16-38-42_260595134347_rgbf000106-resize_1/000635_2014-06-08_16-38-42_260595134347_rgbf000106-resize_1-target.png,250,2.074,2,3125,248,feet,jsons/v1_VE250_randls_1.json,1373869,1602703,35,Woman
90,659000,DepthScenes,duration_manipulation_targetAtFixation,jsons/v1_VE250_randls_1.json,http://54.235.29.9/FacialAge/BNav_EC2/DepthDuration/v2_depth_duration_MTurk/v2_DepthDuration_HTML.html#96,96,1366,625,1366,768,8-20-2022,7-58-56,91,depth_duration_stimuli/001055_2014-06-08_18-45-35_260595134347_rgbf000111-resize_4/001055_2014-06-08_18-45-35_260595134347_rgbf000111-resize_4-target.png,250,2.4290000000000003,6,4156,249,feet,jsons/v1_VE250_randls_1.json,1373869,1602703,35,Woman
91,659000,DepthScenes,duration_manipulation_targetAtFixation,jsons/v1_VE250_randls_1.json,http://54.235.29.9/FacialAge/BNav_EC2/DepthDuration/v2_depth_duration_MTurk/v2_DepthDuration_HTML.html#96,96,1366,625,1366,768,8-20-2022,7-58-56,92,depth_duration_stimuli/000549_2014-06-08_22-10-24_260595134347_rgbf000247-resize_3/000549_2014-06-08_22-10-24_260595134347_rgbf000247-resize_3-target.png,250,1.841,4,4656,249,feet,jsons/v1_VE250_randls_1.json,1373869,1602703,35,Woman
92,659000,DepthScenes,duration_manipulation_targetAtFixation,jsons/v1_VE250_randls_1.json,http://54.235.29.9/FacialAge/BNav_EC2/DepthDuration/v2_depth_duration_MTurk/v2_DepthDuration_HTML.html#96,96,1366,625,1366,768,8-20-2022,7-58-56,93,depth_duration_stimuli/002988_2014-06-15_12-24-20_094959634447_rgbf000150-resize_1/002988_2014-06-15_12-24-20_094959634447_rgbf000150-resize_1-target.png,250,4.7669999999999995,8,4578,249,feet,jsons/v1_VE250_randls_1.json,1373869,1602703,35,Woman
93,659000,DepthScenes,duration_manipulation_targetAtFixation,jsons/v1_VE250_randls_1.json,http://54.235.29.9/FacialAge/BNav_EC2/DepthDuration/v2_depth_duration_MTurk/v2_DepthDuration_HTML.html#96,96,1366,625,1366,768,8-20-2022,7-58-56,94,depth_duration_stimuli/001052_2014-06-08_18-24-54_260595134347_rgbf000130-resize_1/001052_2014-06-08_18-24-54_260595134347_rgbf000130-resize_1-target.png,250,4.1045,6,3062,249,feet,jsons/v1_VE250_randls_1.json,1373869,1602703,35,Woman
94,659000,DepthScenes,duration_manipulation_targetAtFixation,jsons/v1_VE250_randls_1.json,http://54.235.29.9/FacialAge/BNav_EC2/DepthDuration/v2_depth_duration_MTurk/v2_DepthDuration_HTML.html#96,96,1366,625,1366,768,8-20-2022,7-58-56,95,depth_duration_stimuli/000493_2014-06-09_21-01-18_260595134347_rgbf000196-resize_3/000493_2014-06-09_21-01-18_260595134347_rgbf000196-resize_3-target.png,250,3.44,6,3463,248,feet,jsons/v1_VE250_randls_1.json,1373869,1602703,35,Woman
95,659000,DepthScenes,duration_manipulation_targetAtFixation,jsons/v1_VE250_randls_1.json,http://54.235.29.9/FacialAge/BNav_EC2/DepthDuration/v2_depth_duration_MTurk/v2_DepthDuration_HTML.html#96,96,1366,625,1366,768,8-20-2022,7-58-56,96,depth_duration_stimuli/000191_2014-05-12_17-07-38_260595134347_rgbf000199-resize_0/000191_2014-05-12_17-07-38_260595134347_rgbf000199-resize_0-target.png,250,3.7995,8,4125,248,feet,jsons/v1_VE250_randls_1.json,1373869,1602703,35,Woman
96,659000,DepthScenes,duration_manipulation_targetAtFixation,jsons/v1_VE250_randls_1.json,http://54.235.29.9/FacialAge/BNav_EC2/DepthDuration/v2_depth_duration_MTurk/v2_DepthDuration_HTML.html#96,96,1366,625,1366,768,8-20-2022,7-58-56,97,depth_duration_stimuli/002784_2014-06-22_19-26-30_094959634447_rgbf000083-resize_3/002784_2014-06-22_19-26-30_094959634447_rgbf000083-resize_3-target.png,250,1.8046666666667,5,4156,264,feet,jsons/v1_VE250_randls_1.json,1373869,1602703,35,Woman
97,659000,DepthScenes,duration_manipulation_targetAtFixation,jsons/v1_VE250_randls_1.json,http://54.235.29.9/FacialAge/BNav_EC2/DepthDuration/v2_depth_duration_MTurk/v2_DepthDuration_HTML.html#96,96,1366,625,1366,768,8-20-2022,7-58-56,98,depth_duration_stimuli/001100_2014-06-15_17-46-26_260595134347_rgbf000225-resize_2/001100_2014-06-15_17-46-26_260595134347_rgbf000225-resize_2-target.png,250,2.24,3,2984,249,feet,jsons/v1_VE250_randls_1.json,1373869,1602703,35,Woman
98,659000,DepthScenes,duration_manipulation_targetAtFixation,jsons/v1_VE250_randls_1.json,http://54.235.29.9/FacialAge/BNav_EC2/DepthDuration/v2_depth_duration_MTurk/v2_DepthDuration_HTML.html#96,96,1366,625,1366,768,8-20-2022,7-58-56,99,depth_duration_stimuli/001540_2014-06-20_17-01-05_260595134347_rgbf000086-resize_2/001540_2014-06-20_17-01-05_260595134347_rgbf000086-resize-original.jpg,250,1.459,0,3561,248,feet,jsons/v1_VE250_randls_1.json,1373869,1602703,35,Woman
99,659000,DepthScenes,duration_manipulation_targetAtFixation,jsons/v1_VE250_randls_1.json,http://54.235.29.9/FacialAge/BNav_EC2/DepthDuration/v2_depth_duration_MTurk/v2_DepthDuration_HTML.html#96,96,1366,625,1366,768,8-20-2022,7-58-56,100,depth_duration_stimuli/002549_2014-06-24_13-41-39_094959634447_rgbf000022-resize_3/002549_2014-06-24_13-41-39_094959634447_rgbf000022-resize_3-target.png,250,1.476,2,3140,249,feet,jsons/v1_VE250_randls_1.json,1373869,1602703,35,Woman
100,659000,DepthScenes,duration_manipulation_targetAtFixation,jsons/v1_VE250_randls_1.json,http://54.235.29.9/FacialAge/BNav_EC2/DepthDuration/v2_depth_duration_MTurk/v2_DepthDuration_HTML.html#96,96,1366,625,1366,768,8-20-2022,7-58-56,101,depth_duration_stimuli/002750_2014-06-22_19-08-03_094959634447_rgbf000094-resize_4/002750_2014-06-22_19-08-03_094959634447_rgbf000094-resize_4-target.png,250,2.354,4,2703,248,feet,jsons/v1_VE250_randls_1.json,1373869,1602703,35,Woman
101,659000,DepthScenes,duration_manipulation_targetAtFixation,jsons/v1_VE250_randls_1.json,http://54.235.29.9/FacialAge/BNav_EC2/DepthDuration/v2_depth_duration_MTurk/v2_DepthDuration_HTML.html#96,96,1366,625,1366,768,8-20-2022,7-58-56,102,depth_duration_stimuli/001570_2014-06-20_17-21-09_260595134347_rgbf000135-resize_4/001570_2014-06-20_17-21-09_260595134347_rgbf000135-resize_4-target.png,250,4.467,6,3734,258,feet,jsons/v1_VE250_randls_1.json,1373869,1602703,35,Woman
102,659000,DepthScenes,duration_manipulation_targetAtFixation,jsons/v1_VE250_randls_1.json,http://54.235.29.9/FacialAge/BNav_EC2/DepthDuration/v2_depth_duration_MTurk/v2_DepthDuration_HTML.html#96,96,1366,625,1366,768,8-20-2022,7-58-56,103,depth_duration_stimuli/001392_2014-06-19_16-07-59_260595134347_rgbf000046-resize_1/001392_2014-06-19_16-07-59_260595134347_rgbf000046-resize_1-target.png,250,4.135,8,2516,248,feet,jsons/v1_VE250_randls_1.json,1373869,1602703,35,Woman
103,659000,DepthScenes,duration_manipulation_targetAtFixation,jsons/v1_VE250_randls_1.json,http://54.235.29.9/FacialAge/BNav_EC2/DepthDuration/v2_depth_duration_MTurk/v2_DepthDuration_HTML.html#96,96,1366,625,1366,768,8-20-2022,7-58-56,104,depth_duration_stimuli/001806_2014-06-26_20-50-20_260595134347_rgbf000091-resize_1/001806_2014-06-26_20-50-20_260595134347_rgbf000091-resize_1-target.png,250,2.7305,4,4879,249,feet,jsons/v1_VE250_randls_1.json,1373869,1602703,35,Woman
104,659000,DepthScenes,duration_manipulation_targetAtFixation,jsons/v1_VE250_randls_1.json,http://54.235.29.9/FacialAge/BNav_EC2/DepthDuration/v2_depth_duration_MTurk/v2_DepthDuration_HTML.html#96,96,1366,625,1366,768,8-20-2022,7-58-56,105,depth_duration_stimuli/001617_2014-06-20_11-35-32_260595134347_rgbf000066-resize_1/001617_2014-06-20_11-35-32_260595134347_rgbf000066-resize_1-target.png,250,3.7910000000000004,8,3560,247,feet,jsons/v1_VE250_randls_1.json,1373869,1602703,35,Woman
105,659000,DepthScenes,duration_manipulation_targetAtFixation,jsons/v1_VE250_randls_1.json,http://54.235.29.9/FacialAge/BNav_EC2/DepthDuration/v2_depth_duration_MTurk/v2_DepthDuration_HTML.html#96,96,1366,625,1366,768,8-20-2022,7-58-56,106,depth_duration_stimuli/000414_2014-06-04_19-49-13_260595134347_rgbf000044-resize_0/000414_2014-06-04_19-49-13_260595134347_rgbf000044-resize_0-target.png,250,4.329,8,3594,248,feet,jsons/v1_VE250_randls_1.json,1373869,1602703,35,Woman
106,659000,DepthScenes,duration_manipulation_targetAtFixation,jsons/v1_VE250_randls_1.json,http://54.235.29.9/FacialAge/BNav_EC2/DepthDuration/v2_depth_duration_MTurk/v2_DepthDuration_HTML.html#96,96,1366,625,1366,768,8-20-2022,7-58-56,107,depth_duration_stimuli/003129_2014-05-12_10-48-10_094959634447_rgbf000100-resize_0/003129_2014-05-12_10-48-10_094959634447_rgbf000100-resize_0-target.png,250,4.9305,8,3046,249,feet,jsons/v1_VE250_randls_1.json,1373869,1602703,35,Woman
107,659000,DepthScenes,duration_manipulation_targetAtFixation,jsons/v1_VE250_randls_1.json,http://54.235.29.9/FacialAge/BNav_EC2/DepthDuration/v2_depth_duration_MTurk/v2_DepthDuration_HTML.html#96,96,1366,625,1366,768,8-20-2022,7-58-56,108,depth_duration_stimuli/002039_2014-06-24_20-22-38_260595134347_rgbf000084-resize_1/002039_2014-06-24_20-22-38_260595134347_rgbf000084-resize_1-target.png,250,4.408,8,19218,248,feet,jsons/v1_VE250_randls_1.json,1373869,1602703,35,Woman
108,659000,DepthScenes,duration_manipulation_targetAtFixation,jsons/v1_VE250_randls_1.json,http://54.235.29.9/FacialAge/BNav_EC2/DepthDuration/v2_depth_duration_MTurk/v2_DepthDuration_HTML.html#96,96,1366,625,1366,768,8-20-2022,7-58-56,109,depth_duration_stimuli/002103_2014-06-25_20-00-40_260595134347_rgbf000049-resize_0/002103_2014-06-25_20-00-40_260595134347_rgbf000049-resize_0-target.png,250,4.105,10,3234,249,feet,jsons/v1_VE250_randls_1.json,1373869,1602703,35,Woman
109,659000,DepthScenes,duration_manipulation_targetAtFixation,jsons/v1_VE250_randls_1.json,http://54.235.29.9/FacialAge/BNav_EC2/DepthDuration/v2_depth_duration_MTurk/v2_DepthDuration_HTML.html#96,96,1366,625,1366,768,8-20-2022,7-58-56,110,depth_duration_stimuli/000682_2014-06-08_23-14-58_260595134347_rgbf000041-resize_5/000682_2014-06-08_23-14-58_260595134347_rgbf000041-resize_5-target.png,250,2.7239999999999998,8,4532,248,feet,jsons/v1_VE250_randls_1.json,1373869,1602703,35,Woman
110,659000,DepthScenes,duration_manipulation_targetAtFixation,jsons/v1_VE250_randls_1.json,http://54.235.29.9/FacialAge/BNav_EC2/DepthDuration/v2_depth_duration_MTurk/v2_DepthDuration_HTML.html#96,96,1366,625,1366,768,8-20-2022,7-58-56,111,depth_duration_stimuli/001650_2014-06-20_12-09-00_260595134347_rgbf000087-resize_3/001650_2014-06-20_12-09-00_260595134347_rgbf000087-resize_3-target.png,250,1.9505,5,3518,249,feet,jsons/v1_VE250_randls_1.json,1373869,1602703,35,Woman
111,659000,DepthScenes,duration_manipulation_targetAtFixation,jsons/v1_VE250_randls_1.json,http://54.235.29.9/FacialAge/BNav_EC2/DepthDuration/v2_depth_duration_MTurk/v2_DepthDuration_HTML.html#96,96,1366,625,1366,768,8-20-2022,7-58-56,112,depth_duration_stimuli/001092_2014-06-15_17-34-58_260595134347_rgbf000171-resize_3/001092_2014-06-15_17-34-58_260595134347_rgbf000171-resize_3-target.png,250,2.6935,4,4056,248,feet,jsons/v1_VE250_randls_1.json,1373869,1602703,35,Woman
112,659000,DepthScenes,duration_manipulation_targetAtFixation,jsons/v1_VE250_randls_1.json,http://54.235.29.9/FacialAge/BNav_EC2/DepthDuration/v2_depth_duration_MTurk/v2_DepthDuration_HTML.html#96,96,1366,625,1366,768,8-20-2022,7-58-56,113,depth_duration_stimuli/002545_2014-06-24_13-38-53_094959634447_rgbf000080-resize_4/002545_2014-06-24_13-38-53_094959634447_rgbf000080-resize_4-target.png,250,1.9205,5,2788,250,feet,jsons/v1_VE250_randls_1.json,1373869,1602703,35,Woman
113,659000,DepthScenes,duration_manipulation_targetAtFixation,jsons/v1_VE250_randls_1.json,http://54.235.29.9/FacialAge/BNav_EC2/DepthDuration/v2_depth_duration_MTurk/v2_DepthDuration_HTML.html#96,96,1366,625,1366,768,8-20-2022,7-58-56,114,depth_duration_stimuli/003492_2014-05-21_15-50-55_094959634447_rgbf000828-resize_1/003492_2014-05-21_15-50-55_094959634447_rgbf000828-resize_1-target.png,250,4.06875,8,4077,247,feet,jsons/v1_VE250_randls_1.json,1373869,1602703,35,Woman
114,659000,DepthScenes,duration_manipulation_targetAtFixation,jsons/v1_VE250_randls_1.json,http://54.235.29.9/FacialAge/BNav_EC2/DepthDuration/v2_depth_duration_MTurk/v2_DepthDuration_HTML.html#96,96,1366,625,1366,768,8-20-2022,7-58-56,115,depth_duration_stimuli/002568_2014-06-24_13-59-21_094959634447_rgbf000062-resize_4/002568_2014-06-24_13-59-21_094959634447_rgbf000062-resize_4-target.png,250,3.015,6,2891,233,feet,jsons/v1_VE250_randls_1.json,1373869,1602703,35,Woman
115,659000,DepthScenes,duration_manipulation_targetAtFixation,jsons/v1_VE250_randls_1.json,http://54.235.29.9/FacialAge/BNav_EC2/DepthDuration/v2_depth_duration_MTurk/v2_DepthDuration_HTML.html#96,96,1366,625,1366,768,8-20-2022,7-58-56,116,depth_duration_stimuli/001170_2014-06-17_15-43-44_260595134347_rgbf000096-resize_6/001170_2014-06-17_15-43-44_260595134347_rgbf000096-resize-original.jpg,250,1.1909999999999998,0,6329,247,feet,jsons/v1_VE250_randls_1.json,1373869,1602703,35,Woman
116,659000,DepthScenes,duration_manipulation_targetAtFixation,jsons/v1_VE250_randls_1.json,http://54.235.29.9/FacialAge/BNav_EC2/DepthDuration/v2_depth_duration_MTurk/v2_DepthDuration_HTML.html#96,96,1366,625,1366,768,8-20-2022,7-58-56,117,depth_duration_stimuli/001011_2014-06-08_23-18-54_260595134347_rgbf000044-resize_4/001011_2014-06-08_23-18-54_260595134347_rgbf000044-resize_4-target.png,250,2.4730000000000003,8,4399,248,feet,jsons/v1_VE250_randls_1.json,1373869,1602703,35,Woman
117,659000,DepthScenes,duration_manipulation_targetAtFixation,jsons/v1_VE250_randls_1.json,http://54.235.29.9/FacialAge/BNav_EC2/DepthDuration/v2_depth_duration_MTurk/v2_DepthDuration_HTML.html#96,96,1366,625,1366,768,8-20-2022,7-58-56,118,depth_duration_stimuli/002875_2014-06-01_15-19-00_094959634447_rgbf000151-resize_1/002875_2014-06-01_15-19-00_094959634447_rgbf000151-resize_1-target.png,250,1.9675,5,3765,248,feet,jsons/v1_VE250_randls_1.json,1373869,1602703,35,Woman
118,659000,DepthScenes,duration_manipulation_targetAtFixation,jsons/v1_VE250_randls_1.json,http://54.235.29.9/FacialAge/BNav_EC2/DepthDuration/v2_depth_duration_MTurk/v2_DepthDuration_HTML.html#96,96,1366,625,1366,768,8-20-2022,7-58-56,119,depth_duration_stimuli/001167_2014-06-17_15-38-07_260595134347_rgbf000108-resize_0/001167_2014-06-17_15-38-07_260595134347_rgbf000108-resize_0-target.png,250,1.8505,5,4531,249,feet,jsons/v1_VE250_randls_1.json,1373869,1602703,35,Woman
119,659000,DepthScenes,duration_manipulation_targetAtFixation,jsons/v1_VE250_randls_1.json,http://54.235.29.9/FacialAge/BNav_EC2/DepthDuration/v2_depth_duration_MTurk/v2_DepthDuration_HTML.html#96,96,1366,625,1366,768,8-20-2022,7-58-56,120,depth_duration_stimuli/003587_2014-05-23_16-48-02_094959634447_rgbf002384-resize_2/003587_2014-05-23_16-48-02_094959634447_rgbf002384-resize_2-target.png,250,1.357,5,6781,248,feet,jsons/v1_VE250_randls_1.json,1373869,1602703,35,Woman
120,659000,DepthScenes,duration_manipulation_targetAtFixation,jsons/v1_VE250_randls_1.json,http://54.235.29.9/FacialAge/BNav_EC2/DepthDuration/v2_depth_duration_MTurk/v2_DepthDuration_HTML.html#96,96,1366,625,1366,768,8-20-2022,7-58-56,121,depth_duration_stimuli/000906_2014-06-08_13-35-43_260595134347_rgbf000155-resize_1/000906_2014-06-08_13-35-43_260595134347_rgbf000155-resize_1-target.png,250,2.8489999999999998,5,6485,257,feet,jsons/v1_VE250_randls_1.json,1373869,1602703,35,Woman
121,659000,DepthScenes,duration_manipulation_targetAtFixation,jsons/v1_VE250_randls_1.json,http://54.235.29.9/FacialAge/BNav_EC2/DepthDuration/v2_depth_duration_MTurk/v2_DepthDuration_HTML.html#96,96,1366,625,1366,768,8-20-2022,7-58-56,122,depth_duration_stimuli/002805_2014-06-22_19-54-03_094959634447_rgbf000079-resize_1/002805_2014-06-22_19-54-03_094959634447_rgbf000079-resize_1-target.png,250,3.1439999999999997,6,4000,248,feet,jsons/v1_VE250_randls_1.json,1373869,1602703,35,Woman
122,659000,DepthScenes,duration_manipulation_targetAtFixation,jsons/v1_VE250_randls_1.json,http://54.235.29.9/FacialAge/BNav_EC2/DepthDuration/v2_depth_duration_MTurk/v2_DepthDuration_HTML.html#96,96,1366,625,1366,768,8-20-2022,7-58-56,123,depth_duration_stimuli/000692_2014-06-08_13-09-42_260595134347_rgbf000199-resize_2/000692_2014-06-08_13-09-42_260595134347_rgbf000199-resize_2-target.png,250,3.661,8,3683,258,feet,jsons/v1_VE250_randls_1.json,1373869,1602703,35,Woman
123,659000,DepthScenes,duration_manipulation_targetAtFixation,jsons/v1_VE250_randls_1.json,http://54.235.29.9/FacialAge/BNav_EC2/DepthDuration/v2_depth_duration_MTurk/v2_DepthDuration_HTML.html#96,96,1366,625,1366,768,8-20-2022,7-58-56,124,depth_duration_stimuli/001094_2014-06-15_17-36-00_260595134347_rgbf000205-resize_0/001094_2014-06-15_17-36-00_260595134347_rgbf000205-resize_0-target.png,250,4.2175,6,4275,261,feet,jsons/v1_VE250_randls_1.json,1373869,1602703,35,Woman
124,659000,DepthScenes,duration_manipulation_targetAtFixation,jsons/v1_VE250_randls_1.json,http://54.235.29.9/FacialAge/BNav_EC2/DepthDuration/v2_depth_duration_MTurk/v2_DepthDuration_HTML.html#96,96,1366,625,1366,768,8-20-2022,7-58-56,125,depth_duration_stimuli/001199_2014-06-17_16-03-48_260595134347_rgbf000077-resize_0/001199_2014-06-17_16-03-48_260595134347_rgbf000077-resize_0-target.png,250,3.4375,10,4250,248,feet,jsons/v1_VE250_randls_1.json,1373869,1602703,35,Woman
125,659000,DepthScenes,duration_manipulation_targetAtFixation,jsons/v1_VE250_randls_1.json,http://54.235.29.9/FacialAge/BNav_EC2/DepthDuration/v2_depth_duration_MTurk/v2_DepthDuration_HTML.html#96,96,1366,625,1366,768,8-20-2022,7-58-56,126,depth_duration_stimuli/000502_2014-06-08_23-02-32_260595134347_rgbf000063-resize_4/000502_2014-06-08_23-02-32_260595134347_rgbf000063-resize_4-target.png,250,2.431,5,30351,248,feet,jsons/v1_VE250_randls_1.json,1373869,1602703,35,Woman
126,659000,DepthScenes,duration_manipulation_targetAtFixation,jsons/v1_VE250_randls_1.json,http://54.235.29.9/FacialAge/BNav_EC2/DepthDuration/v2_depth_duration_MTurk/v2_DepthDuration_HTML.html#96,96,1366,625,1366,768,8-20-2022,7-58-56,127,depth_duration_stimuli/001244_2014-06-17_16-47-45_260595134347_rgbf000030-resize_4/001244_2014-06-17_16-47-45_260595134347_rgbf000030-resize_4-target.png,250,2.0425,5,26896,233,feet,jsons/v1_VE250_randls_1.json,1373869,1602703,35,Woman
127,659000,DepthScenes,duration_manipulation_targetAtFixation,jsons/v1_VE250_randls_1.json,http://54.235.29.9/FacialAge/BNav_EC2/DepthDuration/v2_depth_duration_MTurk/v2_DepthDuration_HTML.html#96,96,1366,625,1366,768,8-20-2022,7-58-56,128,depth_duration_stimuli/003495_2014-05-21_16-01-51_094959634447_rgbf000100-resize_3/003495_2014-05-21_16-01-51_094959634447_rgbf000100-resize_3-target.png,250,1.6255,0,22388,249,feet,jsons/v1_VE250_randls_1.json,1373869,1602703,35,Woman
128,659000,DepthScenes,duration_manipulation_targetAtFixation,jsons/v1_VE250_randls_1.json,http://54.235.29.9/FacialAge/BNav_EC2/DepthDuration/v2_depth_duration_MTurk/v2_DepthDuration_HTML.html#96,96,1366,625,1366,768,8-20-2022,7-58-56,129,depth_duration_stimuli/002272_2014-06-28_18-53-56_260595134347_rgbf000067-resize_2/002272_2014-06-28_18-53-56_260595134347_rgbf000067-resize_2-target.png,250,1.138,3,14828,264,feet,jsons/v1_VE250_randls_1.json,1373869,1602703,35,Woman
129,659000,DepthScenes,duration_manipulation_targetAtFixation,jsons/v1_VE250_randls_1.json,http://54.235.29.9/FacialAge/BNav_EC2/DepthDuration/v2_depth_duration_MTurk/v2_DepthDuration_HTML.html#96,96,1366,625,1366,768,8-20-2022,7-58-56,130,depth_duration_stimuli/001571_2014-06-20_17-21-32_260595134347_rgbf000089-resize_1/001571_2014-06-20_17-21-32_260595134347_rgbf000089-resize_1-target.png,250,1.86,5,3063,248,feet,jsons/v1_VE250_randls_1.json,1373869,1602703,35,Woman
130,659000,DepthScenes,duration_manipulation_targetAtFixation,jsons/v1_VE250_randls_1.json,http://54.235.29.9/FacialAge/BNav_EC2/DepthDuration/v2_depth_duration_MTurk/v2_DepthDuration_HTML.html#96,96,1366,625,1366,768,8-20-2022,7-58-56,131,depth_duration_stimuli/001175_2014-06-17_15-45-55_260595134347_rgbf000129-resize_4/001175_2014-06-17_15-45-55_260595134347_rgbf000129-resize_4-target.png,250,4.255,10,4531,248,feet,jsons/v1_VE250_randls_1.json,1373869,1602703,35,Woman
131,659000,DepthScenes,duration_manipulation_targetAtFixation,jsons/v1_VE250_randls_1.json,http://54.235.29.9/FacialAge/BNav_EC2/DepthDuration/v2_depth_duration_MTurk/v2_DepthDuration_HTML.html#96,96,1366,625,1366,768,8-20-2022,7-58-56,132,depth_duration_stimuli/003490_2014-05-21_15-50-11_094959634447_rgbf000101-resize_3/003490_2014-05-21_15-50-11_094959634447_rgbf000101-resize_3-target.png,250,3.6445,10,4077,248,feet,jsons/v1_VE250_randls_1.json,1373869,1602703,35,Woman
132,659000,DepthScenes,duration_manipulation_targetAtFixation,jsons/v1_VE250_randls_1.json,http://54.235.29.9/FacialAge/BNav_EC2/DepthDuration/v2_depth_duration_MTurk/v2_DepthDuration_HTML.html#96,96,1366,625,1366,768,8-20-2022,7-58-56,133,depth_duration_stimuli/003621_2014-05-23_18-06-08_094959634447_rgbf000101-resize_1/003621_2014-05-23_18-06-08_094959634447_rgbf000101-resize_1-target.png,250,3.9835,10,5233,249,feet,jsons/v1_VE250_randls_1.json,1373869,1602703,35,Woman
133,659000,DepthScenes,duration_manipulation_targetAtFixation,jsons/v1_VE250_randls_1.json,http://54.235.29.9/FacialAge/BNav_EC2/DepthDuration/v2_depth_duration_MTurk/v2_DepthDuration_HTML.html#96,96,1366,625,1366,768,8-20-2022,7-58-56,134,depth_duration_stimuli/001584_2014-06-20_11-07-43_260595134347_rgbf000002-resize_1/001584_2014-06-20_11-07-43_260595134347_rgbf000002-resize_1-target.png,250,3.53,12,7726,248,feet,jsons/v1_VE250_randls_1.json,1373869,1602703,35,Woman
134,659000,DepthScenes,duration_manipulation_targetAtFixation,jsons/v1_VE250_randls_1.json,http://54.235.29.9/FacialAge/BNav_EC2/DepthDuration/v2_depth_duration_MTurk/v2_DepthDuration_HTML.html#96,96,1366,625,1366,768,8-20-2022,7-58-56,135,depth_duration_stimuli/002072_2014-06-24_21-48-06_260595134347_rgbf000115-resize_0/002072_2014-06-24_21-48-06_260595134347_rgbf000115-resize-original.jpg,250,4.702,5,17042,248,feet,jsons/v1_VE250_randls_1.json,1373869,1602703,35,Woman
135,659000,DepthScenes,duration_manipulation_targetAtFixation,jsons/v1_VE250_randls_1.json,http://54.235.29.9/FacialAge/BNav_EC2/DepthDuration/v2_depth_duration_MTurk/v2_DepthDuration_HTML.html#96,96,1366,625,1366,768,8-20-2022,7-58-56,136,depth_duration_stimuli/000739_2014-06-08_18-45-58_260595134347_rgbf000068-resize_1/000739_2014-06-08_18-45-58_260595134347_rgbf000068-resize_1-target.png,250,3.534,5,6514,250,feet,jsons/v1_VE250_randls_1.json,1373869,1602703,35,Woman
136,659000,DepthScenes,duration_manipulation_targetAtFixation,jsons/v1_VE250_randls_1.json,http://54.235.29.9/FacialAge/BNav_EC2/DepthDuration/v2_depth_duration_MTurk/v2_DepthDuration_HTML.html#96,96,1366,625,1366,768,8-20-2022,7-58-56,137,depth_duration_stimuli/000734_2014-06-08_17-39-11_260595134347_rgbf000128-resize_2/000734_2014-06-08_17-39-11_260595134347_rgbf000128-resize_2-target.png,250,4.098,5,8323,250,feet,jsons/v1_VE250_randls_1.json,1373869,1602703,35,Woman
137,659000,DepthScenes,duration_manipulation_targetAtFixation,jsons/v1_VE250_randls_1.json,http://54.235.29.9/FacialAge/BNav_EC2/DepthDuration/v2_depth_duration_MTurk/v2_DepthDuration_HTML.html#96,96,1366,625,1366,768,8-20-2022,7-58-56,138,depth_duration_stimuli/002630_2014-06-24_14-47-50_094959634447_rgbf000055-resize_1/002630_2014-06-24_14-47-50_094959634447_rgbf000055-resize_1-target.png,250,3.0095,5,28902,248,feet,jsons/v1_VE250_randls_1.json,1373869,1602703,35,Woman
138,659000,DepthScenes,duration_manipulation_targetAtFixation,jsons/v1_VE250_randls_1.json,http://54.235.29.9/FacialAge/BNav_EC2/DepthDuration/v2_depth_duration_MTurk/v2_DepthDuration_HTML.html#96,96,1366,625,1366,768,8-20-2022,7-58-56,139,depth_duration_stimuli/002758_2014-06-22_19-11-20_094959634447_rgbf000128-resize_1/002758_2014-06-22_19-11-20_094959634447_rgbf000128-resize_1-target.png,250,2.555,6,4118,248,feet,jsons/v1_VE250_randls_1.json,1373869,1602703,35,Woman
139,659000,DepthScenes,duration_manipulation_targetAtFixation,jsons/v1_VE250_randls_1.json,http://54.235.29.9/FacialAge/BNav_EC2/DepthDuration/v2_depth_duration_MTurk/v2_DepthDuration_HTML.html#96,96,1366,625,1366,768,8-20-2022,7-58-56,140,depth_duration_stimuli/001133_2014-06-17_14-49-16_260595134347_rgbf000100-resize_0/001133_2014-06-17_14-49-16_260595134347_rgbf000100-resize_0-target.png,250,4.2115,6,4622,266,feet,jsons/v1_VE250_randls_1.json,1373869,1602703,35,Woman
140,659000,DepthScenes,duration_manipulation_targetAtFixation,jsons/v1_VE250_randls_1.json,http://54.235.29.9/FacialAge/BNav_EC2/DepthDuration/v2_depth_duration_MTurk/v2_DepthDuration_HTML.html#96,96,1366,625,1366,768,8-20-2022,7-58-56,141,depth_duration_stimuli/001132_2014-06-17_14-48-54_260595134347_rgbf000100-resize_2/001132_2014-06-17_14-48-54_260595134347_rgbf000100-resize_2-target.png,250,3.753,6,3532,248,feet,jsons/v1_VE250_randls_1.json,1373869,1602703,35,Woman
141,659000,DepthScenes,duration_manipulation_targetAtFixation,jsons/v1_VE250_randls_1.json,http://54.235.29.9/FacialAge/BNav_EC2/DepthDuration/v2_depth_duration_MTurk/v2_DepthDuration_HTML.html#96,96,1366,625,1366,768,8-20-2022,7-58-56,142,depth_duration_stimuli/003070_2014-06-15_14-58-27_094959634447_rgbf000150-resize_3/003070_2014-06-15_14-58-27_094959634447_rgbf000150-resize_3-target.png,250,2.9415,8,4354,250,feet,jsons/v1_VE250_randls_1.json,1373869,1602703,35,Woman
142,659000,DepthScenes,duration_manipulation_targetAtFixation,jsons/v1_VE250_randls_1.json,http://54.235.29.9/FacialAge/BNav_EC2/DepthDuration/v2_depth_duration_MTurk/v2_DepthDuration_HTML.html#96,96,1366,625,1366,768,8-20-2022,7-58-56,143,depth_duration_stimuli/000943_2014-06-09_19-31-07_260595134347_rgbf000128-resize_1/000943_2014-06-09_19-31-07_260595134347_rgbf000128-resize_1-target.png,250,1.9765,5,3720,248,feet,jsons/v1_VE250_randls_1.json,1373869,1602703,35,Woman
143,659000,DepthScenes,duration_manipulation_targetAtFixation,jsons/v1_VE250_randls_1.json,http://54.235.29.9/FacialAge/BNav_EC2/DepthDuration/v2_depth_duration_MTurk/v2_DepthDuration_HTML.html#96,96,1366,625,1366,768,8-20-2022,7-58-56,144,depth_duration_stimuli/001029_2014-06-08_13-17-57_260595134347_rgbf000065-resize_1/001029_2014-06-08_13-17-57_260595134347_rgbf000065-resize_1-target.png,250,3.0835,5,3453,248,feet,jsons/v1_VE250_randls_1.json,1373869,1602703,35,Woman
144,659000,DepthScenes,duration_manipulation_targetAtFixation,jsons/v1_VE250_randls_1.json,http://54.235.29.9/FacialAge/BNav_EC2/DepthDuration/v2_depth_duration_MTurk/v2_DepthDuration_HTML.html#96,96,1366,625,1366,768,8-20-2022,7-58-56,145,depth_duration_stimuli/000677_2014-06-08_23-10-32_260595134347_rgbf000158-resize_6/000677_2014-06-08_23-10-32_260595134347_rgbf000158-resize_6-target.png,250,3.556,8,2937,248,feet,jsons/v1_VE250_randls_1.json,1373869,1602703,35,Woman
145,659000,DepthScenes,duration_manipulation_targetAtFixation,jsons/v1_VE250_randls_1.json,http://54.235.29.9/FacialAge/BNav_EC2/DepthDuration/v2_depth_duration_MTurk/v2_DepthDuration_HTML.html#96,96,1366,625,1366,768,8-20-2022,7-58-56,146,depth_duration_stimuli/001498_2014-06-19_17-45-14_260595134347_rgbf000129-resize_4/001498_2014-06-19_17-45-14_260595134347_rgbf000129-resize-original.jpg,250,1.4075,0,3753,250,feet,jsons/v1_VE250_randls_1.json,1373869,1602703,35,Woman
146,659000,DepthScenes,duration_manipulation_targetAtFixation,jsons/v1_VE250_randls_1.json,http://54.235.29.9/FacialAge/BNav_EC2/DepthDuration/v2_depth_duration_MTurk/v2_DepthDuration_HTML.html#96,96,1366,625,1366,768,8-20-2022,7-58-56,147,depth_duration_stimuli/001555_2014-06-20_17-12-10_260595134347_rgbf000065-resize_4/001555_2014-06-20_17-12-10_260595134347_rgbf000065-resize_4-target.png,250,1.633,5,9672,243,feet,jsons/v1_VE250_randls_1.json,1373869,1602703,35,Woman
147,659000,DepthScenes,duration_manipulation_targetAtFixation,jsons/v1_VE250_randls_1.json,http://54.235.29.9/FacialAge/BNav_EC2/DepthDuration/v2_depth_duration_MTurk/v2_DepthDuration_HTML.html#96,96,1366,625,1366,768,8-20-2022,7-58-56,148,depth_duration_stimuli/000103_2014-05-14_22-01-17_260595134347_rgbf000152-resize_5/000103_2014-05-14_22-01-17_260595134347_rgbf000152-resize_5-target.png,250,1.993,5,32334,249,feet,jsons/v1_VE250_randls_1.json,1373869,1602703,35,Woman
148,659000,DepthScenes,duration_manipulation_targetAtFixation,jsons/v1_VE250_randls_1.json,http://54.235.29.9/FacialAge/BNav_EC2/DepthDuration/v2_depth_duration_MTurk/v2_DepthDuration_HTML.html#96,96,1366,625,1366,768,8-20-2022,7-58-56,149,depth_duration_stimuli/000917_2014-06-09_22-45-29_260595134347_rgbf000149-resize_3/000917_2014-06-09_22-45-29_260595134347_rgbf000149-resize_3-target.png,250,4.1865,5,4373,248,feet,jsons/v1_VE250_randls_1.json,1373869,1602703,35,Woman
149,659000,DepthScenes,duration_manipulation_targetAtFixation,jsons/v1_VE250_randls_1.json,http://54.235.29.9/FacialAge/BNav_EC2/DepthDuration/v2_depth_duration_MTurk/v2_DepthDuration_HTML.html#96,96,1366,625,1366,768,8-20-2022,7-58-56,150,depth_duration_stimuli/002323_2014-06-28_20-01-54_260595134347_rgbf000051-resize_4/002323_2014-06-28_20-01-54_260595134347_rgbf000051-resize_4-target.png,250,3.7310000000000003,10,12697,249,feet,jsons/v1_VE250_randls_1.json,1373869,1602703,35,Woman
150,659000,DepthScenes,duration_manipulation_targetAtFixation,jsons/v1_VE250_randls_1.json,http://54.235.29.9/FacialAge/BNav_EC2/DepthDuration/v2_depth_duration_MTurk/v2_DepthDuration_HTML.html#96,96,1366,625,1366,768,8-20-2022,7-58-56,151,depth_duration_stimuli/002153_2014-06-25_21-27-18_260595134347_rgbf000038-resize_5/002153_2014-06-25_21-27-18_260595134347_rgbf000038-resize_5-target.png,250,2.505,5,35802,249,feet,jsons/v1_VE250_randls_1.json,1373869,1602703,35,Woman
151,659000,DepthScenes,duration_manipulation_targetAtFixation,jsons/v1_VE250_randls_1.json,http://54.235.29.9/FacialAge/BNav_EC2/DepthDuration/v2_depth_duration_MTurk/v2_DepthDuration_HTML.html#96,96,1366,625,1366,768,8-20-2022,7-58-56,152,depth_duration_stimuli/002660_2014-06-13_15-44-18_094959634447_rgbf001878-resize_2/002660_2014-06-13_15-44-18_094959634447_rgbf001878-resize_2-target.png,250,3.576,8,41492,249,feet,jsons/v1_VE250_randls_1.json,1373869,1602703,35,Woman
152,659000,DepthScenes,duration_manipulation_targetAtFixation,jsons/v1_VE250_randls_1.json,http://54.235.29.9/FacialAge/BNav_EC2/DepthDuration/v2_depth_duration_MTurk/v2_DepthDuration_HTML.html#96,96,1366,625,1366,768,8-20-2022,7-58-56,153,depth_duration_stimuli/001056_2014-06-08_18-46-44_260595134347_rgbf000068-resize_0/001056_2014-06-08_18-46-44_260595134347_rgbf000068-resize_0-target.png,250,2.6625,5,72813,249,feet,jsons/v1_VE250_randls_1.json,1373869,1602703,35,Woman
153,659000,DepthScenes,duration_manipulation_targetAtFixation,jsons/v1_VE250_randls_1.json,http://54.235.29.9/FacialAge/BNav_EC2/DepthDuration/v2_depth_duration_MTurk/v2_DepthDuration_HTML.html#96,96,1366,625,1366,768,8-20-2022,7-58-56,154,depth_duration_stimuli/002199_2014-06-28_18-33-56_260595134347_rgbf000074-resize_0/002199_2014-06-28_18-33-56_260595134347_rgbf000074-resize_0-target.png,250,1.996,2,2829,245,feet,jsons/v1_VE250_randls_1.json,1373869,1602703,35,Woman
154,659000,DepthScenes,duration_manipulation_targetAtFixation,jsons/v1_VE250_randls_1.json,http://54.235.29.9/FacialAge/BNav_EC2/DepthDuration/v2_depth_duration_MTurk/v2_DepthDuration_HTML.html#96,96,1366,625,1366,768,8-20-2022,7-58-56,155,depth_duration_stimuli/001066_2014-06-08_22-03-20_260595134347_rgbf000066-resize_4/001066_2014-06-08_22-03-20_260595134347_rgbf000066-resize_4-target.png,250,4.2330000000000005,8,4032,245,feet,jsons/v1_VE250_randls_1.json,1373869,1602703,35,Woman
155,659000,DepthScenes,duration_manipulation_targetAtFixation,jsons/v1_VE250_randls_1.json,http://54.235.29.9/FacialAge/BNav_EC2/DepthDuration/v2_depth_duration_MTurk/v2_DepthDuration_HTML.html#96,96,1366,625,1366,768,8-20-2022,7-58-56,156,depth_duration_stimuli/000742_2014-06-08_18-48-09_260595134347_rgbf000164-resize_4/000742_2014-06-08_18-48-09_260595134347_rgbf000164-resize_4-target.png,250,4.632,8,2718,248,feet,jsons/v1_VE250_randls_1.json,1373869,1602703,35,Woman
156,659000,DepthScenes,duration_manipulation_targetAtFixation,jsons/v1_VE250_randls_1.json,http://54.235.29.9/FacialAge/BNav_EC2/DepthDuration/v2_depth_duration_MTurk/v2_DepthDuration_HTML.html#96,96,1366,625,1366,768,8-20-2022,7-58-56,157,depth_duration_stimuli/000470_2014-06-09_19-42-40_260595134347_rgbf000094-resize_1/000470_2014-06-09_19-42-40_260595134347_rgbf000094-resize_1-target.png,250,1.831,3,3485,233,feet,jsons/v1_VE250_randls_1.json,1373869,1602703,35,Woman
157,659000,DepthScenes,duration_manipulation_targetAtFixation,jsons/v1_VE250_randls_1.json,http://54.235.29.9/FacialAge/BNav_EC2/DepthDuration/v2_depth_duration_MTurk/v2_DepthDuration_HTML.html#96,96,1366,625,1366,768,8-20-2022,7-58-56,158,depth_duration_stimuli/000109_2014-05-14_23-41-52_260595134347_rgbf000035-resize_9/000109_2014-05-14_23-41-52_260595134347_rgbf000035-resize_9-target.png,250,1.3545,5,8843,248,feet,jsons/v1_VE250_randls_1.json,1373869,1602703,35,Woman
158,659000,DepthScenes,duration_manipulation_targetAtFixation,jsons/v1_VE250_randls_1.json,http://54.235.29.9/FacialAge/BNav_EC2/DepthDuration/v2_depth_duration_MTurk/v2_DepthDuration_HTML.html#96,96,1366,625,1366,768,8-20-2022,7-58-56,159,depth_duration_stimuli/002213_2014-06-28_18-37-58_260595134347_rgbf000055-resize_1/002213_2014-06-28_18-37-58_260595134347_rgbf000055-resize_1-target.png,250,3.62,5,14532,242,feet,jsons/v1_VE250_randls_1.json,1373869,1602703,35,Woman
159,659000,DepthScenes,duration_manipulation_targetAtFixation,jsons/v1_VE250_randls_1.json,http://54.235.29.9/FacialAge/BNav_EC2/DepthDuration/v2_depth_duration_MTurk/v2_DepthDuration_HTML.html#96,96,1366,625,1366,768,8-20-2022,7-58-56,160,depth_duration_stimuli/000691_2014-06-08_13-08-50_260595134347_rgbf000132-resize_3/000691_2014-06-08_13-08-50_260595134347_rgbf000132-resize_3-target.png,250,4.1530000000000005,8,5262,233,feet,jsons/v1_VE250_randls_1.json,1373869,1602703,35,Woman
160,659000,DepthScenes,duration_manipulation_targetAtFixation,jsons/v1_VE250_randls_1.json,http://54.235.29.9/FacialAge/BNav_EC2/DepthDuration/v2_depth_duration_MTurk/v2_DepthDuration_HTML.html#96,96,1366,625,1366,768,8-20-2022,7-58-56,161,depth_duration_stimuli/000929_2014-06-09_16-33-19_260595134347_rgbf000139-resize_0/000929_2014-06-09_16-33-19_260595134347_rgbf000139-resize_0-target.png,250,2.8680000000000003,4,3671,248,feet,jsons/v1_VE250_randls_1.json,1373869,1602703,35,Woman
161,659000,DepthScenes,duration_manipulation_targetAtFixation,jsons/v1_VE250_randls_1.json,http://54.235.29.9/FacialAge/BNav_EC2/DepthDuration/v2_depth_duration_MTurk/v2_DepthDuration_HTML.html#96,96,1366,625,1366,768,8-20-2022,7-58-56,162,depth_duration_stimuli/000457_2014-06-08_16-52-43_260595134347_rgbf000199-resize_1/000457_2014-06-08_16-52-43_260595134347_rgbf000199-resize_1-target.png,250,3.6489999999999996,8,3141,249,feet,jsons/v1_VE250_randls_1.json,1373869,1602703,35,Woman
162,659000,DepthScenes,duration_manipulation_targetAtFixation,jsons/v1_VE250_randls_1.json,http://54.235.29.9/FacialAge/BNav_EC2/DepthDuration/v2_depth_duration_MTurk/v2_DepthDuration_HTML.html#96,96,1366,625,1366,768,8-20-2022,7-58-56,163,depth_duration_stimuli/002509_2014-06-24_13-19-22_094959634447_rgbf000077-resize_0/002509_2014-06-24_13-19-22_094959634447_rgbf000077-resize_0-target.png,250,1.3065,10,4080,248,feet,jsons/v1_VE250_randls_1.json,1373869,1602703,35,Woman
163,659000,DepthScenes,duration_manipulation_targetAtFixation,jsons/v1_VE250_randls_1.json,http://54.235.29.9/FacialAge/BNav_EC2/DepthDuration/v2_depth_duration_MTurk/v2_DepthDuration_HTML.html#96,96,1366,625,1366,768,8-20-2022,7-58-56,164,depth_duration_stimuli/003338_2014-05-20_11-01-23_094959634447_rgbf000051-resize_6/003338_2014-05-20_11-01-23_094959634447_rgbf000051-resize_6-target.png,250,1.693,5,3181,275,feet,jsons/v1_VE250_randls_1.json,1373869,1602703,35,Woman
