,subjID,experimentName,versionName,sequenceName,url,selected_row,windowWidth,windowHeight,screenWidth,screenHeight,startDate,startTime,trial,stimulus,duration,actual_depth,depth_estimate,trial_RT,log_sceneDuration,unitSelection,seq_filepath,experimentTime,totalTime,age,gender
0,662848,DepthScenes,duration_manipulation_targetAtFixation,jsons/v1_VE1000_randls_15.json,http://54.235.29.9/FacialAge/BNav_EC2/DepthDuration/v2_depth_duration_MTurk/v2_DepthDuration_HTML.html#133,133,1515,694,1364,768,8-22-2022,9-28-14,1,depth_duration_stimuli/002964_2014-06-08_17-46-11_094959634447_rgbf000091-resize_4/002964_2014-06-08_17-46-11_094959634447_rgbf000091-resize_4-target.png,1000,1.6909999999999998,22,3370,998,meters,jsons/v1_VE1000_randls_15.json,672858,788176,48,Woman
1,662848,DepthScenes,duration_manipulation_targetAtFixation,jsons/v1_VE1000_randls_15.json,http://54.235.29.9/FacialAge/BNav_EC2/DepthDuration/v2_depth_duration_MTurk/v2_DepthDuration_HTML.html#133,133,1515,694,1364,768,8-22-2022,9-28-14,2,depth_duration_stimuli/002136_2014-06-25_21-18-03_260595134347_rgbf000109-resize_3/002136_2014-06-25_21-18-03_260595134347_rgbf000109-resize_3-target.png,1000,1.9569999999999999,33,2538,999,meters,jsons/v1_VE1000_randls_15.json,672858,788176,48,Woman
2,662848,DepthScenes,duration_manipulation_targetAtFixation,jsons/v1_VE1000_randls_15.json,http://54.235.29.9/FacialAge/BNav_EC2/DepthDuration/v2_depth_duration_MTurk/v2_DepthDuration_HTML.html#133,133,1515,694,1364,768,8-22-2022,9-28-14,3,depth_duration_stimuli/002272_2014-06-28_18-53-56_260595134347_rgbf000067-resize_2/002272_2014-06-28_18-53-56_260595134347_rgbf000067-resize_2-target.png,1000,1.138,32,3227,1001,meters,jsons/v1_VE1000_randls_15.json,672858,788176,48,Woman
3,662848,DepthScenes,duration_manipulation_targetAtFixation,jsons/v1_VE1000_randls_15.json,http://54.235.29.9/FacialAge/BNav_EC2/DepthDuration/v2_depth_duration_MTurk/v2_DepthDuration_HTML.html#133,133,1515,694,1364,768,8-22-2022,9-28-14,4,depth_duration_stimuli/001571_2014-06-20_17-21-32_260595134347_rgbf000089-resize_1/001571_2014-06-20_17-21-32_260595134347_rgbf000089-resize_1-target.png,1000,1.86,22,2928,987,meters,jsons/v1_VE1000_randls_15.json,672858,788176,48,Woman
4,662848,DepthScenes,duration_manipulation_targetAtFixation,jsons/v1_VE1000_randls_15.json,http://54.235.29.9/FacialAge/BNav_EC2/DepthDuration/v2_depth_duration_MTurk/v2_DepthDuration_HTML.html#133,133,1515,694,1364,768,8-22-2022,9-28-14,5,depth_duration_stimuli/002988_2014-06-15_12-24-20_094959634447_rgbf000150-resize_1/002988_2014-06-15_12-24-20_094959634447_rgbf000150-resize_1-target.png,1000,4.7669999999999995,11,2883,1000,meters,jsons/v1_VE1000_randls_15.json,672858,788176,48,Woman
5,662848,DepthScenes,duration_manipulation_targetAtFixation,jsons/v1_VE1000_randls_15.json,http://54.235.29.9/FacialAge/BNav_EC2/DepthDuration/v2_depth_duration_MTurk/v2_DepthDuration_HTML.html#133,133,1515,694,1364,768,8-22-2022,9-28-14,6,depth_duration_stimuli/001052_2014-06-08_18-24-54_260595134347_rgbf000130-resize_1/001052_2014-06-08_18-24-54_260595134347_rgbf000130-resize_1-target.png,1000,4.1045,22,2947,999,meters,jsons/v1_VE1000_randls_15.json,672858,788176,48,Woman
6,662848,DepthScenes,duration_manipulation_targetAtFixation,jsons/v1_VE1000_randls_15.json,http://54.235.29.9/FacialAge/BNav_EC2/DepthDuration/v2_depth_duration_MTurk/v2_DepthDuration_HTML.html#133,133,1515,694,1364,768,8-22-2022,9-28-14,7,depth_duration_stimuli/001110_2014-06-15_17-25-28_260595134347_rgbf000150-resize_1/001110_2014-06-15_17-25-28_260595134347_rgbf000150-resize_1-target.png,1000,1.7115,33,2543,997,meters,jsons/v1_VE1000_randls_15.json,672858,788176,48,Woman
7,662848,DepthScenes,duration_manipulation_targetAtFixation,jsons/v1_VE1000_randls_15.json,http://54.235.29.9/FacialAge/BNav_EC2/DepthDuration/v2_depth_duration_MTurk/v2_DepthDuration_HTML.html#133,133,1515,694,1364,768,8-22-2022,9-28-14,8,depth_duration_stimuli/000927_2014-06-09_16-32-30_260595134347_rgbf000123-resize_3/000927_2014-06-09_16-32-30_260595134347_rgbf000123-resize_3-target.png,1000,2.6785,34,3155,1000,meters,jsons/v1_VE1000_randls_15.json,672858,788176,48,Woman
8,662848,DepthScenes,duration_manipulation_targetAtFixation,jsons/v1_VE1000_randls_15.json,http://54.235.29.9/FacialAge/BNav_EC2/DepthDuration/v2_depth_duration_MTurk/v2_DepthDuration_HTML.html#133,133,1515,694,1364,768,8-22-2022,9-28-14,9,depth_duration_stimuli/002748_2014-06-22_19-07-22_094959634447_rgbf000078-resize_1/002748_2014-06-22_19-07-22_094959634447_rgbf000078-resize_1-target.png,1000,4.6705,22,2795,999,meters,jsons/v1_VE1000_randls_15.json,672858,788176,48,Woman
9,662848,DepthScenes,duration_manipulation_targetAtFixation,jsons/v1_VE1000_randls_15.json,http://54.235.29.9/FacialAge/BNav_EC2/DepthDuration/v2_depth_duration_MTurk/v2_DepthDuration_HTML.html#133,133,1515,694,1364,768,8-22-2022,9-28-14,10,depth_duration_stimuli/002995_2014-06-15_12-31-26_094959634447_rgbf000150-resize_1/002995_2014-06-15_12-31-26_094959634447_rgbf000150-resize_1-target.png,1000,3.8360000000000003,11,2568,998,meters,jsons/v1_VE1000_randls_15.json,672858,788176,48,Woman
10,662848,DepthScenes,duration_manipulation_targetAtFixation,jsons/v1_VE1000_randls_15.json,http://54.235.29.9/FacialAge/BNav_EC2/DepthDuration/v2_depth_duration_MTurk/v2_DepthDuration_HTML.html#133,133,1515,694,1364,768,8-22-2022,9-28-14,11,depth_duration_stimuli/000773_2014-06-08_22-24-54_260595134347_rgbf000093-resize_1/000773_2014-06-08_22-24-54_260595134347_rgbf000093-resize_1-target.png,1000,4.973,33,2641,1000,meters,jsons/v1_VE1000_randls_15.json,672858,788176,48,Woman
11,662848,DepthScenes,duration_manipulation_targetAtFixation,jsons/v1_VE1000_randls_15.json,http://54.235.29.9/FacialAge/BNav_EC2/DepthDuration/v2_depth_duration_MTurk/v2_DepthDuration_HTML.html#133,133,1515,694,1364,768,8-22-2022,9-28-14,12,depth_duration_stimuli/002414_2014-06-28_20-24-58_260595134347_rgbf000067-resize_4/002414_2014-06-28_20-24-58_260595134347_rgbf000067-resize_4-target.png,1000,4.363,22,2536,1002,meters,jsons/v1_VE1000_randls_15.json,672858,788176,48,Woman
12,662848,DepthScenes,duration_manipulation_targetAtFixation,jsons/v1_VE1000_randls_15.json,http://54.235.29.9/FacialAge/BNav_EC2/DepthDuration/v2_depth_duration_MTurk/v2_DepthDuration_HTML.html#133,133,1515,694,1364,768,8-22-2022,9-28-14,13,depth_duration_stimuli/000569_2014-06-09_22-51-47_260595134347_rgbf000141-resize_3/000569_2014-06-09_22-51-47_260595134347_rgbf000141-resize-original.jpg,1000,4.512,11,2601,999,meters,jsons/v1_VE1000_randls_15.json,672858,788176,48,Woman
13,662848,DepthScenes,duration_manipulation_targetAtFixation,jsons/v1_VE1000_randls_15.json,http://54.235.29.9/FacialAge/BNav_EC2/DepthDuration/v2_depth_duration_MTurk/v2_DepthDuration_HTML.html#133,133,1515,694,1364,768,8-22-2022,9-28-14,14,depth_duration_stimuli/002279_2014-06-28_18-55-32_260595134347_rgbf000040-resize_5/002279_2014-06-28_18-55-32_260595134347_rgbf000040-resize_5-target.png,1000,1.5043333333333,22,2441,998,meters,jsons/v1_VE1000_randls_15.json,672858,788176,48,Woman
14,662848,DepthScenes,duration_manipulation_targetAtFixation,jsons/v1_VE1000_randls_15.json,http://54.235.29.9/FacialAge/BNav_EC2/DepthDuration/v2_depth_duration_MTurk/v2_DepthDuration_HTML.html#133,133,1515,694,1364,768,8-22-2022,9-28-14,15,depth_duration_stimuli/000635_2014-06-08_16-38-42_260595134347_rgbf000106-resize_1/000635_2014-06-08_16-38-42_260595134347_rgbf000106-resize_1-target.png,1000,2.074,33,2478,998,meters,jsons/v1_VE1000_randls_15.json,672858,788176,48,Woman
15,662848,DepthScenes,duration_manipulation_targetAtFixation,jsons/v1_VE1000_randls_15.json,http://54.235.29.9/FacialAge/BNav_EC2/DepthDuration/v2_depth_duration_MTurk/v2_DepthDuration_HTML.html#133,133,1515,694,1364,768,8-22-2022,9-28-14,16,depth_duration_stimuli/001417_2014-06-19_16-25-36_260595134347_rgbf000115-resize_5/001417_2014-06-19_16-25-36_260595134347_rgbf000115-resize_5-target.png,1000,4.6255,22,2549,999,meters,jsons/v1_VE1000_randls_15.json,672858,788176,48,Woman
16,662848,DepthScenes,duration_manipulation_targetAtFixation,jsons/v1_VE1000_randls_15.json,http://54.235.29.9/FacialAge/BNav_EC2/DepthDuration/v2_depth_duration_MTurk/v2_DepthDuration_HTML.html#133,133,1515,694,1364,768,8-22-2022,9-28-14,17,depth_duration_stimuli/003081_2014-06-15_15-19-16_094959634447_rgbf000150-resize_1/003081_2014-06-15_15-19-16_094959634447_rgbf000150-resize_1-target.png,1000,3.9125,32,2627,898,meters,jsons/v1_VE1000_randls_15.json,672858,788176,48,Woman
17,662848,DepthScenes,duration_manipulation_targetAtFixation,jsons/v1_VE1000_randls_15.json,http://54.235.29.9/FacialAge/BNav_EC2/DepthDuration/v2_depth_duration_MTurk/v2_DepthDuration_HTML.html#133,133,1515,694,1364,768,8-22-2022,9-28-14,18,depth_duration_stimuli/003492_2014-05-21_15-50-55_094959634447_rgbf000828-resize_1/003492_2014-05-21_15-50-55_094959634447_rgbf000828-resize_1-target.png,1000,4.06875,22,2994,1031,meters,jsons/v1_VE1000_randls_15.json,672858,788176,48,Woman
18,662848,DepthScenes,duration_manipulation_targetAtFixation,jsons/v1_VE1000_randls_15.json,http://54.235.29.9/FacialAge/BNav_EC2/DepthDuration/v2_depth_duration_MTurk/v2_DepthDuration_HTML.html#133,133,1515,694,1364,768,8-22-2022,9-28-14,19,depth_duration_stimuli/002568_2014-06-24_13-59-21_094959634447_rgbf000062-resize_4/002568_2014-06-24_13-59-21_094959634447_rgbf000062-resize_4-target.png,1000,3.015,11,2632,995,meters,jsons/v1_VE1000_randls_15.json,672858,788176,48,Woman
19,662848,DepthScenes,duration_manipulation_targetAtFixation,jsons/v1_VE1000_randls_15.json,http://54.235.29.9/FacialAge/BNav_EC2/DepthDuration/v2_depth_duration_MTurk/v2_DepthDuration_HTML.html#133,133,1515,694,1364,768,8-22-2022,9-28-14,20,depth_duration_stimuli/002989_2014-06-15_12-25-03_094959634447_rgbf000150-resize_3/002989_2014-06-15_12-25-03_094959634447_rgbf000150-resize_3-target.png,1000,4.1975,22,2436,1002,meters,jsons/v1_VE1000_randls_15.json,672858,788176,48,Woman
20,662848,DepthScenes,duration_manipulation_targetAtFixation,jsons/v1_VE1000_randls_15.json,http://54.235.29.9/FacialAge/BNav_EC2/DepthDuration/v2_depth_duration_MTurk/v2_DepthDuration_HTML.html#133,133,1515,694,1364,768,8-22-2022,9-28-14,21,depth_duration_stimuli/000866_2014-06-09_20-45-42_260595134347_rgbf000139-resize_1/000866_2014-06-09_20-45-42_260595134347_rgbf000139-resize_1-target.png,1000,3.2155,33,2312,1013,meters,jsons/v1_VE1000_randls_15.json,672858,788176,48,Woman
21,662848,DepthScenes,duration_manipulation_targetAtFixation,jsons/v1_VE1000_randls_15.json,http://54.235.29.9/FacialAge/BNav_EC2/DepthDuration/v2_depth_duration_MTurk/v2_DepthDuration_HTML.html#133,133,1515,694,1364,768,8-22-2022,9-28-14,22,depth_duration_stimuli/001810_2014-06-26_20-51-35_260595134347_rgbf000040-resize_3/001810_2014-06-26_20-51-35_260595134347_rgbf000040-resize_3-target.png,1000,2.2525,121,2640,1012,meters,jsons/v1_VE1000_randls_15.json,672858,788176,48,Woman
22,662848,DepthScenes,duration_manipulation_targetAtFixation,jsons/v1_VE1000_randls_15.json,http://54.235.29.9/FacialAge/BNav_EC2/DepthDuration/v2_depth_duration_MTurk/v2_DepthDuration_HTML.html#133,133,1515,694,1364,768,8-22-2022,9-28-14,23,depth_duration_stimuli/003010_2014-06-15_12-54-35_094959634447_rgbf000112-resize_0/003010_2014-06-15_12-54-35_094959634447_rgbf000112-resize_0-target.png,1000,3.1185,22,2412,1009,meters,jsons/v1_VE1000_randls_15.json,672858,788176,48,Woman
23,662848,DepthScenes,duration_manipulation_targetAtFixation,jsons/v1_VE1000_randls_15.json,http://54.235.29.9/FacialAge/BNav_EC2/DepthDuration/v2_depth_duration_MTurk/v2_DepthDuration_HTML.html#133,133,1515,694,1364,768,8-22-2022,9-28-14,24,depth_duration_stimuli/000486_2014-06-09_20-47-20_260595134347_rgbf000143-resize_2/000486_2014-06-09_20-47-20_260595134347_rgbf000143-resize_2-target.png,1000,4.8325,33,2521,1009,meters,jsons/v1_VE1000_randls_15.json,672858,788176,48,Woman
24,662848,DepthScenes,duration_manipulation_targetAtFixation,jsons/v1_VE1000_randls_15.json,http://54.235.29.9/FacialAge/BNav_EC2/DepthDuration/v2_depth_duration_MTurk/v2_DepthDuration_HTML.html#133,133,1515,694,1364,768,8-22-2022,9-28-14,25,depth_duration_stimuli/003083_2014-06-15_15-21-03_094959634447_rgbf000063-resize_1/003083_2014-06-15_15-21-03_094959634447_rgbf000063-resize_1-target.png,1000,4.1405,11,3106,999,meters,jsons/v1_VE1000_randls_15.json,672858,788176,48,Woman
25,662848,DepthScenes,duration_manipulation_targetAtFixation,jsons/v1_VE1000_randls_15.json,http://54.235.29.9/FacialAge/BNav_EC2/DepthDuration/v2_depth_duration_MTurk/v2_DepthDuration_HTML.html#133,133,1515,694,1364,768,8-22-2022,9-28-14,26,depth_duration_stimuli/002375_2014-06-28_20-13-44_260595134347_rgbf000032-resize_1/002375_2014-06-28_20-13-44_260595134347_rgbf000032-resize_1-target.png,1000,4.0175,22,2427,1006,meters,jsons/v1_VE1000_randls_15.json,672858,788176,48,Woman
26,662848,DepthScenes,duration_manipulation_targetAtFixation,jsons/v1_VE1000_randls_15.json,http://54.235.29.9/FacialAge/BNav_EC2/DepthDuration/v2_depth_duration_MTurk/v2_DepthDuration_HTML.html#133,133,1515,694,1364,768,8-22-2022,9-28-14,27,depth_duration_stimuli/002657_2014-06-13_15-29-54_094959634447_rgbf000150-resize_1/002657_2014-06-13_15-29-54_094959634447_rgbf000150-resize_1-target.png,1000,4.919,33,2442,991,meters,jsons/v1_VE1000_randls_15.json,672858,788176,48,Woman
27,662848,DepthScenes,duration_manipulation_targetAtFixation,jsons/v1_VE1000_randls_15.json,http://54.235.29.9/FacialAge/BNav_EC2/DepthDuration/v2_depth_duration_MTurk/v2_DepthDuration_HTML.html#133,133,1515,694,1364,768,8-22-2022,9-28-14,28,depth_duration_stimuli/001199_2014-06-17_16-03-48_260595134347_rgbf000077-resize_0/001199_2014-06-17_16-03-48_260595134347_rgbf000077-resize_0-target.png,1000,3.4375,22,3604,1011,meters,jsons/v1_VE1000_randls_15.json,672858,788176,48,Woman
28,662848,DepthScenes,duration_manipulation_targetAtFixation,jsons/v1_VE1000_randls_15.json,http://54.235.29.9/FacialAge/BNav_EC2/DepthDuration/v2_depth_duration_MTurk/v2_DepthDuration_HTML.html#133,133,1515,694,1364,768,8-22-2022,9-28-14,29,depth_duration_stimuli/000502_2014-06-08_23-02-32_260595134347_rgbf000063-resize_4/000502_2014-06-08_23-02-32_260595134347_rgbf000063-resize_4-target.png,1000,2.431,11,2524,966,meters,jsons/v1_VE1000_randls_15.json,672858,788176,48,Woman
29,662848,DepthScenes,duration_manipulation_targetAtFixation,jsons/v1_VE1000_randls_15.json,http://54.235.29.9/FacialAge/BNav_EC2/DepthDuration/v2_depth_duration_MTurk/v2_DepthDuration_HTML.html#133,133,1515,694,1364,768,8-22-2022,9-28-14,30,depth_duration_stimuli/000375_2014-06-08_11-17-29_260595134347_rgbf000133-resize_2/000375_2014-06-08_11-17-29_260595134347_rgbf000133-resize-original.jpg,1000,4.718,22,2559,1000,meters,jsons/v1_VE1000_randls_15.json,672858,788176,48,Woman
30,662848,DepthScenes,duration_manipulation_targetAtFixation,jsons/v1_VE1000_randls_15.json,http://54.235.29.9/FacialAge/BNav_EC2/DepthDuration/v2_depth_duration_MTurk/v2_DepthDuration_HTML.html#133,133,1515,694,1364,768,8-22-2022,9-28-14,31,depth_duration_stimuli/001066_2014-06-08_22-03-20_260595134347_rgbf000066-resize_4/001066_2014-06-08_22-03-20_260595134347_rgbf000066-resize_4-target.png,1000,4.2330000000000005,33,2849,999,meters,jsons/v1_VE1000_randls_15.json,672858,788176,48,Woman
31,662848,DepthScenes,duration_manipulation_targetAtFixation,jsons/v1_VE1000_randls_15.json,http://54.235.29.9/FacialAge/BNav_EC2/DepthDuration/v2_depth_duration_MTurk/v2_DepthDuration_HTML.html#133,133,1515,694,1364,768,8-22-2022,9-28-14,32,depth_duration_stimuli/000742_2014-06-08_18-48-09_260595134347_rgbf000164-resize_4/000742_2014-06-08_18-48-09_260595134347_rgbf000164-resize_4-target.png,1000,4.632,22,3066,998,meters,jsons/v1_VE1000_randls_15.json,672858,788176,48,Woman
32,662848,DepthScenes,duration_manipulation_targetAtFixation,jsons/v1_VE1000_randls_15.json,http://54.235.29.9/FacialAge/BNav_EC2/DepthDuration/v2_depth_duration_MTurk/v2_DepthDuration_HTML.html#133,133,1515,694,1364,768,8-22-2022,9-28-14,33,depth_duration_stimuli/001806_2014-06-26_20-50-20_260595134347_rgbf000091-resize_1/001806_2014-06-26_20-50-20_260595134347_rgbf000091-resize_1-target.png,1000,2.7305,11,3528,999,meters,jsons/v1_VE1000_randls_15.json,672858,788176,48,Woman
33,662848,DepthScenes,duration_manipulation_targetAtFixation,jsons/v1_VE1000_randls_15.json,http://54.235.29.9/FacialAge/BNav_EC2/DepthDuration/v2_depth_duration_MTurk/v2_DepthDuration_HTML.html#133,133,1515,694,1364,768,8-22-2022,9-28-14,34,depth_duration_stimuli/001617_2014-06-20_11-35-32_260595134347_rgbf000066-resize_1/001617_2014-06-20_11-35-32_260595134347_rgbf000066-resize_1-target.png,1000,3.7910000000000004,22,2434,1007,meters,jsons/v1_VE1000_randls_15.json,672858,788176,48,Woman
34,662848,DepthScenes,duration_manipulation_targetAtFixation,jsons/v1_VE1000_randls_15.json,http://54.235.29.9/FacialAge/BNav_EC2/DepthDuration/v2_depth_duration_MTurk/v2_DepthDuration_HTML.html#133,133,1515,694,1364,768,8-22-2022,9-28-14,35,depth_duration_stimuli/002763_2014-06-22_19-13-10_094959634447_rgbf000075-resize_4/002763_2014-06-22_19-13-10_094959634447_rgbf000075-resize_4-target.png,1000,1.68375,22,2797,987,meters,jsons/v1_VE1000_randls_15.json,672858,788176,48,Woman
35,662848,DepthScenes,duration_manipulation_targetAtFixation,jsons/v1_VE1000_randls_15.json,http://54.235.29.9/FacialAge/BNav_EC2/DepthDuration/v2_depth_duration_MTurk/v2_DepthDuration_HTML.html#133,133,1515,694,1364,768,8-22-2022,9-28-14,36,depth_duration_stimuli/002209_2014-06-28_18-36-10_260595134347_rgbf000051-resize_1/002209_2014-06-28_18-36-10_260595134347_rgbf000051-resize_1-target.png,1000,2.057,33,2473,989,meters,jsons/v1_VE1000_randls_15.json,672858,788176,48,Woman
36,662848,DepthScenes,duration_manipulation_targetAtFixation,jsons/v1_VE1000_randls_15.json,http://54.235.29.9/FacialAge/BNav_EC2/DepthDuration/v2_depth_duration_MTurk/v2_DepthDuration_HTML.html#133,133,1515,694,1364,768,8-22-2022,9-28-14,37,depth_duration_stimuli/002905_2014-06-03_18-04-43_094959634447_rgbf000151-resize_2/002905_2014-06-03_18-04-43_094959634447_rgbf000151-resize_2-target.png,1000,2.0295,11,3426,996,meters,jsons/v1_VE1000_randls_15.json,672858,788176,48,Woman
37,662848,DepthScenes,duration_manipulation_targetAtFixation,jsons/v1_VE1000_randls_15.json,http://54.235.29.9/FacialAge/BNav_EC2/DepthDuration/v2_depth_duration_MTurk/v2_DepthDuration_HTML.html#133,133,1515,694,1364,768,8-22-2022,9-28-14,38,depth_duration_stimuli/003423_2014-05-21_10-23-26_094959634447_rgbf002665-resize_2/003423_2014-05-21_10-23-26_094959634447_rgbf002665-resize_2-target.png,1000,3.2575,22,4138,1005,meters,jsons/v1_VE1000_randls_15.json,672858,788176,48,Woman
38,662848,DepthScenes,duration_manipulation_targetAtFixation,jsons/v1_VE1000_randls_15.json,http://54.235.29.9/FacialAge/BNav_EC2/DepthDuration/v2_depth_duration_MTurk/v2_DepthDuration_HTML.html#133,133,1515,694,1364,768,8-22-2022,9-28-14,39,depth_duration_stimuli/001011_2014-06-08_23-18-54_260595134347_rgbf000044-resize_4/001011_2014-06-08_23-18-54_260595134347_rgbf000044-resize_4-target.png,1000,2.4730000000000003,33,2592,1012,meters,jsons/v1_VE1000_randls_15.json,672858,788176,48,Woman
39,662848,DepthScenes,duration_manipulation_targetAtFixation,jsons/v1_VE1000_randls_15.json,http://54.235.29.9/FacialAge/BNav_EC2/DepthDuration/v2_depth_duration_MTurk/v2_DepthDuration_HTML.html#133,133,1515,694,1364,768,8-22-2022,9-28-14,40,depth_duration_stimuli/002875_2014-06-01_15-19-00_094959634447_rgbf000151-resize_1/002875_2014-06-01_15-19-00_094959634447_rgbf000151-resize_1-target.png,1000,1.9675,22,3498,999,meters,jsons/v1_VE1000_randls_15.json,672858,788176,48,Woman
40,662848,DepthScenes,duration_manipulation_targetAtFixation,jsons/v1_VE1000_randls_15.json,http://54.235.29.9/FacialAge/BNav_EC2/DepthDuration/v2_depth_duration_MTurk/v2_DepthDuration_HTML.html#133,133,1515,694,1364,768,8-22-2022,9-28-14,41,depth_duration_stimuli/000414_2014-06-04_19-49-13_260595134347_rgbf000044-resize_0/000414_2014-06-04_19-49-13_260595134347_rgbf000044-resize_0-target.png,1000,4.329,11,2714,1000,meters,jsons/v1_VE1000_randls_15.json,672858,788176,48,Woman
41,662848,DepthScenes,duration_manipulation_targetAtFixation,jsons/v1_VE1000_randls_15.json,http://54.235.29.9/FacialAge/BNav_EC2/DepthDuration/v2_depth_duration_MTurk/v2_DepthDuration_HTML.html#133,133,1515,694,1364,768,8-22-2022,9-28-14,42,depth_duration_stimuli/003129_2014-05-12_10-48-10_094959634447_rgbf000100-resize_0/003129_2014-05-12_10-48-10_094959634447_rgbf000100-resize_0-target.png,1000,4.9305,22,2858,1007,meters,jsons/v1_VE1000_randls_15.json,672858,788176,48,Woman
42,662848,DepthScenes,duration_manipulation_targetAtFixation,jsons/v1_VE1000_randls_15.json,http://54.235.29.9/FacialAge/BNav_EC2/DepthDuration/v2_depth_duration_MTurk/v2_DepthDuration_HTML.html#133,133,1515,694,1364,768,8-22-2022,9-28-14,43,depth_duration_stimuli/000506_2014-06-08_23-21-00_260595134347_rgbf000070-resize_7/000506_2014-06-08_23-21-00_260595134347_rgbf000070-resize_7-target.png,1000,4.0585,33,2543,995,meters,jsons/v1_VE1000_randls_15.json,672858,788176,48,Woman
43,662848,DepthScenes,duration_manipulation_targetAtFixation,jsons/v1_VE1000_randls_15.json,http://54.235.29.9/FacialAge/BNav_EC2/DepthDuration/v2_depth_duration_MTurk/v2_DepthDuration_HTML.html#133,133,1515,694,1364,768,8-22-2022,9-28-14,44,depth_duration_stimuli/003079_2014-06-15_15-18-20_094959634447_rgbf000152-resize_8/003079_2014-06-15_15-18-20_094959634447_rgbf000152-resize_8-target.png,1000,2.8775,11,3584,1001,meters,jsons/v1_VE1000_randls_15.json,672858,788176,48,Woman
44,662848,DepthScenes,duration_manipulation_targetAtFixation,jsons/v1_VE1000_randls_15.json,http://54.235.29.9/FacialAge/BNav_EC2/DepthDuration/v2_depth_duration_MTurk/v2_DepthDuration_HTML.html#133,133,1515,694,1364,768,8-22-2022,9-28-14,45,depth_duration_stimuli/000787_2014-06-08_22-33-53_260595134347_rgbf000175-resize_1/000787_2014-06-08_22-33-53_260595134347_rgbf000175-resize-original.jpg,1000,4.784,22,2572,1002,meters,jsons/v1_VE1000_randls_15.json,672858,788176,48,Woman
45,662848,DepthScenes,duration_manipulation_targetAtFixation,jsons/v1_VE1000_randls_15.json,http://54.235.29.9/FacialAge/BNav_EC2/DepthDuration/v2_depth_duration_MTurk/v2_DepthDuration_HTML.html#133,133,1515,694,1364,768,8-22-2022,9-28-14,46,depth_duration_stimuli/001016_2014-06-09_16-16-10_260595134347_rgbf000112-resize_5/001016_2014-06-09_16-16-10_260595134347_rgbf000112-resize_5-target.png,1000,1.6565,22,2386,1008,meters,jsons/v1_VE1000_randls_15.json,672858,788176,48,Woman
46,662848,DepthScenes,duration_manipulation_targetAtFixation,jsons/v1_VE1000_randls_15.json,http://54.235.29.9/FacialAge/BNav_EC2/DepthDuration/v2_depth_duration_MTurk/v2_DepthDuration_HTML.html#133,133,1515,694,1364,768,8-22-2022,9-28-14,47,depth_duration_stimuli/002340_2014-06-28_20-05-46_260595134347_rgbf000113-resize_0/002340_2014-06-28_20-05-46_260595134347_rgbf000113-resize_0-target.png,1000,2.4735,22,2859,998,meters,jsons/v1_VE1000_randls_15.json,672858,788176,48,Woman
47,662848,DepthScenes,duration_manipulation_targetAtFixation,jsons/v1_VE1000_randls_15.json,http://54.235.29.9/FacialAge/BNav_EC2/DepthDuration/v2_depth_duration_MTurk/v2_DepthDuration_HTML.html#133,133,1515,694,1364,768,8-22-2022,9-28-14,48,depth_duration_stimuli/000368_2014-06-09_15-53-01_260595134347_rgbf000155-resize_2/000368_2014-06-09_15-53-01_260595134347_rgbf000155-resize_2-target.png,1000,2.4859999999999998,11,3354,999,meters,jsons/v1_VE1000_randls_15.json,672858,788176,48,Woman
48,662848,DepthScenes,duration_manipulation_targetAtFixation,jsons/v1_VE1000_randls_15.json,http://54.235.29.9/FacialAge/BNav_EC2/DepthDuration/v2_depth_duration_MTurk/v2_DepthDuration_HTML.html#133,133,1515,694,1364,768,8-22-2022,9-28-14,49,depth_duration_stimuli/002678_2014-06-13_16-15-32_094959634447_rgbf000151-resize_6/002678_2014-06-13_16-15-32_094959634447_rgbf000151-resize_6-target.png,1000,2.1830000000000003,22,3553,999,meters,jsons/v1_VE1000_randls_15.json,672858,788176,48,Woman
49,662848,DepthScenes,duration_manipulation_targetAtFixation,jsons/v1_VE1000_randls_15.json,http://54.235.29.9/FacialAge/BNav_EC2/DepthDuration/v2_depth_duration_MTurk/v2_DepthDuration_HTML.html#133,133,1515,694,1364,768,8-22-2022,9-28-14,50,depth_duration_stimuli/000917_2014-06-09_22-45-29_260595134347_rgbf000149-resize_3/000917_2014-06-09_22-45-29_260595134347_rgbf000149-resize_3-target.png,1000,4.1865,33,3394,998,meters,jsons/v1_VE1000_randls_15.json,672858,788176,48,Woman
50,662848,DepthScenes,duration_manipulation_targetAtFixation,jsons/v1_VE1000_randls_15.json,http://54.235.29.9/FacialAge/BNav_EC2/DepthDuration/v2_depth_duration_MTurk/v2_DepthDuration_HTML.html#133,133,1515,694,1364,768,8-22-2022,9-28-14,51,depth_duration_stimuli/002323_2014-06-28_20-01-54_260595134347_rgbf000051-resize_4/002323_2014-06-28_20-01-54_260595134347_rgbf000051-resize_4-target.png,1000,3.7310000000000003,22,2945,999,meters,jsons/v1_VE1000_randls_15.json,672858,788176,48,Woman
51,662848,DepthScenes,duration_manipulation_targetAtFixation,jsons/v1_VE1000_randls_15.json,http://54.235.29.9/FacialAge/BNav_EC2/DepthDuration/v2_depth_duration_MTurk/v2_DepthDuration_HTML.html#133,133,1515,694,1364,768,8-22-2022,9-28-14,52,depth_duration_stimuli/001150_2014-06-17_15-27-34_260595134347_rgbf000108-resize_2/001150_2014-06-17_15-27-34_260595134347_rgbf000108-resize_2-target.png,1000,4.0325,22,2747,998,meters,jsons/v1_VE1000_randls_15.json,672858,788176,48,Woman
52,662848,DepthScenes,duration_manipulation_targetAtFixation,jsons/v1_VE1000_randls_15.json,http://54.235.29.9/FacialAge/BNav_EC2/DepthDuration/v2_depth_duration_MTurk/v2_DepthDuration_HTML.html#133,133,1515,694,1364,768,8-22-2022,9-28-14,53,depth_duration_stimuli/000665_2014-06-09_20-42-35_260595134347_rgbf000110-resize_1/000665_2014-06-09_20-42-35_260595134347_rgbf000110-resize_1-target.png,1000,3.057,11,2567,934,meters,jsons/v1_VE1000_randls_15.json,672858,788176,48,Woman
53,662848,DepthScenes,duration_manipulation_targetAtFixation,jsons/v1_VE1000_randls_15.json,http://54.235.29.9/FacialAge/BNav_EC2/DepthDuration/v2_depth_duration_MTurk/v2_DepthDuration_HTML.html#133,133,1515,694,1364,768,8-22-2022,9-28-14,54,depth_duration_stimuli/001244_2014-06-17_16-47-45_260595134347_rgbf000030-resize_4/001244_2014-06-17_16-47-45_260595134347_rgbf000030-resize_4-target.png,1000,2.0425,22,2785,1000,meters,jsons/v1_VE1000_randls_15.json,672858,788176,48,Woman
54,662848,DepthScenes,duration_manipulation_targetAtFixation,jsons/v1_VE1000_randls_15.json,http://54.235.29.9/FacialAge/BNav_EC2/DepthDuration/v2_depth_duration_MTurk/v2_DepthDuration_HTML.html#133,133,1515,694,1364,768,8-22-2022,9-28-14,55,depth_duration_stimuli/003495_2014-05-21_16-01-51_094959634447_rgbf000100-resize_3/003495_2014-05-21_16-01-51_094959634447_rgbf000100-resize_3-target.png,1000,1.6255,11,2645,955,meters,jsons/v1_VE1000_randls_15.json,672858,788176,48,Woman
55,662848,DepthScenes,duration_manipulation_targetAtFixation,jsons/v1_VE1000_randls_15.json,http://54.235.29.9/FacialAge/BNav_EC2/DepthDuration/v2_depth_duration_MTurk/v2_DepthDuration_HTML.html#133,133,1515,694,1364,768,8-22-2022,9-28-14,56,depth_duration_stimuli/003534_2014-05-22_15-06-10_094959634447_rgbf000102-resize_4/003534_2014-05-22_15-06-10_094959634447_rgbf000102-resize_4-target.png,1000,1.426,22,2865,1001,meters,jsons/v1_VE1000_randls_15.json,672858,788176,48,Woman
56,662848,DepthScenes,duration_manipulation_targetAtFixation,jsons/v1_VE1000_randls_15.json,http://54.235.29.9/FacialAge/BNav_EC2/DepthDuration/v2_depth_duration_MTurk/v2_DepthDuration_HTML.html#133,133,1515,694,1364,768,8-22-2022,9-28-14,57,depth_duration_stimuli/002637_2014-06-24_14-51-13_094959634447_rgbf000066-resize_4/002637_2014-06-24_14-51-13_094959634447_rgbf000066-resize_4-target.png,1000,1.9955,11,3155,998,meters,jsons/v1_VE1000_randls_15.json,672858,788176,48,Woman
57,662848,DepthScenes,duration_manipulation_targetAtFixation,jsons/v1_VE1000_randls_15.json,http://54.235.29.9/FacialAge/BNav_EC2/DepthDuration/v2_depth_duration_MTurk/v2_DepthDuration_HTML.html#133,133,1515,694,1364,768,8-22-2022,9-28-14,58,depth_duration_stimuli/003621_2014-05-23_18-06-08_094959634447_rgbf000101-resize_1/003621_2014-05-23_18-06-08_094959634447_rgbf000101-resize_1-target.png,1000,3.9835,22,2490,998,meters,jsons/v1_VE1000_randls_15.json,672858,788176,48,Woman
58,662848,DepthScenes,duration_manipulation_targetAtFixation,jsons/v1_VE1000_randls_15.json,http://54.235.29.9/FacialAge/BNav_EC2/DepthDuration/v2_depth_duration_MTurk/v2_DepthDuration_HTML.html#133,133,1515,694,1364,768,8-22-2022,9-28-14,59,depth_duration_stimuli/001584_2014-06-20_11-07-43_260595134347_rgbf000002-resize_1/001584_2014-06-20_11-07-43_260595134347_rgbf000002-resize_1-target.png,1000,3.53,22,2565,999,meters,jsons/v1_VE1000_randls_15.json,672858,788176,48,Woman
59,662848,DepthScenes,duration_manipulation_targetAtFixation,jsons/v1_VE1000_randls_15.json,http://54.235.29.9/FacialAge/BNav_EC2/DepthDuration/v2_depth_duration_MTurk/v2_DepthDuration_HTML.html#133,133,1515,694,1364,768,8-22-2022,9-28-14,60,depth_duration_stimuli/000522_2014-06-08_13-35-06_260595134347_rgbf000244-resize_1/000522_2014-06-08_13-35-06_260595134347_rgbf000244-resize_1-target.png,1000,2.3715,11,2576,998,meters,jsons/v1_VE1000_randls_15.json,672858,788176,48,Woman
60,662848,DepthScenes,duration_manipulation_targetAtFixation,jsons/v1_VE1000_randls_15.json,http://54.235.29.9/FacialAge/BNav_EC2/DepthDuration/v2_depth_duration_MTurk/v2_DepthDuration_HTML.html#133,133,1515,694,1364,768,8-22-2022,9-28-14,61,depth_duration_stimuli/002949_2014-06-26_15-57-42_094959634447_rgbf000079-resize_1/002949_2014-06-26_15-57-42_094959634447_rgbf000079-resize_1-target.png,1000,1.8915,22,2641,1039,meters,jsons/v1_VE1000_randls_15.json,672858,788176,48,Woman
61,662848,DepthScenes,duration_manipulation_targetAtFixation,jsons/v1_VE1000_randls_15.json,http://54.235.29.9/FacialAge/BNav_EC2/DepthDuration/v2_depth_duration_MTurk/v2_DepthDuration_HTML.html#133,133,1515,694,1364,768,8-22-2022,9-28-14,62,depth_duration_stimuli/001055_2014-06-08_18-45-35_260595134347_rgbf000111-resize_4/001055_2014-06-08_18-45-35_260595134347_rgbf000111-resize_4-target.png,1000,2.4290000000000003,22,2556,998,meters,jsons/v1_VE1000_randls_15.json,672858,788176,48,Woman
62,662848,DepthScenes,duration_manipulation_targetAtFixation,jsons/v1_VE1000_randls_15.json,http://54.235.29.9/FacialAge/BNav_EC2/DepthDuration/v2_depth_duration_MTurk/v2_DepthDuration_HTML.html#133,133,1515,694,1364,768,8-22-2022,9-28-14,63,depth_duration_stimuli/000549_2014-06-08_22-10-24_260595134347_rgbf000247-resize_3/000549_2014-06-08_22-10-24_260595134347_rgbf000247-resize_3-target.png,1000,1.841,22,2485,996,meters,jsons/v1_VE1000_randls_15.json,672858,788176,48,Woman
63,662848,DepthScenes,duration_manipulation_targetAtFixation,jsons/v1_VE1000_randls_15.json,http://54.235.29.9/FacialAge/BNav_EC2/DepthDuration/v2_depth_duration_MTurk/v2_DepthDuration_HTML.html#133,133,1515,694,1364,768,8-22-2022,9-28-14,64,depth_duration_stimuli/001808_2014-06-26_20-50-58_260595134347_rgbf000029-resize_1/001808_2014-06-26_20-50-58_260595134347_rgbf000029-resize_1-target.png,1000,4.249,33,2420,999,meters,jsons/v1_VE1000_randls_15.json,672858,788176,48,Woman
64,662848,DepthScenes,duration_manipulation_targetAtFixation,jsons/v1_VE1000_randls_15.json,http://54.235.29.9/FacialAge/BNav_EC2/DepthDuration/v2_depth_duration_MTurk/v2_DepthDuration_HTML.html#133,133,1515,694,1364,768,8-22-2022,9-28-14,65,depth_duration_stimuli/001815_2014-06-26_20-52-55_260595134347_rgbf000020-resize_0/001815_2014-06-26_20-52-55_260595134347_rgbf000020-resize_0-target.png,1000,3.3865,11,2437,999,meters,jsons/v1_VE1000_randls_15.json,672858,788176,48,Woman
65,662848,DepthScenes,duration_manipulation_targetAtFixation,jsons/v1_VE1000_randls_15.json,http://54.235.29.9/FacialAge/BNav_EC2/DepthDuration/v2_depth_duration_MTurk/v2_DepthDuration_HTML.html#133,133,1515,694,1364,768,8-22-2022,9-28-14,66,depth_duration_stimuli/001222_2014-06-17_16-24-06_260595134347_rgbf000073-resize_0/001222_2014-06-17_16-24-06_260595134347_rgbf000073-resize-original.jpg,1000,1.4385,22,2197,920,meters,jsons/v1_VE1000_randls_15.json,672858,788176,48,Woman
66,662848,DepthScenes,duration_manipulation_targetAtFixation,jsons/v1_VE1000_randls_15.json,http://54.235.29.9/FacialAge/BNav_EC2/DepthDuration/v2_depth_duration_MTurk/v2_DepthDuration_HTML.html#133,133,1515,694,1364,768,8-22-2022,9-28-14,67,depth_duration_stimuli/002153_2014-06-25_21-27-18_260595134347_rgbf000038-resize_5/002153_2014-06-25_21-27-18_260595134347_rgbf000038-resize_5-target.png,1000,2.505,33,2289,859,meters,jsons/v1_VE1000_randls_15.json,672858,788176,48,Woman
67,662848,DepthScenes,duration_manipulation_targetAtFixation,jsons/v1_VE1000_randls_15.json,http://54.235.29.9/FacialAge/BNav_EC2/DepthDuration/v2_depth_duration_MTurk/v2_DepthDuration_HTML.html#133,133,1515,694,1364,768,8-22-2022,9-28-14,68,depth_duration_stimuli/002660_2014-06-13_15-44-18_094959634447_rgbf001878-resize_2/002660_2014-06-13_15-44-18_094959634447_rgbf001878-resize_2-target.png,1000,3.576,2,2264,1003,meters,jsons/v1_VE1000_randls_15.json,672858,788176,48,Woman
68,662848,DepthScenes,duration_manipulation_targetAtFixation,jsons/v1_VE1000_randls_15.json,http://54.235.29.9/FacialAge/BNav_EC2/DepthDuration/v2_depth_duration_MTurk/v2_DepthDuration_HTML.html#133,133,1515,694,1364,768,8-22-2022,9-28-14,69,depth_duration_stimuli/002509_2014-06-24_13-19-22_094959634447_rgbf000077-resize_0/002509_2014-06-24_13-19-22_094959634447_rgbf000077-resize_0-target.png,1000,1.3065,15,3115,999,meters,jsons/v1_VE1000_randls_15.json,672858,788176,48,Woman
69,662848,DepthScenes,duration_manipulation_targetAtFixation,jsons/v1_VE1000_randls_15.json,http://54.235.29.9/FacialAge/BNav_EC2/DepthDuration/v2_depth_duration_MTurk/v2_DepthDuration_HTML.html#133,133,1515,694,1364,768,8-22-2022,9-28-14,70,depth_duration_stimuli/003338_2014-05-20_11-01-23_094959634447_rgbf000051-resize_6/003338_2014-05-20_11-01-23_094959634447_rgbf000051-resize_6-target.png,1000,1.693,22,2822,994,meters,jsons/v1_VE1000_randls_15.json,672858,788176,48,Woman
70,662848,DepthScenes,duration_manipulation_targetAtFixation,jsons/v1_VE1000_randls_15.json,http://54.235.29.9/FacialAge/BNav_EC2/DepthDuration/v2_depth_duration_MTurk/v2_DepthDuration_HTML.html#133,133,1515,694,1364,768,8-22-2022,9-28-14,71,depth_duration_stimuli/003070_2014-06-15_14-58-27_094959634447_rgbf000150-resize_3/003070_2014-06-15_14-58-27_094959634447_rgbf000150-resize_3-target.png,1000,2.9415,21,3337,999,meters,jsons/v1_VE1000_randls_15.json,672858,788176,48,Woman
71,662848,DepthScenes,duration_manipulation_targetAtFixation,jsons/v1_VE1000_randls_15.json,http://54.235.29.9/FacialAge/BNav_EC2/DepthDuration/v2_depth_duration_MTurk/v2_DepthDuration_HTML.html#133,133,1515,694,1364,768,8-22-2022,9-28-14,72,depth_duration_stimuli/000943_2014-06-09_19-31-07_260595134347_rgbf000128-resize_1/000943_2014-06-09_19-31-07_260595134347_rgbf000128-resize_1-target.png,1000,1.9765,31,2852,1007,meters,jsons/v1_VE1000_randls_15.json,672858,788176,48,Woman
72,662848,DepthScenes,duration_manipulation_targetAtFixation,jsons/v1_VE1000_randls_15.json,http://54.235.29.9/FacialAge/BNav_EC2/DepthDuration/v2_depth_duration_MTurk/v2_DepthDuration_HTML.html#133,133,1515,694,1364,768,8-22-2022,9-28-14,73,depth_duration_stimuli/001555_2014-06-20_17-12-10_260595134347_rgbf000065-resize_4/001555_2014-06-20_17-12-10_260595134347_rgbf000065-resize_4-target.png,1000,1.633,22,2834,1002,meters,jsons/v1_VE1000_randls_15.json,672858,788176,48,Woman
73,662848,DepthScenes,duration_manipulation_targetAtFixation,jsons/v1_VE1000_randls_15.json,http://54.235.29.9/FacialAge/BNav_EC2/DepthDuration/v2_depth_duration_MTurk/v2_DepthDuration_HTML.html#133,133,1515,694,1364,768,8-22-2022,9-28-14,74,depth_duration_stimuli/000103_2014-05-14_22-01-17_260595134347_rgbf000152-resize_5/000103_2014-05-14_22-01-17_260595134347_rgbf000152-resize_5-target.png,1000,1.993,12,3120,999,meters,jsons/v1_VE1000_randls_15.json,672858,788176,48,Woman
74,662848,DepthScenes,duration_manipulation_targetAtFixation,jsons/v1_VE1000_randls_15.json,http://54.235.29.9/FacialAge/BNav_EC2/DepthDuration/v2_depth_duration_MTurk/v2_DepthDuration_HTML.html#133,133,1515,694,1364,768,8-22-2022,9-28-14,75,depth_duration_stimuli/000009_2014-05-26_14-32-05_260595134347_rgbf000034-resize_3/000009_2014-05-26_14-32-05_260595134347_rgbf000034-resize_3-target.png,1000,3.8715,321,2521,1008,meters,jsons/v1_VE1000_randls_15.json,672858,788176,48,Woman
75,662848,DepthScenes,duration_manipulation_targetAtFixation,jsons/v1_VE1000_randls_15.json,http://54.235.29.9/FacialAge/BNav_EC2/DepthDuration/v2_depth_duration_MTurk/v2_DepthDuration_HTML.html#133,133,1515,694,1364,768,8-22-2022,9-28-14,76,depth_duration_stimuli/001828_2014-06-26_21-40-03_260595134347_rgbf000024-resize_0/001828_2014-06-26_21-40-03_260595134347_rgbf000024-resize_0-target.png,1000,4.8260000000000005,22,2793,996,meters,jsons/v1_VE1000_randls_15.json,672858,788176,48,Woman
76,662848,DepthScenes,duration_manipulation_targetAtFixation,jsons/v1_VE1000_randls_15.json,http://54.235.29.9/FacialAge/BNav_EC2/DepthDuration/v2_depth_duration_MTurk/v2_DepthDuration_HTML.html#133,133,1515,694,1364,768,8-22-2022,9-28-14,77,depth_duration_stimuli/000642_2014-06-08_16-59-25_260595134347_rgbf000098-resize_2/000642_2014-06-08_16-59-25_260595134347_rgbf000098-resize_2-target.png,1000,2.8815,12,2893,1000,meters,jsons/v1_VE1000_randls_15.json,672858,788176,48,Woman
77,662848,DepthScenes,duration_manipulation_targetAtFixation,jsons/v1_VE1000_randls_15.json,http://54.235.29.9/FacialAge/BNav_EC2/DepthDuration/v2_depth_duration_MTurk/v2_DepthDuration_HTML.html#133,133,1515,694,1364,768,8-22-2022,9-28-14,78,depth_duration_stimuli/002425_2014-06-28_20-27-29_260595134347_rgbf000031-resize_8/002425_2014-06-28_20-27-29_260595134347_rgbf000031-resize_8-target.png,1000,3.8960000000000004,31,3234,1008,meters,jsons/v1_VE1000_randls_15.json,672858,788176,48,Woman
78,662848,DepthScenes,duration_manipulation_targetAtFixation,jsons/v1_VE1000_randls_15.json,http://54.235.29.9/FacialAge/BNav_EC2/DepthDuration/v2_depth_duration_MTurk/v2_DepthDuration_HTML.html#133,133,1515,694,1364,768,8-22-2022,9-28-14,79,depth_duration_stimuli/002630_2014-06-24_14-47-50_094959634447_rgbf000055-resize_1/002630_2014-06-24_14-47-50_094959634447_rgbf000055-resize_1-target.png,1000,3.0095,31,3643,1041,meters,jsons/v1_VE1000_randls_15.json,672858,788176,48,Woman
79,662848,DepthScenes,duration_manipulation_targetAtFixation,jsons/v1_VE1000_randls_15.json,http://54.235.29.9/FacialAge/BNav_EC2/DepthDuration/v2_depth_duration_MTurk/v2_DepthDuration_HTML.html#133,133,1515,694,1364,768,8-22-2022,9-28-14,80,depth_duration_stimuli/002758_2014-06-22_19-11-20_094959634447_rgbf000128-resize_1/002758_2014-06-22_19-11-20_094959634447_rgbf000128-resize_1-target.png,1000,2.555,31,2776,1000,meters,jsons/v1_VE1000_randls_15.json,672858,788176,48,Woman
80,662848,DepthScenes,duration_manipulation_targetAtFixation,jsons/v1_VE1000_randls_15.json,http://54.235.29.9/FacialAge/BNav_EC2/DepthDuration/v2_depth_duration_MTurk/v2_DepthDuration_HTML.html#133,133,1515,694,1364,768,8-22-2022,9-28-14,81,depth_duration_stimuli/001158_2014-06-17_15-32-16_260595134347_rgbf000138-resize_2/001158_2014-06-17_15-32-16_260595134347_rgbf000138-resize_2-target.png,1000,4.5315,13,2917,999,meters,jsons/v1_VE1000_randls_15.json,672858,788176,48,Woman
81,662848,DepthScenes,duration_manipulation_targetAtFixation,jsons/v1_VE1000_randls_15.json,http://54.235.29.9/FacialAge/BNav_EC2/DepthDuration/v2_depth_duration_MTurk/v2_DepthDuration_HTML.html#133,133,1515,694,1364,768,8-22-2022,9-28-14,82,depth_duration_stimuli/000556_2014-06-09_22-42-56_260595134347_rgbf000214-resize_1/000556_2014-06-09_22-42-56_260595134347_rgbf000214-resize_1-target.png,1000,4.8415,13,2784,998,meters,jsons/v1_VE1000_randls_15.json,672858,788176,48,Woman
82,662848,DepthScenes,duration_manipulation_targetAtFixation,jsons/v1_VE1000_randls_15.json,http://54.235.29.9/FacialAge/BNav_EC2/DepthDuration/v2_depth_duration_MTurk/v2_DepthDuration_HTML.html#133,133,1515,694,1364,768,8-22-2022,9-28-14,83,depth_duration_stimuli/001167_2014-06-17_15-38-07_260595134347_rgbf000108-resize_0/001167_2014-06-17_15-38-07_260595134347_rgbf000108-resize_0-target.png,1000,1.8505,22,2553,999,meters,jsons/v1_VE1000_randls_15.json,672858,788176,48,Woman
83,662848,DepthScenes,duration_manipulation_targetAtFixation,jsons/v1_VE1000_randls_15.json,http://54.235.29.9/FacialAge/BNav_EC2/DepthDuration/v2_depth_duration_MTurk/v2_DepthDuration_HTML.html#133,133,1515,694,1364,768,8-22-2022,9-28-14,84,depth_duration_stimuli/003587_2014-05-23_16-48-02_094959634447_rgbf002384-resize_2/003587_2014-05-23_16-48-02_094959634447_rgbf002384-resize_2-target.png,1000,1.357,33,2867,998,meters,jsons/v1_VE1000_randls_15.json,672858,788176,48,Woman
84,662848,DepthScenes,duration_manipulation_targetAtFixation,jsons/v1_VE1000_randls_15.json,http://54.235.29.9/FacialAge/BNav_EC2/DepthDuration/v2_depth_duration_MTurk/v2_DepthDuration_HTML.html#133,133,1515,694,1364,768,8-22-2022,9-28-14,85,depth_duration_stimuli/002725_2014-06-22_11-47-51_094959634447_rgbf000070-resize_1/002725_2014-06-22_11-47-51_094959634447_rgbf000070-resize_1-target.png,1000,2.195,33,2925,998,meters,jsons/v1_VE1000_randls_15.json,672858,788176,48,Woman
85,662848,DepthScenes,duration_manipulation_targetAtFixation,jsons/v1_VE1000_randls_15.json,http://54.235.29.9/FacialAge/BNav_EC2/DepthDuration/v2_depth_duration_MTurk/v2_DepthDuration_HTML.html#133,133,1515,694,1364,768,8-22-2022,9-28-14,86,depth_duration_stimuli/002344_2014-06-28_20-06-29_260595134347_rgbf000030-resize_1/002344_2014-06-28_20-06-29_260595134347_rgbf000030-resize_1-target.png,1000,1.5795,25,3062,988,meters,jsons/v1_VE1000_randls_15.json,672858,788176,48,Woman
86,662848,DepthScenes,duration_manipulation_targetAtFixation,jsons/v1_VE1000_randls_15.json,http://54.235.29.9/FacialAge/BNav_EC2/DepthDuration/v2_depth_duration_MTurk/v2_DepthDuration_HTML.html#133,133,1515,694,1364,768,8-22-2022,9-28-14,87,depth_duration_stimuli/000736_2014-06-08_18-24-15_260595134347_rgbf000206-resize_3/000736_2014-06-08_18-24-15_260595134347_rgbf000206-resize_3-target.png,1000,3.515,13,3157,996,meters,jsons/v1_VE1000_randls_15.json,672858,788176,48,Woman
87,662848,DepthScenes,duration_manipulation_targetAtFixation,jsons/v1_VE1000_randls_15.json,http://54.235.29.9/FacialAge/BNav_EC2/DepthDuration/v2_depth_duration_MTurk/v2_DepthDuration_HTML.html#133,133,1515,694,1364,768,8-22-2022,9-28-14,88,depth_duration_stimuli/000137_2014-05-20_17-04-49_260595134347_rgbf000120-resize_1/000137_2014-05-20_17-04-49_260595134347_rgbf000120-resize_1-target.png,1000,3.786,22,2671,999,meters,jsons/v1_VE1000_randls_15.json,672858,788176,48,Woman
88,662848,DepthScenes,duration_manipulation_targetAtFixation,jsons/v1_VE1000_randls_15.json,http://54.235.29.9/FacialAge/BNav_EC2/DepthDuration/v2_depth_duration_MTurk/v2_DepthDuration_HTML.html#133,133,1515,694,1364,768,8-22-2022,9-28-14,89,depth_duration_stimuli/000436_2014-06-09_22-25-11_260595134347_rgbf000137-resize_1/000436_2014-06-09_22-25-11_260595134347_rgbf000137-resize_1-target.png,1000,4.0705,33,2723,1006,meters,jsons/v1_VE1000_randls_15.json,672858,788176,48,Woman
89,662848,DepthScenes,duration_manipulation_targetAtFixation,jsons/v1_VE1000_randls_15.json,http://54.235.29.9/FacialAge/BNav_EC2/DepthDuration/v2_depth_duration_MTurk/v2_DepthDuration_HTML.html#133,133,1515,694,1364,768,8-22-2022,9-28-14,90,depth_duration_stimuli/002444_2014-06-28_20-32-08_260595134347_rgbf000027-resize_0/002444_2014-06-28_20-32-08_260595134347_rgbf000027-resize_0-target.png,1000,4.388999999999999,22,2610,1044,meters,jsons/v1_VE1000_randls_15.json,672858,788176,48,Woman
90,662848,DepthScenes,duration_manipulation_targetAtFixation,jsons/v1_VE1000_randls_15.json,http://54.235.29.9/FacialAge/BNav_EC2/DepthDuration/v2_depth_duration_MTurk/v2_DepthDuration_HTML.html#133,133,1515,694,1364,768,8-22-2022,9-28-14,91,depth_duration_stimuli/002600_2014-06-24_14-27-04_094959634447_rgbf000074-resize_2/002600_2014-06-24_14-27-04_094959634447_rgbf000074-resize_2-target.png,1000,2.7575,31,3189,1001,meters,jsons/v1_VE1000_randls_15.json,672858,788176,48,Woman
91,662848,DepthScenes,duration_manipulation_targetAtFixation,jsons/v1_VE1000_randls_15.json,http://54.235.29.9/FacialAge/BNav_EC2/DepthDuration/v2_depth_duration_MTurk/v2_DepthDuration_HTML.html#133,133,1515,694,1364,768,8-22-2022,9-28-14,92,depth_duration_stimuli/003228_2014-05-14_13-42-35_094959634447_rgbf000101-resize_1/003228_2014-05-14_13-42-35_094959634447_rgbf000101-resize_1-target.png,1000,1.9680000000000002,22,2511,999,meters,jsons/v1_VE1000_randls_15.json,672858,788176,48,Woman
92,662848,DepthScenes,duration_manipulation_targetAtFixation,jsons/v1_VE1000_randls_15.json,http://54.235.29.9/FacialAge/BNav_EC2/DepthDuration/v2_depth_duration_MTurk/v2_DepthDuration_HTML.html#133,133,1515,694,1364,768,8-22-2022,9-28-14,93,depth_duration_stimuli/000682_2014-06-08_23-14-58_260595134347_rgbf000041-resize_5/000682_2014-06-08_23-14-58_260595134347_rgbf000041-resize_5-target.png,1000,2.7239999999999998,33,3265,998,meters,jsons/v1_VE1000_randls_15.json,672858,788176,48,Woman
93,662848,DepthScenes,duration_manipulation_targetAtFixation,jsons/v1_VE1000_randls_15.json,http://54.235.29.9/FacialAge/BNav_EC2/DepthDuration/v2_depth_duration_MTurk/v2_DepthDuration_HTML.html#133,133,1515,694,1364,768,8-22-2022,9-28-14,94,depth_duration_stimuli/001650_2014-06-20_12-09-00_260595134347_rgbf000087-resize_3/001650_2014-06-20_12-09-00_260595134347_rgbf000087-resize_3-target.png,1000,1.9505,31,10363,1002,meters,jsons/v1_VE1000_randls_15.json,672858,788176,48,Woman
94,662848,DepthScenes,duration_manipulation_targetAtFixation,jsons/v1_VE1000_randls_15.json,http://54.235.29.9/FacialAge/BNav_EC2/DepthDuration/v2_depth_duration_MTurk/v2_DepthDuration_HTML.html#133,133,1515,694,1364,768,8-22-2022,9-28-14,95,depth_duration_stimuli/002445_2014-06-28_20-32-16_260595134347_rgbf000029-resize_4/002445_2014-06-28_20-32-16_260595134347_rgbf000029-resize_4-target.png,1000,2.5315,33,3066,1000,meters,jsons/v1_VE1000_randls_15.json,672858,788176,48,Woman
95,662848,DepthScenes,duration_manipulation_targetAtFixation,jsons/v1_VE1000_randls_15.json,http://54.235.29.9/FacialAge/BNav_EC2/DepthDuration/v2_depth_duration_MTurk/v2_DepthDuration_HTML.html#133,133,1515,694,1364,768,8-22-2022,9-28-14,96,depth_duration_stimuli/000780_2014-06-08_22-28-29_260595134347_rgbf000126-resize_1/000780_2014-06-08_22-28-29_260595134347_rgbf000126-resize_1-target.png,1000,3.3825,21,3371,999,meters,jsons/v1_VE1000_randls_15.json,672858,788176,48,Woman
96,662848,DepthScenes,duration_manipulation_targetAtFixation,jsons/v1_VE1000_randls_15.json,http://54.235.29.9/FacialAge/BNav_EC2/DepthDuration/v2_depth_duration_MTurk/v2_DepthDuration_HTML.html#133,133,1515,694,1364,768,8-22-2022,9-28-14,97,depth_duration_stimuli/000788_2014-06-08_22-34-36_260595134347_rgbf000131-resize_1/000788_2014-06-08_22-34-36_260595134347_rgbf000131-resize_1-target.png,1000,3.359,312,2850,999,meters,jsons/v1_VE1000_randls_15.json,672858,788176,48,Woman
97,662848,DepthScenes,duration_manipulation_targetAtFixation,jsons/v1_VE1000_randls_15.json,http://54.235.29.9/FacialAge/BNav_EC2/DepthDuration/v2_depth_duration_MTurk/v2_DepthDuration_HTML.html#133,133,1515,694,1364,768,8-22-2022,9-28-14,98,depth_duration_stimuli/001235_2014-06-17_16-37-36_260595134347_rgbf000084-resize_4/001235_2014-06-17_16-37-36_260595134347_rgbf000084-resize_4-target.png,1000,3.6605,22,10739,1005,meters,jsons/v1_VE1000_randls_15.json,672858,788176,48,Woman
98,662848,DepthScenes,duration_manipulation_targetAtFixation,jsons/v1_VE1000_randls_15.json,http://54.235.29.9/FacialAge/BNav_EC2/DepthDuration/v2_depth_duration_MTurk/v2_DepthDuration_HTML.html#133,133,1515,694,1364,768,8-22-2022,9-28-14,99,depth_duration_stimuli/001540_2014-06-20_17-01-05_260595134347_rgbf000086-resize_2/001540_2014-06-20_17-01-05_260595134347_rgbf000086-resize-original.jpg,1000,1.459,21,3431,996,meters,jsons/v1_VE1000_randls_15.json,672858,788176,48,Woman
99,662848,DepthScenes,duration_manipulation_targetAtFixation,jsons/v1_VE1000_randls_15.json,http://54.235.29.9/FacialAge/BNav_EC2/DepthDuration/v2_depth_duration_MTurk/v2_DepthDuration_HTML.html#133,133,1515,694,1364,768,8-22-2022,9-28-14,100,depth_duration_stimuli/000692_2014-06-08_13-09-42_260595134347_rgbf000199-resize_2/000692_2014-06-08_13-09-42_260595134347_rgbf000199-resize_2-target.png,1000,3.661,31,7656,1010,meters,jsons/v1_VE1000_randls_15.json,672858,788176,48,Woman
100,662848,DepthScenes,duration_manipulation_targetAtFixation,jsons/v1_VE1000_randls_15.json,http://54.235.29.9/FacialAge/BNav_EC2/DepthDuration/v2_depth_duration_MTurk/v2_DepthDuration_HTML.html#133,133,1515,694,1364,768,8-22-2022,9-28-14,101,depth_duration_stimuli/001094_2014-06-15_17-36-00_260595134347_rgbf000205-resize_0/001094_2014-06-15_17-36-00_260595134347_rgbf000205-resize_0-target.png,1000,4.2175,13,3224,1016,meters,jsons/v1_VE1000_randls_15.json,672858,788176,48,Woman
101,662848,DepthScenes,duration_manipulation_targetAtFixation,jsons/v1_VE1000_randls_15.json,http://54.235.29.9/FacialAge/BNav_EC2/DepthDuration/v2_depth_duration_MTurk/v2_DepthDuration_HTML.html#133,133,1515,694,1364,768,8-22-2022,9-28-14,102,depth_duration_stimuli/000810_2014-06-08_17-20-01_260595134347_rgbf000105-resize_0/000810_2014-06-08_17-20-01_260595134347_rgbf000105-resize_0-target.png,1000,1.4865,31,2902,988,meters,jsons/v1_VE1000_randls_15.json,672858,788176,48,Woman
102,662848,DepthScenes,duration_manipulation_targetAtFixation,jsons/v1_VE1000_randls_15.json,http://54.235.29.9/FacialAge/BNav_EC2/DepthDuration/v2_depth_duration_MTurk/v2_DepthDuration_HTML.html#133,133,1515,694,1364,768,8-22-2022,9-28-14,103,depth_duration_stimuli/001214_2014-06-17_16-13-55_260595134347_rgbf000111-resize_0/001214_2014-06-17_16-13-55_260595134347_rgbf000111-resize_0-target.png,1000,2.6505,22,2715,1007,meters,jsons/v1_VE1000_randls_15.json,672858,788176,48,Woman
103,662848,DepthScenes,duration_manipulation_targetAtFixation,jsons/v1_VE1000_randls_15.json,http://54.235.29.9/FacialAge/BNav_EC2/DepthDuration/v2_depth_duration_MTurk/v2_DepthDuration_HTML.html#133,133,1515,694,1364,768,8-22-2022,9-28-14,104,depth_duration_stimuli/003292_2014-05-14_21-53-49_094959634447_rgbf000100-resize_2/003292_2014-05-14_21-53-49_094959634447_rgbf000100-resize_2-target.png,1000,3.4815,20,12205,1003,meters,jsons/v1_VE1000_randls_15.json,672858,788176,48,Woman
104,662848,DepthScenes,duration_manipulation_targetAtFixation,jsons/v1_VE1000_randls_15.json,http://54.235.29.9/FacialAge/BNav_EC2/DepthDuration/v2_depth_duration_MTurk/v2_DepthDuration_HTML.html#133,133,1515,694,1364,768,8-22-2022,9-28-14,105,depth_duration_stimuli/002639_2014-06-24_14-51-37_094959634447_rgbf000074-resize_4/002639_2014-06-24_14-51-37_094959634447_rgbf000074-resize_4-target.png,1000,4.0375,10,4614,995,meters,jsons/v1_VE1000_randls_15.json,672858,788176,48,Woman
105,662848,DepthScenes,duration_manipulation_targetAtFixation,jsons/v1_VE1000_randls_15.json,http://54.235.29.9/FacialAge/BNav_EC2/DepthDuration/v2_depth_duration_MTurk/v2_DepthDuration_HTML.html#133,133,1515,694,1364,768,8-22-2022,9-28-14,106,depth_duration_stimuli/002118_2014-06-25_20-32-08_260595134347_rgbf000078-resize_1/002118_2014-06-25_20-32-08_260595134347_rgbf000078-resize_1-target.png,1000,2.6460000000000004,30,4762,1003,meters,jsons/v1_VE1000_randls_15.json,672858,788176,48,Woman
106,662848,DepthScenes,duration_manipulation_targetAtFixation,jsons/v1_VE1000_randls_15.json,http://54.235.29.9/FacialAge/BNav_EC2/DepthDuration/v2_depth_duration_MTurk/v2_DepthDuration_HTML.html#133,133,1515,694,1364,768,8-22-2022,9-28-14,107,depth_duration_stimuli/001516_2014-06-20_16-25-09_260595134347_rgbf000076-resize_2/001516_2014-06-20_16-25-09_260595134347_rgbf000076-resize_2-target.png,1000,1.7445,50,4434,1001,meters,jsons/v1_VE1000_randls_15.json,672858,788176,48,Woman
107,662848,DepthScenes,duration_manipulation_targetAtFixation,jsons/v1_VE1000_randls_15.json,http://54.235.29.9/FacialAge/BNav_EC2/DepthDuration/v2_depth_duration_MTurk/v2_DepthDuration_HTML.html#133,133,1515,694,1364,768,8-22-2022,9-28-14,108,depth_duration_stimuli/000469_2014-06-09_19-42-10_260595134347_rgbf000081-resize_1/000469_2014-06-09_19-42-10_260595134347_rgbf000081-resize_1-target.png,1000,1.652,40,4035,971,meters,jsons/v1_VE1000_randls_15.json,672858,788176,48,Woman
108,662848,DepthScenes,duration_manipulation_targetAtFixation,jsons/v1_VE1000_randls_15.json,http://54.235.29.9/FacialAge/BNav_EC2/DepthDuration/v2_depth_duration_MTurk/v2_DepthDuration_HTML.html#133,133,1515,694,1364,768,8-22-2022,9-28-14,109,depth_duration_stimuli/000483_2014-06-09_20-41-45_260595134347_rgbf000116-resize_4/000483_2014-06-09_20-41-45_260595134347_rgbf000116-resize_4-target.png,1000,1.337,60,4564,989,meters,jsons/v1_VE1000_randls_15.json,672858,788176,48,Woman
109,662848,DepthScenes,duration_manipulation_targetAtFixation,jsons/v1_VE1000_randls_15.json,http://54.235.29.9/FacialAge/BNav_EC2/DepthDuration/v2_depth_duration_MTurk/v2_DepthDuration_HTML.html#133,133,1515,694,1364,768,8-22-2022,9-28-14,110,depth_duration_stimuli/001056_2014-06-08_18-46-44_260595134347_rgbf000068-resize_0/001056_2014-06-08_18-46-44_260595134347_rgbf000068-resize_0-target.png,1000,2.6625,50,4215,998,meters,jsons/v1_VE1000_randls_15.json,672858,788176,48,Woman
110,662848,DepthScenes,duration_manipulation_targetAtFixation,jsons/v1_VE1000_randls_15.json,http://54.235.29.9/FacialAge/BNav_EC2/DepthDuration/v2_depth_duration_MTurk/v2_DepthDuration_HTML.html#133,133,1515,694,1364,768,8-22-2022,9-28-14,111,depth_duration_stimuli/002199_2014-06-28_18-33-56_260595134347_rgbf000074-resize_0/002199_2014-06-28_18-33-56_260595134347_rgbf000074-resize_0-target.png,1000,1.996,50,4082,984,meters,jsons/v1_VE1000_randls_15.json,672858,788176,48,Woman
111,662848,DepthScenes,duration_manipulation_targetAtFixation,jsons/v1_VE1000_randls_15.json,http://54.235.29.9/FacialAge/BNav_EC2/DepthDuration/v2_depth_duration_MTurk/v2_DepthDuration_HTML.html#133,133,1515,694,1364,768,8-22-2022,9-28-14,112,depth_duration_stimuli/000470_2014-06-09_19-42-40_260595134347_rgbf000094-resize_1/000470_2014-06-09_19-42-40_260595134347_rgbf000094-resize_1-target.png,1000,1.831,40,4069,996,meters,jsons/v1_VE1000_randls_15.json,672858,788176,48,Woman
112,662848,DepthScenes,duration_manipulation_targetAtFixation,jsons/v1_VE1000_randls_15.json,http://54.235.29.9/FacialAge/BNav_EC2/DepthDuration/v2_depth_duration_MTurk/v2_DepthDuration_HTML.html#133,133,1515,694,1364,768,8-22-2022,9-28-14,113,depth_duration_stimuli/000109_2014-05-14_23-41-52_260595134347_rgbf000035-resize_9/000109_2014-05-14_23-41-52_260595134347_rgbf000035-resize_9-target.png,1000,1.3545,40,4222,996,meters,jsons/v1_VE1000_randls_15.json,672858,788176,48,Woman
113,662848,DepthScenes,duration_manipulation_targetAtFixation,jsons/v1_VE1000_randls_15.json,http://54.235.29.9/FacialAge/BNav_EC2/DepthDuration/v2_depth_duration_MTurk/v2_DepthDuration_HTML.html#133,133,1515,694,1364,768,8-22-2022,9-28-14,114,depth_duration_stimuli/001059_2014-06-08_21-53-27_260595134347_rgbf000061-resize_4/001059_2014-06-08_21-53-27_260595134347_rgbf000061-resize_4-target.png,1000,2.4185,30,4201,1017,meters,jsons/v1_VE1000_randls_15.json,672858,788176,48,Woman
114,662848,DepthScenes,duration_manipulation_targetAtFixation,jsons/v1_VE1000_randls_15.json,http://54.235.29.9/FacialAge/BNav_EC2/DepthDuration/v2_depth_duration_MTurk/v2_DepthDuration_HTML.html#133,133,1515,694,1364,768,8-22-2022,9-28-14,115,depth_duration_stimuli/001032_2014-06-08_13-23-17_260595134347_rgbf000021-resize_3/001032_2014-06-08_13-23-17_260595134347_rgbf000021-resize_3-target.png,1000,3.2725,40,3658,1000,meters,jsons/v1_VE1000_randls_15.json,672858,788176,48,Woman
115,662848,DepthScenes,duration_manipulation_targetAtFixation,jsons/v1_VE1000_randls_15.json,http://54.235.29.9/FacialAge/BNav_EC2/DepthDuration/v2_depth_duration_MTurk/v2_DepthDuration_HTML.html#133,133,1515,694,1364,768,8-22-2022,9-28-14,116,depth_duration_stimuli/001170_2014-06-17_15-43-44_260595134347_rgbf000096-resize_6/001170_2014-06-17_15-43-44_260595134347_rgbf000096-resize-original.jpg,1000,1.1909999999999998,40,3628,1008,meters,jsons/v1_VE1000_randls_15.json,672858,788176,48,Woman
116,662848,DepthScenes,duration_manipulation_targetAtFixation,jsons/v1_VE1000_randls_15.json,http://54.235.29.9/FacialAge/BNav_EC2/DepthDuration/v2_depth_duration_MTurk/v2_DepthDuration_HTML.html#133,133,1515,694,1364,768,8-22-2022,9-28-14,117,depth_duration_stimuli/002549_2014-06-24_13-41-39_094959634447_rgbf000022-resize_3/002549_2014-06-24_13-41-39_094959634447_rgbf000022-resize_3-target.png,1000,1.476,40,4150,1014,meters,jsons/v1_VE1000_randls_15.json,672858,788176,48,Woman
117,662848,DepthScenes,duration_manipulation_targetAtFixation,jsons/v1_VE1000_randls_15.json,http://54.235.29.9/FacialAge/BNav_EC2/DepthDuration/v2_depth_duration_MTurk/v2_DepthDuration_HTML.html#133,133,1515,694,1364,768,8-22-2022,9-28-14,118,depth_duration_stimuli/002750_2014-06-22_19-08-03_094959634447_rgbf000094-resize_4/002750_2014-06-22_19-08-03_094959634447_rgbf000094-resize_4-target.png,1000,2.354,30,4157,992,meters,jsons/v1_VE1000_randls_15.json,672858,788176,48,Woman
118,662848,DepthScenes,duration_manipulation_targetAtFixation,jsons/v1_VE1000_randls_15.json,http://54.235.29.9/FacialAge/BNav_EC2/DepthDuration/v2_depth_duration_MTurk/v2_DepthDuration_HTML.html#133,133,1515,694,1364,768,8-22-2022,9-28-14,119,depth_duration_stimuli/001092_2014-06-15_17-34-58_260595134347_rgbf000171-resize_3/001092_2014-06-15_17-34-58_260595134347_rgbf000171-resize_3-target.png,1000,2.6935,20,3711,997,meters,jsons/v1_VE1000_randls_15.json,672858,788176,48,Woman
119,662848,DepthScenes,duration_manipulation_targetAtFixation,jsons/v1_VE1000_randls_15.json,http://54.235.29.9/FacialAge/BNav_EC2/DepthDuration/v2_depth_duration_MTurk/v2_DepthDuration_HTML.html#133,133,1515,694,1364,768,8-22-2022,9-28-14,120,depth_duration_stimuli/002545_2014-06-24_13-38-53_094959634447_rgbf000080-resize_4/002545_2014-06-24_13-38-53_094959634447_rgbf000080-resize_4-target.png,1000,1.9205,10,3572,999,meters,jsons/v1_VE1000_randls_15.json,672858,788176,48,Woman
120,662848,DepthScenes,duration_manipulation_targetAtFixation,jsons/v1_VE1000_randls_15.json,http://54.235.29.9/FacialAge/BNav_EC2/DepthDuration/v2_depth_duration_MTurk/v2_DepthDuration_HTML.html#133,133,1515,694,1364,768,8-22-2022,9-28-14,121,depth_duration_stimuli/001164_2014-06-17_15-35-46_260595134347_rgbf000085-resize_3/001164_2014-06-17_15-35-46_260595134347_rgbf000085-resize_3-target.png,1000,2.354,50,5020,995,meters,jsons/v1_VE1000_randls_15.json,672858,788176,48,Woman
121,662848,DepthScenes,duration_manipulation_targetAtFixation,jsons/v1_VE1000_randls_15.json,http://54.235.29.9/FacialAge/BNav_EC2/DepthDuration/v2_depth_duration_MTurk/v2_DepthDuration_HTML.html#133,133,1515,694,1364,768,8-22-2022,9-28-14,122,depth_duration_stimuli/001136_2014-06-17_15-19-41_260595134347_rgbf000076-resize_3/001136_2014-06-17_15-19-41_260595134347_rgbf000076-resize_3-target.png,1000,1.8655,60,4274,996,meters,jsons/v1_VE1000_randls_15.json,672858,788176,48,Woman
122,662848,DepthScenes,duration_manipulation_targetAtFixation,jsons/v1_VE1000_randls_15.json,http://54.235.29.9/FacialAge/BNav_EC2/DepthDuration/v2_depth_duration_MTurk/v2_DepthDuration_HTML.html#133,133,1515,694,1364,768,8-22-2022,9-28-14,123,depth_duration_stimuli/002043_2014-06-24_20-29-38_260595134347_rgbf000039-resize_4/002043_2014-06-24_20-29-38_260595134347_rgbf000039-resize_4-target.png,1000,2.8435,50,3846,993,meters,jsons/v1_VE1000_randls_15.json,672858,788176,48,Woman
123,662848,DepthScenes,duration_manipulation_targetAtFixation,jsons/v1_VE1000_randls_15.json,http://54.235.29.9/FacialAge/BNav_EC2/DepthDuration/v2_depth_duration_MTurk/v2_DepthDuration_HTML.html#133,133,1515,694,1364,768,8-22-2022,9-28-14,124,depth_duration_stimuli/003048_2014-06-15_13-49-43_094959634447_rgbf000150-resize_1/003048_2014-06-15_13-49-43_094959634447_rgbf000150-resize_1-target.png,1000,4.0035,80,4157,997,meters,jsons/v1_VE1000_randls_15.json,672858,788176,48,Woman
124,662848,DepthScenes,duration_manipulation_targetAtFixation,jsons/v1_VE1000_randls_15.json,http://54.235.29.9/FacialAge/BNav_EC2/DepthDuration/v2_depth_duration_MTurk/v2_DepthDuration_HTML.html#133,133,1515,694,1364,768,8-22-2022,9-28-14,125,depth_duration_stimuli/002039_2014-06-24_20-22-38_260595134347_rgbf000084-resize_1/002039_2014-06-24_20-22-38_260595134347_rgbf000084-resize_1-target.png,1000,4.408,60,4256,996,meters,jsons/v1_VE1000_randls_15.json,672858,788176,48,Woman
125,662848,DepthScenes,duration_manipulation_targetAtFixation,jsons/v1_VE1000_randls_15.json,http://54.235.29.9/FacialAge/BNav_EC2/DepthDuration/v2_depth_duration_MTurk/v2_DepthDuration_HTML.html#133,133,1515,694,1364,768,8-22-2022,9-28-14,126,depth_duration_stimuli/002103_2014-06-25_20-00-40_260595134347_rgbf000049-resize_0/002103_2014-06-25_20-00-40_260595134347_rgbf000049-resize_0-target.png,1000,4.105,40,3566,992,meters,jsons/v1_VE1000_randls_15.json,672858,788176,48,Woman
126,662848,DepthScenes,duration_manipulation_targetAtFixation,jsons/v1_VE1000_randls_15.json,http://54.235.29.9/FacialAge/BNav_EC2/DepthDuration/v2_depth_duration_MTurk/v2_DepthDuration_HTML.html#133,133,1515,694,1364,768,8-22-2022,9-28-14,127,depth_duration_stimuli/002213_2014-06-28_18-37-58_260595134347_rgbf000055-resize_1/002213_2014-06-28_18-37-58_260595134347_rgbf000055-resize_1-target.png,1000,3.62,40,3671,998,meters,jsons/v1_VE1000_randls_15.json,672858,788176,48,Woman
127,662848,DepthScenes,duration_manipulation_targetAtFixation,jsons/v1_VE1000_randls_15.json,http://54.235.29.9/FacialAge/BNav_EC2/DepthDuration/v2_depth_duration_MTurk/v2_DepthDuration_HTML.html#133,133,1515,694,1364,768,8-22-2022,9-28-14,128,depth_duration_stimuli/000691_2014-06-08_13-08-50_260595134347_rgbf000132-resize_3/000691_2014-06-08_13-08-50_260595134347_rgbf000132-resize_3-target.png,1000,4.1530000000000005,40,3842,999,meters,jsons/v1_VE1000_randls_15.json,672858,788176,48,Woman
128,662848,DepthScenes,duration_manipulation_targetAtFixation,jsons/v1_VE1000_randls_15.json,http://54.235.29.9/FacialAge/BNav_EC2/DepthDuration/v2_depth_duration_MTurk/v2_DepthDuration_HTML.html#133,133,1515,694,1364,768,8-22-2022,9-28-14,129,depth_duration_stimuli/000493_2014-06-09_21-01-18_260595134347_rgbf000196-resize_3/000493_2014-06-09_21-01-18_260595134347_rgbf000196-resize_3-target.png,1000,3.44,40,3574,998,meters,jsons/v1_VE1000_randls_15.json,672858,788176,48,Woman
129,662848,DepthScenes,duration_manipulation_targetAtFixation,jsons/v1_VE1000_randls_15.json,http://54.235.29.9/FacialAge/BNav_EC2/DepthDuration/v2_depth_duration_MTurk/v2_DepthDuration_HTML.html#133,133,1515,694,1364,768,8-22-2022,9-28-14,130,depth_duration_stimuli/000191_2014-05-12_17-07-38_260595134347_rgbf000199-resize_0/000191_2014-05-12_17-07-38_260595134347_rgbf000199-resize_0-target.png,1000,3.7995,410,3278,1014,meters,jsons/v1_VE1000_randls_15.json,672858,788176,48,Woman
130,662848,DepthScenes,duration_manipulation_targetAtFixation,jsons/v1_VE1000_randls_15.json,http://54.235.29.9/FacialAge/BNav_EC2/DepthDuration/v2_depth_duration_MTurk/v2_DepthDuration_HTML.html#133,133,1515,694,1364,768,8-22-2022,9-28-14,131,depth_duration_stimuli/000447_2014-06-08_16-15-46_260595134347_rgbf000130-resize_1/000447_2014-06-08_16-15-46_260595134347_rgbf000130-resize_1-target.png,1000,4.479,40,3521,1002,meters,jsons/v1_VE1000_randls_15.json,672858,788176,48,Woman
131,662848,DepthScenes,duration_manipulation_targetAtFixation,jsons/v1_VE1000_randls_15.json,http://54.235.29.9/FacialAge/BNav_EC2/DepthDuration/v2_depth_duration_MTurk/v2_DepthDuration_HTML.html#133,133,1515,694,1364,768,8-22-2022,9-28-14,132,depth_duration_stimuli/001447_2014-06-19_17-00-32_260595134347_rgbf000082-resize_5/001447_2014-06-19_17-00-32_260595134347_rgbf000082-resize_5-target.png,1000,4.13775,45,4291,1002,meters,jsons/v1_VE1000_randls_15.json,672858,788176,48,Woman
132,662848,DepthScenes,duration_manipulation_targetAtFixation,jsons/v1_VE1000_randls_15.json,http://54.235.29.9/FacialAge/BNav_EC2/DepthDuration/v2_depth_duration_MTurk/v2_DepthDuration_HTML.html#133,133,1515,694,1364,768,8-22-2022,9-28-14,133,depth_duration_stimuli/001133_2014-06-17_14-49-16_260595134347_rgbf000100-resize_0/001133_2014-06-17_14-49-16_260595134347_rgbf000100-resize_0-target.png,1000,4.2115,550,4399,991,meters,jsons/v1_VE1000_randls_15.json,672858,788176,48,Woman
133,662848,DepthScenes,duration_manipulation_targetAtFixation,jsons/v1_VE1000_randls_15.json,http://54.235.29.9/FacialAge/BNav_EC2/DepthDuration/v2_depth_duration_MTurk/v2_DepthDuration_HTML.html#133,133,1515,694,1364,768,8-22-2022,9-28-14,134,depth_duration_stimuli/001132_2014-06-17_14-48-54_260595134347_rgbf000100-resize_2/001132_2014-06-17_14-48-54_260595134347_rgbf000100-resize_2-target.png,1000,3.753,60,3526,999,meters,jsons/v1_VE1000_randls_15.json,672858,788176,48,Woman
134,662848,DepthScenes,duration_manipulation_targetAtFixation,jsons/v1_VE1000_randls_15.json,http://54.235.29.9/FacialAge/BNav_EC2/DepthDuration/v2_depth_duration_MTurk/v2_DepthDuration_HTML.html#133,133,1515,694,1364,768,8-22-2022,9-28-14,135,depth_duration_stimuli/002072_2014-06-24_21-48-06_260595134347_rgbf000115-resize_0/002072_2014-06-24_21-48-06_260595134347_rgbf000115-resize-original.jpg,1000,4.702,40,4257,999,meters,jsons/v1_VE1000_randls_15.json,672858,788176,48,Woman
135,662848,DepthScenes,duration_manipulation_targetAtFixation,jsons/v1_VE1000_randls_15.json,http://54.235.29.9/FacialAge/BNav_EC2/DepthDuration/v2_depth_duration_MTurk/v2_DepthDuration_HTML.html#133,133,1515,694,1364,768,8-22-2022,9-28-14,136,depth_duration_stimuli/000758_2014-06-08_22-05-08_260595134347_rgbf000085-resize_0/000758_2014-06-08_22-05-08_260595134347_rgbf000085-resize_0-target.png,1000,3.3810000000000002,60,5378,1017,meters,jsons/v1_VE1000_randls_15.json,672858,788176,48,Woman
136,662848,DepthScenes,duration_manipulation_targetAtFixation,jsons/v1_VE1000_randls_15.json,http://54.235.29.9/FacialAge/BNav_EC2/DepthDuration/v2_depth_duration_MTurk/v2_DepthDuration_HTML.html#133,133,1515,694,1364,768,8-22-2022,9-28-14,137,depth_duration_stimuli/000854_2014-06-09_19-43-13_260595134347_rgbf000066-resize_0/000854_2014-06-09_19-43-13_260595134347_rgbf000066-resize_0-target.png,1000,3.068,50,4011,1000,meters,jsons/v1_VE1000_randls_15.json,672858,788176,48,Woman
137,662848,DepthScenes,duration_manipulation_targetAtFixation,jsons/v1_VE1000_randls_15.json,http://54.235.29.9/FacialAge/BNav_EC2/DepthDuration/v2_depth_duration_MTurk/v2_DepthDuration_HTML.html#133,133,1515,694,1364,768,8-22-2022,9-28-14,138,depth_duration_stimuli/000878_2014-06-08_22-52-45_260595134347_rgbf000045-resize_2/000878_2014-06-08_22-52-45_260595134347_rgbf000045-resize_2-target.png,1000,2.092,80,5290,996,meters,jsons/v1_VE1000_randls_15.json,672858,788176,48,Woman
138,662848,DepthScenes,duration_manipulation_targetAtFixation,jsons/v1_VE1000_randls_15.json,http://54.235.29.9/FacialAge/BNav_EC2/DepthDuration/v2_depth_duration_MTurk/v2_DepthDuration_HTML.html#133,133,1515,694,1364,768,8-22-2022,9-28-14,139,depth_duration_stimuli/002953_2014-06-08_17-32-18_094959634447_rgbf000059-resize_5/002953_2014-06-08_17-32-18_094959634447_rgbf000059-resize_5-target.png,1000,1.551,50,4606,997,meters,jsons/v1_VE1000_randls_15.json,672858,788176,48,Woman
139,662848,DepthScenes,duration_manipulation_targetAtFixation,jsons/v1_VE1000_randls_15.json,http://54.235.29.9/FacialAge/BNav_EC2/DepthDuration/v2_depth_duration_MTurk/v2_DepthDuration_HTML.html#133,133,1515,694,1364,768,8-22-2022,9-28-14,140,depth_duration_stimuli/001449_2014-06-19_17-01-27_260595134347_rgbf000116-resize_2/001449_2014-06-19_17-01-27_260595134347_rgbf000116-resize_2-target.png,1000,3.452,40,4087,998,meters,jsons/v1_VE1000_randls_15.json,672858,788176,48,Woman
140,662848,DepthScenes,duration_manipulation_targetAtFixation,jsons/v1_VE1000_randls_15.json,http://54.235.29.9/FacialAge/BNav_EC2/DepthDuration/v2_depth_duration_MTurk/v2_DepthDuration_HTML.html#133,133,1515,694,1364,768,8-22-2022,9-28-14,141,depth_duration_stimuli/001450_2014-06-19_17-02-03_260595134347_rgbf000203-resize_4/001450_2014-06-19_17-02-03_260595134347_rgbf000203-resize_4-target.png,1000,4.0106666666667,50,4011,998,meters,jsons/v1_VE1000_randls_15.json,672858,788176,48,Woman
141,662848,DepthScenes,duration_manipulation_targetAtFixation,jsons/v1_VE1000_randls_15.json,http://54.235.29.9/FacialAge/BNav_EC2/DepthDuration/v2_depth_duration_MTurk/v2_DepthDuration_HTML.html#133,133,1515,694,1364,768,8-22-2022,9-28-14,142,depth_duration_stimuli/002570_2014-06-24_13-59-54_094959634447_rgbf000059-resize_0/002570_2014-06-24_13-59-54_094959634447_rgbf000059-resize_0-target.png,1000,4.037,50,3525,986,meters,jsons/v1_VE1000_randls_15.json,672858,788176,48,Woman
142,662848,DepthScenes,duration_manipulation_targetAtFixation,jsons/v1_VE1000_randls_15.json,http://54.235.29.9/FacialAge/BNav_EC2/DepthDuration/v2_depth_duration_MTurk/v2_DepthDuration_HTML.html#133,133,1515,694,1364,768,8-22-2022,9-28-14,143,depth_duration_stimuli/002467_2014-06-28_20-38-07_260595134347_rgbf000026-resize_2/002467_2014-06-28_20-38-07_260595134347_rgbf000026-resize_2-target.png,1000,4.742,60,4444,998,meters,jsons/v1_VE1000_randls_15.json,672858,788176,48,Woman
143,662848,DepthScenes,duration_manipulation_targetAtFixation,jsons/v1_VE1000_randls_15.json,http://54.235.29.9/FacialAge/BNav_EC2/DepthDuration/v2_depth_duration_MTurk/v2_DepthDuration_HTML.html#133,133,1515,694,1364,768,8-22-2022,9-28-14,144,depth_duration_stimuli/000929_2014-06-09_16-33-19_260595134347_rgbf000139-resize_0/000929_2014-06-09_16-33-19_260595134347_rgbf000139-resize_0-target.png,1000,2.8680000000000003,40,3373,999,meters,jsons/v1_VE1000_randls_15.json,672858,788176,48,Woman
144,662848,DepthScenes,duration_manipulation_targetAtFixation,jsons/v1_VE1000_randls_15.json,http://54.235.29.9/FacialAge/BNav_EC2/DepthDuration/v2_depth_duration_MTurk/v2_DepthDuration_HTML.html#133,133,1515,694,1364,768,8-22-2022,9-28-14,145,depth_duration_stimuli/000457_2014-06-08_16-52-43_260595134347_rgbf000199-resize_1/000457_2014-06-08_16-52-43_260595134347_rgbf000199-resize_1-target.png,1000,3.6489999999999996,40,3378,998,meters,jsons/v1_VE1000_randls_15.json,672858,788176,48,Woman
145,662848,DepthScenes,duration_manipulation_targetAtFixation,jsons/v1_VE1000_randls_15.json,http://54.235.29.9/FacialAge/BNav_EC2/DepthDuration/v2_depth_duration_MTurk/v2_DepthDuration_HTML.html#133,133,1515,694,1364,768,8-22-2022,9-28-14,146,depth_duration_stimuli/001498_2014-06-19_17-45-14_260595134347_rgbf000129-resize_4/001498_2014-06-19_17-45-14_260595134347_rgbf000129-resize-original.jpg,1000,1.4075,80,4126,997,meters,jsons/v1_VE1000_randls_15.json,672858,788176,48,Woman
146,662848,DepthScenes,duration_manipulation_targetAtFixation,jsons/v1_VE1000_randls_15.json,http://54.235.29.9/FacialAge/BNav_EC2/DepthDuration/v2_depth_duration_MTurk/v2_DepthDuration_HTML.html#133,133,1515,694,1364,768,8-22-2022,9-28-14,147,depth_duration_stimuli/001029_2014-06-08_13-17-57_260595134347_rgbf000065-resize_1/001029_2014-06-08_13-17-57_260595134347_rgbf000065-resize_1-target.png,1000,3.0835,40,4354,996,meters,jsons/v1_VE1000_randls_15.json,672858,788176,48,Woman
147,662848,DepthScenes,duration_manipulation_targetAtFixation,jsons/v1_VE1000_randls_15.json,http://54.235.29.9/FacialAge/BNav_EC2/DepthDuration/v2_depth_duration_MTurk/v2_DepthDuration_HTML.html#133,133,1515,694,1364,768,8-22-2022,9-28-14,148,depth_duration_stimuli/000677_2014-06-08_23-10-32_260595134347_rgbf000158-resize_6/000677_2014-06-08_23-10-32_260595134347_rgbf000158-resize_6-target.png,1000,3.556,250,5876,996,meters,jsons/v1_VE1000_randls_15.json,672858,788176,48,Woman
148,662848,DepthScenes,duration_manipulation_targetAtFixation,jsons/v1_VE1000_randls_15.json,http://54.235.29.9/FacialAge/BNav_EC2/DepthDuration/v2_depth_duration_MTurk/v2_DepthDuration_HTML.html#133,133,1515,694,1364,768,8-22-2022,9-28-14,149,depth_duration_stimuli/002788_2014-06-22_19-36-03_094959634447_rgbf000088-resize_2/002788_2014-06-22_19-36-03_094959634447_rgbf000088-resize_2-target.png,1000,1.6465,30,6615,997,meters,jsons/v1_VE1000_randls_15.json,672858,788176,48,Woman
149,662848,DepthScenes,duration_manipulation_targetAtFixation,jsons/v1_VE1000_randls_15.json,http://54.235.29.9/FacialAge/BNav_EC2/DepthDuration/v2_depth_duration_MTurk/v2_DepthDuration_HTML.html#133,133,1515,694,1364,768,8-22-2022,9-28-14,150,depth_duration_stimuli/000749_2014-06-08_21-55-06_260595134347_rgbf000070-resize_2/000749_2014-06-08_21-55-06_260595134347_rgbf000070-resize_2-target.png,1000,2.331,80,4584,988,meters,jsons/v1_VE1000_randls_15.json,672858,788176,48,Woman
150,662848,DepthScenes,duration_manipulation_targetAtFixation,jsons/v1_VE1000_randls_15.json,http://54.235.29.9/FacialAge/BNav_EC2/DepthDuration/v2_depth_duration_MTurk/v2_DepthDuration_HTML.html#133,133,1515,694,1364,768,8-22-2022,9-28-14,151,depth_duration_stimuli/000739_2014-06-08_18-45-58_260595134347_rgbf000068-resize_1/000739_2014-06-08_18-45-58_260595134347_rgbf000068-resize_1-target.png,1000,3.534,50,11618,998,meters,jsons/v1_VE1000_randls_15.json,672858,788176,48,Woman
151,662848,DepthScenes,duration_manipulation_targetAtFixation,jsons/v1_VE1000_randls_15.json,http://54.235.29.9/FacialAge/BNav_EC2/DepthDuration/v2_depth_duration_MTurk/v2_DepthDuration_HTML.html#133,133,1515,694,1364,768,8-22-2022,9-28-14,152,depth_duration_stimuli/000734_2014-06-08_17-39-11_260595134347_rgbf000128-resize_2/000734_2014-06-08_17-39-11_260595134347_rgbf000128-resize_2-target.png,1000,4.098,50,4558,991,meters,jsons/v1_VE1000_randls_15.json,672858,788176,48,Woman
152,662848,DepthScenes,duration_manipulation_targetAtFixation,jsons/v1_VE1000_randls_15.json,http://54.235.29.9/FacialAge/BNav_EC2/DepthDuration/v2_depth_duration_MTurk/v2_DepthDuration_HTML.html#133,133,1515,694,1364,768,8-22-2022,9-28-14,153,depth_duration_stimuli/002784_2014-06-22_19-26-30_094959634447_rgbf000083-resize_3/002784_2014-06-22_19-26-30_094959634447_rgbf000083-resize_3-target.png,1000,1.8046666666667,30,4306,998,meters,jsons/v1_VE1000_randls_15.json,672858,788176,48,Woman
153,662848,DepthScenes,duration_manipulation_targetAtFixation,jsons/v1_VE1000_randls_15.json,http://54.235.29.9/FacialAge/BNav_EC2/DepthDuration/v2_depth_duration_MTurk/v2_DepthDuration_HTML.html#133,133,1515,694,1364,768,8-22-2022,9-28-14,154,depth_duration_stimuli/001100_2014-06-15_17-46-26_260595134347_rgbf000225-resize_2/001100_2014-06-15_17-46-26_260595134347_rgbf000225-resize_2-target.png,1000,2.24,40,4540,999,meters,jsons/v1_VE1000_randls_15.json,672858,788176,48,Woman
154,662848,DepthScenes,duration_manipulation_targetAtFixation,jsons/v1_VE1000_randls_15.json,http://54.235.29.9/FacialAge/BNav_EC2/DepthDuration/v2_depth_duration_MTurk/v2_DepthDuration_HTML.html#133,133,1515,694,1364,768,8-22-2022,9-28-14,155,depth_duration_stimuli/001570_2014-06-20_17-21-09_260595134347_rgbf000135-resize_4/001570_2014-06-20_17-21-09_260595134347_rgbf000135-resize_4-target.png,1000,4.467,30,6002,980,meters,jsons/v1_VE1000_randls_15.json,672858,788176,48,Woman
155,662848,DepthScenes,duration_manipulation_targetAtFixation,jsons/v1_VE1000_randls_15.json,http://54.235.29.9/FacialAge/BNav_EC2/DepthDuration/v2_depth_duration_MTurk/v2_DepthDuration_HTML.html#133,133,1515,694,1364,768,8-22-2022,9-28-14,156,depth_duration_stimuli/001392_2014-06-19_16-07-59_260595134347_rgbf000046-resize_1/001392_2014-06-19_16-07-59_260595134347_rgbf000046-resize_1-target.png,1000,4.135,50,4732,985,meters,jsons/v1_VE1000_randls_15.json,672858,788176,48,Woman
156,662848,DepthScenes,duration_manipulation_targetAtFixation,jsons/v1_VE1000_randls_15.json,http://54.235.29.9/FacialAge/BNav_EC2/DepthDuration/v2_depth_duration_MTurk/v2_DepthDuration_HTML.html#133,133,1515,694,1364,768,8-22-2022,9-28-14,157,depth_duration_stimuli/000906_2014-06-08_13-35-43_260595134347_rgbf000155-resize_1/000906_2014-06-08_13-35-43_260595134347_rgbf000155-resize_1-target.png,1000,2.8489999999999998,40,3880,922,meters,jsons/v1_VE1000_randls_15.json,672858,788176,48,Woman
157,662848,DepthScenes,duration_manipulation_targetAtFixation,jsons/v1_VE1000_randls_15.json,http://54.235.29.9/FacialAge/BNav_EC2/DepthDuration/v2_depth_duration_MTurk/v2_DepthDuration_HTML.html#133,133,1515,694,1364,768,8-22-2022,9-28-14,158,depth_duration_stimuli/002805_2014-06-22_19-54-03_094959634447_rgbf000079-resize_1/002805_2014-06-22_19-54-03_094959634447_rgbf000079-resize_1-target.png,1000,3.1439999999999997,30,5126,1006,meters,jsons/v1_VE1000_randls_15.json,672858,788176,48,Woman
158,662848,DepthScenes,duration_manipulation_targetAtFixation,jsons/v1_VE1000_randls_15.json,http://54.235.29.9/FacialAge/BNav_EC2/DepthDuration/v2_depth_duration_MTurk/v2_DepthDuration_HTML.html#133,133,1515,694,1364,768,8-22-2022,9-28-14,159,depth_duration_stimuli/001175_2014-06-17_15-45-55_260595134347_rgbf000129-resize_4/001175_2014-06-17_15-45-55_260595134347_rgbf000129-resize_4-target.png,1000,4.255,50,5102,1011,meters,jsons/v1_VE1000_randls_15.json,672858,788176,48,Woman
159,662848,DepthScenes,duration_manipulation_targetAtFixation,jsons/v1_VE1000_randls_15.json,http://54.235.29.9/FacialAge/BNav_EC2/DepthDuration/v2_depth_duration_MTurk/v2_DepthDuration_HTML.html#133,133,1515,694,1364,768,8-22-2022,9-28-14,160,depth_duration_stimuli/003490_2014-05-21_15-50-11_094959634447_rgbf000101-resize_3/003490_2014-05-21_15-50-11_094959634447_rgbf000101-resize_3-target.png,1000,3.6445,40,4373,994,meters,jsons/v1_VE1000_randls_15.json,672858,788176,48,Woman
160,662848,DepthScenes,duration_manipulation_targetAtFixation,jsons/v1_VE1000_randls_15.json,http://54.235.29.9/FacialAge/BNav_EC2/DepthDuration/v2_depth_duration_MTurk/v2_DepthDuration_HTML.html#133,133,1515,694,1364,768,8-22-2022,9-28-14,161,depth_duration_stimuli/002057_2014-06-24_21-00-13_260595134347_rgbf000120-resize_1/002057_2014-06-24_21-00-13_260595134347_rgbf000120-resize_1-target.png,1000,2.967,40,5256,997,meters,jsons/v1_VE1000_randls_15.json,672858,788176,48,Woman
161,662848,DepthScenes,duration_manipulation_targetAtFixation,jsons/v1_VE1000_randls_15.json,http://54.235.29.9/FacialAge/BNav_EC2/DepthDuration/v2_depth_duration_MTurk/v2_DepthDuration_HTML.html#133,133,1515,694,1364,768,8-22-2022,9-28-14,162,depth_duration_stimuli/000709_2014-06-08_13-51-55_260595134347_rgbf000068-resize_3/000709_2014-06-08_13-51-55_260595134347_rgbf000068-resize_3-target.png,1000,1.8030000000000002,30,4428,995,meters,jsons/v1_VE1000_randls_15.json,672858,788176,48,Woman
162,662848,DepthScenes,duration_manipulation_targetAtFixation,jsons/v1_VE1000_randls_15.json,http://54.235.29.9/FacialAge/BNav_EC2/DepthDuration/v2_depth_duration_MTurk/v2_DepthDuration_HTML.html#133,133,1515,694,1364,768,8-22-2022,9-28-14,163,depth_duration_stimuli/002663_2014-06-13_15-50-26_094959634447_rgbf000075-resize_1/002663_2014-06-13_15-50-26_094959634447_rgbf000075-resize_1-target.png,1000,4.7495,40,3614,1000,meters,jsons/v1_VE1000_randls_15.json,672858,788176,48,Woman
163,662848,DepthScenes,duration_manipulation_targetAtFixation,jsons/v1_VE1000_randls_15.json,http://54.235.29.9/FacialAge/BNav_EC2/DepthDuration/v2_depth_duration_MTurk/v2_DepthDuration_HTML.html#133,133,1515,694,1364,768,8-22-2022,9-28-14,164,depth_duration_stimuli/000409_2014-06-04_19-23-33_260595134347_rgbf000067-resize_0/000409_2014-06-04_19-23-33_260595134347_rgbf000067-resize_0-target.png,1000,3.7335,40,4268,993,meters,jsons/v1_VE1000_randls_15.json,672858,788176,48,Woman
