,subjID,experimentName,versionName,sequenceName,url,selected_row,windowWidth,windowHeight,screenWidth,screenHeight,startDate,startTime,trial,stimulus,duration,actual_depth,depth_estimate,trial_RT,log_sceneDuration,unitSelection,seq_filepath,experimentTime,totalTime,age,gender
0,664589,DepthScenes,duration_manipulation_targetAtFixation,jsons/v1_VE1000_randls_71.json,http://54.235.29.9/FacialAge/BNav_EC2/DepthDuration/v2_depth_duration_MTurk/v2_DepthDuration_HTML.html#72,72,1920,1080,1920,1080,8-22-2022,8-4-52,1,depth_duration_stimuli/002549_2014-06-24_13-41-39_094959634447_rgbf000022-resize_3/002549_2014-06-24_13-41-39_094959634447_rgbf000022-resize_3-target.png,1000,1.476,3,5405,1001,feet,jsons/v1_VE1000_randls_71.json,627201,941979,55,Man
1,664589,DepthScenes,duration_manipulation_targetAtFixation,jsons/v1_VE1000_randls_71.json,http://54.235.29.9/FacialAge/BNav_EC2/DepthDuration/v2_depth_duration_MTurk/v2_DepthDuration_HTML.html#72,72,1920,1080,1920,1080,8-22-2022,8-4-52,2,depth_duration_stimuli/002750_2014-06-22_19-08-03_094959634447_rgbf000094-resize_4/002750_2014-06-22_19-08-03_094959634447_rgbf000094-resize_4-target.png,1000,2.354,10,6188,1001,feet,jsons/v1_VE1000_randls_71.json,627201,941979,55,Man
2,664589,DepthScenes,duration_manipulation_targetAtFixation,jsons/v1_VE1000_randls_71.json,http://54.235.29.9/FacialAge/BNav_EC2/DepthDuration/v2_depth_duration_MTurk/v2_DepthDuration_HTML.html#72,72,1920,1080,1920,1080,8-22-2022,8-4-52,3,depth_duration_stimuli/000917_2014-06-09_22-45-29_260595134347_rgbf000149-resize_3/000917_2014-06-09_22-45-29_260595134347_rgbf000149-resize_3-target.png,1000,4.1865,15,7654,999,feet,jsons/v1_VE1000_randls_71.json,627201,941979,55,Man
3,664589,DepthScenes,duration_manipulation_targetAtFixation,jsons/v1_VE1000_randls_71.json,http://54.235.29.9/FacialAge/BNav_EC2/DepthDuration/v2_depth_duration_MTurk/v2_DepthDuration_HTML.html#72,72,1920,1080,1920,1080,8-22-2022,8-4-52,4,depth_duration_stimuli/002323_2014-06-28_20-01-54_260595134347_rgbf000051-resize_4/002323_2014-06-28_20-01-54_260595134347_rgbf000051-resize_4-target.png,1000,3.7310000000000003,12,6658,1000,feet,jsons/v1_VE1000_randls_71.json,627201,941979,55,Man
4,664589,DepthScenes,duration_manipulation_targetAtFixation,jsons/v1_VE1000_randls_71.json,http://54.235.29.9/FacialAge/BNav_EC2/DepthDuration/v2_depth_duration_MTurk/v2_DepthDuration_HTML.html#72,72,1920,1080,1920,1080,8-22-2022,8-4-52,5,depth_duration_stimuli/001150_2014-06-17_15-27-34_260595134347_rgbf000108-resize_2/001150_2014-06-17_15-27-34_260595134347_rgbf000108-resize_2-target.png,1000,4.0325,17,6887,1000,feet,jsons/v1_VE1000_randls_71.json,627201,941979,55,Man
5,664589,DepthScenes,duration_manipulation_targetAtFixation,jsons/v1_VE1000_randls_71.json,http://54.235.29.9/FacialAge/BNav_EC2/DepthDuration/v2_depth_duration_MTurk/v2_DepthDuration_HTML.html#72,72,1920,1080,1920,1080,8-22-2022,8-4-52,6,depth_duration_stimuli/000665_2014-06-09_20-42-35_260595134347_rgbf000110-resize_1/000665_2014-06-09_20-42-35_260595134347_rgbf000110-resize_1-target.png,1000,3.057,10,5890,1001,feet,jsons/v1_VE1000_randls_71.json,627201,941979,55,Man
6,664589,DepthScenes,duration_manipulation_targetAtFixation,jsons/v1_VE1000_randls_71.json,http://54.235.29.9/FacialAge/BNav_EC2/DepthDuration/v2_depth_duration_MTurk/v2_DepthDuration_HTML.html#72,72,1920,1080,1920,1080,8-22-2022,8-4-52,7,depth_duration_stimuli/003621_2014-05-23_18-06-08_094959634447_rgbf000101-resize_1/003621_2014-05-23_18-06-08_094959634447_rgbf000101-resize_1-target.png,1000,3.9835,18,8340,1000,feet,jsons/v1_VE1000_randls_71.json,627201,941979,55,Man
7,664589,DepthScenes,duration_manipulation_targetAtFixation,jsons/v1_VE1000_randls_71.json,http://54.235.29.9/FacialAge/BNav_EC2/DepthDuration/v2_depth_duration_MTurk/v2_DepthDuration_HTML.html#72,72,1920,1080,1920,1080,8-22-2022,8-4-52,8,depth_duration_stimuli/001584_2014-06-20_11-07-43_260595134347_rgbf000002-resize_1/001584_2014-06-20_11-07-43_260595134347_rgbf000002-resize_1-target.png,1000,3.53,12,6194,999,feet,jsons/v1_VE1000_randls_71.json,627201,941979,55,Man
8,664589,DepthScenes,duration_manipulation_targetAtFixation,jsons/v1_VE1000_randls_71.json,http://54.235.29.9/FacialAge/BNav_EC2/DepthDuration/v2_depth_duration_MTurk/v2_DepthDuration_HTML.html#72,72,1920,1080,1920,1080,8-22-2022,8-4-52,9,depth_duration_stimuli/001092_2014-06-15_17-34-58_260595134347_rgbf000171-resize_3/001092_2014-06-15_17-34-58_260595134347_rgbf000171-resize_3-target.png,1000,2.6935,8,6410,999,feet,jsons/v1_VE1000_randls_71.json,627201,941979,55,Man
9,664589,DepthScenes,duration_manipulation_targetAtFixation,jsons/v1_VE1000_randls_71.json,http://54.235.29.9/FacialAge/BNav_EC2/DepthDuration/v2_depth_duration_MTurk/v2_DepthDuration_HTML.html#72,72,1920,1080,1920,1080,8-22-2022,8-4-52,10,depth_duration_stimuli/002545_2014-06-24_13-38-53_094959634447_rgbf000080-resize_4/002545_2014-06-24_13-38-53_094959634447_rgbf000080-resize_4-target.png,1000,1.9205,6,5738,1000,feet,jsons/v1_VE1000_randls_71.json,627201,941979,55,Man
10,664589,DepthScenes,duration_manipulation_targetAtFixation,jsons/v1_VE1000_randls_71.json,http://54.235.29.9/FacialAge/BNav_EC2/DepthDuration/v2_depth_duration_MTurk/v2_DepthDuration_HTML.html#72,72,1920,1080,1920,1080,8-22-2022,8-4-52,11,depth_duration_stimuli/002039_2014-06-24_20-22-38_260595134347_rgbf000084-resize_1/002039_2014-06-24_20-22-38_260595134347_rgbf000084-resize_1-target.png,1000,4.408,15,6586,1000,feet,jsons/v1_VE1000_randls_71.json,627201,941979,55,Man
11,664589,DepthScenes,duration_manipulation_targetAtFixation,jsons/v1_VE1000_randls_71.json,http://54.235.29.9/FacialAge/BNav_EC2/DepthDuration/v2_depth_duration_MTurk/v2_DepthDuration_HTML.html#72,72,1920,1080,1920,1080,8-22-2022,8-4-52,12,depth_duration_stimuli/002103_2014-06-25_20-00-40_260595134347_rgbf000049-resize_0/002103_2014-06-25_20-00-40_260595134347_rgbf000049-resize_0-target.png,1000,4.105,11,3832,999,feet,jsons/v1_VE1000_randls_71.json,627201,941979,55,Man
12,664589,DepthScenes,duration_manipulation_targetAtFixation,jsons/v1_VE1000_randls_71.json,http://54.235.29.9/FacialAge/BNav_EC2/DepthDuration/v2_depth_duration_MTurk/v2_DepthDuration_HTML.html#72,72,1920,1080,1920,1080,8-22-2022,8-4-52,13,depth_duration_stimuli/000569_2014-06-09_22-51-47_260595134347_rgbf000141-resize_3/000569_2014-06-09_22-51-47_260595134347_rgbf000141-resize-original.jpg,1000,4.512,0,2876,1000,feet,jsons/v1_VE1000_randls_71.json,627201,941979,55,Man
13,664589,DepthScenes,duration_manipulation_targetAtFixation,jsons/v1_VE1000_randls_71.json,http://54.235.29.9/FacialAge/BNav_EC2/DepthDuration/v2_depth_duration_MTurk/v2_DepthDuration_HTML.html#72,72,1920,1080,1920,1080,8-22-2022,8-4-52,14,depth_duration_stimuli/000739_2014-06-08_18-45-58_260595134347_rgbf000068-resize_1/000739_2014-06-08_18-45-58_260595134347_rgbf000068-resize_1-target.png,1000,3.534,9,4136,999,feet,jsons/v1_VE1000_randls_71.json,627201,941979,55,Man
14,664589,DepthScenes,duration_manipulation_targetAtFixation,jsons/v1_VE1000_randls_71.json,http://54.235.29.9/FacialAge/BNav_EC2/DepthDuration/v2_depth_duration_MTurk/v2_DepthDuration_HTML.html#72,72,1920,1080,1920,1080,8-22-2022,8-4-52,15,depth_duration_stimuli/000734_2014-06-08_17-39-11_260595134347_rgbf000128-resize_2/000734_2014-06-08_17-39-11_260595134347_rgbf000128-resize_2-target.png,1000,4.098,12,4296,1000,feet,jsons/v1_VE1000_randls_71.json,627201,941979,55,Man
15,664589,DepthScenes,duration_manipulation_targetAtFixation,jsons/v1_VE1000_randls_71.json,http://54.235.29.9/FacialAge/BNav_EC2/DepthDuration/v2_depth_duration_MTurk/v2_DepthDuration_HTML.html#72,72,1920,1080,1920,1080,8-22-2022,8-4-52,16,depth_duration_stimuli/000758_2014-06-08_22-05-08_260595134347_rgbf000085-resize_0/000758_2014-06-08_22-05-08_260595134347_rgbf000085-resize_0-target.png,1000,3.3810000000000002,16,4239,999,feet,jsons/v1_VE1000_randls_71.json,627201,941979,55,Man
16,664589,DepthScenes,duration_manipulation_targetAtFixation,jsons/v1_VE1000_randls_71.json,http://54.235.29.9/FacialAge/BNav_EC2/DepthDuration/v2_depth_duration_MTurk/v2_DepthDuration_HTML.html#72,72,1920,1080,1920,1080,8-22-2022,8-4-52,17,depth_duration_stimuli/000854_2014-06-09_19-43-13_260595134347_rgbf000066-resize_0/000854_2014-06-09_19-43-13_260595134347_rgbf000066-resize_0-target.png,1000,3.068,4,4139,1000,feet,jsons/v1_VE1000_randls_71.json,627201,941979,55,Man
17,664589,DepthScenes,duration_manipulation_targetAtFixation,jsons/v1_VE1000_randls_71.json,http://54.235.29.9/FacialAge/BNav_EC2/DepthDuration/v2_depth_duration_MTurk/v2_DepthDuration_HTML.html#72,72,1920,1080,1920,1080,8-22-2022,8-4-52,18,depth_duration_stimuli/001555_2014-06-20_17-12-10_260595134347_rgbf000065-resize_4/001555_2014-06-20_17-12-10_260595134347_rgbf000065-resize_4-target.png,1000,1.633,3,4818,1000,feet,jsons/v1_VE1000_randls_71.json,627201,941979,55,Man
18,664589,DepthScenes,duration_manipulation_targetAtFixation,jsons/v1_VE1000_randls_71.json,http://54.235.29.9/FacialAge/BNav_EC2/DepthDuration/v2_depth_duration_MTurk/v2_DepthDuration_HTML.html#72,72,1920,1080,1920,1080,8-22-2022,8-4-52,19,depth_duration_stimuli/000103_2014-05-14_22-01-17_260595134347_rgbf000152-resize_5/000103_2014-05-14_22-01-17_260595134347_rgbf000152-resize_5-target.png,1000,1.993,7,4194,1000,feet,jsons/v1_VE1000_randls_71.json,627201,941979,55,Man
19,664589,DepthScenes,duration_manipulation_targetAtFixation,jsons/v1_VE1000_randls_71.json,http://54.235.29.9/FacialAge/BNav_EC2/DepthDuration/v2_depth_duration_MTurk/v2_DepthDuration_HTML.html#72,72,1920,1080,1920,1080,8-22-2022,8-4-52,20,depth_duration_stimuli/002763_2014-06-22_19-13-10_094959634447_rgbf000075-resize_4/002763_2014-06-22_19-13-10_094959634447_rgbf000075-resize_4-target.png,1000,1.68375,4,2702,1000,feet,jsons/v1_VE1000_randls_71.json,627201,941979,55,Man
20,664589,DepthScenes,duration_manipulation_targetAtFixation,jsons/v1_VE1000_randls_71.json,http://54.235.29.9/FacialAge/BNav_EC2/DepthDuration/v2_depth_duration_MTurk/v2_DepthDuration_HTML.html#72,72,1920,1080,1920,1080,8-22-2022,8-4-52,21,depth_duration_stimuli/002209_2014-06-28_18-36-10_260595134347_rgbf000051-resize_1/002209_2014-06-28_18-36-10_260595134347_rgbf000051-resize_1-target.png,1000,2.057,3,3116,1000,feet,jsons/v1_VE1000_randls_71.json,627201,941979,55,Man
21,664589,DepthScenes,duration_manipulation_targetAtFixation,jsons/v1_VE1000_randls_71.json,http://54.235.29.9/FacialAge/BNav_EC2/DepthDuration/v2_depth_duration_MTurk/v2_DepthDuration_HTML.html#72,72,1920,1080,1920,1080,8-22-2022,8-4-52,22,depth_duration_stimuli/000469_2014-06-09_19-42-10_260595134347_rgbf000081-resize_1/000469_2014-06-09_19-42-10_260595134347_rgbf000081-resize_1-target.png,1000,1.652,4,2847,999,feet,jsons/v1_VE1000_randls_71.json,627201,941979,55,Man
22,664589,DepthScenes,duration_manipulation_targetAtFixation,jsons/v1_VE1000_randls_71.json,http://54.235.29.9/FacialAge/BNav_EC2/DepthDuration/v2_depth_duration_MTurk/v2_DepthDuration_HTML.html#72,72,1920,1080,1920,1080,8-22-2022,8-4-52,23,depth_duration_stimuli/000483_2014-06-09_20-41-45_260595134347_rgbf000116-resize_4/000483_2014-06-09_20-41-45_260595134347_rgbf000116-resize_4-target.png,1000,1.337,2,2985,999,feet,jsons/v1_VE1000_randls_71.json,627201,941979,55,Man
23,664589,DepthScenes,duration_manipulation_targetAtFixation,jsons/v1_VE1000_randls_71.json,http://54.235.29.9/FacialAge/BNav_EC2/DepthDuration/v2_depth_duration_MTurk/v2_DepthDuration_HTML.html#72,72,1920,1080,1920,1080,8-22-2022,8-4-52,24,depth_duration_stimuli/003534_2014-05-22_15-06-10_094959634447_rgbf000102-resize_4/003534_2014-05-22_15-06-10_094959634447_rgbf000102-resize_4-target.png,1000,1.426,3,2985,1001,feet,jsons/v1_VE1000_randls_71.json,627201,941979,55,Man
24,664589,DepthScenes,duration_manipulation_targetAtFixation,jsons/v1_VE1000_randls_71.json,http://54.235.29.9/FacialAge/BNav_EC2/DepthDuration/v2_depth_duration_MTurk/v2_DepthDuration_HTML.html#72,72,1920,1080,1920,1080,8-22-2022,8-4-52,25,depth_duration_stimuli/002637_2014-06-24_14-51-13_094959634447_rgbf000066-resize_4/002637_2014-06-24_14-51-13_094959634447_rgbf000066-resize_4-target.png,1000,1.9955,6,2758,1000,feet,jsons/v1_VE1000_randls_71.json,627201,941979,55,Man
25,664589,DepthScenes,duration_manipulation_targetAtFixation,jsons/v1_VE1000_randls_71.json,http://54.235.29.9/FacialAge/BNav_EC2/DepthDuration/v2_depth_duration_MTurk/v2_DepthDuration_HTML.html#72,72,1920,1080,1920,1080,8-22-2022,8-4-52,26,depth_duration_stimuli/001056_2014-06-08_18-46-44_260595134347_rgbf000068-resize_0/001056_2014-06-08_18-46-44_260595134347_rgbf000068-resize_0-target.png,1000,2.6625,10,2898,1000,feet,jsons/v1_VE1000_randls_71.json,627201,941979,55,Man
26,664589,DepthScenes,duration_manipulation_targetAtFixation,jsons/v1_VE1000_randls_71.json,http://54.235.29.9/FacialAge/BNav_EC2/DepthDuration/v2_depth_duration_MTurk/v2_DepthDuration_HTML.html#72,72,1920,1080,1920,1080,8-22-2022,8-4-52,27,depth_duration_stimuli/002199_2014-06-28_18-33-56_260595134347_rgbf000074-resize_0/002199_2014-06-28_18-33-56_260595134347_rgbf000074-resize_0-target.png,1000,1.996,5,3921,1000,feet,jsons/v1_VE1000_randls_71.json,627201,941979,55,Man
27,664589,DepthScenes,duration_manipulation_targetAtFixation,jsons/v1_VE1000_randls_71.json,http://54.235.29.9/FacialAge/BNav_EC2/DepthDuration/v2_depth_duration_MTurk/v2_DepthDuration_HTML.html#72,72,1920,1080,1920,1080,8-22-2022,8-4-52,28,depth_duration_stimuli/002989_2014-06-15_12-25-03_094959634447_rgbf000150-resize_3/002989_2014-06-15_12-25-03_094959634447_rgbf000150-resize_3-target.png,1000,4.1975,16,5780,1000,feet,jsons/v1_VE1000_randls_71.json,627201,941979,55,Man
28,664589,DepthScenes,duration_manipulation_targetAtFixation,jsons/v1_VE1000_randls_71.json,http://54.235.29.9/FacialAge/BNav_EC2/DepthDuration/v2_depth_duration_MTurk/v2_DepthDuration_HTML.html#72,72,1920,1080,1920,1080,8-22-2022,8-4-52,29,depth_duration_stimuli/000866_2014-06-09_20-45-42_260595134347_rgbf000139-resize_1/000866_2014-06-09_20-45-42_260595134347_rgbf000139-resize_1-target.png,1000,3.2155,13,4826,999,feet,jsons/v1_VE1000_randls_71.json,627201,941979,55,Man
29,664589,DepthScenes,duration_manipulation_targetAtFixation,jsons/v1_VE1000_randls_71.json,http://54.235.29.9/FacialAge/BNav_EC2/DepthDuration/v2_depth_duration_MTurk/v2_DepthDuration_HTML.html#72,72,1920,1080,1920,1080,8-22-2022,8-4-52,30,depth_duration_stimuli/000375_2014-06-08_11-17-29_260595134347_rgbf000133-resize_2/000375_2014-06-08_11-17-29_260595134347_rgbf000133-resize-original.jpg,1000,4.718,15,3783,1000,feet,jsons/v1_VE1000_randls_71.json,627201,941979,55,Man
30,664589,DepthScenes,duration_manipulation_targetAtFixation,jsons/v1_VE1000_randls_71.json,http://54.235.29.9/FacialAge/BNav_EC2/DepthDuration/v2_depth_duration_MTurk/v2_DepthDuration_HTML.html#72,72,1920,1080,1920,1080,8-22-2022,8-4-52,31,depth_duration_stimuli/002272_2014-06-28_18-53-56_260595134347_rgbf000067-resize_2/002272_2014-06-28_18-53-56_260595134347_rgbf000067-resize_2-target.png,1000,1.138,6,4669,999,feet,jsons/v1_VE1000_randls_71.json,627201,941979,55,Man
31,664589,DepthScenes,duration_manipulation_targetAtFixation,jsons/v1_VE1000_randls_71.json,http://54.235.29.9/FacialAge/BNav_EC2/DepthDuration/v2_depth_duration_MTurk/v2_DepthDuration_HTML.html#72,72,1920,1080,1920,1080,8-22-2022,8-4-52,32,depth_duration_stimuli/001571_2014-06-20_17-21-32_260595134347_rgbf000089-resize_1/001571_2014-06-20_17-21-32_260595134347_rgbf000089-resize_1-target.png,1000,1.86,4,3034,999,feet,jsons/v1_VE1000_randls_71.json,627201,941979,55,Man
32,664589,DepthScenes,duration_manipulation_targetAtFixation,jsons/v1_VE1000_randls_71.json,http://54.235.29.9/FacialAge/BNav_EC2/DepthDuration/v2_depth_duration_MTurk/v2_DepthDuration_HTML.html#72,72,1920,1080,1920,1080,8-22-2022,8-4-52,33,depth_duration_stimuli/002748_2014-06-22_19-07-22_094959634447_rgbf000078-resize_1/002748_2014-06-22_19-07-22_094959634447_rgbf000078-resize_1-target.png,1000,4.6705,20,4982,1000,feet,jsons/v1_VE1000_randls_71.json,627201,941979,55,Man
33,664589,DepthScenes,duration_manipulation_targetAtFixation,jsons/v1_VE1000_randls_71.json,http://54.235.29.9/FacialAge/BNav_EC2/DepthDuration/v2_depth_duration_MTurk/v2_DepthDuration_HTML.html#72,72,1920,1080,1920,1080,8-22-2022,8-4-52,34,depth_duration_stimuli/002995_2014-06-15_12-31-26_094959634447_rgbf000150-resize_1/002995_2014-06-15_12-31-26_094959634447_rgbf000150-resize_1-target.png,1000,3.8360000000000003,16,3443,1000,feet,jsons/v1_VE1000_randls_71.json,627201,941979,55,Man
34,664589,DepthScenes,duration_manipulation_targetAtFixation,jsons/v1_VE1000_randls_71.json,http://54.235.29.9/FacialAge/BNav_EC2/DepthDuration/v2_depth_duration_MTurk/v2_DepthDuration_HTML.html#72,72,1920,1080,1920,1080,8-22-2022,8-4-52,35,depth_duration_stimuli/000436_2014-06-09_22-25-11_260595134347_rgbf000137-resize_1/000436_2014-06-09_22-25-11_260595134347_rgbf000137-resize_1-target.png,1000,4.0705,17,4133,1000,feet,jsons/v1_VE1000_randls_71.json,627201,941979,55,Man
35,664589,DepthScenes,duration_manipulation_targetAtFixation,jsons/v1_VE1000_randls_71.json,http://54.235.29.9/FacialAge/BNav_EC2/DepthDuration/v2_depth_duration_MTurk/v2_DepthDuration_HTML.html#72,72,1920,1080,1920,1080,8-22-2022,8-4-52,36,depth_duration_stimuli/002444_2014-06-28_20-32-08_260595134347_rgbf000027-resize_0/002444_2014-06-28_20-32-08_260595134347_rgbf000027-resize_0-target.png,1000,4.388999999999999,13,4158,999,feet,jsons/v1_VE1000_randls_71.json,627201,941979,55,Man
36,664589,DepthScenes,duration_manipulation_targetAtFixation,jsons/v1_VE1000_randls_71.json,http://54.235.29.9/FacialAge/BNav_EC2/DepthDuration/v2_depth_duration_MTurk/v2_DepthDuration_HTML.html#72,72,1920,1080,1920,1080,8-22-2022,8-4-52,37,depth_duration_stimuli/001133_2014-06-17_14-49-16_260595134347_rgbf000100-resize_0/001133_2014-06-17_14-49-16_260595134347_rgbf000100-resize_0-target.png,1000,4.2115,11,3586,1000,feet,jsons/v1_VE1000_randls_71.json,627201,941979,55,Man
37,664589,DepthScenes,duration_manipulation_targetAtFixation,jsons/v1_VE1000_randls_71.json,http://54.235.29.9/FacialAge/BNav_EC2/DepthDuration/v2_depth_duration_MTurk/v2_DepthDuration_HTML.html#72,72,1920,1080,1920,1080,8-22-2022,8-4-52,38,depth_duration_stimuli/001132_2014-06-17_14-48-54_260595134347_rgbf000100-resize_2/001132_2014-06-17_14-48-54_260595134347_rgbf000100-resize_2-target.png,1000,3.753,10,2695,999,feet,jsons/v1_VE1000_randls_71.json,627201,941979,55,Man
38,664589,DepthScenes,duration_manipulation_targetAtFixation,jsons/v1_VE1000_randls_71.json,http://54.235.29.9/FacialAge/BNav_EC2/DepthDuration/v2_depth_duration_MTurk/v2_DepthDuration_HTML.html#72,72,1920,1080,1920,1080,8-22-2022,8-4-52,39,depth_duration_stimuli/000929_2014-06-09_16-33-19_260595134347_rgbf000139-resize_0/000929_2014-06-09_16-33-19_260595134347_rgbf000139-resize_0-target.png,1000,2.8680000000000003,8,3337,999,feet,jsons/v1_VE1000_randls_71.json,627201,941979,55,Man
39,664589,DepthScenes,duration_manipulation_targetAtFixation,jsons/v1_VE1000_randls_71.json,http://54.235.29.9/FacialAge/BNav_EC2/DepthDuration/v2_depth_duration_MTurk/v2_DepthDuration_HTML.html#72,72,1920,1080,1920,1080,8-22-2022,8-4-52,40,depth_duration_stimuli/000457_2014-06-08_16-52-43_260595134347_rgbf000199-resize_1/000457_2014-06-08_16-52-43_260595134347_rgbf000199-resize_1-target.png,1000,3.6489999999999996,8,3120,1000,feet,jsons/v1_VE1000_randls_71.json,627201,941979,55,Man
40,664589,DepthScenes,duration_manipulation_targetAtFixation,jsons/v1_VE1000_randls_71.json,http://54.235.29.9/FacialAge/BNav_EC2/DepthDuration/v2_depth_duration_MTurk/v2_DepthDuration_HTML.html#72,72,1920,1080,1920,1080,8-22-2022,8-4-52,41,depth_duration_stimuli/002118_2014-06-25_20-32-08_260595134347_rgbf000078-resize_1/002118_2014-06-25_20-32-08_260595134347_rgbf000078-resize_1-target.png,1000,2.6460000000000004,7,4026,1000,feet,jsons/v1_VE1000_randls_71.json,627201,941979,55,Man
41,664589,DepthScenes,duration_manipulation_targetAtFixation,jsons/v1_VE1000_randls_71.json,http://54.235.29.9/FacialAge/BNav_EC2/DepthDuration/v2_depth_duration_MTurk/v2_DepthDuration_HTML.html#72,72,1920,1080,1920,1080,8-22-2022,8-4-52,42,depth_duration_stimuli/001516_2014-06-20_16-25-09_260595134347_rgbf000076-resize_2/001516_2014-06-20_16-25-09_260595134347_rgbf000076-resize_2-target.png,1000,1.7445,6,4105,999,feet,jsons/v1_VE1000_randls_71.json,627201,941979,55,Man
42,664589,DepthScenes,duration_manipulation_targetAtFixation,jsons/v1_VE1000_randls_71.json,http://54.235.29.9/FacialAge/BNav_EC2/DepthDuration/v2_depth_duration_MTurk/v2_DepthDuration_HTML.html#72,72,1920,1080,1920,1080,8-22-2022,8-4-52,43,depth_duration_stimuli/003492_2014-05-21_15-50-55_094959634447_rgbf000828-resize_1/003492_2014-05-21_15-50-55_094959634447_rgbf000828-resize_1-target.png,1000,4.06875,13,3462,1000,feet,jsons/v1_VE1000_randls_71.json,627201,941979,55,Man
43,664589,DepthScenes,duration_manipulation_targetAtFixation,jsons/v1_VE1000_randls_71.json,http://54.235.29.9/FacialAge/BNav_EC2/DepthDuration/v2_depth_duration_MTurk/v2_DepthDuration_HTML.html#72,72,1920,1080,1920,1080,8-22-2022,8-4-52,44,depth_duration_stimuli/002568_2014-06-24_13-59-21_094959634447_rgbf000062-resize_4/002568_2014-06-24_13-59-21_094959634447_rgbf000062-resize_4-target.png,1000,3.015,12,2980,1001,feet,jsons/v1_VE1000_randls_71.json,627201,941979,55,Man
44,664589,DepthScenes,duration_manipulation_targetAtFixation,jsons/v1_VE1000_randls_71.json,http://54.235.29.9/FacialAge/BNav_EC2/DepthDuration/v2_depth_duration_MTurk/v2_DepthDuration_HTML.html#72,72,1920,1080,1920,1080,8-22-2022,8-4-52,45,depth_duration_stimuli/000787_2014-06-08_22-33-53_260595134347_rgbf000175-resize_1/000787_2014-06-08_22-33-53_260595134347_rgbf000175-resize-original.jpg,1000,4.784,0,2666,1000,feet,jsons/v1_VE1000_randls_71.json,627201,941979,55,Man
45,664589,DepthScenes,duration_manipulation_targetAtFixation,jsons/v1_VE1000_randls_71.json,http://54.235.29.9/FacialAge/BNav_EC2/DepthDuration/v2_depth_duration_MTurk/v2_DepthDuration_HTML.html#72,72,1920,1080,1920,1080,8-22-2022,8-4-52,46,depth_duration_stimuli/001011_2014-06-08_23-18-54_260595134347_rgbf000044-resize_4/001011_2014-06-08_23-18-54_260595134347_rgbf000044-resize_4-target.png,1000,2.4730000000000003,12,3936,1000,feet,jsons/v1_VE1000_randls_71.json,627201,941979,55,Man
46,664589,DepthScenes,duration_manipulation_targetAtFixation,jsons/v1_VE1000_randls_71.json,http://54.235.29.9/FacialAge/BNav_EC2/DepthDuration/v2_depth_duration_MTurk/v2_DepthDuration_HTML.html#72,72,1920,1080,1920,1080,8-22-2022,8-4-52,47,depth_duration_stimuli/002875_2014-06-01_15-19-00_094959634447_rgbf000151-resize_1/002875_2014-06-01_15-19-00_094959634447_rgbf000151-resize_1-target.png,1000,1.9675,8,3136,1000,feet,jsons/v1_VE1000_randls_71.json,627201,941979,55,Man
47,664589,DepthScenes,duration_manipulation_targetAtFixation,jsons/v1_VE1000_randls_71.json,http://54.235.29.9/FacialAge/BNav_EC2/DepthDuration/v2_depth_duration_MTurk/v2_DepthDuration_HTML.html#72,72,1920,1080,1920,1080,8-22-2022,8-4-52,48,depth_duration_stimuli/003070_2014-06-15_14-58-27_094959634447_rgbf000150-resize_3/003070_2014-06-15_14-58-27_094959634447_rgbf000150-resize_3-target.png,1000,2.9415,10,2999,999,feet,jsons/v1_VE1000_randls_71.json,627201,941979,55,Man
48,664589,DepthScenes,duration_manipulation_targetAtFixation,jsons/v1_VE1000_randls_71.json,http://54.235.29.9/FacialAge/BNav_EC2/DepthDuration/v2_depth_duration_MTurk/v2_DepthDuration_HTML.html#72,72,1920,1080,1920,1080,8-22-2022,8-4-52,49,depth_duration_stimuli/000943_2014-06-09_19-31-07_260595134347_rgbf000128-resize_1/000943_2014-06-09_19-31-07_260595134347_rgbf000128-resize_1-target.png,1000,1.9765,8,2619,1000,feet,jsons/v1_VE1000_randls_71.json,627201,941979,55,Man
49,664589,DepthScenes,duration_manipulation_targetAtFixation,jsons/v1_VE1000_randls_71.json,http://54.235.29.9/FacialAge/BNav_EC2/DepthDuration/v2_depth_duration_MTurk/v2_DepthDuration_HTML.html#72,72,1920,1080,1920,1080,8-22-2022,8-4-52,50,depth_duration_stimuli/000009_2014-05-26_14-32-05_260595134347_rgbf000034-resize_3/000009_2014-05-26_14-32-05_260595134347_rgbf000034-resize_3-target.png,1000,3.8715,11,3353,1000,feet,jsons/v1_VE1000_randls_71.json,627201,941979,55,Man
50,664589,DepthScenes,duration_manipulation_targetAtFixation,jsons/v1_VE1000_randls_71.json,http://54.235.29.9/FacialAge/BNav_EC2/DepthDuration/v2_depth_duration_MTurk/v2_DepthDuration_HTML.html#72,72,1920,1080,1920,1080,8-22-2022,8-4-52,51,depth_duration_stimuli/001828_2014-06-26_21-40-03_260595134347_rgbf000024-resize_0/001828_2014-06-26_21-40-03_260595134347_rgbf000024-resize_0-target.png,1000,4.8260000000000005,13,3466,1000,feet,jsons/v1_VE1000_randls_71.json,627201,941979,55,Man
51,664589,DepthScenes,duration_manipulation_targetAtFixation,jsons/v1_VE1000_randls_71.json,http://54.235.29.9/FacialAge/BNav_EC2/DepthDuration/v2_depth_duration_MTurk/v2_DepthDuration_HTML.html#72,72,1920,1080,1920,1080,8-22-2022,8-4-52,52,depth_duration_stimuli/001158_2014-06-17_15-32-16_260595134347_rgbf000138-resize_2/001158_2014-06-17_15-32-16_260595134347_rgbf000138-resize_2-target.png,1000,4.5315,18,3001,999,feet,jsons/v1_VE1000_randls_71.json,627201,941979,55,Man
52,664589,DepthScenes,duration_manipulation_targetAtFixation,jsons/v1_VE1000_randls_71.json,http://54.235.29.9/FacialAge/BNav_EC2/DepthDuration/v2_depth_duration_MTurk/v2_DepthDuration_HTML.html#72,72,1920,1080,1920,1080,8-22-2022,8-4-52,53,depth_duration_stimuli/000556_2014-06-09_22-42-56_260595134347_rgbf000214-resize_1/000556_2014-06-09_22-42-56_260595134347_rgbf000214-resize_1-target.png,1000,4.8415,13,3528,980,feet,jsons/v1_VE1000_randls_71.json,627201,941979,55,Man
53,664589,DepthScenes,duration_manipulation_targetAtFixation,jsons/v1_VE1000_randls_71.json,http://54.235.29.9/FacialAge/BNav_EC2/DepthDuration/v2_depth_duration_MTurk/v2_DepthDuration_HTML.html#72,72,1920,1080,1920,1080,8-22-2022,8-4-52,54,depth_duration_stimuli/002153_2014-06-25_21-27-18_260595134347_rgbf000038-resize_5/002153_2014-06-25_21-27-18_260595134347_rgbf000038-resize_5-target.png,1000,2.505,9,2585,1000,feet,jsons/v1_VE1000_randls_71.json,627201,941979,55,Man
54,664589,DepthScenes,duration_manipulation_targetAtFixation,jsons/v1_VE1000_randls_71.json,http://54.235.29.9/FacialAge/BNav_EC2/DepthDuration/v2_depth_duration_MTurk/v2_DepthDuration_HTML.html#72,72,1920,1080,1920,1080,8-22-2022,8-4-52,55,depth_duration_stimuli/002660_2014-06-13_15-44-18_094959634447_rgbf001878-resize_2/002660_2014-06-13_15-44-18_094959634447_rgbf001878-resize_2-target.png,1000,3.576,11,3295,1000,feet,jsons/v1_VE1000_randls_71.json,627201,941979,55,Man
55,664589,DepthScenes,duration_manipulation_targetAtFixation,jsons/v1_VE1000_randls_71.json,http://54.235.29.9/FacialAge/BNav_EC2/DepthDuration/v2_depth_duration_MTurk/v2_DepthDuration_HTML.html#72,72,1920,1080,1920,1080,8-22-2022,8-4-52,56,depth_duration_stimuli/002375_2014-06-28_20-13-44_260595134347_rgbf000032-resize_1/002375_2014-06-28_20-13-44_260595134347_rgbf000032-resize_1-target.png,1000,4.0175,9,2895,1000,feet,jsons/v1_VE1000_randls_71.json,627201,941979,55,Man
56,664589,DepthScenes,duration_manipulation_targetAtFixation,jsons/v1_VE1000_randls_71.json,http://54.235.29.9/FacialAge/BNav_EC2/DepthDuration/v2_depth_duration_MTurk/v2_DepthDuration_HTML.html#72,72,1920,1080,1920,1080,8-22-2022,8-4-52,57,depth_duration_stimuli/002657_2014-06-13_15-29-54_094959634447_rgbf000150-resize_1/002657_2014-06-13_15-29-54_094959634447_rgbf000150-resize_1-target.png,1000,4.919,14,3144,1000,feet,jsons/v1_VE1000_randls_71.json,627201,941979,55,Man
57,664589,DepthScenes,duration_manipulation_targetAtFixation,jsons/v1_VE1000_randls_71.json,http://54.235.29.9/FacialAge/BNav_EC2/DepthDuration/v2_depth_duration_MTurk/v2_DepthDuration_HTML.html#72,72,1920,1080,1920,1080,8-22-2022,8-4-52,58,depth_duration_stimuli/001810_2014-06-26_20-51-35_260595134347_rgbf000040-resize_3/001810_2014-06-26_20-51-35_260595134347_rgbf000040-resize_3-target.png,1000,2.2525,9,2805,1000,feet,jsons/v1_VE1000_randls_71.json,627201,941979,55,Man
58,664589,DepthScenes,duration_manipulation_targetAtFixation,jsons/v1_VE1000_randls_71.json,http://54.235.29.9/FacialAge/BNav_EC2/DepthDuration/v2_depth_duration_MTurk/v2_DepthDuration_HTML.html#72,72,1920,1080,1920,1080,8-22-2022,8-4-52,59,depth_duration_stimuli/003010_2014-06-15_12-54-35_094959634447_rgbf000112-resize_0/003010_2014-06-15_12-54-35_094959634447_rgbf000112-resize_0-target.png,1000,3.1185,12,4840,1001,feet,jsons/v1_VE1000_randls_71.json,627201,941979,55,Man
59,664589,DepthScenes,duration_manipulation_targetAtFixation,jsons/v1_VE1000_randls_71.json,http://54.235.29.9/FacialAge/BNav_EC2/DepthDuration/v2_depth_duration_MTurk/v2_DepthDuration_HTML.html#72,72,1920,1080,1920,1080,8-22-2022,8-4-52,60,depth_duration_stimuli/000788_2014-06-08_22-34-36_260595134347_rgbf000131-resize_1/000788_2014-06-08_22-34-36_260595134347_rgbf000131-resize_1-target.png,1000,3.359,11,2699,999,feet,jsons/v1_VE1000_randls_71.json,627201,941979,55,Man
60,664589,DepthScenes,duration_manipulation_targetAtFixation,jsons/v1_VE1000_randls_71.json,http://54.235.29.9/FacialAge/BNav_EC2/DepthDuration/v2_depth_duration_MTurk/v2_DepthDuration_HTML.html#72,72,1920,1080,1920,1080,8-22-2022,8-4-52,61,depth_duration_stimuli/001235_2014-06-17_16-37-36_260595134347_rgbf000084-resize_4/001235_2014-06-17_16-37-36_260595134347_rgbf000084-resize_4-target.png,1000,3.6605,14,3803,999,feet,jsons/v1_VE1000_randls_71.json,627201,941979,55,Man
61,664589,DepthScenes,duration_manipulation_targetAtFixation,jsons/v1_VE1000_randls_71.json,http://54.235.29.9/FacialAge/BNav_EC2/DepthDuration/v2_depth_duration_MTurk/v2_DepthDuration_HTML.html#72,72,1920,1080,1920,1080,8-22-2022,8-4-52,62,depth_duration_stimuli/003292_2014-05-14_21-53-49_094959634447_rgbf000100-resize_2/003292_2014-05-14_21-53-49_094959634447_rgbf000100-resize_2-target.png,1000,3.4815,9,3061,1000,feet,jsons/v1_VE1000_randls_71.json,627201,941979,55,Man
62,664589,DepthScenes,duration_manipulation_targetAtFixation,jsons/v1_VE1000_randls_71.json,http://54.235.29.9/FacialAge/BNav_EC2/DepthDuration/v2_depth_duration_MTurk/v2_DepthDuration_HTML.html#72,72,1920,1080,1920,1080,8-22-2022,8-4-52,63,depth_duration_stimuli/002639_2014-06-24_14-51-37_094959634447_rgbf000074-resize_4/002639_2014-06-24_14-51-37_094959634447_rgbf000074-resize_4-target.png,1000,4.0375,15,4891,1001,feet,jsons/v1_VE1000_randls_71.json,627201,941979,55,Man
63,664589,DepthScenes,duration_manipulation_targetAtFixation,jsons/v1_VE1000_randls_71.json,http://54.235.29.9/FacialAge/BNav_EC2/DepthDuration/v2_depth_duration_MTurk/v2_DepthDuration_HTML.html#72,72,1920,1080,1920,1080,8-22-2022,8-4-52,64,depth_duration_stimuli/002630_2014-06-24_14-47-50_094959634447_rgbf000055-resize_1/002630_2014-06-24_14-47-50_094959634447_rgbf000055-resize_1-target.png,1000,3.0095,15,3075,999,feet,jsons/v1_VE1000_randls_71.json,627201,941979,55,Man
64,664589,DepthScenes,duration_manipulation_targetAtFixation,jsons/v1_VE1000_randls_71.json,http://54.235.29.9/FacialAge/BNav_EC2/DepthDuration/v2_depth_duration_MTurk/v2_DepthDuration_HTML.html#72,72,1920,1080,1920,1080,8-22-2022,8-4-52,65,depth_duration_stimuli/002758_2014-06-22_19-11-20_094959634447_rgbf000128-resize_1/002758_2014-06-22_19-11-20_094959634447_rgbf000128-resize_1-target.png,1000,2.555,9,3118,1000,feet,jsons/v1_VE1000_randls_71.json,627201,941979,55,Man
65,664589,DepthScenes,duration_manipulation_targetAtFixation,jsons/v1_VE1000_randls_71.json,http://54.235.29.9/FacialAge/BNav_EC2/DepthDuration/v2_depth_duration_MTurk/v2_DepthDuration_HTML.html#72,72,1920,1080,1920,1080,8-22-2022,8-4-52,66,depth_duration_stimuli/001222_2014-06-17_16-24-06_260595134347_rgbf000073-resize_0/001222_2014-06-17_16-24-06_260595134347_rgbf000073-resize-original.jpg,1000,1.4385,0,2507,1000,feet,jsons/v1_VE1000_randls_71.json,627201,941979,55,Man
66,664589,DepthScenes,duration_manipulation_targetAtFixation,jsons/v1_VE1000_randls_71.json,http://54.235.29.9/FacialAge/BNav_EC2/DepthDuration/v2_depth_duration_MTurk/v2_DepthDuration_HTML.html#72,72,1920,1080,1920,1080,8-22-2022,8-4-52,67,depth_duration_stimuli/000486_2014-06-09_20-47-20_260595134347_rgbf000143-resize_2/000486_2014-06-09_20-47-20_260595134347_rgbf000143-resize_2-target.png,1000,4.8325,15,2769,999,feet,jsons/v1_VE1000_randls_71.json,627201,941979,55,Man
67,664589,DepthScenes,duration_manipulation_targetAtFixation,jsons/v1_VE1000_randls_71.json,http://54.235.29.9/FacialAge/BNav_EC2/DepthDuration/v2_depth_duration_MTurk/v2_DepthDuration_HTML.html#72,72,1920,1080,1920,1080,8-22-2022,8-4-52,68,depth_duration_stimuli/003083_2014-06-15_15-21-03_094959634447_rgbf000063-resize_1/003083_2014-06-15_15-21-03_094959634447_rgbf000063-resize_1-target.png,1000,4.1405,19,3235,999,feet,jsons/v1_VE1000_randls_71.json,627201,941979,55,Man
68,664589,DepthScenes,duration_manipulation_targetAtFixation,jsons/v1_VE1000_randls_71.json,http://54.235.29.9/FacialAge/BNav_EC2/DepthDuration/v2_depth_duration_MTurk/v2_DepthDuration_HTML.html#72,72,1920,1080,1920,1080,8-22-2022,8-4-52,69,depth_duration_stimuli/001164_2014-06-17_15-35-46_260595134347_rgbf000085-resize_3/001164_2014-06-17_15-35-46_260595134347_rgbf000085-resize_3-target.png,1000,2.354,8,3167,999,feet,jsons/v1_VE1000_randls_71.json,627201,941979,55,Man
69,664589,DepthScenes,duration_manipulation_targetAtFixation,jsons/v1_VE1000_randls_71.json,http://54.235.29.9/FacialAge/BNav_EC2/DepthDuration/v2_depth_duration_MTurk/v2_DepthDuration_HTML.html#72,72,1920,1080,1920,1080,8-22-2022,8-4-52,70,depth_duration_stimuli/001136_2014-06-17_15-19-41_260595134347_rgbf000076-resize_3/001136_2014-06-17_15-19-41_260595134347_rgbf000076-resize_3-target.png,1000,1.8655,5,3721,1000,feet,jsons/v1_VE1000_randls_71.json,627201,941979,55,Man
70,664589,DepthScenes,duration_manipulation_targetAtFixation,jsons/v1_VE1000_randls_71.json,http://54.235.29.9/FacialAge/BNav_EC2/DepthDuration/v2_depth_duration_MTurk/v2_DepthDuration_HTML.html#72,72,1920,1080,1920,1080,8-22-2022,8-4-52,71,depth_duration_stimuli/001016_2014-06-09_16-16-10_260595134347_rgbf000112-resize_5/001016_2014-06-09_16-16-10_260595134347_rgbf000112-resize_5-target.png,1000,1.6565,5,2642,1000,feet,jsons/v1_VE1000_randls_71.json,627201,941979,55,Man
71,664589,DepthScenes,duration_manipulation_targetAtFixation,jsons/v1_VE1000_randls_71.json,http://54.235.29.9/FacialAge/BNav_EC2/DepthDuration/v2_depth_duration_MTurk/v2_DepthDuration_HTML.html#72,72,1920,1080,1920,1080,8-22-2022,8-4-52,72,depth_duration_stimuli/002340_2014-06-28_20-05-46_260595134347_rgbf000113-resize_0/002340_2014-06-28_20-05-46_260595134347_rgbf000113-resize_0-target.png,1000,2.4735,7,3052,999,feet,jsons/v1_VE1000_randls_71.json,627201,941979,55,Man
72,664589,DepthScenes,duration_manipulation_targetAtFixation,jsons/v1_VE1000_randls_71.json,http://54.235.29.9/FacialAge/BNav_EC2/DepthDuration/v2_depth_duration_MTurk/v2_DepthDuration_HTML.html#72,72,1920,1080,1920,1080,8-22-2022,8-4-52,73,depth_duration_stimuli/001244_2014-06-17_16-47-45_260595134347_rgbf000030-resize_4/001244_2014-06-17_16-47-45_260595134347_rgbf000030-resize_4-target.png,1000,2.0425,5,2941,1000,feet,jsons/v1_VE1000_randls_71.json,627201,941979,55,Man
73,664589,DepthScenes,duration_manipulation_targetAtFixation,jsons/v1_VE1000_randls_71.json,http://54.235.29.9/FacialAge/BNav_EC2/DepthDuration/v2_depth_duration_MTurk/v2_DepthDuration_HTML.html#72,72,1920,1080,1920,1080,8-22-2022,8-4-52,74,depth_duration_stimuli/003495_2014-05-21_16-01-51_094959634447_rgbf000100-resize_3/003495_2014-05-21_16-01-51_094959634447_rgbf000100-resize_3-target.png,1000,1.6255,4,2739,1000,feet,jsons/v1_VE1000_randls_71.json,627201,941979,55,Man
74,664589,DepthScenes,duration_manipulation_targetAtFixation,jsons/v1_VE1000_randls_71.json,http://54.235.29.9/FacialAge/BNav_EC2/DepthDuration/v2_depth_duration_MTurk/v2_DepthDuration_HTML.html#72,72,1920,1080,1920,1080,8-22-2022,8-4-52,75,depth_duration_stimuli/000470_2014-06-09_19-42-40_260595134347_rgbf000094-resize_1/000470_2014-06-09_19-42-40_260595134347_rgbf000094-resize_1-target.png,1000,1.831,4,2907,1000,feet,jsons/v1_VE1000_randls_71.json,627201,941979,55,Man
75,664589,DepthScenes,duration_manipulation_targetAtFixation,jsons/v1_VE1000_randls_71.json,http://54.235.29.9/FacialAge/BNav_EC2/DepthDuration/v2_depth_duration_MTurk/v2_DepthDuration_HTML.html#72,72,1920,1080,1920,1080,8-22-2022,8-4-52,76,depth_duration_stimuli/000109_2014-05-14_23-41-52_260595134347_rgbf000035-resize_9/000109_2014-05-14_23-41-52_260595134347_rgbf000035-resize_9-target.png,1000,1.3545,3,2873,1000,feet,jsons/v1_VE1000_randls_71.json,627201,941979,55,Man
76,664589,DepthScenes,duration_manipulation_targetAtFixation,jsons/v1_VE1000_randls_71.json,http://54.235.29.9/FacialAge/BNav_EC2/DepthDuration/v2_depth_duration_MTurk/v2_DepthDuration_HTML.html#72,72,1920,1080,1920,1080,8-22-2022,8-4-52,77,depth_duration_stimuli/001110_2014-06-15_17-25-28_260595134347_rgbf000150-resize_1/001110_2014-06-15_17-25-28_260595134347_rgbf000150-resize_1-target.png,1000,1.7115,5,2710,1000,feet,jsons/v1_VE1000_randls_71.json,627201,941979,55,Man
77,664589,DepthScenes,duration_manipulation_targetAtFixation,jsons/v1_VE1000_randls_71.json,http://54.235.29.9/FacialAge/BNav_EC2/DepthDuration/v2_depth_duration_MTurk/v2_DepthDuration_HTML.html#72,72,1920,1080,1920,1080,8-22-2022,8-4-52,78,depth_duration_stimuli/000927_2014-06-09_16-32-30_260595134347_rgbf000123-resize_3/000927_2014-06-09_16-32-30_260595134347_rgbf000123-resize_3-target.png,1000,2.6785,7,3499,999,feet,jsons/v1_VE1000_randls_71.json,627201,941979,55,Man
78,664589,DepthScenes,duration_manipulation_targetAtFixation,jsons/v1_VE1000_randls_71.json,http://54.235.29.9/FacialAge/BNav_EC2/DepthDuration/v2_depth_duration_MTurk/v2_DepthDuration_HTML.html#72,72,1920,1080,1920,1080,8-22-2022,8-4-52,79,depth_duration_stimuli/001175_2014-06-17_15-45-55_260595134347_rgbf000129-resize_4/001175_2014-06-17_15-45-55_260595134347_rgbf000129-resize_4-target.png,1000,4.255,13,2778,999,feet,jsons/v1_VE1000_randls_71.json,627201,941979,55,Man
79,664589,DepthScenes,duration_manipulation_targetAtFixation,jsons/v1_VE1000_randls_71.json,http://54.235.29.9/FacialAge/BNav_EC2/DepthDuration/v2_depth_duration_MTurk/v2_DepthDuration_HTML.html#72,72,1920,1080,1920,1080,8-22-2022,8-4-52,80,depth_duration_stimuli/003490_2014-05-21_15-50-11_094959634447_rgbf000101-resize_3/003490_2014-05-21_15-50-11_094959634447_rgbf000101-resize_3-target.png,1000,3.6445,12,3339,999,feet,jsons/v1_VE1000_randls_71.json,627201,941979,55,Man
80,664589,DepthScenes,duration_manipulation_targetAtFixation,jsons/v1_VE1000_randls_71.json,http://54.235.29.9/FacialAge/BNav_EC2/DepthDuration/v2_depth_duration_MTurk/v2_DepthDuration_HTML.html#72,72,1920,1080,1920,1080,8-22-2022,8-4-52,81,depth_duration_stimuli/000522_2014-06-08_13-35-06_260595134347_rgbf000244-resize_1/000522_2014-06-08_13-35-06_260595134347_rgbf000244-resize_1-target.png,1000,2.3715,3,2442,999,feet,jsons/v1_VE1000_randls_71.json,627201,941979,55,Man
81,664589,DepthScenes,duration_manipulation_targetAtFixation,jsons/v1_VE1000_randls_71.json,http://54.235.29.9/FacialAge/BNav_EC2/DepthDuration/v2_depth_duration_MTurk/v2_DepthDuration_HTML.html#72,72,1920,1080,1920,1080,8-22-2022,8-4-52,82,depth_duration_stimuli/002949_2014-06-26_15-57-42_094959634447_rgbf000079-resize_1/002949_2014-06-26_15-57-42_094959634447_rgbf000079-resize_1-target.png,1000,1.8915,4,2301,1000,feet,jsons/v1_VE1000_randls_71.json,627201,941979,55,Man
82,664589,DepthScenes,duration_manipulation_targetAtFixation,jsons/v1_VE1000_randls_71.json,http://54.235.29.9/FacialAge/BNav_EC2/DepthDuration/v2_depth_duration_MTurk/v2_DepthDuration_HTML.html#72,72,1920,1080,1920,1080,8-22-2022,8-4-52,83,depth_duration_stimuli/001449_2014-06-19_17-01-27_260595134347_rgbf000116-resize_2/001449_2014-06-19_17-01-27_260595134347_rgbf000116-resize_2-target.png,1000,3.452,6,2884,999,feet,jsons/v1_VE1000_randls_71.json,627201,941979,55,Man
83,664589,DepthScenes,duration_manipulation_targetAtFixation,jsons/v1_VE1000_randls_71.json,http://54.235.29.9/FacialAge/BNav_EC2/DepthDuration/v2_depth_duration_MTurk/v2_DepthDuration_HTML.html#72,72,1920,1080,1920,1080,8-22-2022,8-4-52,84,depth_duration_stimuli/001450_2014-06-19_17-02-03_260595134347_rgbf000203-resize_4/001450_2014-06-19_17-02-03_260595134347_rgbf000203-resize_4-target.png,1000,4.0106666666667,10,2861,999,feet,jsons/v1_VE1000_randls_71.json,627201,941979,55,Man
84,664589,DepthScenes,duration_manipulation_targetAtFixation,jsons/v1_VE1000_randls_71.json,http://54.235.29.9/FacialAge/BNav_EC2/DepthDuration/v2_depth_duration_MTurk/v2_DepthDuration_HTML.html#72,72,1920,1080,1920,1080,8-22-2022,8-4-52,85,depth_duration_stimuli/000414_2014-06-04_19-49-13_260595134347_rgbf000044-resize_0/000414_2014-06-04_19-49-13_260595134347_rgbf000044-resize_0-target.png,1000,4.329,17,3171,1000,feet,jsons/v1_VE1000_randls_71.json,627201,941979,55,Man
85,664589,DepthScenes,duration_manipulation_targetAtFixation,jsons/v1_VE1000_randls_71.json,http://54.235.29.9/FacialAge/BNav_EC2/DepthDuration/v2_depth_duration_MTurk/v2_DepthDuration_HTML.html#72,72,1920,1080,1920,1080,8-22-2022,8-4-52,86,depth_duration_stimuli/003129_2014-05-12_10-48-10_094959634447_rgbf000100-resize_0/003129_2014-05-12_10-48-10_094959634447_rgbf000100-resize_0-target.png,1000,4.9305,15,3251,1000,feet,jsons/v1_VE1000_randls_71.json,627201,941979,55,Man
86,664589,DepthScenes,duration_manipulation_targetAtFixation,jsons/v1_VE1000_randls_71.json,http://54.235.29.9/FacialAge/BNav_EC2/DepthDuration/v2_depth_duration_MTurk/v2_DepthDuration_HTML.html#72,72,1920,1080,1920,1080,8-22-2022,8-4-52,87,depth_duration_stimuli/001199_2014-06-17_16-03-48_260595134347_rgbf000077-resize_0/001199_2014-06-17_16-03-48_260595134347_rgbf000077-resize_0-target.png,1000,3.4375,13,4506,1000,feet,jsons/v1_VE1000_randls_71.json,627201,941979,55,Man
87,664589,DepthScenes,duration_manipulation_targetAtFixation,jsons/v1_VE1000_randls_71.json,http://54.235.29.9/FacialAge/BNav_EC2/DepthDuration/v2_depth_duration_MTurk/v2_DepthDuration_HTML.html#72,72,1920,1080,1920,1080,8-22-2022,8-4-52,88,depth_duration_stimuli/000502_2014-06-08_23-02-32_260595134347_rgbf000063-resize_4/000502_2014-06-08_23-02-32_260595134347_rgbf000063-resize_4-target.png,1000,2.431,10,2752,999,feet,jsons/v1_VE1000_randls_71.json,627201,941979,55,Man
88,664589,DepthScenes,duration_manipulation_targetAtFixation,jsons/v1_VE1000_randls_71.json,http://54.235.29.9/FacialAge/BNav_EC2/DepthDuration/v2_depth_duration_MTurk/v2_DepthDuration_HTML.html#72,72,1920,1080,1920,1080,8-22-2022,8-4-52,89,depth_duration_stimuli/001417_2014-06-19_16-25-36_260595134347_rgbf000115-resize_5/001417_2014-06-19_16-25-36_260595134347_rgbf000115-resize_5-target.png,1000,4.6255,13,2797,1000,feet,jsons/v1_VE1000_randls_71.json,627201,941979,55,Man
89,664589,DepthScenes,duration_manipulation_targetAtFixation,jsons/v1_VE1000_randls_71.json,http://54.235.29.9/FacialAge/BNav_EC2/DepthDuration/v2_depth_duration_MTurk/v2_DepthDuration_HTML.html#72,72,1920,1080,1920,1080,8-22-2022,8-4-52,90,depth_duration_stimuli/003081_2014-06-15_15-19-16_094959634447_rgbf000150-resize_1/003081_2014-06-15_15-19-16_094959634447_rgbf000150-resize_1-target.png,1000,3.9125,15,2904,1000,feet,jsons/v1_VE1000_randls_71.json,627201,941979,55,Man
90,664589,DepthScenes,duration_manipulation_targetAtFixation,jsons/v1_VE1000_randls_71.json,http://54.235.29.9/FacialAge/BNav_EC2/DepthDuration/v2_depth_duration_MTurk/v2_DepthDuration_HTML.html#72,72,1920,1080,1920,1080,8-22-2022,8-4-52,91,depth_duration_stimuli/000773_2014-06-08_22-24-54_260595134347_rgbf000093-resize_1/000773_2014-06-08_22-24-54_260595134347_rgbf000093-resize_1-target.png,1000,4.973,14,3494,1000,feet,jsons/v1_VE1000_randls_71.json,627201,941979,55,Man
91,664589,DepthScenes,duration_manipulation_targetAtFixation,jsons/v1_VE1000_randls_71.json,http://54.235.29.9/FacialAge/BNav_EC2/DepthDuration/v2_depth_duration_MTurk/v2_DepthDuration_HTML.html#72,72,1920,1080,1920,1080,8-22-2022,8-4-52,92,depth_duration_stimuli/002414_2014-06-28_20-24-58_260595134347_rgbf000067-resize_4/002414_2014-06-28_20-24-58_260595134347_rgbf000067-resize_4-target.png,1000,4.363,19,2863,1000,feet,jsons/v1_VE1000_randls_71.json,627201,941979,55,Man
92,664589,DepthScenes,duration_manipulation_targetAtFixation,jsons/v1_VE1000_randls_71.json,http://54.235.29.9/FacialAge/BNav_EC2/DepthDuration/v2_depth_duration_MTurk/v2_DepthDuration_HTML.html#72,72,1920,1080,1920,1080,8-22-2022,8-4-52,93,depth_duration_stimuli/001059_2014-06-08_21-53-27_260595134347_rgbf000061-resize_4/001059_2014-06-08_21-53-27_260595134347_rgbf000061-resize_4-target.png,1000,2.4185,13,3125,1000,feet,jsons/v1_VE1000_randls_71.json,627201,941979,55,Man
93,664589,DepthScenes,duration_manipulation_targetAtFixation,jsons/v1_VE1000_randls_71.json,http://54.235.29.9/FacialAge/BNav_EC2/DepthDuration/v2_depth_duration_MTurk/v2_DepthDuration_HTML.html#72,72,1920,1080,1920,1080,8-22-2022,8-4-52,94,depth_duration_stimuli/001032_2014-06-08_13-23-17_260595134347_rgbf000021-resize_3/001032_2014-06-08_13-23-17_260595134347_rgbf000021-resize_3-target.png,1000,3.2725,11,3159,999,feet,jsons/v1_VE1000_randls_71.json,627201,941979,55,Man
94,664589,DepthScenes,duration_manipulation_targetAtFixation,jsons/v1_VE1000_randls_71.json,http://54.235.29.9/FacialAge/BNav_EC2/DepthDuration/v2_depth_duration_MTurk/v2_DepthDuration_HTML.html#72,72,1920,1080,1920,1080,8-22-2022,8-4-52,95,depth_duration_stimuli/002784_2014-06-22_19-26-30_094959634447_rgbf000083-resize_3/002784_2014-06-22_19-26-30_094959634447_rgbf000083-resize_3-target.png,1000,1.8046666666667,9,3019,1000,feet,jsons/v1_VE1000_randls_71.json,627201,941979,55,Man
95,664589,DepthScenes,duration_manipulation_targetAtFixation,jsons/v1_VE1000_randls_71.json,http://54.235.29.9/FacialAge/BNav_EC2/DepthDuration/v2_depth_duration_MTurk/v2_DepthDuration_HTML.html#72,72,1920,1080,1920,1080,8-22-2022,8-4-52,96,depth_duration_stimuli/001100_2014-06-15_17-46-26_260595134347_rgbf000225-resize_2/001100_2014-06-15_17-46-26_260595134347_rgbf000225-resize_2-target.png,1000,2.24,5,2771,999,feet,jsons/v1_VE1000_randls_71.json,627201,941979,55,Man
96,664589,DepthScenes,duration_manipulation_targetAtFixation,jsons/v1_VE1000_randls_71.json,http://54.235.29.9/FacialAge/BNav_EC2/DepthDuration/v2_depth_duration_MTurk/v2_DepthDuration_HTML.html#72,72,1920,1080,1920,1080,8-22-2022,8-4-52,97,depth_duration_stimuli/000736_2014-06-08_18-24-15_260595134347_rgbf000206-resize_3/000736_2014-06-08_18-24-15_260595134347_rgbf000206-resize_3-target.png,1000,3.515,9,2795,1001,feet,jsons/v1_VE1000_randls_71.json,627201,941979,55,Man
97,664589,DepthScenes,duration_manipulation_targetAtFixation,jsons/v1_VE1000_randls_71.json,http://54.235.29.9/FacialAge/BNav_EC2/DepthDuration/v2_depth_duration_MTurk/v2_DepthDuration_HTML.html#72,72,1920,1080,1920,1080,8-22-2022,8-4-52,98,depth_duration_stimuli/000137_2014-05-20_17-04-49_260595134347_rgbf000120-resize_1/000137_2014-05-20_17-04-49_260595134347_rgbf000120-resize_1-target.png,1000,3.786,14,3359,1000,feet,jsons/v1_VE1000_randls_71.json,627201,941979,55,Man
98,664589,DepthScenes,duration_manipulation_targetAtFixation,jsons/v1_VE1000_randls_71.json,http://54.235.29.9/FacialAge/BNav_EC2/DepthDuration/v2_depth_duration_MTurk/v2_DepthDuration_HTML.html#72,72,1920,1080,1920,1080,8-22-2022,8-4-52,99,depth_duration_stimuli/001540_2014-06-20_17-01-05_260595134347_rgbf000086-resize_2/001540_2014-06-20_17-01-05_260595134347_rgbf000086-resize-original.jpg,1000,1.459,0,2516,1000,feet,jsons/v1_VE1000_randls_71.json,627201,941979,55,Man
99,664589,DepthScenes,duration_manipulation_targetAtFixation,jsons/v1_VE1000_randls_71.json,http://54.235.29.9/FacialAge/BNav_EC2/DepthDuration/v2_depth_duration_MTurk/v2_DepthDuration_HTML.html#72,72,1920,1080,1920,1080,8-22-2022,8-4-52,100,depth_duration_stimuli/002213_2014-06-28_18-37-58_260595134347_rgbf000055-resize_1/002213_2014-06-28_18-37-58_260595134347_rgbf000055-resize_1-target.png,1000,3.62,18,2783,1000,feet,jsons/v1_VE1000_randls_71.json,627201,941979,55,Man
100,664589,DepthScenes,duration_manipulation_targetAtFixation,jsons/v1_VE1000_randls_71.json,http://54.235.29.9/FacialAge/BNav_EC2/DepthDuration/v2_depth_duration_MTurk/v2_DepthDuration_HTML.html#72,72,1920,1080,1920,1080,8-22-2022,8-4-52,101,depth_duration_stimuli/000691_2014-06-08_13-08-50_260595134347_rgbf000132-resize_3/000691_2014-06-08_13-08-50_260595134347_rgbf000132-resize_3-target.png,1000,4.1530000000000005,11,2621,999,feet,jsons/v1_VE1000_randls_71.json,627201,941979,55,Man
101,664589,DepthScenes,duration_manipulation_targetAtFixation,jsons/v1_VE1000_randls_71.json,http://54.235.29.9/FacialAge/BNav_EC2/DepthDuration/v2_depth_duration_MTurk/v2_DepthDuration_HTML.html#72,72,1920,1080,1920,1080,8-22-2022,8-4-52,102,depth_duration_stimuli/000493_2014-06-09_21-01-18_260595134347_rgbf000196-resize_3/000493_2014-06-09_21-01-18_260595134347_rgbf000196-resize_3-target.png,1000,3.44,9,2499,1000,feet,jsons/v1_VE1000_randls_71.json,627201,941979,55,Man
102,664589,DepthScenes,duration_manipulation_targetAtFixation,jsons/v1_VE1000_randls_71.json,http://54.235.29.9/FacialAge/BNav_EC2/DepthDuration/v2_depth_duration_MTurk/v2_DepthDuration_HTML.html#72,72,1920,1080,1920,1080,8-22-2022,8-4-52,103,depth_duration_stimuli/000191_2014-05-12_17-07-38_260595134347_rgbf000199-resize_0/000191_2014-05-12_17-07-38_260595134347_rgbf000199-resize_0-target.png,1000,3.7995,13,2979,1000,feet,jsons/v1_VE1000_randls_71.json,627201,941979,55,Man
103,664589,DepthScenes,duration_manipulation_targetAtFixation,jsons/v1_VE1000_randls_71.json,http://54.235.29.9/FacialAge/BNav_EC2/DepthDuration/v2_depth_duration_MTurk/v2_DepthDuration_HTML.html#72,72,1920,1080,1920,1080,8-22-2022,8-4-52,104,depth_duration_stimuli/002509_2014-06-24_13-19-22_094959634447_rgbf000077-resize_0/002509_2014-06-24_13-19-22_094959634447_rgbf000077-resize_0-target.png,1000,1.3065,3,3002,999,feet,jsons/v1_VE1000_randls_71.json,627201,941979,55,Man
104,664589,DepthScenes,duration_manipulation_targetAtFixation,jsons/v1_VE1000_randls_71.json,http://54.235.29.9/FacialAge/BNav_EC2/DepthDuration/v2_depth_duration_MTurk/v2_DepthDuration_HTML.html#72,72,1920,1080,1920,1080,8-22-2022,8-4-52,105,depth_duration_stimuli/003338_2014-05-20_11-01-23_094959634447_rgbf000051-resize_6/003338_2014-05-20_11-01-23_094959634447_rgbf000051-resize_6-target.png,1000,1.693,3,2357,999,feet,jsons/v1_VE1000_randls_71.json,627201,941979,55,Man
105,664589,DepthScenes,duration_manipulation_targetAtFixation,jsons/v1_VE1000_randls_71.json,http://54.235.29.9/FacialAge/BNav_EC2/DepthDuration/v2_depth_duration_MTurk/v2_DepthDuration_HTML.html#72,72,1920,1080,1920,1080,8-22-2022,8-4-52,106,depth_duration_stimuli/002279_2014-06-28_18-55-32_260595134347_rgbf000040-resize_5/002279_2014-06-28_18-55-32_260595134347_rgbf000040-resize_5-target.png,1000,1.5043333333333,3,2289,1000,feet,jsons/v1_VE1000_randls_71.json,627201,941979,55,Man
106,664589,DepthScenes,duration_manipulation_targetAtFixation,jsons/v1_VE1000_randls_71.json,http://54.235.29.9/FacialAge/BNav_EC2/DepthDuration/v2_depth_duration_MTurk/v2_DepthDuration_HTML.html#72,72,1920,1080,1920,1080,8-22-2022,8-4-52,107,depth_duration_stimuli/000635_2014-06-08_16-38-42_260595134347_rgbf000106-resize_1/000635_2014-06-08_16-38-42_260595134347_rgbf000106-resize_1-target.png,1000,2.074,6,2506,1000,feet,jsons/v1_VE1000_randls_71.json,627201,941979,55,Man
107,664589,DepthScenes,duration_manipulation_targetAtFixation,jsons/v1_VE1000_randls_71.json,http://54.235.29.9/FacialAge/BNav_EC2/DepthDuration/v2_depth_duration_MTurk/v2_DepthDuration_HTML.html#72,72,1920,1080,1920,1080,8-22-2022,8-4-52,108,depth_duration_stimuli/002570_2014-06-24_13-59-54_094959634447_rgbf000059-resize_0/002570_2014-06-24_13-59-54_094959634447_rgbf000059-resize_0-target.png,1000,4.037,8,2530,1000,feet,jsons/v1_VE1000_randls_71.json,627201,941979,55,Man
108,664589,DepthScenes,duration_manipulation_targetAtFixation,jsons/v1_VE1000_randls_71.json,http://54.235.29.9/FacialAge/BNav_EC2/DepthDuration/v2_depth_duration_MTurk/v2_DepthDuration_HTML.html#72,72,1920,1080,1920,1080,8-22-2022,8-4-52,109,depth_duration_stimuli/002467_2014-06-28_20-38-07_260595134347_rgbf000026-resize_2/002467_2014-06-28_20-38-07_260595134347_rgbf000026-resize_2-target.png,1000,4.742,15,2811,999,feet,jsons/v1_VE1000_randls_71.json,627201,941979,55,Man
109,664589,DepthScenes,duration_manipulation_targetAtFixation,jsons/v1_VE1000_randls_71.json,http://54.235.29.9/FacialAge/BNav_EC2/DepthDuration/v2_depth_duration_MTurk/v2_DepthDuration_HTML.html#72,72,1920,1080,1920,1080,8-22-2022,8-4-52,110,depth_duration_stimuli/002964_2014-06-08_17-46-11_094959634447_rgbf000091-resize_4/002964_2014-06-08_17-46-11_094959634447_rgbf000091-resize_4-target.png,1000,1.6909999999999998,4,2651,999,feet,jsons/v1_VE1000_randls_71.json,627201,941979,55,Man
110,664589,DepthScenes,duration_manipulation_targetAtFixation,jsons/v1_VE1000_randls_71.json,http://54.235.29.9/FacialAge/BNav_EC2/DepthDuration/v2_depth_duration_MTurk/v2_DepthDuration_HTML.html#72,72,1920,1080,1920,1080,8-22-2022,8-4-52,111,depth_duration_stimuli/002136_2014-06-25_21-18-03_260595134347_rgbf000109-resize_3/002136_2014-06-25_21-18-03_260595134347_rgbf000109-resize_3-target.png,1000,1.9569999999999999,6,3675,1000,feet,jsons/v1_VE1000_randls_71.json,627201,941979,55,Man
111,664589,DepthScenes,duration_manipulation_targetAtFixation,jsons/v1_VE1000_randls_71.json,http://54.235.29.9/FacialAge/BNav_EC2/DepthDuration/v2_depth_duration_MTurk/v2_DepthDuration_HTML.html#72,72,1920,1080,1920,1080,8-22-2022,8-4-52,112,depth_duration_stimuli/000506_2014-06-08_23-21-00_260595134347_rgbf000070-resize_7/000506_2014-06-08_23-21-00_260595134347_rgbf000070-resize_7-target.png,1000,4.0585,11,2855,1000,feet,jsons/v1_VE1000_randls_71.json,627201,941979,55,Man
112,664589,DepthScenes,duration_manipulation_targetAtFixation,jsons/v1_VE1000_randls_71.json,http://54.235.29.9/FacialAge/BNav_EC2/DepthDuration/v2_depth_duration_MTurk/v2_DepthDuration_HTML.html#72,72,1920,1080,1920,1080,8-22-2022,8-4-52,113,depth_duration_stimuli/003079_2014-06-15_15-18-20_094959634447_rgbf000152-resize_8/003079_2014-06-15_15-18-20_094959634447_rgbf000152-resize_8-target.png,1000,2.8775,10,2656,999,feet,jsons/v1_VE1000_randls_71.json,627201,941979,55,Man
113,664589,DepthScenes,duration_manipulation_targetAtFixation,jsons/v1_VE1000_randls_71.json,http://54.235.29.9/FacialAge/BNav_EC2/DepthDuration/v2_depth_duration_MTurk/v2_DepthDuration_HTML.html#72,72,1920,1080,1920,1080,8-22-2022,8-4-52,114,depth_duration_stimuli/000642_2014-06-08_16-59-25_260595134347_rgbf000098-resize_2/000642_2014-06-08_16-59-25_260595134347_rgbf000098-resize_2-target.png,1000,2.8815,9,2535,1000,feet,jsons/v1_VE1000_randls_71.json,627201,941979,55,Man
114,664589,DepthScenes,duration_manipulation_targetAtFixation,jsons/v1_VE1000_randls_71.json,http://54.235.29.9/FacialAge/BNav_EC2/DepthDuration/v2_depth_duration_MTurk/v2_DepthDuration_HTML.html#72,72,1920,1080,1920,1080,8-22-2022,8-4-52,115,depth_duration_stimuli/002425_2014-06-28_20-27-29_260595134347_rgbf000031-resize_8/002425_2014-06-28_20-27-29_260595134347_rgbf000031-resize_8-target.png,1000,3.8960000000000004,15,2958,1000,feet,jsons/v1_VE1000_randls_71.json,627201,941979,55,Man
115,664589,DepthScenes,duration_manipulation_targetAtFixation,jsons/v1_VE1000_randls_71.json,http://54.235.29.9/FacialAge/BNav_EC2/DepthDuration/v2_depth_duration_MTurk/v2_DepthDuration_HTML.html#72,72,1920,1080,1920,1080,8-22-2022,8-4-52,116,depth_duration_stimuli/001170_2014-06-17_15-43-44_260595134347_rgbf000096-resize_6/001170_2014-06-17_15-43-44_260595134347_rgbf000096-resize-original.jpg,1000,1.1909999999999998,0,2411,1000,feet,jsons/v1_VE1000_randls_71.json,627201,941979,55,Man
116,664589,DepthScenes,duration_manipulation_targetAtFixation,jsons/v1_VE1000_randls_71.json,http://54.235.29.9/FacialAge/BNav_EC2/DepthDuration/v2_depth_duration_MTurk/v2_DepthDuration_HTML.html#72,72,1920,1080,1920,1080,8-22-2022,8-4-52,117,depth_duration_stimuli/000447_2014-06-08_16-15-46_260595134347_rgbf000130-resize_1/000447_2014-06-08_16-15-46_260595134347_rgbf000130-resize_1-target.png,1000,4.479,17,2691,1000,feet,jsons/v1_VE1000_randls_71.json,627201,941979,55,Man
117,664589,DepthScenes,duration_manipulation_targetAtFixation,jsons/v1_VE1000_randls_71.json,http://54.235.29.9/FacialAge/BNav_EC2/DepthDuration/v2_depth_duration_MTurk/v2_DepthDuration_HTML.html#72,72,1920,1080,1920,1080,8-22-2022,8-4-52,118,depth_duration_stimuli/001447_2014-06-19_17-00-32_260595134347_rgbf000082-resize_5/001447_2014-06-19_17-00-32_260595134347_rgbf000082-resize_5-target.png,1000,4.13775,10,2812,999,feet,jsons/v1_VE1000_randls_71.json,627201,941979,55,Man
118,664589,DepthScenes,duration_manipulation_targetAtFixation,jsons/v1_VE1000_randls_71.json,http://54.235.29.9/FacialAge/BNav_EC2/DepthDuration/v2_depth_duration_MTurk/v2_DepthDuration_HTML.html#72,72,1920,1080,1920,1080,8-22-2022,8-4-52,119,depth_duration_stimuli/001055_2014-06-08_18-45-35_260595134347_rgbf000111-resize_4/001055_2014-06-08_18-45-35_260595134347_rgbf000111-resize_4-target.png,1000,2.4290000000000003,12,2522,1000,feet,jsons/v1_VE1000_randls_71.json,627201,941979,55,Man
119,664589,DepthScenes,duration_manipulation_targetAtFixation,jsons/v1_VE1000_randls_71.json,http://54.235.29.9/FacialAge/BNav_EC2/DepthDuration/v2_depth_duration_MTurk/v2_DepthDuration_HTML.html#72,72,1920,1080,1920,1080,8-22-2022,8-4-52,120,depth_duration_stimuli/000549_2014-06-08_22-10-24_260595134347_rgbf000247-resize_3/000549_2014-06-08_22-10-24_260595134347_rgbf000247-resize_3-target.png,1000,1.841,5,3165,1000,feet,jsons/v1_VE1000_randls_71.json,627201,941979,55,Man
120,664589,DepthScenes,duration_manipulation_targetAtFixation,jsons/v1_VE1000_randls_71.json,http://54.235.29.9/FacialAge/BNav_EC2/DepthDuration/v2_depth_duration_MTurk/v2_DepthDuration_HTML.html#72,72,1920,1080,1920,1080,8-22-2022,8-4-52,121,depth_duration_stimuli/000878_2014-06-08_22-52-45_260595134347_rgbf000045-resize_2/000878_2014-06-08_22-52-45_260595134347_rgbf000045-resize_2-target.png,1000,2.092,5,2407,999,feet,jsons/v1_VE1000_randls_71.json,627201,941979,55,Man
121,664589,DepthScenes,duration_manipulation_targetAtFixation,jsons/v1_VE1000_randls_71.json,http://54.235.29.9/FacialAge/BNav_EC2/DepthDuration/v2_depth_duration_MTurk/v2_DepthDuration_HTML.html#72,72,1920,1080,1920,1080,8-22-2022,8-4-52,122,depth_duration_stimuli/002953_2014-06-08_17-32-18_094959634447_rgbf000059-resize_5/002953_2014-06-08_17-32-18_094959634447_rgbf000059-resize_5-target.png,1000,1.551,3,2753,999,feet,jsons/v1_VE1000_randls_71.json,627201,941979,55,Man
122,664589,DepthScenes,duration_manipulation_targetAtFixation,jsons/v1_VE1000_randls_71.json,http://54.235.29.9/FacialAge/BNav_EC2/DepthDuration/v2_depth_duration_MTurk/v2_DepthDuration_HTML.html#72,72,1920,1080,1920,1080,8-22-2022,8-4-52,123,depth_duration_stimuli/000368_2014-06-09_15-53-01_260595134347_rgbf000155-resize_2/000368_2014-06-09_15-53-01_260595134347_rgbf000155-resize_2-target.png,1000,2.4859999999999998,5,2612,1000,feet,jsons/v1_VE1000_randls_71.json,627201,941979,55,Man
123,664589,DepthScenes,duration_manipulation_targetAtFixation,jsons/v1_VE1000_randls_71.json,http://54.235.29.9/FacialAge/BNav_EC2/DepthDuration/v2_depth_duration_MTurk/v2_DepthDuration_HTML.html#72,72,1920,1080,1920,1080,8-22-2022,8-4-52,124,depth_duration_stimuli/002678_2014-06-13_16-15-32_094959634447_rgbf000151-resize_6/002678_2014-06-13_16-15-32_094959634447_rgbf000151-resize_6-target.png,1000,2.1830000000000003,7,2836,1000,feet,jsons/v1_VE1000_randls_71.json,627201,941979,55,Man
124,664589,DepthScenes,duration_manipulation_targetAtFixation,jsons/v1_VE1000_randls_71.json,http://54.235.29.9/FacialAge/BNav_EC2/DepthDuration/v2_depth_duration_MTurk/v2_DepthDuration_HTML.html#72,72,1920,1080,1920,1080,8-22-2022,8-4-52,125,depth_duration_stimuli/001570_2014-06-20_17-21-09_260595134347_rgbf000135-resize_4/001570_2014-06-20_17-21-09_260595134347_rgbf000135-resize_4-target.png,1000,4.467,10,2594,1000,feet,jsons/v1_VE1000_randls_71.json,627201,941979,55,Man
125,664589,DepthScenes,duration_manipulation_targetAtFixation,jsons/v1_VE1000_randls_71.json,http://54.235.29.9/FacialAge/BNav_EC2/DepthDuration/v2_depth_duration_MTurk/v2_DepthDuration_HTML.html#72,72,1920,1080,1920,1080,8-22-2022,8-4-52,126,depth_duration_stimuli/001392_2014-06-19_16-07-59_260595134347_rgbf000046-resize_1/001392_2014-06-19_16-07-59_260595134347_rgbf000046-resize_1-target.png,1000,4.135,12,2556,999,feet,jsons/v1_VE1000_randls_71.json,627201,941979,55,Man
126,664589,DepthScenes,duration_manipulation_targetAtFixation,jsons/v1_VE1000_randls_71.json,http://54.235.29.9/FacialAge/BNav_EC2/DepthDuration/v2_depth_duration_MTurk/v2_DepthDuration_HTML.html#72,72,1920,1080,1920,1080,8-22-2022,8-4-52,127,depth_duration_stimuli/001066_2014-06-08_22-03-20_260595134347_rgbf000066-resize_4/001066_2014-06-08_22-03-20_260595134347_rgbf000066-resize_4-target.png,1000,4.2330000000000005,17,2825,1000,feet,jsons/v1_VE1000_randls_71.json,627201,941979,55,Man
127,664589,DepthScenes,duration_manipulation_targetAtFixation,jsons/v1_VE1000_randls_71.json,http://54.235.29.9/FacialAge/BNav_EC2/DepthDuration/v2_depth_duration_MTurk/v2_DepthDuration_HTML.html#72,72,1920,1080,1920,1080,8-22-2022,8-4-52,128,depth_duration_stimuli/000742_2014-06-08_18-48-09_260595134347_rgbf000164-resize_4/000742_2014-06-08_18-48-09_260595134347_rgbf000164-resize_4-target.png,1000,4.632,15,2782,1000,feet,jsons/v1_VE1000_randls_71.json,627201,941979,55,Man
128,664589,DepthScenes,duration_manipulation_targetAtFixation,jsons/v1_VE1000_randls_71.json,http://54.235.29.9/FacialAge/BNav_EC2/DepthDuration/v2_depth_duration_MTurk/v2_DepthDuration_HTML.html#72,72,1920,1080,1920,1080,8-22-2022,8-4-52,129,depth_duration_stimuli/000682_2014-06-08_23-14-58_260595134347_rgbf000041-resize_5/000682_2014-06-08_23-14-58_260595134347_rgbf000041-resize_5-target.png,1000,2.7239999999999998,10,2965,1000,feet,jsons/v1_VE1000_randls_71.json,627201,941979,55,Man
129,664589,DepthScenes,duration_manipulation_targetAtFixation,jsons/v1_VE1000_randls_71.json,http://54.235.29.9/FacialAge/BNav_EC2/DepthDuration/v2_depth_duration_MTurk/v2_DepthDuration_HTML.html#72,72,1920,1080,1920,1080,8-22-2022,8-4-52,130,depth_duration_stimuli/001650_2014-06-20_12-09-00_260595134347_rgbf000087-resize_3/001650_2014-06-20_12-09-00_260595134347_rgbf000087-resize_3-target.png,1000,1.9505,2,2624,1001,feet,jsons/v1_VE1000_randls_71.json,627201,941979,55,Man
130,664589,DepthScenes,duration_manipulation_targetAtFixation,jsons/v1_VE1000_randls_71.json,http://54.235.29.9/FacialAge/BNav_EC2/DepthDuration/v2_depth_duration_MTurk/v2_DepthDuration_HTML.html#72,72,1920,1080,1920,1080,8-22-2022,8-4-52,131,depth_duration_stimuli/001167_2014-06-17_15-38-07_260595134347_rgbf000108-resize_0/001167_2014-06-17_15-38-07_260595134347_rgbf000108-resize_0-target.png,1000,1.8505,4,2708,999,feet,jsons/v1_VE1000_randls_71.json,627201,941979,55,Man
131,664589,DepthScenes,duration_manipulation_targetAtFixation,jsons/v1_VE1000_randls_71.json,http://54.235.29.9/FacialAge/BNav_EC2/DepthDuration/v2_depth_duration_MTurk/v2_DepthDuration_HTML.html#72,72,1920,1080,1920,1080,8-22-2022,8-4-52,132,depth_duration_stimuli/003587_2014-05-23_16-48-02_094959634447_rgbf002384-resize_2/003587_2014-05-23_16-48-02_094959634447_rgbf002384-resize_2-target.png,1000,1.357,3,2451,999,feet,jsons/v1_VE1000_randls_71.json,627201,941979,55,Man
132,664589,DepthScenes,duration_manipulation_targetAtFixation,jsons/v1_VE1000_randls_71.json,http://54.235.29.9/FacialAge/BNav_EC2/DepthDuration/v2_depth_duration_MTurk/v2_DepthDuration_HTML.html#72,72,1920,1080,1920,1080,8-22-2022,8-4-52,133,depth_duration_stimuli/000810_2014-06-08_17-20-01_260595134347_rgbf000105-resize_0/000810_2014-06-08_17-20-01_260595134347_rgbf000105-resize_0-target.png,1000,1.4865,4,3307,999,feet,jsons/v1_VE1000_randls_71.json,627201,941979,55,Man
133,664589,DepthScenes,duration_manipulation_targetAtFixation,jsons/v1_VE1000_randls_71.json,http://54.235.29.9/FacialAge/BNav_EC2/DepthDuration/v2_depth_duration_MTurk/v2_DepthDuration_HTML.html#72,72,1920,1080,1920,1080,8-22-2022,8-4-52,134,depth_duration_stimuli/001214_2014-06-17_16-13-55_260595134347_rgbf000111-resize_0/001214_2014-06-17_16-13-55_260595134347_rgbf000111-resize_0-target.png,1000,2.6505,9,3698,1000,feet,jsons/v1_VE1000_randls_71.json,627201,941979,55,Man
134,664589,DepthScenes,duration_manipulation_targetAtFixation,jsons/v1_VE1000_randls_71.json,http://54.235.29.9/FacialAge/BNav_EC2/DepthDuration/v2_depth_duration_MTurk/v2_DepthDuration_HTML.html#72,72,1920,1080,1920,1080,8-22-2022,8-4-52,135,depth_duration_stimuli/002072_2014-06-24_21-48-06_260595134347_rgbf000115-resize_0/002072_2014-06-24_21-48-06_260595134347_rgbf000115-resize-original.jpg,1000,4.702,0,2385,1000,feet,jsons/v1_VE1000_randls_71.json,627201,941979,55,Man
135,664589,DepthScenes,duration_manipulation_targetAtFixation,jsons/v1_VE1000_randls_71.json,http://54.235.29.9/FacialAge/BNav_EC2/DepthDuration/v2_depth_duration_MTurk/v2_DepthDuration_HTML.html#72,72,1920,1080,1920,1080,8-22-2022,8-4-52,136,depth_duration_stimuli/001806_2014-06-26_20-50-20_260595134347_rgbf000091-resize_1/001806_2014-06-26_20-50-20_260595134347_rgbf000091-resize_1-target.png,1000,2.7305,9,3215,1000,feet,jsons/v1_VE1000_randls_71.json,627201,941979,55,Man
136,664589,DepthScenes,duration_manipulation_targetAtFixation,jsons/v1_VE1000_randls_71.json,http://54.235.29.9/FacialAge/BNav_EC2/DepthDuration/v2_depth_duration_MTurk/v2_DepthDuration_HTML.html#72,72,1920,1080,1920,1080,8-22-2022,8-4-52,137,depth_duration_stimuli/001617_2014-06-20_11-35-32_260595134347_rgbf000066-resize_1/001617_2014-06-20_11-35-32_260595134347_rgbf000066-resize_1-target.png,1000,3.7910000000000004,11,2624,1000,feet,jsons/v1_VE1000_randls_71.json,627201,941979,55,Man
137,664589,DepthScenes,duration_manipulation_targetAtFixation,jsons/v1_VE1000_randls_71.json,http://54.235.29.9/FacialAge/BNav_EC2/DepthDuration/v2_depth_duration_MTurk/v2_DepthDuration_HTML.html#72,72,1920,1080,1920,1080,8-22-2022,8-4-52,138,depth_duration_stimuli/002788_2014-06-22_19-36-03_094959634447_rgbf000088-resize_2/002788_2014-06-22_19-36-03_094959634447_rgbf000088-resize_2-target.png,1000,1.6465,10,2765,999,feet,jsons/v1_VE1000_randls_71.json,627201,941979,55,Man
138,664589,DepthScenes,duration_manipulation_targetAtFixation,jsons/v1_VE1000_randls_71.json,http://54.235.29.9/FacialAge/BNav_EC2/DepthDuration/v2_depth_duration_MTurk/v2_DepthDuration_HTML.html#72,72,1920,1080,1920,1080,8-22-2022,8-4-52,139,depth_duration_stimuli/000749_2014-06-08_21-55-06_260595134347_rgbf000070-resize_2/000749_2014-06-08_21-55-06_260595134347_rgbf000070-resize_2-target.png,1000,2.331,9,2968,1000,feet,jsons/v1_VE1000_randls_71.json,627201,941979,55,Man
139,664589,DepthScenes,duration_manipulation_targetAtFixation,jsons/v1_VE1000_randls_71.json,http://54.235.29.9/FacialAge/BNav_EC2/DepthDuration/v2_depth_duration_MTurk/v2_DepthDuration_HTML.html#72,72,1920,1080,1920,1080,8-22-2022,8-4-52,140,depth_duration_stimuli/002663_2014-06-13_15-50-26_094959634447_rgbf000075-resize_1/002663_2014-06-13_15-50-26_094959634447_rgbf000075-resize_1-target.png,1000,4.7495,15,3224,1000,feet,jsons/v1_VE1000_randls_71.json,627201,941979,55,Man
140,664589,DepthScenes,duration_manipulation_targetAtFixation,jsons/v1_VE1000_randls_71.json,http://54.235.29.9/FacialAge/BNav_EC2/DepthDuration/v2_depth_duration_MTurk/v2_DepthDuration_HTML.html#72,72,1920,1080,1920,1080,8-22-2022,8-4-52,141,depth_duration_stimuli/000409_2014-06-04_19-23-33_260595134347_rgbf000067-resize_0/000409_2014-06-04_19-23-33_260595134347_rgbf000067-resize_0-target.png,1000,3.7335,12,2406,999,feet,jsons/v1_VE1000_randls_71.json,627201,941979,55,Man
141,664589,DepthScenes,duration_manipulation_targetAtFixation,jsons/v1_VE1000_randls_71.json,http://54.235.29.9/FacialAge/BNav_EC2/DepthDuration/v2_depth_duration_MTurk/v2_DepthDuration_HTML.html#72,72,1920,1080,1920,1080,8-22-2022,8-4-52,142,depth_duration_stimuli/000692_2014-06-08_13-09-42_260595134347_rgbf000199-resize_2/000692_2014-06-08_13-09-42_260595134347_rgbf000199-resize_2-target.png,1000,3.661,12,2393,1000,feet,jsons/v1_VE1000_randls_71.json,627201,941979,55,Man
142,664589,DepthScenes,duration_manipulation_targetAtFixation,jsons/v1_VE1000_randls_71.json,http://54.235.29.9/FacialAge/BNav_EC2/DepthDuration/v2_depth_duration_MTurk/v2_DepthDuration_HTML.html#72,72,1920,1080,1920,1080,8-22-2022,8-4-52,143,depth_duration_stimuli/001094_2014-06-15_17-36-00_260595134347_rgbf000205-resize_0/001094_2014-06-15_17-36-00_260595134347_rgbf000205-resize_0-target.png,1000,4.2175,17,3117,999,feet,jsons/v1_VE1000_randls_71.json,627201,941979,55,Man
143,664589,DepthScenes,duration_manipulation_targetAtFixation,jsons/v1_VE1000_randls_71.json,http://54.235.29.9/FacialAge/BNav_EC2/DepthDuration/v2_depth_duration_MTurk/v2_DepthDuration_HTML.html#72,72,1920,1080,1920,1080,8-22-2022,8-4-52,144,depth_duration_stimuli/002905_2014-06-03_18-04-43_094959634447_rgbf000151-resize_2/002905_2014-06-03_18-04-43_094959634447_rgbf000151-resize_2-target.png,1000,2.0295,9,2648,999,feet,jsons/v1_VE1000_randls_71.json,627201,941979,55,Man
144,664589,DepthScenes,duration_manipulation_targetAtFixation,jsons/v1_VE1000_randls_71.json,http://54.235.29.9/FacialAge/BNav_EC2/DepthDuration/v2_depth_duration_MTurk/v2_DepthDuration_HTML.html#72,72,1920,1080,1920,1080,8-22-2022,8-4-52,145,depth_duration_stimuli/003423_2014-05-21_10-23-26_094959634447_rgbf002665-resize_2/003423_2014-05-21_10-23-26_094959634447_rgbf002665-resize_2-target.png,1000,3.2575,13,3307,1000,feet,jsons/v1_VE1000_randls_71.json,627201,941979,55,Man
145,664589,DepthScenes,duration_manipulation_targetAtFixation,jsons/v1_VE1000_randls_71.json,http://54.235.29.9/FacialAge/BNav_EC2/DepthDuration/v2_depth_duration_MTurk/v2_DepthDuration_HTML.html#72,72,1920,1080,1920,1080,8-22-2022,8-4-52,146,depth_duration_stimuli/001498_2014-06-19_17-45-14_260595134347_rgbf000129-resize_4/001498_2014-06-19_17-45-14_260595134347_rgbf000129-resize-original.jpg,1000,1.4075,0,2377,999,feet,jsons/v1_VE1000_randls_71.json,627201,941979,55,Man
146,664589,DepthScenes,duration_manipulation_targetAtFixation,jsons/v1_VE1000_randls_71.json,http://54.235.29.9/FacialAge/BNav_EC2/DepthDuration/v2_depth_duration_MTurk/v2_DepthDuration_HTML.html#72,72,1920,1080,1920,1080,8-22-2022,8-4-52,147,depth_duration_stimuli/001808_2014-06-26_20-50-58_260595134347_rgbf000029-resize_1/001808_2014-06-26_20-50-58_260595134347_rgbf000029-resize_1-target.png,1000,4.249,15,2825,1000,feet,jsons/v1_VE1000_randls_71.json,627201,941979,55,Man
147,664589,DepthScenes,duration_manipulation_targetAtFixation,jsons/v1_VE1000_randls_71.json,http://54.235.29.9/FacialAge/BNav_EC2/DepthDuration/v2_depth_duration_MTurk/v2_DepthDuration_HTML.html#72,72,1920,1080,1920,1080,8-22-2022,8-4-52,148,depth_duration_stimuli/001815_2014-06-26_20-52-55_260595134347_rgbf000020-resize_0/001815_2014-06-26_20-52-55_260595134347_rgbf000020-resize_0-target.png,1000,3.3865,13,2783,1000,feet,jsons/v1_VE1000_randls_71.json,627201,941979,55,Man
148,664589,DepthScenes,duration_manipulation_targetAtFixation,jsons/v1_VE1000_randls_71.json,http://54.235.29.9/FacialAge/BNav_EC2/DepthDuration/v2_depth_duration_MTurk/v2_DepthDuration_HTML.html#72,72,1920,1080,1920,1080,8-22-2022,8-4-52,149,depth_duration_stimuli/002057_2014-06-24_21-00-13_260595134347_rgbf000120-resize_1/002057_2014-06-24_21-00-13_260595134347_rgbf000120-resize_1-target.png,1000,2.967,13,3309,1000,feet,jsons/v1_VE1000_randls_71.json,627201,941979,55,Man
149,664589,DepthScenes,duration_manipulation_targetAtFixation,jsons/v1_VE1000_randls_71.json,http://54.235.29.9/FacialAge/BNav_EC2/DepthDuration/v2_depth_duration_MTurk/v2_DepthDuration_HTML.html#72,72,1920,1080,1920,1080,8-22-2022,8-4-52,150,depth_duration_stimuli/000709_2014-06-08_13-51-55_260595134347_rgbf000068-resize_3/000709_2014-06-08_13-51-55_260595134347_rgbf000068-resize_3-target.png,1000,1.8030000000000002,10,2667,1000,feet,jsons/v1_VE1000_randls_71.json,627201,941979,55,Man
150,664589,DepthScenes,duration_manipulation_targetAtFixation,jsons/v1_VE1000_randls_71.json,http://54.235.29.9/FacialAge/BNav_EC2/DepthDuration/v2_depth_duration_MTurk/v2_DepthDuration_HTML.html#72,72,1920,1080,1920,1080,8-22-2022,8-4-52,151,depth_duration_stimuli/002725_2014-06-22_11-47-51_094959634447_rgbf000070-resize_1/002725_2014-06-22_11-47-51_094959634447_rgbf000070-resize_1-target.png,1000,2.195,8,2418,999,feet,jsons/v1_VE1000_randls_71.json,627201,941979,55,Man
151,664589,DepthScenes,duration_manipulation_targetAtFixation,jsons/v1_VE1000_randls_71.json,http://54.235.29.9/FacialAge/BNav_EC2/DepthDuration/v2_depth_duration_MTurk/v2_DepthDuration_HTML.html#72,72,1920,1080,1920,1080,8-22-2022,8-4-52,152,depth_duration_stimuli/002344_2014-06-28_20-06-29_260595134347_rgbf000030-resize_1/002344_2014-06-28_20-06-29_260595134347_rgbf000030-resize_1-target.png,1000,1.5795,4,2441,999,feet,jsons/v1_VE1000_randls_71.json,627201,941979,55,Man
152,664589,DepthScenes,duration_manipulation_targetAtFixation,jsons/v1_VE1000_randls_71.json,http://54.235.29.9/FacialAge/BNav_EC2/DepthDuration/v2_depth_duration_MTurk/v2_DepthDuration_HTML.html#72,72,1920,1080,1920,1080,8-22-2022,8-4-52,153,depth_duration_stimuli/002043_2014-06-24_20-29-38_260595134347_rgbf000039-resize_4/002043_2014-06-24_20-29-38_260595134347_rgbf000039-resize_4-target.png,1000,2.8435,9,2723,1000,feet,jsons/v1_VE1000_randls_71.json,627201,941979,55,Man
153,664589,DepthScenes,duration_manipulation_targetAtFixation,jsons/v1_VE1000_randls_71.json,http://54.235.29.9/FacialAge/BNav_EC2/DepthDuration/v2_depth_duration_MTurk/v2_DepthDuration_HTML.html#72,72,1920,1080,1920,1080,8-22-2022,8-4-52,154,depth_duration_stimuli/003048_2014-06-15_13-49-43_094959634447_rgbf000150-resize_1/003048_2014-06-15_13-49-43_094959634447_rgbf000150-resize_1-target.png,1000,4.0035,14,3325,1000,feet,jsons/v1_VE1000_randls_71.json,627201,941979,55,Man
154,664589,DepthScenes,duration_manipulation_targetAtFixation,jsons/v1_VE1000_randls_71.json,http://54.235.29.9/FacialAge/BNav_EC2/DepthDuration/v2_depth_duration_MTurk/v2_DepthDuration_HTML.html#72,72,1920,1080,1920,1080,8-22-2022,8-4-52,155,depth_duration_stimuli/002445_2014-06-28_20-32-16_260595134347_rgbf000029-resize_4/002445_2014-06-28_20-32-16_260595134347_rgbf000029-resize_4-target.png,1000,2.5315,10,2448,1001,feet,jsons/v1_VE1000_randls_71.json,627201,941979,55,Man
155,664589,DepthScenes,duration_manipulation_targetAtFixation,jsons/v1_VE1000_randls_71.json,http://54.235.29.9/FacialAge/BNav_EC2/DepthDuration/v2_depth_duration_MTurk/v2_DepthDuration_HTML.html#72,72,1920,1080,1920,1080,8-22-2022,8-4-52,156,depth_duration_stimuli/000780_2014-06-08_22-28-29_260595134347_rgbf000126-resize_1/000780_2014-06-08_22-28-29_260595134347_rgbf000126-resize_1-target.png,1000,3.3825,13,2658,1001,feet,jsons/v1_VE1000_randls_71.json,627201,941979,55,Man
156,664589,DepthScenes,duration_manipulation_targetAtFixation,jsons/v1_VE1000_randls_71.json,http://54.235.29.9/FacialAge/BNav_EC2/DepthDuration/v2_depth_duration_MTurk/v2_DepthDuration_HTML.html#72,72,1920,1080,1920,1080,8-22-2022,8-4-52,157,depth_duration_stimuli/001029_2014-06-08_13-17-57_260595134347_rgbf000065-resize_1/001029_2014-06-08_13-17-57_260595134347_rgbf000065-resize_1-target.png,1000,3.0835,9,2465,999,feet,jsons/v1_VE1000_randls_71.json,627201,941979,55,Man
157,664589,DepthScenes,duration_manipulation_targetAtFixation,jsons/v1_VE1000_randls_71.json,http://54.235.29.9/FacialAge/BNav_EC2/DepthDuration/v2_depth_duration_MTurk/v2_DepthDuration_HTML.html#72,72,1920,1080,1920,1080,8-22-2022,8-4-52,158,depth_duration_stimuli/000677_2014-06-08_23-10-32_260595134347_rgbf000158-resize_6/000677_2014-06-08_23-10-32_260595134347_rgbf000158-resize_6-target.png,1000,3.556,11,2471,1000,feet,jsons/v1_VE1000_randls_71.json,627201,941979,55,Man
158,664589,DepthScenes,duration_manipulation_targetAtFixation,jsons/v1_VE1000_randls_71.json,http://54.235.29.9/FacialAge/BNav_EC2/DepthDuration/v2_depth_duration_MTurk/v2_DepthDuration_HTML.html#72,72,1920,1080,1920,1080,8-22-2022,8-4-52,159,depth_duration_stimuli/002988_2014-06-15_12-24-20_094959634447_rgbf000150-resize_1/002988_2014-06-15_12-24-20_094959634447_rgbf000150-resize_1-target.png,1000,4.7669999999999995,15,2939,1000,feet,jsons/v1_VE1000_randls_71.json,627201,941979,55,Man
159,664589,DepthScenes,duration_manipulation_targetAtFixation,jsons/v1_VE1000_randls_71.json,http://54.235.29.9/FacialAge/BNav_EC2/DepthDuration/v2_depth_duration_MTurk/v2_DepthDuration_HTML.html#72,72,1920,1080,1920,1080,8-22-2022,8-4-52,160,depth_duration_stimuli/001052_2014-06-08_18-24-54_260595134347_rgbf000130-resize_1/001052_2014-06-08_18-24-54_260595134347_rgbf000130-resize_1-target.png,1000,4.1045,15,2724,999,feet,jsons/v1_VE1000_randls_71.json,627201,941979,55,Man
160,664589,DepthScenes,duration_manipulation_targetAtFixation,jsons/v1_VE1000_randls_71.json,http://54.235.29.9/FacialAge/BNav_EC2/DepthDuration/v2_depth_duration_MTurk/v2_DepthDuration_HTML.html#72,72,1920,1080,1920,1080,8-22-2022,8-4-52,161,depth_duration_stimuli/000906_2014-06-08_13-35-43_260595134347_rgbf000155-resize_1/000906_2014-06-08_13-35-43_260595134347_rgbf000155-resize_1-target.png,1000,2.8489999999999998,13,3261,999,feet,jsons/v1_VE1000_randls_71.json,627201,941979,55,Man
161,664589,DepthScenes,duration_manipulation_targetAtFixation,jsons/v1_VE1000_randls_71.json,http://54.235.29.9/FacialAge/BNav_EC2/DepthDuration/v2_depth_duration_MTurk/v2_DepthDuration_HTML.html#72,72,1920,1080,1920,1080,8-22-2022,8-4-52,162,depth_duration_stimuli/002805_2014-06-22_19-54-03_094959634447_rgbf000079-resize_1/002805_2014-06-22_19-54-03_094959634447_rgbf000079-resize_1-target.png,1000,3.1439999999999997,17,2564,1000,feet,jsons/v1_VE1000_randls_71.json,627201,941979,55,Man
162,664589,DepthScenes,duration_manipulation_targetAtFixation,jsons/v1_VE1000_randls_71.json,http://54.235.29.9/FacialAge/BNav_EC2/DepthDuration/v2_depth_duration_MTurk/v2_DepthDuration_HTML.html#72,72,1920,1080,1920,1080,8-22-2022,8-4-52,163,depth_duration_stimuli/002600_2014-06-24_14-27-04_094959634447_rgbf000074-resize_2/002600_2014-06-24_14-27-04_094959634447_rgbf000074-resize_2-target.png,1000,2.7575,12,2541,1000,feet,jsons/v1_VE1000_randls_71.json,627201,941979,55,Man
163,664589,DepthScenes,duration_manipulation_targetAtFixation,jsons/v1_VE1000_randls_71.json,http://54.235.29.9/FacialAge/BNav_EC2/DepthDuration/v2_depth_duration_MTurk/v2_DepthDuration_HTML.html#72,72,1920,1080,1920,1080,8-22-2022,8-4-52,164,depth_duration_stimuli/003228_2014-05-14_13-42-35_094959634447_rgbf000101-resize_1/003228_2014-05-14_13-42-35_094959634447_rgbf000101-resize_1-target.png,1000,1.9680000000000002,8,2347,1000,feet,jsons/v1_VE1000_randls_71.json,627201,941979,55,Man
