,subjID,experimentName,versionName,sequenceName,url,selected_row,windowWidth,windowHeight,screenWidth,screenHeight,startDate,startTime,trial,stimulus,duration,actual_depth,depth_estimate,trial_RT,log_sceneDuration,unitSelection,seq_filepath,experimentTime,totalTime,age,gender
0,665356,DepthScenes,duration_manipulation_targetAtFixation,jsons/v1_VE250_randls_42_rotated.json,http://54.235.29.9/FacialAge/BNav_EC2/DepthDuration/v2_depth_duration_MTurk/v2_DepthDuration_HTML.html#146,146,1440,789,1440,900,8-20-2022,10-57-16,1,depth_duration_stimuli/002199_2014-06-28_18-33-56_260595134347_rgbf000074-resize_0/002199_2014-06-28_18-33-56_260595134347_rgbf000074-resize_0-target.png,250,1.996,1,3064,249,feet,jsons/v1_VE250_randls_42_rotated.json,1050617,1502232,38,Man
1,665356,DepthScenes,duration_manipulation_targetAtFixation,jsons/v1_VE250_randls_42_rotated.json,http://54.235.29.9/FacialAge/BNav_EC2/DepthDuration/v2_depth_duration_MTurk/v2_DepthDuration_HTML.html#146,146,1440,789,1440,900,8-20-2022,10-57-16,2,depth_duration_stimuli/001056_2014-06-08_18-46-44_260595134347_rgbf000068-resize_0/001056_2014-06-08_18-46-44_260595134347_rgbf000068-resize_0-target.png,250,2.6625,1,6771,250,feet,jsons/v1_VE250_randls_42_rotated.json,1050617,1502232,38,Man
2,665356,DepthScenes,duration_manipulation_targetAtFixation,jsons/v1_VE250_randls_42_rotated.json,http://54.235.29.9/FacialAge/BNav_EC2/DepthDuration/v2_depth_duration_MTurk/v2_DepthDuration_HTML.html#146,146,1440,789,1440,900,8-20-2022,10-57-16,3,depth_duration_stimuli/003010_2014-06-15_12-54-35_094959634447_rgbf000112-resize_0/003010_2014-06-15_12-54-35_094959634447_rgbf000112-resize_0-target.png,250,3.1185,1,2594,250,feet,jsons/v1_VE250_randls_42_rotated.json,1050617,1502232,38,Man
3,665356,DepthScenes,duration_manipulation_targetAtFixation,jsons/v1_VE250_randls_42_rotated.json,http://54.235.29.9/FacialAge/BNav_EC2/DepthDuration/v2_depth_duration_MTurk/v2_DepthDuration_HTML.html#146,146,1440,789,1440,900,8-20-2022,10-57-16,4,depth_duration_stimuli/001810_2014-06-26_20-51-35_260595134347_rgbf000040-resize_3/001810_2014-06-26_20-51-35_260595134347_rgbf000040-resize_3-target.png,250,2.2525,1,2850,250,feet,jsons/v1_VE250_randls_42_rotated.json,1050617,1502232,38,Man
4,665356,DepthScenes,duration_manipulation_targetAtFixation,jsons/v1_VE250_randls_42_rotated.json,http://54.235.29.9/FacialAge/BNav_EC2/DepthDuration/v2_depth_duration_MTurk/v2_DepthDuration_HTML.html#146,146,1440,789,1440,900,8-20-2022,10-57-16,5,depth_duration_stimuli/000780_2014-06-08_22-28-29_260595134347_rgbf000126-resize_1/000780_2014-06-08_22-28-29_260595134347_rgbf000126-resize_1-target.png,250,3.3825,1,2465,250,feet,jsons/v1_VE250_randls_42_rotated.json,1050617,1502232,38,Man
5,665356,DepthScenes,duration_manipulation_targetAtFixation,jsons/v1_VE250_randls_42_rotated.json,http://54.235.29.9/FacialAge/BNav_EC2/DepthDuration/v2_depth_duration_MTurk/v2_DepthDuration_HTML.html#146,146,1440,789,1440,900,8-20-2022,10-57-16,6,depth_duration_stimuli/002445_2014-06-28_20-32-16_260595134347_rgbf000029-resize_4/002445_2014-06-28_20-32-16_260595134347_rgbf000029-resize_4-target.png,250,2.5315,1,2528,247,feet,jsons/v1_VE250_randls_42_rotated.json,1050617,1502232,38,Man
6,665356,DepthScenes,duration_manipulation_targetAtFixation,jsons/v1_VE250_randls_42_rotated.json,http://54.235.29.9/FacialAge/BNav_EC2/DepthDuration/v2_depth_duration_MTurk/v2_DepthDuration_HTML.html#146,146,1440,789,1440,900,8-20-2022,10-57-16,7,depth_duration_stimuli/001100_2014-06-15_17-46-26_260595134347_rgbf000225-resize_2/001100_2014-06-15_17-46-26_260595134347_rgbf000225-resize_2-target.png,250,2.24,1,2426,250,feet,jsons/v1_VE250_randls_42_rotated.json,1050617,1502232,38,Man
7,665356,DepthScenes,duration_manipulation_targetAtFixation,jsons/v1_VE250_randls_42_rotated.json,http://54.235.29.9/FacialAge/BNav_EC2/DepthDuration/v2_depth_duration_MTurk/v2_DepthDuration_HTML.html#146,146,1440,789,1440,900,8-20-2022,10-57-16,8,depth_duration_stimuli/002784_2014-06-22_19-26-30_094959634447_rgbf000083-resize_3/002784_2014-06-22_19-26-30_094959634447_rgbf000083-resize_3-target.png,250,1.8046666666667,1,2418,249,feet,jsons/v1_VE250_randls_42_rotated.json,1050617,1502232,38,Man
8,665356,DepthScenes,duration_manipulation_targetAtFixation,jsons/v1_VE250_randls_42_rotated.json,http://54.235.29.9/FacialAge/BNav_EC2/DepthDuration/v2_depth_duration_MTurk/v2_DepthDuration_HTML.html#146,146,1440,789,1440,900,8-20-2022,10-57-16,9,depth_duration_stimuli/001235_2014-06-17_16-37-36_260595134347_rgbf000084-resize_4/001235_2014-06-17_16-37-36_260595134347_rgbf000084-resize_4-target.png,250,3.6605,1,2346,249,feet,jsons/v1_VE250_randls_42_rotated.json,1050617,1502232,38,Man
9,665356,DepthScenes,duration_manipulation_targetAtFixation,jsons/v1_VE250_randls_42_rotated.json,http://54.235.29.9/FacialAge/BNav_EC2/DepthDuration/v2_depth_duration_MTurk/v2_DepthDuration_HTML.html#146,146,1440,789,1440,900,8-20-2022,10-57-16,10,depth_duration_stimuli/000788_2014-06-08_22-34-36_260595134347_rgbf000131-resize_1/000788_2014-06-08_22-34-36_260595134347_rgbf000131-resize_1-target.png,250,3.359,1,2466,249,feet,jsons/v1_VE250_randls_42_rotated.json,1050617,1502232,38,Man
10,665356,DepthScenes,duration_manipulation_targetAtFixation,jsons/v1_VE250_randls_42_rotated.json,http://54.235.29.9/FacialAge/BNav_EC2/DepthDuration/v2_depth_duration_MTurk/v2_DepthDuration_HTML.html#146,146,1440,789,1440,900,8-20-2022,10-57-16,11,depth_duration_stimuli/002639_2014-06-24_14-51-37_094959634447_rgbf000074-resize_4/002639_2014-06-24_14-51-37_094959634447_rgbf000074-resize_4-target.png,250,4.0375,1,2483,251,feet,jsons/v1_VE250_randls_42_rotated.json,1050617,1502232,38,Man
11,665356,DepthScenes,duration_manipulation_targetAtFixation,jsons/v1_VE250_randls_42_rotated.json,http://54.235.29.9/FacialAge/BNav_EC2/DepthDuration/v2_depth_duration_MTurk/v2_DepthDuration_HTML.html#146,146,1440,789,1440,900,8-20-2022,10-57-16,12,depth_duration_stimuli/003292_2014-05-14_21-53-49_094959634447_rgbf000100-resize_2/003292_2014-05-14_21-53-49_094959634447_rgbf000100-resize_2-target.png,250,3.4815,1,2778,250,feet,jsons/v1_VE250_randls_42_rotated.json,1050617,1502232,38,Man
12,665356,DepthScenes,duration_manipulation_targetAtFixation,jsons/v1_VE250_randls_42_rotated.json,http://54.235.29.9/FacialAge/BNav_EC2/DepthDuration/v2_depth_duration_MTurk/v2_DepthDuration_HTML.html#146,146,1440,789,1440,900,8-20-2022,10-57-16,13,depth_duration_stimuli/001052_2014-06-08_18-24-54_260595134347_rgbf000130-resize_1/001052_2014-06-08_18-24-54_260595134347_rgbf000130-resize_1-target.png,250,4.1045,1,2531,249,feet,jsons/v1_VE250_randls_42_rotated.json,1050617,1502232,38,Man
13,665356,DepthScenes,duration_manipulation_targetAtFixation,jsons/v1_VE250_randls_42_rotated.json,http://54.235.29.9/FacialAge/BNav_EC2/DepthDuration/v2_depth_duration_MTurk/v2_DepthDuration_HTML.html#146,146,1440,789,1440,900,8-20-2022,10-57-16,14,depth_duration_stimuli/002988_2014-06-15_12-24-20_094959634447_rgbf000150-resize_1/002988_2014-06-15_12-24-20_094959634447_rgbf000150-resize_1-target.png,250,4.7669999999999995,1,12515,250,feet,jsons/v1_VE250_randls_42_rotated.json,1050617,1502232,38,Man
14,665356,DepthScenes,duration_manipulation_targetAtFixation,jsons/v1_VE250_randls_42_rotated.json,http://54.235.29.9/FacialAge/BNav_EC2/DepthDuration/v2_depth_duration_MTurk/v2_DepthDuration_HTML.html#146,146,1440,789,1440,900,8-20-2022,10-57-16,15,depth_duration_stimuli/000137_2014-05-20_17-04-49_260595134347_rgbf000120-resize_1/000137_2014-05-20_17-04-49_260595134347_rgbf000120-resize_1-target.png,250,3.786,1,3363,250,feet,jsons/v1_VE250_randls_42_rotated.json,1050617,1502232,38,Man
15,665356,DepthScenes,duration_manipulation_targetAtFixation,jsons/v1_VE250_randls_42_rotated.json,http://54.235.29.9/FacialAge/BNav_EC2/DepthDuration/v2_depth_duration_MTurk/v2_DepthDuration_HTML.html#146,146,1440,789,1440,900,8-20-2022,10-57-16,16,depth_duration_stimuli/000736_2014-06-08_18-24-15_260595134347_rgbf000206-resize_3/000736_2014-06-08_18-24-15_260595134347_rgbf000206-resize_3-target.png,250,3.515,1,9157,251,feet,jsons/v1_VE250_randls_42_rotated.json,1050617,1502232,38,Man
16,665356,DepthScenes,duration_manipulation_targetAtFixation,jsons/v1_VE250_randls_42_rotated.json,http://54.235.29.9/FacialAge/BNav_EC2/DepthDuration/v2_depth_duration_MTurk/v2_DepthDuration_HTML.html#146,146,1440,789,1440,900,8-20-2022,10-57-16,17,depth_duration_stimuli/002805_2014-06-22_19-54-03_094959634447_rgbf000079-resize_1/002805_2014-06-22_19-54-03_094959634447_rgbf000079-resize_1-target.png,250,3.1439999999999997,1,7314,249,feet,jsons/v1_VE250_randls_42_rotated.json,1050617,1502232,38,Man
17,665356,DepthScenes,duration_manipulation_targetAtFixation,jsons/v1_VE250_randls_42_rotated.json,http://54.235.29.9/FacialAge/BNav_EC2/DepthDuration/v2_depth_duration_MTurk/v2_DepthDuration_HTML.html#146,146,1440,789,1440,900,8-20-2022,10-57-16,18,depth_duration_stimuli/000906_2014-06-08_13-35-43_260595134347_rgbf000155-resize_1/000906_2014-06-08_13-35-43_260595134347_rgbf000155-resize_1-target.png,250,2.8489999999999998,1,4500,251,feet,jsons/v1_VE250_randls_42_rotated.json,1050617,1502232,38,Man
18,665356,DepthScenes,duration_manipulation_targetAtFixation,jsons/v1_VE250_randls_42_rotated.json,http://54.235.29.9/FacialAge/BNav_EC2/DepthDuration/v2_depth_duration_MTurk/v2_DepthDuration_HTML.html#146,146,1440,789,1440,900,8-20-2022,10-57-16,19,depth_duration_stimuli/001498_2014-06-19_17-45-14_260595134347_rgbf000129-resize_4/001498_2014-06-19_17-45-14_260595134347_rgbf000129-resize-original.jpg,250,1.4075,0,10849,250,feet,jsons/v1_VE250_randls_42_rotated.json,1050617,1502232,38,Man
19,665356,DepthScenes,duration_manipulation_targetAtFixation,jsons/v1_VE250_randls_42_rotated.json,http://54.235.29.9/FacialAge/BNav_EC2/DepthDuration/v2_depth_duration_MTurk/v2_DepthDuration_HTML.html#146,146,1440,789,1440,900,8-20-2022,10-57-16,20,depth_duration_stimuli/001828_2014-06-26_21-40-03_260595134347_rgbf000024-resize_0/001828_2014-06-26_21-40-03_260595134347_rgbf000024-resize_0-target.png,250,4.8260000000000005,1,11180,250,feet,jsons/v1_VE250_randls_42_rotated.json,1050617,1502232,38,Man
20,665356,DepthScenes,duration_manipulation_targetAtFixation,jsons/v1_VE250_randls_42_rotated.json,http://54.235.29.9/FacialAge/BNav_EC2/DepthDuration/v2_depth_duration_MTurk/v2_DepthDuration_HTML.html#146,146,1440,789,1440,900,8-20-2022,10-57-16,21,depth_duration_stimuli/000009_2014-05-26_14-32-05_260595134347_rgbf000034-resize_3/000009_2014-05-26_14-32-05_260595134347_rgbf000034-resize_3-target.png,250,3.8715,1,16714,250,feet,jsons/v1_VE250_randls_42_rotated.json,1050617,1502232,38,Man
21,665356,DepthScenes,duration_manipulation_targetAtFixation,jsons/v1_VE250_randls_42_rotated.json,http://54.235.29.9/FacialAge/BNav_EC2/DepthDuration/v2_depth_duration_MTurk/v2_DepthDuration_HTML.html#146,146,1440,789,1440,900,8-20-2022,10-57-16,22,depth_duration_stimuli/001516_2014-06-20_16-25-09_260595134347_rgbf000076-resize_2/001516_2014-06-20_16-25-09_260595134347_rgbf000076-resize_2-target.png,250,1.7445,1,4410,250,feet,jsons/v1_VE250_randls_42_rotated.json,1050617,1502232,38,Man
22,665356,DepthScenes,duration_manipulation_targetAtFixation,jsons/v1_VE250_randls_42_rotated.json,http://54.235.29.9/FacialAge/BNav_EC2/DepthDuration/v2_depth_duration_MTurk/v2_DepthDuration_HTML.html#146,146,1440,789,1440,900,8-20-2022,10-57-16,23,depth_duration_stimuli/002118_2014-06-25_20-32-08_260595134347_rgbf000078-resize_1/002118_2014-06-25_20-32-08_260595134347_rgbf000078-resize_1-target.png,250,2.6460000000000004,1,3708,249,feet,jsons/v1_VE250_randls_42_rotated.json,1050617,1502232,38,Man
23,665356,DepthScenes,duration_manipulation_targetAtFixation,jsons/v1_VE250_randls_42_rotated.json,http://54.235.29.9/FacialAge/BNav_EC2/DepthDuration/v2_depth_duration_MTurk/v2_DepthDuration_HTML.html#146,146,1440,789,1440,900,8-20-2022,10-57-16,24,depth_duration_stimuli/002875_2014-06-01_15-19-00_094959634447_rgbf000151-resize_1/002875_2014-06-01_15-19-00_094959634447_rgbf000151-resize_1-target.png,250,1.9675,1,7209,250,feet,jsons/v1_VE250_randls_42_rotated.json,1050617,1502232,38,Man
24,665356,DepthScenes,duration_manipulation_targetAtFixation,jsons/v1_VE250_randls_42_rotated.json,http://54.235.29.9/FacialAge/BNav_EC2/DepthDuration/v2_depth_duration_MTurk/v2_DepthDuration_HTML.html#146,146,1440,789,1440,900,8-20-2022,10-57-16,25,depth_duration_stimuli/001011_2014-06-08_23-18-54_260595134347_rgbf000044-resize_4/001011_2014-06-08_23-18-54_260595134347_rgbf000044-resize_4-target.png,250,2.4730000000000003,1,6243,250,feet,jsons/v1_VE250_randls_42_rotated.json,1050617,1502232,38,Man
25,665356,DepthScenes,duration_manipulation_targetAtFixation,jsons/v1_VE250_randls_42_rotated.json,http://54.235.29.9/FacialAge/BNav_EC2/DepthDuration/v2_depth_duration_MTurk/v2_DepthDuration_HTML.html#146,146,1440,789,1440,900,8-20-2022,10-57-16,26,depth_duration_stimuli/002568_2014-06-24_13-59-21_094959634447_rgbf000062-resize_4/002568_2014-06-24_13-59-21_094959634447_rgbf000062-resize_4-target.png,250,3.015,1,6243,250,feet,jsons/v1_VE250_randls_42_rotated.json,1050617,1502232,38,Man
26,665356,DepthScenes,duration_manipulation_targetAtFixation,jsons/v1_VE250_randls_42_rotated.json,http://54.235.29.9/FacialAge/BNav_EC2/DepthDuration/v2_depth_duration_MTurk/v2_DepthDuration_HTML.html#146,146,1440,789,1440,900,8-20-2022,10-57-16,27,depth_duration_stimuli/003492_2014-05-21_15-50-55_094959634447_rgbf000828-resize_1/003492_2014-05-21_15-50-55_094959634447_rgbf000828-resize_1-target.png,250,4.06875,1,7258,251,feet,jsons/v1_VE250_randls_42_rotated.json,1050617,1502232,38,Man
27,665356,DepthScenes,duration_manipulation_targetAtFixation,jsons/v1_VE250_randls_42_rotated.json,http://54.235.29.9/FacialAge/BNav_EC2/DepthDuration/v2_depth_duration_MTurk/v2_DepthDuration_HTML.html#146,146,1440,789,1440,900,8-20-2022,10-57-16,28,depth_duration_stimuli/000502_2014-06-08_23-02-32_260595134347_rgbf000063-resize_4/000502_2014-06-08_23-02-32_260595134347_rgbf000063-resize_4-target.png,250,2.431,1,6571,249,feet,jsons/v1_VE250_randls_42_rotated.json,1050617,1502232,38,Man
28,665356,DepthScenes,duration_manipulation_targetAtFixation,jsons/v1_VE250_randls_42_rotated.json,http://54.235.29.9/FacialAge/BNav_EC2/DepthDuration/v2_depth_duration_MTurk/v2_DepthDuration_HTML.html#146,146,1440,789,1440,900,8-20-2022,10-57-16,29,depth_duration_stimuli/001199_2014-06-17_16-03-48_260595134347_rgbf000077-resize_0/001199_2014-06-17_16-03-48_260595134347_rgbf000077-resize_0-target.png,250,3.4375,1,6628,251,feet,jsons/v1_VE250_randls_42_rotated.json,1050617,1502232,38,Man
29,665356,DepthScenes,duration_manipulation_targetAtFixation,jsons/v1_VE250_randls_42_rotated.json,http://54.235.29.9/FacialAge/BNav_EC2/DepthDuration/v2_depth_duration_MTurk/v2_DepthDuration_HTML.html#146,146,1440,789,1440,900,8-20-2022,10-57-16,30,depth_duration_stimuli/002072_2014-06-24_21-48-06_260595134347_rgbf000115-resize_0/002072_2014-06-24_21-48-06_260595134347_rgbf000115-resize-original.jpg,250,4.702,0,9012,250,feet,jsons/v1_VE250_randls_42_rotated.json,1050617,1502232,38,Man
30,665356,DepthScenes,duration_manipulation_targetAtFixation,jsons/v1_VE250_randls_42_rotated.json,http://54.235.29.9/FacialAge/BNav_EC2/DepthDuration/v2_depth_duration_MTurk/v2_DepthDuration_HTML.html#146,146,1440,789,1440,900,8-20-2022,10-57-16,31,depth_duration_stimuli/001617_2014-06-20_11-35-32_260595134347_rgbf000066-resize_1/001617_2014-06-20_11-35-32_260595134347_rgbf000066-resize_1-target.png,250,3.7910000000000004,1,6101,251,feet,jsons/v1_VE250_randls_42_rotated.json,1050617,1502232,38,Man
31,665356,DepthScenes,duration_manipulation_targetAtFixation,jsons/v1_VE250_randls_42_rotated.json,http://54.235.29.9/FacialAge/BNav_EC2/DepthDuration/v2_depth_duration_MTurk/v2_DepthDuration_HTML.html#146,146,1440,789,1440,900,8-20-2022,10-57-16,32,depth_duration_stimuli/001806_2014-06-26_20-50-20_260595134347_rgbf000091-resize_1/001806_2014-06-26_20-50-20_260595134347_rgbf000091-resize_1-target.png,250,2.7305,1,5921,250,feet,jsons/v1_VE250_randls_42_rotated.json,1050617,1502232,38,Man
32,665356,DepthScenes,duration_manipulation_targetAtFixation,jsons/v1_VE250_randls_42_rotated.json,http://54.235.29.9/FacialAge/BNav_EC2/DepthDuration/v2_depth_duration_MTurk/v2_DepthDuration_HTML.html#146,146,1440,789,1440,900,8-20-2022,10-57-16,33,depth_duration_stimuli/002323_2014-06-28_20-01-54_260595134347_rgbf000051-resize_4/002323_2014-06-28_20-01-54_260595134347_rgbf000051-resize_4-target.png,250,3.7310000000000003,1,6043,249,feet,jsons/v1_VE250_randls_42_rotated.json,1050617,1502232,38,Man
33,665356,DepthScenes,duration_manipulation_targetAtFixation,jsons/v1_VE250_randls_42_rotated.json,http://54.235.29.9/FacialAge/BNav_EC2/DepthDuration/v2_depth_duration_MTurk/v2_DepthDuration_HTML.html#146,146,1440,789,1440,900,8-20-2022,10-57-16,34,depth_duration_stimuli/000917_2014-06-09_22-45-29_260595134347_rgbf000149-resize_3/000917_2014-06-09_22-45-29_260595134347_rgbf000149-resize_3-target.png,250,4.1865,1,6689,250,feet,jsons/v1_VE250_randls_42_rotated.json,1050617,1502232,38,Man
34,665356,DepthScenes,duration_manipulation_targetAtFixation,jsons/v1_VE250_randls_42_rotated.json,http://54.235.29.9/FacialAge/BNav_EC2/DepthDuration/v2_depth_duration_MTurk/v2_DepthDuration_HTML.html#146,146,1440,789,1440,900,8-20-2022,10-57-16,35,depth_duration_stimuli/002758_2014-06-22_19-11-20_094959634447_rgbf000128-resize_1/002758_2014-06-22_19-11-20_094959634447_rgbf000128-resize_1-target.png,250,2.555,1,8185,250,feet,jsons/v1_VE250_randls_42_rotated.json,1050617,1502232,38,Man
35,665356,DepthScenes,duration_manipulation_targetAtFixation,jsons/v1_VE250_randls_42_rotated.json,http://54.235.29.9/FacialAge/BNav_EC2/DepthDuration/v2_depth_duration_MTurk/v2_DepthDuration_HTML.html#146,146,1440,789,1440,900,8-20-2022,10-57-16,36,depth_duration_stimuli/002630_2014-06-24_14-47-50_094959634447_rgbf000055-resize_1/002630_2014-06-24_14-47-50_094959634447_rgbf000055-resize_1-target.png,250,3.0095,1,6181,249,feet,jsons/v1_VE250_randls_42_rotated.json,1050617,1502232,38,Man
36,665356,DepthScenes,duration_manipulation_targetAtFixation,jsons/v1_VE250_randls_42_rotated.json,http://54.235.29.9/FacialAge/BNav_EC2/DepthDuration/v2_depth_duration_MTurk/v2_DepthDuration_HTML.html#146,146,1440,789,1440,900,8-20-2022,10-57-16,37,depth_duration_stimuli/003129_2014-05-12_10-48-10_094959634447_rgbf000100-resize_0/003129_2014-05-12_10-48-10_094959634447_rgbf000100-resize_0-target.png,250,4.9305,1,7608,248,feet,jsons/v1_VE250_randls_42_rotated.json,1050617,1502232,38,Man
37,665356,DepthScenes,duration_manipulation_targetAtFixation,jsons/v1_VE250_randls_42_rotated.json,http://54.235.29.9/FacialAge/BNav_EC2/DepthDuration/v2_depth_duration_MTurk/v2_DepthDuration_HTML.html#146,146,1440,789,1440,900,8-20-2022,10-57-16,38,depth_duration_stimuli/000414_2014-06-04_19-49-13_260595134347_rgbf000044-resize_0/000414_2014-06-04_19-49-13_260595134347_rgbf000044-resize_0-target.png,250,4.329,1,6204,250,feet,jsons/v1_VE250_randls_42_rotated.json,1050617,1502232,38,Man
38,665356,DepthScenes,duration_manipulation_targetAtFixation,jsons/v1_VE250_randls_42_rotated.json,http://54.235.29.9/FacialAge/BNav_EC2/DepthDuration/v2_depth_duration_MTurk/v2_DepthDuration_HTML.html#146,146,1440,789,1440,900,8-20-2022,10-57-16,39,depth_duration_stimuli/002545_2014-06-24_13-38-53_094959634447_rgbf000080-resize_4/002545_2014-06-24_13-38-53_094959634447_rgbf000080-resize_4-target.png,250,1.9205,1,6367,249,feet,jsons/v1_VE250_randls_42_rotated.json,1050617,1502232,38,Man
39,665356,DepthScenes,duration_manipulation_targetAtFixation,jsons/v1_VE250_randls_42_rotated.json,http://54.235.29.9/FacialAge/BNav_EC2/DepthDuration/v2_depth_duration_MTurk/v2_DepthDuration_HTML.html#146,146,1440,789,1440,900,8-20-2022,10-57-16,40,depth_duration_stimuli/001092_2014-06-15_17-34-58_260595134347_rgbf000171-resize_3/001092_2014-06-15_17-34-58_260595134347_rgbf000171-resize_3-target.png,250,2.6935,1,5908,250,feet,jsons/v1_VE250_randls_42_rotated.json,1050617,1502232,38,Man
40,665356,DepthScenes,duration_manipulation_targetAtFixation,jsons/v1_VE250_randls_42_rotated.json,http://54.235.29.9/FacialAge/BNav_EC2/DepthDuration/v2_depth_duration_MTurk/v2_DepthDuration_HTML.html#146,146,1440,789,1440,900,8-20-2022,10-57-16,41,depth_duration_stimuli/001214_2014-06-17_16-13-55_260595134347_rgbf000111-resize_0/001214_2014-06-17_16-13-55_260595134347_rgbf000111-resize_0-target.png,250,2.6505,1,6154,250,feet,jsons/v1_VE250_randls_42_rotated.json,1050617,1502232,38,Man
41,665356,DepthScenes,duration_manipulation_targetAtFixation,jsons/v1_VE250_randls_42_rotated.json,http://54.235.29.9/FacialAge/BNav_EC2/DepthDuration/v2_depth_duration_MTurk/v2_DepthDuration_HTML.html#146,146,1440,789,1440,900,8-20-2022,10-57-16,42,depth_duration_stimuli/000810_2014-06-08_17-20-01_260595134347_rgbf000105-resize_0/000810_2014-06-08_17-20-01_260595134347_rgbf000105-resize_0-target.png,250,1.4865,1,7019,251,feet,jsons/v1_VE250_randls_42_rotated.json,1050617,1502232,38,Man
42,665356,DepthScenes,duration_manipulation_targetAtFixation,jsons/v1_VE250_randls_42_rotated.json,http://54.235.29.9/FacialAge/BNav_EC2/DepthDuration/v2_depth_duration_MTurk/v2_DepthDuration_HTML.html#146,146,1440,789,1440,900,8-20-2022,10-57-16,43,depth_duration_stimuli/000665_2014-06-09_20-42-35_260595134347_rgbf000110-resize_1/000665_2014-06-09_20-42-35_260595134347_rgbf000110-resize_1-target.png,250,3.057,1,5548,250,feet,jsons/v1_VE250_randls_42_rotated.json,1050617,1502232,38,Man
43,665356,DepthScenes,duration_manipulation_targetAtFixation,jsons/v1_VE250_randls_42_rotated.json,http://54.235.29.9/FacialAge/BNav_EC2/DepthDuration/v2_depth_duration_MTurk/v2_DepthDuration_HTML.html#146,146,1440,789,1440,900,8-20-2022,10-57-16,44,depth_duration_stimuli/001150_2014-06-17_15-27-34_260595134347_rgbf000108-resize_2/001150_2014-06-17_15-27-34_260595134347_rgbf000108-resize_2-target.png,250,4.0325,0,7923,250,feet,jsons/v1_VE250_randls_42_rotated.json,1050617,1502232,38,Man
44,665356,DepthScenes,duration_manipulation_targetAtFixation,jsons/v1_VE250_randls_42_rotated.json,http://54.235.29.9/FacialAge/BNav_EC2/DepthDuration/v2_depth_duration_MTurk/v2_DepthDuration_HTML.html#146,146,1440,789,1440,900,8-20-2022,10-57-16,45,depth_duration_stimuli/003490_2014-05-21_15-50-11_094959634447_rgbf000101-resize_3/003490_2014-05-21_15-50-11_094959634447_rgbf000101-resize_3-target.png,250,3.6445,1,6098,250,feet,jsons/v1_VE250_randls_42_rotated.json,1050617,1502232,38,Man
45,665356,DepthScenes,duration_manipulation_targetAtFixation,jsons/v1_VE250_randls_42_rotated.json,http://54.235.29.9/FacialAge/BNav_EC2/DepthDuration/v2_depth_duration_MTurk/v2_DepthDuration_HTML.html#146,146,1440,789,1440,900,8-20-2022,10-57-16,46,depth_duration_stimuli/001175_2014-06-17_15-45-55_260595134347_rgbf000129-resize_4/001175_2014-06-17_15-45-55_260595134347_rgbf000129-resize_4-target.png,250,4.255,1,5850,251,feet,jsons/v1_VE250_randls_42_rotated.json,1050617,1502232,38,Man
46,665356,DepthScenes,duration_manipulation_targetAtFixation,jsons/v1_VE250_randls_42_rotated.json,http://54.235.29.9/FacialAge/BNav_EC2/DepthDuration/v2_depth_duration_MTurk/v2_DepthDuration_HTML.html#146,146,1440,789,1440,900,8-20-2022,10-57-16,47,depth_duration_stimuli/000635_2014-06-08_16-38-42_260595134347_rgbf000106-resize_1/000635_2014-06-08_16-38-42_260595134347_rgbf000106-resize_1-target.png,250,2.074,1,6219,249,feet,jsons/v1_VE250_randls_42_rotated.json,1050617,1502232,38,Man
47,665356,DepthScenes,duration_manipulation_targetAtFixation,jsons/v1_VE250_randls_42_rotated.json,http://54.235.29.9/FacialAge/BNav_EC2/DepthDuration/v2_depth_duration_MTurk/v2_DepthDuration_HTML.html#146,146,1440,789,1440,900,8-20-2022,10-57-16,48,depth_duration_stimuli/002279_2014-06-28_18-55-32_260595134347_rgbf000040-resize_5/002279_2014-06-28_18-55-32_260595134347_rgbf000040-resize_5-target.png,250,1.5043333333333,1,6227,249,feet,jsons/v1_VE250_randls_42_rotated.json,1050617,1502232,38,Man
48,665356,DepthScenes,duration_manipulation_targetAtFixation,jsons/v1_VE250_randls_42_rotated.json,http://54.235.29.9/FacialAge/BNav_EC2/DepthDuration/v2_depth_duration_MTurk/v2_DepthDuration_HTML.html#146,146,1440,789,1440,900,8-20-2022,10-57-16,49,depth_duration_stimuli/001170_2014-06-17_15-43-44_260595134347_rgbf000096-resize_6/001170_2014-06-17_15-43-44_260595134347_rgbf000096-resize-original.jpg,250,1.1909999999999998,0,6185,250,feet,jsons/v1_VE250_randls_42_rotated.json,1050617,1502232,38,Man
49,665356,DepthScenes,duration_manipulation_targetAtFixation,jsons/v1_VE250_randls_42_rotated.json,http://54.235.29.9/FacialAge/BNav_EC2/DepthDuration/v2_depth_duration_MTurk/v2_DepthDuration_HTML.html#146,146,1440,789,1440,900,8-20-2022,10-57-16,50,depth_duration_stimuli/000191_2014-05-12_17-07-38_260595134347_rgbf000199-resize_0/000191_2014-05-12_17-07-38_260595134347_rgbf000199-resize_0-target.png,250,3.7995,1,6514,251,feet,jsons/v1_VE250_randls_42_rotated.json,1050617,1502232,38,Man
50,665356,DepthScenes,duration_manipulation_targetAtFixation,jsons/v1_VE250_randls_42_rotated.json,http://54.235.29.9/FacialAge/BNav_EC2/DepthDuration/v2_depth_duration_MTurk/v2_DepthDuration_HTML.html#146,146,1440,789,1440,900,8-20-2022,10-57-16,51,depth_duration_stimuli/000493_2014-06-09_21-01-18_260595134347_rgbf000196-resize_3/000493_2014-06-09_21-01-18_260595134347_rgbf000196-resize_3-target.png,250,3.44,1,5634,250,feet,jsons/v1_VE250_randls_42_rotated.json,1050617,1502232,38,Man
51,665356,DepthScenes,duration_manipulation_targetAtFixation,jsons/v1_VE250_randls_42_rotated.json,http://54.235.29.9/FacialAge/BNav_EC2/DepthDuration/v2_depth_duration_MTurk/v2_DepthDuration_HTML.html#146,146,1440,789,1440,900,8-20-2022,10-57-16,52,depth_duration_stimuli/001447_2014-06-19_17-00-32_260595134347_rgbf000082-resize_5/001447_2014-06-19_17-00-32_260595134347_rgbf000082-resize_5-target.png,250,4.13775,1,5681,250,feet,jsons/v1_VE250_randls_42_rotated.json,1050617,1502232,38,Man
52,665356,DepthScenes,duration_manipulation_targetAtFixation,jsons/v1_VE250_randls_42_rotated.json,http://54.235.29.9/FacialAge/BNav_EC2/DepthDuration/v2_depth_duration_MTurk/v2_DepthDuration_HTML.html#146,146,1440,789,1440,900,8-20-2022,10-57-16,53,depth_duration_stimuli/000447_2014-06-08_16-15-46_260595134347_rgbf000130-resize_1/000447_2014-06-08_16-15-46_260595134347_rgbf000130-resize_1-target.png,250,4.479,1,5803,251,feet,jsons/v1_VE250_randls_42_rotated.json,1050617,1502232,38,Man
53,665356,DepthScenes,duration_manipulation_targetAtFixation,jsons/v1_VE250_randls_42_rotated.json,http://54.235.29.9/FacialAge/BNav_EC2/DepthDuration/v2_depth_duration_MTurk/v2_DepthDuration_HTML.html#146,146,1440,789,1440,900,8-20-2022,10-57-16,54,depth_duration_stimuli/000457_2014-06-08_16-52-43_260595134347_rgbf000199-resize_1/000457_2014-06-08_16-52-43_260595134347_rgbf000199-resize_1-target.png,250,3.6489999999999996,1,9153,250,feet,jsons/v1_VE250_randls_42_rotated.json,1050617,1502232,38,Man
54,665356,DepthScenes,duration_manipulation_targetAtFixation,jsons/v1_VE250_randls_42_rotated.json,http://54.235.29.9/FacialAge/BNav_EC2/DepthDuration/v2_depth_duration_MTurk/v2_DepthDuration_HTML.html#146,146,1440,789,1440,900,8-20-2022,10-57-16,55,depth_duration_stimuli/000929_2014-06-09_16-33-19_260595134347_rgbf000139-resize_0/000929_2014-06-09_16-33-19_260595134347_rgbf000139-resize_0-target.png,250,2.8680000000000003,1,8163,251,feet,jsons/v1_VE250_randls_42_rotated.json,1050617,1502232,38,Man
55,665356,DepthScenes,duration_manipulation_targetAtFixation,jsons/v1_VE250_randls_42_rotated.json,http://54.235.29.9/FacialAge/BNav_EC2/DepthDuration/v2_depth_duration_MTurk/v2_DepthDuration_HTML.html#146,146,1440,789,1440,900,8-20-2022,10-57-16,56,depth_duration_stimuli/001815_2014-06-26_20-52-55_260595134347_rgbf000020-resize_0/001815_2014-06-26_20-52-55_260595134347_rgbf000020-resize_0-target.png,250,3.3865,1,5996,251,feet,jsons/v1_VE250_randls_42_rotated.json,1050617,1502232,38,Man
56,665356,DepthScenes,duration_manipulation_targetAtFixation,jsons/v1_VE250_randls_42_rotated.json,http://54.235.29.9/FacialAge/BNav_EC2/DepthDuration/v2_depth_duration_MTurk/v2_DepthDuration_HTML.html#146,146,1440,789,1440,900,8-20-2022,10-57-16,57,depth_duration_stimuli/001808_2014-06-26_20-50-58_260595134347_rgbf000029-resize_1/001808_2014-06-26_20-50-58_260595134347_rgbf000029-resize_1-target.png,250,4.249,1,5810,249,feet,jsons/v1_VE250_randls_42_rotated.json,1050617,1502232,38,Man
57,665356,DepthScenes,duration_manipulation_targetAtFixation,jsons/v1_VE250_randls_42_rotated.json,http://54.235.29.9/FacialAge/BNav_EC2/DepthDuration/v2_depth_duration_MTurk/v2_DepthDuration_HTML.html#146,146,1440,789,1440,900,8-20-2022,10-57-16,58,depth_duration_stimuli/002136_2014-06-25_21-18-03_260595134347_rgbf000109-resize_3/002136_2014-06-25_21-18-03_260595134347_rgbf000109-resize_3-target.png,250,1.9569999999999999,1,7442,248,feet,jsons/v1_VE250_randls_42_rotated.json,1050617,1502232,38,Man
58,665356,DepthScenes,duration_manipulation_targetAtFixation,jsons/v1_VE250_randls_42_rotated.json,http://54.235.29.9/FacialAge/BNav_EC2/DepthDuration/v2_depth_duration_MTurk/v2_DepthDuration_HTML.html#146,146,1440,789,1440,900,8-20-2022,10-57-16,59,depth_duration_stimuli/002964_2014-06-08_17-46-11_094959634447_rgbf000091-resize_4/002964_2014-06-08_17-46-11_094959634447_rgbf000091-resize_4-target.png,250,1.6909999999999998,1,5771,251,feet,jsons/v1_VE250_randls_42_rotated.json,1050617,1502232,38,Man
59,665356,DepthScenes,duration_manipulation_targetAtFixation,jsons/v1_VE250_randls_42_rotated.json,http://54.235.29.9/FacialAge/BNav_EC2/DepthDuration/v2_depth_duration_MTurk/v2_DepthDuration_HTML.html#146,146,1440,789,1440,900,8-20-2022,10-57-16,60,depth_duration_stimuli/001132_2014-06-17_14-48-54_260595134347_rgbf000100-resize_2/001132_2014-06-17_14-48-54_260595134347_rgbf000100-resize_2-target.png,250,3.753,1,5842,250,feet,jsons/v1_VE250_randls_42_rotated.json,1050617,1502232,38,Man
60,665356,DepthScenes,duration_manipulation_targetAtFixation,jsons/v1_VE250_randls_42_rotated.json,http://54.235.29.9/FacialAge/BNav_EC2/DepthDuration/v2_depth_duration_MTurk/v2_DepthDuration_HTML.html#146,146,1440,789,1440,900,8-20-2022,10-57-16,61,depth_duration_stimuli/001133_2014-06-17_14-49-16_260595134347_rgbf000100-resize_0/001133_2014-06-17_14-49-16_260595134347_rgbf000100-resize_0-target.png,250,4.2115,1,5650,251,feet,jsons/v1_VE250_randls_42_rotated.json,1050617,1502232,38,Man
61,665356,DepthScenes,duration_manipulation_targetAtFixation,jsons/v1_VE250_randls_42_rotated.json,http://54.235.29.9/FacialAge/BNav_EC2/DepthDuration/v2_depth_duration_MTurk/v2_DepthDuration_HTML.html#146,146,1440,789,1440,900,8-20-2022,10-57-16,62,depth_duration_stimuli/000677_2014-06-08_23-10-32_260595134347_rgbf000158-resize_6/000677_2014-06-08_23-10-32_260595134347_rgbf000158-resize_6-target.png,250,3.556,1,5881,250,feet,jsons/v1_VE250_randls_42_rotated.json,1050617,1502232,38,Man
62,665356,DepthScenes,duration_manipulation_targetAtFixation,jsons/v1_VE250_randls_42_rotated.json,http://54.235.29.9/FacialAge/BNav_EC2/DepthDuration/v2_depth_duration_MTurk/v2_DepthDuration_HTML.html#146,146,1440,789,1440,900,8-20-2022,10-57-16,63,depth_duration_stimuli/001029_2014-06-08_13-17-57_260595134347_rgbf000065-resize_1/001029_2014-06-08_13-17-57_260595134347_rgbf000065-resize_1-target.png,250,3.0835,1,5595,250,feet,jsons/v1_VE250_randls_42_rotated.json,1050617,1502232,38,Man
63,665356,DepthScenes,duration_manipulation_targetAtFixation,jsons/v1_VE250_randls_42_rotated.json,http://54.235.29.9/FacialAge/BNav_EC2/DepthDuration/v2_depth_duration_MTurk/v2_DepthDuration_HTML.html#146,146,1440,789,1440,900,8-20-2022,10-57-16,64,depth_duration_stimuli/002660_2014-06-13_15-44-18_094959634447_rgbf001878-resize_2/002660_2014-06-13_15-44-18_094959634447_rgbf001878-resize_2-target.png,250,3.576,1,5557,249,feet,jsons/v1_VE250_randls_42_rotated.json,1050617,1502232,38,Man
64,665356,DepthScenes,duration_manipulation_targetAtFixation,jsons/v1_VE250_randls_42_rotated.json,http://54.235.29.9/FacialAge/BNav_EC2/DepthDuration/v2_depth_duration_MTurk/v2_DepthDuration_HTML.html#146,146,1440,789,1440,900,8-20-2022,10-57-16,65,depth_duration_stimuli/002153_2014-06-25_21-27-18_260595134347_rgbf000038-resize_5/002153_2014-06-25_21-27-18_260595134347_rgbf000038-resize_5-target.png,250,2.505,1,5783,250,feet,jsons/v1_VE250_randls_42_rotated.json,1050617,1502232,38,Man
65,665356,DepthScenes,duration_manipulation_targetAtFixation,jsons/v1_VE250_randls_42_rotated.json,http://54.235.29.9/FacialAge/BNav_EC2/DepthDuration/v2_depth_duration_MTurk/v2_DepthDuration_HTML.html#146,146,1440,789,1440,900,8-20-2022,10-57-16,66,depth_duration_stimuli/001540_2014-06-20_17-01-05_260595134347_rgbf000086-resize_2/001540_2014-06-20_17-01-05_260595134347_rgbf000086-resize-original.jpg,250,1.459,0,6068,251,feet,jsons/v1_VE250_randls_42_rotated.json,1050617,1502232,38,Man
66,665356,DepthScenes,duration_manipulation_targetAtFixation,jsons/v1_VE250_randls_42_rotated.json,http://54.235.29.9/FacialAge/BNav_EC2/DepthDuration/v2_depth_duration_MTurk/v2_DepthDuration_HTML.html#146,146,1440,789,1440,900,8-20-2022,10-57-16,67,depth_duration_stimuli/002414_2014-06-28_20-24-58_260595134347_rgbf000067-resize_4/002414_2014-06-28_20-24-58_260595134347_rgbf000067-resize_4-target.png,250,4.363,1,6500,251,feet,jsons/v1_VE250_randls_42_rotated.json,1050617,1502232,38,Man
67,665356,DepthScenes,duration_manipulation_targetAtFixation,jsons/v1_VE250_randls_42_rotated.json,http://54.235.29.9/FacialAge/BNav_EC2/DepthDuration/v2_depth_duration_MTurk/v2_DepthDuration_HTML.html#146,146,1440,789,1440,900,8-20-2022,10-57-16,68,depth_duration_stimuli/000773_2014-06-08_22-24-54_260595134347_rgbf000093-resize_1/000773_2014-06-08_22-24-54_260595134347_rgbf000093-resize_1-target.png,250,4.973,1,7432,249,feet,jsons/v1_VE250_randls_42_rotated.json,1050617,1502232,38,Man
68,665356,DepthScenes,duration_manipulation_targetAtFixation,jsons/v1_VE250_randls_42_rotated.json,http://54.235.29.9/FacialAge/BNav_EC2/DepthDuration/v2_depth_duration_MTurk/v2_DepthDuration_HTML.html#146,146,1440,789,1440,900,8-20-2022,10-57-16,69,depth_duration_stimuli/003423_2014-05-21_10-23-26_094959634447_rgbf002665-resize_2/003423_2014-05-21_10-23-26_094959634447_rgbf002665-resize_2-target.png,250,3.2575,1,6481,250,feet,jsons/v1_VE250_randls_42_rotated.json,1050617,1502232,38,Man
69,665356,DepthScenes,duration_manipulation_targetAtFixation,jsons/v1_VE250_randls_42_rotated.json,http://54.235.29.9/FacialAge/BNav_EC2/DepthDuration/v2_depth_duration_MTurk/v2_DepthDuration_HTML.html#146,146,1440,789,1440,900,8-20-2022,10-57-16,70,depth_duration_stimuli/002905_2014-06-03_18-04-43_094959634447_rgbf000151-resize_2/002905_2014-06-03_18-04-43_094959634447_rgbf000151-resize_2-target.png,250,2.0295,1,5666,250,feet,jsons/v1_VE250_randls_42_rotated.json,1050617,1502232,38,Man
70,665356,DepthScenes,duration_manipulation_targetAtFixation,jsons/v1_VE250_randls_42_rotated.json,http://54.235.29.9/FacialAge/BNav_EC2/DepthDuration/v2_depth_duration_MTurk/v2_DepthDuration_HTML.html#146,146,1440,789,1440,900,8-20-2022,10-57-16,71,depth_duration_stimuli/002750_2014-06-22_19-08-03_094959634447_rgbf000094-resize_4/002750_2014-06-22_19-08-03_094959634447_rgbf000094-resize_4-target.png,250,2.354,1,5832,250,feet,jsons/v1_VE250_randls_42_rotated.json,1050617,1502232,38,Man
71,665356,DepthScenes,duration_manipulation_targetAtFixation,jsons/v1_VE250_randls_42_rotated.json,http://54.235.29.9/FacialAge/BNav_EC2/DepthDuration/v2_depth_duration_MTurk/v2_DepthDuration_HTML.html#146,146,1440,789,1440,900,8-20-2022,10-57-16,72,depth_duration_stimuli/002549_2014-06-24_13-41-39_094959634447_rgbf000022-resize_3/002549_2014-06-24_13-41-39_094959634447_rgbf000022-resize_3-target.png,250,1.476,1,5609,250,feet,jsons/v1_VE250_randls_42_rotated.json,1050617,1502232,38,Man
72,665356,DepthScenes,duration_manipulation_targetAtFixation,jsons/v1_VE250_randls_42_rotated.json,http://54.235.29.9/FacialAge/BNav_EC2/DepthDuration/v2_depth_duration_MTurk/v2_DepthDuration_HTML.html#146,146,1440,789,1440,900,8-20-2022,10-57-16,73,depth_duration_stimuli/000109_2014-05-14_23-41-52_260595134347_rgbf000035-resize_9/000109_2014-05-14_23-41-52_260595134347_rgbf000035-resize_9-target.png,250,1.3545,1,6195,251,feet,jsons/v1_VE250_randls_42_rotated.json,1050617,1502232,38,Man
73,665356,DepthScenes,duration_manipulation_targetAtFixation,jsons/v1_VE250_randls_42_rotated.json,http://54.235.29.9/FacialAge/BNav_EC2/DepthDuration/v2_depth_duration_MTurk/v2_DepthDuration_HTML.html#146,146,1440,789,1440,900,8-20-2022,10-57-16,74,depth_duration_stimuli/000470_2014-06-09_19-42-40_260595134347_rgbf000094-resize_1/000470_2014-06-09_19-42-40_260595134347_rgbf000094-resize_1-target.png,250,1.831,1,6796,250,feet,jsons/v1_VE250_randls_42_rotated.json,1050617,1502232,38,Man
74,665356,DepthScenes,duration_manipulation_targetAtFixation,jsons/v1_VE250_randls_42_rotated.json,http://54.235.29.9/FacialAge/BNav_EC2/DepthDuration/v2_depth_duration_MTurk/v2_DepthDuration_HTML.html#146,146,1440,789,1440,900,8-20-2022,10-57-16,75,depth_duration_stimuli/000943_2014-06-09_19-31-07_260595134347_rgbf000128-resize_1/000943_2014-06-09_19-31-07_260595134347_rgbf000128-resize_1-target.png,250,1.9765,1,5916,251,feet,jsons/v1_VE250_randls_42_rotated.json,1050617,1502232,38,Man
75,665356,DepthScenes,duration_manipulation_targetAtFixation,jsons/v1_VE250_randls_42_rotated.json,http://54.235.29.9/FacialAge/BNav_EC2/DepthDuration/v2_depth_duration_MTurk/v2_DepthDuration_HTML.html#146,146,1440,789,1440,900,8-20-2022,10-57-16,76,depth_duration_stimuli/003070_2014-06-15_14-58-27_094959634447_rgbf000150-resize_3/003070_2014-06-15_14-58-27_094959634447_rgbf000150-resize_3-target.png,250,2.9415,1,6138,249,feet,jsons/v1_VE250_randls_42_rotated.json,1050617,1502232,38,Man
76,665356,DepthScenes,duration_manipulation_targetAtFixation,jsons/v1_VE250_randls_42_rotated.json,http://54.235.29.9/FacialAge/BNav_EC2/DepthDuration/v2_depth_duration_MTurk/v2_DepthDuration_HTML.html#146,146,1440,789,1440,900,8-20-2022,10-57-16,77,depth_duration_stimuli/002444_2014-06-28_20-32-08_260595134347_rgbf000027-resize_0/002444_2014-06-28_20-32-08_260595134347_rgbf000027-resize_0-target.png,250,4.388999999999999,1,7354,249,feet,jsons/v1_VE250_randls_42_rotated.json,1050617,1502232,38,Man
77,665356,DepthScenes,duration_manipulation_targetAtFixation,jsons/v1_VE250_randls_42_rotated.json,http://54.235.29.9/FacialAge/BNav_EC2/DepthDuration/v2_depth_duration_MTurk/v2_DepthDuration_HTML.html#146,146,1440,789,1440,900,8-20-2022,10-57-16,78,depth_duration_stimuli/000436_2014-06-09_22-25-11_260595134347_rgbf000137-resize_1/000436_2014-06-09_22-25-11_260595134347_rgbf000137-resize_1-target.png,250,4.0705,1,5329,250,feet,jsons/v1_VE250_randls_42_rotated.json,1050617,1502232,38,Man
78,665356,DepthScenes,duration_manipulation_targetAtFixation,jsons/v1_VE250_randls_42_rotated.json,http://54.235.29.9/FacialAge/BNav_EC2/DepthDuration/v2_depth_duration_MTurk/v2_DepthDuration_HTML.html#146,146,1440,789,1440,900,8-20-2022,10-57-16,79,depth_duration_stimuli/001584_2014-06-20_11-07-43_260595134347_rgbf000002-resize_1/001584_2014-06-20_11-07-43_260595134347_rgbf000002-resize_1-target.png,250,3.53,1,5202,249,feet,jsons/v1_VE250_randls_42_rotated.json,1050617,1502232,38,Man
79,665356,DepthScenes,duration_manipulation_targetAtFixation,jsons/v1_VE250_randls_42_rotated.json,http://54.235.29.9/FacialAge/BNav_EC2/DepthDuration/v2_depth_duration_MTurk/v2_DepthDuration_HTML.html#146,146,1440,789,1440,900,8-20-2022,10-57-16,80,depth_duration_stimuli/003621_2014-05-23_18-06-08_094959634447_rgbf000101-resize_1/003621_2014-05-23_18-06-08_094959634447_rgbf000101-resize_1-target.png,250,3.9835,1,5291,249,feet,jsons/v1_VE250_randls_42_rotated.json,1050617,1502232,38,Man
80,665356,DepthScenes,duration_manipulation_targetAtFixation,jsons/v1_VE250_randls_42_rotated.json,http://54.235.29.9/FacialAge/BNav_EC2/DepthDuration/v2_depth_duration_MTurk/v2_DepthDuration_HTML.html#146,146,1440,789,1440,900,8-20-2022,10-57-16,81,depth_duration_stimuli/001392_2014-06-19_16-07-59_260595134347_rgbf000046-resize_1/001392_2014-06-19_16-07-59_260595134347_rgbf000046-resize_1-target.png,250,4.135,1,5747,250,feet,jsons/v1_VE250_randls_42_rotated.json,1050617,1502232,38,Man
81,665356,DepthScenes,duration_manipulation_targetAtFixation,jsons/v1_VE250_randls_42_rotated.json,http://54.235.29.9/FacialAge/BNav_EC2/DepthDuration/v2_depth_duration_MTurk/v2_DepthDuration_HTML.html#146,146,1440,789,1440,900,8-20-2022,10-57-16,82,depth_duration_stimuli/001570_2014-06-20_17-21-09_260595134347_rgbf000135-resize_4/001570_2014-06-20_17-21-09_260595134347_rgbf000135-resize_4-target.png,250,4.467,1,6675,251,feet,jsons/v1_VE250_randls_42_rotated.json,1050617,1502232,38,Man
82,665356,DepthScenes,duration_manipulation_targetAtFixation,jsons/v1_VE250_randls_42_rotated.json,http://54.235.29.9/FacialAge/BNav_EC2/DepthDuration/v2_depth_duration_MTurk/v2_DepthDuration_HTML.html#146,146,1440,789,1440,900,8-20-2022,10-57-16,83,depth_duration_stimuli/002103_2014-06-25_20-00-40_260595134347_rgbf000049-resize_0/002103_2014-06-25_20-00-40_260595134347_rgbf000049-resize_0-target.png,250,4.105,1,5436,250,feet,jsons/v1_VE250_randls_42_rotated.json,1050617,1502232,38,Man
83,665356,DepthScenes,duration_manipulation_targetAtFixation,jsons/v1_VE250_randls_42_rotated.json,http://54.235.29.9/FacialAge/BNav_EC2/DepthDuration/v2_depth_duration_MTurk/v2_DepthDuration_HTML.html#146,146,1440,789,1440,900,8-20-2022,10-57-16,84,depth_duration_stimuli/002039_2014-06-24_20-22-38_260595134347_rgbf000084-resize_1/002039_2014-06-24_20-22-38_260595134347_rgbf000084-resize_1-target.png,250,4.408,1,5267,251,feet,jsons/v1_VE250_randls_42_rotated.json,1050617,1502232,38,Man
84,665356,DepthScenes,duration_manipulation_targetAtFixation,jsons/v1_VE250_randls_42_rotated.json,http://54.235.29.9/FacialAge/BNav_EC2/DepthDuration/v2_depth_duration_MTurk/v2_DepthDuration_HTML.html#146,146,1440,789,1440,900,8-20-2022,10-57-16,85,depth_duration_stimuli/001450_2014-06-19_17-02-03_260595134347_rgbf000203-resize_4/001450_2014-06-19_17-02-03_260595134347_rgbf000203-resize_4-target.png,250,4.0106666666667,1,5717,250,feet,jsons/v1_VE250_randls_42_rotated.json,1050617,1502232,38,Man
85,665356,DepthScenes,duration_manipulation_targetAtFixation,jsons/v1_VE250_randls_42_rotated.json,http://54.235.29.9/FacialAge/BNav_EC2/DepthDuration/v2_depth_duration_MTurk/v2_DepthDuration_HTML.html#146,146,1440,789,1440,900,8-20-2022,10-57-16,86,depth_duration_stimuli/001449_2014-06-19_17-01-27_260595134347_rgbf000116-resize_2/001449_2014-06-19_17-01-27_260595134347_rgbf000116-resize_2-target.png,250,3.452,1,6891,251,feet,jsons/v1_VE250_randls_42_rotated.json,1050617,1502232,38,Man
86,665356,DepthScenes,duration_manipulation_targetAtFixation,jsons/v1_VE250_randls_42_rotated.json,http://54.235.29.9/FacialAge/BNav_EC2/DepthDuration/v2_depth_duration_MTurk/v2_DepthDuration_HTML.html#146,146,1440,789,1440,900,8-20-2022,10-57-16,87,depth_duration_stimuli/000483_2014-06-09_20-41-45_260595134347_rgbf000116-resize_4/000483_2014-06-09_20-41-45_260595134347_rgbf000116-resize_4-target.png,250,1.337,1,4882,249,feet,jsons/v1_VE250_randls_42_rotated.json,1050617,1502232,38,Man
87,665356,DepthScenes,duration_manipulation_targetAtFixation,jsons/v1_VE250_randls_42_rotated.json,http://54.235.29.9/FacialAge/BNav_EC2/DepthDuration/v2_depth_duration_MTurk/v2_DepthDuration_HTML.html#146,146,1440,789,1440,900,8-20-2022,10-57-16,88,depth_duration_stimuli/000469_2014-06-09_19-42-10_260595134347_rgbf000081-resize_1/000469_2014-06-09_19-42-10_260595134347_rgbf000081-resize_1-target.png,250,1.652,1,5475,250,feet,jsons/v1_VE250_randls_42_rotated.json,1050617,1502232,38,Man
88,665356,DepthScenes,duration_manipulation_targetAtFixation,jsons/v1_VE250_randls_42_rotated.json,http://54.235.29.9/FacialAge/BNav_EC2/DepthDuration/v2_depth_duration_MTurk/v2_DepthDuration_HTML.html#146,146,1440,789,1440,900,8-20-2022,10-57-16,89,depth_duration_stimuli/000409_2014-06-04_19-23-33_260595134347_rgbf000067-resize_0/000409_2014-06-04_19-23-33_260595134347_rgbf000067-resize_0-target.png,250,3.7335,1,6467,251,feet,jsons/v1_VE250_randls_42_rotated.json,1050617,1502232,38,Man
89,665356,DepthScenes,duration_manipulation_targetAtFixation,jsons/v1_VE250_randls_42_rotated.json,http://54.235.29.9/FacialAge/BNav_EC2/DepthDuration/v2_depth_duration_MTurk/v2_DepthDuration_HTML.html#146,146,1440,789,1440,900,8-20-2022,10-57-16,90,depth_duration_stimuli/002663_2014-06-13_15-50-26_094959634447_rgbf000075-resize_1/002663_2014-06-13_15-50-26_094959634447_rgbf000075-resize_1-target.png,250,4.7495,1,5404,251,feet,jsons/v1_VE250_randls_42_rotated.json,1050617,1502232,38,Man
90,665356,DepthScenes,duration_manipulation_targetAtFixation,jsons/v1_VE250_randls_42_rotated.json,http://54.235.29.9/FacialAge/BNav_EC2/DepthDuration/v2_depth_duration_MTurk/v2_DepthDuration_HTML.html#146,146,1440,789,1440,900,8-20-2022,10-57-16,91,depth_duration_stimuli/002949_2014-06-26_15-57-42_094959634447_rgbf000079-resize_1/002949_2014-06-26_15-57-42_094959634447_rgbf000079-resize_1-target.png,250,1.8915,1,5882,249,feet,jsons/v1_VE250_randls_42_rotated.json,1050617,1502232,38,Man
91,665356,DepthScenes,duration_manipulation_targetAtFixation,jsons/v1_VE250_randls_42_rotated.json,http://54.235.29.9/FacialAge/BNav_EC2/DepthDuration/v2_depth_duration_MTurk/v2_DepthDuration_HTML.html#146,146,1440,789,1440,900,8-20-2022,10-57-16,92,depth_duration_stimuli/000522_2014-06-08_13-35-06_260595134347_rgbf000244-resize_1/000522_2014-06-08_13-35-06_260595134347_rgbf000244-resize_1-target.png,250,2.3715,1,6395,250,feet,jsons/v1_VE250_randls_42_rotated.json,1050617,1502232,38,Man
92,665356,DepthScenes,duration_manipulation_targetAtFixation,jsons/v1_VE250_randls_42_rotated.json,http://54.235.29.9/FacialAge/BNav_EC2/DepthDuration/v2_depth_duration_MTurk/v2_DepthDuration_HTML.html#146,146,1440,789,1440,900,8-20-2022,10-57-16,93,depth_duration_stimuli/000691_2014-06-08_13-08-50_260595134347_rgbf000132-resize_3/000691_2014-06-08_13-08-50_260595134347_rgbf000132-resize_3-target.png,250,4.1530000000000005,1,5452,250,feet,jsons/v1_VE250_randls_42_rotated.json,1050617,1502232,38,Man
93,665356,DepthScenes,duration_manipulation_targetAtFixation,jsons/v1_VE250_randls_42_rotated.json,http://54.235.29.9/FacialAge/BNav_EC2/DepthDuration/v2_depth_duration_MTurk/v2_DepthDuration_HTML.html#146,146,1440,789,1440,900,8-20-2022,10-57-16,94,depth_duration_stimuli/002213_2014-06-28_18-37-58_260595134347_rgbf000055-resize_1/002213_2014-06-28_18-37-58_260595134347_rgbf000055-resize_1-target.png,250,3.62,1,5051,250,feet,jsons/v1_VE250_randls_42_rotated.json,1050617,1502232,38,Man
94,665356,DepthScenes,duration_manipulation_targetAtFixation,jsons/v1_VE250_randls_42_rotated.json,http://54.235.29.9/FacialAge/BNav_EC2/DepthDuration/v2_depth_duration_MTurk/v2_DepthDuration_HTML.html#146,146,1440,789,1440,900,8-20-2022,10-57-16,95,depth_duration_stimuli/002467_2014-06-28_20-38-07_260595134347_rgbf000026-resize_2/002467_2014-06-28_20-38-07_260595134347_rgbf000026-resize_2-target.png,250,4.742,1,7660,251,feet,jsons/v1_VE250_randls_42_rotated.json,1050617,1502232,38,Man
95,665356,DepthScenes,duration_manipulation_targetAtFixation,jsons/v1_VE250_randls_42_rotated.json,http://54.235.29.9/FacialAge/BNav_EC2/DepthDuration/v2_depth_duration_MTurk/v2_DepthDuration_HTML.html#146,146,1440,789,1440,900,8-20-2022,10-57-16,96,depth_duration_stimuli/002570_2014-06-24_13-59-54_094959634447_rgbf000059-resize_0/002570_2014-06-24_13-59-54_094959634447_rgbf000059-resize_0-target.png,250,4.037,1,5659,251,feet,jsons/v1_VE250_randls_42_rotated.json,1050617,1502232,38,Man
96,665356,DepthScenes,duration_manipulation_targetAtFixation,jsons/v1_VE250_randls_42_rotated.json,http://54.235.29.9/FacialAge/BNav_EC2/DepthDuration/v2_depth_duration_MTurk/v2_DepthDuration_HTML.html#146,146,1440,789,1440,900,8-20-2022,10-57-16,97,depth_duration_stimuli/003048_2014-06-15_13-49-43_094959634447_rgbf000150-resize_1/003048_2014-06-15_13-49-43_094959634447_rgbf000150-resize_1-target.png,250,4.0035,1,6164,250,feet,jsons/v1_VE250_randls_42_rotated.json,1050617,1502232,38,Man
97,665356,DepthScenes,duration_manipulation_targetAtFixation,jsons/v1_VE250_randls_42_rotated.json,http://54.235.29.9/FacialAge/BNav_EC2/DepthDuration/v2_depth_duration_MTurk/v2_DepthDuration_HTML.html#146,146,1440,789,1440,900,8-20-2022,10-57-16,98,depth_duration_stimuli/002043_2014-06-24_20-29-38_260595134347_rgbf000039-resize_4/002043_2014-06-24_20-29-38_260595134347_rgbf000039-resize_4-target.png,250,2.8435,1,5689,249,feet,jsons/v1_VE250_randls_42_rotated.json,1050617,1502232,38,Man
98,665356,DepthScenes,duration_manipulation_targetAtFixation,jsons/v1_VE250_randls_42_rotated.json,http://54.235.29.9/FacialAge/BNav_EC2/DepthDuration/v2_depth_duration_MTurk/v2_DepthDuration_HTML.html#146,146,1440,789,1440,900,8-20-2022,10-57-16,99,depth_duration_stimuli/001222_2014-06-17_16-24-06_260595134347_rgbf000073-resize_0/001222_2014-06-17_16-24-06_260595134347_rgbf000073-resize-original.jpg,250,1.4385,0,6348,251,feet,jsons/v1_VE250_randls_42_rotated.json,1050617,1502232,38,Man
99,665356,DepthScenes,duration_manipulation_targetAtFixation,jsons/v1_VE250_randls_42_rotated.json,http://54.235.29.9/FacialAge/BNav_EC2/DepthDuration/v2_depth_duration_MTurk/v2_DepthDuration_HTML.html#146,146,1440,789,1440,900,8-20-2022,10-57-16,100,depth_duration_stimuli/001032_2014-06-08_13-23-17_260595134347_rgbf000021-resize_3/001032_2014-06-08_13-23-17_260595134347_rgbf000021-resize_3-target.png,250,3.2725,1,5481,250,feet,jsons/v1_VE250_randls_42_rotated.json,1050617,1502232,38,Man
100,665356,DepthScenes,duration_manipulation_targetAtFixation,jsons/v1_VE250_randls_42_rotated.json,http://54.235.29.9/FacialAge/BNav_EC2/DepthDuration/v2_depth_duration_MTurk/v2_DepthDuration_HTML.html#146,146,1440,789,1440,900,8-20-2022,10-57-16,101,depth_duration_stimuli/001059_2014-06-08_21-53-27_260595134347_rgbf000061-resize_4/001059_2014-06-08_21-53-27_260595134347_rgbf000061-resize_4-target.png,250,2.4185,1,7043,251,feet,jsons/v1_VE250_randls_42_rotated.json,1050617,1502232,38,Man
101,665356,DepthScenes,duration_manipulation_targetAtFixation,jsons/v1_VE250_randls_42_rotated.json,http://54.235.29.9/FacialAge/BNav_EC2/DepthDuration/v2_depth_duration_MTurk/v2_DepthDuration_HTML.html#146,146,1440,789,1440,900,8-20-2022,10-57-16,102,depth_duration_stimuli/002340_2014-06-28_20-05-46_260595134347_rgbf000113-resize_0/002340_2014-06-28_20-05-46_260595134347_rgbf000113-resize_0-target.png,250,2.4735,1,5522,250,feet,jsons/v1_VE250_randls_42_rotated.json,1050617,1502232,38,Man
102,665356,DepthScenes,duration_manipulation_targetAtFixation,jsons/v1_VE250_randls_42_rotated.json,http://54.235.29.9/FacialAge/BNav_EC2/DepthDuration/v2_depth_duration_MTurk/v2_DepthDuration_HTML.html#146,146,1440,789,1440,900,8-20-2022,10-57-16,103,depth_duration_stimuli/001016_2014-06-09_16-16-10_260595134347_rgbf000112-resize_5/001016_2014-06-09_16-16-10_260595134347_rgbf000112-resize_5-target.png,250,1.6565,1,5993,249,feet,jsons/v1_VE250_randls_42_rotated.json,1050617,1502232,38,Man
103,665356,DepthScenes,duration_manipulation_targetAtFixation,jsons/v1_VE250_randls_42_rotated.json,http://54.235.29.9/FacialAge/BNav_EC2/DepthDuration/v2_depth_duration_MTurk/v2_DepthDuration_HTML.html#146,146,1440,789,1440,900,8-20-2022,10-57-16,104,depth_duration_stimuli/003587_2014-05-23_16-48-02_094959634447_rgbf002384-resize_2/003587_2014-05-23_16-48-02_094959634447_rgbf002384-resize_2-target.png,250,1.357,1,5378,250,feet,jsons/v1_VE250_randls_42_rotated.json,1050617,1502232,38,Man
104,665356,DepthScenes,duration_manipulation_targetAtFixation,jsons/v1_VE250_randls_42_rotated.json,http://54.235.29.9/FacialAge/BNav_EC2/DepthDuration/v2_depth_duration_MTurk/v2_DepthDuration_HTML.html#146,146,1440,789,1440,900,8-20-2022,10-57-16,105,depth_duration_stimuli/001167_2014-06-17_15-38-07_260595134347_rgbf000108-resize_0/001167_2014-06-17_15-38-07_260595134347_rgbf000108-resize_0-target.png,250,1.8505,1,6499,252,feet,jsons/v1_VE250_randls_42_rotated.json,1050617,1502232,38,Man
105,665356,DepthScenes,duration_manipulation_targetAtFixation,jsons/v1_VE250_randls_42_rotated.json,http://54.235.29.9/FacialAge/BNav_EC2/DepthDuration/v2_depth_duration_MTurk/v2_DepthDuration_HTML.html#146,146,1440,789,1440,900,8-20-2022,10-57-16,106,depth_duration_stimuli/000749_2014-06-08_21-55-06_260595134347_rgbf000070-resize_2/000749_2014-06-08_21-55-06_260595134347_rgbf000070-resize_2-target.png,250,2.331,1,5754,251,feet,jsons/v1_VE250_randls_42_rotated.json,1050617,1502232,38,Man
106,665356,DepthScenes,duration_manipulation_targetAtFixation,jsons/v1_VE250_randls_42_rotated.json,http://54.235.29.9/FacialAge/BNav_EC2/DepthDuration/v2_depth_duration_MTurk/v2_DepthDuration_HTML.html#146,146,1440,789,1440,900,8-20-2022,10-57-16,107,depth_duration_stimuli/002788_2014-06-22_19-36-03_094959634447_rgbf000088-resize_2/002788_2014-06-22_19-36-03_094959634447_rgbf000088-resize_2-target.png,250,1.6465,1,5043,251,feet,jsons/v1_VE250_randls_42_rotated.json,1050617,1502232,38,Man
107,665356,DepthScenes,duration_manipulation_targetAtFixation,jsons/v1_VE250_randls_42_rotated.json,http://54.235.29.9/FacialAge/BNav_EC2/DepthDuration/v2_depth_duration_MTurk/v2_DepthDuration_HTML.html#146,146,1440,789,1440,900,8-20-2022,10-57-16,108,depth_duration_stimuli/001094_2014-06-15_17-36-00_260595134347_rgbf000205-resize_0/001094_2014-06-15_17-36-00_260595134347_rgbf000205-resize_0-target.png,250,4.2175,1,4993,250,feet,jsons/v1_VE250_randls_42_rotated.json,1050617,1502232,38,Man
108,665356,DepthScenes,duration_manipulation_targetAtFixation,jsons/v1_VE250_randls_42_rotated.json,http://54.235.29.9/FacialAge/BNav_EC2/DepthDuration/v2_depth_duration_MTurk/v2_DepthDuration_HTML.html#146,146,1440,789,1440,900,8-20-2022,10-57-16,109,depth_duration_stimuli/000692_2014-06-08_13-09-42_260595134347_rgbf000199-resize_2/000692_2014-06-08_13-09-42_260595134347_rgbf000199-resize_2-target.png,250,3.661,1,4988,251,feet,jsons/v1_VE250_randls_42_rotated.json,1050617,1502232,38,Man
109,665356,DepthScenes,duration_manipulation_targetAtFixation,jsons/v1_VE250_randls_42_rotated.json,http://54.235.29.9/FacialAge/BNav_EC2/DepthDuration/v2_depth_duration_MTurk/v2_DepthDuration_HTML.html#146,146,1440,789,1440,900,8-20-2022,10-57-16,110,depth_duration_stimuli/002953_2014-06-08_17-32-18_094959634447_rgbf000059-resize_5/002953_2014-06-08_17-32-18_094959634447_rgbf000059-resize_5-target.png,250,1.551,1,4985,249,feet,jsons/v1_VE250_randls_42_rotated.json,1050617,1502232,38,Man
110,665356,DepthScenes,duration_manipulation_targetAtFixation,jsons/v1_VE250_randls_42_rotated.json,http://54.235.29.9/FacialAge/BNav_EC2/DepthDuration/v2_depth_duration_MTurk/v2_DepthDuration_HTML.html#146,146,1440,789,1440,900,8-20-2022,10-57-16,111,depth_duration_stimuli/000878_2014-06-08_22-52-45_260595134347_rgbf000045-resize_2/000878_2014-06-08_22-52-45_260595134347_rgbf000045-resize_2-target.png,250,2.092,1,4899,250,feet,jsons/v1_VE250_randls_42_rotated.json,1050617,1502232,38,Man
111,665356,DepthScenes,duration_manipulation_targetAtFixation,jsons/v1_VE250_randls_42_rotated.json,http://54.235.29.9/FacialAge/BNav_EC2/DepthDuration/v2_depth_duration_MTurk/v2_DepthDuration_HTML.html#146,146,1440,789,1440,900,8-20-2022,10-57-16,112,depth_duration_stimuli/002425_2014-06-28_20-27-29_260595134347_rgbf000031-resize_8/002425_2014-06-28_20-27-29_260595134347_rgbf000031-resize_8-target.png,250,3.8960000000000004,1,5258,250,feet,jsons/v1_VE250_randls_42_rotated.json,1050617,1502232,38,Man
112,665356,DepthScenes,duration_manipulation_targetAtFixation,jsons/v1_VE250_randls_42_rotated.json,http://54.235.29.9/FacialAge/BNav_EC2/DepthDuration/v2_depth_duration_MTurk/v2_DepthDuration_HTML.html#146,146,1440,789,1440,900,8-20-2022,10-57-16,113,depth_duration_stimuli/000642_2014-06-08_16-59-25_260595134347_rgbf000098-resize_2/000642_2014-06-08_16-59-25_260595134347_rgbf000098-resize_2-target.png,250,2.8815,1,5610,250,feet,jsons/v1_VE250_randls_42_rotated.json,1050617,1502232,38,Man
113,665356,DepthScenes,duration_manipulation_targetAtFixation,jsons/v1_VE250_randls_42_rotated.json,http://54.235.29.9/FacialAge/BNav_EC2/DepthDuration/v2_depth_duration_MTurk/v2_DepthDuration_HTML.html#146,146,1440,789,1440,900,8-20-2022,10-57-16,114,depth_duration_stimuli/000734_2014-06-08_17-39-11_260595134347_rgbf000128-resize_2/000734_2014-06-08_17-39-11_260595134347_rgbf000128-resize_2-target.png,250,4.098,1,5443,251,feet,jsons/v1_VE250_randls_42_rotated.json,1050617,1502232,38,Man
114,665356,DepthScenes,duration_manipulation_targetAtFixation,jsons/v1_VE250_randls_42_rotated.json,http://54.235.29.9/FacialAge/BNav_EC2/DepthDuration/v2_depth_duration_MTurk/v2_DepthDuration_HTML.html#146,146,1440,789,1440,900,8-20-2022,10-57-16,115,depth_duration_stimuli/000739_2014-06-08_18-45-58_260595134347_rgbf000068-resize_1/000739_2014-06-08_18-45-58_260595134347_rgbf000068-resize_1-target.png,250,3.534,1,7714,250,feet,jsons/v1_VE250_randls_42_rotated.json,1050617,1502232,38,Man
115,665356,DepthScenes,duration_manipulation_targetAtFixation,jsons/v1_VE250_randls_42_rotated.json,http://54.235.29.9/FacialAge/BNav_EC2/DepthDuration/v2_depth_duration_MTurk/v2_DepthDuration_HTML.html#146,146,1440,789,1440,900,8-20-2022,10-57-16,116,depth_duration_stimuli/000927_2014-06-09_16-32-30_260595134347_rgbf000123-resize_3/000927_2014-06-09_16-32-30_260595134347_rgbf000123-resize_3-target.png,250,2.6785,1,5466,249,feet,jsons/v1_VE250_randls_42_rotated.json,1050617,1502232,38,Man
116,665356,DepthScenes,duration_manipulation_targetAtFixation,jsons/v1_VE250_randls_42_rotated.json,http://54.235.29.9/FacialAge/BNav_EC2/DepthDuration/v2_depth_duration_MTurk/v2_DepthDuration_HTML.html#146,146,1440,789,1440,900,8-20-2022,10-57-16,117,depth_duration_stimuli/001110_2014-06-15_17-25-28_260595134347_rgbf000150-resize_1/001110_2014-06-15_17-25-28_260595134347_rgbf000150-resize_1-target.png,250,1.7115,1,5706,249,feet,jsons/v1_VE250_randls_42_rotated.json,1050617,1502232,38,Man
117,665356,DepthScenes,duration_manipulation_targetAtFixation,jsons/v1_VE250_randls_42_rotated.json,http://54.235.29.9/FacialAge/BNav_EC2/DepthDuration/v2_depth_duration_MTurk/v2_DepthDuration_HTML.html#146,146,1440,789,1440,900,8-20-2022,10-57-16,118,depth_duration_stimuli/003079_2014-06-15_15-18-20_094959634447_rgbf000152-resize_8/003079_2014-06-15_15-18-20_094959634447_rgbf000152-resize_8-target.png,250,2.8775,1,5154,250,feet,jsons/v1_VE250_randls_42_rotated.json,1050617,1502232,38,Man
118,665356,DepthScenes,duration_manipulation_targetAtFixation,jsons/v1_VE250_randls_42_rotated.json,http://54.235.29.9/FacialAge/BNav_EC2/DepthDuration/v2_depth_duration_MTurk/v2_DepthDuration_HTML.html#146,146,1440,789,1440,900,8-20-2022,10-57-16,119,depth_duration_stimuli/000506_2014-06-08_23-21-00_260595134347_rgbf000070-resize_7/000506_2014-06-08_23-21-00_260595134347_rgbf000070-resize_7-target.png,250,4.0585,1,6668,250,feet,jsons/v1_VE250_randls_42_rotated.json,1050617,1502232,38,Man
119,665356,DepthScenes,duration_manipulation_targetAtFixation,jsons/v1_VE250_randls_42_rotated.json,http://54.235.29.9/FacialAge/BNav_EC2/DepthDuration/v2_depth_duration_MTurk/v2_DepthDuration_HTML.html#146,146,1440,789,1440,900,8-20-2022,10-57-16,120,depth_duration_stimuli/000787_2014-06-08_22-33-53_260595134347_rgbf000175-resize_1/000787_2014-06-08_22-33-53_260595134347_rgbf000175-resize-original.jpg,250,4.784,0,6218,250,feet,jsons/v1_VE250_randls_42_rotated.json,1050617,1502232,38,Man
120,665356,DepthScenes,duration_manipulation_targetAtFixation,jsons/v1_VE250_randls_42_rotated.json,http://54.235.29.9/FacialAge/BNav_EC2/DepthDuration/v2_depth_duration_MTurk/v2_DepthDuration_HTML.html#146,146,1440,789,1440,900,8-20-2022,10-57-16,121,depth_duration_stimuli/002637_2014-06-24_14-51-13_094959634447_rgbf000066-resize_4/002637_2014-06-24_14-51-13_094959634447_rgbf000066-resize_4-target.png,250,1.9955,1,5107,251,feet,jsons/v1_VE250_randls_42_rotated.json,1050617,1502232,38,Man
121,665356,DepthScenes,duration_manipulation_targetAtFixation,jsons/v1_VE250_randls_42_rotated.json,http://54.235.29.9/FacialAge/BNav_EC2/DepthDuration/v2_depth_duration_MTurk/v2_DepthDuration_HTML.html#146,146,1440,789,1440,900,8-20-2022,10-57-16,122,depth_duration_stimuli/003534_2014-05-22_15-06-10_094959634447_rgbf000102-resize_4/003534_2014-05-22_15-06-10_094959634447_rgbf000102-resize_4-target.png,250,1.426,1,5674,251,feet,jsons/v1_VE250_randls_42_rotated.json,1050617,1502232,38,Man
122,665356,DepthScenes,duration_manipulation_targetAtFixation,jsons/v1_VE250_randls_42_rotated.json,http://54.235.29.9/FacialAge/BNav_EC2/DepthDuration/v2_depth_duration_MTurk/v2_DepthDuration_HTML.html#146,146,1440,789,1440,900,8-20-2022,10-57-16,123,depth_duration_stimuli/002995_2014-06-15_12-31-26_094959634447_rgbf000150-resize_1/002995_2014-06-15_12-31-26_094959634447_rgbf000150-resize_1-target.png,250,3.8360000000000003,1,5395,250,feet,jsons/v1_VE250_randls_42_rotated.json,1050617,1502232,38,Man
123,665356,DepthScenes,duration_manipulation_targetAtFixation,jsons/v1_VE250_randls_42_rotated.json,http://54.235.29.9/FacialAge/BNav_EC2/DepthDuration/v2_depth_duration_MTurk/v2_DepthDuration_HTML.html#146,146,1440,789,1440,900,8-20-2022,10-57-16,124,depth_duration_stimuli/002748_2014-06-22_19-07-22_094959634447_rgbf000078-resize_1/002748_2014-06-22_19-07-22_094959634447_rgbf000078-resize_1-target.png,250,4.6705,1,5652,250,feet,jsons/v1_VE250_randls_42_rotated.json,1050617,1502232,38,Man
124,665356,DepthScenes,duration_manipulation_targetAtFixation,jsons/v1_VE250_randls_42_rotated.json,http://54.235.29.9/FacialAge/BNav_EC2/DepthDuration/v2_depth_duration_MTurk/v2_DepthDuration_HTML.html#146,146,1440,789,1440,900,8-20-2022,10-57-16,125,depth_duration_stimuli/000549_2014-06-08_22-10-24_260595134347_rgbf000247-resize_3/000549_2014-06-08_22-10-24_260595134347_rgbf000247-resize_3-target.png,250,1.841,1,4941,250,feet,jsons/v1_VE250_randls_42_rotated.json,1050617,1502232,38,Man
125,665356,DepthScenes,duration_manipulation_targetAtFixation,jsons/v1_VE250_randls_42_rotated.json,http://54.235.29.9/FacialAge/BNav_EC2/DepthDuration/v2_depth_duration_MTurk/v2_DepthDuration_HTML.html#146,146,1440,789,1440,900,8-20-2022,10-57-16,126,depth_duration_stimuli/001055_2014-06-08_18-45-35_260595134347_rgbf000111-resize_4/001055_2014-06-08_18-45-35_260595134347_rgbf000111-resize_4-target.png,250,2.4290000000000003,1,5233,250,feet,jsons/v1_VE250_randls_42_rotated.json,1050617,1502232,38,Man
126,665356,DepthScenes,duration_manipulation_targetAtFixation,jsons/v1_VE250_randls_42_rotated.json,http://54.235.29.9/FacialAge/BNav_EC2/DepthDuration/v2_depth_duration_MTurk/v2_DepthDuration_HTML.html#146,146,1440,789,1440,900,8-20-2022,10-57-16,127,depth_duration_stimuli/002209_2014-06-28_18-36-10_260595134347_rgbf000051-resize_1/002209_2014-06-28_18-36-10_260595134347_rgbf000051-resize_1-target.png,250,2.057,1,5707,250,feet,jsons/v1_VE250_randls_42_rotated.json,1050617,1502232,38,Man
127,665356,DepthScenes,duration_manipulation_targetAtFixation,jsons/v1_VE250_randls_42_rotated.json,http://54.235.29.9/FacialAge/BNav_EC2/DepthDuration/v2_depth_duration_MTurk/v2_DepthDuration_HTML.html#146,146,1440,789,1440,900,8-20-2022,10-57-16,128,depth_duration_stimuli/002763_2014-06-22_19-13-10_094959634447_rgbf000075-resize_4/002763_2014-06-22_19-13-10_094959634447_rgbf000075-resize_4-target.png,250,1.68375,1,5625,250,feet,jsons/v1_VE250_randls_42_rotated.json,1050617,1502232,38,Man
128,665356,DepthScenes,duration_manipulation_targetAtFixation,jsons/v1_VE250_randls_42_rotated.json,http://54.235.29.9/FacialAge/BNav_EC2/DepthDuration/v2_depth_duration_MTurk/v2_DepthDuration_HTML.html#146,146,1440,789,1440,900,8-20-2022,10-57-16,129,depth_duration_stimuli/002678_2014-06-13_16-15-32_094959634447_rgbf000151-resize_6/002678_2014-06-13_16-15-32_094959634447_rgbf000151-resize_6-target.png,250,2.1830000000000003,1,6314,249,feet,jsons/v1_VE250_randls_42_rotated.json,1050617,1502232,38,Man
129,665356,DepthScenes,duration_manipulation_targetAtFixation,jsons/v1_VE250_randls_42_rotated.json,http://54.235.29.9/FacialAge/BNav_EC2/DepthDuration/v2_depth_duration_MTurk/v2_DepthDuration_HTML.html#146,146,1440,789,1440,900,8-20-2022,10-57-16,130,depth_duration_stimuli/000368_2014-06-09_15-53-01_260595134347_rgbf000155-resize_2/000368_2014-06-09_15-53-01_260595134347_rgbf000155-resize_2-target.png,250,2.4859999999999998,1,5235,250,feet,jsons/v1_VE250_randls_42_rotated.json,1050617,1502232,38,Man
130,665356,DepthScenes,duration_manipulation_targetAtFixation,jsons/v1_VE250_randls_42_rotated.json,http://54.235.29.9/FacialAge/BNav_EC2/DepthDuration/v2_depth_duration_MTurk/v2_DepthDuration_HTML.html#146,146,1440,789,1440,900,8-20-2022,10-57-16,131,depth_duration_stimuli/003081_2014-06-15_15-19-16_094959634447_rgbf000150-resize_1/003081_2014-06-15_15-19-16_094959634447_rgbf000150-resize_1-target.png,250,3.9125,1,5313,250,feet,jsons/v1_VE250_randls_42_rotated.json,1050617,1502232,38,Man
131,665356,DepthScenes,duration_manipulation_targetAtFixation,jsons/v1_VE250_randls_42_rotated.json,http://54.235.29.9/FacialAge/BNav_EC2/DepthDuration/v2_depth_duration_MTurk/v2_DepthDuration_HTML.html#146,146,1440,789,1440,900,8-20-2022,10-57-16,132,depth_duration_stimuli/001417_2014-06-19_16-25-36_260595134347_rgbf000115-resize_5/001417_2014-06-19_16-25-36_260595134347_rgbf000115-resize_5-target.png,250,4.6255,1,4979,251,feet,jsons/v1_VE250_randls_42_rotated.json,1050617,1502232,38,Man
132,665356,DepthScenes,duration_manipulation_targetAtFixation,jsons/v1_VE250_randls_42_rotated.json,http://54.235.29.9/FacialAge/BNav_EC2/DepthDuration/v2_depth_duration_MTurk/v2_DepthDuration_HTML.html#146,146,1440,789,1440,900,8-20-2022,10-57-16,133,depth_duration_stimuli/003083_2014-06-15_15-21-03_094959634447_rgbf000063-resize_1/003083_2014-06-15_15-21-03_094959634447_rgbf000063-resize_1-target.png,250,4.1405,1,5137,250,feet,jsons/v1_VE250_randls_42_rotated.json,1050617,1502232,38,Man
133,665356,DepthScenes,duration_manipulation_targetAtFixation,jsons/v1_VE250_randls_42_rotated.json,http://54.235.29.9/FacialAge/BNav_EC2/DepthDuration/v2_depth_duration_MTurk/v2_DepthDuration_HTML.html#146,146,1440,789,1440,900,8-20-2022,10-57-16,134,depth_duration_stimuli/000486_2014-06-09_20-47-20_260595134347_rgbf000143-resize_2/000486_2014-06-09_20-47-20_260595134347_rgbf000143-resize_2-target.png,250,4.8325,1,5373,250,feet,jsons/v1_VE250_randls_42_rotated.json,1050617,1502232,38,Man
134,665356,DepthScenes,duration_manipulation_targetAtFixation,jsons/v1_VE250_randls_42_rotated.json,http://54.235.29.9/FacialAge/BNav_EC2/DepthDuration/v2_depth_duration_MTurk/v2_DepthDuration_HTML.html#146,146,1440,789,1440,900,8-20-2022,10-57-16,135,depth_duration_stimuli/000375_2014-06-08_11-17-29_260595134347_rgbf000133-resize_2/000375_2014-06-08_11-17-29_260595134347_rgbf000133-resize-original.jpg,250,4.718,0,5940,250,feet,jsons/v1_VE250_randls_42_rotated.json,1050617,1502232,38,Man
135,665356,DepthScenes,duration_manipulation_targetAtFixation,jsons/v1_VE250_randls_42_rotated.json,http://54.235.29.9/FacialAge/BNav_EC2/DepthDuration/v2_depth_duration_MTurk/v2_DepthDuration_HTML.html#146,146,1440,789,1440,900,8-20-2022,10-57-16,136,depth_duration_stimuli/002344_2014-06-28_20-06-29_260595134347_rgbf000030-resize_1/002344_2014-06-28_20-06-29_260595134347_rgbf000030-resize_1-target.png,250,1.5795,1,5162,251,feet,jsons/v1_VE250_randls_42_rotated.json,1050617,1502232,38,Man
136,665356,DepthScenes,duration_manipulation_targetAtFixation,jsons/v1_VE250_randls_42_rotated.json,http://54.235.29.9/FacialAge/BNav_EC2/DepthDuration/v2_depth_duration_MTurk/v2_DepthDuration_HTML.html#146,146,1440,789,1440,900,8-20-2022,10-57-16,137,depth_duration_stimuli/002725_2014-06-22_11-47-51_094959634447_rgbf000070-resize_1/002725_2014-06-22_11-47-51_094959634447_rgbf000070-resize_1-target.png,250,2.195,1,5043,251,feet,jsons/v1_VE250_randls_42_rotated.json,1050617,1502232,38,Man
137,665356,DepthScenes,duration_manipulation_targetAtFixation,jsons/v1_VE250_randls_42_rotated.json,http://54.235.29.9/FacialAge/BNav_EC2/DepthDuration/v2_depth_duration_MTurk/v2_DepthDuration_HTML.html#146,146,1440,789,1440,900,8-20-2022,10-57-16,138,depth_duration_stimuli/000742_2014-06-08_18-48-09_260595134347_rgbf000164-resize_4/000742_2014-06-08_18-48-09_260595134347_rgbf000164-resize_4-target.png,250,4.632,1,5371,250,feet,jsons/v1_VE250_randls_42_rotated.json,1050617,1502232,38,Man
138,665356,DepthScenes,duration_manipulation_targetAtFixation,jsons/v1_VE250_randls_42_rotated.json,http://54.235.29.9/FacialAge/BNav_EC2/DepthDuration/v2_depth_duration_MTurk/v2_DepthDuration_HTML.html#146,146,1440,789,1440,900,8-20-2022,10-57-16,139,depth_duration_stimuli/001066_2014-06-08_22-03-20_260595134347_rgbf000066-resize_4/001066_2014-06-08_22-03-20_260595134347_rgbf000066-resize_4-target.png,250,4.2330000000000005,1,7026,250,feet,jsons/v1_VE250_randls_42_rotated.json,1050617,1502232,38,Man
139,665356,DepthScenes,duration_manipulation_targetAtFixation,jsons/v1_VE250_randls_42_rotated.json,http://54.235.29.9/FacialAge/BNav_EC2/DepthDuration/v2_depth_duration_MTurk/v2_DepthDuration_HTML.html#146,146,1440,789,1440,900,8-20-2022,10-57-16,140,depth_duration_stimuli/003495_2014-05-21_16-01-51_094959634447_rgbf000100-resize_3/003495_2014-05-21_16-01-51_094959634447_rgbf000100-resize_3-target.png,250,1.6255,1,5181,250,feet,jsons/v1_VE250_randls_42_rotated.json,1050617,1502232,38,Man
140,665356,DepthScenes,duration_manipulation_targetAtFixation,jsons/v1_VE250_randls_42_rotated.json,http://54.235.29.9/FacialAge/BNav_EC2/DepthDuration/v2_depth_duration_MTurk/v2_DepthDuration_HTML.html#146,146,1440,789,1440,900,8-20-2022,10-57-16,141,depth_duration_stimuli/001244_2014-06-17_16-47-45_260595134347_rgbf000030-resize_4/001244_2014-06-17_16-47-45_260595134347_rgbf000030-resize_4-target.png,250,2.0425,1,5745,250,feet,jsons/v1_VE250_randls_42_rotated.json,1050617,1502232,38,Man
141,665356,DepthScenes,duration_manipulation_targetAtFixation,jsons/v1_VE250_randls_42_rotated.json,http://54.235.29.9/FacialAge/BNav_EC2/DepthDuration/v2_depth_duration_MTurk/v2_DepthDuration_HTML.html#146,146,1440,789,1440,900,8-20-2022,10-57-16,142,depth_duration_stimuli/003338_2014-05-20_11-01-23_094959634447_rgbf000051-resize_6/003338_2014-05-20_11-01-23_094959634447_rgbf000051-resize_6-target.png,250,1.693,1,6104,249,feet,jsons/v1_VE250_randls_42_rotated.json,1050617,1502232,38,Man
142,665356,DepthScenes,duration_manipulation_targetAtFixation,jsons/v1_VE250_randls_42_rotated.json,http://54.235.29.9/FacialAge/BNav_EC2/DepthDuration/v2_depth_duration_MTurk/v2_DepthDuration_HTML.html#146,146,1440,789,1440,900,8-20-2022,10-57-16,143,depth_duration_stimuli/002509_2014-06-24_13-19-22_094959634447_rgbf000077-resize_0/002509_2014-06-24_13-19-22_094959634447_rgbf000077-resize_0-target.png,250,1.3065,1,6434,250,feet,jsons/v1_VE250_randls_42_rotated.json,1050617,1502232,38,Man
143,665356,DepthScenes,duration_manipulation_targetAtFixation,jsons/v1_VE250_randls_42_rotated.json,http://54.235.29.9/FacialAge/BNav_EC2/DepthDuration/v2_depth_duration_MTurk/v2_DepthDuration_HTML.html#146,146,1440,789,1440,900,8-20-2022,10-57-16,144,depth_duration_stimuli/000556_2014-06-09_22-42-56_260595134347_rgbf000214-resize_1/000556_2014-06-09_22-42-56_260595134347_rgbf000214-resize_1-target.png,250,4.8415,1,6074,250,feet,jsons/v1_VE250_randls_42_rotated.json,1050617,1502232,38,Man
144,665356,DepthScenes,duration_manipulation_targetAtFixation,jsons/v1_VE250_randls_42_rotated.json,http://54.235.29.9/FacialAge/BNav_EC2/DepthDuration/v2_depth_duration_MTurk/v2_DepthDuration_HTML.html#146,146,1440,789,1440,900,8-20-2022,10-57-16,145,depth_duration_stimuli/001158_2014-06-17_15-32-16_260595134347_rgbf000138-resize_2/001158_2014-06-17_15-32-16_260595134347_rgbf000138-resize_2-target.png,250,4.5315,1,5604,250,feet,jsons/v1_VE250_randls_42_rotated.json,1050617,1502232,38,Man
145,665356,DepthScenes,duration_manipulation_targetAtFixation,jsons/v1_VE250_randls_42_rotated.json,http://54.235.29.9/FacialAge/BNav_EC2/DepthDuration/v2_depth_duration_MTurk/v2_DepthDuration_HTML.html#146,146,1440,789,1440,900,8-20-2022,10-57-16,146,depth_duration_stimuli/001136_2014-06-17_15-19-41_260595134347_rgbf000076-resize_3/001136_2014-06-17_15-19-41_260595134347_rgbf000076-resize_3-target.png,250,1.8655,1,5090,249,feet,jsons/v1_VE250_randls_42_rotated.json,1050617,1502232,38,Man
146,665356,DepthScenes,duration_manipulation_targetAtFixation,jsons/v1_VE250_randls_42_rotated.json,http://54.235.29.9/FacialAge/BNav_EC2/DepthDuration/v2_depth_duration_MTurk/v2_DepthDuration_HTML.html#146,146,1440,789,1440,900,8-20-2022,10-57-16,147,depth_duration_stimuli/001164_2014-06-17_15-35-46_260595134347_rgbf000085-resize_3/001164_2014-06-17_15-35-46_260595134347_rgbf000085-resize_3-target.png,250,2.354,1,5442,250,feet,jsons/v1_VE250_randls_42_rotated.json,1050617,1502232,38,Man
147,665356,DepthScenes,duration_manipulation_targetAtFixation,jsons/v1_VE250_randls_42_rotated.json,http://54.235.29.9/FacialAge/BNav_EC2/DepthDuration/v2_depth_duration_MTurk/v2_DepthDuration_HTML.html#146,146,1440,789,1440,900,8-20-2022,10-57-16,148,depth_duration_stimuli/000103_2014-05-14_22-01-17_260595134347_rgbf000152-resize_5/000103_2014-05-14_22-01-17_260595134347_rgbf000152-resize_5-target.png,250,1.993,1,5553,250,feet,jsons/v1_VE250_randls_42_rotated.json,1050617,1502232,38,Man
148,665356,DepthScenes,duration_manipulation_targetAtFixation,jsons/v1_VE250_randls_42_rotated.json,http://54.235.29.9/FacialAge/BNav_EC2/DepthDuration/v2_depth_duration_MTurk/v2_DepthDuration_HTML.html#146,146,1440,789,1440,900,8-20-2022,10-57-16,149,depth_duration_stimuli/001555_2014-06-20_17-12-10_260595134347_rgbf000065-resize_4/001555_2014-06-20_17-12-10_260595134347_rgbf000065-resize_4-target.png,250,1.633,1,7347,251,feet,jsons/v1_VE250_randls_42_rotated.json,1050617,1502232,38,Man
149,665356,DepthScenes,duration_manipulation_targetAtFixation,jsons/v1_VE250_randls_42_rotated.json,http://54.235.29.9/FacialAge/BNav_EC2/DepthDuration/v2_depth_duration_MTurk/v2_DepthDuration_HTML.html#146,146,1440,789,1440,900,8-20-2022,10-57-16,150,depth_duration_stimuli/000709_2014-06-08_13-51-55_260595134347_rgbf000068-resize_3/000709_2014-06-08_13-51-55_260595134347_rgbf000068-resize_3-target.png,250,1.8030000000000002,1,5290,250,feet,jsons/v1_VE250_randls_42_rotated.json,1050617,1502232,38,Man
150,665356,DepthScenes,duration_manipulation_targetAtFixation,jsons/v1_VE250_randls_42_rotated.json,http://54.235.29.9/FacialAge/BNav_EC2/DepthDuration/v2_depth_duration_MTurk/v2_DepthDuration_HTML.html#146,146,1440,789,1440,900,8-20-2022,10-57-16,151,depth_duration_stimuli/002057_2014-06-24_21-00-13_260595134347_rgbf000120-resize_1/002057_2014-06-24_21-00-13_260595134347_rgbf000120-resize_1-target.png,250,2.967,1,5561,249,feet,jsons/v1_VE250_randls_42_rotated.json,1050617,1502232,38,Man
151,665356,DepthScenes,duration_manipulation_targetAtFixation,jsons/v1_VE250_randls_42_rotated.json,http://54.235.29.9/FacialAge/BNav_EC2/DepthDuration/v2_depth_duration_MTurk/v2_DepthDuration_HTML.html#146,146,1440,789,1440,900,8-20-2022,10-57-16,152,depth_duration_stimuli/000569_2014-06-09_22-51-47_260595134347_rgbf000141-resize_3/000569_2014-06-09_22-51-47_260595134347_rgbf000141-resize-original.jpg,250,4.512,0,5531,251,feet,jsons/v1_VE250_randls_42_rotated.json,1050617,1502232,38,Man
152,665356,DepthScenes,duration_manipulation_targetAtFixation,jsons/v1_VE250_randls_42_rotated.json,http://54.235.29.9/FacialAge/BNav_EC2/DepthDuration/v2_depth_duration_MTurk/v2_DepthDuration_HTML.html#146,146,1440,789,1440,900,8-20-2022,10-57-16,153,depth_duration_stimuli/000866_2014-06-09_20-45-42_260595134347_rgbf000139-resize_1/000866_2014-06-09_20-45-42_260595134347_rgbf000139-resize_1-target.png,250,3.2155,1,4995,251,feet,jsons/v1_VE250_randls_42_rotated.json,1050617,1502232,38,Man
153,665356,DepthScenes,duration_manipulation_targetAtFixation,jsons/v1_VE250_randls_42_rotated.json,http://54.235.29.9/FacialAge/BNav_EC2/DepthDuration/v2_depth_duration_MTurk/v2_DepthDuration_HTML.html#146,146,1440,789,1440,900,8-20-2022,10-57-16,154,depth_duration_stimuli/002989_2014-06-15_12-25-03_094959634447_rgbf000150-resize_3/002989_2014-06-15_12-25-03_094959634447_rgbf000150-resize_3-target.png,250,4.1975,1,9676,250,feet,jsons/v1_VE250_randls_42_rotated.json,1050617,1502232,38,Man
154,665356,DepthScenes,duration_manipulation_targetAtFixation,jsons/v1_VE250_randls_42_rotated.json,http://54.235.29.9/FacialAge/BNav_EC2/DepthDuration/v2_depth_duration_MTurk/v2_DepthDuration_HTML.html#146,146,1440,789,1440,900,8-20-2022,10-57-16,155,depth_duration_stimuli/002657_2014-06-13_15-29-54_094959634447_rgbf000150-resize_1/002657_2014-06-13_15-29-54_094959634447_rgbf000150-resize_1-target.png,250,4.919,1,5379,250,feet,jsons/v1_VE250_randls_42_rotated.json,1050617,1502232,38,Man
155,665356,DepthScenes,duration_manipulation_targetAtFixation,jsons/v1_VE250_randls_42_rotated.json,http://54.235.29.9/FacialAge/BNav_EC2/DepthDuration/v2_depth_duration_MTurk/v2_DepthDuration_HTML.html#146,146,1440,789,1440,900,8-20-2022,10-57-16,156,depth_duration_stimuli/002375_2014-06-28_20-13-44_260595134347_rgbf000032-resize_1/002375_2014-06-28_20-13-44_260595134347_rgbf000032-resize_1-target.png,250,4.0175,1,5757,250,feet,jsons/v1_VE250_randls_42_rotated.json,1050617,1502232,38,Man
156,665356,DepthScenes,duration_manipulation_targetAtFixation,jsons/v1_VE250_randls_42_rotated.json,http://54.235.29.9/FacialAge/BNav_EC2/DepthDuration/v2_depth_duration_MTurk/v2_DepthDuration_HTML.html#146,146,1440,789,1440,900,8-20-2022,10-57-16,157,depth_duration_stimuli/001571_2014-06-20_17-21-32_260595134347_rgbf000089-resize_1/001571_2014-06-20_17-21-32_260595134347_rgbf000089-resize_1-target.png,250,1.86,1,5712,250,feet,jsons/v1_VE250_randls_42_rotated.json,1050617,1502232,38,Man
157,665356,DepthScenes,duration_manipulation_targetAtFixation,jsons/v1_VE250_randls_42_rotated.json,http://54.235.29.9/FacialAge/BNav_EC2/DepthDuration/v2_depth_duration_MTurk/v2_DepthDuration_HTML.html#146,146,1440,789,1440,900,8-20-2022,10-57-16,158,depth_duration_stimuli/002272_2014-06-28_18-53-56_260595134347_rgbf000067-resize_2/002272_2014-06-28_18-53-56_260595134347_rgbf000067-resize_2-target.png,250,1.138,1,6171,251,feet,jsons/v1_VE250_randls_42_rotated.json,1050617,1502232,38,Man
158,665356,DepthScenes,duration_manipulation_targetAtFixation,jsons/v1_VE250_randls_42_rotated.json,http://54.235.29.9/FacialAge/BNav_EC2/DepthDuration/v2_depth_duration_MTurk/v2_DepthDuration_HTML.html#146,146,1440,789,1440,900,8-20-2022,10-57-16,159,depth_duration_stimuli/001650_2014-06-20_12-09-00_260595134347_rgbf000087-resize_3/001650_2014-06-20_12-09-00_260595134347_rgbf000087-resize_3-target.png,250,1.9505,1,5818,251,feet,jsons/v1_VE250_randls_42_rotated.json,1050617,1502232,38,Man
159,665356,DepthScenes,duration_manipulation_targetAtFixation,jsons/v1_VE250_randls_42_rotated.json,http://54.235.29.9/FacialAge/BNav_EC2/DepthDuration/v2_depth_duration_MTurk/v2_DepthDuration_HTML.html#146,146,1440,789,1440,900,8-20-2022,10-57-16,160,depth_duration_stimuli/000682_2014-06-08_23-14-58_260595134347_rgbf000041-resize_5/000682_2014-06-08_23-14-58_260595134347_rgbf000041-resize_5-target.png,250,2.7239999999999998,1,7714,249,feet,jsons/v1_VE250_randls_42_rotated.json,1050617,1502232,38,Man
160,665356,DepthScenes,duration_manipulation_targetAtFixation,jsons/v1_VE250_randls_42_rotated.json,http://54.235.29.9/FacialAge/BNav_EC2/DepthDuration/v2_depth_duration_MTurk/v2_DepthDuration_HTML.html#146,146,1440,789,1440,900,8-20-2022,10-57-16,161,depth_duration_stimuli/003228_2014-05-14_13-42-35_094959634447_rgbf000101-resize_1/003228_2014-05-14_13-42-35_094959634447_rgbf000101-resize_1-target.png,250,1.9680000000000002,1,5210,249,feet,jsons/v1_VE250_randls_42_rotated.json,1050617,1502232,38,Man
161,665356,DepthScenes,duration_manipulation_targetAtFixation,jsons/v1_VE250_randls_42_rotated.json,http://54.235.29.9/FacialAge/BNav_EC2/DepthDuration/v2_depth_duration_MTurk/v2_DepthDuration_HTML.html#146,146,1440,789,1440,900,8-20-2022,10-57-16,162,depth_duration_stimuli/002600_2014-06-24_14-27-04_094959634447_rgbf000074-resize_2/002600_2014-06-24_14-27-04_094959634447_rgbf000074-resize_2-target.png,250,2.7575,1,5106,249,feet,jsons/v1_VE250_randls_42_rotated.json,1050617,1502232,38,Man
162,665356,DepthScenes,duration_manipulation_targetAtFixation,jsons/v1_VE250_randls_42_rotated.json,http://54.235.29.9/FacialAge/BNav_EC2/DepthDuration/v2_depth_duration_MTurk/v2_DepthDuration_HTML.html#146,146,1440,789,1440,900,8-20-2022,10-57-16,163,depth_duration_stimuli/000854_2014-06-09_19-43-13_260595134347_rgbf000066-resize_0/000854_2014-06-09_19-43-13_260595134347_rgbf000066-resize_0-target.png,250,3.068,1,4994,248,feet,jsons/v1_VE250_randls_42_rotated.json,1050617,1502232,38,Man
163,665356,DepthScenes,duration_manipulation_targetAtFixation,jsons/v1_VE250_randls_42_rotated.json,http://54.235.29.9/FacialAge/BNav_EC2/DepthDuration/v2_depth_duration_MTurk/v2_DepthDuration_HTML.html#146,146,1440,789,1440,900,8-20-2022,10-57-16,164,depth_duration_stimuli/000758_2014-06-08_22-05-08_260595134347_rgbf000085-resize_0/000758_2014-06-08_22-05-08_260595134347_rgbf000085-resize_0-target.png,250,3.3810000000000002,1,5467,250,feet,jsons/v1_VE250_randls_42_rotated.json,1050617,1502232,38,Man
