,subjID,experimentName,versionName,sequenceName,url,selected_row,windowWidth,windowHeight,screenWidth,screenHeight,startDate,startTime,trial,stimulus,duration,actual_depth,depth_estimate,trial_RT,log_sceneDuration,unitSelection,seq_filepath,experimentTime,totalTime,age,gender
0,666293,DepthScenes,duration_manipulation_targetAtFixation,jsons/VE125_randls_69.json,http://54.235.29.9/FacialAge/BNav_EC2/DepthDuration/v2_depth_duration_MTurk/v2_DepthDuration_HTML.html#214,214,1920,975,1920,1080,8-29-2022,12-3-57,1,depth_duration_stimuli/000878_2014-06-08_22-52-45_260595134347_rgbf000045-resize_2/000878_2014-06-08_22-52-45_260595134347_rgbf000045-resize_2-target.png,125,2.092,4,4171,124,feet,jsons/VE125_randls_69.json,585662,912390,37,Man
1,666293,DepthScenes,duration_manipulation_targetAtFixation,jsons/VE125_randls_69.json,http://54.235.29.9/FacialAge/BNav_EC2/DepthDuration/v2_depth_duration_MTurk/v2_DepthDuration_HTML.html#214,214,1920,975,1920,1080,8-29-2022,12-3-57,2,depth_duration_stimuli/002953_2014-06-08_17-32-18_094959634447_rgbf000059-resize_5/002953_2014-06-08_17-32-18_094959634447_rgbf000059-resize_5-target.png,125,1.551,2,3121,126,feet,jsons/VE125_randls_69.json,585662,912390,37,Man
2,666293,DepthScenes,duration_manipulation_targetAtFixation,jsons/VE125_randls_69.json,http://54.235.29.9/FacialAge/BNav_EC2/DepthDuration/v2_depth_duration_MTurk/v2_DepthDuration_HTML.html#214,214,1920,975,1920,1080,8-29-2022,12-3-57,3,depth_duration_stimuli/002549_2014-06-24_13-41-39_094959634447_rgbf000022-resize_3/002549_2014-06-24_13-41-39_094959634447_rgbf000022-resize_3-target.png,125,1.476,5,2162,124,feet,jsons/VE125_randls_69.json,585662,912390,37,Man
3,666293,DepthScenes,duration_manipulation_targetAtFixation,jsons/VE125_randls_69.json,http://54.235.29.9/FacialAge/BNav_EC2/DepthDuration/v2_depth_duration_MTurk/v2_DepthDuration_HTML.html#214,214,1920,975,1920,1080,8-29-2022,12-3-57,4,depth_duration_stimuli/002750_2014-06-22_19-08-03_094959634447_rgbf000094-resize_4/002750_2014-06-22_19-08-03_094959634447_rgbf000094-resize_4-target.png,125,2.354,6,2950,118,feet,jsons/VE125_randls_69.json,585662,912390,37,Man
4,666293,DepthScenes,duration_manipulation_targetAtFixation,jsons/VE125_randls_69.json,http://54.235.29.9/FacialAge/BNav_EC2/DepthDuration/v2_depth_duration_MTurk/v2_DepthDuration_HTML.html#214,214,1920,975,1920,1080,8-29-2022,12-3-57,5,depth_duration_stimuli/001011_2014-06-08_23-18-54_260595134347_rgbf000044-resize_4/001011_2014-06-08_23-18-54_260595134347_rgbf000044-resize_4-target.png,125,2.4730000000000003,4,2581,124,feet,jsons/VE125_randls_69.json,585662,912390,37,Man
5,666293,DepthScenes,duration_manipulation_targetAtFixation,jsons/VE125_randls_69.json,http://54.235.29.9/FacialAge/BNav_EC2/DepthDuration/v2_depth_duration_MTurk/v2_DepthDuration_HTML.html#214,214,1920,975,1920,1080,8-29-2022,12-3-57,6,depth_duration_stimuli/002875_2014-06-01_15-19-00_094959634447_rgbf000151-resize_1/002875_2014-06-01_15-19-00_094959634447_rgbf000151-resize_1-target.png,125,1.9675,3,2864,124,feet,jsons/VE125_randls_69.json,585662,912390,37,Man
6,666293,DepthScenes,duration_manipulation_targetAtFixation,jsons/VE125_randls_69.json,http://54.235.29.9/FacialAge/BNav_EC2/DepthDuration/v2_depth_duration_MTurk/v2_DepthDuration_HTML.html#214,214,1920,975,1920,1080,8-29-2022,12-3-57,7,depth_duration_stimuli/001092_2014-06-15_17-34-58_260595134347_rgbf000171-resize_3/001092_2014-06-15_17-34-58_260595134347_rgbf000171-resize_3-target.png,125,2.6935,4,2620,132,feet,jsons/VE125_randls_69.json,585662,912390,37,Man
7,666293,DepthScenes,duration_manipulation_targetAtFixation,jsons/VE125_randls_69.json,http://54.235.29.9/FacialAge/BNav_EC2/DepthDuration/v2_depth_duration_MTurk/v2_DepthDuration_HTML.html#214,214,1920,975,1920,1080,8-29-2022,12-3-57,8,depth_duration_stimuli/002545_2014-06-24_13-38-53_094959634447_rgbf000080-resize_4/002545_2014-06-24_13-38-53_094959634447_rgbf000080-resize_4-target.png,125,1.9205,5,2750,127,feet,jsons/VE125_randls_69.json,585662,912390,37,Man
8,666293,DepthScenes,duration_manipulation_targetAtFixation,jsons/VE125_randls_69.json,http://54.235.29.9/FacialAge/BNav_EC2/DepthDuration/v2_depth_duration_MTurk/v2_DepthDuration_HTML.html#214,214,1920,975,1920,1080,8-29-2022,12-3-57,9,depth_duration_stimuli/001808_2014-06-26_20-50-58_260595134347_rgbf000029-resize_1/001808_2014-06-26_20-50-58_260595134347_rgbf000029-resize_1-target.png,125,4.249,8,4714,112,feet,jsons/VE125_randls_69.json,585662,912390,37,Man
9,666293,DepthScenes,duration_manipulation_targetAtFixation,jsons/VE125_randls_69.json,http://54.235.29.9/FacialAge/BNav_EC2/DepthDuration/v2_depth_duration_MTurk/v2_DepthDuration_HTML.html#214,214,1920,975,1920,1080,8-29-2022,12-3-57,10,depth_duration_stimuli/001815_2014-06-26_20-52-55_260595134347_rgbf000020-resize_0/001815_2014-06-26_20-52-55_260595134347_rgbf000020-resize_0-target.png,125,3.3865,8,2706,111,feet,jsons/VE125_randls_69.json,585662,912390,37,Man
10,666293,DepthScenes,duration_manipulation_targetAtFixation,jsons/VE125_randls_69.json,http://54.235.29.9/FacialAge/BNav_EC2/DepthDuration/v2_depth_duration_MTurk/v2_DepthDuration_HTML.html#214,214,1920,975,1920,1080,8-29-2022,12-3-57,11,depth_duration_stimuli/000009_2014-05-26_14-32-05_260595134347_rgbf000034-resize_3/000009_2014-05-26_14-32-05_260595134347_rgbf000034-resize_3-target.png,125,3.8715,9,4965,125,feet,jsons/VE125_randls_69.json,585662,912390,37,Man
11,666293,DepthScenes,duration_manipulation_targetAtFixation,jsons/VE125_randls_69.json,http://54.235.29.9/FacialAge/BNav_EC2/DepthDuration/v2_depth_duration_MTurk/v2_DepthDuration_HTML.html#214,214,1920,975,1920,1080,8-29-2022,12-3-57,12,depth_duration_stimuli/001828_2014-06-26_21-40-03_260595134347_rgbf000024-resize_0/001828_2014-06-26_21-40-03_260595134347_rgbf000024-resize_0-target.png,125,4.8260000000000005,8,3371,126,feet,jsons/VE125_randls_69.json,585662,912390,37,Man
12,666293,DepthScenes,duration_manipulation_targetAtFixation,jsons/VE125_randls_69.json,http://54.235.29.9/FacialAge/BNav_EC2/DepthDuration/v2_depth_duration_MTurk/v2_DepthDuration_HTML.html#214,214,1920,975,1920,1080,8-29-2022,12-3-57,13,depth_duration_stimuli/000569_2014-06-09_22-51-47_260595134347_rgbf000141-resize_3/000569_2014-06-09_22-51-47_260595134347_rgbf000141-resize-original.jpg,125,4.512,0,3170,126,feet,jsons/VE125_randls_69.json,585662,912390,37,Man
13,666293,DepthScenes,duration_manipulation_targetAtFixation,jsons/VE125_randls_69.json,http://54.235.29.9/FacialAge/BNav_EC2/DepthDuration/v2_depth_duration_MTurk/v2_DepthDuration_HTML.html#214,214,1920,975,1920,1080,8-29-2022,12-3-57,14,depth_duration_stimuli/000917_2014-06-09_22-45-29_260595134347_rgbf000149-resize_3/000917_2014-06-09_22-45-29_260595134347_rgbf000149-resize_3-target.png,125,4.1865,7,5554,125,feet,jsons/VE125_randls_69.json,585662,912390,37,Man
14,666293,DepthScenes,duration_manipulation_targetAtFixation,jsons/VE125_randls_69.json,http://54.235.29.9/FacialAge/BNav_EC2/DepthDuration/v2_depth_duration_MTurk/v2_DepthDuration_HTML.html#214,214,1920,975,1920,1080,8-29-2022,12-3-57,15,depth_duration_stimuli/002323_2014-06-28_20-01-54_260595134347_rgbf000051-resize_4/002323_2014-06-28_20-01-54_260595134347_rgbf000051-resize_4-target.png,125,3.7310000000000003,7,2471,138,feet,jsons/VE125_randls_69.json,585662,912390,37,Man
15,666293,DepthScenes,duration_manipulation_targetAtFixation,jsons/VE125_randls_69.json,http://54.235.29.9/FacialAge/BNav_EC2/DepthDuration/v2_depth_duration_MTurk/v2_DepthDuration_HTML.html#214,214,1920,975,1920,1080,8-29-2022,12-3-57,16,depth_duration_stimuli/001806_2014-06-26_20-50-20_260595134347_rgbf000091-resize_1/001806_2014-06-26_20-50-20_260595134347_rgbf000091-resize_1-target.png,125,2.7305,4,2217,109,feet,jsons/VE125_randls_69.json,585662,912390,37,Man
16,666293,DepthScenes,duration_manipulation_targetAtFixation,jsons/VE125_randls_69.json,http://54.235.29.9/FacialAge/BNav_EC2/DepthDuration/v2_depth_duration_MTurk/v2_DepthDuration_HTML.html#214,214,1920,975,1920,1080,8-29-2022,12-3-57,17,depth_duration_stimuli/001617_2014-06-20_11-35-32_260595134347_rgbf000066-resize_1/001617_2014-06-20_11-35-32_260595134347_rgbf000066-resize_1-target.png,125,3.7910000000000004,7,1963,125,feet,jsons/VE125_randls_69.json,585662,912390,37,Man
17,666293,DepthScenes,duration_manipulation_targetAtFixation,jsons/VE125_randls_69.json,http://54.235.29.9/FacialAge/BNav_EC2/DepthDuration/v2_depth_duration_MTurk/v2_DepthDuration_HTML.html#214,214,1920,975,1920,1080,8-29-2022,12-3-57,18,depth_duration_stimuli/002279_2014-06-28_18-55-32_260595134347_rgbf000040-resize_5/002279_2014-06-28_18-55-32_260595134347_rgbf000040-resize_5-target.png,125,1.5043333333333,3,1916,118,feet,jsons/VE125_randls_69.json,585662,912390,37,Man
18,666293,DepthScenes,duration_manipulation_targetAtFixation,jsons/VE125_randls_69.json,http://54.235.29.9/FacialAge/BNav_EC2/DepthDuration/v2_depth_duration_MTurk/v2_DepthDuration_HTML.html#214,214,1920,975,1920,1080,8-29-2022,12-3-57,19,depth_duration_stimuli/000635_2014-06-08_16-38-42_260595134347_rgbf000106-resize_1/000635_2014-06-08_16-38-42_260595134347_rgbf000106-resize_1-target.png,125,2.074,4,2394,135,feet,jsons/VE125_randls_69.json,585662,912390,37,Man
19,666293,DepthScenes,duration_manipulation_targetAtFixation,jsons/VE125_randls_69.json,http://54.235.29.9/FacialAge/BNav_EC2/DepthDuration/v2_depth_duration_MTurk/v2_DepthDuration_HTML.html#214,214,1920,975,1920,1080,8-29-2022,12-3-57,20,depth_duration_stimuli/001555_2014-06-20_17-12-10_260595134347_rgbf000065-resize_4/001555_2014-06-20_17-12-10_260595134347_rgbf000065-resize_4-target.png,125,1.633,2,1822,125,feet,jsons/VE125_randls_69.json,585662,912390,37,Man
20,666293,DepthScenes,duration_manipulation_targetAtFixation,jsons/VE125_randls_69.json,http://54.235.29.9/FacialAge/BNav_EC2/DepthDuration/v2_depth_duration_MTurk/v2_DepthDuration_HTML.html#214,214,1920,975,1920,1080,8-29-2022,12-3-57,21,depth_duration_stimuli/000103_2014-05-14_22-01-17_260595134347_rgbf000152-resize_5/000103_2014-05-14_22-01-17_260595134347_rgbf000152-resize_5-target.png,125,1.993,12,3906,122,feet,jsons/VE125_randls_69.json,585662,912390,37,Man
21,666293,DepthScenes,duration_manipulation_targetAtFixation,jsons/VE125_randls_69.json,http://54.235.29.9/FacialAge/BNav_EC2/DepthDuration/v2_depth_duration_MTurk/v2_DepthDuration_HTML.html#214,214,1920,975,1920,1080,8-29-2022,12-3-57,22,depth_duration_stimuli/002748_2014-06-22_19-07-22_094959634447_rgbf000078-resize_1/002748_2014-06-22_19-07-22_094959634447_rgbf000078-resize_1-target.png,125,4.6705,20,5506,125,feet,jsons/VE125_randls_69.json,585662,912390,37,Man
22,666293,DepthScenes,duration_manipulation_targetAtFixation,jsons/VE125_randls_69.json,http://54.235.29.9/FacialAge/BNav_EC2/DepthDuration/v2_depth_duration_MTurk/v2_DepthDuration_HTML.html#214,214,1920,975,1920,1080,8-29-2022,12-3-57,23,depth_duration_stimuli/002995_2014-06-15_12-31-26_094959634447_rgbf000150-resize_1/002995_2014-06-15_12-31-26_094959634447_rgbf000150-resize_1-target.png,125,3.8360000000000003,10,5692,125,feet,jsons/VE125_randls_69.json,585662,912390,37,Man
23,666293,DepthScenes,duration_manipulation_targetAtFixation,jsons/VE125_randls_69.json,http://54.235.29.9/FacialAge/BNav_EC2/DepthDuration/v2_depth_duration_MTurk/v2_DepthDuration_HTML.html#214,214,1920,975,1920,1080,8-29-2022,12-3-57,24,depth_duration_stimuli/002118_2014-06-25_20-32-08_260595134347_rgbf000078-resize_1/002118_2014-06-25_20-32-08_260595134347_rgbf000078-resize_1-target.png,125,2.6460000000000004,3,2734,128,feet,jsons/VE125_randls_69.json,585662,912390,37,Man
24,666293,DepthScenes,duration_manipulation_targetAtFixation,jsons/VE125_randls_69.json,http://54.235.29.9/FacialAge/BNav_EC2/DepthDuration/v2_depth_duration_MTurk/v2_DepthDuration_HTML.html#214,214,1920,975,1920,1080,8-29-2022,12-3-57,25,depth_duration_stimuli/001516_2014-06-20_16-25-09_260595134347_rgbf000076-resize_2/001516_2014-06-20_16-25-09_260595134347_rgbf000076-resize_2-target.png,125,1.7445,5,2225,132,feet,jsons/VE125_randls_69.json,585662,912390,37,Man
25,666293,DepthScenes,duration_manipulation_targetAtFixation,jsons/VE125_randls_69.json,http://54.235.29.9/FacialAge/BNav_EC2/DepthDuration/v2_depth_duration_MTurk/v2_DepthDuration_HTML.html#214,214,1920,975,1920,1080,8-29-2022,12-3-57,26,depth_duration_stimuli/001110_2014-06-15_17-25-28_260595134347_rgbf000150-resize_1/001110_2014-06-15_17-25-28_260595134347_rgbf000150-resize_1-target.png,125,1.7115,4,2329,125,feet,jsons/VE125_randls_69.json,585662,912390,37,Man
26,666293,DepthScenes,duration_manipulation_targetAtFixation,jsons/VE125_randls_69.json,http://54.235.29.9/FacialAge/BNav_EC2/DepthDuration/v2_depth_duration_MTurk/v2_DepthDuration_HTML.html#214,214,1920,975,1920,1080,8-29-2022,12-3-57,27,depth_duration_stimuli/000927_2014-06-09_16-32-30_260595134347_rgbf000123-resize_3/000927_2014-06-09_16-32-30_260595134347_rgbf000123-resize_3-target.png,125,2.6785,7,2365,125,feet,jsons/VE125_randls_69.json,585662,912390,37,Man
27,666293,DepthScenes,duration_manipulation_targetAtFixation,jsons/VE125_randls_69.json,http://54.235.29.9/FacialAge/BNav_EC2/DepthDuration/v2_depth_duration_MTurk/v2_DepthDuration_HTML.html#214,214,1920,975,1920,1080,8-29-2022,12-3-57,28,depth_duration_stimuli/002153_2014-06-25_21-27-18_260595134347_rgbf000038-resize_5/002153_2014-06-25_21-27-18_260595134347_rgbf000038-resize_5-target.png,125,2.505,4,2032,140,feet,jsons/VE125_randls_69.json,585662,912390,37,Man
28,666293,DepthScenes,duration_manipulation_targetAtFixation,jsons/VE125_randls_69.json,http://54.235.29.9/FacialAge/BNav_EC2/DepthDuration/v2_depth_duration_MTurk/v2_DepthDuration_HTML.html#214,214,1920,975,1920,1080,8-29-2022,12-3-57,29,depth_duration_stimuli/002660_2014-06-13_15-44-18_094959634447_rgbf001878-resize_2/002660_2014-06-13_15-44-18_094959634447_rgbf001878-resize_2-target.png,125,3.576,9,2850,124,feet,jsons/VE125_randls_69.json,585662,912390,37,Man
29,666293,DepthScenes,duration_manipulation_targetAtFixation,jsons/VE125_randls_69.json,http://54.235.29.9/FacialAge/BNav_EC2/DepthDuration/v2_depth_duration_MTurk/v2_DepthDuration_HTML.html#214,214,1920,975,1920,1080,8-29-2022,12-3-57,30,depth_duration_stimuli/000375_2014-06-08_11-17-29_260595134347_rgbf000133-resize_2/000375_2014-06-08_11-17-29_260595134347_rgbf000133-resize-original.jpg,125,4.718,0,2616,113,feet,jsons/VE125_randls_69.json,585662,912390,37,Man
30,666293,DepthScenes,duration_manipulation_targetAtFixation,jsons/VE125_randls_69.json,http://54.235.29.9/FacialAge/BNav_EC2/DepthDuration/v2_depth_duration_MTurk/v2_DepthDuration_HTML.html#214,214,1920,975,1920,1080,8-29-2022,12-3-57,31,depth_duration_stimuli/002964_2014-06-08_17-46-11_094959634447_rgbf000091-resize_4/002964_2014-06-08_17-46-11_094959634447_rgbf000091-resize_4-target.png,125,1.6909999999999998,2,1583,126,feet,jsons/VE125_randls_69.json,585662,912390,37,Man
31,666293,DepthScenes,duration_manipulation_targetAtFixation,jsons/VE125_randls_69.json,http://54.235.29.9/FacialAge/BNav_EC2/DepthDuration/v2_depth_duration_MTurk/v2_DepthDuration_HTML.html#214,214,1920,975,1920,1080,8-29-2022,12-3-57,32,depth_duration_stimuli/002136_2014-06-25_21-18-03_260595134347_rgbf000109-resize_3/002136_2014-06-25_21-18-03_260595134347_rgbf000109-resize_3-target.png,125,1.9569999999999999,4,2880,124,feet,jsons/VE125_randls_69.json,585662,912390,37,Man
32,666293,DepthScenes,duration_manipulation_targetAtFixation,jsons/VE125_randls_69.json,http://54.235.29.9/FacialAge/BNav_EC2/DepthDuration/v2_depth_duration_MTurk/v2_DepthDuration_HTML.html#214,214,1920,975,1920,1080,8-29-2022,12-3-57,33,depth_duration_stimuli/001244_2014-06-17_16-47-45_260595134347_rgbf000030-resize_4/001244_2014-06-17_16-47-45_260595134347_rgbf000030-resize_4-target.png,125,2.0425,4,2063,117,feet,jsons/VE125_randls_69.json,585662,912390,37,Man
33,666293,DepthScenes,duration_manipulation_targetAtFixation,jsons/VE125_randls_69.json,http://54.235.29.9/FacialAge/BNav_EC2/DepthDuration/v2_depth_duration_MTurk/v2_DepthDuration_HTML.html#214,214,1920,975,1920,1080,8-29-2022,12-3-57,34,depth_duration_stimuli/003495_2014-05-21_16-01-51_094959634447_rgbf000100-resize_3/003495_2014-05-21_16-01-51_094959634447_rgbf000100-resize_3-target.png,125,1.6255,3,2802,129,feet,jsons/VE125_randls_69.json,585662,912390,37,Man
34,666293,DepthScenes,duration_manipulation_targetAtFixation,jsons/VE125_randls_69.json,http://54.235.29.9/FacialAge/BNav_EC2/DepthDuration/v2_depth_duration_MTurk/v2_DepthDuration_HTML.html#214,214,1920,975,1920,1080,8-29-2022,12-3-57,35,depth_duration_stimuli/002988_2014-06-15_12-24-20_094959634447_rgbf000150-resize_1/002988_2014-06-15_12-24-20_094959634447_rgbf000150-resize_1-target.png,125,4.7669999999999995,25,5320,124,feet,jsons/VE125_randls_69.json,585662,912390,37,Man
35,666293,DepthScenes,duration_manipulation_targetAtFixation,jsons/VE125_randls_69.json,http://54.235.29.9/FacialAge/BNav_EC2/DepthDuration/v2_depth_duration_MTurk/v2_DepthDuration_HTML.html#214,214,1920,975,1920,1080,8-29-2022,12-3-57,36,depth_duration_stimuli/001052_2014-06-08_18-24-54_260595134347_rgbf000130-resize_1/001052_2014-06-08_18-24-54_260595134347_rgbf000130-resize_1-target.png,125,4.1045,12,3431,124,feet,jsons/VE125_randls_69.json,585662,912390,37,Man
36,666293,DepthScenes,duration_manipulation_targetAtFixation,jsons/VE125_randls_69.json,http://54.235.29.9/FacialAge/BNav_EC2/DepthDuration/v2_depth_duration_MTurk/v2_DepthDuration_HTML.html#214,214,1920,975,1920,1080,8-29-2022,12-3-57,37,depth_duration_stimuli/002989_2014-06-15_12-25-03_094959634447_rgbf000150-resize_3/002989_2014-06-15_12-25-03_094959634447_rgbf000150-resize_3-target.png,125,4.1975,30,4040,125,feet,jsons/VE125_randls_69.json,585662,912390,37,Man
37,666293,DepthScenes,duration_manipulation_targetAtFixation,jsons/VE125_randls_69.json,http://54.235.29.9/FacialAge/BNav_EC2/DepthDuration/v2_depth_duration_MTurk/v2_DepthDuration_HTML.html#214,214,1920,975,1920,1080,8-29-2022,12-3-57,38,depth_duration_stimuli/000866_2014-06-09_20-45-42_260595134347_rgbf000139-resize_1/000866_2014-06-09_20-45-42_260595134347_rgbf000139-resize_1-target.png,125,3.2155,3,2101,130,feet,jsons/VE125_randls_69.json,585662,912390,37,Man
38,666293,DepthScenes,duration_manipulation_targetAtFixation,jsons/VE125_randls_69.json,http://54.235.29.9/FacialAge/BNav_EC2/DepthDuration/v2_depth_duration_MTurk/v2_DepthDuration_HTML.html#214,214,1920,975,1920,1080,8-29-2022,12-3-57,39,depth_duration_stimuli/002272_2014-06-28_18-53-56_260595134347_rgbf000067-resize_2/002272_2014-06-28_18-53-56_260595134347_rgbf000067-resize_2-target.png,125,1.138,0,2741,123,feet,jsons/VE125_randls_69.json,585662,912390,37,Man
39,666293,DepthScenes,duration_manipulation_targetAtFixation,jsons/VE125_randls_69.json,http://54.235.29.9/FacialAge/BNav_EC2/DepthDuration/v2_depth_duration_MTurk/v2_DepthDuration_HTML.html#214,214,1920,975,1920,1080,8-29-2022,12-3-57,40,depth_duration_stimuli/001571_2014-06-20_17-21-32_260595134347_rgbf000089-resize_1/001571_2014-06-20_17-21-32_260595134347_rgbf000089-resize_1-target.png,125,1.86,3,2534,124,feet,jsons/VE125_randls_69.json,585662,912390,37,Man
40,666293,DepthScenes,duration_manipulation_targetAtFixation,jsons/VE125_randls_69.json,http://54.235.29.9/FacialAge/BNav_EC2/DepthDuration/v2_depth_duration_MTurk/v2_DepthDuration_HTML.html#214,214,1920,975,1920,1080,8-29-2022,12-3-57,41,depth_duration_stimuli/000906_2014-06-08_13-35-43_260595134347_rgbf000155-resize_1/000906_2014-06-08_13-35-43_260595134347_rgbf000155-resize_1-target.png,125,2.8489999999999998,9,3113,126,feet,jsons/VE125_randls_69.json,585662,912390,37,Man
41,666293,DepthScenes,duration_manipulation_targetAtFixation,jsons/VE125_randls_69.json,http://54.235.29.9/FacialAge/BNav_EC2/DepthDuration/v2_depth_duration_MTurk/v2_DepthDuration_HTML.html#214,214,1920,975,1920,1080,8-29-2022,12-3-57,42,depth_duration_stimuli/002805_2014-06-22_19-54-03_094959634447_rgbf000079-resize_1/002805_2014-06-22_19-54-03_094959634447_rgbf000079-resize_1-target.png,125,3.1439999999999997,9,3103,124,feet,jsons/VE125_randls_69.json,585662,912390,37,Man
42,666293,DepthScenes,duration_manipulation_targetAtFixation,jsons/VE125_randls_69.json,http://54.235.29.9/FacialAge/BNav_EC2/DepthDuration/v2_depth_duration_MTurk/v2_DepthDuration_HTML.html#214,214,1920,975,1920,1080,8-29-2022,12-3-57,43,depth_duration_stimuli/000486_2014-06-09_20-47-20_260595134347_rgbf000143-resize_2/000486_2014-06-09_20-47-20_260595134347_rgbf000143-resize_2-target.png,125,4.8325,7,2504,126,feet,jsons/VE125_randls_69.json,585662,912390,37,Man
43,666293,DepthScenes,duration_manipulation_targetAtFixation,jsons/VE125_randls_69.json,http://54.235.29.9/FacialAge/BNav_EC2/DepthDuration/v2_depth_duration_MTurk/v2_DepthDuration_HTML.html#214,214,1920,975,1920,1080,8-29-2022,12-3-57,44,depth_duration_stimuli/003083_2014-06-15_15-21-03_094959634447_rgbf000063-resize_1/003083_2014-06-15_15-21-03_094959634447_rgbf000063-resize_1-target.png,125,4.1405,20,3497,126,feet,jsons/VE125_randls_69.json,585662,912390,37,Man
44,666293,DepthScenes,duration_manipulation_targetAtFixation,jsons/VE125_randls_69.json,http://54.235.29.9/FacialAge/BNav_EC2/DepthDuration/v2_depth_duration_MTurk/v2_DepthDuration_HTML.html#214,214,1920,975,1920,1080,8-29-2022,12-3-57,45,depth_duration_stimuli/000787_2014-06-08_22-33-53_260595134347_rgbf000175-resize_1/000787_2014-06-08_22-33-53_260595134347_rgbf000175-resize-original.jpg,125,4.784,0,2733,125,feet,jsons/VE125_randls_69.json,585662,912390,37,Man
45,666293,DepthScenes,duration_manipulation_targetAtFixation,jsons/VE125_randls_69.json,http://54.235.29.9/FacialAge/BNav_EC2/DepthDuration/v2_depth_duration_MTurk/v2_DepthDuration_HTML.html#214,214,1920,975,1920,1080,8-29-2022,12-3-57,46,depth_duration_stimuli/002630_2014-06-24_14-47-50_094959634447_rgbf000055-resize_1/002630_2014-06-24_14-47-50_094959634447_rgbf000055-resize_1-target.png,125,3.0095,5,3097,110,feet,jsons/VE125_randls_69.json,585662,912390,37,Man
46,666293,DepthScenes,duration_manipulation_targetAtFixation,jsons/VE125_randls_69.json,http://54.235.29.9/FacialAge/BNav_EC2/DepthDuration/v2_depth_duration_MTurk/v2_DepthDuration_HTML.html#214,214,1920,975,1920,1080,8-29-2022,12-3-57,47,depth_duration_stimuli/002758_2014-06-22_19-11-20_094959634447_rgbf000128-resize_1/002758_2014-06-22_19-11-20_094959634447_rgbf000128-resize_1-target.png,125,2.555,4,6968,126,feet,jsons/VE125_randls_69.json,585662,912390,37,Man
47,666293,DepthScenes,duration_manipulation_targetAtFixation,jsons/VE125_randls_69.json,http://54.235.29.9/FacialAge/BNav_EC2/DepthDuration/v2_depth_duration_MTurk/v2_DepthDuration_HTML.html#214,214,1920,975,1920,1080,8-29-2022,12-3-57,48,depth_duration_stimuli/000692_2014-06-08_13-09-42_260595134347_rgbf000199-resize_2/000692_2014-06-08_13-09-42_260595134347_rgbf000199-resize_2-target.png,125,3.661,20,6171,127,feet,jsons/VE125_randls_69.json,585662,912390,37,Man
48,666293,DepthScenes,duration_manipulation_targetAtFixation,jsons/VE125_randls_69.json,http://54.235.29.9/FacialAge/BNav_EC2/DepthDuration/v2_depth_duration_MTurk/v2_DepthDuration_HTML.html#214,214,1920,975,1920,1080,8-29-2022,12-3-57,49,depth_duration_stimuli/001094_2014-06-15_17-36-00_260595134347_rgbf000205-resize_0/001094_2014-06-15_17-36-00_260595134347_rgbf000205-resize_0-target.png,125,4.2175,16,5317,125,feet,jsons/VE125_randls_69.json,585662,912390,37,Man
49,666293,DepthScenes,duration_manipulation_targetAtFixation,jsons/VE125_randls_69.json,http://54.235.29.9/FacialAge/BNav_EC2/DepthDuration/v2_depth_duration_MTurk/v2_DepthDuration_HTML.html#214,214,1920,975,1920,1080,8-29-2022,12-3-57,50,depth_duration_stimuli/002784_2014-06-22_19-26-30_094959634447_rgbf000083-resize_3/002784_2014-06-22_19-26-30_094959634447_rgbf000083-resize_3-target.png,125,1.8046666666667,2,3221,125,feet,jsons/VE125_randls_69.json,585662,912390,37,Man
50,666293,DepthScenes,duration_manipulation_targetAtFixation,jsons/VE125_randls_69.json,http://54.235.29.9/FacialAge/BNav_EC2/DepthDuration/v2_depth_duration_MTurk/v2_DepthDuration_HTML.html#214,214,1920,975,1920,1080,8-29-2022,12-3-57,51,depth_duration_stimuli/001100_2014-06-15_17-46-26_260595134347_rgbf000225-resize_2/001100_2014-06-15_17-46-26_260595134347_rgbf000225-resize_2-target.png,125,2.24,3,1737,124,feet,jsons/VE125_randls_69.json,585662,912390,37,Man
51,666293,DepthScenes,duration_manipulation_targetAtFixation,jsons/VE125_randls_69.json,http://54.235.29.9/FacialAge/BNav_EC2/DepthDuration/v2_depth_duration_MTurk/v2_DepthDuration_HTML.html#214,214,1920,975,1920,1080,8-29-2022,12-3-57,52,depth_duration_stimuli/002570_2014-06-24_13-59-54_094959634447_rgbf000059-resize_0/002570_2014-06-24_13-59-54_094959634447_rgbf000059-resize_0-target.png,125,4.037,7,4905,123,feet,jsons/VE125_randls_69.json,585662,912390,37,Man
52,666293,DepthScenes,duration_manipulation_targetAtFixation,jsons/VE125_randls_69.json,http://54.235.29.9/FacialAge/BNav_EC2/DepthDuration/v2_depth_duration_MTurk/v2_DepthDuration_HTML.html#214,214,1920,975,1920,1080,8-29-2022,12-3-57,53,depth_duration_stimuli/002467_2014-06-28_20-38-07_260595134347_rgbf000026-resize_2/002467_2014-06-28_20-38-07_260595134347_rgbf000026-resize_2-target.png,125,4.742,15,3574,127,feet,jsons/VE125_randls_69.json,585662,912390,37,Man
53,666293,DepthScenes,duration_manipulation_targetAtFixation,jsons/VE125_randls_69.json,http://54.235.29.9/FacialAge/BNav_EC2/DepthDuration/v2_depth_duration_MTurk/v2_DepthDuration_HTML.html#214,214,1920,975,1920,1080,8-29-2022,12-3-57,54,depth_duration_stimuli/003070_2014-06-15_14-58-27_094959634447_rgbf000150-resize_3/003070_2014-06-15_14-58-27_094959634447_rgbf000150-resize_3-target.png,125,2.9415,20,4749,137,feet,jsons/VE125_randls_69.json,585662,912390,37,Man
54,666293,DepthScenes,duration_manipulation_targetAtFixation,jsons/VE125_randls_69.json,http://54.235.29.9/FacialAge/BNav_EC2/DepthDuration/v2_depth_duration_MTurk/v2_DepthDuration_HTML.html#214,214,1920,975,1920,1080,8-29-2022,12-3-57,55,depth_duration_stimuli/000943_2014-06-09_19-31-07_260595134347_rgbf000128-resize_1/000943_2014-06-09_19-31-07_260595134347_rgbf000128-resize_1-target.png,125,1.9765,5,2418,123,feet,jsons/VE125_randls_69.json,585662,912390,37,Man
55,666293,DepthScenes,duration_manipulation_targetAtFixation,jsons/VE125_randls_69.json,http://54.235.29.9/FacialAge/BNav_EC2/DepthDuration/v2_depth_duration_MTurk/v2_DepthDuration_HTML.html#214,214,1920,975,1920,1080,8-29-2022,12-3-57,56,depth_duration_stimuli/003621_2014-05-23_18-06-08_094959634447_rgbf000101-resize_1/003621_2014-05-23_18-06-08_094959634447_rgbf000101-resize_1-target.png,125,3.9835,21,5454,125,feet,jsons/VE125_randls_69.json,585662,912390,37,Man
56,666293,DepthScenes,duration_manipulation_targetAtFixation,jsons/VE125_randls_69.json,http://54.235.29.9/FacialAge/BNav_EC2/DepthDuration/v2_depth_duration_MTurk/v2_DepthDuration_HTML.html#214,214,1920,975,1920,1080,8-29-2022,12-3-57,57,depth_duration_stimuli/001584_2014-06-20_11-07-43_260595134347_rgbf000002-resize_1/001584_2014-06-20_11-07-43_260595134347_rgbf000002-resize_1-target.png,125,3.53,6,2705,110,feet,jsons/VE125_randls_69.json,585662,912390,37,Man
57,666293,DepthScenes,duration_manipulation_targetAtFixation,jsons/VE125_randls_69.json,http://54.235.29.9/FacialAge/BNav_EC2/DepthDuration/v2_depth_duration_MTurk/v2_DepthDuration_HTML.html#214,214,1920,975,1920,1080,8-29-2022,12-3-57,58,depth_duration_stimuli/001029_2014-06-08_13-17-57_260595134347_rgbf000065-resize_1/001029_2014-06-08_13-17-57_260595134347_rgbf000065-resize_1-target.png,125,3.0835,9,2665,135,feet,jsons/VE125_randls_69.json,585662,912390,37,Man
58,666293,DepthScenes,duration_manipulation_targetAtFixation,jsons/VE125_randls_69.json,http://54.235.29.9/FacialAge/BNav_EC2/DepthDuration/v2_depth_duration_MTurk/v2_DepthDuration_HTML.html#214,214,1920,975,1920,1080,8-29-2022,12-3-57,59,depth_duration_stimuli/000677_2014-06-08_23-10-32_260595134347_rgbf000158-resize_6/000677_2014-06-08_23-10-32_260595134347_rgbf000158-resize_6-target.png,125,3.556,4,2572,132,feet,jsons/VE125_randls_69.json,585662,912390,37,Man
59,666293,DepthScenes,duration_manipulation_targetAtFixation,jsons/VE125_randls_69.json,http://54.235.29.9/FacialAge/BNav_EC2/DepthDuration/v2_depth_duration_MTurk/v2_DepthDuration_HTML.html#214,214,1920,975,1920,1080,8-29-2022,12-3-57,60,depth_duration_stimuli/001066_2014-06-08_22-03-20_260595134347_rgbf000066-resize_4/001066_2014-06-08_22-03-20_260595134347_rgbf000066-resize_4-target.png,125,4.2330000000000005,9,3856,124,feet,jsons/VE125_randls_69.json,585662,912390,37,Man
60,666293,DepthScenes,duration_manipulation_targetAtFixation,jsons/VE125_randls_69.json,http://54.235.29.9/FacialAge/BNav_EC2/DepthDuration/v2_depth_duration_MTurk/v2_DepthDuration_HTML.html#214,214,1920,975,1920,1080,8-29-2022,12-3-57,61,depth_duration_stimuli/000742_2014-06-08_18-48-09_260595134347_rgbf000164-resize_4/000742_2014-06-08_18-48-09_260595134347_rgbf000164-resize_4-target.png,125,4.632,15,3536,125,feet,jsons/VE125_randls_69.json,585662,912390,37,Man
61,666293,DepthScenes,duration_manipulation_targetAtFixation,jsons/VE125_randls_69.json,http://54.235.29.9/FacialAge/BNav_EC2/DepthDuration/v2_depth_duration_MTurk/v2_DepthDuration_HTML.html#214,214,1920,975,1920,1080,8-29-2022,12-3-57,62,depth_duration_stimuli/000493_2014-06-09_21-01-18_260595134347_rgbf000196-resize_3/000493_2014-06-09_21-01-18_260595134347_rgbf000196-resize_3-target.png,125,3.44,7,2424,135,feet,jsons/VE125_randls_69.json,585662,912390,37,Man
62,666293,DepthScenes,duration_manipulation_targetAtFixation,jsons/VE125_randls_69.json,http://54.235.29.9/FacialAge/BNav_EC2/DepthDuration/v2_depth_duration_MTurk/v2_DepthDuration_HTML.html#214,214,1920,975,1920,1080,8-29-2022,12-3-57,63,depth_duration_stimuli/000191_2014-05-12_17-07-38_260595134347_rgbf000199-resize_0/000191_2014-05-12_17-07-38_260595134347_rgbf000199-resize_0-target.png,125,3.7995,25,4110,125,feet,jsons/VE125_randls_69.json,585662,912390,37,Man
63,666293,DepthScenes,duration_manipulation_targetAtFixation,jsons/VE125_randls_69.json,http://54.235.29.9/FacialAge/BNav_EC2/DepthDuration/v2_depth_duration_MTurk/v2_DepthDuration_HTML.html#214,214,1920,975,1920,1080,8-29-2022,12-3-57,64,depth_duration_stimuli/000788_2014-06-08_22-34-36_260595134347_rgbf000131-resize_1/000788_2014-06-08_22-34-36_260595134347_rgbf000131-resize_1-target.png,125,3.359,5,1917,124,feet,jsons/VE125_randls_69.json,585662,912390,37,Man
64,666293,DepthScenes,duration_manipulation_targetAtFixation,jsons/VE125_randls_69.json,http://54.235.29.9/FacialAge/BNav_EC2/DepthDuration/v2_depth_duration_MTurk/v2_DepthDuration_HTML.html#214,214,1920,975,1920,1080,8-29-2022,12-3-57,65,depth_duration_stimuli/001235_2014-06-17_16-37-36_260595134347_rgbf000084-resize_4/001235_2014-06-17_16-37-36_260595134347_rgbf000084-resize_4-target.png,125,3.6605,8,2542,126,feet,jsons/VE125_randls_69.json,585662,912390,37,Man
65,666293,DepthScenes,duration_manipulation_targetAtFixation,jsons/VE125_randls_69.json,http://54.235.29.9/FacialAge/BNav_EC2/DepthDuration/v2_depth_duration_MTurk/v2_DepthDuration_HTML.html#214,214,1920,975,1920,1080,8-29-2022,12-3-57,66,depth_duration_stimuli/001222_2014-06-17_16-24-06_260595134347_rgbf000073-resize_0/001222_2014-06-17_16-24-06_260595134347_rgbf000073-resize-original.jpg,125,1.4385,0,2556,130,feet,jsons/VE125_randls_69.json,585662,912390,37,Man
66,666293,DepthScenes,duration_manipulation_targetAtFixation,jsons/VE125_randls_69.json,http://54.235.29.9/FacialAge/BNav_EC2/DepthDuration/v2_depth_duration_MTurk/v2_DepthDuration_HTML.html#214,214,1920,975,1920,1080,8-29-2022,12-3-57,67,depth_duration_stimuli/000522_2014-06-08_13-35-06_260595134347_rgbf000244-resize_1/000522_2014-06-08_13-35-06_260595134347_rgbf000244-resize_1-target.png,125,2.3715,2,1986,125,feet,jsons/VE125_randls_69.json,585662,912390,37,Man
67,666293,DepthScenes,duration_manipulation_targetAtFixation,jsons/VE125_randls_69.json,http://54.235.29.9/FacialAge/BNav_EC2/DepthDuration/v2_depth_duration_MTurk/v2_DepthDuration_HTML.html#214,214,1920,975,1920,1080,8-29-2022,12-3-57,68,depth_duration_stimuli/002949_2014-06-26_15-57-42_094959634447_rgbf000079-resize_1/002949_2014-06-26_15-57-42_094959634447_rgbf000079-resize_1-target.png,125,1.8915,3,1531,137,feet,jsons/VE125_randls_69.json,585662,912390,37,Man
68,666293,DepthScenes,duration_manipulation_targetAtFixation,jsons/VE125_randls_69.json,http://54.235.29.9/FacialAge/BNav_EC2/DepthDuration/v2_depth_duration_MTurk/v2_DepthDuration_HTML.html#214,214,1920,975,1920,1080,8-29-2022,12-3-57,69,depth_duration_stimuli/002057_2014-06-24_21-00-13_260595134347_rgbf000120-resize_1/002057_2014-06-24_21-00-13_260595134347_rgbf000120-resize_1-target.png,125,2.967,10,5961,132,feet,jsons/VE125_randls_69.json,585662,912390,37,Man
69,666293,DepthScenes,duration_manipulation_targetAtFixation,jsons/VE125_randls_69.json,http://54.235.29.9/FacialAge/BNav_EC2/DepthDuration/v2_depth_duration_MTurk/v2_DepthDuration_HTML.html#214,214,1920,975,1920,1080,8-29-2022,12-3-57,70,depth_duration_stimuli/000709_2014-06-08_13-51-55_260595134347_rgbf000068-resize_3/000709_2014-06-08_13-51-55_260595134347_rgbf000068-resize_3-target.png,125,1.8030000000000002,4,2309,123,feet,jsons/VE125_randls_69.json,585662,912390,37,Man
70,666293,DepthScenes,duration_manipulation_targetAtFixation,jsons/VE125_randls_69.json,http://54.235.29.9/FacialAge/BNav_EC2/DepthDuration/v2_depth_duration_MTurk/v2_DepthDuration_HTML.html#214,214,1920,975,1920,1080,8-29-2022,12-3-57,71,depth_duration_stimuli/001449_2014-06-19_17-01-27_260595134347_rgbf000116-resize_2/001449_2014-06-19_17-01-27_260595134347_rgbf000116-resize_2-target.png,125,3.452,7,2441,135,feet,jsons/VE125_randls_69.json,585662,912390,37,Man
71,666293,DepthScenes,duration_manipulation_targetAtFixation,jsons/VE125_randls_69.json,http://54.235.29.9/FacialAge/BNav_EC2/DepthDuration/v2_depth_duration_MTurk/v2_DepthDuration_HTML.html#214,214,1920,975,1920,1080,8-29-2022,12-3-57,72,depth_duration_stimuli/001450_2014-06-19_17-02-03_260595134347_rgbf000203-resize_4/001450_2014-06-19_17-02-03_260595134347_rgbf000203-resize_4-target.png,125,4.0106666666667,12,3320,127,feet,jsons/VE125_randls_69.json,585662,912390,37,Man
72,666293,DepthScenes,duration_manipulation_targetAtFixation,jsons/VE125_randls_69.json,http://54.235.29.9/FacialAge/BNav_EC2/DepthDuration/v2_depth_duration_MTurk/v2_DepthDuration_HTML.html#214,214,1920,975,1920,1080,8-29-2022,12-3-57,73,depth_duration_stimuli/000642_2014-06-08_16-59-25_260595134347_rgbf000098-resize_2/000642_2014-06-08_16-59-25_260595134347_rgbf000098-resize_2-target.png,125,2.8815,6,2457,115,feet,jsons/VE125_randls_69.json,585662,912390,37,Man
73,666293,DepthScenes,duration_manipulation_targetAtFixation,jsons/VE125_randls_69.json,http://54.235.29.9/FacialAge/BNav_EC2/DepthDuration/v2_depth_duration_MTurk/v2_DepthDuration_HTML.html#214,214,1920,975,1920,1080,8-29-2022,12-3-57,74,depth_duration_stimuli/002425_2014-06-28_20-27-29_260595134347_rgbf000031-resize_8/002425_2014-06-28_20-27-29_260595134347_rgbf000031-resize_8-target.png,125,3.8960000000000004,14,3465,123,feet,jsons/VE125_randls_69.json,585662,912390,37,Man
74,666293,DepthScenes,duration_manipulation_targetAtFixation,jsons/VE125_randls_69.json,http://54.235.29.9/FacialAge/BNav_EC2/DepthDuration/v2_depth_duration_MTurk/v2_DepthDuration_HTML.html#214,214,1920,975,1920,1080,8-29-2022,12-3-57,75,depth_duration_stimuli/002375_2014-06-28_20-13-44_260595134347_rgbf000032-resize_1/002375_2014-06-28_20-13-44_260595134347_rgbf000032-resize_1-target.png,125,4.0175,7,2403,137,feet,jsons/VE125_randls_69.json,585662,912390,37,Man
75,666293,DepthScenes,duration_manipulation_targetAtFixation,jsons/VE125_randls_69.json,http://54.235.29.9/FacialAge/BNav_EC2/DepthDuration/v2_depth_duration_MTurk/v2_DepthDuration_HTML.html#214,214,1920,975,1920,1080,8-29-2022,12-3-57,76,depth_duration_stimuli/002657_2014-06-13_15-29-54_094959634447_rgbf000150-resize_1/002657_2014-06-13_15-29-54_094959634447_rgbf000150-resize_1-target.png,125,4.919,7,2188,124,feet,jsons/VE125_randls_69.json,585662,912390,37,Man
76,666293,DepthScenes,duration_manipulation_targetAtFixation,jsons/VE125_randls_69.json,http://54.235.29.9/FacialAge/BNav_EC2/DepthDuration/v2_depth_duration_MTurk/v2_DepthDuration_HTML.html#214,214,1920,975,1920,1080,8-29-2022,12-3-57,77,depth_duration_stimuli/001175_2014-06-17_15-45-55_260595134347_rgbf000129-resize_4/001175_2014-06-17_15-45-55_260595134347_rgbf000129-resize_4-target.png,125,4.255,17,4975,125,feet,jsons/VE125_randls_69.json,585662,912390,37,Man
77,666293,DepthScenes,duration_manipulation_targetAtFixation,jsons/VE125_randls_69.json,http://54.235.29.9/FacialAge/BNav_EC2/DepthDuration/v2_depth_duration_MTurk/v2_DepthDuration_HTML.html#214,214,1920,975,1920,1080,8-29-2022,12-3-57,78,depth_duration_stimuli/003490_2014-05-21_15-50-11_094959634447_rgbf000101-resize_3/003490_2014-05-21_15-50-11_094959634447_rgbf000101-resize_3-target.png,125,3.6445,9,3391,139,feet,jsons/VE125_randls_69.json,585662,912390,37,Man
78,666293,DepthScenes,duration_manipulation_targetAtFixation,jsons/VE125_randls_69.json,http://54.235.29.9/FacialAge/BNav_EC2/DepthDuration/v2_depth_duration_MTurk/v2_DepthDuration_HTML.html#214,214,1920,975,1920,1080,8-29-2022,12-3-57,79,depth_duration_stimuli/001056_2014-06-08_18-46-44_260595134347_rgbf000068-resize_0/001056_2014-06-08_18-46-44_260595134347_rgbf000068-resize_0-target.png,125,2.6625,7,2347,125,feet,jsons/VE125_randls_69.json,585662,912390,37,Man
79,666293,DepthScenes,duration_manipulation_targetAtFixation,jsons/VE125_randls_69.json,http://54.235.29.9/FacialAge/BNav_EC2/DepthDuration/v2_depth_duration_MTurk/v2_DepthDuration_HTML.html#214,214,1920,975,1920,1080,8-29-2022,12-3-57,80,depth_duration_stimuli/002199_2014-06-28_18-33-56_260595134347_rgbf000074-resize_0/002199_2014-06-28_18-33-56_260595134347_rgbf000074-resize_0-target.png,125,1.996,2,2055,136,feet,jsons/VE125_randls_69.json,585662,912390,37,Man
80,666293,DepthScenes,duration_manipulation_targetAtFixation,jsons/VE125_randls_69.json,http://54.235.29.9/FacialAge/BNav_EC2/DepthDuration/v2_depth_duration_MTurk/v2_DepthDuration_HTML.html#214,214,1920,975,1920,1080,8-29-2022,12-3-57,81,depth_duration_stimuli/000739_2014-06-08_18-45-58_260595134347_rgbf000068-resize_1/000739_2014-06-08_18-45-58_260595134347_rgbf000068-resize_1-target.png,125,3.534,6,2041,125,feet,jsons/VE125_randls_69.json,585662,912390,37,Man
81,666293,DepthScenes,duration_manipulation_targetAtFixation,jsons/VE125_randls_69.json,http://54.235.29.9/FacialAge/BNav_EC2/DepthDuration/v2_depth_duration_MTurk/v2_DepthDuration_HTML.html#214,214,1920,975,1920,1080,8-29-2022,12-3-57,82,depth_duration_stimuli/000734_2014-06-08_17-39-11_260595134347_rgbf000128-resize_2/000734_2014-06-08_17-39-11_260595134347_rgbf000128-resize_2-target.png,125,4.098,12,4796,129,feet,jsons/VE125_randls_69.json,585662,912390,37,Man
82,666293,DepthScenes,duration_manipulation_targetAtFixation,jsons/VE125_randls_69.json,http://54.235.29.9/FacialAge/BNav_EC2/DepthDuration/v2_depth_duration_MTurk/v2_DepthDuration_HTML.html#214,214,1920,975,1920,1080,8-29-2022,12-3-57,83,depth_duration_stimuli/001059_2014-06-08_21-53-27_260595134347_rgbf000061-resize_4/001059_2014-06-08_21-53-27_260595134347_rgbf000061-resize_4-target.png,125,2.4185,5,2440,125,feet,jsons/VE125_randls_69.json,585662,912390,37,Man
83,666293,DepthScenes,duration_manipulation_targetAtFixation,jsons/VE125_randls_69.json,http://54.235.29.9/FacialAge/BNav_EC2/DepthDuration/v2_depth_duration_MTurk/v2_DepthDuration_HTML.html#214,214,1920,975,1920,1080,8-29-2022,12-3-57,84,depth_duration_stimuli/001032_2014-06-08_13-23-17_260595134347_rgbf000021-resize_3/001032_2014-06-08_13-23-17_260595134347_rgbf000021-resize_3-target.png,125,3.2725,4,1661,127,feet,jsons/VE125_randls_69.json,585662,912390,37,Man
84,666293,DepthScenes,duration_manipulation_targetAtFixation,jsons/VE125_randls_69.json,http://54.235.29.9/FacialAge/BNav_EC2/DepthDuration/v2_depth_duration_MTurk/v2_DepthDuration_HTML.html#214,214,1920,975,1920,1080,8-29-2022,12-3-57,85,depth_duration_stimuli/002763_2014-06-22_19-13-10_094959634447_rgbf000075-resize_4/002763_2014-06-22_19-13-10_094959634447_rgbf000075-resize_4-target.png,125,1.68375,4,2108,117,feet,jsons/VE125_randls_69.json,585662,912390,37,Man
85,666293,DepthScenes,duration_manipulation_targetAtFixation,jsons/VE125_randls_69.json,http://54.235.29.9/FacialAge/BNav_EC2/DepthDuration/v2_depth_duration_MTurk/v2_DepthDuration_HTML.html#214,214,1920,975,1920,1080,8-29-2022,12-3-57,86,depth_duration_stimuli/002209_2014-06-28_18-36-10_260595134347_rgbf000051-resize_1/002209_2014-06-28_18-36-10_260595134347_rgbf000051-resize_1-target.png,125,2.057,5,1659,117,feet,jsons/VE125_randls_69.json,585662,912390,37,Man
86,666293,DepthScenes,duration_manipulation_targetAtFixation,jsons/VE125_randls_69.json,http://54.235.29.9/FacialAge/BNav_EC2/DepthDuration/v2_depth_duration_MTurk/v2_DepthDuration_HTML.html#214,214,1920,975,1920,1080,8-29-2022,12-3-57,87,depth_duration_stimuli/001055_2014-06-08_18-45-35_260595134347_rgbf000111-resize_4/001055_2014-06-08_18-45-35_260595134347_rgbf000111-resize_4-target.png,125,2.4290000000000003,8,2719,123,feet,jsons/VE125_randls_69.json,585662,912390,37,Man
87,666293,DepthScenes,duration_manipulation_targetAtFixation,jsons/VE125_randls_69.json,http://54.235.29.9/FacialAge/BNav_EC2/DepthDuration/v2_depth_duration_MTurk/v2_DepthDuration_HTML.html#214,214,1920,975,1920,1080,8-29-2022,12-3-57,88,depth_duration_stimuli/000549_2014-06-08_22-10-24_260595134347_rgbf000247-resize_3/000549_2014-06-08_22-10-24_260595134347_rgbf000247-resize_3-target.png,125,1.841,3,2014,126,feet,jsons/VE125_randls_69.json,585662,912390,37,Man
88,666293,DepthScenes,duration_manipulation_targetAtFixation,jsons/VE125_randls_69.json,http://54.235.29.9/FacialAge/BNav_EC2/DepthDuration/v2_depth_duration_MTurk/v2_DepthDuration_HTML.html#214,214,1920,975,1920,1080,8-29-2022,12-3-57,89,depth_duration_stimuli/000682_2014-06-08_23-14-58_260595134347_rgbf000041-resize_5/000682_2014-06-08_23-14-58_260595134347_rgbf000041-resize_5-target.png,125,2.7239999999999998,6,2281,127,feet,jsons/VE125_randls_69.json,585662,912390,37,Man
89,666293,DepthScenes,duration_manipulation_targetAtFixation,jsons/VE125_randls_69.json,http://54.235.29.9/FacialAge/BNav_EC2/DepthDuration/v2_depth_duration_MTurk/v2_DepthDuration_HTML.html#214,214,1920,975,1920,1080,8-29-2022,12-3-57,90,depth_duration_stimuli/001650_2014-06-20_12-09-00_260595134347_rgbf000087-resize_3/001650_2014-06-20_12-09-00_260595134347_rgbf000087-resize_3-target.png,125,1.9505,2,1506,126,feet,jsons/VE125_randls_69.json,585662,912390,37,Man
90,666293,DepthScenes,duration_manipulation_targetAtFixation,jsons/VE125_randls_69.json,http://54.235.29.9/FacialAge/BNav_EC2/DepthDuration/v2_depth_duration_MTurk/v2_DepthDuration_HTML.html#214,214,1920,975,1920,1080,8-29-2022,12-3-57,91,depth_duration_stimuli/001164_2014-06-17_15-35-46_260595134347_rgbf000085-resize_3/001164_2014-06-17_15-35-46_260595134347_rgbf000085-resize_3-target.png,125,2.354,6,2164,140,feet,jsons/VE125_randls_69.json,585662,912390,37,Man
91,666293,DepthScenes,duration_manipulation_targetAtFixation,jsons/VE125_randls_69.json,http://54.235.29.9/FacialAge/BNav_EC2/DepthDuration/v2_depth_duration_MTurk/v2_DepthDuration_HTML.html#214,214,1920,975,1920,1080,8-29-2022,12-3-57,92,depth_duration_stimuli/001136_2014-06-17_15-19-41_260595134347_rgbf000076-resize_3/001136_2014-06-17_15-19-41_260595134347_rgbf000076-resize_3-target.png,125,1.8655,7,2123,134,feet,jsons/VE125_randls_69.json,585662,912390,37,Man
92,666293,DepthScenes,duration_manipulation_targetAtFixation,jsons/VE125_randls_69.json,http://54.235.29.9/FacialAge/BNav_EC2/DepthDuration/v2_depth_duration_MTurk/v2_DepthDuration_HTML.html#214,214,1920,975,1920,1080,8-29-2022,12-3-57,93,depth_duration_stimuli/000436_2014-06-09_22-25-11_260595134347_rgbf000137-resize_1/000436_2014-06-09_22-25-11_260595134347_rgbf000137-resize_1-target.png,125,4.0705,14,4009,124,feet,jsons/VE125_randls_69.json,585662,912390,37,Man
93,666293,DepthScenes,duration_manipulation_targetAtFixation,jsons/VE125_randls_69.json,http://54.235.29.9/FacialAge/BNav_EC2/DepthDuration/v2_depth_duration_MTurk/v2_DepthDuration_HTML.html#214,214,1920,975,1920,1080,8-29-2022,12-3-57,94,depth_duration_stimuli/002444_2014-06-28_20-32-08_260595134347_rgbf000027-resize_0/002444_2014-06-28_20-32-08_260595134347_rgbf000027-resize_0-target.png,125,4.388999999999999,14,4737,121,feet,jsons/VE125_randls_69.json,585662,912390,37,Man
94,666293,DepthScenes,duration_manipulation_targetAtFixation,jsons/VE125_randls_69.json,http://54.235.29.9/FacialAge/BNav_EC2/DepthDuration/v2_depth_duration_MTurk/v2_DepthDuration_HTML.html#214,214,1920,975,1920,1080,8-29-2022,12-3-57,95,depth_duration_stimuli/000470_2014-06-09_19-42-40_260595134347_rgbf000094-resize_1/000470_2014-06-09_19-42-40_260595134347_rgbf000094-resize_1-target.png,125,1.831,3,1607,125,feet,jsons/VE125_randls_69.json,585662,912390,37,Man
95,666293,DepthScenes,duration_manipulation_targetAtFixation,jsons/VE125_randls_69.json,http://54.235.29.9/FacialAge/BNav_EC2/DepthDuration/v2_depth_duration_MTurk/v2_DepthDuration_HTML.html#214,214,1920,975,1920,1080,8-29-2022,12-3-57,96,depth_duration_stimuli/000109_2014-05-14_23-41-52_260595134347_rgbf000035-resize_9/000109_2014-05-14_23-41-52_260595134347_rgbf000035-resize_9-target.png,125,1.3545,4,1896,120,feet,jsons/VE125_randls_69.json,585662,912390,37,Man
96,666293,DepthScenes,duration_manipulation_targetAtFixation,jsons/VE125_randls_69.json,http://54.235.29.9/FacialAge/BNav_EC2/DepthDuration/v2_depth_duration_MTurk/v2_DepthDuration_HTML.html#214,214,1920,975,1920,1080,8-29-2022,12-3-57,97,depth_duration_stimuli/000758_2014-06-08_22-05-08_260595134347_rgbf000085-resize_0/000758_2014-06-08_22-05-08_260595134347_rgbf000085-resize_0-target.png,125,3.3810000000000002,7,2061,135,feet,jsons/VE125_randls_69.json,585662,912390,37,Man
97,666293,DepthScenes,duration_manipulation_targetAtFixation,jsons/VE125_randls_69.json,http://54.235.29.9/FacialAge/BNav_EC2/DepthDuration/v2_depth_duration_MTurk/v2_DepthDuration_HTML.html#214,214,1920,975,1920,1080,8-29-2022,12-3-57,98,depth_duration_stimuli/000854_2014-06-09_19-43-13_260595134347_rgbf000066-resize_0/000854_2014-06-09_19-43-13_260595134347_rgbf000066-resize_0-target.png,125,3.068,3,2378,137,feet,jsons/VE125_randls_69.json,585662,912390,37,Man
98,666293,DepthScenes,duration_manipulation_targetAtFixation,jsons/VE125_randls_69.json,http://54.235.29.9/FacialAge/BNav_EC2/DepthDuration/v2_depth_duration_MTurk/v2_DepthDuration_HTML.html#214,214,1920,975,1920,1080,8-29-2022,12-3-57,99,depth_duration_stimuli/001540_2014-06-20_17-01-05_260595134347_rgbf000086-resize_2/001540_2014-06-20_17-01-05_260595134347_rgbf000086-resize-original.jpg,125,1.459,0,2419,124,feet,jsons/VE125_randls_69.json,585662,912390,37,Man
99,666293,DepthScenes,duration_manipulation_targetAtFixation,jsons/VE125_randls_69.json,http://54.235.29.9/FacialAge/BNav_EC2/DepthDuration/v2_depth_duration_MTurk/v2_DepthDuration_HTML.html#214,214,1920,975,1920,1080,8-29-2022,12-3-57,100,depth_duration_stimuli/003492_2014-05-21_15-50-55_094959634447_rgbf000828-resize_1/003492_2014-05-21_15-50-55_094959634447_rgbf000828-resize_1-target.png,125,4.06875,22,2917,121,feet,jsons/VE125_randls_69.json,585662,912390,37,Man
100,666293,DepthScenes,duration_manipulation_targetAtFixation,jsons/VE125_randls_69.json,http://54.235.29.9/FacialAge/BNav_EC2/DepthDuration/v2_depth_duration_MTurk/v2_DepthDuration_HTML.html#214,214,1920,975,1920,1080,8-29-2022,12-3-57,101,depth_duration_stimuli/002568_2014-06-24_13-59-21_094959634447_rgbf000062-resize_4/002568_2014-06-24_13-59-21_094959634447_rgbf000062-resize_4-target.png,125,3.015,8,4518,133,feet,jsons/VE125_randls_69.json,585662,912390,37,Man
101,666293,DepthScenes,duration_manipulation_targetAtFixation,jsons/VE125_randls_69.json,http://54.235.29.9/FacialAge/BNav_EC2/DepthDuration/v2_depth_duration_MTurk/v2_DepthDuration_HTML.html#214,214,1920,975,1920,1080,8-29-2022,12-3-57,102,depth_duration_stimuli/001810_2014-06-26_20-51-35_260595134347_rgbf000040-resize_3/001810_2014-06-26_20-51-35_260595134347_rgbf000040-resize_3-target.png,125,2.2525,5,3437,126,feet,jsons/VE125_randls_69.json,585662,912390,37,Man
102,666293,DepthScenes,duration_manipulation_targetAtFixation,jsons/VE125_randls_69.json,http://54.235.29.9/FacialAge/BNav_EC2/DepthDuration/v2_depth_duration_MTurk/v2_DepthDuration_HTML.html#214,214,1920,975,1920,1080,8-29-2022,12-3-57,103,depth_duration_stimuli/003010_2014-06-15_12-54-35_094959634447_rgbf000112-resize_0/003010_2014-06-15_12-54-35_094959634447_rgbf000112-resize_0-target.png,125,3.1185,9,2735,126,feet,jsons/VE125_randls_69.json,585662,912390,37,Man
103,666293,DepthScenes,duration_manipulation_targetAtFixation,jsons/VE125_randls_69.json,http://54.235.29.9/FacialAge/BNav_EC2/DepthDuration/v2_depth_duration_MTurk/v2_DepthDuration_HTML.html#214,214,1920,975,1920,1080,8-29-2022,12-3-57,104,depth_duration_stimuli/001158_2014-06-17_15-32-16_260595134347_rgbf000138-resize_2/001158_2014-06-17_15-32-16_260595134347_rgbf000138-resize_2-target.png,125,4.5315,19,5970,123,feet,jsons/VE125_randls_69.json,585662,912390,37,Man
104,666293,DepthScenes,duration_manipulation_targetAtFixation,jsons/VE125_randls_69.json,http://54.235.29.9/FacialAge/BNav_EC2/DepthDuration/v2_depth_duration_MTurk/v2_DepthDuration_HTML.html#214,214,1920,975,1920,1080,8-29-2022,12-3-57,105,depth_duration_stimuli/000556_2014-06-09_22-42-56_260595134347_rgbf000214-resize_1/000556_2014-06-09_22-42-56_260595134347_rgbf000214-resize_1-target.png,125,4.8415,17,5012,124,feet,jsons/VE125_randls_69.json,585662,912390,37,Man
105,666293,DepthScenes,duration_manipulation_targetAtFixation,jsons/VE125_randls_69.json,http://54.235.29.9/FacialAge/BNav_EC2/DepthDuration/v2_depth_duration_MTurk/v2_DepthDuration_HTML.html#214,214,1920,975,1920,1080,8-29-2022,12-3-57,106,depth_duration_stimuli/000810_2014-06-08_17-20-01_260595134347_rgbf000105-resize_0/000810_2014-06-08_17-20-01_260595134347_rgbf000105-resize_0-target.png,125,1.4865,4,2726,139,feet,jsons/VE125_randls_69.json,585662,912390,37,Man
106,666293,DepthScenes,duration_manipulation_targetAtFixation,jsons/VE125_randls_69.json,http://54.235.29.9/FacialAge/BNav_EC2/DepthDuration/v2_depth_duration_MTurk/v2_DepthDuration_HTML.html#214,214,1920,975,1920,1080,8-29-2022,12-3-57,107,depth_duration_stimuli/001214_2014-06-17_16-13-55_260595134347_rgbf000111-resize_0/001214_2014-06-17_16-13-55_260595134347_rgbf000111-resize_0-target.png,125,2.6505,4,1722,129,feet,jsons/VE125_randls_69.json,585662,912390,37,Man
107,666293,DepthScenes,duration_manipulation_targetAtFixation,jsons/VE125_randls_69.json,http://54.235.29.9/FacialAge/BNav_EC2/DepthDuration/v2_depth_duration_MTurk/v2_DepthDuration_HTML.html#214,214,1920,975,1920,1080,8-29-2022,12-3-57,108,depth_duration_stimuli/002600_2014-06-24_14-27-04_094959634447_rgbf000074-resize_2/002600_2014-06-24_14-27-04_094959634447_rgbf000074-resize_2-target.png,125,2.7575,7,1903,127,feet,jsons/VE125_randls_69.json,585662,912390,37,Man
108,666293,DepthScenes,duration_manipulation_targetAtFixation,jsons/VE125_randls_69.json,http://54.235.29.9/FacialAge/BNav_EC2/DepthDuration/v2_depth_duration_MTurk/v2_DepthDuration_HTML.html#214,214,1920,975,1920,1080,8-29-2022,12-3-57,109,depth_duration_stimuli/003228_2014-05-14_13-42-35_094959634447_rgbf000101-resize_1/003228_2014-05-14_13-42-35_094959634447_rgbf000101-resize_1-target.png,125,1.9680000000000002,4,1777,125,feet,jsons/VE125_randls_69.json,585662,912390,37,Man
109,666293,DepthScenes,duration_manipulation_targetAtFixation,jsons/VE125_randls_69.json,http://54.235.29.9/FacialAge/BNav_EC2/DepthDuration/v2_depth_duration_MTurk/v2_DepthDuration_HTML.html#214,214,1920,975,1920,1080,8-29-2022,12-3-57,110,depth_duration_stimuli/001570_2014-06-20_17-21-09_260595134347_rgbf000135-resize_4/001570_2014-06-20_17-21-09_260595134347_rgbf000135-resize_4-target.png,125,4.467,20,4473,126,feet,jsons/VE125_randls_69.json,585662,912390,37,Man
110,666293,DepthScenes,duration_manipulation_targetAtFixation,jsons/VE125_randls_69.json,http://54.235.29.9/FacialAge/BNav_EC2/DepthDuration/v2_depth_duration_MTurk/v2_DepthDuration_HTML.html#214,214,1920,975,1920,1080,8-29-2022,12-3-57,111,depth_duration_stimuli/001392_2014-06-19_16-07-59_260595134347_rgbf000046-resize_1/001392_2014-06-19_16-07-59_260595134347_rgbf000046-resize_1-target.png,125,4.135,24,5436,127,feet,jsons/VE125_randls_69.json,585662,912390,37,Man
111,666293,DepthScenes,duration_manipulation_targetAtFixation,jsons/VE125_randls_69.json,http://54.235.29.9/FacialAge/BNav_EC2/DepthDuration/v2_depth_duration_MTurk/v2_DepthDuration_HTML.html#214,214,1920,975,1920,1080,8-29-2022,12-3-57,112,depth_duration_stimuli/000368_2014-06-09_15-53-01_260595134347_rgbf000155-resize_2/000368_2014-06-09_15-53-01_260595134347_rgbf000155-resize_2-target.png,125,2.4859999999999998,4,4488,123,feet,jsons/VE125_randls_69.json,585662,912390,37,Man
112,666293,DepthScenes,duration_manipulation_targetAtFixation,jsons/VE125_randls_69.json,http://54.235.29.9/FacialAge/BNav_EC2/DepthDuration/v2_depth_duration_MTurk/v2_DepthDuration_HTML.html#214,214,1920,975,1920,1080,8-29-2022,12-3-57,113,depth_duration_stimuli/002678_2014-06-13_16-15-32_094959634447_rgbf000151-resize_6/002678_2014-06-13_16-15-32_094959634447_rgbf000151-resize_6-target.png,125,2.1830000000000003,7,2362,125,feet,jsons/VE125_randls_69.json,585662,912390,37,Man
113,666293,DepthScenes,duration_manipulation_targetAtFixation,jsons/VE125_randls_69.json,http://54.235.29.9/FacialAge/BNav_EC2/DepthDuration/v2_depth_duration_MTurk/v2_DepthDuration_HTML.html#214,214,1920,975,1920,1080,8-29-2022,12-3-57,114,depth_duration_stimuli/001150_2014-06-17_15-27-34_260595134347_rgbf000108-resize_2/001150_2014-06-17_15-27-34_260595134347_rgbf000108-resize_2-target.png,125,4.0325,8,3969,125,feet,jsons/VE125_randls_69.json,585662,912390,37,Man
114,666293,DepthScenes,duration_manipulation_targetAtFixation,jsons/VE125_randls_69.json,http://54.235.29.9/FacialAge/BNav_EC2/DepthDuration/v2_depth_duration_MTurk/v2_DepthDuration_HTML.html#214,214,1920,975,1920,1080,8-29-2022,12-3-57,115,depth_duration_stimuli/000665_2014-06-09_20-42-35_260595134347_rgbf000110-resize_1/000665_2014-06-09_20-42-35_260595134347_rgbf000110-resize_1-target.png,125,3.057,6,3412,139,feet,jsons/VE125_randls_69.json,585662,912390,37,Man
115,666293,DepthScenes,duration_manipulation_targetAtFixation,jsons/VE125_randls_69.json,http://54.235.29.9/FacialAge/BNav_EC2/DepthDuration/v2_depth_duration_MTurk/v2_DepthDuration_HTML.html#214,214,1920,975,1920,1080,8-29-2022,12-3-57,116,depth_duration_stimuli/001170_2014-06-17_15-43-44_260595134347_rgbf000096-resize_6/001170_2014-06-17_15-43-44_260595134347_rgbf000096-resize-original.jpg,125,1.1909999999999998,0,1851,123,feet,jsons/VE125_randls_69.json,585662,912390,37,Man
116,666293,DepthScenes,duration_manipulation_targetAtFixation,jsons/VE125_randls_69.json,http://54.235.29.9/FacialAge/BNav_EC2/DepthDuration/v2_depth_duration_MTurk/v2_DepthDuration_HTML.html#214,214,1920,975,1920,1080,8-29-2022,12-3-57,117,depth_duration_stimuli/002725_2014-06-22_11-47-51_094959634447_rgbf000070-resize_1/002725_2014-06-22_11-47-51_094959634447_rgbf000070-resize_1-target.png,125,2.195,7,2371,117,feet,jsons/VE125_randls_69.json,585662,912390,37,Man
117,666293,DepthScenes,duration_manipulation_targetAtFixation,jsons/VE125_randls_69.json,http://54.235.29.9/FacialAge/BNav_EC2/DepthDuration/v2_depth_duration_MTurk/v2_DepthDuration_HTML.html#214,214,1920,975,1920,1080,8-29-2022,12-3-57,118,depth_duration_stimuli/002344_2014-06-28_20-06-29_260595134347_rgbf000030-resize_1/002344_2014-06-28_20-06-29_260595134347_rgbf000030-resize_1-target.png,125,1.5795,2,1700,123,feet,jsons/VE125_randls_69.json,585662,912390,37,Man
118,666293,DepthScenes,duration_manipulation_targetAtFixation,jsons/VE125_randls_69.json,http://54.235.29.9/FacialAge/BNav_EC2/DepthDuration/v2_depth_duration_MTurk/v2_DepthDuration_HTML.html#214,214,1920,975,1920,1080,8-29-2022,12-3-57,119,depth_duration_stimuli/002509_2014-06-24_13-19-22_094959634447_rgbf000077-resize_0/002509_2014-06-24_13-19-22_094959634447_rgbf000077-resize_0-target.png,125,1.3065,4,2117,124,feet,jsons/VE125_randls_69.json,585662,912390,37,Man
119,666293,DepthScenes,duration_manipulation_targetAtFixation,jsons/VE125_randls_69.json,http://54.235.29.9/FacialAge/BNav_EC2/DepthDuration/v2_depth_duration_MTurk/v2_DepthDuration_HTML.html#214,214,1920,975,1920,1080,8-29-2022,12-3-57,120,depth_duration_stimuli/003338_2014-05-20_11-01-23_094959634447_rgbf000051-resize_6/003338_2014-05-20_11-01-23_094959634447_rgbf000051-resize_6-target.png,125,1.693,3,1845,136,feet,jsons/VE125_randls_69.json,585662,912390,37,Man
120,666293,DepthScenes,duration_manipulation_targetAtFixation,jsons/VE125_randls_69.json,http://54.235.29.9/FacialAge/BNav_EC2/DepthDuration/v2_depth_duration_MTurk/v2_DepthDuration_HTML.html#214,214,1920,975,1920,1080,8-29-2022,12-3-57,121,depth_duration_stimuli/002039_2014-06-24_20-22-38_260595134347_rgbf000084-resize_1/002039_2014-06-24_20-22-38_260595134347_rgbf000084-resize_1-target.png,125,4.408,18,7153,125,feet,jsons/VE125_randls_69.json,585662,912390,37,Man
121,666293,DepthScenes,duration_manipulation_targetAtFixation,jsons/VE125_randls_69.json,http://54.235.29.9/FacialAge/BNav_EC2/DepthDuration/v2_depth_duration_MTurk/v2_DepthDuration_HTML.html#214,214,1920,975,1920,1080,8-29-2022,12-3-57,122,depth_duration_stimuli/002103_2014-06-25_20-00-40_260595134347_rgbf000049-resize_0/002103_2014-06-25_20-00-40_260595134347_rgbf000049-resize_0-target.png,125,4.105,5,2225,124,feet,jsons/VE125_randls_69.json,585662,912390,37,Man
122,666293,DepthScenes,duration_manipulation_targetAtFixation,jsons/VE125_randls_69.json,http://54.235.29.9/FacialAge/BNav_EC2/DepthDuration/v2_depth_duration_MTurk/v2_DepthDuration_HTML.html#214,214,1920,975,1920,1080,8-29-2022,12-3-57,123,depth_duration_stimuli/000929_2014-06-09_16-33-19_260595134347_rgbf000139-resize_0/000929_2014-06-09_16-33-19_260595134347_rgbf000139-resize_0-target.png,125,2.8680000000000003,6,1825,111,feet,jsons/VE125_randls_69.json,585662,912390,37,Man
123,666293,DepthScenes,duration_manipulation_targetAtFixation,jsons/VE125_randls_69.json,http://54.235.29.9/FacialAge/BNav_EC2/DepthDuration/v2_depth_duration_MTurk/v2_DepthDuration_HTML.html#214,214,1920,975,1920,1080,8-29-2022,12-3-57,124,depth_duration_stimuli/000457_2014-06-08_16-52-43_260595134347_rgbf000199-resize_1/000457_2014-06-08_16-52-43_260595134347_rgbf000199-resize_1-target.png,125,3.6489999999999996,8,1980,126,feet,jsons/VE125_randls_69.json,585662,912390,37,Man
124,666293,DepthScenes,duration_manipulation_targetAtFixation,jsons/VE125_randls_69.json,http://54.235.29.9/FacialAge/BNav_EC2/DepthDuration/v2_depth_duration_MTurk/v2_DepthDuration_HTML.html#214,214,1920,975,1920,1080,8-29-2022,12-3-57,125,depth_duration_stimuli/000506_2014-06-08_23-21-00_260595134347_rgbf000070-resize_7/000506_2014-06-08_23-21-00_260595134347_rgbf000070-resize_7-target.png,125,4.0585,8,2314,127,feet,jsons/VE125_randls_69.json,585662,912390,37,Man
125,666293,DepthScenes,duration_manipulation_targetAtFixation,jsons/VE125_randls_69.json,http://54.235.29.9/FacialAge/BNav_EC2/DepthDuration/v2_depth_duration_MTurk/v2_DepthDuration_HTML.html#214,214,1920,975,1920,1080,8-29-2022,12-3-57,126,depth_duration_stimuli/003079_2014-06-15_15-18-20_094959634447_rgbf000152-resize_8/003079_2014-06-15_15-18-20_094959634447_rgbf000152-resize_8-target.png,125,2.8775,12,3028,124,feet,jsons/VE125_randls_69.json,585662,912390,37,Man
126,666293,DepthScenes,duration_manipulation_targetAtFixation,jsons/VE125_randls_69.json,http://54.235.29.9/FacialAge/BNav_EC2/DepthDuration/v2_depth_duration_MTurk/v2_DepthDuration_HTML.html#214,214,1920,975,1920,1080,8-29-2022,12-3-57,127,depth_duration_stimuli/000469_2014-06-09_19-42-10_260595134347_rgbf000081-resize_1/000469_2014-06-09_19-42-10_260595134347_rgbf000081-resize_1-target.png,125,1.652,3,1507,126,feet,jsons/VE125_randls_69.json,585662,912390,37,Man
127,666293,DepthScenes,duration_manipulation_targetAtFixation,jsons/VE125_randls_69.json,http://54.235.29.9/FacialAge/BNav_EC2/DepthDuration/v2_depth_duration_MTurk/v2_DepthDuration_HTML.html#214,214,1920,975,1920,1080,8-29-2022,12-3-57,128,depth_duration_stimuli/000483_2014-06-09_20-41-45_260595134347_rgbf000116-resize_4/000483_2014-06-09_20-41-45_260595134347_rgbf000116-resize_4-target.png,125,1.337,3,1555,128,feet,jsons/VE125_randls_69.json,585662,912390,37,Man
128,666293,DepthScenes,duration_manipulation_targetAtFixation,jsons/VE125_randls_69.json,http://54.235.29.9/FacialAge/BNav_EC2/DepthDuration/v2_depth_duration_MTurk/v2_DepthDuration_HTML.html#214,214,1920,975,1920,1080,8-29-2022,12-3-57,129,depth_duration_stimuli/000773_2014-06-08_22-24-54_260595134347_rgbf000093-resize_1/000773_2014-06-08_22-24-54_260595134347_rgbf000093-resize_1-target.png,125,4.973,17,3644,131,feet,jsons/VE125_randls_69.json,585662,912390,37,Man
129,666293,DepthScenes,duration_manipulation_targetAtFixation,jsons/VE125_randls_69.json,http://54.235.29.9/FacialAge/BNav_EC2/DepthDuration/v2_depth_duration_MTurk/v2_DepthDuration_HTML.html#214,214,1920,975,1920,1080,8-29-2022,12-3-57,130,depth_duration_stimuli/002414_2014-06-28_20-24-58_260595134347_rgbf000067-resize_4/002414_2014-06-28_20-24-58_260595134347_rgbf000067-resize_4-target.png,125,4.363,15,6017,126,feet,jsons/VE125_randls_69.json,585662,912390,37,Man
130,666293,DepthScenes,duration_manipulation_targetAtFixation,jsons/VE125_randls_69.json,http://54.235.29.9/FacialAge/BNav_EC2/DepthDuration/v2_depth_duration_MTurk/v2_DepthDuration_HTML.html#214,214,1920,975,1920,1080,8-29-2022,12-3-57,131,depth_duration_stimuli/001016_2014-06-09_16-16-10_260595134347_rgbf000112-resize_5/001016_2014-06-09_16-16-10_260595134347_rgbf000112-resize_5-target.png,125,1.6565,6,2523,123,feet,jsons/VE125_randls_69.json,585662,912390,37,Man
131,666293,DepthScenes,duration_manipulation_targetAtFixation,jsons/VE125_randls_69.json,http://54.235.29.9/FacialAge/BNav_EC2/DepthDuration/v2_depth_duration_MTurk/v2_DepthDuration_HTML.html#214,214,1920,975,1920,1080,8-29-2022,12-3-57,132,depth_duration_stimuli/002340_2014-06-28_20-05-46_260595134347_rgbf000113-resize_0/002340_2014-06-28_20-05-46_260595134347_rgbf000113-resize_0-target.png,125,2.4735,8,2866,132,feet,jsons/VE125_randls_69.json,585662,912390,37,Man
132,666293,DepthScenes,duration_manipulation_targetAtFixation,jsons/VE125_randls_69.json,http://54.235.29.9/FacialAge/BNav_EC2/DepthDuration/v2_depth_duration_MTurk/v2_DepthDuration_HTML.html#214,214,1920,975,1920,1080,8-29-2022,12-3-57,133,depth_duration_stimuli/002905_2014-06-03_18-04-43_094959634447_rgbf000151-resize_2/002905_2014-06-03_18-04-43_094959634447_rgbf000151-resize_2-target.png,125,2.0295,5,2466,111,feet,jsons/VE125_randls_69.json,585662,912390,37,Man
133,666293,DepthScenes,duration_manipulation_targetAtFixation,jsons/VE125_randls_69.json,http://54.235.29.9/FacialAge/BNav_EC2/DepthDuration/v2_depth_duration_MTurk/v2_DepthDuration_HTML.html#214,214,1920,975,1920,1080,8-29-2022,12-3-57,134,depth_duration_stimuli/003423_2014-05-21_10-23-26_094959634447_rgbf002665-resize_2/003423_2014-05-21_10-23-26_094959634447_rgbf002665-resize_2-target.png,125,3.2575,30,4853,125,feet,jsons/VE125_randls_69.json,585662,912390,37,Man
134,666293,DepthScenes,duration_manipulation_targetAtFixation,jsons/VE125_randls_69.json,http://54.235.29.9/FacialAge/BNav_EC2/DepthDuration/v2_depth_duration_MTurk/v2_DepthDuration_HTML.html#214,214,1920,975,1920,1080,8-29-2022,12-3-57,135,depth_duration_stimuli/002072_2014-06-24_21-48-06_260595134347_rgbf000115-resize_0/002072_2014-06-24_21-48-06_260595134347_rgbf000115-resize-original.jpg,125,4.702,0,2309,124,feet,jsons/VE125_randls_69.json,585662,912390,37,Man
135,666293,DepthScenes,duration_manipulation_targetAtFixation,jsons/VE125_randls_69.json,http://54.235.29.9/FacialAge/BNav_EC2/DepthDuration/v2_depth_duration_MTurk/v2_DepthDuration_HTML.html#214,214,1920,975,1920,1080,8-29-2022,12-3-57,136,depth_duration_stimuli/001417_2014-06-19_16-25-36_260595134347_rgbf000115-resize_5/001417_2014-06-19_16-25-36_260595134347_rgbf000115-resize_5-target.png,125,4.6255,18,3638,125,feet,jsons/VE125_randls_69.json,585662,912390,37,Man
136,666293,DepthScenes,duration_manipulation_targetAtFixation,jsons/VE125_randls_69.json,http://54.235.29.9/FacialAge/BNav_EC2/DepthDuration/v2_depth_duration_MTurk/v2_DepthDuration_HTML.html#214,214,1920,975,1920,1080,8-29-2022,12-3-57,137,depth_duration_stimuli/003081_2014-06-15_15-19-16_094959634447_rgbf000150-resize_1/003081_2014-06-15_15-19-16_094959634447_rgbf000150-resize_1-target.png,125,3.9125,14,3961,124,feet,jsons/VE125_randls_69.json,585662,912390,37,Man
137,666293,DepthScenes,duration_manipulation_targetAtFixation,jsons/VE125_randls_69.json,http://54.235.29.9/FacialAge/BNav_EC2/DepthDuration/v2_depth_duration_MTurk/v2_DepthDuration_HTML.html#214,214,1920,975,1920,1080,8-29-2022,12-3-57,138,depth_duration_stimuli/001133_2014-06-17_14-49-16_260595134347_rgbf000100-resize_0/001133_2014-06-17_14-49-16_260595134347_rgbf000100-resize_0-target.png,125,4.2115,9,2134,118,feet,jsons/VE125_randls_69.json,585662,912390,37,Man
138,666293,DepthScenes,duration_manipulation_targetAtFixation,jsons/VE125_randls_69.json,http://54.235.29.9/FacialAge/BNav_EC2/DepthDuration/v2_depth_duration_MTurk/v2_DepthDuration_HTML.html#214,214,1920,975,1920,1080,8-29-2022,12-3-57,139,depth_duration_stimuli/001132_2014-06-17_14-48-54_260595134347_rgbf000100-resize_2/001132_2014-06-17_14-48-54_260595134347_rgbf000100-resize_2-target.png,125,3.753,12,2341,125,feet,jsons/VE125_randls_69.json,585662,912390,37,Man
139,666293,DepthScenes,duration_manipulation_targetAtFixation,jsons/VE125_randls_69.json,http://54.235.29.9/FacialAge/BNav_EC2/DepthDuration/v2_depth_duration_MTurk/v2_DepthDuration_HTML.html#214,214,1920,975,1920,1080,8-29-2022,12-3-57,140,depth_duration_stimuli/003292_2014-05-14_21-53-49_094959634447_rgbf000100-resize_2/003292_2014-05-14_21-53-49_094959634447_rgbf000100-resize_2-target.png,125,3.4815,8,4944,126,feet,jsons/VE125_randls_69.json,585662,912390,37,Man
140,666293,DepthScenes,duration_manipulation_targetAtFixation,jsons/VE125_randls_69.json,http://54.235.29.9/FacialAge/BNav_EC2/DepthDuration/v2_depth_duration_MTurk/v2_DepthDuration_HTML.html#214,214,1920,975,1920,1080,8-29-2022,12-3-57,141,depth_duration_stimuli/002639_2014-06-24_14-51-37_094959634447_rgbf000074-resize_4/002639_2014-06-24_14-51-37_094959634447_rgbf000074-resize_4-target.png,125,4.0375,20,3459,123,feet,jsons/VE125_randls_69.json,585662,912390,37,Man
141,666293,DepthScenes,duration_manipulation_targetAtFixation,jsons/VE125_randls_69.json,http://54.235.29.9/FacialAge/BNav_EC2/DepthDuration/v2_depth_duration_MTurk/v2_DepthDuration_HTML.html#214,214,1920,975,1920,1080,8-29-2022,12-3-57,142,depth_duration_stimuli/000736_2014-06-08_18-24-15_260595134347_rgbf000206-resize_3/000736_2014-06-08_18-24-15_260595134347_rgbf000206-resize_3-target.png,125,3.515,6,2758,125,feet,jsons/VE125_randls_69.json,585662,912390,37,Man
142,666293,DepthScenes,duration_manipulation_targetAtFixation,jsons/VE125_randls_69.json,http://54.235.29.9/FacialAge/BNav_EC2/DepthDuration/v2_depth_duration_MTurk/v2_DepthDuration_HTML.html#214,214,1920,975,1920,1080,8-29-2022,12-3-57,143,depth_duration_stimuli/000137_2014-05-20_17-04-49_260595134347_rgbf000120-resize_1/000137_2014-05-20_17-04-49_260595134347_rgbf000120-resize_1-target.png,125,3.786,8,2489,124,feet,jsons/VE125_randls_69.json,585662,912390,37,Man
143,666293,DepthScenes,duration_manipulation_targetAtFixation,jsons/VE125_randls_69.json,http://54.235.29.9/FacialAge/BNav_EC2/DepthDuration/v2_depth_duration_MTurk/v2_DepthDuration_HTML.html#214,214,1920,975,1920,1080,8-29-2022,12-3-57,144,depth_duration_stimuli/002043_2014-06-24_20-29-38_260595134347_rgbf000039-resize_4/002043_2014-06-24_20-29-38_260595134347_rgbf000039-resize_4-target.png,125,2.8435,10,3807,125,feet,jsons/VE125_randls_69.json,585662,912390,37,Man
144,666293,DepthScenes,duration_manipulation_targetAtFixation,jsons/VE125_randls_69.json,http://54.235.29.9/FacialAge/BNav_EC2/DepthDuration/v2_depth_duration_MTurk/v2_DepthDuration_HTML.html#214,214,1920,975,1920,1080,8-29-2022,12-3-57,145,depth_duration_stimuli/003048_2014-06-15_13-49-43_094959634447_rgbf000150-resize_1/003048_2014-06-15_13-49-43_094959634447_rgbf000150-resize_1-target.png,125,4.0035,18,4696,123,feet,jsons/VE125_randls_69.json,585662,912390,37,Man
145,666293,DepthScenes,duration_manipulation_targetAtFixation,jsons/VE125_randls_69.json,http://54.235.29.9/FacialAge/BNav_EC2/DepthDuration/v2_depth_duration_MTurk/v2_DepthDuration_HTML.html#214,214,1920,975,1920,1080,8-29-2022,12-3-57,146,depth_duration_stimuli/001498_2014-06-19_17-45-14_260595134347_rgbf000129-resize_4/001498_2014-06-19_17-45-14_260595134347_rgbf000129-resize-original.jpg,125,1.4075,0,2170,117,feet,jsons/VE125_randls_69.json,585662,912390,37,Man
146,666293,DepthScenes,duration_manipulation_targetAtFixation,jsons/VE125_randls_69.json,http://54.235.29.9/FacialAge/BNav_EC2/DepthDuration/v2_depth_duration_MTurk/v2_DepthDuration_HTML.html#214,214,1920,975,1920,1080,8-29-2022,12-3-57,147,depth_duration_stimuli/002788_2014-06-22_19-36-03_094959634447_rgbf000088-resize_2/002788_2014-06-22_19-36-03_094959634447_rgbf000088-resize_2-target.png,125,1.6465,12,2647,123,feet,jsons/VE125_randls_69.json,585662,912390,37,Man
147,666293,DepthScenes,duration_manipulation_targetAtFixation,jsons/VE125_randls_69.json,http://54.235.29.9/FacialAge/BNav_EC2/DepthDuration/v2_depth_duration_MTurk/v2_DepthDuration_HTML.html#214,214,1920,975,1920,1080,8-29-2022,12-3-57,148,depth_duration_stimuli/000749_2014-06-08_21-55-06_260595134347_rgbf000070-resize_2/000749_2014-06-08_21-55-06_260595134347_rgbf000070-resize_2-target.png,125,2.331,8,2171,137,feet,jsons/VE125_randls_69.json,585662,912390,37,Man
148,666293,DepthScenes,duration_manipulation_targetAtFixation,jsons/VE125_randls_69.json,http://54.235.29.9/FacialAge/BNav_EC2/DepthDuration/v2_depth_duration_MTurk/v2_DepthDuration_HTML.html#214,214,1920,975,1920,1080,8-29-2022,12-3-57,149,depth_duration_stimuli/002663_2014-06-13_15-50-26_094959634447_rgbf000075-resize_1/002663_2014-06-13_15-50-26_094959634447_rgbf000075-resize_1-target.png,125,4.7495,22,2920,134,feet,jsons/VE125_randls_69.json,585662,912390,37,Man
149,666293,DepthScenes,duration_manipulation_targetAtFixation,jsons/VE125_randls_69.json,http://54.235.29.9/FacialAge/BNav_EC2/DepthDuration/v2_depth_duration_MTurk/v2_DepthDuration_HTML.html#214,214,1920,975,1920,1080,8-29-2022,12-3-57,150,depth_duration_stimuli/000409_2014-06-04_19-23-33_260595134347_rgbf000067-resize_0/000409_2014-06-04_19-23-33_260595134347_rgbf000067-resize_0-target.png,125,3.7335,14,3800,124,feet,jsons/VE125_randls_69.json,585662,912390,37,Man
150,666293,DepthScenes,duration_manipulation_targetAtFixation,jsons/VE125_randls_69.json,http://54.235.29.9/FacialAge/BNav_EC2/DepthDuration/v2_depth_duration_MTurk/v2_DepthDuration_HTML.html#214,214,1920,975,1920,1080,8-29-2022,12-3-57,151,depth_duration_stimuli/003534_2014-05-22_15-06-10_094959634447_rgbf000102-resize_4/003534_2014-05-22_15-06-10_094959634447_rgbf000102-resize_4-target.png,125,1.426,2,1481,125,feet,jsons/VE125_randls_69.json,585662,912390,37,Man
151,666293,DepthScenes,duration_manipulation_targetAtFixation,jsons/VE125_randls_69.json,http://54.235.29.9/FacialAge/BNav_EC2/DepthDuration/v2_depth_duration_MTurk/v2_DepthDuration_HTML.html#214,214,1920,975,1920,1080,8-29-2022,12-3-57,152,depth_duration_stimuli/002637_2014-06-24_14-51-13_094959634447_rgbf000066-resize_4/002637_2014-06-24_14-51-13_094959634447_rgbf000066-resize_4-target.png,125,1.9955,7,2500,113,feet,jsons/VE125_randls_69.json,585662,912390,37,Man
152,666293,DepthScenes,duration_manipulation_targetAtFixation,jsons/VE125_randls_69.json,http://54.235.29.9/FacialAge/BNav_EC2/DepthDuration/v2_depth_duration_MTurk/v2_DepthDuration_HTML.html#214,214,1920,975,1920,1080,8-29-2022,12-3-57,153,depth_duration_stimuli/001167_2014-06-17_15-38-07_260595134347_rgbf000108-resize_0/001167_2014-06-17_15-38-07_260595134347_rgbf000108-resize_0-target.png,125,1.8505,3,1538,125,feet,jsons/VE125_randls_69.json,585662,912390,37,Man
153,666293,DepthScenes,duration_manipulation_targetAtFixation,jsons/VE125_randls_69.json,http://54.235.29.9/FacialAge/BNav_EC2/DepthDuration/v2_depth_duration_MTurk/v2_DepthDuration_HTML.html#214,214,1920,975,1920,1080,8-29-2022,12-3-57,154,depth_duration_stimuli/003587_2014-05-23_16-48-02_094959634447_rgbf002384-resize_2/003587_2014-05-23_16-48-02_094959634447_rgbf002384-resize_2-target.png,125,1.357,2,1344,125,feet,jsons/VE125_randls_69.json,585662,912390,37,Man
154,666293,DepthScenes,duration_manipulation_targetAtFixation,jsons/VE125_randls_69.json,http://54.235.29.9/FacialAge/BNav_EC2/DepthDuration/v2_depth_duration_MTurk/v2_DepthDuration_HTML.html#214,214,1920,975,1920,1080,8-29-2022,12-3-57,155,depth_duration_stimuli/000414_2014-06-04_19-49-13_260595134347_rgbf000044-resize_0/000414_2014-06-04_19-49-13_260595134347_rgbf000044-resize_0-target.png,125,4.329,23,3755,126,feet,jsons/VE125_randls_69.json,585662,912390,37,Man
155,666293,DepthScenes,duration_manipulation_targetAtFixation,jsons/VE125_randls_69.json,http://54.235.29.9/FacialAge/BNav_EC2/DepthDuration/v2_depth_duration_MTurk/v2_DepthDuration_HTML.html#214,214,1920,975,1920,1080,8-29-2022,12-3-57,156,depth_duration_stimuli/003129_2014-05-12_10-48-10_094959634447_rgbf000100-resize_0/003129_2014-05-12_10-48-10_094959634447_rgbf000100-resize_0-target.png,125,4.9305,17,2820,130,feet,jsons/VE125_randls_69.json,585662,912390,37,Man
156,666293,DepthScenes,duration_manipulation_targetAtFixation,jsons/VE125_randls_69.json,http://54.235.29.9/FacialAge/BNav_EC2/DepthDuration/v2_depth_duration_MTurk/v2_DepthDuration_HTML.html#214,214,1920,975,1920,1080,8-29-2022,12-3-57,157,depth_duration_stimuli/001199_2014-06-17_16-03-48_260595134347_rgbf000077-resize_0/001199_2014-06-17_16-03-48_260595134347_rgbf000077-resize_0-target.png,125,3.4375,8,2279,130,feet,jsons/VE125_randls_69.json,585662,912390,37,Man
157,666293,DepthScenes,duration_manipulation_targetAtFixation,jsons/VE125_randls_69.json,http://54.235.29.9/FacialAge/BNav_EC2/DepthDuration/v2_depth_duration_MTurk/v2_DepthDuration_HTML.html#214,214,1920,975,1920,1080,8-29-2022,12-3-57,158,depth_duration_stimuli/000502_2014-06-08_23-02-32_260595134347_rgbf000063-resize_4/000502_2014-06-08_23-02-32_260595134347_rgbf000063-resize_4-target.png,125,2.431,5,2231,134,feet,jsons/VE125_randls_69.json,585662,912390,37,Man
158,666293,DepthScenes,duration_manipulation_targetAtFixation,jsons/VE125_randls_69.json,http://54.235.29.9/FacialAge/BNav_EC2/DepthDuration/v2_depth_duration_MTurk/v2_DepthDuration_HTML.html#214,214,1920,975,1920,1080,8-29-2022,12-3-57,159,depth_duration_stimuli/000447_2014-06-08_16-15-46_260595134347_rgbf000130-resize_1/000447_2014-06-08_16-15-46_260595134347_rgbf000130-resize_1-target.png,125,4.479,20,5668,126,feet,jsons/VE125_randls_69.json,585662,912390,37,Man
159,666293,DepthScenes,duration_manipulation_targetAtFixation,jsons/VE125_randls_69.json,http://54.235.29.9/FacialAge/BNav_EC2/DepthDuration/v2_depth_duration_MTurk/v2_DepthDuration_HTML.html#214,214,1920,975,1920,1080,8-29-2022,12-3-57,160,depth_duration_stimuli/001447_2014-06-19_17-00-32_260595134347_rgbf000082-resize_5/001447_2014-06-19_17-00-32_260595134347_rgbf000082-resize_5-target.png,125,4.13775,7,3150,125,feet,jsons/VE125_randls_69.json,585662,912390,37,Man
160,666293,DepthScenes,duration_manipulation_targetAtFixation,jsons/VE125_randls_69.json,http://54.235.29.9/FacialAge/BNav_EC2/DepthDuration/v2_depth_duration_MTurk/v2_DepthDuration_HTML.html#214,214,1920,975,1920,1080,8-29-2022,12-3-57,161,depth_duration_stimuli/002213_2014-06-28_18-37-58_260595134347_rgbf000055-resize_1/002213_2014-06-28_18-37-58_260595134347_rgbf000055-resize_1-target.png,125,3.62,11,5289,140,feet,jsons/VE125_randls_69.json,585662,912390,37,Man
161,666293,DepthScenes,duration_manipulation_targetAtFixation,jsons/VE125_randls_69.json,http://54.235.29.9/FacialAge/BNav_EC2/DepthDuration/v2_depth_duration_MTurk/v2_DepthDuration_HTML.html#214,214,1920,975,1920,1080,8-29-2022,12-3-57,162,depth_duration_stimuli/000691_2014-06-08_13-08-50_260595134347_rgbf000132-resize_3/000691_2014-06-08_13-08-50_260595134347_rgbf000132-resize_3-target.png,125,4.1530000000000005,13,4224,125,feet,jsons/VE125_randls_69.json,585662,912390,37,Man
162,666293,DepthScenes,duration_manipulation_targetAtFixation,jsons/VE125_randls_69.json,http://54.235.29.9/FacialAge/BNav_EC2/DepthDuration/v2_depth_duration_MTurk/v2_DepthDuration_HTML.html#214,214,1920,975,1920,1080,8-29-2022,12-3-57,163,depth_duration_stimuli/002445_2014-06-28_20-32-16_260595134347_rgbf000029-resize_4/002445_2014-06-28_20-32-16_260595134347_rgbf000029-resize_4-target.png,125,2.5315,6,2287,125,feet,jsons/VE125_randls_69.json,585662,912390,37,Man
163,666293,DepthScenes,duration_manipulation_targetAtFixation,jsons/VE125_randls_69.json,http://54.235.29.9/FacialAge/BNav_EC2/DepthDuration/v2_depth_duration_MTurk/v2_DepthDuration_HTML.html#214,214,1920,975,1920,1080,8-29-2022,12-3-57,164,depth_duration_stimuli/000780_2014-06-08_22-28-29_260595134347_rgbf000126-resize_1/000780_2014-06-08_22-28-29_260595134347_rgbf000126-resize_1-target.png,125,3.3825,7,2364,137,feet,jsons/VE125_randls_69.json,585662,912390,37,Man
