,subjID,experimentName,versionName,sequenceName,url,selected_row,windowWidth,windowHeight,screenWidth,screenHeight,startDate,startTime,trial,stimulus,duration,actual_depth,depth_estimate,trial_RT,log_sceneDuration,unitSelection,seq_filepath,experimentTime,totalTime,age,gender
0,669037,DepthScenes,duration_manipulation_targetAtFixation,jsons/VE125_randls_6_rotated.json,http://54.235.29.9/FacialAge/BNav_EC2/DepthDuration/v2_depth_duration_MTurk/v2_DepthDuration_HTML.html#138,138,1366,625,1366,768,8-21-2022,6-36-42,1,depth_duration_stimuli/001132_2014-06-17_14-48-54_260595134347_rgbf000100-resize_2/001132_2014-06-17_14-48-54_260595134347_rgbf000100-resize_2-target.png,125,3.753,4.0,3213,124,feet,jsons/VE125_randls_6_rotated.json,796772,1116105,43,Woman
1,669037,DepthScenes,duration_manipulation_targetAtFixation,jsons/VE125_randls_6_rotated.json,http://54.235.29.9/FacialAge/BNav_EC2/DepthDuration/v2_depth_duration_MTurk/v2_DepthDuration_HTML.html#138,138,1366,625,1366,768,8-21-2022,6-36-42,2,depth_duration_stimuli/001133_2014-06-17_14-49-16_260595134347_rgbf000100-resize_0/001133_2014-06-17_14-49-16_260595134347_rgbf000100-resize_0-target.png,125,4.2115,3.5,3973,124,feet,jsons/VE125_randls_6_rotated.json,796772,1116105,43,Woman
2,669037,DepthScenes,duration_manipulation_targetAtFixation,jsons/VE125_randls_6_rotated.json,http://54.235.29.9/FacialAge/BNav_EC2/DepthDuration/v2_depth_duration_MTurk/v2_DepthDuration_HTML.html#138,138,1366,625,1366,768,8-21-2022,6-36-42,3,depth_duration_stimuli/002949_2014-06-26_15-57-42_094959634447_rgbf000079-resize_1/002949_2014-06-26_15-57-42_094959634447_rgbf000079-resize_1-target.png,125,1.8915,3.0,7714,124,feet,jsons/VE125_randls_6_rotated.json,796772,1116105,43,Woman
3,669037,DepthScenes,duration_manipulation_targetAtFixation,jsons/VE125_randls_6_rotated.json,http://54.235.29.9/FacialAge/BNav_EC2/DepthDuration/v2_depth_duration_MTurk/v2_DepthDuration_HTML.html#138,138,1366,625,1366,768,8-21-2022,6-36-42,4,depth_duration_stimuli/000522_2014-06-08_13-35-06_260595134347_rgbf000244-resize_1/000522_2014-06-08_13-35-06_260595134347_rgbf000244-resize_1-target.png,125,2.3715,2.5,4441,121,feet,jsons/VE125_randls_6_rotated.json,796772,1116105,43,Woman
4,669037,DepthScenes,duration_manipulation_targetAtFixation,jsons/VE125_randls_6_rotated.json,http://54.235.29.9/FacialAge/BNav_EC2/DepthDuration/v2_depth_duration_MTurk/v2_DepthDuration_HTML.html#138,138,1366,625,1366,768,8-21-2022,6-36-42,5,depth_duration_stimuli/003083_2014-06-15_15-21-03_094959634447_rgbf000063-resize_1/003083_2014-06-15_15-21-03_094959634447_rgbf000063-resize_1-target.png,125,4.1405,4.0,3081,124,feet,jsons/VE125_randls_6_rotated.json,796772,1116105,43,Woman
5,669037,DepthScenes,duration_manipulation_targetAtFixation,jsons/VE125_randls_6_rotated.json,http://54.235.29.9/FacialAge/BNav_EC2/DepthDuration/v2_depth_duration_MTurk/v2_DepthDuration_HTML.html#138,138,1366,625,1366,768,8-21-2022,6-36-42,6,depth_duration_stimuli/000486_2014-06-09_20-47-20_260595134347_rgbf000143-resize_2/000486_2014-06-09_20-47-20_260595134347_rgbf000143-resize_2-target.png,125,4.8325,4.0,4497,123,feet,jsons/VE125_randls_6_rotated.json,796772,1116105,43,Woman
6,669037,DepthScenes,duration_manipulation_targetAtFixation,jsons/VE125_randls_6_rotated.json,http://54.235.29.9/FacialAge/BNav_EC2/DepthDuration/v2_depth_duration_MTurk/v2_DepthDuration_HTML.html#138,138,1366,625,1366,768,8-21-2022,6-36-42,7,depth_duration_stimuli/003587_2014-05-23_16-48-02_094959634447_rgbf002384-resize_2/003587_2014-05-23_16-48-02_094959634447_rgbf002384-resize_2-target.png,125,1.357,1.5,5227,124,feet,jsons/VE125_randls_6_rotated.json,796772,1116105,43,Woman
7,669037,DepthScenes,duration_manipulation_targetAtFixation,jsons/VE125_randls_6_rotated.json,http://54.235.29.9/FacialAge/BNav_EC2/DepthDuration/v2_depth_duration_MTurk/v2_DepthDuration_HTML.html#138,138,1366,625,1366,768,8-21-2022,6-36-42,8,depth_duration_stimuli/001167_2014-06-17_15-38-07_260595134347_rgbf000108-resize_0/001167_2014-06-17_15-38-07_260595134347_rgbf000108-resize_0-target.png,125,1.8505,3.0,5578,123,feet,jsons/VE125_randls_6_rotated.json,796772,1116105,43,Woman
8,669037,DepthScenes,duration_manipulation_targetAtFixation,jsons/VE125_randls_6_rotated.json,http://54.235.29.9/FacialAge/BNav_EC2/DepthDuration/v2_depth_duration_MTurk/v2_DepthDuration_HTML.html#138,138,1366,625,1366,768,8-21-2022,6-36-42,9,depth_duration_stimuli/001516_2014-06-20_16-25-09_260595134347_rgbf000076-resize_2/001516_2014-06-20_16-25-09_260595134347_rgbf000076-resize_2-target.png,125,1.7445,4.0,3273,124,feet,jsons/VE125_randls_6_rotated.json,796772,1116105,43,Woman
9,669037,DepthScenes,duration_manipulation_targetAtFixation,jsons/VE125_randls_6_rotated.json,http://54.235.29.9/FacialAge/BNav_EC2/DepthDuration/v2_depth_duration_MTurk/v2_DepthDuration_HTML.html#138,138,1366,625,1366,768,8-21-2022,6-36-42,10,depth_duration_stimuli/002118_2014-06-25_20-32-08_260595134347_rgbf000078-resize_1/002118_2014-06-25_20-32-08_260595134347_rgbf000078-resize_1-target.png,125,2.6460000000000004,3.0,4629,124,feet,jsons/VE125_randls_6_rotated.json,796772,1116105,43,Woman
10,669037,DepthScenes,duration_manipulation_targetAtFixation,jsons/VE125_randls_6_rotated.json,http://54.235.29.9/FacialAge/BNav_EC2/DepthDuration/v2_depth_duration_MTurk/v2_DepthDuration_HTML.html#138,138,1366,625,1366,768,8-21-2022,6-36-42,11,depth_duration_stimuli/002340_2014-06-28_20-05-46_260595134347_rgbf000113-resize_0/002340_2014-06-28_20-05-46_260595134347_rgbf000113-resize_0-target.png,125,2.4735,4.0,3079,125,feet,jsons/VE125_randls_6_rotated.json,796772,1116105,43,Woman
11,669037,DepthScenes,duration_manipulation_targetAtFixation,jsons/VE125_randls_6_rotated.json,http://54.235.29.9/FacialAge/BNav_EC2/DepthDuration/v2_depth_duration_MTurk/v2_DepthDuration_HTML.html#138,138,1366,625,1366,768,8-21-2022,6-36-42,12,depth_duration_stimuli/001016_2014-06-09_16-16-10_260595134347_rgbf000112-resize_5/001016_2014-06-09_16-16-10_260595134347_rgbf000112-resize_5-target.png,125,1.6565,3.5,4421,126,feet,jsons/VE125_randls_6_rotated.json,796772,1116105,43,Woman
12,669037,DepthScenes,duration_manipulation_targetAtFixation,jsons/VE125_randls_6_rotated.json,http://54.235.29.9/FacialAge/BNav_EC2/DepthDuration/v2_depth_duration_MTurk/v2_DepthDuration_HTML.html#138,138,1366,625,1366,768,8-21-2022,6-36-42,13,depth_duration_stimuli/003228_2014-05-14_13-42-35_094959634447_rgbf000101-resize_1/003228_2014-05-14_13-42-35_094959634447_rgbf000101-resize_1-target.png,125,1.9680000000000002,2.5,4770,125,feet,jsons/VE125_randls_6_rotated.json,796772,1116105,43,Woman
13,669037,DepthScenes,duration_manipulation_targetAtFixation,jsons/VE125_randls_6_rotated.json,http://54.235.29.9/FacialAge/BNav_EC2/DepthDuration/v2_depth_duration_MTurk/v2_DepthDuration_HTML.html#138,138,1366,625,1366,768,8-21-2022,6-36-42,14,depth_duration_stimuli/002600_2014-06-24_14-27-04_094959634447_rgbf000074-resize_2/002600_2014-06-24_14-27-04_094959634447_rgbf000074-resize_2-target.png,125,2.7575,3.0,4212,126,feet,jsons/VE125_randls_6_rotated.json,796772,1116105,43,Woman
14,669037,DepthScenes,duration_manipulation_targetAtFixation,jsons/VE125_randls_6_rotated.json,http://54.235.29.9/FacialAge/BNav_EC2/DepthDuration/v2_depth_duration_MTurk/v2_DepthDuration_HTML.html#138,138,1366,625,1366,768,8-21-2022,6-36-42,15,depth_duration_stimuli/000854_2014-06-09_19-43-13_260595134347_rgbf000066-resize_0/000854_2014-06-09_19-43-13_260595134347_rgbf000066-resize_0-target.png,125,3.068,3.0,3863,124,feet,jsons/VE125_randls_6_rotated.json,796772,1116105,43,Woman
15,669037,DepthScenes,duration_manipulation_targetAtFixation,jsons/VE125_randls_6_rotated.json,http://54.235.29.9/FacialAge/BNav_EC2/DepthDuration/v2_depth_duration_MTurk/v2_DepthDuration_HTML.html#138,138,1366,625,1366,768,8-21-2022,6-36-42,16,depth_duration_stimuli/000758_2014-06-08_22-05-08_260595134347_rgbf000085-resize_0/000758_2014-06-08_22-05-08_260595134347_rgbf000085-resize_0-target.png,125,3.3810000000000002,4.0,15003,125,feet,jsons/VE125_randls_6_rotated.json,796772,1116105,43,Woman
16,669037,DepthScenes,duration_manipulation_targetAtFixation,jsons/VE125_randls_6_rotated.json,http://54.235.29.9/FacialAge/BNav_EC2/DepthDuration/v2_depth_duration_MTurk/v2_DepthDuration_HTML.html#138,138,1366,625,1366,768,8-21-2022,6-36-42,17,depth_duration_stimuli/001650_2014-06-20_12-09-00_260595134347_rgbf000087-resize_3/001650_2014-06-20_12-09-00_260595134347_rgbf000087-resize_3-target.png,125,1.9505,1.0,3479,124,feet,jsons/VE125_randls_6_rotated.json,796772,1116105,43,Woman
17,669037,DepthScenes,duration_manipulation_targetAtFixation,jsons/VE125_randls_6_rotated.json,http://54.235.29.9/FacialAge/BNav_EC2/DepthDuration/v2_depth_duration_MTurk/v2_DepthDuration_HTML.html#138,138,1366,625,1366,768,8-21-2022,6-36-42,18,depth_duration_stimuli/000682_2014-06-08_23-14-58_260595134347_rgbf000041-resize_5/000682_2014-06-08_23-14-58_260595134347_rgbf000041-resize_5-target.png,125,2.7239999999999998,3.0,2960,125,feet,jsons/VE125_randls_6_rotated.json,796772,1116105,43,Woman
18,669037,DepthScenes,duration_manipulation_targetAtFixation,jsons/VE125_randls_6_rotated.json,http://54.235.29.9/FacialAge/BNav_EC2/DepthDuration/v2_depth_duration_MTurk/v2_DepthDuration_HTML.html#138,138,1366,625,1366,768,8-21-2022,6-36-42,19,depth_duration_stimuli/001498_2014-06-19_17-45-14_260595134347_rgbf000129-resize_4/001498_2014-06-19_17-45-14_260595134347_rgbf000129-resize-original.jpg,125,1.4075,4.0,3490,124,feet,jsons/VE125_randls_6_rotated.json,796772,1116105,43,Woman
19,669037,DepthScenes,duration_manipulation_targetAtFixation,jsons/VE125_randls_6_rotated.json,http://54.235.29.9/FacialAge/BNav_EC2/DepthDuration/v2_depth_duration_MTurk/v2_DepthDuration_HTML.html#138,138,1366,625,1366,768,8-21-2022,6-36-42,20,depth_duration_stimuli/001815_2014-06-26_20-52-55_260595134347_rgbf000020-resize_0/001815_2014-06-26_20-52-55_260595134347_rgbf000020-resize_0-target.png,125,3.3865,4.5,3930,123,feet,jsons/VE125_randls_6_rotated.json,796772,1116105,43,Woman
20,669037,DepthScenes,duration_manipulation_targetAtFixation,jsons/VE125_randls_6_rotated.json,http://54.235.29.9/FacialAge/BNav_EC2/DepthDuration/v2_depth_duration_MTurk/v2_DepthDuration_HTML.html#138,138,1366,625,1366,768,8-21-2022,6-36-42,21,depth_duration_stimuli/001808_2014-06-26_20-50-58_260595134347_rgbf000029-resize_1/001808_2014-06-26_20-50-58_260595134347_rgbf000029-resize_1-target.png,125,4.249,4.0,3147,125,feet,jsons/VE125_randls_6_rotated.json,796772,1116105,43,Woman
21,669037,DepthScenes,duration_manipulation_targetAtFixation,jsons/VE125_randls_6_rotated.json,http://54.235.29.9/FacialAge/BNav_EC2/DepthDuration/v2_depth_duration_MTurk/v2_DepthDuration_HTML.html#138,138,1366,625,1366,768,8-21-2022,6-36-42,22,depth_duration_stimuli/000556_2014-06-09_22-42-56_260595134347_rgbf000214-resize_1/000556_2014-06-09_22-42-56_260595134347_rgbf000214-resize_1-target.png,125,4.8415,3.0,2817,124,feet,jsons/VE125_randls_6_rotated.json,796772,1116105,43,Woman
22,669037,DepthScenes,duration_manipulation_targetAtFixation,jsons/VE125_randls_6_rotated.json,http://54.235.29.9/FacialAge/BNav_EC2/DepthDuration/v2_depth_duration_MTurk/v2_DepthDuration_HTML.html#138,138,1366,625,1366,768,8-21-2022,6-36-42,23,depth_duration_stimuli/001158_2014-06-17_15-32-16_260595134347_rgbf000138-resize_2/001158_2014-06-17_15-32-16_260595134347_rgbf000138-resize_2-target.png,125,4.5315,3.0,2638,124,feet,jsons/VE125_randls_6_rotated.json,796772,1116105,43,Woman
23,669037,DepthScenes,duration_manipulation_targetAtFixation,jsons/VE125_randls_6_rotated.json,http://54.235.29.9/FacialAge/BNav_EC2/DepthDuration/v2_depth_duration_MTurk/v2_DepthDuration_HTML.html#138,138,1366,625,1366,768,8-21-2022,6-36-42,24,depth_duration_stimuli/002444_2014-06-28_20-32-08_260595134347_rgbf000027-resize_0/002444_2014-06-28_20-32-08_260595134347_rgbf000027-resize_0-target.png,125,4.388999999999999,4.0,2807,123,feet,jsons/VE125_randls_6_rotated.json,796772,1116105,43,Woman
24,669037,DepthScenes,duration_manipulation_targetAtFixation,jsons/VE125_randls_6_rotated.json,http://54.235.29.9/FacialAge/BNav_EC2/DepthDuration/v2_depth_duration_MTurk/v2_DepthDuration_HTML.html#138,138,1366,625,1366,768,8-21-2022,6-36-42,25,depth_duration_stimuli/000436_2014-06-09_22-25-11_260595134347_rgbf000137-resize_1/000436_2014-06-09_22-25-11_260595134347_rgbf000137-resize_1-target.png,125,4.0705,4.0,2468,124,feet,jsons/VE125_randls_6_rotated.json,796772,1116105,43,Woman
25,669037,DepthScenes,duration_manipulation_targetAtFixation,jsons/VE125_randls_6_rotated.json,http://54.235.29.9/FacialAge/BNav_EC2/DepthDuration/v2_depth_duration_MTurk/v2_DepthDuration_HTML.html#138,138,1366,625,1366,768,8-21-2022,6-36-42,26,depth_duration_stimuli/002199_2014-06-28_18-33-56_260595134347_rgbf000074-resize_0/002199_2014-06-28_18-33-56_260595134347_rgbf000074-resize_0-target.png,125,1.996,2.0,3112,124,feet,jsons/VE125_randls_6_rotated.json,796772,1116105,43,Woman
26,669037,DepthScenes,duration_manipulation_targetAtFixation,jsons/VE125_randls_6_rotated.json,http://54.235.29.9/FacialAge/BNav_EC2/DepthDuration/v2_depth_duration_MTurk/v2_DepthDuration_HTML.html#138,138,1366,625,1366,768,8-21-2022,6-36-42,27,depth_duration_stimuli/001056_2014-06-08_18-46-44_260595134347_rgbf000068-resize_0/001056_2014-06-08_18-46-44_260595134347_rgbf000068-resize_0-target.png,125,2.6625,3.0,4835,124,feet,jsons/VE125_randls_6_rotated.json,796772,1116105,43,Woman
27,669037,DepthScenes,duration_manipulation_targetAtFixation,jsons/VE125_randls_6_rotated.json,http://54.235.29.9/FacialAge/BNav_EC2/DepthDuration/v2_depth_duration_MTurk/v2_DepthDuration_HTML.html#138,138,1366,625,1366,768,8-21-2022,6-36-42,28,depth_duration_stimuli/000742_2014-06-08_18-48-09_260595134347_rgbf000164-resize_4/000742_2014-06-08_18-48-09_260595134347_rgbf000164-resize_4-target.png,125,4.632,4.0,2653,122,feet,jsons/VE125_randls_6_rotated.json,796772,1116105,43,Woman
28,669037,DepthScenes,duration_manipulation_targetAtFixation,jsons/VE125_randls_6_rotated.json,http://54.235.29.9/FacialAge/BNav_EC2/DepthDuration/v2_depth_duration_MTurk/v2_DepthDuration_HTML.html#138,138,1366,625,1366,768,8-21-2022,6-36-42,29,depth_duration_stimuli/001066_2014-06-08_22-03-20_260595134347_rgbf000066-resize_4/001066_2014-06-08_22-03-20_260595134347_rgbf000066-resize_4-target.png,125,4.2330000000000005,4.0,9715,123,feet,jsons/VE125_randls_6_rotated.json,796772,1116105,43,Woman
29,669037,DepthScenes,duration_manipulation_targetAtFixation,jsons/VE125_randls_6_rotated.json,http://54.235.29.9/FacialAge/BNav_EC2/DepthDuration/v2_depth_duration_MTurk/v2_DepthDuration_HTML.html#138,138,1366,625,1366,768,8-21-2022,6-36-42,30,depth_duration_stimuli/002072_2014-06-24_21-48-06_260595134347_rgbf000115-resize_0/002072_2014-06-24_21-48-06_260595134347_rgbf000115-resize-original.jpg,125,4.702,0.0,3795,125,feet,jsons/VE125_randls_6_rotated.json,796772,1116105,43,Woman
30,669037,DepthScenes,duration_manipulation_targetAtFixation,jsons/VE125_randls_6_rotated.json,http://54.235.29.9/FacialAge/BNav_EC2/DepthDuration/v2_depth_duration_MTurk/v2_DepthDuration_HTML.html#138,138,1366,625,1366,768,8-21-2022,6-36-42,31,depth_duration_stimuli/001032_2014-06-08_13-23-17_260595134347_rgbf000021-resize_3/001032_2014-06-08_13-23-17_260595134347_rgbf000021-resize_3-target.png,125,3.2725,3.0,2918,122,feet,jsons/VE125_randls_6_rotated.json,796772,1116105,43,Woman
31,669037,DepthScenes,duration_manipulation_targetAtFixation,jsons/VE125_randls_6_rotated.json,http://54.235.29.9/FacialAge/BNav_EC2/DepthDuration/v2_depth_duration_MTurk/v2_DepthDuration_HTML.html#138,138,1366,625,1366,768,8-21-2022,6-36-42,32,depth_duration_stimuli/001059_2014-06-08_21-53-27_260595134347_rgbf000061-resize_4/001059_2014-06-08_21-53-27_260595134347_rgbf000061-resize_4-target.png,125,2.4185,3.0,1919,125,feet,jsons/VE125_randls_6_rotated.json,796772,1116105,43,Woman
32,669037,DepthScenes,duration_manipulation_targetAtFixation,jsons/VE125_randls_6_rotated.json,http://54.235.29.9/FacialAge/BNav_EC2/DepthDuration/v2_depth_duration_MTurk/v2_DepthDuration_HTML.html#138,138,1366,625,1366,768,8-21-2022,6-36-42,33,depth_duration_stimuli/000191_2014-05-12_17-07-38_260595134347_rgbf000199-resize_0/000191_2014-05-12_17-07-38_260595134347_rgbf000199-resize_0-target.png,125,3.7995,4.0,1844,125,feet,jsons/VE125_randls_6_rotated.json,796772,1116105,43,Woman
33,669037,DepthScenes,duration_manipulation_targetAtFixation,jsons/VE125_randls_6_rotated.json,http://54.235.29.9/FacialAge/BNav_EC2/DepthDuration/v2_depth_duration_MTurk/v2_DepthDuration_HTML.html#138,138,1366,625,1366,768,8-21-2022,6-36-42,34,depth_duration_stimuli/000493_2014-06-09_21-01-18_260595134347_rgbf000196-resize_3/000493_2014-06-09_21-01-18_260595134347_rgbf000196-resize_3-target.png,125,3.44,3.0,1917,125,feet,jsons/VE125_randls_6_rotated.json,796772,1116105,43,Woman
34,669037,DepthScenes,duration_manipulation_targetAtFixation,jsons/VE125_randls_6_rotated.json,http://54.235.29.9/FacialAge/BNav_EC2/DepthDuration/v2_depth_duration_MTurk/v2_DepthDuration_HTML.html#138,138,1366,625,1366,768,8-21-2022,6-36-42,35,depth_duration_stimuli/001447_2014-06-19_17-00-32_260595134347_rgbf000082-resize_5/001447_2014-06-19_17-00-32_260595134347_rgbf000082-resize_5-target.png,125,4.13775,3.0,1703,124,feet,jsons/VE125_randls_6_rotated.json,796772,1116105,43,Woman
35,669037,DepthScenes,duration_manipulation_targetAtFixation,jsons/VE125_randls_6_rotated.json,http://54.235.29.9/FacialAge/BNav_EC2/DepthDuration/v2_depth_duration_MTurk/v2_DepthDuration_HTML.html#138,138,1366,625,1366,768,8-21-2022,6-36-42,36,depth_duration_stimuli/000447_2014-06-08_16-15-46_260595134347_rgbf000130-resize_1/000447_2014-06-08_16-15-46_260595134347_rgbf000130-resize_1-target.png,125,4.479,4.0,1674,124,feet,jsons/VE125_randls_6_rotated.json,796772,1116105,43,Woman
36,669037,DepthScenes,duration_manipulation_targetAtFixation,jsons/VE125_randls_6_rotated.json,http://54.235.29.9/FacialAge/BNav_EC2/DepthDuration/v2_depth_duration_MTurk/v2_DepthDuration_HTML.html#138,138,1366,625,1366,768,8-21-2022,6-36-42,37,depth_duration_stimuli/002953_2014-06-08_17-32-18_094959634447_rgbf000059-resize_5/002953_2014-06-08_17-32-18_094959634447_rgbf000059-resize_5-target.png,125,1.551,2.0,3372,125,feet,jsons/VE125_randls_6_rotated.json,796772,1116105,43,Woman
37,669037,DepthScenes,duration_manipulation_targetAtFixation,jsons/VE125_randls_6_rotated.json,http://54.235.29.9/FacialAge/BNav_EC2/DepthDuration/v2_depth_duration_MTurk/v2_DepthDuration_HTML.html#138,138,1366,625,1366,768,8-21-2022,6-36-42,38,depth_duration_stimuli/000878_2014-06-08_22-52-45_260595134347_rgbf000045-resize_2/000878_2014-06-08_22-52-45_260595134347_rgbf000045-resize_2-target.png,125,2.092,4.0,2479,124,feet,jsons/VE125_randls_6_rotated.json,796772,1116105,43,Woman
38,669037,DepthScenes,duration_manipulation_targetAtFixation,jsons/VE125_randls_6_rotated.json,http://54.235.29.9/FacialAge/BNav_EC2/DepthDuration/v2_depth_duration_MTurk/v2_DepthDuration_HTML.html#138,138,1366,625,1366,768,8-21-2022,6-36-42,39,depth_duration_stimuli/000866_2014-06-09_20-45-42_260595134347_rgbf000139-resize_1/000866_2014-06-09_20-45-42_260595134347_rgbf000139-resize_1-target.png,125,3.2155,4.0,1828,124,feet,jsons/VE125_randls_6_rotated.json,796772,1116105,43,Woman
39,669037,DepthScenes,duration_manipulation_targetAtFixation,jsons/VE125_randls_6_rotated.json,http://54.235.29.9/FacialAge/BNav_EC2/DepthDuration/v2_depth_duration_MTurk/v2_DepthDuration_HTML.html#138,138,1366,625,1366,768,8-21-2022,6-36-42,40,depth_duration_stimuli/002989_2014-06-15_12-25-03_094959634447_rgbf000150-resize_3/002989_2014-06-15_12-25-03_094959634447_rgbf000150-resize_3-target.png,125,4.1975,4.0,3337,125,feet,jsons/VE125_randls_6_rotated.json,796772,1116105,43,Woman
40,669037,DepthScenes,duration_manipulation_targetAtFixation,jsons/VE125_randls_6_rotated.json,http://54.235.29.9/FacialAge/BNav_EC2/DepthDuration/v2_depth_duration_MTurk/v2_DepthDuration_HTML.html#138,138,1366,625,1366,768,8-21-2022,6-36-42,41,depth_duration_stimuli/002545_2014-06-24_13-38-53_094959634447_rgbf000080-resize_4/002545_2014-06-24_13-38-53_094959634447_rgbf000080-resize_4-target.png,125,1.9205,3.0,2284,124,feet,jsons/VE125_randls_6_rotated.json,796772,1116105,43,Woman
41,669037,DepthScenes,duration_manipulation_targetAtFixation,jsons/VE125_randls_6_rotated.json,http://54.235.29.9/FacialAge/BNav_EC2/DepthDuration/v2_depth_duration_MTurk/v2_DepthDuration_HTML.html#138,138,1366,625,1366,768,8-21-2022,6-36-42,42,depth_duration_stimuli/001092_2014-06-15_17-34-58_260595134347_rgbf000171-resize_3/001092_2014-06-15_17-34-58_260595134347_rgbf000171-resize_3-target.png,125,2.6935,2.5,4076,125,feet,jsons/VE125_randls_6_rotated.json,796772,1116105,43,Woman
42,669037,DepthScenes,duration_manipulation_targetAtFixation,jsons/VE125_randls_6_rotated.json,http://54.235.29.9/FacialAge/BNav_EC2/DepthDuration/v2_depth_duration_MTurk/v2_DepthDuration_HTML.html#138,138,1366,625,1366,768,8-21-2022,6-36-42,43,depth_duration_stimuli/000749_2014-06-08_21-55-06_260595134347_rgbf000070-resize_2/000749_2014-06-08_21-55-06_260595134347_rgbf000070-resize_2-target.png,125,2.331,3.0,2745,125,feet,jsons/VE125_randls_6_rotated.json,796772,1116105,43,Woman
43,669037,DepthScenes,duration_manipulation_targetAtFixation,jsons/VE125_randls_6_rotated.json,http://54.235.29.9/FacialAge/BNav_EC2/DepthDuration/v2_depth_duration_MTurk/v2_DepthDuration_HTML.html#138,138,1366,625,1366,768,8-21-2022,6-36-42,44,depth_duration_stimuli/002788_2014-06-22_19-36-03_094959634447_rgbf000088-resize_2/002788_2014-06-22_19-36-03_094959634447_rgbf000088-resize_2-target.png,125,1.6465,3.5,3528,125,feet,jsons/VE125_randls_6_rotated.json,796772,1116105,43,Woman
44,669037,DepthScenes,duration_manipulation_targetAtFixation,jsons/VE125_randls_6_rotated.json,http://54.235.29.9/FacialAge/BNav_EC2/DepthDuration/v2_depth_duration_MTurk/v2_DepthDuration_HTML.html#138,138,1366,625,1366,768,8-21-2022,6-36-42,45,depth_duration_stimuli/000502_2014-06-08_23-02-32_260595134347_rgbf000063-resize_4/000502_2014-06-08_23-02-32_260595134347_rgbf000063-resize_4-target.png,125,2.431,3.0,5281,123,feet,jsons/VE125_randls_6_rotated.json,796772,1116105,43,Woman
45,669037,DepthScenes,duration_manipulation_targetAtFixation,jsons/VE125_randls_6_rotated.json,http://54.235.29.9/FacialAge/BNav_EC2/DepthDuration/v2_depth_duration_MTurk/v2_DepthDuration_HTML.html#138,138,1366,625,1366,768,8-21-2022,6-36-42,46,depth_duration_stimuli/001199_2014-06-17_16-03-48_260595134347_rgbf000077-resize_0/001199_2014-06-17_16-03-48_260595134347_rgbf000077-resize_0-target.png,125,3.4375,4.0,2746,123,feet,jsons/VE125_randls_6_rotated.json,796772,1116105,43,Woman
46,669037,DepthScenes,duration_manipulation_targetAtFixation,jsons/VE125_randls_6_rotated.json,http://54.235.29.9/FacialAge/BNav_EC2/DepthDuration/v2_depth_duration_MTurk/v2_DepthDuration_HTML.html#138,138,1366,625,1366,768,8-21-2022,6-36-42,47,depth_duration_stimuli/001094_2014-06-15_17-36-00_260595134347_rgbf000205-resize_0/001094_2014-06-15_17-36-00_260595134347_rgbf000205-resize_0-target.png,125,4.2175,3.5,11102,123,feet,jsons/VE125_randls_6_rotated.json,796772,1116105,43,Woman
47,669037,DepthScenes,duration_manipulation_targetAtFixation,jsons/VE125_randls_6_rotated.json,http://54.235.29.9/FacialAge/BNav_EC2/DepthDuration/v2_depth_duration_MTurk/v2_DepthDuration_HTML.html#138,138,1366,625,1366,768,8-21-2022,6-36-42,48,depth_duration_stimuli/000692_2014-06-08_13-09-42_260595134347_rgbf000199-resize_2/000692_2014-06-08_13-09-42_260595134347_rgbf000199-resize_2-target.png,125,3.661,4.0,2624,125,feet,jsons/VE125_randls_6_rotated.json,796772,1116105,43,Woman
48,669037,DepthScenes,duration_manipulation_targetAtFixation,jsons/VE125_randls_6_rotated.json,http://54.235.29.9/FacialAge/BNav_EC2/DepthDuration/v2_depth_duration_MTurk/v2_DepthDuration_HTML.html#138,138,1366,625,1366,768,8-21-2022,6-36-42,49,depth_duration_stimuli/001170_2014-06-17_15-43-44_260595134347_rgbf000096-resize_6/001170_2014-06-17_15-43-44_260595134347_rgbf000096-resize-original.jpg,125,1.1909999999999998,2.0,4786,124,feet,jsons/VE125_randls_6_rotated.json,796772,1116105,43,Woman
49,669037,DepthScenes,duration_manipulation_targetAtFixation,jsons/VE125_randls_6_rotated.json,http://54.235.29.9/FacialAge/BNav_EC2/DepthDuration/v2_depth_duration_MTurk/v2_DepthDuration_HTML.html#138,138,1366,625,1366,768,8-21-2022,6-36-42,50,depth_duration_stimuli/000635_2014-06-08_16-38-42_260595134347_rgbf000106-resize_1/000635_2014-06-08_16-38-42_260595134347_rgbf000106-resize_1-target.png,125,2.074,3.0,2764,125,feet,jsons/VE125_randls_6_rotated.json,796772,1116105,43,Woman
50,669037,DepthScenes,duration_manipulation_targetAtFixation,jsons/VE125_randls_6_rotated.json,http://54.235.29.9/FacialAge/BNav_EC2/DepthDuration/v2_depth_duration_MTurk/v2_DepthDuration_HTML.html#138,138,1366,625,1366,768,8-21-2022,6-36-42,51,depth_duration_stimuli/002279_2014-06-28_18-55-32_260595134347_rgbf000040-resize_5/002279_2014-06-28_18-55-32_260595134347_rgbf000040-resize_5-target.png,125,1.5043333333333,2.0,2523,124,feet,jsons/VE125_randls_6_rotated.json,796772,1116105,43,Woman
51,669037,DepthScenes,duration_manipulation_targetAtFixation,jsons/VE125_randls_6_rotated.json,http://54.235.29.9/FacialAge/BNav_EC2/DepthDuration/v2_depth_duration_MTurk/v2_DepthDuration_HTML.html#138,138,1366,625,1366,768,8-21-2022,6-36-42,52,depth_duration_stimuli/000457_2014-06-08_16-52-43_260595134347_rgbf000199-resize_1/000457_2014-06-08_16-52-43_260595134347_rgbf000199-resize_1-target.png,125,3.6489999999999996,4.0,3039,125,feet,jsons/VE125_randls_6_rotated.json,796772,1116105,43,Woman
52,669037,DepthScenes,duration_manipulation_targetAtFixation,jsons/VE125_randls_6_rotated.json,http://54.235.29.9/FacialAge/BNav_EC2/DepthDuration/v2_depth_duration_MTurk/v2_DepthDuration_HTML.html#138,138,1366,625,1366,768,8-21-2022,6-36-42,53,depth_duration_stimuli/000929_2014-06-09_16-33-19_260595134347_rgbf000139-resize_0/000929_2014-06-09_16-33-19_260595134347_rgbf000139-resize_0-target.png,125,2.8680000000000003,3.0,2642,124,feet,jsons/VE125_randls_6_rotated.json,796772,1116105,43,Woman
53,669037,DepthScenes,duration_manipulation_targetAtFixation,jsons/VE125_randls_6_rotated.json,http://54.235.29.9/FacialAge/BNav_EC2/DepthDuration/v2_depth_duration_MTurk/v2_DepthDuration_HTML.html#138,138,1366,625,1366,768,8-21-2022,6-36-42,54,depth_duration_stimuli/002344_2014-06-28_20-06-29_260595134347_rgbf000030-resize_1/002344_2014-06-28_20-06-29_260595134347_rgbf000030-resize_1-target.png,125,1.5795,2.0,1903,124,feet,jsons/VE125_randls_6_rotated.json,796772,1116105,43,Woman
54,669037,DepthScenes,duration_manipulation_targetAtFixation,jsons/VE125_randls_6_rotated.json,http://54.235.29.9/FacialAge/BNav_EC2/DepthDuration/v2_depth_duration_MTurk/v2_DepthDuration_HTML.html#138,138,1366,625,1366,768,8-21-2022,6-36-42,55,depth_duration_stimuli/002725_2014-06-22_11-47-51_094959634447_rgbf000070-resize_1/002725_2014-06-22_11-47-51_094959634447_rgbf000070-resize_1-target.png,125,2.195,3.0,2462,124,feet,jsons/VE125_randls_6_rotated.json,796772,1116105,43,Woman
55,669037,DepthScenes,duration_manipulation_targetAtFixation,jsons/VE125_randls_6_rotated.json,http://54.235.29.9/FacialAge/BNav_EC2/DepthDuration/v2_depth_duration_MTurk/v2_DepthDuration_HTML.html#138,138,1366,625,1366,768,8-21-2022,6-36-42,56,depth_duration_stimuli/002639_2014-06-24_14-51-37_094959634447_rgbf000074-resize_4/002639_2014-06-24_14-51-37_094959634447_rgbf000074-resize_4-target.png,125,4.0375,4.0,2434,124,feet,jsons/VE125_randls_6_rotated.json,796772,1116105,43,Woman
56,669037,DepthScenes,duration_manipulation_targetAtFixation,jsons/VE125_randls_6_rotated.json,http://54.235.29.9/FacialAge/BNav_EC2/DepthDuration/v2_depth_duration_MTurk/v2_DepthDuration_HTML.html#138,138,1366,625,1366,768,8-21-2022,6-36-42,57,depth_duration_stimuli/003292_2014-05-14_21-53-49_094959634447_rgbf000100-resize_2/003292_2014-05-14_21-53-49_094959634447_rgbf000100-resize_2-target.png,125,3.4815,3.0,2330,126,feet,jsons/VE125_randls_6_rotated.json,796772,1116105,43,Woman
57,669037,DepthScenes,duration_manipulation_targetAtFixation,jsons/VE125_randls_6_rotated.json,http://54.235.29.9/FacialAge/BNav_EC2/DepthDuration/v2_depth_duration_MTurk/v2_DepthDuration_HTML.html#138,138,1366,625,1366,768,8-21-2022,6-36-42,58,depth_duration_stimuli/001136_2014-06-17_15-19-41_260595134347_rgbf000076-resize_3/001136_2014-06-17_15-19-41_260595134347_rgbf000076-resize_3-target.png,125,1.8655,4.0,4354,122,feet,jsons/VE125_randls_6_rotated.json,796772,1116105,43,Woman
58,669037,DepthScenes,duration_manipulation_targetAtFixation,jsons/VE125_randls_6_rotated.json,http://54.235.29.9/FacialAge/BNav_EC2/DepthDuration/v2_depth_duration_MTurk/v2_DepthDuration_HTML.html#138,138,1366,625,1366,768,8-21-2022,6-36-42,59,depth_duration_stimuli/001164_2014-06-17_15-35-46_260595134347_rgbf000085-resize_3/001164_2014-06-17_15-35-46_260595134347_rgbf000085-resize_3-target.png,125,2.354,4.0,1687,123,feet,jsons/VE125_randls_6_rotated.json,796772,1116105,43,Woman
59,669037,DepthScenes,duration_manipulation_targetAtFixation,jsons/VE125_randls_6_rotated.json,http://54.235.29.9/FacialAge/BNav_EC2/DepthDuration/v2_depth_duration_MTurk/v2_DepthDuration_HTML.html#138,138,1366,625,1366,768,8-21-2022,6-36-42,60,depth_duration_stimuli/000483_2014-06-09_20-41-45_260595134347_rgbf000116-resize_4/000483_2014-06-09_20-41-45_260595134347_rgbf000116-resize_4-target.png,125,1.337,2.0,3179,126,feet,jsons/VE125_randls_6_rotated.json,796772,1116105,43,Woman
60,669037,DepthScenes,duration_manipulation_targetAtFixation,jsons/VE125_randls_6_rotated.json,http://54.235.29.9/FacialAge/BNav_EC2/DepthDuration/v2_depth_duration_MTurk/v2_DepthDuration_HTML.html#138,138,1366,625,1366,768,8-21-2022,6-36-42,61,depth_duration_stimuli/000469_2014-06-09_19-42-10_260595134347_rgbf000081-resize_1/000469_2014-06-09_19-42-10_260595134347_rgbf000081-resize_1-target.png,125,1.652,3.0,2096,124,feet,jsons/VE125_randls_6_rotated.json,796772,1116105,43,Woman
61,669037,DepthScenes,duration_manipulation_targetAtFixation,jsons/VE125_randls_6_rotated.json,http://54.235.29.9/FacialAge/BNav_EC2/DepthDuration/v2_depth_duration_MTurk/v2_DepthDuration_HTML.html#138,138,1366,625,1366,768,8-21-2022,6-36-42,62,depth_duration_stimuli/000109_2014-05-14_23-41-52_260595134347_rgbf000035-resize_9/000109_2014-05-14_23-41-52_260595134347_rgbf000035-resize_9-target.png,125,1.3545,2.0,1996,124,feet,jsons/VE125_randls_6_rotated.json,796772,1116105,43,Woman
62,669037,DepthScenes,duration_manipulation_targetAtFixation,jsons/VE125_randls_6_rotated.json,http://54.235.29.9/FacialAge/BNav_EC2/DepthDuration/v2_depth_duration_MTurk/v2_DepthDuration_HTML.html#138,138,1366,625,1366,768,8-21-2022,6-36-42,63,depth_duration_stimuli/000470_2014-06-09_19-42-40_260595134347_rgbf000094-resize_1/000470_2014-06-09_19-42-40_260595134347_rgbf000094-resize_1-target.png,125,1.831,0.0,4752,123,feet,jsons/VE125_randls_6_rotated.json,796772,1116105,43,Woman
63,669037,DepthScenes,duration_manipulation_targetAtFixation,jsons/VE125_randls_6_rotated.json,http://54.235.29.9/FacialAge/BNav_EC2/DepthDuration/v2_depth_duration_MTurk/v2_DepthDuration_HTML.html#138,138,1366,625,1366,768,8-21-2022,6-36-42,64,depth_duration_stimuli/000549_2014-06-08_22-10-24_260595134347_rgbf000247-resize_3/000549_2014-06-08_22-10-24_260595134347_rgbf000247-resize_3-target.png,125,1.841,2.0,2652,124,feet,jsons/VE125_randls_6_rotated.json,796772,1116105,43,Woman
64,669037,DepthScenes,duration_manipulation_targetAtFixation,jsons/VE125_randls_6_rotated.json,http://54.235.29.9/FacialAge/BNav_EC2/DepthDuration/v2_depth_duration_MTurk/v2_DepthDuration_HTML.html#138,138,1366,625,1366,768,8-21-2022,6-36-42,65,depth_duration_stimuli/001055_2014-06-08_18-45-35_260595134347_rgbf000111-resize_4/001055_2014-06-08_18-45-35_260595134347_rgbf000111-resize_4-target.png,125,2.4290000000000003,4.0,4362,125,feet,jsons/VE125_randls_6_rotated.json,796772,1116105,43,Woman
65,669037,DepthScenes,duration_manipulation_targetAtFixation,jsons/VE125_randls_6_rotated.json,http://54.235.29.9/FacialAge/BNav_EC2/DepthDuration/v2_depth_duration_MTurk/v2_DepthDuration_HTML.html#138,138,1366,625,1366,768,8-21-2022,6-36-42,66,depth_duration_stimuli/001540_2014-06-20_17-01-05_260595134347_rgbf000086-resize_2/001540_2014-06-20_17-01-05_260595134347_rgbf000086-resize-original.jpg,125,1.459,0.0,3056,123,feet,jsons/VE125_randls_6_rotated.json,796772,1116105,43,Woman
66,669037,DepthScenes,duration_manipulation_targetAtFixation,jsons/VE125_randls_6_rotated.json,http://54.235.29.9/FacialAge/BNav_EC2/DepthDuration/v2_depth_duration_MTurk/v2_DepthDuration_HTML.html#138,138,1366,625,1366,768,8-21-2022,6-36-42,67,depth_duration_stimuli/002660_2014-06-13_15-44-18_094959634447_rgbf001878-resize_2/002660_2014-06-13_15-44-18_094959634447_rgbf001878-resize_2-target.png,125,3.576,3.0,2496,123,feet,jsons/VE125_randls_6_rotated.json,796772,1116105,43,Woman
67,669037,DepthScenes,duration_manipulation_targetAtFixation,jsons/VE125_randls_6_rotated.json,http://54.235.29.9/FacialAge/BNav_EC2/DepthDuration/v2_depth_duration_MTurk/v2_DepthDuration_HTML.html#138,138,1366,625,1366,768,8-21-2022,6-36-42,68,depth_duration_stimuli/002153_2014-06-25_21-27-18_260595134347_rgbf000038-resize_5/002153_2014-06-25_21-27-18_260595134347_rgbf000038-resize_5-target.png,125,2.505,4.0,2026,124,feet,jsons/VE125_randls_6_rotated.json,796772,1116105,43,Woman
68,669037,DepthScenes,duration_manipulation_targetAtFixation,jsons/VE125_randls_6_rotated.json,http://54.235.29.9/FacialAge/BNav_EC2/DepthDuration/v2_depth_duration_MTurk/v2_DepthDuration_HTML.html#138,138,1366,625,1366,768,8-21-2022,6-36-42,69,depth_duration_stimuli/001617_2014-06-20_11-35-32_260595134347_rgbf000066-resize_1/001617_2014-06-20_11-35-32_260595134347_rgbf000066-resize_1-target.png,125,3.7910000000000004,3.0,2055,125,feet,jsons/VE125_randls_6_rotated.json,796772,1116105,43,Woman
69,669037,DepthScenes,duration_manipulation_targetAtFixation,jsons/VE125_randls_6_rotated.json,http://54.235.29.9/FacialAge/BNav_EC2/DepthDuration/v2_depth_duration_MTurk/v2_DepthDuration_HTML.html#138,138,1366,625,1366,768,8-21-2022,6-36-42,70,depth_duration_stimuli/001806_2014-06-26_20-50-20_260595134347_rgbf000091-resize_1/001806_2014-06-26_20-50-20_260595134347_rgbf000091-resize_1-target.png,125,2.7305,3.0,2003,124,feet,jsons/VE125_randls_6_rotated.json,796772,1116105,43,Woman
70,669037,DepthScenes,duration_manipulation_targetAtFixation,jsons/VE125_randls_6_rotated.json,http://54.235.29.9/FacialAge/BNav_EC2/DepthDuration/v2_depth_duration_MTurk/v2_DepthDuration_HTML.html#138,138,1366,625,1366,768,8-21-2022,6-36-42,71,depth_duration_stimuli/002467_2014-06-28_20-38-07_260595134347_rgbf000026-resize_2/002467_2014-06-28_20-38-07_260595134347_rgbf000026-resize_2-target.png,125,4.742,4.0,2201,121,feet,jsons/VE125_randls_6_rotated.json,796772,1116105,43,Woman
71,669037,DepthScenes,duration_manipulation_targetAtFixation,jsons/VE125_randls_6_rotated.json,http://54.235.29.9/FacialAge/BNav_EC2/DepthDuration/v2_depth_duration_MTurk/v2_DepthDuration_HTML.html#138,138,1366,625,1366,768,8-21-2022,6-36-42,72,depth_duration_stimuli/002570_2014-06-24_13-59-54_094959634447_rgbf000059-resize_0/002570_2014-06-24_13-59-54_094959634447_rgbf000059-resize_0-target.png,125,4.037,3.0,3346,124,feet,jsons/VE125_randls_6_rotated.json,796772,1116105,43,Woman
72,669037,DepthScenes,duration_manipulation_targetAtFixation,jsons/VE125_randls_6_rotated.json,http://54.235.29.9/FacialAge/BNav_EC2/DepthDuration/v2_depth_duration_MTurk/v2_DepthDuration_HTML.html#138,138,1366,625,1366,768,8-21-2022,6-36-42,73,depth_duration_stimuli/002805_2014-06-22_19-54-03_094959634447_rgbf000079-resize_1/002805_2014-06-22_19-54-03_094959634447_rgbf000079-resize_1-target.png,125,3.1439999999999997,4.0,2929,123,feet,jsons/VE125_randls_6_rotated.json,796772,1116105,43,Woman
73,669037,DepthScenes,duration_manipulation_targetAtFixation,jsons/VE125_randls_6_rotated.json,http://54.235.29.9/FacialAge/BNav_EC2/DepthDuration/v2_depth_duration_MTurk/v2_DepthDuration_HTML.html#138,138,1366,625,1366,768,8-21-2022,6-36-42,74,depth_duration_stimuli/000906_2014-06-08_13-35-43_260595134347_rgbf000155-resize_1/000906_2014-06-08_13-35-43_260595134347_rgbf000155-resize_1-target.png,125,2.8489999999999998,4.0,1879,125,feet,jsons/VE125_randls_6_rotated.json,796772,1116105,43,Woman
74,669037,DepthScenes,duration_manipulation_targetAtFixation,jsons/VE125_randls_6_rotated.json,http://54.235.29.9/FacialAge/BNav_EC2/DepthDuration/v2_depth_duration_MTurk/v2_DepthDuration_HTML.html#138,138,1366,625,1366,768,8-21-2022,6-36-42,75,depth_duration_stimuli/002414_2014-06-28_20-24-58_260595134347_rgbf000067-resize_4/002414_2014-06-28_20-24-58_260595134347_rgbf000067-resize_4-target.png,125,4.363,4.0,2062,124,feet,jsons/VE125_randls_6_rotated.json,796772,1116105,43,Woman
75,669037,DepthScenes,duration_manipulation_targetAtFixation,jsons/VE125_randls_6_rotated.json,http://54.235.29.9/FacialAge/BNav_EC2/DepthDuration/v2_depth_duration_MTurk/v2_DepthDuration_HTML.html#138,138,1366,625,1366,768,8-21-2022,6-36-42,76,depth_duration_stimuli/000773_2014-06-08_22-24-54_260595134347_rgbf000093-resize_1/000773_2014-06-08_22-24-54_260595134347_rgbf000093-resize_1-target.png,125,4.973,4.0,2023,125,feet,jsons/VE125_randls_6_rotated.json,796772,1116105,43,Woman
76,669037,DepthScenes,duration_manipulation_targetAtFixation,jsons/VE125_randls_6_rotated.json,http://54.235.29.9/FacialAge/BNav_EC2/DepthDuration/v2_depth_duration_MTurk/v2_DepthDuration_HTML.html#138,138,1366,625,1366,768,8-21-2022,6-36-42,77,depth_duration_stimuli/000709_2014-06-08_13-51-55_260595134347_rgbf000068-resize_3/000709_2014-06-08_13-51-55_260595134347_rgbf000068-resize_3-target.png,125,1.8030000000000002,4.0,1682,123,feet,jsons/VE125_randls_6_rotated.json,796772,1116105,43,Woman
77,669037,DepthScenes,duration_manipulation_targetAtFixation,jsons/VE125_randls_6_rotated.json,http://54.235.29.9/FacialAge/BNav_EC2/DepthDuration/v2_depth_duration_MTurk/v2_DepthDuration_HTML.html#138,138,1366,625,1366,768,8-21-2022,6-36-42,78,depth_duration_stimuli/002057_2014-06-24_21-00-13_260595134347_rgbf000120-resize_1/002057_2014-06-24_21-00-13_260595134347_rgbf000120-resize_1-target.png,125,2.967,4.0,1568,124,feet,jsons/VE125_randls_6_rotated.json,796772,1116105,43,Woman
78,669037,DepthScenes,duration_manipulation_targetAtFixation,jsons/VE125_randls_6_rotated.json,http://54.235.29.9/FacialAge/BNav_EC2/DepthDuration/v2_depth_duration_MTurk/v2_DepthDuration_HTML.html#138,138,1366,625,1366,768,8-21-2022,6-36-42,79,depth_duration_stimuli/002750_2014-06-22_19-08-03_094959634447_rgbf000094-resize_4/002750_2014-06-22_19-08-03_094959634447_rgbf000094-resize_4-target.png,125,2.354,4.0,1467,122,feet,jsons/VE125_randls_6_rotated.json,796772,1116105,43,Woman
79,669037,DepthScenes,duration_manipulation_targetAtFixation,jsons/VE125_randls_6_rotated.json,http://54.235.29.9/FacialAge/BNav_EC2/DepthDuration/v2_depth_duration_MTurk/v2_DepthDuration_HTML.html#138,138,1366,625,1366,768,8-21-2022,6-36-42,80,depth_duration_stimuli/002549_2014-06-24_13-41-39_094959634447_rgbf000022-resize_3/002549_2014-06-24_13-41-39_094959634447_rgbf000022-resize_3-target.png,125,1.476,3.0,2889,124,feet,jsons/VE125_randls_6_rotated.json,796772,1116105,43,Woman
80,669037,DepthScenes,duration_manipulation_targetAtFixation,jsons/VE125_randls_6_rotated.json,http://54.235.29.9/FacialAge/BNav_EC2/DepthDuration/v2_depth_duration_MTurk/v2_DepthDuration_HTML.html#138,138,1366,625,1366,768,8-21-2022,6-36-42,81,depth_duration_stimuli/003338_2014-05-20_11-01-23_094959634447_rgbf000051-resize_6/003338_2014-05-20_11-01-23_094959634447_rgbf000051-resize_6-target.png,125,1.693,2.0,2446,122,feet,jsons/VE125_randls_6_rotated.json,796772,1116105,43,Woman
81,669037,DepthScenes,duration_manipulation_targetAtFixation,jsons/VE125_randls_6_rotated.json,http://54.235.29.9/FacialAge/BNav_EC2/DepthDuration/v2_depth_duration_MTurk/v2_DepthDuration_HTML.html#138,138,1366,625,1366,768,8-21-2022,6-36-42,82,depth_duration_stimuli/002509_2014-06-24_13-19-22_094959634447_rgbf000077-resize_0/002509_2014-06-24_13-19-22_094959634447_rgbf000077-resize_0-target.png,125,1.3065,2.0,2028,124,feet,jsons/VE125_randls_6_rotated.json,796772,1116105,43,Woman
82,669037,DepthScenes,duration_manipulation_targetAtFixation,jsons/VE125_randls_6_rotated.json,http://54.235.29.9/FacialAge/BNav_EC2/DepthDuration/v2_depth_duration_MTurk/v2_DepthDuration_HTML.html#138,138,1366,625,1366,768,8-21-2022,6-36-42,83,depth_duration_stimuli/002657_2014-06-13_15-29-54_094959634447_rgbf000150-resize_1/002657_2014-06-13_15-29-54_094959634447_rgbf000150-resize_1-target.png,125,4.919,3.0,1627,124,feet,jsons/VE125_randls_6_rotated.json,796772,1116105,43,Woman
83,669037,DepthScenes,duration_manipulation_targetAtFixation,jsons/VE125_randls_6_rotated.json,http://54.235.29.9/FacialAge/BNav_EC2/DepthDuration/v2_depth_duration_MTurk/v2_DepthDuration_HTML.html#138,138,1366,625,1366,768,8-21-2022,6-36-42,84,depth_duration_stimuli/002375_2014-06-28_20-13-44_260595134347_rgbf000032-resize_1/002375_2014-06-28_20-13-44_260595134347_rgbf000032-resize_1-target.png,125,4.0175,3.0,1713,124,feet,jsons/VE125_randls_6_rotated.json,796772,1116105,43,Woman
84,669037,DepthScenes,duration_manipulation_targetAtFixation,jsons/VE125_randls_6_rotated.json,http://54.235.29.9/FacialAge/BNav_EC2/DepthDuration/v2_depth_duration_MTurk/v2_DepthDuration_HTML.html#138,138,1366,625,1366,768,8-21-2022,6-36-42,85,depth_duration_stimuli/001584_2014-06-20_11-07-43_260595134347_rgbf000002-resize_1/001584_2014-06-20_11-07-43_260595134347_rgbf000002-resize_1-target.png,125,3.53,4.0,3003,125,feet,jsons/VE125_randls_6_rotated.json,796772,1116105,43,Woman
85,669037,DepthScenes,duration_manipulation_targetAtFixation,jsons/VE125_randls_6_rotated.json,http://54.235.29.9/FacialAge/BNav_EC2/DepthDuration/v2_depth_duration_MTurk/v2_DepthDuration_HTML.html#138,138,1366,625,1366,768,8-21-2022,6-36-42,86,depth_duration_stimuli/003621_2014-05-23_18-06-08_094959634447_rgbf000101-resize_1/003621_2014-05-23_18-06-08_094959634447_rgbf000101-resize_1-target.png,125,3.9835,4.0,1778,125,feet,jsons/VE125_randls_6_rotated.json,796772,1116105,43,Woman
86,669037,DepthScenes,duration_manipulation_targetAtFixation,jsons/VE125_randls_6_rotated.json,http://54.235.29.9/FacialAge/BNav_EC2/DepthDuration/v2_depth_duration_MTurk/v2_DepthDuration_HTML.html#138,138,1366,625,1366,768,8-21-2022,6-36-42,87,depth_duration_stimuli/003081_2014-06-15_15-19-16_094959634447_rgbf000150-resize_1/003081_2014-06-15_15-19-16_094959634447_rgbf000150-resize_1-target.png,125,3.9125,3.0,3250,124,feet,jsons/VE125_randls_6_rotated.json,796772,1116105,43,Woman
87,669037,DepthScenes,duration_manipulation_targetAtFixation,jsons/VE125_randls_6_rotated.json,http://54.235.29.9/FacialAge/BNav_EC2/DepthDuration/v2_depth_duration_MTurk/v2_DepthDuration_HTML.html#138,138,1366,625,1366,768,8-21-2022,6-36-42,88,depth_duration_stimuli/001417_2014-06-19_16-25-36_260595134347_rgbf000115-resize_5/001417_2014-06-19_16-25-36_260595134347_rgbf000115-resize_5-target.png,125,4.6255,4.0,3372,125,feet,jsons/VE125_randls_6_rotated.json,796772,1116105,43,Woman
88,669037,DepthScenes,duration_manipulation_targetAtFixation,jsons/VE125_randls_6_rotated.json,http://54.235.29.9/FacialAge/BNav_EC2/DepthDuration/v2_depth_duration_MTurk/v2_DepthDuration_HTML.html#138,138,1366,625,1366,768,8-21-2022,6-36-42,89,depth_duration_stimuli/003079_2014-06-15_15-18-20_094959634447_rgbf000152-resize_8/003079_2014-06-15_15-18-20_094959634447_rgbf000152-resize_8-target.png,125,2.8775,4.0,2220,124,feet,jsons/VE125_randls_6_rotated.json,796772,1116105,43,Woman
89,669037,DepthScenes,duration_manipulation_targetAtFixation,jsons/VE125_randls_6_rotated.json,http://54.235.29.9/FacialAge/BNav_EC2/DepthDuration/v2_depth_duration_MTurk/v2_DepthDuration_HTML.html#138,138,1366,625,1366,768,8-21-2022,6-36-42,90,depth_duration_stimuli/000506_2014-06-08_23-21-00_260595134347_rgbf000070-resize_7/000506_2014-06-08_23-21-00_260595134347_rgbf000070-resize_7-target.png,125,4.0585,3.0,3048,124,feet,jsons/VE125_randls_6_rotated.json,796772,1116105,43,Woman
90,669037,DepthScenes,duration_manipulation_targetAtFixation,jsons/VE125_randls_6_rotated.json,http://54.235.29.9/FacialAge/BNav_EC2/DepthDuration/v2_depth_duration_MTurk/v2_DepthDuration_HTML.html#138,138,1366,625,1366,768,8-21-2022,6-36-42,91,depth_duration_stimuli/000677_2014-06-08_23-10-32_260595134347_rgbf000158-resize_6/000677_2014-06-08_23-10-32_260595134347_rgbf000158-resize_6-target.png,125,3.556,3.0,1691,123,feet,jsons/VE125_randls_6_rotated.json,796772,1116105,43,Woman
91,669037,DepthScenes,duration_manipulation_targetAtFixation,jsons/VE125_randls_6_rotated.json,http://54.235.29.9/FacialAge/BNav_EC2/DepthDuration/v2_depth_duration_MTurk/v2_DepthDuration_HTML.html#138,138,1366,625,1366,768,8-21-2022,6-36-42,92,depth_duration_stimuli/001029_2014-06-08_13-17-57_260595134347_rgbf000065-resize_1/001029_2014-06-08_13-17-57_260595134347_rgbf000065-resize_1-target.png,125,3.0835,4.0,1906,124,feet,jsons/VE125_randls_6_rotated.json,796772,1116105,43,Woman
92,669037,DepthScenes,duration_manipulation_targetAtFixation,jsons/VE125_randls_6_rotated.json,http://54.235.29.9/FacialAge/BNav_EC2/DepthDuration/v2_depth_duration_MTurk/v2_DepthDuration_HTML.html#138,138,1366,625,1366,768,8-21-2022,6-36-42,93,depth_duration_stimuli/001214_2014-06-17_16-13-55_260595134347_rgbf000111-resize_0/001214_2014-06-17_16-13-55_260595134347_rgbf000111-resize_0-target.png,125,2.6505,2.0,2819,124,feet,jsons/VE125_randls_6_rotated.json,796772,1116105,43,Woman
93,669037,DepthScenes,duration_manipulation_targetAtFixation,jsons/VE125_randls_6_rotated.json,http://54.235.29.9/FacialAge/BNav_EC2/DepthDuration/v2_depth_duration_MTurk/v2_DepthDuration_HTML.html#138,138,1366,625,1366,768,8-21-2022,6-36-42,94,depth_duration_stimuli/000810_2014-06-08_17-20-01_260595134347_rgbf000105-resize_0/000810_2014-06-08_17-20-01_260595134347_rgbf000105-resize_0-target.png,125,1.4865,3.0,2457,125,feet,jsons/VE125_randls_6_rotated.json,796772,1116105,43,Woman
94,669037,DepthScenes,duration_manipulation_targetAtFixation,jsons/VE125_randls_6_rotated.json,http://54.235.29.9/FacialAge/BNav_EC2/DepthDuration/v2_depth_duration_MTurk/v2_DepthDuration_HTML.html#138,138,1366,625,1366,768,8-21-2022,6-36-42,95,depth_duration_stimuli/003048_2014-06-15_13-49-43_094959634447_rgbf000150-resize_1/003048_2014-06-15_13-49-43_094959634447_rgbf000150-resize_1-target.png,125,4.0035,4.0,2297,123,feet,jsons/VE125_randls_6_rotated.json,796772,1116105,43,Woman
95,669037,DepthScenes,duration_manipulation_targetAtFixation,jsons/VE125_randls_6_rotated.json,http://54.235.29.9/FacialAge/BNav_EC2/DepthDuration/v2_depth_duration_MTurk/v2_DepthDuration_HTML.html#138,138,1366,625,1366,768,8-21-2022,6-36-42,96,depth_duration_stimuli/002043_2014-06-24_20-29-38_260595134347_rgbf000039-resize_4/002043_2014-06-24_20-29-38_260595134347_rgbf000039-resize_4-target.png,125,2.8435,3.0,2043,124,feet,jsons/VE125_randls_6_rotated.json,796772,1116105,43,Woman
96,669037,DepthScenes,duration_manipulation_targetAtFixation,jsons/VE125_randls_6_rotated.json,http://54.235.29.9/FacialAge/BNav_EC2/DepthDuration/v2_depth_duration_MTurk/v2_DepthDuration_HTML.html#138,138,1366,625,1366,768,8-21-2022,6-36-42,97,depth_duration_stimuli/002678_2014-06-13_16-15-32_094959634447_rgbf000151-resize_6/002678_2014-06-13_16-15-32_094959634447_rgbf000151-resize_6-target.png,125,2.1830000000000003,4.0,2232,125,feet,jsons/VE125_randls_6_rotated.json,796772,1116105,43,Woman
97,669037,DepthScenes,duration_manipulation_targetAtFixation,jsons/VE125_randls_6_rotated.json,http://54.235.29.9/FacialAge/BNav_EC2/DepthDuration/v2_depth_duration_MTurk/v2_DepthDuration_HTML.html#138,138,1366,625,1366,768,8-21-2022,6-36-42,98,depth_duration_stimuli/000368_2014-06-09_15-53-01_260595134347_rgbf000155-resize_2/000368_2014-06-09_15-53-01_260595134347_rgbf000155-resize_2-target.png,125,2.4859999999999998,2.0,4547,129,feet,jsons/VE125_randls_6_rotated.json,796772,1116105,43,Woman
98,669037,DepthScenes,duration_manipulation_targetAtFixation,jsons/VE125_randls_6_rotated.json,http://54.235.29.9/FacialAge/BNav_EC2/DepthDuration/v2_depth_duration_MTurk/v2_DepthDuration_HTML.html#138,138,1366,625,1366,768,8-21-2022,6-36-42,99,depth_duration_stimuli/001222_2014-06-17_16-24-06_260595134347_rgbf000073-resize_0/001222_2014-06-17_16-24-06_260595134347_rgbf000073-resize-original.jpg,125,1.4385,0.0,3596,124,feet,jsons/VE125_randls_6_rotated.json,796772,1116105,43,Woman
99,669037,DepthScenes,duration_manipulation_targetAtFixation,jsons/VE125_randls_6_rotated.json,http://54.235.29.9/FacialAge/BNav_EC2/DepthDuration/v2_depth_duration_MTurk/v2_DepthDuration_HTML.html#138,138,1366,625,1366,768,8-21-2022,6-36-42,100,depth_duration_stimuli/003129_2014-05-12_10-48-10_094959634447_rgbf000100-resize_0/003129_2014-05-12_10-48-10_094959634447_rgbf000100-resize_0-target.png,125,4.9305,3.0,2800,125,feet,jsons/VE125_randls_6_rotated.json,796772,1116105,43,Woman
100,669037,DepthScenes,duration_manipulation_targetAtFixation,jsons/VE125_randls_6_rotated.json,http://54.235.29.9/FacialAge/BNav_EC2/DepthDuration/v2_depth_duration_MTurk/v2_DepthDuration_HTML.html#138,138,1366,625,1366,768,8-21-2022,6-36-42,101,depth_duration_stimuli/000414_2014-06-04_19-49-13_260595134347_rgbf000044-resize_0/000414_2014-06-04_19-49-13_260595134347_rgbf000044-resize_0-target.png,125,4.329,4.0,1876,128,feet,jsons/VE125_randls_6_rotated.json,796772,1116105,43,Woman
101,669037,DepthScenes,duration_manipulation_targetAtFixation,jsons/VE125_randls_6_rotated.json,http://54.235.29.9/FacialAge/BNav_EC2/DepthDuration/v2_depth_duration_MTurk/v2_DepthDuration_HTML.html#138,138,1366,625,1366,768,8-21-2022,6-36-42,102,depth_duration_stimuli/000665_2014-06-09_20-42-35_260595134347_rgbf000110-resize_1/000665_2014-06-09_20-42-35_260595134347_rgbf000110-resize_1-target.png,125,3.057,3.0,2490,124,feet,jsons/VE125_randls_6_rotated.json,796772,1116105,43,Woman
102,669037,DepthScenes,duration_manipulation_targetAtFixation,jsons/VE125_randls_6_rotated.json,http://54.235.29.9/FacialAge/BNav_EC2/DepthDuration/v2_depth_duration_MTurk/v2_DepthDuration_HTML.html#138,138,1366,625,1366,768,8-21-2022,6-36-42,103,depth_duration_stimuli/001150_2014-06-17_15-27-34_260595134347_rgbf000108-resize_2/001150_2014-06-17_15-27-34_260595134347_rgbf000108-resize_2-target.png,125,4.0325,3.0,2299,124,feet,jsons/VE125_randls_6_rotated.json,796772,1116105,43,Woman
103,669037,DepthScenes,duration_manipulation_targetAtFixation,jsons/VE125_randls_6_rotated.json,http://54.235.29.9/FacialAge/BNav_EC2/DepthDuration/v2_depth_duration_MTurk/v2_DepthDuration_HTML.html#138,138,1366,625,1366,768,8-21-2022,6-36-42,104,depth_duration_stimuli/000943_2014-06-09_19-31-07_260595134347_rgbf000128-resize_1/000943_2014-06-09_19-31-07_260595134347_rgbf000128-resize_1-target.png,125,1.9765,2.0,1984,124,feet,jsons/VE125_randls_6_rotated.json,796772,1116105,43,Woman
104,669037,DepthScenes,duration_manipulation_targetAtFixation,jsons/VE125_randls_6_rotated.json,http://54.235.29.9/FacialAge/BNav_EC2/DepthDuration/v2_depth_duration_MTurk/v2_DepthDuration_HTML.html#138,138,1366,625,1366,768,8-21-2022,6-36-42,105,depth_duration_stimuli/003070_2014-06-15_14-58-27_094959634447_rgbf000150-resize_3/003070_2014-06-15_14-58-27_094959634447_rgbf000150-resize_3-target.png,125,2.9415,3.0,1884,124,feet,jsons/VE125_randls_6_rotated.json,796772,1116105,43,Woman
105,669037,DepthScenes,duration_manipulation_targetAtFixation,jsons/VE125_randls_6_rotated.json,http://54.235.29.9/FacialAge/BNav_EC2/DepthDuration/v2_depth_duration_MTurk/v2_DepthDuration_HTML.html#138,138,1366,625,1366,768,8-21-2022,6-36-42,106,depth_duration_stimuli/002103_2014-06-25_20-00-40_260595134347_rgbf000049-resize_0/002103_2014-06-25_20-00-40_260595134347_rgbf000049-resize_0-target.png,125,4.105,4.0,2594,123,feet,jsons/VE125_randls_6_rotated.json,796772,1116105,43,Woman
106,669037,DepthScenes,duration_manipulation_targetAtFixation,jsons/VE125_randls_6_rotated.json,http://54.235.29.9/FacialAge/BNav_EC2/DepthDuration/v2_depth_duration_MTurk/v2_DepthDuration_HTML.html#138,138,1366,625,1366,768,8-21-2022,6-36-42,107,depth_duration_stimuli/002039_2014-06-24_20-22-38_260595134347_rgbf000084-resize_1/002039_2014-06-24_20-22-38_260595134347_rgbf000084-resize_1-target.png,125,4.408,3.0,1896,122,feet,jsons/VE125_randls_6_rotated.json,796772,1116105,43,Woman
107,669037,DepthScenes,duration_manipulation_targetAtFixation,jsons/VE125_randls_6_rotated.json,http://54.235.29.9/FacialAge/BNav_EC2/DepthDuration/v2_depth_duration_MTurk/v2_DepthDuration_HTML.html#138,138,1366,625,1366,768,8-21-2022,6-36-42,108,depth_duration_stimuli/003495_2014-05-21_16-01-51_094959634447_rgbf000100-resize_3/003495_2014-05-21_16-01-51_094959634447_rgbf000100-resize_3-target.png,125,1.6255,2.0,2779,125,feet,jsons/VE125_randls_6_rotated.json,796772,1116105,43,Woman
108,669037,DepthScenes,duration_manipulation_targetAtFixation,jsons/VE125_randls_6_rotated.json,http://54.235.29.9/FacialAge/BNav_EC2/DepthDuration/v2_depth_duration_MTurk/v2_DepthDuration_HTML.html#138,138,1366,625,1366,768,8-21-2022,6-36-42,109,depth_duration_stimuli/001244_2014-06-17_16-47-45_260595134347_rgbf000030-resize_4/001244_2014-06-17_16-47-45_260595134347_rgbf000030-resize_4-target.png,125,2.0425,3.0,1914,125,feet,jsons/VE125_randls_6_rotated.json,796772,1116105,43,Woman
109,669037,DepthScenes,duration_manipulation_targetAtFixation,jsons/VE125_randls_6_rotated.json,http://54.235.29.9/FacialAge/BNav_EC2/DepthDuration/v2_depth_duration_MTurk/v2_DepthDuration_HTML.html#138,138,1366,625,1366,768,8-21-2022,6-36-42,110,depth_duration_stimuli/000137_2014-05-20_17-04-49_260595134347_rgbf000120-resize_1/000137_2014-05-20_17-04-49_260595134347_rgbf000120-resize_1-target.png,125,3.786,4.0,11701,123,feet,jsons/VE125_randls_6_rotated.json,796772,1116105,43,Woman
110,669037,DepthScenes,duration_manipulation_targetAtFixation,jsons/VE125_randls_6_rotated.json,http://54.235.29.9/FacialAge/BNav_EC2/DepthDuration/v2_depth_duration_MTurk/v2_DepthDuration_HTML.html#138,138,1366,625,1366,768,8-21-2022,6-36-42,111,depth_duration_stimuli/000736_2014-06-08_18-24-15_260595134347_rgbf000206-resize_3/000736_2014-06-08_18-24-15_260595134347_rgbf000206-resize_3-target.png,125,3.515,3.0,2703,124,feet,jsons/VE125_randls_6_rotated.json,796772,1116105,43,Woman
111,669037,DepthScenes,duration_manipulation_targetAtFixation,jsons/VE125_randls_6_rotated.json,http://54.235.29.9/FacialAge/BNav_EC2/DepthDuration/v2_depth_duration_MTurk/v2_DepthDuration_HTML.html#138,138,1366,625,1366,768,8-21-2022,6-36-42,112,depth_duration_stimuli/000734_2014-06-08_17-39-11_260595134347_rgbf000128-resize_2/000734_2014-06-08_17-39-11_260595134347_rgbf000128-resize_2-target.png,125,4.098,4.0,2465,123,feet,jsons/VE125_randls_6_rotated.json,796772,1116105,43,Woman
112,669037,DepthScenes,duration_manipulation_targetAtFixation,jsons/VE125_randls_6_rotated.json,http://54.235.29.9/FacialAge/BNav_EC2/DepthDuration/v2_depth_duration_MTurk/v2_DepthDuration_HTML.html#138,138,1366,625,1366,768,8-21-2022,6-36-42,113,depth_duration_stimuli/000739_2014-06-08_18-45-58_260595134347_rgbf000068-resize_1/000739_2014-06-08_18-45-58_260595134347_rgbf000068-resize_1-target.png,125,3.534,3.0,2586,124,feet,jsons/VE125_randls_6_rotated.json,796772,1116105,43,Woman
113,669037,DepthScenes,duration_manipulation_targetAtFixation,jsons/VE125_randls_6_rotated.json,http://54.235.29.9/FacialAge/BNav_EC2/DepthDuration/v2_depth_duration_MTurk/v2_DepthDuration_HTML.html#138,138,1366,625,1366,768,8-21-2022,6-36-42,114,depth_duration_stimuli/001235_2014-06-17_16-37-36_260595134347_rgbf000084-resize_4/001235_2014-06-17_16-37-36_260595134347_rgbf000084-resize_4-target.png,125,3.6605,4.0,2273,125,feet,jsons/VE125_randls_6_rotated.json,796772,1116105,43,Woman
114,669037,DepthScenes,duration_manipulation_targetAtFixation,jsons/VE125_randls_6_rotated.json,http://54.235.29.9/FacialAge/BNav_EC2/DepthDuration/v2_depth_duration_MTurk/v2_DepthDuration_HTML.html#138,138,1366,625,1366,768,8-21-2022,6-36-42,115,depth_duration_stimuli/000788_2014-06-08_22-34-36_260595134347_rgbf000131-resize_1/000788_2014-06-08_22-34-36_260595134347_rgbf000131-resize_1-target.png,125,3.359,3.0,1977,122,feet,jsons/VE125_randls_6_rotated.json,796772,1116105,43,Woman
115,669037,DepthScenes,duration_manipulation_targetAtFixation,jsons/VE125_randls_6_rotated.json,http://54.235.29.9/FacialAge/BNav_EC2/DepthDuration/v2_depth_duration_MTurk/v2_DepthDuration_HTML.html#138,138,1366,625,1366,768,8-21-2022,6-36-42,116,depth_duration_stimuli/001392_2014-06-19_16-07-59_260595134347_rgbf000046-resize_1/001392_2014-06-19_16-07-59_260595134347_rgbf000046-resize_1-target.png,125,4.135,4.0,1809,126,feet,jsons/VE125_randls_6_rotated.json,796772,1116105,43,Woman
116,669037,DepthScenes,duration_manipulation_targetAtFixation,jsons/VE125_randls_6_rotated.json,http://54.235.29.9/FacialAge/BNav_EC2/DepthDuration/v2_depth_duration_MTurk/v2_DepthDuration_HTML.html#138,138,1366,625,1366,768,8-21-2022,6-36-42,117,depth_duration_stimuli/001570_2014-06-20_17-21-09_260595134347_rgbf000135-resize_4/001570_2014-06-20_17-21-09_260595134347_rgbf000135-resize_4-target.png,125,4.467,4.0,2235,65,feet,jsons/VE125_randls_6_rotated.json,796772,1116105,43,Woman
117,669037,DepthScenes,duration_manipulation_targetAtFixation,jsons/VE125_randls_6_rotated.json,http://54.235.29.9/FacialAge/BNav_EC2/DepthDuration/v2_depth_duration_MTurk/v2_DepthDuration_HTML.html#138,138,1366,625,1366,768,8-21-2022,6-36-42,118,depth_duration_stimuli/002323_2014-06-28_20-01-54_260595134347_rgbf000051-resize_4/002323_2014-06-28_20-01-54_260595134347_rgbf000051-resize_4-target.png,125,3.7310000000000003,4.0,118667,129,feet,jsons/VE125_randls_6_rotated.json,796772,1116105,43,Woman
118,669037,DepthScenes,duration_manipulation_targetAtFixation,jsons/VE125_randls_6_rotated.json,http://54.235.29.9/FacialAge/BNav_EC2/DepthDuration/v2_depth_duration_MTurk/v2_DepthDuration_HTML.html#138,138,1366,625,1366,768,8-21-2022,6-36-42,119,depth_duration_stimuli/000917_2014-06-09_22-45-29_260595134347_rgbf000149-resize_3/000917_2014-06-09_22-45-29_260595134347_rgbf000149-resize_3-target.png,125,4.1865,4.0,2017,124,feet,jsons/VE125_randls_6_rotated.json,796772,1116105,43,Woman
119,669037,DepthScenes,duration_manipulation_targetAtFixation,jsons/VE125_randls_6_rotated.json,http://54.235.29.9/FacialAge/BNav_EC2/DepthDuration/v2_depth_duration_MTurk/v2_DepthDuration_HTML.html#138,138,1366,625,1366,768,8-21-2022,6-36-42,120,depth_duration_stimuli/000787_2014-06-08_22-33-53_260595134347_rgbf000175-resize_1/000787_2014-06-08_22-33-53_260595134347_rgbf000175-resize-original.jpg,125,4.784,4.5,3916,126,feet,jsons/VE125_randls_6_rotated.json,796772,1116105,43,Woman
120,669037,DepthScenes,duration_manipulation_targetAtFixation,jsons/VE125_randls_6_rotated.json,http://54.235.29.9/FacialAge/BNav_EC2/DepthDuration/v2_depth_duration_MTurk/v2_DepthDuration_HTML.html#138,138,1366,625,1366,768,8-21-2022,6-36-42,121,depth_duration_stimuli/001828_2014-06-26_21-40-03_260595134347_rgbf000024-resize_0/001828_2014-06-26_21-40-03_260595134347_rgbf000024-resize_0-target.png,125,4.8260000000000005,3.5,4275,124,feet,jsons/VE125_randls_6_rotated.json,796772,1116105,43,Woman
121,669037,DepthScenes,duration_manipulation_targetAtFixation,jsons/VE125_randls_6_rotated.json,http://54.235.29.9/FacialAge/BNav_EC2/DepthDuration/v2_depth_duration_MTurk/v2_DepthDuration_HTML.html#138,138,1366,625,1366,768,8-21-2022,6-36-42,122,depth_duration_stimuli/000009_2014-05-26_14-32-05_260595134347_rgbf000034-resize_3/000009_2014-05-26_14-32-05_260595134347_rgbf000034-resize_3-target.png,125,3.8715,4.0,2825,124,feet,jsons/VE125_randls_6_rotated.json,796772,1116105,43,Woman
122,669037,DepthScenes,duration_manipulation_targetAtFixation,jsons/VE125_randls_6_rotated.json,http://54.235.29.9/FacialAge/BNav_EC2/DepthDuration/v2_depth_duration_MTurk/v2_DepthDuration_HTML.html#138,138,1366,625,1366,768,8-21-2022,6-36-42,123,depth_duration_stimuli/002209_2014-06-28_18-36-10_260595134347_rgbf000051-resize_1/002209_2014-06-28_18-36-10_260595134347_rgbf000051-resize_1-target.png,125,2.057,3.0,1819,123,feet,jsons/VE125_randls_6_rotated.json,796772,1116105,43,Woman
123,669037,DepthScenes,duration_manipulation_targetAtFixation,jsons/VE125_randls_6_rotated.json,http://54.235.29.9/FacialAge/BNav_EC2/DepthDuration/v2_depth_duration_MTurk/v2_DepthDuration_HTML.html#138,138,1366,625,1366,768,8-21-2022,6-36-42,124,depth_duration_stimuli/002763_2014-06-22_19-13-10_094959634447_rgbf000075-resize_4/002763_2014-06-22_19-13-10_094959634447_rgbf000075-resize_4-target.png,125,1.68375,4.0,1651,126,feet,jsons/VE125_randls_6_rotated.json,796772,1116105,43,Woman
124,669037,DepthScenes,duration_manipulation_targetAtFixation,jsons/VE125_randls_6_rotated.json,http://54.235.29.9/FacialAge/BNav_EC2/DepthDuration/v2_depth_duration_MTurk/v2_DepthDuration_HTML.html#138,138,1366,625,1366,768,8-21-2022,6-36-42,125,depth_duration_stimuli/000780_2014-06-08_22-28-29_260595134347_rgbf000126-resize_1/000780_2014-06-08_22-28-29_260595134347_rgbf000126-resize_1-target.png,125,3.3825,4.0,1737,125,feet,jsons/VE125_randls_6_rotated.json,796772,1116105,43,Woman
125,669037,DepthScenes,duration_manipulation_targetAtFixation,jsons/VE125_randls_6_rotated.json,http://54.235.29.9/FacialAge/BNav_EC2/DepthDuration/v2_depth_duration_MTurk/v2_DepthDuration_HTML.html#138,138,1366,625,1366,768,8-21-2022,6-36-42,126,depth_duration_stimuli/002445_2014-06-28_20-32-16_260595134347_rgbf000029-resize_4/002445_2014-06-28_20-32-16_260595134347_rgbf000029-resize_4-target.png,125,2.5315,3.0,4157,124,feet,jsons/VE125_randls_6_rotated.json,796772,1116105,43,Woman
126,669037,DepthScenes,duration_manipulation_targetAtFixation,jsons/VE125_randls_6_rotated.json,http://54.235.29.9/FacialAge/BNav_EC2/DepthDuration/v2_depth_duration_MTurk/v2_DepthDuration_HTML.html#138,138,1366,625,1366,768,8-21-2022,6-36-42,127,depth_duration_stimuli/003010_2014-06-15_12-54-35_094959634447_rgbf000112-resize_0/003010_2014-06-15_12-54-35_094959634447_rgbf000112-resize_0-target.png,125,3.1185,4.0,9617,141,feet,jsons/VE125_randls_6_rotated.json,796772,1116105,43,Woman
127,669037,DepthScenes,duration_manipulation_targetAtFixation,jsons/VE125_randls_6_rotated.json,http://54.235.29.9/FacialAge/BNav_EC2/DepthDuration/v2_depth_duration_MTurk/v2_DepthDuration_HTML.html#138,138,1366,625,1366,768,8-21-2022,6-36-42,128,depth_duration_stimuli/001810_2014-06-26_20-51-35_260595134347_rgbf000040-resize_3/001810_2014-06-26_20-51-35_260595134347_rgbf000040-resize_3-target.png,125,2.2525,3.0,21910,120,feet,jsons/VE125_randls_6_rotated.json,796772,1116105,43,Woman
128,669037,DepthScenes,duration_manipulation_targetAtFixation,jsons/VE125_randls_6_rotated.json,http://54.235.29.9/FacialAge/BNav_EC2/DepthDuration/v2_depth_duration_MTurk/v2_DepthDuration_HTML.html#138,138,1366,625,1366,768,8-21-2022,6-36-42,129,depth_duration_stimuli/000927_2014-06-09_16-32-30_260595134347_rgbf000123-resize_3/000927_2014-06-09_16-32-30_260595134347_rgbf000123-resize_3-target.png,125,2.6785,4.0,9332,123,feet,jsons/VE125_randls_6_rotated.json,796772,1116105,43,Woman
129,669037,DepthScenes,duration_manipulation_targetAtFixation,jsons/VE125_randls_6_rotated.json,http://54.235.29.9/FacialAge/BNav_EC2/DepthDuration/v2_depth_duration_MTurk/v2_DepthDuration_HTML.html#138,138,1366,625,1366,768,8-21-2022,6-36-42,130,depth_duration_stimuli/001110_2014-06-15_17-25-28_260595134347_rgbf000150-resize_1/001110_2014-06-15_17-25-28_260595134347_rgbf000150-resize_1-target.png,125,1.7115,3.0,3222,123,feet,jsons/VE125_randls_6_rotated.json,796772,1116105,43,Woman
130,669037,DepthScenes,duration_manipulation_targetAtFixation,jsons/VE125_randls_6_rotated.json,http://54.235.29.9/FacialAge/BNav_EC2/DepthDuration/v2_depth_duration_MTurk/v2_DepthDuration_HTML.html#138,138,1366,625,1366,768,8-21-2022,6-36-42,131,depth_duration_stimuli/002637_2014-06-24_14-51-13_094959634447_rgbf000066-resize_4/002637_2014-06-24_14-51-13_094959634447_rgbf000066-resize_4-target.png,125,1.9955,4.0,2060,126,feet,jsons/VE125_randls_6_rotated.json,796772,1116105,43,Woman
131,669037,DepthScenes,duration_manipulation_targetAtFixation,jsons/VE125_randls_6_rotated.json,http://54.235.29.9/FacialAge/BNav_EC2/DepthDuration/v2_depth_duration_MTurk/v2_DepthDuration_HTML.html#138,138,1366,625,1366,768,8-21-2022,6-36-42,132,depth_duration_stimuli/003534_2014-05-22_15-06-10_094959634447_rgbf000102-resize_4/003534_2014-05-22_15-06-10_094959634447_rgbf000102-resize_4-target.png,125,1.426,2.0,1687,126,feet,jsons/VE125_randls_6_rotated.json,796772,1116105,43,Woman
132,669037,DepthScenes,duration_manipulation_targetAtFixation,jsons/VE125_randls_6_rotated.json,http://54.235.29.9/FacialAge/BNav_EC2/DepthDuration/v2_depth_duration_MTurk/v2_DepthDuration_HTML.html#138,138,1366,625,1366,768,8-21-2022,6-36-42,133,depth_duration_stimuli/003490_2014-05-21_15-50-11_094959634447_rgbf000101-resize_3/003490_2014-05-21_15-50-11_094959634447_rgbf000101-resize_3-target.png,125,3.6445,3.0,3211,124,feet,jsons/VE125_randls_6_rotated.json,796772,1116105,43,Woman
133,669037,DepthScenes,duration_manipulation_targetAtFixation,jsons/VE125_randls_6_rotated.json,http://54.235.29.9/FacialAge/BNav_EC2/DepthDuration/v2_depth_duration_MTurk/v2_DepthDuration_HTML.html#138,138,1366,625,1366,768,8-21-2022,6-36-42,134,depth_duration_stimuli/001175_2014-06-17_15-45-55_260595134347_rgbf000129-resize_4/001175_2014-06-17_15-45-55_260595134347_rgbf000129-resize_4-target.png,125,4.255,4.0,2697,125,feet,jsons/VE125_randls_6_rotated.json,796772,1116105,43,Woman
134,669037,DepthScenes,duration_manipulation_targetAtFixation,jsons/VE125_randls_6_rotated.json,http://54.235.29.9/FacialAge/BNav_EC2/DepthDuration/v2_depth_duration_MTurk/v2_DepthDuration_HTML.html#138,138,1366,625,1366,768,8-21-2022,6-36-42,135,depth_duration_stimuli/000375_2014-06-08_11-17-29_260595134347_rgbf000133-resize_2/000375_2014-06-08_11-17-29_260595134347_rgbf000133-resize-original.jpg,125,4.718,0.0,2924,125,feet,jsons/VE125_randls_6_rotated.json,796772,1116105,43,Woman
135,669037,DepthScenes,duration_manipulation_targetAtFixation,jsons/VE125_randls_6_rotated.json,http://54.235.29.9/FacialAge/BNav_EC2/DepthDuration/v2_depth_duration_MTurk/v2_DepthDuration_HTML.html#138,138,1366,625,1366,768,8-21-2022,6-36-42,136,depth_duration_stimuli/000103_2014-05-14_22-01-17_260595134347_rgbf000152-resize_5/000103_2014-05-14_22-01-17_260595134347_rgbf000152-resize_5-target.png,125,1.993,3.0,2928,123,feet,jsons/VE125_randls_6_rotated.json,796772,1116105,43,Woman
136,669037,DepthScenes,duration_manipulation_targetAtFixation,jsons/VE125_randls_6_rotated.json,http://54.235.29.9/FacialAge/BNav_EC2/DepthDuration/v2_depth_duration_MTurk/v2_DepthDuration_HTML.html#138,138,1366,625,1366,768,8-21-2022,6-36-42,137,depth_duration_stimuli/001555_2014-06-20_17-12-10_260595134347_rgbf000065-resize_4/001555_2014-06-20_17-12-10_260595134347_rgbf000065-resize_4-target.png,125,1.633,2.0,1707,123,feet,jsons/VE125_randls_6_rotated.json,796772,1116105,43,Woman
137,669037,DepthScenes,duration_manipulation_targetAtFixation,jsons/VE125_randls_6_rotated.json,http://54.235.29.9/FacialAge/BNav_EC2/DepthDuration/v2_depth_duration_MTurk/v2_DepthDuration_HTML.html#138,138,1366,625,1366,768,8-21-2022,6-36-42,138,depth_duration_stimuli/002136_2014-06-25_21-18-03_260595134347_rgbf000109-resize_3/002136_2014-06-25_21-18-03_260595134347_rgbf000109-resize_3-target.png,125,1.9569999999999999,3.0,12914,125,feet,jsons/VE125_randls_6_rotated.json,796772,1116105,43,Woman
138,669037,DepthScenes,duration_manipulation_targetAtFixation,jsons/VE125_randls_6_rotated.json,http://54.235.29.9/FacialAge/BNav_EC2/DepthDuration/v2_depth_duration_MTurk/v2_DepthDuration_HTML.html#138,138,1366,625,1366,768,8-21-2022,6-36-42,139,depth_duration_stimuli/002964_2014-06-08_17-46-11_094959634447_rgbf000091-resize_4/002964_2014-06-08_17-46-11_094959634447_rgbf000091-resize_4-target.png,125,1.6909999999999998,2.0,2657,123,feet,jsons/VE125_randls_6_rotated.json,796772,1116105,43,Woman
139,669037,DepthScenes,duration_manipulation_targetAtFixation,jsons/VE125_randls_6_rotated.json,http://54.235.29.9/FacialAge/BNav_EC2/DepthDuration/v2_depth_duration_MTurk/v2_DepthDuration_HTML.html#138,138,1366,625,1366,768,8-21-2022,6-36-42,140,depth_duration_stimuli/002875_2014-06-01_15-19-00_094959634447_rgbf000151-resize_1/002875_2014-06-01_15-19-00_094959634447_rgbf000151-resize_1-target.png,125,1.9675,3.0,3923,123,feet,jsons/VE125_randls_6_rotated.json,796772,1116105,43,Woman
140,669037,DepthScenes,duration_manipulation_targetAtFixation,jsons/VE125_randls_6_rotated.json,http://54.235.29.9/FacialAge/BNav_EC2/DepthDuration/v2_depth_duration_MTurk/v2_DepthDuration_HTML.html#138,138,1366,625,1366,768,8-21-2022,6-36-42,141,depth_duration_stimuli/001011_2014-06-08_23-18-54_260595134347_rgbf000044-resize_4/001011_2014-06-08_23-18-54_260595134347_rgbf000044-resize_4-target.png,125,2.4730000000000003,4.0,2608,123,feet,jsons/VE125_randls_6_rotated.json,796772,1116105,43,Woman
141,669037,DepthScenes,duration_manipulation_targetAtFixation,jsons/VE125_randls_6_rotated.json,http://54.235.29.9/FacialAge/BNav_EC2/DepthDuration/v2_depth_duration_MTurk/v2_DepthDuration_HTML.html#138,138,1366,625,1366,768,8-21-2022,6-36-42,142,depth_duration_stimuli/002568_2014-06-24_13-59-21_094959634447_rgbf000062-resize_4/002568_2014-06-24_13-59-21_094959634447_rgbf000062-resize_4-target.png,125,3.015,3.0,2707,124,feet,jsons/VE125_randls_6_rotated.json,796772,1116105,43,Woman
142,669037,DepthScenes,duration_manipulation_targetAtFixation,jsons/VE125_randls_6_rotated.json,http://54.235.29.9/FacialAge/BNav_EC2/DepthDuration/v2_depth_duration_MTurk/v2_DepthDuration_HTML.html#138,138,1366,625,1366,768,8-21-2022,6-36-42,143,depth_duration_stimuli/003492_2014-05-21_15-50-55_094959634447_rgbf000828-resize_1/003492_2014-05-21_15-50-55_094959634447_rgbf000828-resize_1-target.png,125,4.06875,4.0,3482,124,feet,jsons/VE125_randls_6_rotated.json,796772,1116105,43,Woman
143,669037,DepthScenes,duration_manipulation_targetAtFixation,jsons/VE125_randls_6_rotated.json,http://54.235.29.9/FacialAge/BNav_EC2/DepthDuration/v2_depth_duration_MTurk/v2_DepthDuration_HTML.html#138,138,1366,625,1366,768,8-21-2022,6-36-42,144,depth_duration_stimuli/000691_2014-06-08_13-08-50_260595134347_rgbf000132-resize_3/000691_2014-06-08_13-08-50_260595134347_rgbf000132-resize_3-target.png,125,4.1530000000000005,3.0,4969,126,feet,jsons/VE125_randls_6_rotated.json,796772,1116105,43,Woman
144,669037,DepthScenes,duration_manipulation_targetAtFixation,jsons/VE125_randls_6_rotated.json,http://54.235.29.9/FacialAge/BNav_EC2/DepthDuration/v2_depth_duration_MTurk/v2_DepthDuration_HTML.html#138,138,1366,625,1366,768,8-21-2022,6-36-42,145,depth_duration_stimuli/002213_2014-06-28_18-37-58_260595134347_rgbf000055-resize_1/002213_2014-06-28_18-37-58_260595134347_rgbf000055-resize_1-target.png,125,3.62,4.0,24199,364,feet,jsons/VE125_randls_6_rotated.json,796772,1116105,43,Woman
145,669037,DepthScenes,duration_manipulation_targetAtFixation,jsons/VE125_randls_6_rotated.json,http://54.235.29.9/FacialAge/BNav_EC2/DepthDuration/v2_depth_duration_MTurk/v2_DepthDuration_HTML.html#138,138,1366,625,1366,768,8-21-2022,6-36-42,146,depth_duration_stimuli/002995_2014-06-15_12-31-26_094959634447_rgbf000150-resize_1/002995_2014-06-15_12-31-26_094959634447_rgbf000150-resize_1-target.png,125,3.8360000000000003,4.0,10673,124,feet,jsons/VE125_randls_6_rotated.json,796772,1116105,43,Woman
146,669037,DepthScenes,duration_manipulation_targetAtFixation,jsons/VE125_randls_6_rotated.json,http://54.235.29.9/FacialAge/BNav_EC2/DepthDuration/v2_depth_duration_MTurk/v2_DepthDuration_HTML.html#138,138,1366,625,1366,768,8-21-2022,6-36-42,147,depth_duration_stimuli/002748_2014-06-22_19-07-22_094959634447_rgbf000078-resize_1/002748_2014-06-22_19-07-22_094959634447_rgbf000078-resize_1-target.png,125,4.6705,4.0,4897,125,feet,jsons/VE125_randls_6_rotated.json,796772,1116105,43,Woman
147,669037,DepthScenes,duration_manipulation_targetAtFixation,jsons/VE125_randls_6_rotated.json,http://54.235.29.9/FacialAge/BNav_EC2/DepthDuration/v2_depth_duration_MTurk/v2_DepthDuration_HTML.html#138,138,1366,625,1366,768,8-21-2022,6-36-42,148,depth_duration_stimuli/001052_2014-06-08_18-24-54_260595134347_rgbf000130-resize_1/001052_2014-06-08_18-24-54_260595134347_rgbf000130-resize_1-target.png,125,4.1045,4.0,2920,123,feet,jsons/VE125_randls_6_rotated.json,796772,1116105,43,Woman
148,669037,DepthScenes,duration_manipulation_targetAtFixation,jsons/VE125_randls_6_rotated.json,http://54.235.29.9/FacialAge/BNav_EC2/DepthDuration/v2_depth_duration_MTurk/v2_DepthDuration_HTML.html#138,138,1366,625,1366,768,8-21-2022,6-36-42,149,depth_duration_stimuli/002988_2014-06-15_12-24-20_094959634447_rgbf000150-resize_1/002988_2014-06-15_12-24-20_094959634447_rgbf000150-resize_1-target.png,125,4.7669999999999995,4.0,3306,127,feet,jsons/VE125_randls_6_rotated.json,796772,1116105,43,Woman
149,669037,DepthScenes,duration_manipulation_targetAtFixation,jsons/VE125_randls_6_rotated.json,http://54.235.29.9/FacialAge/BNav_EC2/DepthDuration/v2_depth_duration_MTurk/v2_DepthDuration_HTML.html#138,138,1366,625,1366,768,8-21-2022,6-36-42,150,depth_duration_stimuli/001100_2014-06-15_17-46-26_260595134347_rgbf000225-resize_2/001100_2014-06-15_17-46-26_260595134347_rgbf000225-resize_2-target.png,125,2.24,3.0,3811,125,feet,jsons/VE125_randls_6_rotated.json,796772,1116105,43,Woman
150,669037,DepthScenes,duration_manipulation_targetAtFixation,jsons/VE125_randls_6_rotated.json,http://54.235.29.9/FacialAge/BNav_EC2/DepthDuration/v2_depth_duration_MTurk/v2_DepthDuration_HTML.html#138,138,1366,625,1366,768,8-21-2022,6-36-42,151,depth_duration_stimuli/002784_2014-06-22_19-26-30_094959634447_rgbf000083-resize_3/002784_2014-06-22_19-26-30_094959634447_rgbf000083-resize_3-target.png,125,1.8046666666667,2.0,2833,125,feet,jsons/VE125_randls_6_rotated.json,796772,1116105,43,Woman
151,669037,DepthScenes,duration_manipulation_targetAtFixation,jsons/VE125_randls_6_rotated.json,http://54.235.29.9/FacialAge/BNav_EC2/DepthDuration/v2_depth_duration_MTurk/v2_DepthDuration_HTML.html#138,138,1366,625,1366,768,8-21-2022,6-36-42,152,depth_duration_stimuli/000569_2014-06-09_22-51-47_260595134347_rgbf000141-resize_3/000569_2014-06-09_22-51-47_260595134347_rgbf000141-resize-original.jpg,125,4.512,0.0,4730,124,feet,jsons/VE125_randls_6_rotated.json,796772,1116105,43,Woman
152,669037,DepthScenes,duration_manipulation_targetAtFixation,jsons/VE125_randls_6_rotated.json,http://54.235.29.9/FacialAge/BNav_EC2/DepthDuration/v2_depth_duration_MTurk/v2_DepthDuration_HTML.html#138,138,1366,625,1366,768,8-21-2022,6-36-42,153,depth_duration_stimuli/002758_2014-06-22_19-11-20_094959634447_rgbf000128-resize_1/002758_2014-06-22_19-11-20_094959634447_rgbf000128-resize_1-target.png,125,2.555,3.0,3322,125,feet,jsons/VE125_randls_6_rotated.json,796772,1116105,43,Woman
153,669037,DepthScenes,duration_manipulation_targetAtFixation,jsons/VE125_randls_6_rotated.json,http://54.235.29.9/FacialAge/BNav_EC2/DepthDuration/v2_depth_duration_MTurk/v2_DepthDuration_HTML.html#138,138,1366,625,1366,768,8-21-2022,6-36-42,154,depth_duration_stimuli/002630_2014-06-24_14-47-50_094959634447_rgbf000055-resize_1/002630_2014-06-24_14-47-50_094959634447_rgbf000055-resize_1-target.png,125,3.0095,3.0,5207,110,feet,jsons/VE125_randls_6_rotated.json,796772,1116105,43,Woman
154,669037,DepthScenes,duration_manipulation_targetAtFixation,jsons/VE125_randls_6_rotated.json,http://54.235.29.9/FacialAge/BNav_EC2/DepthDuration/v2_depth_duration_MTurk/v2_DepthDuration_HTML.html#138,138,1366,625,1366,768,8-21-2022,6-36-42,155,depth_duration_stimuli/001571_2014-06-20_17-21-32_260595134347_rgbf000089-resize_1/001571_2014-06-20_17-21-32_260595134347_rgbf000089-resize_1-target.png,125,1.86,4.0,4849,124,feet,jsons/VE125_randls_6_rotated.json,796772,1116105,43,Woman
155,669037,DepthScenes,duration_manipulation_targetAtFixation,jsons/VE125_randls_6_rotated.json,http://54.235.29.9/FacialAge/BNav_EC2/DepthDuration/v2_depth_duration_MTurk/v2_DepthDuration_HTML.html#138,138,1366,625,1366,768,8-21-2022,6-36-42,156,depth_duration_stimuli/002272_2014-06-28_18-53-56_260595134347_rgbf000067-resize_2/002272_2014-06-28_18-53-56_260595134347_rgbf000067-resize_2-target.png,125,1.138,3.0,7522,126,feet,jsons/VE125_randls_6_rotated.json,796772,1116105,43,Woman
156,669037,DepthScenes,duration_manipulation_targetAtFixation,jsons/VE125_randls_6_rotated.json,http://54.235.29.9/FacialAge/BNav_EC2/DepthDuration/v2_depth_duration_MTurk/v2_DepthDuration_HTML.html#138,138,1366,625,1366,768,8-21-2022,6-36-42,157,depth_duration_stimuli/001450_2014-06-19_17-02-03_260595134347_rgbf000203-resize_4/001450_2014-06-19_17-02-03_260595134347_rgbf000203-resize_4-target.png,125,4.0106666666667,4.0,5170,125,feet,jsons/VE125_randls_6_rotated.json,796772,1116105,43,Woman
157,669037,DepthScenes,duration_manipulation_targetAtFixation,jsons/VE125_randls_6_rotated.json,http://54.235.29.9/FacialAge/BNav_EC2/DepthDuration/v2_depth_duration_MTurk/v2_DepthDuration_HTML.html#138,138,1366,625,1366,768,8-21-2022,6-36-42,158,depth_duration_stimuli/001449_2014-06-19_17-01-27_260595134347_rgbf000116-resize_2/001449_2014-06-19_17-01-27_260595134347_rgbf000116-resize_2-target.png,125,3.452,3.0,3453,123,feet,jsons/VE125_randls_6_rotated.json,796772,1116105,43,Woman
158,669037,DepthScenes,duration_manipulation_targetAtFixation,jsons/VE125_randls_6_rotated.json,http://54.235.29.9/FacialAge/BNav_EC2/DepthDuration/v2_depth_duration_MTurk/v2_DepthDuration_HTML.html#138,138,1366,625,1366,768,8-21-2022,6-36-42,159,depth_duration_stimuli/002425_2014-06-28_20-27-29_260595134347_rgbf000031-resize_8/002425_2014-06-28_20-27-29_260595134347_rgbf000031-resize_8-target.png,125,3.8960000000000004,4.0,3971,124,feet,jsons/VE125_randls_6_rotated.json,796772,1116105,43,Woman
159,669037,DepthScenes,duration_manipulation_targetAtFixation,jsons/VE125_randls_6_rotated.json,http://54.235.29.9/FacialAge/BNav_EC2/DepthDuration/v2_depth_duration_MTurk/v2_DepthDuration_HTML.html#138,138,1366,625,1366,768,8-21-2022,6-36-42,160,depth_duration_stimuli/000642_2014-06-08_16-59-25_260595134347_rgbf000098-resize_2/000642_2014-06-08_16-59-25_260595134347_rgbf000098-resize_2-target.png,125,2.8815,3.0,2785,125,feet,jsons/VE125_randls_6_rotated.json,796772,1116105,43,Woman
160,669037,DepthScenes,duration_manipulation_targetAtFixation,jsons/VE125_randls_6_rotated.json,http://54.235.29.9/FacialAge/BNav_EC2/DepthDuration/v2_depth_duration_MTurk/v2_DepthDuration_HTML.html#138,138,1366,625,1366,768,8-21-2022,6-36-42,161,depth_duration_stimuli/003423_2014-05-21_10-23-26_094959634447_rgbf002665-resize_2/003423_2014-05-21_10-23-26_094959634447_rgbf002665-resize_2-target.png,125,3.2575,3.0,1948,123,feet,jsons/VE125_randls_6_rotated.json,796772,1116105,43,Woman
161,669037,DepthScenes,duration_manipulation_targetAtFixation,jsons/VE125_randls_6_rotated.json,http://54.235.29.9/FacialAge/BNav_EC2/DepthDuration/v2_depth_duration_MTurk/v2_DepthDuration_HTML.html#138,138,1366,625,1366,768,8-21-2022,6-36-42,162,depth_duration_stimuli/002905_2014-06-03_18-04-43_094959634447_rgbf000151-resize_2/002905_2014-06-03_18-04-43_094959634447_rgbf000151-resize_2-target.png,125,2.0295,3.0,5751,123,feet,jsons/VE125_randls_6_rotated.json,796772,1116105,43,Woman
162,669037,DepthScenes,duration_manipulation_targetAtFixation,jsons/VE125_randls_6_rotated.json,http://54.235.29.9/FacialAge/BNav_EC2/DepthDuration/v2_depth_duration_MTurk/v2_DepthDuration_HTML.html#138,138,1366,625,1366,768,8-21-2022,6-36-42,163,depth_duration_stimuli/000409_2014-06-04_19-23-33_260595134347_rgbf000067-resize_0/000409_2014-06-04_19-23-33_260595134347_rgbf000067-resize_0-target.png,125,3.7335,3.0,2553,122,feet,jsons/VE125_randls_6_rotated.json,796772,1116105,43,Woman
163,669037,DepthScenes,duration_manipulation_targetAtFixation,jsons/VE125_randls_6_rotated.json,http://54.235.29.9/FacialAge/BNav_EC2/DepthDuration/v2_depth_duration_MTurk/v2_DepthDuration_HTML.html#138,138,1366,625,1366,768,8-21-2022,6-36-42,164,depth_duration_stimuli/002663_2014-06-13_15-50-26_094959634447_rgbf000075-resize_1/002663_2014-06-13_15-50-26_094959634447_rgbf000075-resize_1-target.png,125,4.7495,4.0,2615,124,feet,jsons/VE125_randls_6_rotated.json,796772,1116105,43,Woman
