,subjID,experimentName,versionName,sequenceName,url,selected_row,windowWidth,windowHeight,screenWidth,screenHeight,startDate,startTime,trial,stimulus,duration,actual_depth,depth_estimate,trial_RT,log_sceneDuration,unitSelection,seq_filepath,experimentTime,totalTime,age,gender
0,669386,DepthScenes,duration_manipulation_targetAtFixation,jsons/v1_VE250_randls_26_rotated.json,http://54.235.29.9/FacialAge/BNav_EC2/DepthDuration/v2_depth_duration_MTurk/v2_DepthDuration_HTML.html#438,438,1366,625,1366,768,9-20-2022,13-19-19,1,depth_duration_stimuli/002323_2014-06-28_20-01-54_260595134347_rgbf000051-resize_4/002323_2014-06-28_20-01-54_260595134347_rgbf000051-resize_4-target.png,250,3.7310000000000003,3,4678,251,meters,jsons/v1_VE250_randls_26_rotated.json,572576,658543,29,Man
1,669386,DepthScenes,duration_manipulation_targetAtFixation,jsons/v1_VE250_randls_26_rotated.json,http://54.235.29.9/FacialAge/BNav_EC2/DepthDuration/v2_depth_duration_MTurk/v2_DepthDuration_HTML.html#438,438,1366,625,1366,768,9-20-2022,13-19-19,2,depth_duration_stimuli/000917_2014-06-09_22-45-29_260595134347_rgbf000149-resize_3/000917_2014-06-09_22-45-29_260595134347_rgbf000149-resize_3-target.png,250,4.1865,3,2506,245,meters,jsons/v1_VE250_randls_26_rotated.json,572576,658543,29,Man
2,669386,DepthScenes,duration_manipulation_targetAtFixation,jsons/v1_VE250_randls_26_rotated.json,http://54.235.29.9/FacialAge/BNav_EC2/DepthDuration/v2_depth_duration_MTurk/v2_DepthDuration_HTML.html#438,438,1366,625,1366,768,9-20-2022,13-19-19,3,depth_duration_stimuli/002340_2014-06-28_20-05-46_260595134347_rgbf000113-resize_0/002340_2014-06-28_20-05-46_260595134347_rgbf000113-resize_0-target.png,250,2.4735,2,2334,247,meters,jsons/v1_VE250_randls_26_rotated.json,572576,658543,29,Man
3,669386,DepthScenes,duration_manipulation_targetAtFixation,jsons/v1_VE250_randls_26_rotated.json,http://54.235.29.9/FacialAge/BNav_EC2/DepthDuration/v2_depth_duration_MTurk/v2_DepthDuration_HTML.html#438,438,1366,625,1366,768,9-20-2022,13-19-19,4,depth_duration_stimuli/001016_2014-06-09_16-16-10_260595134347_rgbf000112-resize_5/001016_2014-06-09_16-16-10_260595134347_rgbf000112-resize_5-target.png,250,1.6565,2,2287,244,meters,jsons/v1_VE250_randls_26_rotated.json,572576,658543,29,Man
4,669386,DepthScenes,duration_manipulation_targetAtFixation,jsons/v1_VE250_randls_26_rotated.json,http://54.235.29.9/FacialAge/BNav_EC2/DepthDuration/v2_depth_duration_MTurk/v2_DepthDuration_HTML.html#438,438,1366,625,1366,768,9-20-2022,13-19-19,5,depth_duration_stimuli/001828_2014-06-26_21-40-03_260595134347_rgbf000024-resize_0/001828_2014-06-26_21-40-03_260595134347_rgbf000024-resize_0-target.png,250,4.8260000000000005,3,3072,294,meters,jsons/v1_VE250_randls_26_rotated.json,572576,658543,29,Man
5,669386,DepthScenes,duration_manipulation_targetAtFixation,jsons/v1_VE250_randls_26_rotated.json,http://54.235.29.9/FacialAge/BNav_EC2/DepthDuration/v2_depth_duration_MTurk/v2_DepthDuration_HTML.html#438,438,1366,625,1366,768,9-20-2022,13-19-19,6,depth_duration_stimuli/000009_2014-05-26_14-32-05_260595134347_rgbf000034-resize_3/000009_2014-05-26_14-32-05_260595134347_rgbf000034-resize_3-target.png,250,3.8715,2,2535,245,meters,jsons/v1_VE250_randls_26_rotated.json,572576,658543,29,Man
6,669386,DepthScenes,duration_manipulation_targetAtFixation,jsons/v1_VE250_randls_26_rotated.json,http://54.235.29.9/FacialAge/BNav_EC2/DepthDuration/v2_depth_duration_MTurk/v2_DepthDuration_HTML.html#438,438,1366,625,1366,768,9-20-2022,13-19-19,7,depth_duration_stimuli/002103_2014-06-25_20-00-40_260595134347_rgbf000049-resize_0/002103_2014-06-25_20-00-40_260595134347_rgbf000049-resize_0-target.png,250,4.105,3,2785,253,meters,jsons/v1_VE250_randls_26_rotated.json,572576,658543,29,Man
7,669386,DepthScenes,duration_manipulation_targetAtFixation,jsons/v1_VE250_randls_26_rotated.json,http://54.235.29.9/FacialAge/BNav_EC2/DepthDuration/v2_depth_duration_MTurk/v2_DepthDuration_HTML.html#438,438,1366,625,1366,768,9-20-2022,13-19-19,8,depth_duration_stimuli/002039_2014-06-24_20-22-38_260595134347_rgbf000084-resize_1/002039_2014-06-24_20-22-38_260595134347_rgbf000084-resize_1-target.png,250,4.408,2,3307,248,meters,jsons/v1_VE250_randls_26_rotated.json,572576,658543,29,Man
8,669386,DepthScenes,duration_manipulation_targetAtFixation,jsons/v1_VE250_randls_26_rotated.json,http://54.235.29.9/FacialAge/BNav_EC2/DepthDuration/v2_depth_duration_MTurk/v2_DepthDuration_HTML.html#438,438,1366,625,1366,768,9-20-2022,13-19-19,9,depth_duration_stimuli/000635_2014-06-08_16-38-42_260595134347_rgbf000106-resize_1/000635_2014-06-08_16-38-42_260595134347_rgbf000106-resize_1-target.png,250,2.074,2,3018,249,meters,jsons/v1_VE250_randls_26_rotated.json,572576,658543,29,Man
9,669386,DepthScenes,duration_manipulation_targetAtFixation,jsons/v1_VE250_randls_26_rotated.json,http://54.235.29.9/FacialAge/BNav_EC2/DepthDuration/v2_depth_duration_MTurk/v2_DepthDuration_HTML.html#438,438,1366,625,1366,768,9-20-2022,13-19-19,10,depth_duration_stimuli/002279_2014-06-28_18-55-32_260595134347_rgbf000040-resize_5/002279_2014-06-28_18-55-32_260595134347_rgbf000040-resize_5-target.png,250,1.5043333333333,3,2052,169,meters,jsons/v1_VE250_randls_26_rotated.json,572576,658543,29,Man
10,669386,DepthScenes,duration_manipulation_targetAtFixation,jsons/v1_VE250_randls_26_rotated.json,http://54.235.29.9/FacialAge/BNav_EC2/DepthDuration/v2_depth_duration_MTurk/v2_DepthDuration_HTML.html#438,438,1366,625,1366,768,9-20-2022,13-19-19,11,depth_duration_stimuli/003338_2014-05-20_11-01-23_094959634447_rgbf000051-resize_6/003338_2014-05-20_11-01-23_094959634447_rgbf000051-resize_6-target.png,250,1.693,2,2461,249,meters,jsons/v1_VE250_randls_26_rotated.json,572576,658543,29,Man
11,669386,DepthScenes,duration_manipulation_targetAtFixation,jsons/v1_VE250_randls_26_rotated.json,http://54.235.29.9/FacialAge/BNav_EC2/DepthDuration/v2_depth_duration_MTurk/v2_DepthDuration_HTML.html#438,438,1366,625,1366,768,9-20-2022,13-19-19,12,depth_duration_stimuli/002509_2014-06-24_13-19-22_094959634447_rgbf000077-resize_0/002509_2014-06-24_13-19-22_094959634447_rgbf000077-resize_0-target.png,250,1.3065,3,2310,332,meters,jsons/v1_VE250_randls_26_rotated.json,572576,658543,29,Man
12,669386,DepthScenes,duration_manipulation_targetAtFixation,jsons/v1_VE250_randls_26_rotated.json,http://54.235.29.9/FacialAge/BNav_EC2/DepthDuration/v2_depth_duration_MTurk/v2_DepthDuration_HTML.html#438,438,1366,625,1366,768,9-20-2022,13-19-19,13,depth_duration_stimuli/000854_2014-06-09_19-43-13_260595134347_rgbf000066-resize_0/000854_2014-06-09_19-43-13_260595134347_rgbf000066-resize_0-target.png,250,3.068,3,2030,238,meters,jsons/v1_VE250_randls_26_rotated.json,572576,658543,29,Man
13,669386,DepthScenes,duration_manipulation_targetAtFixation,jsons/v1_VE250_randls_26_rotated.json,http://54.235.29.9/FacialAge/BNav_EC2/DepthDuration/v2_depth_duration_MTurk/v2_DepthDuration_HTML.html#438,438,1366,625,1366,768,9-20-2022,13-19-19,14,depth_duration_stimuli/000758_2014-06-08_22-05-08_260595134347_rgbf000085-resize_0/000758_2014-06-08_22-05-08_260595134347_rgbf000085-resize_0-target.png,250,3.3810000000000002,2,5516,242,meters,jsons/v1_VE250_randls_26_rotated.json,572576,658543,29,Man
14,669386,DepthScenes,duration_manipulation_targetAtFixation,jsons/v1_VE250_randls_26_rotated.json,http://54.235.29.9/FacialAge/BNav_EC2/DepthDuration/v2_depth_duration_MTurk/v2_DepthDuration_HTML.html#438,438,1366,625,1366,768,9-20-2022,13-19-19,15,depth_duration_stimuli/001447_2014-06-19_17-00-32_260595134347_rgbf000082-resize_5/001447_2014-06-19_17-00-32_260595134347_rgbf000082-resize_5-target.png,250,4.13775,3,5620,249,meters,jsons/v1_VE250_randls_26_rotated.json,572576,658543,29,Man
15,669386,DepthScenes,duration_manipulation_targetAtFixation,jsons/v1_VE250_randls_26_rotated.json,http://54.235.29.9/FacialAge/BNav_EC2/DepthDuration/v2_depth_duration_MTurk/v2_DepthDuration_HTML.html#438,438,1366,625,1366,768,9-20-2022,13-19-19,16,depth_duration_stimuli/000447_2014-06-08_16-15-46_260595134347_rgbf000130-resize_1/000447_2014-06-08_16-15-46_260595134347_rgbf000130-resize_1-target.png,250,4.479,3,2433,249,meters,jsons/v1_VE250_randls_26_rotated.json,572576,658543,29,Man
16,669386,DepthScenes,duration_manipulation_targetAtFixation,jsons/v1_VE250_randls_26_rotated.json,http://54.235.29.9/FacialAge/BNav_EC2/DepthDuration/v2_depth_duration_MTurk/v2_DepthDuration_HTML.html#438,438,1366,625,1366,768,9-20-2022,13-19-19,17,depth_duration_stimuli/001571_2014-06-20_17-21-32_260595134347_rgbf000089-resize_1/001571_2014-06-20_17-21-32_260595134347_rgbf000089-resize_1-target.png,250,1.86,4,3069,499,meters,jsons/v1_VE250_randls_26_rotated.json,572576,658543,29,Man
17,669386,DepthScenes,duration_manipulation_targetAtFixation,jsons/v1_VE250_randls_26_rotated.json,http://54.235.29.9/FacialAge/BNav_EC2/DepthDuration/v2_depth_duration_MTurk/v2_DepthDuration_HTML.html#438,438,1366,625,1366,768,9-20-2022,13-19-19,18,depth_duration_stimuli/002272_2014-06-28_18-53-56_260595134347_rgbf000067-resize_2/002272_2014-06-28_18-53-56_260595134347_rgbf000067-resize_2-target.png,250,1.138,3,2300,233,meters,jsons/v1_VE250_randls_26_rotated.json,572576,658543,29,Man
18,669386,DepthScenes,duration_manipulation_targetAtFixation,jsons/v1_VE250_randls_26_rotated.json,http://54.235.29.9/FacialAge/BNav_EC2/DepthDuration/v2_depth_duration_MTurk/v2_DepthDuration_HTML.html#438,438,1366,625,1366,768,9-20-2022,13-19-19,19,depth_duration_stimuli/001498_2014-06-19_17-45-14_260595134347_rgbf000129-resize_4/001498_2014-06-19_17-45-14_260595134347_rgbf000129-resize-original.jpg,250,1.4075,3,11293,24,meters,jsons/v1_VE250_randls_26_rotated.json,572576,658543,29,Man
19,669386,DepthScenes,duration_manipulation_targetAtFixation,jsons/v1_VE250_randls_26_rotated.json,http://54.235.29.9/FacialAge/BNav_EC2/DepthDuration/v2_depth_duration_MTurk/v2_DepthDuration_HTML.html#438,438,1366,625,1366,768,9-20-2022,13-19-19,20,depth_duration_stimuli/001136_2014-06-17_15-19-41_260595134347_rgbf000076-resize_3/001136_2014-06-17_15-19-41_260595134347_rgbf000076-resize_3-target.png,250,1.8655,3,3488,248,meters,jsons/v1_VE250_randls_26_rotated.json,572576,658543,29,Man
20,669386,DepthScenes,duration_manipulation_targetAtFixation,jsons/v1_VE250_randls_26_rotated.json,http://54.235.29.9/FacialAge/BNav_EC2/DepthDuration/v2_depth_duration_MTurk/v2_DepthDuration_HTML.html#438,438,1366,625,1366,768,9-20-2022,13-19-19,21,depth_duration_stimuli/001164_2014-06-17_15-35-46_260595134347_rgbf000085-resize_3/001164_2014-06-17_15-35-46_260595134347_rgbf000085-resize_3-target.png,250,2.354,2,2415,240,meters,jsons/v1_VE250_randls_26_rotated.json,572576,658543,29,Man
21,669386,DepthScenes,duration_manipulation_targetAtFixation,jsons/v1_VE250_randls_26_rotated.json,http://54.235.29.9/FacialAge/BNav_EC2/DepthDuration/v2_depth_duration_MTurk/v2_DepthDuration_HTML.html#438,438,1366,625,1366,768,9-20-2022,13-19-19,22,depth_duration_stimuli/001052_2014-06-08_18-24-54_260595134347_rgbf000130-resize_1/001052_2014-06-08_18-24-54_260595134347_rgbf000130-resize_1-target.png,250,4.1045,2,1891,249,meters,jsons/v1_VE250_randls_26_rotated.json,572576,658543,29,Man
22,669386,DepthScenes,duration_manipulation_targetAtFixation,jsons/v1_VE250_randls_26_rotated.json,http://54.235.29.9/FacialAge/BNav_EC2/DepthDuration/v2_depth_duration_MTurk/v2_DepthDuration_HTML.html#438,438,1366,625,1366,768,9-20-2022,13-19-19,23,depth_duration_stimuli/002988_2014-06-15_12-24-20_094959634447_rgbf000150-resize_1/002988_2014-06-15_12-24-20_094959634447_rgbf000150-resize_1-target.png,250,4.7669999999999995,3,2122,251,meters,jsons/v1_VE250_randls_26_rotated.json,572576,658543,29,Man
23,669386,DepthScenes,duration_manipulation_targetAtFixation,jsons/v1_VE250_randls_26_rotated.json,http://54.235.29.9/FacialAge/BNav_EC2/DepthDuration/v2_depth_duration_MTurk/v2_DepthDuration_HTML.html#438,438,1366,625,1366,768,9-20-2022,13-19-19,24,depth_duration_stimuli/003423_2014-05-21_10-23-26_094959634447_rgbf002665-resize_2/003423_2014-05-21_10-23-26_094959634447_rgbf002665-resize_2-target.png,250,3.2575,2,1861,263,meters,jsons/v1_VE250_randls_26_rotated.json,572576,658543,29,Man
24,669386,DepthScenes,duration_manipulation_targetAtFixation,jsons/v1_VE250_randls_26_rotated.json,http://54.235.29.9/FacialAge/BNav_EC2/DepthDuration/v2_depth_duration_MTurk/v2_DepthDuration_HTML.html#438,438,1366,625,1366,768,9-20-2022,13-19-19,25,depth_duration_stimuli/002905_2014-06-03_18-04-43_094959634447_rgbf000151-resize_2/002905_2014-06-03_18-04-43_094959634447_rgbf000151-resize_2-target.png,250,2.0295,3,2072,250,meters,jsons/v1_VE250_randls_26_rotated.json,572576,658543,29,Man
25,669386,DepthScenes,duration_manipulation_targetAtFixation,jsons/v1_VE250_randls_26_rotated.json,http://54.235.29.9/FacialAge/BNav_EC2/DepthDuration/v2_depth_duration_MTurk/v2_DepthDuration_HTML.html#438,438,1366,625,1366,768,9-20-2022,13-19-19,26,depth_duration_stimuli/001094_2014-06-15_17-36-00_260595134347_rgbf000205-resize_0/001094_2014-06-15_17-36-00_260595134347_rgbf000205-resize_0-target.png,250,4.2175,2,1910,257,meters,jsons/v1_VE250_randls_26_rotated.json,572576,658543,29,Man
26,669386,DepthScenes,duration_manipulation_targetAtFixation,jsons/v1_VE250_randls_26_rotated.json,http://54.235.29.9/FacialAge/BNav_EC2/DepthDuration/v2_depth_duration_MTurk/v2_DepthDuration_HTML.html#438,438,1366,625,1366,768,9-20-2022,13-19-19,27,depth_duration_stimuli/000692_2014-06-08_13-09-42_260595134347_rgbf000199-resize_2/000692_2014-06-08_13-09-42_260595134347_rgbf000199-resize_2-target.png,250,3.661,3,2026,247,meters,jsons/v1_VE250_randls_26_rotated.json,572576,658543,29,Man
27,669386,DepthScenes,duration_manipulation_targetAtFixation,jsons/v1_VE250_randls_26_rotated.json,http://54.235.29.9/FacialAge/BNav_EC2/DepthDuration/v2_depth_duration_MTurk/v2_DepthDuration_HTML.html#438,438,1366,625,1366,768,9-20-2022,13-19-19,28,depth_duration_stimuli/000109_2014-05-14_23-41-52_260595134347_rgbf000035-resize_9/000109_2014-05-14_23-41-52_260595134347_rgbf000035-resize_9-target.png,250,1.3545,2,2122,243,meters,jsons/v1_VE250_randls_26_rotated.json,572576,658543,29,Man
28,669386,DepthScenes,duration_manipulation_targetAtFixation,jsons/v1_VE250_randls_26_rotated.json,http://54.235.29.9/FacialAge/BNav_EC2/DepthDuration/v2_depth_duration_MTurk/v2_DepthDuration_HTML.html#438,438,1366,625,1366,768,9-20-2022,13-19-19,29,depth_duration_stimuli/000470_2014-06-09_19-42-40_260595134347_rgbf000094-resize_1/000470_2014-06-09_19-42-40_260595134347_rgbf000094-resize_1-target.png,250,1.831,2,2072,238,meters,jsons/v1_VE250_randls_26_rotated.json,572576,658543,29,Man
29,669386,DepthScenes,duration_manipulation_targetAtFixation,jsons/v1_VE250_randls_26_rotated.json,http://54.235.29.9/FacialAge/BNav_EC2/DepthDuration/v2_depth_duration_MTurk/v2_DepthDuration_HTML.html#438,438,1366,625,1366,768,9-20-2022,13-19-19,30,depth_duration_stimuli/002072_2014-06-24_21-48-06_260595134347_rgbf000115-resize_0/002072_2014-06-24_21-48-06_260595134347_rgbf000115-resize-original.jpg,250,4.702,2,2103,250,meters,jsons/v1_VE250_randls_26_rotated.json,572576,658543,29,Man
30,669386,DepthScenes,duration_manipulation_targetAtFixation,jsons/v1_VE250_randls_26_rotated.json,http://54.235.29.9/FacialAge/BNav_EC2/DepthDuration/v2_depth_duration_MTurk/v2_DepthDuration_HTML.html#438,438,1366,625,1366,768,9-20-2022,13-19-19,31,depth_duration_stimuli/002660_2014-06-13_15-44-18_094959634447_rgbf001878-resize_2/002660_2014-06-13_15-44-18_094959634447_rgbf001878-resize_2-target.png,250,3.576,3,1890,242,meters,jsons/v1_VE250_randls_26_rotated.json,572576,658543,29,Man
31,669386,DepthScenes,duration_manipulation_targetAtFixation,jsons/v1_VE250_randls_26_rotated.json,http://54.235.29.9/FacialAge/BNav_EC2/DepthDuration/v2_depth_duration_MTurk/v2_DepthDuration_HTML.html#438,438,1366,625,1366,768,9-20-2022,13-19-19,32,depth_duration_stimuli/002153_2014-06-25_21-27-18_260595134347_rgbf000038-resize_5/002153_2014-06-25_21-27-18_260595134347_rgbf000038-resize_5-target.png,250,2.505,3,2797,239,meters,jsons/v1_VE250_randls_26_rotated.json,572576,658543,29,Man
32,669386,DepthScenes,duration_manipulation_targetAtFixation,jsons/v1_VE250_randls_26_rotated.json,http://54.235.29.9/FacialAge/BNav_EC2/DepthDuration/v2_depth_duration_MTurk/v2_DepthDuration_HTML.html#438,438,1366,625,1366,768,9-20-2022,13-19-19,33,depth_duration_stimuli/000677_2014-06-08_23-10-32_260595134347_rgbf000158-resize_6/000677_2014-06-08_23-10-32_260595134347_rgbf000158-resize_6-target.png,250,3.556,2,2126,263,meters,jsons/v1_VE250_randls_26_rotated.json,572576,658543,29,Man
33,669386,DepthScenes,duration_manipulation_targetAtFixation,jsons/v1_VE250_randls_26_rotated.json,http://54.235.29.9/FacialAge/BNav_EC2/DepthDuration/v2_depth_duration_MTurk/v2_DepthDuration_HTML.html#438,438,1366,625,1366,768,9-20-2022,13-19-19,34,depth_duration_stimuli/001029_2014-06-08_13-17-57_260595134347_rgbf000065-resize_1/001029_2014-06-08_13-17-57_260595134347_rgbf000065-resize_1-target.png,250,3.0835,3,1841,255,meters,jsons/v1_VE250_randls_26_rotated.json,572576,658543,29,Man
34,669386,DepthScenes,duration_manipulation_targetAtFixation,jsons/v1_VE250_randls_26_rotated.json,http://54.235.29.9/FacialAge/BNav_EC2/DepthDuration/v2_depth_duration_MTurk/v2_DepthDuration_HTML.html#438,438,1366,625,1366,768,9-20-2022,13-19-19,35,depth_duration_stimuli/000549_2014-06-08_22-10-24_260595134347_rgbf000247-resize_3/000549_2014-06-08_22-10-24_260595134347_rgbf000247-resize_3-target.png,250,1.841,2,1895,182,meters,jsons/v1_VE250_randls_26_rotated.json,572576,658543,29,Man
35,669386,DepthScenes,duration_manipulation_targetAtFixation,jsons/v1_VE250_randls_26_rotated.json,http://54.235.29.9/FacialAge/BNav_EC2/DepthDuration/v2_depth_duration_MTurk/v2_DepthDuration_HTML.html#438,438,1366,625,1366,768,9-20-2022,13-19-19,36,depth_duration_stimuli/001055_2014-06-08_18-45-35_260595134347_rgbf000111-resize_4/001055_2014-06-08_18-45-35_260595134347_rgbf000111-resize_4-target.png,250,2.4290000000000003,3,3164,239,meters,jsons/v1_VE250_randls_26_rotated.json,572576,658543,29,Man
36,669386,DepthScenes,duration_manipulation_targetAtFixation,jsons/v1_VE250_randls_26_rotated.json,http://54.235.29.9/FacialAge/BNav_EC2/DepthDuration/v2_depth_duration_MTurk/v2_DepthDuration_HTML.html#438,438,1366,625,1366,768,9-20-2022,13-19-19,37,depth_duration_stimuli/001450_2014-06-19_17-02-03_260595134347_rgbf000203-resize_4/001450_2014-06-19_17-02-03_260595134347_rgbf000203-resize_4-target.png,250,4.0106666666667,2,2025,264,meters,jsons/v1_VE250_randls_26_rotated.json,572576,658543,29,Man
37,669386,DepthScenes,duration_manipulation_targetAtFixation,jsons/v1_VE250_randls_26_rotated.json,http://54.235.29.9/FacialAge/BNav_EC2/DepthDuration/v2_depth_duration_MTurk/v2_DepthDuration_HTML.html#438,438,1366,625,1366,768,9-20-2022,13-19-19,38,depth_duration_stimuli/001449_2014-06-19_17-01-27_260595134347_rgbf000116-resize_2/001449_2014-06-19_17-01-27_260595134347_rgbf000116-resize_2-target.png,250,3.452,3,2030,238,meters,jsons/v1_VE250_randls_26_rotated.json,572576,658543,29,Man
38,669386,DepthScenes,duration_manipulation_targetAtFixation,jsons/v1_VE250_randls_26_rotated.json,http://54.235.29.9/FacialAge/BNav_EC2/DepthDuration/v2_depth_duration_MTurk/v2_DepthDuration_HTML.html#438,438,1366,625,1366,768,9-20-2022,13-19-19,39,depth_duration_stimuli/002467_2014-06-28_20-38-07_260595134347_rgbf000026-resize_2/002467_2014-06-28_20-38-07_260595134347_rgbf000026-resize_2-target.png,250,4.742,2,2483,265,meters,jsons/v1_VE250_randls_26_rotated.json,572576,658543,29,Man
39,669386,DepthScenes,duration_manipulation_targetAtFixation,jsons/v1_VE250_randls_26_rotated.json,http://54.235.29.9/FacialAge/BNav_EC2/DepthDuration/v2_depth_duration_MTurk/v2_DepthDuration_HTML.html#438,438,1366,625,1366,768,9-20-2022,13-19-19,40,depth_duration_stimuli/002570_2014-06-24_13-59-54_094959634447_rgbf000059-resize_0/002570_2014-06-24_13-59-54_094959634447_rgbf000059-resize_0-target.png,250,4.037,3,2305,262,meters,jsons/v1_VE250_randls_26_rotated.json,572576,658543,29,Man
40,669386,DepthScenes,duration_manipulation_targetAtFixation,jsons/v1_VE250_randls_26_rotated.json,http://54.235.29.9/FacialAge/BNav_EC2/DepthDuration/v2_depth_duration_MTurk/v2_DepthDuration_HTML.html#438,438,1366,625,1366,768,9-20-2022,13-19-19,41,depth_duration_stimuli/000137_2014-05-20_17-04-49_260595134347_rgbf000120-resize_1/000137_2014-05-20_17-04-49_260595134347_rgbf000120-resize_1-target.png,250,3.786,2,1803,250,meters,jsons/v1_VE250_randls_26_rotated.json,572576,658543,29,Man
41,669386,DepthScenes,duration_manipulation_targetAtFixation,jsons/v1_VE250_randls_26_rotated.json,http://54.235.29.9/FacialAge/BNav_EC2/DepthDuration/v2_depth_duration_MTurk/v2_DepthDuration_HTML.html#438,438,1366,625,1366,768,9-20-2022,13-19-19,42,depth_duration_stimuli/000736_2014-06-08_18-24-15_260595134347_rgbf000206-resize_3/000736_2014-06-08_18-24-15_260595134347_rgbf000206-resize_3-target.png,250,3.515,2,3393,259,meters,jsons/v1_VE250_randls_26_rotated.json,572576,658543,29,Man
42,669386,DepthScenes,duration_manipulation_targetAtFixation,jsons/v1_VE250_randls_26_rotated.json,http://54.235.29.9/FacialAge/BNav_EC2/DepthDuration/v2_depth_duration_MTurk/v2_DepthDuration_HTML.html#438,438,1366,625,1366,768,9-20-2022,13-19-19,43,depth_duration_stimuli/002136_2014-06-25_21-18-03_260595134347_rgbf000109-resize_3/002136_2014-06-25_21-18-03_260595134347_rgbf000109-resize_3-target.png,250,1.9569999999999999,2,2991,258,meters,jsons/v1_VE250_randls_26_rotated.json,572576,658543,29,Man
43,669386,DepthScenes,duration_manipulation_targetAtFixation,jsons/v1_VE250_randls_26_rotated.json,http://54.235.29.9/FacialAge/BNav_EC2/DepthDuration/v2_depth_duration_MTurk/v2_DepthDuration_HTML.html#438,438,1366,625,1366,768,9-20-2022,13-19-19,44,depth_duration_stimuli/002964_2014-06-08_17-46-11_094959634447_rgbf000091-resize_4/002964_2014-06-08_17-46-11_094959634447_rgbf000091-resize_4-target.png,250,1.6909999999999998,3,1780,238,meters,jsons/v1_VE250_randls_26_rotated.json,572576,658543,29,Man
44,669386,DepthScenes,duration_manipulation_targetAtFixation,jsons/v1_VE250_randls_26_rotated.json,http://54.235.29.9/FacialAge/BNav_EC2/DepthDuration/v2_depth_duration_MTurk/v2_DepthDuration_HTML.html#438,438,1366,625,1366,768,9-20-2022,13-19-19,45,depth_duration_stimuli/003079_2014-06-15_15-18-20_094959634447_rgbf000152-resize_8/003079_2014-06-15_15-18-20_094959634447_rgbf000152-resize_8-target.png,250,2.8775,3,1805,253,meters,jsons/v1_VE250_randls_26_rotated.json,572576,658543,29,Man
45,669386,DepthScenes,duration_manipulation_targetAtFixation,jsons/v1_VE250_randls_26_rotated.json,http://54.235.29.9/FacialAge/BNav_EC2/DepthDuration/v2_depth_duration_MTurk/v2_DepthDuration_HTML.html#438,438,1366,625,1366,768,9-20-2022,13-19-19,46,depth_duration_stimuli/000506_2014-06-08_23-21-00_260595134347_rgbf000070-resize_7/000506_2014-06-08_23-21-00_260595134347_rgbf000070-resize_7-target.png,250,4.0585,2,2872,336,meters,jsons/v1_VE250_randls_26_rotated.json,572576,658543,29,Man
46,669386,DepthScenes,duration_manipulation_targetAtFixation,jsons/v1_VE250_randls_26_rotated.json,http://54.235.29.9/FacialAge/BNav_EC2/DepthDuration/v2_depth_duration_MTurk/v2_DepthDuration_HTML.html#438,438,1366,625,1366,768,9-20-2022,13-19-19,47,depth_duration_stimuli/000502_2014-06-08_23-02-32_260595134347_rgbf000063-resize_4/000502_2014-06-08_23-02-32_260595134347_rgbf000063-resize_4-target.png,250,2.431,3,2244,126,meters,jsons/v1_VE250_randls_26_rotated.json,572576,658543,29,Man
47,669386,DepthScenes,duration_manipulation_targetAtFixation,jsons/v1_VE250_randls_26_rotated.json,http://54.235.29.9/FacialAge/BNav_EC2/DepthDuration/v2_depth_duration_MTurk/v2_DepthDuration_HTML.html#438,438,1366,625,1366,768,9-20-2022,13-19-19,48,depth_duration_stimuli/001199_2014-06-17_16-03-48_260595134347_rgbf000077-resize_0/001199_2014-06-17_16-03-48_260595134347_rgbf000077-resize_0-target.png,250,3.4375,3,2524,252,meters,jsons/v1_VE250_randls_26_rotated.json,572576,658543,29,Man
48,669386,DepthScenes,duration_manipulation_targetAtFixation,jsons/v1_VE250_randls_26_rotated.json,http://54.235.29.9/FacialAge/BNav_EC2/DepthDuration/v2_depth_duration_MTurk/v2_DepthDuration_HTML.html#438,438,1366,625,1366,768,9-20-2022,13-19-19,49,depth_duration_stimuli/001170_2014-06-17_15-43-44_260595134347_rgbf000096-resize_6/001170_2014-06-17_15-43-44_260595134347_rgbf000096-resize-original.jpg,250,1.1909999999999998,4,2482,258,meters,jsons/v1_VE250_randls_26_rotated.json,572576,658543,29,Man
49,669386,DepthScenes,duration_manipulation_targetAtFixation,jsons/v1_VE250_randls_26_rotated.json,http://54.235.29.9/FacialAge/BNav_EC2/DepthDuration/v2_depth_duration_MTurk/v2_DepthDuration_HTML.html#438,438,1366,625,1366,768,9-20-2022,13-19-19,50,depth_duration_stimuli/002199_2014-06-28_18-33-56_260595134347_rgbf000074-resize_0/002199_2014-06-28_18-33-56_260595134347_rgbf000074-resize_0-target.png,250,1.996,33,1871,285,meters,jsons/v1_VE250_randls_26_rotated.json,572576,658543,29,Man
50,669386,DepthScenes,duration_manipulation_targetAtFixation,jsons/v1_VE250_randls_26_rotated.json,http://54.235.29.9/FacialAge/BNav_EC2/DepthDuration/v2_depth_duration_MTurk/v2_DepthDuration_HTML.html#438,438,1366,625,1366,768,9-20-2022,13-19-19,51,depth_duration_stimuli/001056_2014-06-08_18-46-44_260595134347_rgbf000068-resize_0/001056_2014-06-08_18-46-44_260595134347_rgbf000068-resize_0-target.png,250,2.6625,4,2099,175,meters,jsons/v1_VE250_randls_26_rotated.json,572576,658543,29,Man
51,669386,DepthScenes,duration_manipulation_targetAtFixation,jsons/v1_VE250_randls_26_rotated.json,http://54.235.29.9/FacialAge/BNav_EC2/DepthDuration/v2_depth_duration_MTurk/v2_DepthDuration_HTML.html#438,438,1366,625,1366,768,9-20-2022,13-19-19,52,depth_duration_stimuli/003081_2014-06-15_15-19-16_094959634447_rgbf000150-resize_1/003081_2014-06-15_15-19-16_094959634447_rgbf000150-resize_1-target.png,250,3.9125,3,2216,252,meters,jsons/v1_VE250_randls_26_rotated.json,572576,658543,29,Man
52,669386,DepthScenes,duration_manipulation_targetAtFixation,jsons/v1_VE250_randls_26_rotated.json,http://54.235.29.9/FacialAge/BNav_EC2/DepthDuration/v2_depth_duration_MTurk/v2_DepthDuration_HTML.html#438,438,1366,625,1366,768,9-20-2022,13-19-19,53,depth_duration_stimuli/001417_2014-06-19_16-25-36_260595134347_rgbf000115-resize_5/001417_2014-06-19_16-25-36_260595134347_rgbf000115-resize_5-target.png,250,4.6255,4,1884,229,meters,jsons/v1_VE250_randls_26_rotated.json,572576,658543,29,Man
53,669386,DepthScenes,duration_manipulation_targetAtFixation,jsons/v1_VE250_randls_26_rotated.json,http://54.235.29.9/FacialAge/BNav_EC2/DepthDuration/v2_depth_duration_MTurk/v2_DepthDuration_HTML.html#438,438,1366,625,1366,768,9-20-2022,13-19-19,54,depth_duration_stimuli/002209_2014-06-28_18-36-10_260595134347_rgbf000051-resize_1/002209_2014-06-28_18-36-10_260595134347_rgbf000051-resize_1-target.png,250,2.057,3,2970,202,meters,jsons/v1_VE250_randls_26_rotated.json,572576,658543,29,Man
54,669386,DepthScenes,duration_manipulation_targetAtFixation,jsons/v1_VE250_randls_26_rotated.json,http://54.235.29.9/FacialAge/BNav_EC2/DepthDuration/v2_depth_duration_MTurk/v2_DepthDuration_HTML.html#438,438,1366,625,1366,768,9-20-2022,13-19-19,55,depth_duration_stimuli/002763_2014-06-22_19-13-10_094959634447_rgbf000075-resize_4/002763_2014-06-22_19-13-10_094959634447_rgbf000075-resize_4-target.png,250,1.68375,3,4654,248,meters,jsons/v1_VE250_randls_26_rotated.json,572576,658543,29,Man
55,669386,DepthScenes,duration_manipulation_targetAtFixation,jsons/v1_VE250_randls_26_rotated.json,http://54.235.29.9/FacialAge/BNav_EC2/DepthDuration/v2_depth_duration_MTurk/v2_DepthDuration_HTML.html#438,438,1366,625,1366,768,9-20-2022,13-19-19,56,depth_duration_stimuli/002995_2014-06-15_12-31-26_094959634447_rgbf000150-resize_1/002995_2014-06-15_12-31-26_094959634447_rgbf000150-resize_1-target.png,250,3.8360000000000003,3,1776,20,meters,jsons/v1_VE250_randls_26_rotated.json,572576,658543,29,Man
56,669386,DepthScenes,duration_manipulation_targetAtFixation,jsons/v1_VE250_randls_26_rotated.json,http://54.235.29.9/FacialAge/BNav_EC2/DepthDuration/v2_depth_duration_MTurk/v2_DepthDuration_HTML.html#438,438,1366,625,1366,768,9-20-2022,13-19-19,57,depth_duration_stimuli/002748_2014-06-22_19-07-22_094959634447_rgbf000078-resize_1/002748_2014-06-22_19-07-22_094959634447_rgbf000078-resize_1-target.png,250,4.6705,4,2406,252,meters,jsons/v1_VE250_randls_26_rotated.json,572576,658543,29,Man
57,669386,DepthScenes,duration_manipulation_targetAtFixation,jsons/v1_VE250_randls_26_rotated.json,http://54.235.29.9/FacialAge/BNav_EC2/DepthDuration/v2_depth_duration_MTurk/v2_DepthDuration_HTML.html#438,438,1366,625,1366,768,9-20-2022,13-19-19,58,depth_duration_stimuli/001032_2014-06-08_13-23-17_260595134347_rgbf000021-resize_3/001032_2014-06-08_13-23-17_260595134347_rgbf000021-resize_3-target.png,250,3.2725,3,3368,222,meters,jsons/v1_VE250_randls_26_rotated.json,572576,658543,29,Man
58,669386,DepthScenes,duration_manipulation_targetAtFixation,jsons/v1_VE250_randls_26_rotated.json,http://54.235.29.9/FacialAge/BNav_EC2/DepthDuration/v2_depth_duration_MTurk/v2_DepthDuration_HTML.html#438,438,1366,625,1366,768,9-20-2022,13-19-19,59,depth_duration_stimuli/001059_2014-06-08_21-53-27_260595134347_rgbf000061-resize_4/001059_2014-06-08_21-53-27_260595134347_rgbf000061-resize_4-target.png,250,2.4185,3,2547,229,meters,jsons/v1_VE250_randls_26_rotated.json,572576,658543,29,Man
59,669386,DepthScenes,duration_manipulation_targetAtFixation,jsons/v1_VE250_randls_26_rotated.json,http://54.235.29.9/FacialAge/BNav_EC2/DepthDuration/v2_depth_duration_MTurk/v2_DepthDuration_HTML.html#438,438,1366,625,1366,768,9-20-2022,13-19-19,60,depth_duration_stimuli/001584_2014-06-20_11-07-43_260595134347_rgbf000002-resize_1/001584_2014-06-20_11-07-43_260595134347_rgbf000002-resize_1-target.png,250,3.53,3,3355,250,meters,jsons/v1_VE250_randls_26_rotated.json,572576,658543,29,Man
60,669386,DepthScenes,duration_manipulation_targetAtFixation,jsons/v1_VE250_randls_26_rotated.json,http://54.235.29.9/FacialAge/BNav_EC2/DepthDuration/v2_depth_duration_MTurk/v2_DepthDuration_HTML.html#438,438,1366,625,1366,768,9-20-2022,13-19-19,61,depth_duration_stimuli/003621_2014-05-23_18-06-08_094959634447_rgbf000101-resize_1/003621_2014-05-23_18-06-08_094959634447_rgbf000101-resize_1-target.png,250,3.9835,4,3352,246,meters,jsons/v1_VE250_randls_26_rotated.json,572576,658543,29,Man
61,669386,DepthScenes,duration_manipulation_targetAtFixation,jsons/v1_VE250_randls_26_rotated.json,http://54.235.29.9/FacialAge/BNav_EC2/DepthDuration/v2_depth_duration_MTurk/v2_DepthDuration_HTML.html#438,438,1366,625,1366,768,9-20-2022,13-19-19,62,depth_duration_stimuli/002568_2014-06-24_13-59-21_094959634447_rgbf000062-resize_4/002568_2014-06-24_13-59-21_094959634447_rgbf000062-resize_4-target.png,250,3.015,4,3420,243,meters,jsons/v1_VE250_randls_26_rotated.json,572576,658543,29,Man
62,669386,DepthScenes,duration_manipulation_targetAtFixation,jsons/v1_VE250_randls_26_rotated.json,http://54.235.29.9/FacialAge/BNav_EC2/DepthDuration/v2_depth_duration_MTurk/v2_DepthDuration_HTML.html#438,438,1366,625,1366,768,9-20-2022,13-19-19,63,depth_duration_stimuli/003492_2014-05-21_15-50-55_094959634447_rgbf000828-resize_1/003492_2014-05-21_15-50-55_094959634447_rgbf000828-resize_1-target.png,250,4.06875,3,2356,254,meters,jsons/v1_VE250_randls_26_rotated.json,572576,658543,29,Man
63,669386,DepthScenes,duration_manipulation_targetAtFixation,jsons/v1_VE250_randls_26_rotated.json,http://54.235.29.9/FacialAge/BNav_EC2/DepthDuration/v2_depth_duration_MTurk/v2_DepthDuration_HTML.html#438,438,1366,625,1366,768,9-20-2022,13-19-19,64,depth_duration_stimuli/001815_2014-06-26_20-52-55_260595134347_rgbf000020-resize_0/001815_2014-06-26_20-52-55_260595134347_rgbf000020-resize_0-target.png,250,3.3865,3,2891,518,meters,jsons/v1_VE250_randls_26_rotated.json,572576,658543,29,Man
64,669386,DepthScenes,duration_manipulation_targetAtFixation,jsons/v1_VE250_randls_26_rotated.json,http://54.235.29.9/FacialAge/BNav_EC2/DepthDuration/v2_depth_duration_MTurk/v2_DepthDuration_HTML.html#438,438,1366,625,1366,768,9-20-2022,13-19-19,65,depth_duration_stimuli/001808_2014-06-26_20-50-58_260595134347_rgbf000029-resize_1/001808_2014-06-26_20-50-58_260595134347_rgbf000029-resize_1-target.png,250,4.249,4,2375,251,meters,jsons/v1_VE250_randls_26_rotated.json,572576,658543,29,Man
65,669386,DepthScenes,duration_manipulation_targetAtFixation,jsons/v1_VE250_randls_26_rotated.json,http://54.235.29.9/FacialAge/BNav_EC2/DepthDuration/v2_depth_duration_MTurk/v2_DepthDuration_HTML.html#438,438,1366,625,1366,768,9-20-2022,13-19-19,66,depth_duration_stimuli/001540_2014-06-20_17-01-05_260595134347_rgbf000086-resize_2/001540_2014-06-20_17-01-05_260595134347_rgbf000086-resize-original.jpg,250,1.459,4,2484,358,meters,jsons/v1_VE250_randls_26_rotated.json,572576,658543,29,Man
66,669386,DepthScenes,duration_manipulation_targetAtFixation,jsons/v1_VE250_randls_26_rotated.json,http://54.235.29.9/FacialAge/BNav_EC2/DepthDuration/v2_depth_duration_MTurk/v2_DepthDuration_HTML.html#438,438,1366,625,1366,768,9-20-2022,13-19-19,67,depth_duration_stimuli/003490_2014-05-21_15-50-11_094959634447_rgbf000101-resize_3/003490_2014-05-21_15-50-11_094959634447_rgbf000101-resize_3-target.png,250,3.6445,4,2640,246,meters,jsons/v1_VE250_randls_26_rotated.json,572576,658543,29,Man
67,669386,DepthScenes,duration_manipulation_targetAtFixation,jsons/v1_VE250_randls_26_rotated.json,http://54.235.29.9/FacialAge/BNav_EC2/DepthDuration/v2_depth_duration_MTurk/v2_DepthDuration_HTML.html#438,438,1366,625,1366,768,9-20-2022,13-19-19,68,depth_duration_stimuli/001175_2014-06-17_15-45-55_260595134347_rgbf000129-resize_4/001175_2014-06-17_15-45-55_260595134347_rgbf000129-resize_4-target.png,250,4.255,4,5029,268,meters,jsons/v1_VE250_randls_26_rotated.json,572576,658543,29,Man
68,669386,DepthScenes,duration_manipulation_targetAtFixation,jsons/v1_VE250_randls_26_rotated.json,http://54.235.29.9/FacialAge/BNav_EC2/DepthDuration/v2_depth_duration_MTurk/v2_DepthDuration_HTML.html#438,438,1366,625,1366,768,9-20-2022,13-19-19,69,depth_duration_stimuli/003083_2014-06-15_15-21-03_094959634447_rgbf000063-resize_1/003083_2014-06-15_15-21-03_094959634447_rgbf000063-resize_1-target.png,250,4.1405,4,3335,256,meters,jsons/v1_VE250_randls_26_rotated.json,572576,658543,29,Man
69,669386,DepthScenes,duration_manipulation_targetAtFixation,jsons/v1_VE250_randls_26_rotated.json,http://54.235.29.9/FacialAge/BNav_EC2/DepthDuration/v2_depth_duration_MTurk/v2_DepthDuration_HTML.html#438,438,1366,625,1366,768,9-20-2022,13-19-19,70,depth_duration_stimuli/000486_2014-06-09_20-47-20_260595134347_rgbf000143-resize_2/000486_2014-06-09_20-47-20_260595134347_rgbf000143-resize_2-target.png,250,4.8325,4,4142,261,meters,jsons/v1_VE250_randls_26_rotated.json,572576,658543,29,Man
70,669386,DepthScenes,duration_manipulation_targetAtFixation,jsons/v1_VE250_randls_26_rotated.json,http://54.235.29.9/FacialAge/BNav_EC2/DepthDuration/v2_depth_duration_MTurk/v2_DepthDuration_HTML.html#438,438,1366,625,1366,768,9-20-2022,13-19-19,71,depth_duration_stimuli/002639_2014-06-24_14-51-37_094959634447_rgbf000074-resize_4/002639_2014-06-24_14-51-37_094959634447_rgbf000074-resize_4-target.png,250,4.0375,3,2382,244,meters,jsons/v1_VE250_randls_26_rotated.json,572576,658543,29,Man
71,669386,DepthScenes,duration_manipulation_targetAtFixation,jsons/v1_VE250_randls_26_rotated.json,http://54.235.29.9/FacialAge/BNav_EC2/DepthDuration/v2_depth_duration_MTurk/v2_DepthDuration_HTML.html#438,438,1366,625,1366,768,9-20-2022,13-19-19,72,depth_duration_stimuli/003292_2014-05-14_21-53-49_094959634447_rgbf000100-resize_2/003292_2014-05-14_21-53-49_094959634447_rgbf000100-resize_2-target.png,250,3.4815,4,2265,237,meters,jsons/v1_VE250_randls_26_rotated.json,572576,658543,29,Man
72,669386,DepthScenes,duration_manipulation_targetAtFixation,jsons/v1_VE250_randls_26_rotated.json,http://54.235.29.9/FacialAge/BNav_EC2/DepthDuration/v2_depth_duration_MTurk/v2_DepthDuration_HTML.html#438,438,1366,625,1366,768,9-20-2022,13-19-19,73,depth_duration_stimuli/001650_2014-06-20_12-09-00_260595134347_rgbf000087-resize_3/001650_2014-06-20_12-09-00_260595134347_rgbf000087-resize_3-target.png,250,1.9505,4,2474,289,meters,jsons/v1_VE250_randls_26_rotated.json,572576,658543,29,Man
73,669386,DepthScenes,duration_manipulation_targetAtFixation,jsons/v1_VE250_randls_26_rotated.json,http://54.235.29.9/FacialAge/BNav_EC2/DepthDuration/v2_depth_duration_MTurk/v2_DepthDuration_HTML.html#438,438,1366,625,1366,768,9-20-2022,13-19-19,74,depth_duration_stimuli/000682_2014-06-08_23-14-58_260595134347_rgbf000041-resize_5/000682_2014-06-08_23-14-58_260595134347_rgbf000041-resize_5-target.png,250,2.7239999999999998,3,10925,250,meters,jsons/v1_VE250_randls_26_rotated.json,572576,658543,29,Man
74,669386,DepthScenes,duration_manipulation_targetAtFixation,jsons/v1_VE250_randls_26_rotated.json,http://54.235.29.9/FacialAge/BNav_EC2/DepthDuration/v2_depth_duration_MTurk/v2_DepthDuration_HTML.html#438,438,1366,625,1366,768,9-20-2022,13-19-19,75,depth_duration_stimuli/002657_2014-06-13_15-29-54_094959634447_rgbf000150-resize_1/002657_2014-06-13_15-29-54_094959634447_rgbf000150-resize_1-target.png,250,4.919,4,4264,247,meters,jsons/v1_VE250_randls_26_rotated.json,572576,658543,29,Man
75,669386,DepthScenes,duration_manipulation_targetAtFixation,jsons/v1_VE250_randls_26_rotated.json,http://54.235.29.9/FacialAge/BNav_EC2/DepthDuration/v2_depth_duration_MTurk/v2_DepthDuration_HTML.html#438,438,1366,625,1366,768,9-20-2022,13-19-19,76,depth_duration_stimuli/002375_2014-06-28_20-13-44_260595134347_rgbf000032-resize_1/002375_2014-06-28_20-13-44_260595134347_rgbf000032-resize_1-target.png,250,4.0175,34,2705,242,meters,jsons/v1_VE250_randls_26_rotated.json,572576,658543,29,Man
76,669386,DepthScenes,duration_manipulation_targetAtFixation,jsons/v1_VE250_randls_26_rotated.json,http://54.235.29.9/FacialAge/BNav_EC2/DepthDuration/v2_depth_duration_MTurk/v2_DepthDuration_HTML.html#438,438,1366,625,1366,768,9-20-2022,13-19-19,77,depth_duration_stimuli/002545_2014-06-24_13-38-53_094959634447_rgbf000080-resize_4/002545_2014-06-24_13-38-53_094959634447_rgbf000080-resize_4-target.png,250,1.9205,3,5313,240,meters,jsons/v1_VE250_randls_26_rotated.json,572576,658543,29,Man
77,669386,DepthScenes,duration_manipulation_targetAtFixation,jsons/v1_VE250_randls_26_rotated.json,http://54.235.29.9/FacialAge/BNav_EC2/DepthDuration/v2_depth_duration_MTurk/v2_DepthDuration_HTML.html#438,438,1366,625,1366,768,9-20-2022,13-19-19,78,depth_duration_stimuli/001092_2014-06-15_17-34-58_260595134347_rgbf000171-resize_3/001092_2014-06-15_17-34-58_260595134347_rgbf000171-resize_3-target.png,250,2.6935,3,3922,244,meters,jsons/v1_VE250_randls_26_rotated.json,572576,658543,29,Man
78,669386,DepthScenes,duration_manipulation_targetAtFixation,jsons/v1_VE250_randls_26_rotated.json,http://54.235.29.9/FacialAge/BNav_EC2/DepthDuration/v2_depth_duration_MTurk/v2_DepthDuration_HTML.html#438,438,1366,625,1366,768,9-20-2022,13-19-19,79,depth_duration_stimuli/002875_2014-06-01_15-19-00_094959634447_rgbf000151-resize_1/002875_2014-06-01_15-19-00_094959634447_rgbf000151-resize_1-target.png,250,1.9675,3,11087,244,meters,jsons/v1_VE250_randls_26_rotated.json,572576,658543,29,Man
79,669386,DepthScenes,duration_manipulation_targetAtFixation,jsons/v1_VE250_randls_26_rotated.json,http://54.235.29.9/FacialAge/BNav_EC2/DepthDuration/v2_depth_duration_MTurk/v2_DepthDuration_HTML.html#438,438,1366,625,1366,768,9-20-2022,13-19-19,80,depth_duration_stimuli/001011_2014-06-08_23-18-54_260595134347_rgbf000044-resize_4/001011_2014-06-08_23-18-54_260595134347_rgbf000044-resize_4-target.png,250,2.4730000000000003,5,2709,253,meters,jsons/v1_VE250_randls_26_rotated.json,572576,658543,29,Man
80,669386,DepthScenes,duration_manipulation_targetAtFixation,jsons/v1_VE250_randls_26_rotated.json,http://54.235.29.9/FacialAge/BNav_EC2/DepthDuration/v2_depth_duration_MTurk/v2_DepthDuration_HTML.html#438,438,1366,625,1366,768,9-20-2022,13-19-19,81,depth_duration_stimuli/002425_2014-06-28_20-27-29_260595134347_rgbf000031-resize_8/002425_2014-06-28_20-27-29_260595134347_rgbf000031-resize_8-target.png,250,3.8960000000000004,5,2553,247,meters,jsons/v1_VE250_randls_26_rotated.json,572576,658543,29,Man
81,669386,DepthScenes,duration_manipulation_targetAtFixation,jsons/v1_VE250_randls_26_rotated.json,http://54.235.29.9/FacialAge/BNav_EC2/DepthDuration/v2_depth_duration_MTurk/v2_DepthDuration_HTML.html#438,438,1366,625,1366,768,9-20-2022,13-19-19,82,depth_duration_stimuli/000642_2014-06-08_16-59-25_260595134347_rgbf000098-resize_2/000642_2014-06-08_16-59-25_260595134347_rgbf000098-resize_2-target.png,250,2.8815,4,2200,248,meters,jsons/v1_VE250_randls_26_rotated.json,572576,658543,29,Man
82,669386,DepthScenes,duration_manipulation_targetAtFixation,jsons/v1_VE250_randls_26_rotated.json,http://54.235.29.9/FacialAge/BNav_EC2/DepthDuration/v2_depth_duration_MTurk/v2_DepthDuration_HTML.html#438,438,1366,625,1366,768,9-20-2022,13-19-19,83,depth_duration_stimuli/002637_2014-06-24_14-51-13_094959634447_rgbf000066-resize_4/002637_2014-06-24_14-51-13_094959634447_rgbf000066-resize_4-target.png,250,1.9955,5,2250,253,meters,jsons/v1_VE250_randls_26_rotated.json,572576,658543,29,Man
83,669386,DepthScenes,duration_manipulation_targetAtFixation,jsons/v1_VE250_randls_26_rotated.json,http://54.235.29.9/FacialAge/BNav_EC2/DepthDuration/v2_depth_duration_MTurk/v2_DepthDuration_HTML.html#438,438,1366,625,1366,768,9-20-2022,13-19-19,84,depth_duration_stimuli/003534_2014-05-22_15-06-10_094959634447_rgbf000102-resize_4/003534_2014-05-22_15-06-10_094959634447_rgbf000102-resize_4-target.png,250,1.426,4,2210,267,meters,jsons/v1_VE250_randls_26_rotated.json,572576,658543,29,Man
84,669386,DepthScenes,duration_manipulation_targetAtFixation,jsons/v1_VE250_randls_26_rotated.json,http://54.235.29.9/FacialAge/BNav_EC2/DepthDuration/v2_depth_duration_MTurk/v2_DepthDuration_HTML.html#438,438,1366,625,1366,768,9-20-2022,13-19-19,85,depth_duration_stimuli/000483_2014-06-09_20-41-45_260595134347_rgbf000116-resize_4/000483_2014-06-09_20-41-45_260595134347_rgbf000116-resize_4-target.png,250,1.337,4,2236,257,meters,jsons/v1_VE250_randls_26_rotated.json,572576,658543,29,Man
85,669386,DepthScenes,duration_manipulation_targetAtFixation,jsons/v1_VE250_randls_26_rotated.json,http://54.235.29.9/FacialAge/BNav_EC2/DepthDuration/v2_depth_duration_MTurk/v2_DepthDuration_HTML.html#438,438,1366,625,1366,768,9-20-2022,13-19-19,86,depth_duration_stimuli/000469_2014-06-09_19-42-10_260595134347_rgbf000081-resize_1/000469_2014-06-09_19-42-10_260595134347_rgbf000081-resize_1-target.png,250,1.652,4,2280,249,meters,jsons/v1_VE250_randls_26_rotated.json,572576,658543,29,Man
86,669386,DepthScenes,duration_manipulation_targetAtFixation,jsons/v1_VE250_randls_26_rotated.json,http://54.235.29.9/FacialAge/BNav_EC2/DepthDuration/v2_depth_duration_MTurk/v2_DepthDuration_HTML.html#438,438,1366,625,1366,768,9-20-2022,13-19-19,87,depth_duration_stimuli/000734_2014-06-08_17-39-11_260595134347_rgbf000128-resize_2/000734_2014-06-08_17-39-11_260595134347_rgbf000128-resize_2-target.png,250,4.098,4,2246,252,meters,jsons/v1_VE250_randls_26_rotated.json,572576,658543,29,Man
87,669386,DepthScenes,duration_manipulation_targetAtFixation,jsons/v1_VE250_randls_26_rotated.json,http://54.235.29.9/FacialAge/BNav_EC2/DepthDuration/v2_depth_duration_MTurk/v2_DepthDuration_HTML.html#438,438,1366,625,1366,768,9-20-2022,13-19-19,88,depth_duration_stimuli/000739_2014-06-08_18-45-58_260595134347_rgbf000068-resize_1/000739_2014-06-08_18-45-58_260595134347_rgbf000068-resize_1-target.png,250,3.534,4,2323,248,meters,jsons/v1_VE250_randls_26_rotated.json,572576,658543,29,Man
88,669386,DepthScenes,duration_manipulation_targetAtFixation,jsons/v1_VE250_randls_26_rotated.json,http://54.235.29.9/FacialAge/BNav_EC2/DepthDuration/v2_depth_duration_MTurk/v2_DepthDuration_HTML.html#438,438,1366,625,1366,768,9-20-2022,13-19-19,89,depth_duration_stimuli/003129_2014-05-12_10-48-10_094959634447_rgbf000100-resize_0/003129_2014-05-12_10-48-10_094959634447_rgbf000100-resize_0-target.png,250,4.9305,3,9838,251,meters,jsons/v1_VE250_randls_26_rotated.json,572576,658543,29,Man
89,669386,DepthScenes,duration_manipulation_targetAtFixation,jsons/v1_VE250_randls_26_rotated.json,http://54.235.29.9/FacialAge/BNav_EC2/DepthDuration/v2_depth_duration_MTurk/v2_DepthDuration_HTML.html#438,438,1366,625,1366,768,9-20-2022,13-19-19,90,depth_duration_stimuli/000414_2014-06-04_19-49-13_260595134347_rgbf000044-resize_0/000414_2014-06-04_19-49-13_260595134347_rgbf000044-resize_0-target.png,250,4.329,3,7900,253,meters,jsons/v1_VE250_randls_26_rotated.json,572576,658543,29,Man
90,669386,DepthScenes,duration_manipulation_targetAtFixation,jsons/v1_VE250_randls_26_rotated.json,http://54.235.29.9/FacialAge/BNav_EC2/DepthDuration/v2_depth_duration_MTurk/v2_DepthDuration_HTML.html#438,438,1366,625,1366,768,9-20-2022,13-19-19,91,depth_duration_stimuli/002414_2014-06-28_20-24-58_260595134347_rgbf000067-resize_4/002414_2014-06-28_20-24-58_260595134347_rgbf000067-resize_4-target.png,250,4.363,4,2358,243,meters,jsons/v1_VE250_randls_26_rotated.json,572576,658543,29,Man
91,669386,DepthScenes,duration_manipulation_targetAtFixation,jsons/v1_VE250_randls_26_rotated.json,http://54.235.29.9/FacialAge/BNav_EC2/DepthDuration/v2_depth_duration_MTurk/v2_DepthDuration_HTML.html#438,438,1366,625,1366,768,9-20-2022,13-19-19,92,depth_duration_stimuli/000773_2014-06-08_22-24-54_260595134347_rgbf000093-resize_1/000773_2014-06-08_22-24-54_260595134347_rgbf000093-resize_1-target.png,250,4.973,4,2203,261,meters,jsons/v1_VE250_randls_26_rotated.json,572576,658543,29,Man
92,669386,DepthScenes,duration_manipulation_targetAtFixation,jsons/v1_VE250_randls_26_rotated.json,http://54.235.29.9/FacialAge/BNav_EC2/DepthDuration/v2_depth_duration_MTurk/v2_DepthDuration_HTML.html#438,438,1366,625,1366,768,9-20-2022,13-19-19,93,depth_duration_stimuli/003587_2014-05-23_16-48-02_094959634447_rgbf002384-resize_2/003587_2014-05-23_16-48-02_094959634447_rgbf002384-resize_2-target.png,250,1.357,4,2245,168,meters,jsons/v1_VE250_randls_26_rotated.json,572576,658543,29,Man
93,669386,DepthScenes,duration_manipulation_targetAtFixation,jsons/v1_VE250_randls_26_rotated.json,http://54.235.29.9/FacialAge/BNav_EC2/DepthDuration/v2_depth_duration_MTurk/v2_DepthDuration_HTML.html#438,438,1366,625,1366,768,9-20-2022,13-19-19,94,depth_duration_stimuli/001167_2014-06-17_15-38-07_260595134347_rgbf000108-resize_0/001167_2014-06-17_15-38-07_260595134347_rgbf000108-resize_0-target.png,250,1.8505,3,3307,248,meters,jsons/v1_VE250_randls_26_rotated.json,572576,658543,29,Man
94,669386,DepthScenes,duration_manipulation_targetAtFixation,jsons/v1_VE250_randls_26_rotated.json,http://54.235.29.9/FacialAge/BNav_EC2/DepthDuration/v2_depth_duration_MTurk/v2_DepthDuration_HTML.html#438,438,1366,625,1366,768,9-20-2022,13-19-19,95,depth_duration_stimuli/002949_2014-06-26_15-57-42_094959634447_rgbf000079-resize_1/002949_2014-06-26_15-57-42_094959634447_rgbf000079-resize_1-target.png,250,1.8915,4,2425,245,meters,jsons/v1_VE250_randls_26_rotated.json,572576,658543,29,Man
95,669386,DepthScenes,duration_manipulation_targetAtFixation,jsons/v1_VE250_randls_26_rotated.json,http://54.235.29.9/FacialAge/BNav_EC2/DepthDuration/v2_depth_duration_MTurk/v2_DepthDuration_HTML.html#438,438,1366,625,1366,768,9-20-2022,13-19-19,96,depth_duration_stimuli/000522_2014-06-08_13-35-06_260595134347_rgbf000244-resize_1/000522_2014-06-08_13-35-06_260595134347_rgbf000244-resize_1-target.png,250,2.3715,4,2258,253,meters,jsons/v1_VE250_randls_26_rotated.json,572576,658543,29,Man
96,669386,DepthScenes,duration_manipulation_targetAtFixation,jsons/v1_VE250_randls_26_rotated.json,http://54.235.29.9/FacialAge/BNav_EC2/DepthDuration/v2_depth_duration_MTurk/v2_DepthDuration_HTML.html#438,438,1366,625,1366,768,9-20-2022,13-19-19,97,depth_duration_stimuli/003495_2014-05-21_16-01-51_094959634447_rgbf000100-resize_3/003495_2014-05-21_16-01-51_094959634447_rgbf000100-resize_3-target.png,250,1.6255,3,4175,240,meters,jsons/v1_VE250_randls_26_rotated.json,572576,658543,29,Man
97,669386,DepthScenes,duration_manipulation_targetAtFixation,jsons/v1_VE250_randls_26_rotated.json,http://54.235.29.9/FacialAge/BNav_EC2/DepthDuration/v2_depth_duration_MTurk/v2_DepthDuration_HTML.html#438,438,1366,625,1366,768,9-20-2022,13-19-19,98,depth_duration_stimuli/001244_2014-06-17_16-47-45_260595134347_rgbf000030-resize_4/001244_2014-06-17_16-47-45_260595134347_rgbf000030-resize_4-target.png,250,2.0425,5,2538,240,meters,jsons/v1_VE250_randls_26_rotated.json,572576,658543,29,Man
98,669386,DepthScenes,duration_manipulation_targetAtFixation,jsons/v1_VE250_randls_26_rotated.json,http://54.235.29.9/FacialAge/BNav_EC2/DepthDuration/v2_depth_duration_MTurk/v2_DepthDuration_HTML.html#438,438,1366,625,1366,768,9-20-2022,13-19-19,99,depth_duration_stimuli/001222_2014-06-17_16-24-06_260595134347_rgbf000073-resize_0/001222_2014-06-17_16-24-06_260595134347_rgbf000073-resize-original.jpg,250,1.4385,4,4314,234,meters,jsons/v1_VE250_randls_26_rotated.json,572576,658543,29,Man
99,669386,DepthScenes,duration_manipulation_targetAtFixation,jsons/v1_VE250_randls_26_rotated.json,http://54.235.29.9/FacialAge/BNav_EC2/DepthDuration/v2_depth_duration_MTurk/v2_DepthDuration_HTML.html#438,438,1366,625,1366,768,9-20-2022,13-19-19,100,depth_duration_stimuli/000742_2014-06-08_18-48-09_260595134347_rgbf000164-resize_4/000742_2014-06-08_18-48-09_260595134347_rgbf000164-resize_4-target.png,250,4.632,4,2324,251,meters,jsons/v1_VE250_randls_26_rotated.json,572576,658543,29,Man
100,669386,DepthScenes,duration_manipulation_targetAtFixation,jsons/v1_VE250_randls_26_rotated.json,http://54.235.29.9/FacialAge/BNav_EC2/DepthDuration/v2_depth_duration_MTurk/v2_DepthDuration_HTML.html#438,438,1366,625,1366,768,9-20-2022,13-19-19,101,depth_duration_stimuli/001066_2014-06-08_22-03-20_260595134347_rgbf000066-resize_4/001066_2014-06-08_22-03-20_260595134347_rgbf000066-resize_4-target.png,250,4.2330000000000005,4,3752,254,meters,jsons/v1_VE250_randls_26_rotated.json,572576,658543,29,Man
101,669386,DepthScenes,duration_manipulation_targetAtFixation,jsons/v1_VE250_randls_26_rotated.json,http://54.235.29.9/FacialAge/BNav_EC2/DepthDuration/v2_depth_duration_MTurk/v2_DepthDuration_HTML.html#438,438,1366,625,1366,768,9-20-2022,13-19-19,102,depth_duration_stimuli/001617_2014-06-20_11-35-32_260595134347_rgbf000066-resize_1/001617_2014-06-20_11-35-32_260595134347_rgbf000066-resize_1-target.png,250,3.7910000000000004,3,2540,206,meters,jsons/v1_VE250_randls_26_rotated.json,572576,658543,29,Man
102,669386,DepthScenes,duration_manipulation_targetAtFixation,jsons/v1_VE250_randls_26_rotated.json,http://54.235.29.9/FacialAge/BNav_EC2/DepthDuration/v2_depth_duration_MTurk/v2_DepthDuration_HTML.html#438,438,1366,625,1366,768,9-20-2022,13-19-19,103,depth_duration_stimuli/001806_2014-06-26_20-50-20_260595134347_rgbf000091-resize_1/001806_2014-06-26_20-50-20_260595134347_rgbf000091-resize_1-target.png,250,2.7305,4,2202,251,meters,jsons/v1_VE250_randls_26_rotated.json,572576,658543,29,Man
103,669386,DepthScenes,duration_manipulation_targetAtFixation,jsons/v1_VE250_randls_26_rotated.json,http://54.235.29.9/FacialAge/BNav_EC2/DepthDuration/v2_depth_duration_MTurk/v2_DepthDuration_HTML.html#438,438,1366,625,1366,768,9-20-2022,13-19-19,104,depth_duration_stimuli/001516_2014-06-20_16-25-09_260595134347_rgbf000076-resize_2/001516_2014-06-20_16-25-09_260595134347_rgbf000076-resize_2-target.png,250,1.7445,4,2553,271,meters,jsons/v1_VE250_randls_26_rotated.json,572576,658543,29,Man
104,669386,DepthScenes,duration_manipulation_targetAtFixation,jsons/v1_VE250_randls_26_rotated.json,http://54.235.29.9/FacialAge/BNav_EC2/DepthDuration/v2_depth_duration_MTurk/v2_DepthDuration_HTML.html#438,438,1366,625,1366,768,9-20-2022,13-19-19,105,depth_duration_stimuli/002118_2014-06-25_20-32-08_260595134347_rgbf000078-resize_1/002118_2014-06-25_20-32-08_260595134347_rgbf000078-resize_1-target.png,250,2.6460000000000004,5,2977,242,meters,jsons/v1_VE250_randls_26_rotated.json,572576,658543,29,Man
105,669386,DepthScenes,duration_manipulation_targetAtFixation,jsons/v1_VE250_randls_26_rotated.json,http://54.235.29.9/FacialAge/BNav_EC2/DepthDuration/v2_depth_duration_MTurk/v2_DepthDuration_HTML.html#438,438,1366,625,1366,768,9-20-2022,13-19-19,106,depth_duration_stimuli/001132_2014-06-17_14-48-54_260595134347_rgbf000100-resize_2/001132_2014-06-17_14-48-54_260595134347_rgbf000100-resize_2-target.png,250,3.753,4,2790,249,meters,jsons/v1_VE250_randls_26_rotated.json,572576,658543,29,Man
106,669386,DepthScenes,duration_manipulation_targetAtFixation,jsons/v1_VE250_randls_26_rotated.json,http://54.235.29.9/FacialAge/BNav_EC2/DepthDuration/v2_depth_duration_MTurk/v2_DepthDuration_HTML.html#438,438,1366,625,1366,768,9-20-2022,13-19-19,107,depth_duration_stimuli/001133_2014-06-17_14-49-16_260595134347_rgbf000100-resize_0/001133_2014-06-17_14-49-16_260595134347_rgbf000100-resize_0-target.png,250,4.2115,3,2318,246,meters,jsons/v1_VE250_randls_26_rotated.json,572576,658543,29,Man
107,669386,DepthScenes,duration_manipulation_targetAtFixation,jsons/v1_VE250_randls_26_rotated.json,http://54.235.29.9/FacialAge/BNav_EC2/DepthDuration/v2_depth_duration_MTurk/v2_DepthDuration_HTML.html#438,438,1366,625,1366,768,9-20-2022,13-19-19,108,depth_duration_stimuli/001392_2014-06-19_16-07-59_260595134347_rgbf000046-resize_1/001392_2014-06-19_16-07-59_260595134347_rgbf000046-resize_1-target.png,250,4.135,5,2429,253,meters,jsons/v1_VE250_randls_26_rotated.json,572576,658543,29,Man
108,669386,DepthScenes,duration_manipulation_targetAtFixation,jsons/v1_VE250_randls_26_rotated.json,http://54.235.29.9/FacialAge/BNav_EC2/DepthDuration/v2_depth_duration_MTurk/v2_DepthDuration_HTML.html#438,438,1366,625,1366,768,9-20-2022,13-19-19,109,depth_duration_stimuli/001570_2014-06-20_17-21-09_260595134347_rgbf000135-resize_4/001570_2014-06-20_17-21-09_260595134347_rgbf000135-resize_4-target.png,250,4.467,5,6994,256,meters,jsons/v1_VE250_randls_26_rotated.json,572576,658543,29,Man
109,669386,DepthScenes,duration_manipulation_targetAtFixation,jsons/v1_VE250_randls_26_rotated.json,http://54.235.29.9/FacialAge/BNav_EC2/DepthDuration/v2_depth_duration_MTurk/v2_DepthDuration_HTML.html#438,438,1366,625,1366,768,9-20-2022,13-19-19,110,depth_duration_stimuli/003010_2014-06-15_12-54-35_094959634447_rgbf000112-resize_0/003010_2014-06-15_12-54-35_094959634447_rgbf000112-resize_0-target.png,250,3.1185,8,3243,249,meters,jsons/v1_VE250_randls_26_rotated.json,572576,658543,29,Man
110,669386,DepthScenes,duration_manipulation_targetAtFixation,jsons/v1_VE250_randls_26_rotated.json,http://54.235.29.9/FacialAge/BNav_EC2/DepthDuration/v2_depth_duration_MTurk/v2_DepthDuration_HTML.html#438,438,1366,625,1366,768,9-20-2022,13-19-19,111,depth_duration_stimuli/001810_2014-06-26_20-51-35_260595134347_rgbf000040-resize_3/001810_2014-06-26_20-51-35_260595134347_rgbf000040-resize_3-target.png,250,2.2525,6,3536,248,meters,jsons/v1_VE250_randls_26_rotated.json,572576,658543,29,Man
111,669386,DepthScenes,duration_manipulation_targetAtFixation,jsons/v1_VE250_randls_26_rotated.json,http://54.235.29.9/FacialAge/BNav_EC2/DepthDuration/v2_depth_duration_MTurk/v2_DepthDuration_HTML.html#438,438,1366,625,1366,768,9-20-2022,13-19-19,112,depth_duration_stimuli/001235_2014-06-17_16-37-36_260595134347_rgbf000084-resize_4/001235_2014-06-17_16-37-36_260595134347_rgbf000084-resize_4-target.png,250,3.6605,4,2648,227,meters,jsons/v1_VE250_randls_26_rotated.json,572576,658543,29,Man
112,669386,DepthScenes,duration_manipulation_targetAtFixation,jsons/v1_VE250_randls_26_rotated.json,http://54.235.29.9/FacialAge/BNav_EC2/DepthDuration/v2_depth_duration_MTurk/v2_DepthDuration_HTML.html#438,438,1366,625,1366,768,9-20-2022,13-19-19,113,depth_duration_stimuli/000788_2014-06-08_22-34-36_260595134347_rgbf000131-resize_1/000788_2014-06-08_22-34-36_260595134347_rgbf000131-resize_1-target.png,250,3.359,5,2519,240,meters,jsons/v1_VE250_randls_26_rotated.json,572576,658543,29,Man
113,669386,DepthScenes,duration_manipulation_targetAtFixation,jsons/v1_VE250_randls_26_rotated.json,http://54.235.29.9/FacialAge/BNav_EC2/DepthDuration/v2_depth_duration_MTurk/v2_DepthDuration_HTML.html#438,438,1366,625,1366,768,9-20-2022,13-19-19,114,depth_duration_stimuli/000409_2014-06-04_19-23-33_260595134347_rgbf000067-resize_0/000409_2014-06-04_19-23-33_260595134347_rgbf000067-resize_0-target.png,250,3.7335,4,2520,230,meters,jsons/v1_VE250_randls_26_rotated.json,572576,658543,29,Man
114,669386,DepthScenes,duration_manipulation_targetAtFixation,jsons/v1_VE250_randls_26_rotated.json,http://54.235.29.9/FacialAge/BNav_EC2/DepthDuration/v2_depth_duration_MTurk/v2_DepthDuration_HTML.html#438,438,1366,625,1366,768,9-20-2022,13-19-19,115,depth_duration_stimuli/002663_2014-06-13_15-50-26_094959634447_rgbf000075-resize_1/002663_2014-06-13_15-50-26_094959634447_rgbf000075-resize_1-target.png,250,4.7495,4,3975,253,meters,jsons/v1_VE250_randls_26_rotated.json,572576,658543,29,Man
115,669386,DepthScenes,duration_manipulation_targetAtFixation,jsons/v1_VE250_randls_26_rotated.json,http://54.235.29.9/FacialAge/BNav_EC2/DepthDuration/v2_depth_duration_MTurk/v2_DepthDuration_HTML.html#438,438,1366,625,1366,768,9-20-2022,13-19-19,116,depth_duration_stimuli/003228_2014-05-14_13-42-35_094959634447_rgbf000101-resize_1/003228_2014-05-14_13-42-35_094959634447_rgbf000101-resize_1-target.png,250,1.9680000000000002,4,2662,255,meters,jsons/v1_VE250_randls_26_rotated.json,572576,658543,29,Man
116,669386,DepthScenes,duration_manipulation_targetAtFixation,jsons/v1_VE250_randls_26_rotated.json,http://54.235.29.9/FacialAge/BNav_EC2/DepthDuration/v2_depth_duration_MTurk/v2_DepthDuration_HTML.html#438,438,1366,625,1366,768,9-20-2022,13-19-19,117,depth_duration_stimuli/002600_2014-06-24_14-27-04_094959634447_rgbf000074-resize_2/002600_2014-06-24_14-27-04_094959634447_rgbf000074-resize_2-target.png,250,2.7575,4,2481,264,meters,jsons/v1_VE250_randls_26_rotated.json,572576,658543,29,Man
117,669386,DepthScenes,duration_manipulation_targetAtFixation,jsons/v1_VE250_randls_26_rotated.json,http://54.235.29.9/FacialAge/BNav_EC2/DepthDuration/v2_depth_duration_MTurk/v2_DepthDuration_HTML.html#438,438,1366,625,1366,768,9-20-2022,13-19-19,118,depth_duration_stimuli/000103_2014-05-14_22-01-17_260595134347_rgbf000152-resize_5/000103_2014-05-14_22-01-17_260595134347_rgbf000152-resize_5-target.png,250,1.993,4,2647,242,meters,jsons/v1_VE250_randls_26_rotated.json,572576,658543,29,Man
118,669386,DepthScenes,duration_manipulation_targetAtFixation,jsons/v1_VE250_randls_26_rotated.json,http://54.235.29.9/FacialAge/BNav_EC2/DepthDuration/v2_depth_duration_MTurk/v2_DepthDuration_HTML.html#438,438,1366,625,1366,768,9-20-2022,13-19-19,119,depth_duration_stimuli/001555_2014-06-20_17-12-10_260595134347_rgbf000065-resize_4/001555_2014-06-20_17-12-10_260595134347_rgbf000065-resize_4-target.png,250,1.633,4,2839,260,meters,jsons/v1_VE250_randls_26_rotated.json,572576,658543,29,Man
119,669386,DepthScenes,duration_manipulation_targetAtFixation,jsons/v1_VE250_randls_26_rotated.json,http://54.235.29.9/FacialAge/BNav_EC2/DepthDuration/v2_depth_duration_MTurk/v2_DepthDuration_HTML.html#438,438,1366,625,1366,768,9-20-2022,13-19-19,120,depth_duration_stimuli/000787_2014-06-08_22-33-53_260595134347_rgbf000175-resize_1/000787_2014-06-08_22-33-53_260595134347_rgbf000175-resize-original.jpg,250,4.784,4,2383,254,meters,jsons/v1_VE250_randls_26_rotated.json,572576,658543,29,Man
120,669386,DepthScenes,duration_manipulation_targetAtFixation,jsons/v1_VE250_randls_26_rotated.json,http://54.235.29.9/FacialAge/BNav_EC2/DepthDuration/v2_depth_duration_MTurk/v2_DepthDuration_HTML.html#438,438,1366,625,1366,768,9-20-2022,13-19-19,121,depth_duration_stimuli/000943_2014-06-09_19-31-07_260595134347_rgbf000128-resize_1/000943_2014-06-09_19-31-07_260595134347_rgbf000128-resize_1-target.png,250,1.9765,4,3719,218,meters,jsons/v1_VE250_randls_26_rotated.json,572576,658543,29,Man
121,669386,DepthScenes,duration_manipulation_targetAtFixation,jsons/v1_VE250_randls_26_rotated.json,http://54.235.29.9/FacialAge/BNav_EC2/DepthDuration/v2_depth_duration_MTurk/v2_DepthDuration_HTML.html#438,438,1366,625,1366,768,9-20-2022,13-19-19,122,depth_duration_stimuli/003070_2014-06-15_14-58-27_094959634447_rgbf000150-resize_3/003070_2014-06-15_14-58-27_094959634447_rgbf000150-resize_3-target.png,250,2.9415,4,2433,233,meters,jsons/v1_VE250_randls_26_rotated.json,572576,658543,29,Man
122,669386,DepthScenes,duration_manipulation_targetAtFixation,jsons/v1_VE250_randls_26_rotated.json,http://54.235.29.9/FacialAge/BNav_EC2/DepthDuration/v2_depth_duration_MTurk/v2_DepthDuration_HTML.html#438,438,1366,625,1366,768,9-20-2022,13-19-19,123,depth_duration_stimuli/002750_2014-06-22_19-08-03_094959634447_rgbf000094-resize_4/002750_2014-06-22_19-08-03_094959634447_rgbf000094-resize_4-target.png,250,2.354,4,2328,251,meters,jsons/v1_VE250_randls_26_rotated.json,572576,658543,29,Man
123,669386,DepthScenes,duration_manipulation_targetAtFixation,jsons/v1_VE250_randls_26_rotated.json,http://54.235.29.9/FacialAge/BNav_EC2/DepthDuration/v2_depth_duration_MTurk/v2_DepthDuration_HTML.html#438,438,1366,625,1366,768,9-20-2022,13-19-19,124,depth_duration_stimuli/002549_2014-06-24_13-41-39_094959634447_rgbf000022-resize_3/002549_2014-06-24_13-41-39_094959634447_rgbf000022-resize_3-target.png,250,1.476,4,2290,223,meters,jsons/v1_VE250_randls_26_rotated.json,572576,658543,29,Man
124,669386,DepthScenes,duration_manipulation_targetAtFixation,jsons/v1_VE250_randls_26_rotated.json,http://54.235.29.9/FacialAge/BNav_EC2/DepthDuration/v2_depth_duration_MTurk/v2_DepthDuration_HTML.html#438,438,1366,625,1366,768,9-20-2022,13-19-19,125,depth_duration_stimuli/002344_2014-06-28_20-06-29_260595134347_rgbf000030-resize_1/002344_2014-06-28_20-06-29_260595134347_rgbf000030-resize_1-target.png,250,1.5795,4,2427,252,meters,jsons/v1_VE250_randls_26_rotated.json,572576,658543,29,Man
125,669386,DepthScenes,duration_manipulation_targetAtFixation,jsons/v1_VE250_randls_26_rotated.json,http://54.235.29.9/FacialAge/BNav_EC2/DepthDuration/v2_depth_duration_MTurk/v2_DepthDuration_HTML.html#438,438,1366,625,1366,768,9-20-2022,13-19-19,126,depth_duration_stimuli/002725_2014-06-22_11-47-51_094959634447_rgbf000070-resize_1/002725_2014-06-22_11-47-51_094959634447_rgbf000070-resize_1-target.png,250,2.195,3,2655,283,meters,jsons/v1_VE250_randls_26_rotated.json,572576,658543,29,Man
126,669386,DepthScenes,duration_manipulation_targetAtFixation,jsons/v1_VE250_randls_26_rotated.json,http://54.235.29.9/FacialAge/BNav_EC2/DepthDuration/v2_depth_duration_MTurk/v2_DepthDuration_HTML.html#438,438,1366,625,1366,768,9-20-2022,13-19-19,127,depth_duration_stimuli/002805_2014-06-22_19-54-03_094959634447_rgbf000079-resize_1/002805_2014-06-22_19-54-03_094959634447_rgbf000079-resize_1-target.png,250,3.1439999999999997,5,2301,245,meters,jsons/v1_VE250_randls_26_rotated.json,572576,658543,29,Man
127,669386,DepthScenes,duration_manipulation_targetAtFixation,jsons/v1_VE250_randls_26_rotated.json,http://54.235.29.9/FacialAge/BNav_EC2/DepthDuration/v2_depth_duration_MTurk/v2_DepthDuration_HTML.html#438,438,1366,625,1366,768,9-20-2022,13-19-19,128,depth_duration_stimuli/000906_2014-06-08_13-35-43_260595134347_rgbf000155-resize_1/000906_2014-06-08_13-35-43_260595134347_rgbf000155-resize_1-target.png,250,2.8489999999999998,4,2416,265,meters,jsons/v1_VE250_randls_26_rotated.json,572576,658543,29,Man
128,669386,DepthScenes,duration_manipulation_targetAtFixation,jsons/v1_VE250_randls_26_rotated.json,http://54.235.29.9/FacialAge/BNav_EC2/DepthDuration/v2_depth_duration_MTurk/v2_DepthDuration_HTML.html#438,438,1366,625,1366,768,9-20-2022,13-19-19,129,depth_duration_stimuli/000709_2014-06-08_13-51-55_260595134347_rgbf000068-resize_3/000709_2014-06-08_13-51-55_260595134347_rgbf000068-resize_3-target.png,250,1.8030000000000002,3,2419,250,meters,jsons/v1_VE250_randls_26_rotated.json,572576,658543,29,Man
129,669386,DepthScenes,duration_manipulation_targetAtFixation,jsons/v1_VE250_randls_26_rotated.json,http://54.235.29.9/FacialAge/BNav_EC2/DepthDuration/v2_depth_duration_MTurk/v2_DepthDuration_HTML.html#438,438,1366,625,1366,768,9-20-2022,13-19-19,130,depth_duration_stimuli/002057_2014-06-24_21-00-13_260595134347_rgbf000120-resize_1/002057_2014-06-24_21-00-13_260595134347_rgbf000120-resize_1-target.png,250,2.967,4,2224,258,meters,jsons/v1_VE250_randls_26_rotated.json,572576,658543,29,Man
130,669386,DepthScenes,duration_manipulation_targetAtFixation,jsons/v1_VE250_randls_26_rotated.json,http://54.235.29.9/FacialAge/BNav_EC2/DepthDuration/v2_depth_duration_MTurk/v2_DepthDuration_HTML.html#438,438,1366,625,1366,768,9-20-2022,13-19-19,131,depth_duration_stimuli/000749_2014-06-08_21-55-06_260595134347_rgbf000070-resize_2/000749_2014-06-08_21-55-06_260595134347_rgbf000070-resize_2-target.png,250,2.331,3,2244,263,meters,jsons/v1_VE250_randls_26_rotated.json,572576,658543,29,Man
131,669386,DepthScenes,duration_manipulation_targetAtFixation,jsons/v1_VE250_randls_26_rotated.json,http://54.235.29.9/FacialAge/BNav_EC2/DepthDuration/v2_depth_duration_MTurk/v2_DepthDuration_HTML.html#438,438,1366,625,1366,768,9-20-2022,13-19-19,132,depth_duration_stimuli/002788_2014-06-22_19-36-03_094959634447_rgbf000088-resize_2/002788_2014-06-22_19-36-03_094959634447_rgbf000088-resize_2-target.png,250,1.6465,3,2354,262,meters,jsons/v1_VE250_randls_26_rotated.json,572576,658543,29,Man
132,669386,DepthScenes,duration_manipulation_targetAtFixation,jsons/v1_VE250_randls_26_rotated.json,http://54.235.29.9/FacialAge/BNav_EC2/DepthDuration/v2_depth_duration_MTurk/v2_DepthDuration_HTML.html#438,438,1366,625,1366,768,9-20-2022,13-19-19,133,depth_duration_stimuli/000780_2014-06-08_22-28-29_260595134347_rgbf000126-resize_1/000780_2014-06-08_22-28-29_260595134347_rgbf000126-resize_1-target.png,250,3.3825,3,2953,143,meters,jsons/v1_VE250_randls_26_rotated.json,572576,658543,29,Man
133,669386,DepthScenes,duration_manipulation_targetAtFixation,jsons/v1_VE250_randls_26_rotated.json,http://54.235.29.9/FacialAge/BNav_EC2/DepthDuration/v2_depth_duration_MTurk/v2_DepthDuration_HTML.html#438,438,1366,625,1366,768,9-20-2022,13-19-19,134,depth_duration_stimuli/002445_2014-06-28_20-32-16_260595134347_rgbf000029-resize_4/002445_2014-06-28_20-32-16_260595134347_rgbf000029-resize_4-target.png,250,2.5315,3,2308,239,meters,jsons/v1_VE250_randls_26_rotated.json,572576,658543,29,Man
134,669386,DepthScenes,duration_manipulation_targetAtFixation,jsons/v1_VE250_randls_26_rotated.json,http://54.235.29.9/FacialAge/BNav_EC2/DepthDuration/v2_depth_duration_MTurk/v2_DepthDuration_HTML.html#438,438,1366,625,1366,768,9-20-2022,13-19-19,135,depth_duration_stimuli/000375_2014-06-08_11-17-29_260595134347_rgbf000133-resize_2/000375_2014-06-08_11-17-29_260595134347_rgbf000133-resize-original.jpg,250,4.718,3,5475,251,meters,jsons/v1_VE250_randls_26_rotated.json,572576,658543,29,Man
135,669386,DepthScenes,duration_manipulation_targetAtFixation,jsons/v1_VE250_randls_26_rotated.json,http://54.235.29.9/FacialAge/BNav_EC2/DepthDuration/v2_depth_duration_MTurk/v2_DepthDuration_HTML.html#438,438,1366,625,1366,768,9-20-2022,13-19-19,136,depth_duration_stimuli/000556_2014-06-09_22-42-56_260595134347_rgbf000214-resize_1/000556_2014-06-09_22-42-56_260595134347_rgbf000214-resize_1-target.png,250,4.8415,4,3364,273,meters,jsons/v1_VE250_randls_26_rotated.json,572576,658543,29,Man
136,669386,DepthScenes,duration_manipulation_targetAtFixation,jsons/v1_VE250_randls_26_rotated.json,http://54.235.29.9/FacialAge/BNav_EC2/DepthDuration/v2_depth_duration_MTurk/v2_DepthDuration_HTML.html#438,438,1366,625,1366,768,9-20-2022,13-19-19,137,depth_duration_stimuli/001158_2014-06-17_15-32-16_260595134347_rgbf000138-resize_2/001158_2014-06-17_15-32-16_260595134347_rgbf000138-resize_2-target.png,250,4.5315,4,3961,235,meters,jsons/v1_VE250_randls_26_rotated.json,572576,658543,29,Man
137,669386,DepthScenes,duration_manipulation_targetAtFixation,jsons/v1_VE250_randls_26_rotated.json,http://54.235.29.9/FacialAge/BNav_EC2/DepthDuration/v2_depth_duration_MTurk/v2_DepthDuration_HTML.html#438,438,1366,625,1366,768,9-20-2022,13-19-19,138,depth_duration_stimuli/000665_2014-06-09_20-42-35_260595134347_rgbf000110-resize_1/000665_2014-06-09_20-42-35_260595134347_rgbf000110-resize_1-target.png,250,3.057,4,2361,252,meters,jsons/v1_VE250_randls_26_rotated.json,572576,658543,29,Man
138,669386,DepthScenes,duration_manipulation_targetAtFixation,jsons/v1_VE250_randls_26_rotated.json,http://54.235.29.9/FacialAge/BNav_EC2/DepthDuration/v2_depth_duration_MTurk/v2_DepthDuration_HTML.html#438,438,1366,625,1366,768,9-20-2022,13-19-19,139,depth_duration_stimuli/001150_2014-06-17_15-27-34_260595134347_rgbf000108-resize_2/001150_2014-06-17_15-27-34_260595134347_rgbf000108-resize_2-target.png,250,4.0325,3,2460,240,meters,jsons/v1_VE250_randls_26_rotated.json,572576,658543,29,Man
139,669386,DepthScenes,duration_manipulation_targetAtFixation,jsons/v1_VE250_randls_26_rotated.json,http://54.235.29.9/FacialAge/BNav_EC2/DepthDuration/v2_depth_duration_MTurk/v2_DepthDuration_HTML.html#438,438,1366,625,1366,768,9-20-2022,13-19-19,140,depth_duration_stimuli/001100_2014-06-15_17-46-26_260595134347_rgbf000225-resize_2/001100_2014-06-15_17-46-26_260595134347_rgbf000225-resize_2-target.png,250,2.24,3,2282,250,meters,jsons/v1_VE250_randls_26_rotated.json,572576,658543,29,Man
140,669386,DepthScenes,duration_manipulation_targetAtFixation,jsons/v1_VE250_randls_26_rotated.json,http://54.235.29.9/FacialAge/BNav_EC2/DepthDuration/v2_depth_duration_MTurk/v2_DepthDuration_HTML.html#438,438,1366,625,1366,768,9-20-2022,13-19-19,141,depth_duration_stimuli/002784_2014-06-22_19-26-30_094959634447_rgbf000083-resize_3/002784_2014-06-22_19-26-30_094959634447_rgbf000083-resize_3-target.png,250,1.8046666666667,5,3315,251,meters,jsons/v1_VE250_randls_26_rotated.json,572576,658543,29,Man
141,669386,DepthScenes,duration_manipulation_targetAtFixation,jsons/v1_VE250_randls_26_rotated.json,http://54.235.29.9/FacialAge/BNav_EC2/DepthDuration/v2_depth_duration_MTurk/v2_DepthDuration_HTML.html#438,438,1366,625,1366,768,9-20-2022,13-19-19,142,depth_duration_stimuli/002678_2014-06-13_16-15-32_094959634447_rgbf000151-resize_6/002678_2014-06-13_16-15-32_094959634447_rgbf000151-resize_6-target.png,250,2.1830000000000003,3,3075,236,meters,jsons/v1_VE250_randls_26_rotated.json,572576,658543,29,Man
142,669386,DepthScenes,duration_manipulation_targetAtFixation,jsons/v1_VE250_randls_26_rotated.json,http://54.235.29.9/FacialAge/BNav_EC2/DepthDuration/v2_depth_duration_MTurk/v2_DepthDuration_HTML.html#438,438,1366,625,1366,768,9-20-2022,13-19-19,143,depth_duration_stimuli/000368_2014-06-09_15-53-01_260595134347_rgbf000155-resize_2/000368_2014-06-09_15-53-01_260595134347_rgbf000155-resize_2-target.png,250,2.4859999999999998,4,2352,260,meters,jsons/v1_VE250_randls_26_rotated.json,572576,658543,29,Man
143,669386,DepthScenes,duration_manipulation_targetAtFixation,jsons/v1_VE250_randls_26_rotated.json,http://54.235.29.9/FacialAge/BNav_EC2/DepthDuration/v2_depth_duration_MTurk/v2_DepthDuration_HTML.html#438,438,1366,625,1366,768,9-20-2022,13-19-19,144,depth_duration_stimuli/002758_2014-06-22_19-11-20_094959634447_rgbf000128-resize_1/002758_2014-06-22_19-11-20_094959634447_rgbf000128-resize_1-target.png,250,2.555,5,2408,248,meters,jsons/v1_VE250_randls_26_rotated.json,572576,658543,29,Man
144,669386,DepthScenes,duration_manipulation_targetAtFixation,jsons/v1_VE250_randls_26_rotated.json,http://54.235.29.9/FacialAge/BNav_EC2/DepthDuration/v2_depth_duration_MTurk/v2_DepthDuration_HTML.html#438,438,1366,625,1366,768,9-20-2022,13-19-19,145,depth_duration_stimuli/002630_2014-06-24_14-47-50_094959634447_rgbf000055-resize_1/002630_2014-06-24_14-47-50_094959634447_rgbf000055-resize_1-target.png,250,3.0095,6,2658,251,meters,jsons/v1_VE250_randls_26_rotated.json,572576,658543,29,Man
145,669386,DepthScenes,duration_manipulation_targetAtFixation,jsons/v1_VE250_randls_26_rotated.json,http://54.235.29.9/FacialAge/BNav_EC2/DepthDuration/v2_depth_duration_MTurk/v2_DepthDuration_HTML.html#438,438,1366,625,1366,768,9-20-2022,13-19-19,146,depth_duration_stimuli/000457_2014-06-08_16-52-43_260595134347_rgbf000199-resize_1/000457_2014-06-08_16-52-43_260595134347_rgbf000199-resize_1-target.png,250,3.6489999999999996,4,2522,488,meters,jsons/v1_VE250_randls_26_rotated.json,572576,658543,29,Man
146,669386,DepthScenes,duration_manipulation_targetAtFixation,jsons/v1_VE250_randls_26_rotated.json,http://54.235.29.9/FacialAge/BNav_EC2/DepthDuration/v2_depth_duration_MTurk/v2_DepthDuration_HTML.html#438,438,1366,625,1366,768,9-20-2022,13-19-19,147,depth_duration_stimuli/000929_2014-06-09_16-33-19_260595134347_rgbf000139-resize_0/000929_2014-06-09_16-33-19_260595134347_rgbf000139-resize_0-target.png,250,2.8680000000000003,4,2325,252,meters,jsons/v1_VE250_randls_26_rotated.json,572576,658543,29,Man
147,669386,DepthScenes,duration_manipulation_targetAtFixation,jsons/v1_VE250_randls_26_rotated.json,http://54.235.29.9/FacialAge/BNav_EC2/DepthDuration/v2_depth_duration_MTurk/v2_DepthDuration_HTML.html#438,438,1366,625,1366,768,9-20-2022,13-19-19,148,depth_duration_stimuli/002953_2014-06-08_17-32-18_094959634447_rgbf000059-resize_5/002953_2014-06-08_17-32-18_094959634447_rgbf000059-resize_5-target.png,250,1.551,3,2317,285,meters,jsons/v1_VE250_randls_26_rotated.json,572576,658543,29,Man
148,669386,DepthScenes,duration_manipulation_targetAtFixation,jsons/v1_VE250_randls_26_rotated.json,http://54.235.29.9/FacialAge/BNav_EC2/DepthDuration/v2_depth_duration_MTurk/v2_DepthDuration_HTML.html#438,438,1366,625,1366,768,9-20-2022,13-19-19,149,depth_duration_stimuli/000878_2014-06-08_22-52-45_260595134347_rgbf000045-resize_2/000878_2014-06-08_22-52-45_260595134347_rgbf000045-resize_2-target.png,250,2.092,3,4309,252,meters,jsons/v1_VE250_randls_26_rotated.json,572576,658543,29,Man
149,669386,DepthScenes,duration_manipulation_targetAtFixation,jsons/v1_VE250_randls_26_rotated.json,http://54.235.29.9/FacialAge/BNav_EC2/DepthDuration/v2_depth_duration_MTurk/v2_DepthDuration_HTML.html#438,438,1366,625,1366,768,9-20-2022,13-19-19,150,depth_duration_stimuli/000191_2014-05-12_17-07-38_260595134347_rgbf000199-resize_0/000191_2014-05-12_17-07-38_260595134347_rgbf000199-resize_0-target.png,250,3.7995,4,2258,244,meters,jsons/v1_VE250_randls_26_rotated.json,572576,658543,29,Man
150,669386,DepthScenes,duration_manipulation_targetAtFixation,jsons/v1_VE250_randls_26_rotated.json,http://54.235.29.9/FacialAge/BNav_EC2/DepthDuration/v2_depth_duration_MTurk/v2_DepthDuration_HTML.html#438,438,1366,625,1366,768,9-20-2022,13-19-19,151,depth_duration_stimuli/000493_2014-06-09_21-01-18_260595134347_rgbf000196-resize_3/000493_2014-06-09_21-01-18_260595134347_rgbf000196-resize_3-target.png,250,3.44,4,2532,240,meters,jsons/v1_VE250_randls_26_rotated.json,572576,658543,29,Man
151,669386,DepthScenes,duration_manipulation_targetAtFixation,jsons/v1_VE250_randls_26_rotated.json,http://54.235.29.9/FacialAge/BNav_EC2/DepthDuration/v2_depth_duration_MTurk/v2_DepthDuration_HTML.html#438,438,1366,625,1366,768,9-20-2022,13-19-19,152,depth_duration_stimuli/000569_2014-06-09_22-51-47_260595134347_rgbf000141-resize_3/000569_2014-06-09_22-51-47_260595134347_rgbf000141-resize-original.jpg,250,4.512,4,5819,239,meters,jsons/v1_VE250_randls_26_rotated.json,572576,658543,29,Man
152,669386,DepthScenes,duration_manipulation_targetAtFixation,jsons/v1_VE250_randls_26_rotated.json,http://54.235.29.9/FacialAge/BNav_EC2/DepthDuration/v2_depth_duration_MTurk/v2_DepthDuration_HTML.html#438,438,1366,625,1366,768,9-20-2022,13-19-19,153,depth_duration_stimuli/002444_2014-06-28_20-32-08_260595134347_rgbf000027-resize_0/002444_2014-06-28_20-32-08_260595134347_rgbf000027-resize_0-target.png,250,4.388999999999999,5,2233,241,meters,jsons/v1_VE250_randls_26_rotated.json,572576,658543,29,Man
153,669386,DepthScenes,duration_manipulation_targetAtFixation,jsons/v1_VE250_randls_26_rotated.json,http://54.235.29.9/FacialAge/BNav_EC2/DepthDuration/v2_depth_duration_MTurk/v2_DepthDuration_HTML.html#438,438,1366,625,1366,768,9-20-2022,13-19-19,154,depth_duration_stimuli/000436_2014-06-09_22-25-11_260595134347_rgbf000137-resize_1/000436_2014-06-09_22-25-11_260595134347_rgbf000137-resize_1-target.png,250,4.0705,4,2528,279,meters,jsons/v1_VE250_randls_26_rotated.json,572576,658543,29,Man
154,669386,DepthScenes,duration_manipulation_targetAtFixation,jsons/v1_VE250_randls_26_rotated.json,http://54.235.29.9/FacialAge/BNav_EC2/DepthDuration/v2_depth_duration_MTurk/v2_DepthDuration_HTML.html#438,438,1366,625,1366,768,9-20-2022,13-19-19,155,depth_duration_stimuli/000927_2014-06-09_16-32-30_260595134347_rgbf000123-resize_3/000927_2014-06-09_16-32-30_260595134347_rgbf000123-resize_3-target.png,250,2.6785,4,2182,241,meters,jsons/v1_VE250_randls_26_rotated.json,572576,658543,29,Man
155,669386,DepthScenes,duration_manipulation_targetAtFixation,jsons/v1_VE250_randls_26_rotated.json,http://54.235.29.9/FacialAge/BNav_EC2/DepthDuration/v2_depth_duration_MTurk/v2_DepthDuration_HTML.html#438,438,1366,625,1366,768,9-20-2022,13-19-19,156,depth_duration_stimuli/001110_2014-06-15_17-25-28_260595134347_rgbf000150-resize_1/001110_2014-06-15_17-25-28_260595134347_rgbf000150-resize_1-target.png,250,1.7115,3,2499,252,meters,jsons/v1_VE250_randls_26_rotated.json,572576,658543,29,Man
156,669386,DepthScenes,duration_manipulation_targetAtFixation,jsons/v1_VE250_randls_26_rotated.json,http://54.235.29.9/FacialAge/BNav_EC2/DepthDuration/v2_depth_duration_MTurk/v2_DepthDuration_HTML.html#438,438,1366,625,1366,768,9-20-2022,13-19-19,157,depth_duration_stimuli/003048_2014-06-15_13-49-43_094959634447_rgbf000150-resize_1/003048_2014-06-15_13-49-43_094959634447_rgbf000150-resize_1-target.png,250,4.0035,4,3145,250,meters,jsons/v1_VE250_randls_26_rotated.json,572576,658543,29,Man
157,669386,DepthScenes,duration_manipulation_targetAtFixation,jsons/v1_VE250_randls_26_rotated.json,http://54.235.29.9/FacialAge/BNav_EC2/DepthDuration/v2_depth_duration_MTurk/v2_DepthDuration_HTML.html#438,438,1366,625,1366,768,9-20-2022,13-19-19,158,depth_duration_stimuli/002043_2014-06-24_20-29-38_260595134347_rgbf000039-resize_4/002043_2014-06-24_20-29-38_260595134347_rgbf000039-resize_4-target.png,250,2.8435,3,2306,251,meters,jsons/v1_VE250_randls_26_rotated.json,572576,658543,29,Man
158,669386,DepthScenes,duration_manipulation_targetAtFixation,jsons/v1_VE250_randls_26_rotated.json,http://54.235.29.9/FacialAge/BNav_EC2/DepthDuration/v2_depth_duration_MTurk/v2_DepthDuration_HTML.html#438,438,1366,625,1366,768,9-20-2022,13-19-19,159,depth_duration_stimuli/000866_2014-06-09_20-45-42_260595134347_rgbf000139-resize_1/000866_2014-06-09_20-45-42_260595134347_rgbf000139-resize_1-target.png,250,3.2155,6,2575,245,meters,jsons/v1_VE250_randls_26_rotated.json,572576,658543,29,Man
159,669386,DepthScenes,duration_manipulation_targetAtFixation,jsons/v1_VE250_randls_26_rotated.json,http://54.235.29.9/FacialAge/BNav_EC2/DepthDuration/v2_depth_duration_MTurk/v2_DepthDuration_HTML.html#438,438,1366,625,1366,768,9-20-2022,13-19-19,160,depth_duration_stimuli/002989_2014-06-15_12-25-03_094959634447_rgbf000150-resize_3/002989_2014-06-15_12-25-03_094959634447_rgbf000150-resize_3-target.png,250,4.1975,3,2231,246,meters,jsons/v1_VE250_randls_26_rotated.json,572576,658543,29,Man
160,669386,DepthScenes,duration_manipulation_targetAtFixation,jsons/v1_VE250_randls_26_rotated.json,http://54.235.29.9/FacialAge/BNav_EC2/DepthDuration/v2_depth_duration_MTurk/v2_DepthDuration_HTML.html#438,438,1366,625,1366,768,9-20-2022,13-19-19,161,depth_duration_stimuli/000691_2014-06-08_13-08-50_260595134347_rgbf000132-resize_3/000691_2014-06-08_13-08-50_260595134347_rgbf000132-resize_3-target.png,250,4.1530000000000005,4,2411,248,meters,jsons/v1_VE250_randls_26_rotated.json,572576,658543,29,Man
161,669386,DepthScenes,duration_manipulation_targetAtFixation,jsons/v1_VE250_randls_26_rotated.json,http://54.235.29.9/FacialAge/BNav_EC2/DepthDuration/v2_depth_duration_MTurk/v2_DepthDuration_HTML.html#438,438,1366,625,1366,768,9-20-2022,13-19-19,162,depth_duration_stimuli/002213_2014-06-28_18-37-58_260595134347_rgbf000055-resize_1/002213_2014-06-28_18-37-58_260595134347_rgbf000055-resize_1-target.png,250,3.62,2,2282,243,meters,jsons/v1_VE250_randls_26_rotated.json,572576,658543,29,Man
162,669386,DepthScenes,duration_manipulation_targetAtFixation,jsons/v1_VE250_randls_26_rotated.json,http://54.235.29.9/FacialAge/BNav_EC2/DepthDuration/v2_depth_duration_MTurk/v2_DepthDuration_HTML.html#438,438,1366,625,1366,768,9-20-2022,13-19-19,163,depth_duration_stimuli/001214_2014-06-17_16-13-55_260595134347_rgbf000111-resize_0/001214_2014-06-17_16-13-55_260595134347_rgbf000111-resize_0-target.png,250,2.6505,4,2453,260,meters,jsons/v1_VE250_randls_26_rotated.json,572576,658543,29,Man
163,669386,DepthScenes,duration_manipulation_targetAtFixation,jsons/v1_VE250_randls_26_rotated.json,http://54.235.29.9/FacialAge/BNav_EC2/DepthDuration/v2_depth_duration_MTurk/v2_DepthDuration_HTML.html#438,438,1366,625,1366,768,9-20-2022,13-19-19,164,depth_duration_stimuli/000810_2014-06-08_17-20-01_260595134347_rgbf000105-resize_0/000810_2014-06-08_17-20-01_260595134347_rgbf000105-resize_0-target.png,250,1.4865,3,2320,256,meters,jsons/v1_VE250_randls_26_rotated.json,572576,658543,29,Man
