,subjID,experimentName,versionName,sequenceName,url,selected_row,windowWidth,windowHeight,screenWidth,screenHeight,startDate,startTime,trial,stimulus,duration,actual_depth,depth_estimate,trial_RT,log_sceneDuration,unitSelection,seq_filepath,experimentTime,totalTime,age,gender
0,670893,DepthScenes,duration_manipulation_targetAtFixation,jsons/VE125_randls_41.json,http://54.235.29.9/FacialAge/BNav_EC2/DepthDuration/v2_depth_duration_MTurk/v2_DepthDuration_HTML.html#467,467,1536,864,1920,1080,8-30-2022,9-56-3,1,depth_duration_stimuli/002213_2014-06-28_18-37-58_260595134347_rgbf000055-resize_1/002213_2014-06-28_18-37-58_260595134347_rgbf000055-resize_1-target.png,125,3.62,3,4311,120,feet,jsons/VE125_randls_41.json,842029,1263043,39,Woman
1,670893,DepthScenes,duration_manipulation_targetAtFixation,jsons/VE125_randls_41.json,http://54.235.29.9/FacialAge/BNav_EC2/DepthDuration/v2_depth_duration_MTurk/v2_DepthDuration_HTML.html#467,467,1536,864,1920,1080,8-30-2022,9-56-3,2,depth_duration_stimuli/000691_2014-06-08_13-08-50_260595134347_rgbf000132-resize_3/000691_2014-06-08_13-08-50_260595134347_rgbf000132-resize_3-target.png,125,4.1530000000000005,3,3566,129,feet,jsons/VE125_randls_41.json,842029,1263043,39,Woman
2,670893,DepthScenes,duration_manipulation_targetAtFixation,jsons/VE125_randls_41.json,http://54.235.29.9/FacialAge/BNav_EC2/DepthDuration/v2_depth_duration_MTurk/v2_DepthDuration_HTML.html#467,467,1536,864,1920,1080,8-30-2022,9-56-3,3,depth_duration_stimuli/001055_2014-06-08_18-45-35_260595134347_rgbf000111-resize_4/001055_2014-06-08_18-45-35_260595134347_rgbf000111-resize_4-target.png,125,2.4290000000000003,4,5335,123,feet,jsons/VE125_randls_41.json,842029,1263043,39,Woman
3,670893,DepthScenes,duration_manipulation_targetAtFixation,jsons/VE125_randls_41.json,http://54.235.29.9/FacialAge/BNav_EC2/DepthDuration/v2_depth_duration_MTurk/v2_DepthDuration_HTML.html#467,467,1536,864,1920,1080,8-30-2022,9-56-3,4,depth_duration_stimuli/000549_2014-06-08_22-10-24_260595134347_rgbf000247-resize_3/000549_2014-06-08_22-10-24_260595134347_rgbf000247-resize_3-target.png,125,1.841,1,3766,124,feet,jsons/VE125_randls_41.json,842029,1263043,39,Woman
4,670893,DepthScenes,duration_manipulation_targetAtFixation,jsons/VE125_randls_41.json,http://54.235.29.9/FacialAge/BNav_EC2/DepthDuration/v2_depth_duration_MTurk/v2_DepthDuration_HTML.html#467,467,1536,864,1920,1080,8-30-2022,9-56-3,5,depth_duration_stimuli/002509_2014-06-24_13-19-22_094959634447_rgbf000077-resize_0/002509_2014-06-24_13-19-22_094959634447_rgbf000077-resize_0-target.png,125,1.3065,2,3869,132,feet,jsons/VE125_randls_41.json,842029,1263043,39,Woman
5,670893,DepthScenes,duration_manipulation_targetAtFixation,jsons/VE125_randls_41.json,http://54.235.29.9/FacialAge/BNav_EC2/DepthDuration/v2_depth_duration_MTurk/v2_DepthDuration_HTML.html#467,467,1536,864,1920,1080,8-30-2022,9-56-3,6,depth_duration_stimuli/003338_2014-05-20_11-01-23_094959634447_rgbf000051-resize_6/003338_2014-05-20_11-01-23_094959634447_rgbf000051-resize_6-target.png,125,1.693,1,3700,131,feet,jsons/VE125_randls_41.json,842029,1263043,39,Woman
6,670893,DepthScenes,duration_manipulation_targetAtFixation,jsons/VE125_randls_41.json,http://54.235.29.9/FacialAge/BNav_EC2/DepthDuration/v2_depth_duration_MTurk/v2_DepthDuration_HTML.html#467,467,1536,864,1920,1080,8-30-2022,9-56-3,7,depth_duration_stimuli/001167_2014-06-17_15-38-07_260595134347_rgbf000108-resize_0/001167_2014-06-17_15-38-07_260595134347_rgbf000108-resize_0-target.png,125,1.8505,1,5994,117,feet,jsons/VE125_randls_41.json,842029,1263043,39,Woman
7,670893,DepthScenes,duration_manipulation_targetAtFixation,jsons/VE125_randls_41.json,http://54.235.29.9/FacialAge/BNav_EC2/DepthDuration/v2_depth_duration_MTurk/v2_DepthDuration_HTML.html#467,467,1536,864,1920,1080,8-30-2022,9-56-3,8,depth_duration_stimuli/003587_2014-05-23_16-48-02_094959634447_rgbf002384-resize_2/003587_2014-05-23_16-48-02_094959634447_rgbf002384-resize_2-target.png,125,1.357,2,3718,104,feet,jsons/VE125_randls_41.json,842029,1263043,39,Woman
8,670893,DepthScenes,duration_manipulation_targetAtFixation,jsons/VE125_randls_41.json,http://54.235.29.9/FacialAge/BNav_EC2/DepthDuration/v2_depth_duration_MTurk/v2_DepthDuration_HTML.html#467,467,1536,864,1920,1080,8-30-2022,9-56-3,9,depth_duration_stimuli/002445_2014-06-28_20-32-16_260595134347_rgbf000029-resize_4/002445_2014-06-28_20-32-16_260595134347_rgbf000029-resize_4-target.png,125,2.5315,3,4037,132,feet,jsons/VE125_randls_41.json,842029,1263043,39,Woman
9,670893,DepthScenes,duration_manipulation_targetAtFixation,jsons/VE125_randls_41.json,http://54.235.29.9/FacialAge/BNav_EC2/DepthDuration/v2_depth_duration_MTurk/v2_DepthDuration_HTML.html#467,467,1536,864,1920,1080,8-30-2022,9-56-3,10,depth_duration_stimuli/000780_2014-06-08_22-28-29_260595134347_rgbf000126-resize_1/000780_2014-06-08_22-28-29_260595134347_rgbf000126-resize_1-target.png,125,3.3825,3,4041,125,feet,jsons/VE125_randls_41.json,842029,1263043,39,Woman
10,670893,DepthScenes,duration_manipulation_targetAtFixation,jsons/VE125_randls_41.json,http://54.235.29.9/FacialAge/BNav_EC2/DepthDuration/v2_depth_duration_MTurk/v2_DepthDuration_HTML.html#467,467,1536,864,1920,1080,8-30-2022,9-56-3,11,depth_duration_stimuli/000929_2014-06-09_16-33-19_260595134347_rgbf000139-resize_0/000929_2014-06-09_16-33-19_260595134347_rgbf000139-resize_0-target.png,125,2.8680000000000003,4,4141,124,feet,jsons/VE125_randls_41.json,842029,1263043,39,Woman
11,670893,DepthScenes,duration_manipulation_targetAtFixation,jsons/VE125_randls_41.json,http://54.235.29.9/FacialAge/BNav_EC2/DepthDuration/v2_depth_duration_MTurk/v2_DepthDuration_HTML.html#467,467,1536,864,1920,1080,8-30-2022,9-56-3,12,depth_duration_stimuli/000457_2014-06-08_16-52-43_260595134347_rgbf000199-resize_1/000457_2014-06-08_16-52-43_260595134347_rgbf000199-resize_1-target.png,125,3.6489999999999996,4,3820,115,feet,jsons/VE125_randls_41.json,842029,1263043,39,Woman
12,670893,DepthScenes,duration_manipulation_targetAtFixation,jsons/VE125_randls_41.json,http://54.235.29.9/FacialAge/BNav_EC2/DepthDuration/v2_depth_duration_MTurk/v2_DepthDuration_HTML.html#467,467,1536,864,1920,1080,8-30-2022,9-56-3,13,depth_duration_stimuli/000569_2014-06-09_22-51-47_260595134347_rgbf000141-resize_3/000569_2014-06-09_22-51-47_260595134347_rgbf000141-resize-original.jpg,125,4.512,0,3757,126,feet,jsons/VE125_randls_41.json,842029,1263043,39,Woman
13,670893,DepthScenes,duration_manipulation_targetAtFixation,jsons/VE125_randls_41.json,http://54.235.29.9/FacialAge/BNav_EC2/DepthDuration/v2_depth_duration_MTurk/v2_DepthDuration_HTML.html#467,467,1536,864,1920,1080,8-30-2022,9-56-3,14,depth_duration_stimuli/000447_2014-06-08_16-15-46_260595134347_rgbf000130-resize_1/000447_2014-06-08_16-15-46_260595134347_rgbf000130-resize_1-target.png,125,4.479,5,5017,132,feet,jsons/VE125_randls_41.json,842029,1263043,39,Woman
14,670893,DepthScenes,duration_manipulation_targetAtFixation,jsons/VE125_randls_41.json,http://54.235.29.9/FacialAge/BNav_EC2/DepthDuration/v2_depth_duration_MTurk/v2_DepthDuration_HTML.html#467,467,1536,864,1920,1080,8-30-2022,9-56-3,15,depth_duration_stimuli/001447_2014-06-19_17-00-32_260595134347_rgbf000082-resize_5/001447_2014-06-19_17-00-32_260595134347_rgbf000082-resize_5-target.png,125,4.13775,4,4387,123,feet,jsons/VE125_randls_41.json,842029,1263043,39,Woman
15,670893,DepthScenes,duration_manipulation_targetAtFixation,jsons/VE125_randls_41.json,http://54.235.29.9/FacialAge/BNav_EC2/DepthDuration/v2_depth_duration_MTurk/v2_DepthDuration_HTML.html#467,467,1536,864,1920,1080,8-30-2022,9-56-3,16,depth_duration_stimuli/002375_2014-06-28_20-13-44_260595134347_rgbf000032-resize_1/002375_2014-06-28_20-13-44_260595134347_rgbf000032-resize_1-target.png,125,4.0175,5,4457,127,feet,jsons/VE125_randls_41.json,842029,1263043,39,Woman
16,670893,DepthScenes,duration_manipulation_targetAtFixation,jsons/VE125_randls_41.json,http://54.235.29.9/FacialAge/BNav_EC2/DepthDuration/v2_depth_duration_MTurk/v2_DepthDuration_HTML.html#467,467,1536,864,1920,1080,8-30-2022,9-56-3,17,depth_duration_stimuli/002657_2014-06-13_15-29-54_094959634447_rgbf000150-resize_1/002657_2014-06-13_15-29-54_094959634447_rgbf000150-resize_1-target.png,125,4.919,6,4144,123,feet,jsons/VE125_randls_41.json,842029,1263043,39,Woman
17,670893,DepthScenes,duration_manipulation_targetAtFixation,jsons/VE125_randls_41.json,http://54.235.29.9/FacialAge/BNav_EC2/DepthDuration/v2_depth_duration_MTurk/v2_DepthDuration_HTML.html#467,467,1536,864,1920,1080,8-30-2022,9-56-3,18,depth_duration_stimuli/001016_2014-06-09_16-16-10_260595134347_rgbf000112-resize_5/001016_2014-06-09_16-16-10_260595134347_rgbf000112-resize_5-target.png,125,1.6565,5,8387,132,feet,jsons/VE125_randls_41.json,842029,1263043,39,Woman
18,670893,DepthScenes,duration_manipulation_targetAtFixation,jsons/VE125_randls_41.json,http://54.235.29.9/FacialAge/BNav_EC2/DepthDuration/v2_depth_duration_MTurk/v2_DepthDuration_HTML.html#467,467,1536,864,1920,1080,8-30-2022,9-56-3,19,depth_duration_stimuli/002340_2014-06-28_20-05-46_260595134347_rgbf000113-resize_0/002340_2014-06-28_20-05-46_260595134347_rgbf000113-resize_0-target.png,125,2.4735,5,8638,122,feet,jsons/VE125_randls_41.json,842029,1263043,39,Woman
19,670893,DepthScenes,duration_manipulation_targetAtFixation,jsons/VE125_randls_41.json,http://54.235.29.9/FacialAge/BNav_EC2/DepthDuration/v2_depth_duration_MTurk/v2_DepthDuration_HTML.html#467,467,1536,864,1920,1080,8-30-2022,9-56-3,20,depth_duration_stimuli/002788_2014-06-22_19-36-03_094959634447_rgbf000088-resize_2/002788_2014-06-22_19-36-03_094959634447_rgbf000088-resize_2-target.png,125,1.6465,6,4743,127,feet,jsons/VE125_randls_41.json,842029,1263043,39,Woman
20,670893,DepthScenes,duration_manipulation_targetAtFixation,jsons/VE125_randls_41.json,http://54.235.29.9/FacialAge/BNav_EC2/DepthDuration/v2_depth_duration_MTurk/v2_DepthDuration_HTML.html#467,467,1536,864,1920,1080,8-30-2022,9-56-3,21,depth_duration_stimuli/000749_2014-06-08_21-55-06_260595134347_rgbf000070-resize_2/000749_2014-06-08_21-55-06_260595134347_rgbf000070-resize_2-target.png,125,2.331,6,5271,120,feet,jsons/VE125_randls_41.json,842029,1263043,39,Woman
21,670893,DepthScenes,duration_manipulation_targetAtFixation,jsons/VE125_randls_41.json,http://54.235.29.9/FacialAge/BNav_EC2/DepthDuration/v2_depth_duration_MTurk/v2_DepthDuration_HTML.html#467,467,1536,864,1920,1080,8-30-2022,9-56-3,22,depth_duration_stimuli/000436_2014-06-09_22-25-11_260595134347_rgbf000137-resize_1/000436_2014-06-09_22-25-11_260595134347_rgbf000137-resize_1-target.png,125,4.0705,7,4466,121,feet,jsons/VE125_randls_41.json,842029,1263043,39,Woman
22,670893,DepthScenes,duration_manipulation_targetAtFixation,jsons/VE125_randls_41.json,http://54.235.29.9/FacialAge/BNav_EC2/DepthDuration/v2_depth_duration_MTurk/v2_DepthDuration_HTML.html#467,467,1536,864,1920,1080,8-30-2022,9-56-3,23,depth_duration_stimuli/002444_2014-06-28_20-32-08_260595134347_rgbf000027-resize_0/002444_2014-06-28_20-32-08_260595134347_rgbf000027-resize_0-target.png,125,4.388999999999999,8,4407,121,feet,jsons/VE125_randls_41.json,842029,1263043,39,Woman
23,670893,DepthScenes,duration_manipulation_targetAtFixation,jsons/VE125_randls_41.json,http://54.235.29.9/FacialAge/BNav_EC2/DepthDuration/v2_depth_duration_MTurk/v2_DepthDuration_HTML.html#467,467,1536,864,1920,1080,8-30-2022,9-56-3,24,depth_duration_stimuli/002600_2014-06-24_14-27-04_094959634447_rgbf000074-resize_2/002600_2014-06-24_14-27-04_094959634447_rgbf000074-resize_2-target.png,125,2.7575,5,4135,116,feet,jsons/VE125_randls_41.json,842029,1263043,39,Woman
24,670893,DepthScenes,duration_manipulation_targetAtFixation,jsons/VE125_randls_41.json,http://54.235.29.9/FacialAge/BNav_EC2/DepthDuration/v2_depth_duration_MTurk/v2_DepthDuration_HTML.html#467,467,1536,864,1920,1080,8-30-2022,9-56-3,25,depth_duration_stimuli/003228_2014-05-14_13-42-35_094959634447_rgbf000101-resize_1/003228_2014-05-14_13-42-35_094959634447_rgbf000101-resize_1-target.png,125,1.9680000000000002,4,3730,125,feet,jsons/VE125_randls_41.json,842029,1263043,39,Woman
25,670893,DepthScenes,duration_manipulation_targetAtFixation,jsons/VE125_randls_41.json,http://54.235.29.9/FacialAge/BNav_EC2/DepthDuration/v2_depth_duration_MTurk/v2_DepthDuration_HTML.html#467,467,1536,864,1920,1080,8-30-2022,9-56-3,26,depth_duration_stimuli/001175_2014-06-17_15-45-55_260595134347_rgbf000129-resize_4/001175_2014-06-17_15-45-55_260595134347_rgbf000129-resize_4-target.png,125,4.255,7,6790,125,feet,jsons/VE125_randls_41.json,842029,1263043,39,Woman
26,670893,DepthScenes,duration_manipulation_targetAtFixation,jsons/VE125_randls_41.json,http://54.235.29.9/FacialAge/BNav_EC2/DepthDuration/v2_depth_duration_MTurk/v2_DepthDuration_HTML.html#467,467,1536,864,1920,1080,8-30-2022,9-56-3,27,depth_duration_stimuli/003490_2014-05-21_15-50-11_094959634447_rgbf000101-resize_3/003490_2014-05-21_15-50-11_094959634447_rgbf000101-resize_3-target.png,125,3.6445,8,5447,111,feet,jsons/VE125_randls_41.json,842029,1263043,39,Woman
27,670893,DepthScenes,duration_manipulation_targetAtFixation,jsons/VE125_randls_41.json,http://54.235.29.9/FacialAge/BNav_EC2/DepthDuration/v2_depth_duration_MTurk/v2_DepthDuration_HTML.html#467,467,1536,864,1920,1080,8-30-2022,9-56-3,28,depth_duration_stimuli/001164_2014-06-17_15-35-46_260595134347_rgbf000085-resize_3/001164_2014-06-17_15-35-46_260595134347_rgbf000085-resize_3-target.png,125,2.354,6,6499,129,feet,jsons/VE125_randls_41.json,842029,1263043,39,Woman
28,670893,DepthScenes,duration_manipulation_targetAtFixation,jsons/VE125_randls_41.json,http://54.235.29.9/FacialAge/BNav_EC2/DepthDuration/v2_depth_duration_MTurk/v2_DepthDuration_HTML.html#467,467,1536,864,1920,1080,8-30-2022,9-56-3,29,depth_duration_stimuli/001136_2014-06-17_15-19-41_260595134347_rgbf000076-resize_3/001136_2014-06-17_15-19-41_260595134347_rgbf000076-resize_3-target.png,125,1.8655,5,3883,116,feet,jsons/VE125_randls_41.json,842029,1263043,39,Woman
29,670893,DepthScenes,duration_manipulation_targetAtFixation,jsons/VE125_randls_41.json,http://54.235.29.9/FacialAge/BNav_EC2/DepthDuration/v2_depth_duration_MTurk/v2_DepthDuration_HTML.html#467,467,1536,864,1920,1080,8-30-2022,9-56-3,30,depth_duration_stimuli/000375_2014-06-08_11-17-29_260595134347_rgbf000133-resize_2/000375_2014-06-08_11-17-29_260595134347_rgbf000133-resize-original.jpg,125,4.718,0,3685,127,feet,jsons/VE125_randls_41.json,842029,1263043,39,Woman
30,670893,DepthScenes,duration_manipulation_targetAtFixation,jsons/VE125_randls_41.json,http://54.235.29.9/FacialAge/BNav_EC2/DepthDuration/v2_depth_duration_MTurk/v2_DepthDuration_HTML.html#467,467,1536,864,1920,1080,8-30-2022,9-56-3,31,depth_duration_stimuli/002748_2014-06-22_19-07-22_094959634447_rgbf000078-resize_1/002748_2014-06-22_19-07-22_094959634447_rgbf000078-resize_1-target.png,125,4.6705,8,4505,136,feet,jsons/VE125_randls_41.json,842029,1263043,39,Woman
31,670893,DepthScenes,duration_manipulation_targetAtFixation,jsons/VE125_randls_41.json,http://54.235.29.9/FacialAge/BNav_EC2/DepthDuration/v2_depth_duration_MTurk/v2_DepthDuration_HTML.html#467,467,1536,864,1920,1080,8-30-2022,9-56-3,32,depth_duration_stimuli/002995_2014-06-15_12-31-26_094959634447_rgbf000150-resize_1/002995_2014-06-15_12-31-26_094959634447_rgbf000150-resize_1-target.png,125,3.8360000000000003,7,3914,137,feet,jsons/VE125_randls_41.json,842029,1263043,39,Woman
32,670893,DepthScenes,duration_manipulation_targetAtFixation,jsons/VE125_randls_41.json,http://54.235.29.9/FacialAge/BNav_EC2/DepthDuration/v2_depth_duration_MTurk/v2_DepthDuration_HTML.html#467,467,1536,864,1920,1080,8-30-2022,9-56-3,33,depth_duration_stimuli/000810_2014-06-08_17-20-01_260595134347_rgbf000105-resize_0/000810_2014-06-08_17-20-01_260595134347_rgbf000105-resize_0-target.png,125,1.4865,2,8111,118,feet,jsons/VE125_randls_41.json,842029,1263043,39,Woman
33,670893,DepthScenes,duration_manipulation_targetAtFixation,jsons/VE125_randls_41.json,http://54.235.29.9/FacialAge/BNav_EC2/DepthDuration/v2_depth_duration_MTurk/v2_DepthDuration_HTML.html#467,467,1536,864,1920,1080,8-30-2022,9-56-3,34,depth_duration_stimuli/001214_2014-06-17_16-13-55_260595134347_rgbf000111-resize_0/001214_2014-06-17_16-13-55_260595134347_rgbf000111-resize_0-target.png,125,2.6505,2,5096,127,feet,jsons/VE125_randls_41.json,842029,1263043,39,Woman
34,670893,DepthScenes,duration_manipulation_targetAtFixation,jsons/VE125_randls_41.json,http://54.235.29.9/FacialAge/BNav_EC2/DepthDuration/v2_depth_duration_MTurk/v2_DepthDuration_HTML.html#467,467,1536,864,1920,1080,8-30-2022,9-56-3,35,depth_duration_stimuli/001150_2014-06-17_15-27-34_260595134347_rgbf000108-resize_2/001150_2014-06-17_15-27-34_260595134347_rgbf000108-resize_2-target.png,125,4.0325,4,3710,133,feet,jsons/VE125_randls_41.json,842029,1263043,39,Woman
35,670893,DepthScenes,duration_manipulation_targetAtFixation,jsons/VE125_randls_41.json,http://54.235.29.9/FacialAge/BNav_EC2/DepthDuration/v2_depth_duration_MTurk/v2_DepthDuration_HTML.html#467,467,1536,864,1920,1080,8-30-2022,9-56-3,36,depth_duration_stimuli/000665_2014-06-09_20-42-35_260595134347_rgbf000110-resize_1/000665_2014-06-09_20-42-35_260595134347_rgbf000110-resize_1-target.png,125,3.057,4,4266,123,feet,jsons/VE125_randls_41.json,842029,1263043,39,Woman
36,670893,DepthScenes,duration_manipulation_targetAtFixation,jsons/VE125_randls_41.json,http://54.235.29.9/FacialAge/BNav_EC2/DepthDuration/v2_depth_duration_MTurk/v2_DepthDuration_HTML.html#467,467,1536,864,1920,1080,8-30-2022,9-56-3,37,depth_duration_stimuli/003292_2014-05-14_21-53-49_094959634447_rgbf000100-resize_2/003292_2014-05-14_21-53-49_094959634447_rgbf000100-resize_2-target.png,125,3.4815,3,4204,122,feet,jsons/VE125_randls_41.json,842029,1263043,39,Woman
37,670893,DepthScenes,duration_manipulation_targetAtFixation,jsons/VE125_randls_41.json,http://54.235.29.9/FacialAge/BNav_EC2/DepthDuration/v2_depth_duration_MTurk/v2_DepthDuration_HTML.html#467,467,1536,864,1920,1080,8-30-2022,9-56-3,38,depth_duration_stimuli/002639_2014-06-24_14-51-37_094959634447_rgbf000074-resize_4/002639_2014-06-24_14-51-37_094959634447_rgbf000074-resize_4-target.png,125,4.0375,5,6802,137,feet,jsons/VE125_randls_41.json,842029,1263043,39,Woman
38,670893,DepthScenes,duration_manipulation_targetAtFixation,jsons/VE125_randls_41.json,http://54.235.29.9/FacialAge/BNav_EC2/DepthDuration/v2_depth_duration_MTurk/v2_DepthDuration_HTML.html#467,467,1536,864,1920,1080,8-30-2022,9-56-3,39,depth_duration_stimuli/001555_2014-06-20_17-12-10_260595134347_rgbf000065-resize_4/001555_2014-06-20_17-12-10_260595134347_rgbf000065-resize_4-target.png,125,1.633,1,3835,119,feet,jsons/VE125_randls_41.json,842029,1263043,39,Woman
39,670893,DepthScenes,duration_manipulation_targetAtFixation,jsons/VE125_randls_41.json,http://54.235.29.9/FacialAge/BNav_EC2/DepthDuration/v2_depth_duration_MTurk/v2_DepthDuration_HTML.html#467,467,1536,864,1920,1080,8-30-2022,9-56-3,40,depth_duration_stimuli/000103_2014-05-14_22-01-17_260595134347_rgbf000152-resize_5/000103_2014-05-14_22-01-17_260595134347_rgbf000152-resize_5-target.png,125,1.993,3,3617,119,feet,jsons/VE125_randls_41.json,842029,1263043,39,Woman
40,670893,DepthScenes,duration_manipulation_targetAtFixation,jsons/VE125_randls_41.json,http://54.235.29.9/FacialAge/BNav_EC2/DepthDuration/v2_depth_duration_MTurk/v2_DepthDuration_HTML.html#467,467,1536,864,1920,1080,8-30-2022,9-56-3,41,depth_duration_stimuli/001158_2014-06-17_15-32-16_260595134347_rgbf000138-resize_2/001158_2014-06-17_15-32-16_260595134347_rgbf000138-resize_2-target.png,125,4.5315,2,4514,121,feet,jsons/VE125_randls_41.json,842029,1263043,39,Woman
41,670893,DepthScenes,duration_manipulation_targetAtFixation,jsons/VE125_randls_41.json,http://54.235.29.9/FacialAge/BNav_EC2/DepthDuration/v2_depth_duration_MTurk/v2_DepthDuration_HTML.html#467,467,1536,864,1920,1080,8-30-2022,9-56-3,42,depth_duration_stimuli/000556_2014-06-09_22-42-56_260595134347_rgbf000214-resize_1/000556_2014-06-09_22-42-56_260595134347_rgbf000214-resize_1-target.png,125,4.8415,4,3909,129,feet,jsons/VE125_randls_41.json,842029,1263043,39,Woman
42,670893,DepthScenes,duration_manipulation_targetAtFixation,jsons/VE125_randls_41.json,http://54.235.29.9/FacialAge/BNav_EC2/DepthDuration/v2_depth_duration_MTurk/v2_DepthDuration_HTML.html#467,467,1536,864,1920,1080,8-30-2022,9-56-3,43,depth_duration_stimuli/002905_2014-06-03_18-04-43_094959634447_rgbf000151-resize_2/002905_2014-06-03_18-04-43_094959634447_rgbf000151-resize_2-target.png,125,2.0295,3,3746,127,feet,jsons/VE125_randls_41.json,842029,1263043,39,Woman
43,670893,DepthScenes,duration_manipulation_targetAtFixation,jsons/VE125_randls_41.json,http://54.235.29.9/FacialAge/BNav_EC2/DepthDuration/v2_depth_duration_MTurk/v2_DepthDuration_HTML.html#467,467,1536,864,1920,1080,8-30-2022,9-56-3,44,depth_duration_stimuli/003423_2014-05-21_10-23-26_094959634447_rgbf002665-resize_2/003423_2014-05-21_10-23-26_094959634447_rgbf002665-resize_2-target.png,125,3.2575,4,4174,121,feet,jsons/VE125_randls_41.json,842029,1263043,39,Woman
44,670893,DepthScenes,duration_manipulation_targetAtFixation,jsons/VE125_randls_41.json,http://54.235.29.9/FacialAge/BNav_EC2/DepthDuration/v2_depth_duration_MTurk/v2_DepthDuration_HTML.html#467,467,1536,864,1920,1080,8-30-2022,9-56-3,45,depth_duration_stimuli/000787_2014-06-08_22-33-53_260595134347_rgbf000175-resize_1/000787_2014-06-08_22-33-53_260595134347_rgbf000175-resize-original.jpg,125,4.784,0,6975,125,feet,jsons/VE125_randls_41.json,842029,1263043,39,Woman
45,670893,DepthScenes,duration_manipulation_targetAtFixation,jsons/VE125_randls_41.json,http://54.235.29.9/FacialAge/BNav_EC2/DepthDuration/v2_depth_duration_MTurk/v2_DepthDuration_HTML.html#467,467,1536,864,1920,1080,8-30-2022,9-56-3,46,depth_duration_stimuli/001570_2014-06-20_17-21-09_260595134347_rgbf000135-resize_4/001570_2014-06-20_17-21-09_260595134347_rgbf000135-resize_4-target.png,125,4.467,5,4533,119,feet,jsons/VE125_randls_41.json,842029,1263043,39,Woman
46,670893,DepthScenes,duration_manipulation_targetAtFixation,jsons/VE125_randls_41.json,http://54.235.29.9/FacialAge/BNav_EC2/DepthDuration/v2_depth_duration_MTurk/v2_DepthDuration_HTML.html#467,467,1536,864,1920,1080,8-30-2022,9-56-3,47,depth_duration_stimuli/001392_2014-06-19_16-07-59_260595134347_rgbf000046-resize_1/001392_2014-06-19_16-07-59_260595134347_rgbf000046-resize_1-target.png,125,4.135,6,4969,122,feet,jsons/VE125_randls_41.json,842029,1263043,39,Woman
47,670893,DepthScenes,duration_manipulation_targetAtFixation,jsons/VE125_randls_41.json,http://54.235.29.9/FacialAge/BNav_EC2/DepthDuration/v2_depth_duration_MTurk/v2_DepthDuration_HTML.html#467,467,1536,864,1920,1080,8-30-2022,9-56-3,48,depth_duration_stimuli/001806_2014-06-26_20-50-20_260595134347_rgbf000091-resize_1/001806_2014-06-26_20-50-20_260595134347_rgbf000091-resize_1-target.png,125,2.7305,1,4220,116,feet,jsons/VE125_randls_41.json,842029,1263043,39,Woman
48,670893,DepthScenes,duration_manipulation_targetAtFixation,jsons/VE125_randls_41.json,http://54.235.29.9/FacialAge/BNav_EC2/DepthDuration/v2_depth_duration_MTurk/v2_DepthDuration_HTML.html#467,467,1536,864,1920,1080,8-30-2022,9-56-3,49,depth_duration_stimuli/001617_2014-06-20_11-35-32_260595134347_rgbf000066-resize_1/001617_2014-06-20_11-35-32_260595134347_rgbf000066-resize_1-target.png,125,3.7910000000000004,5,3862,141,feet,jsons/VE125_randls_41.json,842029,1263043,39,Woman
49,670893,DepthScenes,duration_manipulation_targetAtFixation,jsons/VE125_randls_41.json,http://54.235.29.9/FacialAge/BNav_EC2/DepthDuration/v2_depth_duration_MTurk/v2_DepthDuration_HTML.html#467,467,1536,864,1920,1080,8-30-2022,9-56-3,50,depth_duration_stimuli/000470_2014-06-09_19-42-40_260595134347_rgbf000094-resize_1/000470_2014-06-09_19-42-40_260595134347_rgbf000094-resize_1-target.png,125,1.831,1,4273,135,feet,jsons/VE125_randls_41.json,842029,1263043,39,Woman
50,670893,DepthScenes,duration_manipulation_targetAtFixation,jsons/VE125_randls_41.json,http://54.235.29.9/FacialAge/BNav_EC2/DepthDuration/v2_depth_duration_MTurk/v2_DepthDuration_HTML.html#467,467,1536,864,1920,1080,8-30-2022,9-56-3,51,depth_duration_stimuli/000109_2014-05-14_23-41-52_260595134347_rgbf000035-resize_9/000109_2014-05-14_23-41-52_260595134347_rgbf000035-resize_9-target.png,125,1.3545,2,3482,118,feet,jsons/VE125_randls_41.json,842029,1263043,39,Woman
51,670893,DepthScenes,duration_manipulation_targetAtFixation,jsons/VE125_randls_41.json,http://54.235.29.9/FacialAge/BNav_EC2/DepthDuration/v2_depth_duration_MTurk/v2_DepthDuration_HTML.html#467,467,1536,864,1920,1080,8-30-2022,9-56-3,52,depth_duration_stimuli/002663_2014-06-13_15-50-26_094959634447_rgbf000075-resize_1/002663_2014-06-13_15-50-26_094959634447_rgbf000075-resize_1-target.png,125,4.7495,0,3717,110,feet,jsons/VE125_randls_41.json,842029,1263043,39,Woman
52,670893,DepthScenes,duration_manipulation_targetAtFixation,jsons/VE125_randls_41.json,http://54.235.29.9/FacialAge/BNav_EC2/DepthDuration/v2_depth_duration_MTurk/v2_DepthDuration_HTML.html#467,467,1536,864,1920,1080,8-30-2022,9-56-3,53,depth_duration_stimuli/000409_2014-06-04_19-23-33_260595134347_rgbf000067-resize_0/000409_2014-06-04_19-23-33_260595134347_rgbf000067-resize_0-target.png,125,3.7335,6,4180,127,feet,jsons/VE125_randls_41.json,842029,1263043,39,Woman
53,670893,DepthScenes,duration_manipulation_targetAtFixation,jsons/VE125_randls_41.json,http://54.235.29.9/FacialAge/BNav_EC2/DepthDuration/v2_depth_duration_MTurk/v2_DepthDuration_HTML.html#467,467,1536,864,1920,1080,8-30-2022,9-56-3,54,depth_duration_stimuli/002118_2014-06-25_20-32-08_260595134347_rgbf000078-resize_1/002118_2014-06-25_20-32-08_260595134347_rgbf000078-resize_1-target.png,125,2.6460000000000004,5,5170,112,feet,jsons/VE125_randls_41.json,842029,1263043,39,Woman
54,670893,DepthScenes,duration_manipulation_targetAtFixation,jsons/VE125_randls_41.json,http://54.235.29.9/FacialAge/BNav_EC2/DepthDuration/v2_depth_duration_MTurk/v2_DepthDuration_HTML.html#467,467,1536,864,1920,1080,8-30-2022,9-56-3,55,depth_duration_stimuli/001516_2014-06-20_16-25-09_260595134347_rgbf000076-resize_2/001516_2014-06-20_16-25-09_260595134347_rgbf000076-resize_2-target.png,125,1.7445,1,3471,119,feet,jsons/VE125_randls_41.json,842029,1263043,39,Woman
55,670893,DepthScenes,duration_manipulation_targetAtFixation,jsons/VE125_randls_41.json,http://54.235.29.9/FacialAge/BNav_EC2/DepthDuration/v2_depth_duration_MTurk/v2_DepthDuration_HTML.html#467,467,1536,864,1920,1080,8-30-2022,9-56-3,56,depth_duration_stimuli/002039_2014-06-24_20-22-38_260595134347_rgbf000084-resize_1/002039_2014-06-24_20-22-38_260595134347_rgbf000084-resize_1-target.png,125,4.408,2,4482,113,feet,jsons/VE125_randls_41.json,842029,1263043,39,Woman
56,670893,DepthScenes,duration_manipulation_targetAtFixation,jsons/VE125_randls_41.json,http://54.235.29.9/FacialAge/BNav_EC2/DepthDuration/v2_depth_duration_MTurk/v2_DepthDuration_HTML.html#467,467,1536,864,1920,1080,8-30-2022,9-56-3,57,depth_duration_stimuli/002103_2014-06-25_20-00-40_260595134347_rgbf000049-resize_0/002103_2014-06-25_20-00-40_260595134347_rgbf000049-resize_0-target.png,125,4.105,0,4534,117,feet,jsons/VE125_randls_41.json,842029,1263043,39,Woman
57,670893,DepthScenes,duration_manipulation_targetAtFixation,jsons/VE125_randls_41.json,http://54.235.29.9/FacialAge/BNav_EC2/DepthDuration/v2_depth_duration_MTurk/v2_DepthDuration_HTML.html#467,467,1536,864,1920,1080,8-30-2022,9-56-3,58,depth_duration_stimuli/001066_2014-06-08_22-03-20_260595134347_rgbf000066-resize_4/001066_2014-06-08_22-03-20_260595134347_rgbf000066-resize_4-target.png,125,4.2330000000000005,3,3888,125,feet,jsons/VE125_randls_41.json,842029,1263043,39,Woman
58,670893,DepthScenes,duration_manipulation_targetAtFixation,jsons/VE125_randls_41.json,http://54.235.29.9/FacialAge/BNav_EC2/DepthDuration/v2_depth_duration_MTurk/v2_DepthDuration_HTML.html#467,467,1536,864,1920,1080,8-30-2022,9-56-3,59,depth_duration_stimuli/000742_2014-06-08_18-48-09_260595134347_rgbf000164-resize_4/000742_2014-06-08_18-48-09_260595134347_rgbf000164-resize_4-target.png,125,4.632,4,4248,135,feet,jsons/VE125_randls_41.json,842029,1263043,39,Woman
59,670893,DepthScenes,duration_manipulation_targetAtFixation,jsons/VE125_randls_41.json,http://54.235.29.9/FacialAge/BNav_EC2/DepthDuration/v2_depth_duration_MTurk/v2_DepthDuration_HTML.html#467,467,1536,864,1920,1080,8-30-2022,9-56-3,60,depth_duration_stimuli/000493_2014-06-09_21-01-18_260595134347_rgbf000196-resize_3/000493_2014-06-09_21-01-18_260595134347_rgbf000196-resize_3-target.png,125,3.44,3,4233,113,feet,jsons/VE125_randls_41.json,842029,1263043,39,Woman
60,670893,DepthScenes,duration_manipulation_targetAtFixation,jsons/VE125_randls_41.json,http://54.235.29.9/FacialAge/BNav_EC2/DepthDuration/v2_depth_duration_MTurk/v2_DepthDuration_HTML.html#467,467,1536,864,1920,1080,8-30-2022,9-56-3,61,depth_duration_stimuli/000191_2014-05-12_17-07-38_260595134347_rgbf000199-resize_0/000191_2014-05-12_17-07-38_260595134347_rgbf000199-resize_0-target.png,125,3.7995,7,4027,116,feet,jsons/VE125_randls_41.json,842029,1263043,39,Woman
61,670893,DepthScenes,duration_manipulation_targetAtFixation,jsons/VE125_randls_41.json,http://54.235.29.9/FacialAge/BNav_EC2/DepthDuration/v2_depth_duration_MTurk/v2_DepthDuration_HTML.html#467,467,1536,864,1920,1080,8-30-2022,9-56-3,62,depth_duration_stimuli/002279_2014-06-28_18-55-32_260595134347_rgbf000040-resize_5/002279_2014-06-28_18-55-32_260595134347_rgbf000040-resize_5-target.png,125,1.5043333333333,1,3634,131,feet,jsons/VE125_randls_41.json,842029,1263043,39,Woman
62,670893,DepthScenes,duration_manipulation_targetAtFixation,jsons/VE125_randls_41.json,http://54.235.29.9/FacialAge/BNav_EC2/DepthDuration/v2_depth_duration_MTurk/v2_DepthDuration_HTML.html#467,467,1536,864,1920,1080,8-30-2022,9-56-3,63,depth_duration_stimuli/000635_2014-06-08_16-38-42_260595134347_rgbf000106-resize_1/000635_2014-06-08_16-38-42_260595134347_rgbf000106-resize_1-target.png,125,2.074,0,4319,116,feet,jsons/VE125_randls_41.json,842029,1263043,39,Woman
63,670893,DepthScenes,duration_manipulation_targetAtFixation,jsons/VE125_randls_41.json,http://54.235.29.9/FacialAge/BNav_EC2/DepthDuration/v2_depth_duration_MTurk/v2_DepthDuration_HTML.html#467,467,1536,864,1920,1080,8-30-2022,9-56-3,64,depth_duration_stimuli/000009_2014-05-26_14-32-05_260595134347_rgbf000034-resize_3/000009_2014-05-26_14-32-05_260595134347_rgbf000034-resize_3-target.png,125,3.8715,9,5623,124,feet,jsons/VE125_randls_41.json,842029,1263043,39,Woman
64,670893,DepthScenes,duration_manipulation_targetAtFixation,jsons/VE125_randls_41.json,http://54.235.29.9/FacialAge/BNav_EC2/DepthDuration/v2_depth_duration_MTurk/v2_DepthDuration_HTML.html#467,467,1536,864,1920,1080,8-30-2022,9-56-3,65,depth_duration_stimuli/001828_2014-06-26_21-40-03_260595134347_rgbf000024-resize_0/001828_2014-06-26_21-40-03_260595134347_rgbf000024-resize_0-target.png,125,4.8260000000000005,6,3896,122,feet,jsons/VE125_randls_41.json,842029,1263043,39,Woman
65,670893,DepthScenes,duration_manipulation_targetAtFixation,jsons/VE125_randls_41.json,http://54.235.29.9/FacialAge/BNav_EC2/DepthDuration/v2_depth_duration_MTurk/v2_DepthDuration_HTML.html#467,467,1536,864,1920,1080,8-30-2022,9-56-3,66,depth_duration_stimuli/001222_2014-06-17_16-24-06_260595134347_rgbf000073-resize_0/001222_2014-06-17_16-24-06_260595134347_rgbf000073-resize-original.jpg,125,1.4385,0,3443,120,feet,jsons/VE125_randls_41.json,842029,1263043,39,Woman
66,670893,DepthScenes,duration_manipulation_targetAtFixation,jsons/VE125_randls_41.json,http://54.235.29.9/FacialAge/BNav_EC2/DepthDuration/v2_depth_duration_MTurk/v2_DepthDuration_HTML.html#467,467,1536,864,1920,1080,8-30-2022,9-56-3,67,depth_duration_stimuli/000736_2014-06-08_18-24-15_260595134347_rgbf000206-resize_3/000736_2014-06-08_18-24-15_260595134347_rgbf000206-resize_3-target.png,125,3.515,3,4124,121,feet,jsons/VE125_randls_41.json,842029,1263043,39,Woman
67,670893,DepthScenes,duration_manipulation_targetAtFixation,jsons/VE125_randls_41.json,http://54.235.29.9/FacialAge/BNav_EC2/DepthDuration/v2_depth_duration_MTurk/v2_DepthDuration_HTML.html#467,467,1536,864,1920,1080,8-30-2022,9-56-3,68,depth_duration_stimuli/000137_2014-05-20_17-04-49_260595134347_rgbf000120-resize_1/000137_2014-05-20_17-04-49_260595134347_rgbf000120-resize_1-target.png,125,3.786,4,7064,121,feet,jsons/VE125_randls_41.json,842029,1263043,39,Woman
68,670893,DepthScenes,duration_manipulation_targetAtFixation,jsons/VE125_randls_41.json,http://54.235.29.9/FacialAge/BNav_EC2/DepthDuration/v2_depth_duration_MTurk/v2_DepthDuration_HTML.html#467,467,1536,864,1920,1080,8-30-2022,9-56-3,69,depth_duration_stimuli/001810_2014-06-26_20-51-35_260595134347_rgbf000040-resize_3/001810_2014-06-26_20-51-35_260595134347_rgbf000040-resize_3-target.png,125,2.2525,2,6160,131,feet,jsons/VE125_randls_41.json,842029,1263043,39,Woman
69,670893,DepthScenes,duration_manipulation_targetAtFixation,jsons/VE125_randls_41.json,http://54.235.29.9/FacialAge/BNav_EC2/DepthDuration/v2_depth_duration_MTurk/v2_DepthDuration_HTML.html#467,467,1536,864,1920,1080,8-30-2022,9-56-3,70,depth_duration_stimuli/003010_2014-06-15_12-54-35_094959634447_rgbf000112-resize_0/003010_2014-06-15_12-54-35_094959634447_rgbf000112-resize_0-target.png,125,3.1185,0,4309,137,feet,jsons/VE125_randls_41.json,842029,1263043,39,Woman
70,670893,DepthScenes,duration_manipulation_targetAtFixation,jsons/VE125_randls_41.json,http://54.235.29.9/FacialAge/BNav_EC2/DepthDuration/v2_depth_duration_MTurk/v2_DepthDuration_HTML.html#467,467,1536,864,1920,1080,8-30-2022,9-56-3,71,depth_duration_stimuli/002057_2014-06-24_21-00-13_260595134347_rgbf000120-resize_1/002057_2014-06-24_21-00-13_260595134347_rgbf000120-resize_1-target.png,125,2.967,5,4278,124,feet,jsons/VE125_randls_41.json,842029,1263043,39,Woman
71,670893,DepthScenes,duration_manipulation_targetAtFixation,jsons/VE125_randls_41.json,http://54.235.29.9/FacialAge/BNav_EC2/DepthDuration/v2_depth_duration_MTurk/v2_DepthDuration_HTML.html#467,467,1536,864,1920,1080,8-30-2022,9-56-3,72,depth_duration_stimuli/000709_2014-06-08_13-51-55_260595134347_rgbf000068-resize_3/000709_2014-06-08_13-51-55_260595134347_rgbf000068-resize_3-target.png,125,1.8030000000000002,4,3677,113,feet,jsons/VE125_randls_41.json,842029,1263043,39,Woman
72,670893,DepthScenes,duration_manipulation_targetAtFixation,jsons/VE125_randls_41.json,http://54.235.29.9/FacialAge/BNav_EC2/DepthDuration/v2_depth_duration_MTurk/v2_DepthDuration_HTML.html#467,467,1536,864,1920,1080,8-30-2022,9-56-3,73,depth_duration_stimuli/000788_2014-06-08_22-34-36_260595134347_rgbf000131-resize_1/000788_2014-06-08_22-34-36_260595134347_rgbf000131-resize_1-target.png,125,3.359,5,7476,136,feet,jsons/VE125_randls_41.json,842029,1263043,39,Woman
73,670893,DepthScenes,duration_manipulation_targetAtFixation,jsons/VE125_randls_41.json,http://54.235.29.9/FacialAge/BNav_EC2/DepthDuration/v2_depth_duration_MTurk/v2_DepthDuration_HTML.html#467,467,1536,864,1920,1080,8-30-2022,9-56-3,74,depth_duration_stimuli/001235_2014-06-17_16-37-36_260595134347_rgbf000084-resize_4/001235_2014-06-17_16-37-36_260595134347_rgbf000084-resize_4-target.png,125,3.6605,2,5125,133,feet,jsons/VE125_randls_41.json,842029,1263043,39,Woman
74,670893,DepthScenes,duration_manipulation_targetAtFixation,jsons/VE125_randls_41.json,http://54.235.29.9/FacialAge/BNav_EC2/DepthDuration/v2_depth_duration_MTurk/v2_DepthDuration_HTML.html#467,467,1536,864,1920,1080,8-30-2022,9-56-3,75,depth_duration_stimuli/002784_2014-06-22_19-26-30_094959634447_rgbf000083-resize_3/002784_2014-06-22_19-26-30_094959634447_rgbf000083-resize_3-target.png,125,1.8046666666667,1,3326,140,feet,jsons/VE125_randls_41.json,842029,1263043,39,Woman
75,670893,DepthScenes,duration_manipulation_targetAtFixation,jsons/VE125_randls_41.json,http://54.235.29.9/FacialAge/BNav_EC2/DepthDuration/v2_depth_duration_MTurk/v2_DepthDuration_HTML.html#467,467,1536,864,1920,1080,8-30-2022,9-56-3,76,depth_duration_stimuli/001100_2014-06-15_17-46-26_260595134347_rgbf000225-resize_2/001100_2014-06-15_17-46-26_260595134347_rgbf000225-resize_2-target.png,125,2.24,1,2960,114,feet,jsons/VE125_randls_41.json,842029,1263043,39,Woman
76,670893,DepthScenes,duration_manipulation_targetAtFixation,jsons/VE125_randls_41.json,http://54.235.29.9/FacialAge/BNav_EC2/DepthDuration/v2_depth_duration_MTurk/v2_DepthDuration_HTML.html#467,467,1536,864,1920,1080,8-30-2022,9-56-3,77,depth_duration_stimuli/002043_2014-06-24_20-29-38_260595134347_rgbf000039-resize_4/002043_2014-06-24_20-29-38_260595134347_rgbf000039-resize_4-target.png,125,2.8435,0,3749,109,feet,jsons/VE125_randls_41.json,842029,1263043,39,Woman
77,670893,DepthScenes,duration_manipulation_targetAtFixation,jsons/VE125_randls_41.json,http://54.235.29.9/FacialAge/BNav_EC2/DepthDuration/v2_depth_duration_MTurk/v2_DepthDuration_HTML.html#467,467,1536,864,1920,1080,8-30-2022,9-56-3,78,depth_duration_stimuli/003048_2014-06-15_13-49-43_094959634447_rgbf000150-resize_1/003048_2014-06-15_13-49-43_094959634447_rgbf000150-resize_1-target.png,125,4.0035,3,5430,126,feet,jsons/VE125_randls_41.json,842029,1263043,39,Woman
78,670893,DepthScenes,duration_manipulation_targetAtFixation,jsons/VE125_randls_41.json,http://54.235.29.9/FacialAge/BNav_EC2/DepthDuration/v2_depth_duration_MTurk/v2_DepthDuration_HTML.html#467,467,1536,864,1920,1080,8-30-2022,9-56-3,79,depth_duration_stimuli/000906_2014-06-08_13-35-43_260595134347_rgbf000155-resize_1/000906_2014-06-08_13-35-43_260595134347_rgbf000155-resize_1-target.png,125,2.8489999999999998,4,3191,112,feet,jsons/VE125_randls_41.json,842029,1263043,39,Woman
79,670893,DepthScenes,duration_manipulation_targetAtFixation,jsons/VE125_randls_41.json,http://54.235.29.9/FacialAge/BNav_EC2/DepthDuration/v2_depth_duration_MTurk/v2_DepthDuration_HTML.html#467,467,1536,864,1920,1080,8-30-2022,9-56-3,80,depth_duration_stimuli/002805_2014-06-22_19-54-03_094959634447_rgbf000079-resize_1/002805_2014-06-22_19-54-03_094959634447_rgbf000079-resize_1-target.png,125,3.1439999999999997,5,4519,124,feet,jsons/VE125_randls_41.json,842029,1263043,39,Woman
80,670893,DepthScenes,duration_manipulation_targetAtFixation,jsons/VE125_randls_41.json,http://54.235.29.9/FacialAge/BNav_EC2/DepthDuration/v2_depth_duration_MTurk/v2_DepthDuration_HTML.html#467,467,1536,864,1920,1080,8-30-2022,9-56-3,81,depth_duration_stimuli/000773_2014-06-08_22-24-54_260595134347_rgbf000093-resize_1/000773_2014-06-08_22-24-54_260595134347_rgbf000093-resize_1-target.png,125,4.973,6,5899,125,feet,jsons/VE125_randls_41.json,842029,1263043,39,Woman
81,670893,DepthScenes,duration_manipulation_targetAtFixation,jsons/VE125_randls_41.json,http://54.235.29.9/FacialAge/BNav_EC2/DepthDuration/v2_depth_duration_MTurk/v2_DepthDuration_HTML.html#467,467,1536,864,1920,1080,8-30-2022,9-56-3,82,depth_duration_stimuli/002414_2014-06-28_20-24-58_260595134347_rgbf000067-resize_4/002414_2014-06-28_20-24-58_260595134347_rgbf000067-resize_4-target.png,125,4.363,7,3518,126,feet,jsons/VE125_randls_41.json,842029,1263043,39,Woman
82,670893,DepthScenes,duration_manipulation_targetAtFixation,jsons/VE125_randls_41.json,http://54.235.29.9/FacialAge/BNav_EC2/DepthDuration/v2_depth_duration_MTurk/v2_DepthDuration_HTML.html#467,467,1536,864,1920,1080,8-30-2022,9-56-3,83,depth_duration_stimuli/003492_2014-05-21_15-50-55_094959634447_rgbf000828-resize_1/003492_2014-05-21_15-50-55_094959634447_rgbf000828-resize_1-target.png,125,4.06875,6,3639,112,feet,jsons/VE125_randls_41.json,842029,1263043,39,Woman
83,670893,DepthScenes,duration_manipulation_targetAtFixation,jsons/VE125_randls_41.json,http://54.235.29.9/FacialAge/BNav_EC2/DepthDuration/v2_depth_duration_MTurk/v2_DepthDuration_HTML.html#467,467,1536,864,1920,1080,8-30-2022,9-56-3,84,depth_duration_stimuli/002568_2014-06-24_13-59-21_094959634447_rgbf000062-resize_4/002568_2014-06-24_13-59-21_094959634447_rgbf000062-resize_4-target.png,125,3.015,5,3710,123,feet,jsons/VE125_randls_41.json,842029,1263043,39,Woman
84,670893,DepthScenes,duration_manipulation_targetAtFixation,jsons/VE125_randls_41.json,http://54.235.29.9/FacialAge/BNav_EC2/DepthDuration/v2_depth_duration_MTurk/v2_DepthDuration_HTML.html#467,467,1536,864,1920,1080,8-30-2022,9-56-3,85,depth_duration_stimuli/000642_2014-06-08_16-59-25_260595134347_rgbf000098-resize_2/000642_2014-06-08_16-59-25_260595134347_rgbf000098-resize_2-target.png,125,2.8815,2,3907,129,feet,jsons/VE125_randls_41.json,842029,1263043,39,Woman
85,670893,DepthScenes,duration_manipulation_targetAtFixation,jsons/VE125_randls_41.json,http://54.235.29.9/FacialAge/BNav_EC2/DepthDuration/v2_depth_duration_MTurk/v2_DepthDuration_HTML.html#467,467,1536,864,1920,1080,8-30-2022,9-56-3,86,depth_duration_stimuli/002425_2014-06-28_20-27-29_260595134347_rgbf000031-resize_8/002425_2014-06-28_20-27-29_260595134347_rgbf000031-resize_8-target.png,125,3.8960000000000004,6,3775,120,feet,jsons/VE125_randls_41.json,842029,1263043,39,Woman
86,670893,DepthScenes,duration_manipulation_targetAtFixation,jsons/VE125_randls_41.json,http://54.235.29.9/FacialAge/BNav_EC2/DepthDuration/v2_depth_duration_MTurk/v2_DepthDuration_HTML.html#467,467,1536,864,1920,1080,8-30-2022,9-56-3,87,depth_duration_stimuli/001244_2014-06-17_16-47-45_260595134347_rgbf000030-resize_4/001244_2014-06-17_16-47-45_260595134347_rgbf000030-resize_4-target.png,125,2.0425,2,4213,134,feet,jsons/VE125_randls_41.json,842029,1263043,39,Woman
87,670893,DepthScenes,duration_manipulation_targetAtFixation,jsons/VE125_randls_41.json,http://54.235.29.9/FacialAge/BNav_EC2/DepthDuration/v2_depth_duration_MTurk/v2_DepthDuration_HTML.html#467,467,1536,864,1920,1080,8-30-2022,9-56-3,88,depth_duration_stimuli/003495_2014-05-21_16-01-51_094959634447_rgbf000100-resize_3/003495_2014-05-21_16-01-51_094959634447_rgbf000100-resize_3-target.png,125,1.6255,3,4766,131,feet,jsons/VE125_randls_41.json,842029,1263043,39,Woman
88,670893,DepthScenes,duration_manipulation_targetAtFixation,jsons/VE125_randls_41.json,http://54.235.29.9/FacialAge/BNav_EC2/DepthDuration/v2_depth_duration_MTurk/v2_DepthDuration_HTML.html#467,467,1536,864,1920,1080,8-30-2022,9-56-3,89,depth_duration_stimuli/001110_2014-06-15_17-25-28_260595134347_rgbf000150-resize_1/001110_2014-06-15_17-25-28_260595134347_rgbf000150-resize_1-target.png,125,1.7115,2,3753,127,feet,jsons/VE125_randls_41.json,842029,1263043,39,Woman
89,670893,DepthScenes,duration_manipulation_targetAtFixation,jsons/VE125_randls_41.json,http://54.235.29.9/FacialAge/BNav_EC2/DepthDuration/v2_depth_duration_MTurk/v2_DepthDuration_HTML.html#467,467,1536,864,1920,1080,8-30-2022,9-56-3,90,depth_duration_stimuli/000927_2014-06-09_16-32-30_260595134347_rgbf000123-resize_3/000927_2014-06-09_16-32-30_260595134347_rgbf000123-resize_3-target.png,125,2.6785,4,5440,121,feet,jsons/VE125_randls_41.json,842029,1263043,39,Woman
90,670893,DepthScenes,duration_manipulation_targetAtFixation,jsons/VE125_randls_41.json,http://54.235.29.9/FacialAge/BNav_EC2/DepthDuration/v2_depth_duration_MTurk/v2_DepthDuration_HTML.html#467,467,1536,864,1920,1080,8-30-2022,9-56-3,91,depth_duration_stimuli/000414_2014-06-04_19-49-13_260595134347_rgbf000044-resize_0/000414_2014-06-04_19-49-13_260595134347_rgbf000044-resize_0-target.png,125,4.329,8,4618,128,feet,jsons/VE125_randls_41.json,842029,1263043,39,Woman
91,670893,DepthScenes,duration_manipulation_targetAtFixation,jsons/VE125_randls_41.json,http://54.235.29.9/FacialAge/BNav_EC2/DepthDuration/v2_depth_duration_MTurk/v2_DepthDuration_HTML.html#467,467,1536,864,1920,1080,8-30-2022,9-56-3,92,depth_duration_stimuli/003129_2014-05-12_10-48-10_094959634447_rgbf000100-resize_0/003129_2014-05-12_10-48-10_094959634447_rgbf000100-resize_0-target.png,125,4.9305,7,4714,108,feet,jsons/VE125_randls_41.json,842029,1263043,39,Woman
92,670893,DepthScenes,duration_manipulation_targetAtFixation,jsons/VE125_randls_41.json,http://54.235.29.9/FacialAge/BNav_EC2/DepthDuration/v2_depth_duration_MTurk/v2_DepthDuration_HTML.html#467,467,1536,864,1920,1080,8-30-2022,9-56-3,93,depth_duration_stimuli/000522_2014-06-08_13-35-06_260595134347_rgbf000244-resize_1/000522_2014-06-08_13-35-06_260595134347_rgbf000244-resize_1-target.png,125,2.3715,1,3089,121,feet,jsons/VE125_randls_41.json,842029,1263043,39,Woman
93,670893,DepthScenes,duration_manipulation_targetAtFixation,jsons/VE125_randls_41.json,http://54.235.29.9/FacialAge/BNav_EC2/DepthDuration/v2_depth_duration_MTurk/v2_DepthDuration_HTML.html#467,467,1536,864,1920,1080,8-30-2022,9-56-3,94,depth_duration_stimuli/002949_2014-06-26_15-57-42_094959634447_rgbf000079-resize_1/002949_2014-06-26_15-57-42_094959634447_rgbf000079-resize_1-target.png,125,1.8915,2,3565,130,feet,jsons/VE125_randls_41.json,842029,1263043,39,Woman
94,670893,DepthScenes,duration_manipulation_targetAtFixation,jsons/VE125_randls_41.json,http://54.235.29.9/FacialAge/BNav_EC2/DepthDuration/v2_depth_duration_MTurk/v2_DepthDuration_HTML.html#467,467,1536,864,1920,1080,8-30-2022,9-56-3,95,depth_duration_stimuli/000917_2014-06-09_22-45-29_260595134347_rgbf000149-resize_3/000917_2014-06-09_22-45-29_260595134347_rgbf000149-resize_3-target.png,125,4.1865,4,7914,125,feet,jsons/VE125_randls_41.json,842029,1263043,39,Woman
95,670893,DepthScenes,duration_manipulation_targetAtFixation,jsons/VE125_randls_41.json,http://54.235.29.9/FacialAge/BNav_EC2/DepthDuration/v2_depth_duration_MTurk/v2_DepthDuration_HTML.html#467,467,1536,864,1920,1080,8-30-2022,9-56-3,96,depth_duration_stimuli/002323_2014-06-28_20-01-54_260595134347_rgbf000051-resize_4/002323_2014-06-28_20-01-54_260595134347_rgbf000051-resize_4-target.png,125,3.7310000000000003,6,4176,113,feet,jsons/VE125_randls_41.json,842029,1263043,39,Woman
96,670893,DepthScenes,duration_manipulation_targetAtFixation,jsons/VE125_randls_41.json,http://54.235.29.9/FacialAge/BNav_EC2/DepthDuration/v2_depth_duration_MTurk/v2_DepthDuration_HTML.html#467,467,1536,864,1920,1080,8-30-2022,9-56-3,97,depth_duration_stimuli/001011_2014-06-08_23-18-54_260595134347_rgbf000044-resize_4/001011_2014-06-08_23-18-54_260595134347_rgbf000044-resize_4-target.png,125,2.4730000000000003,0,4080,131,feet,jsons/VE125_randls_41.json,842029,1263043,39,Woman
97,670893,DepthScenes,duration_manipulation_targetAtFixation,jsons/VE125_randls_41.json,http://54.235.29.9/FacialAge/BNav_EC2/DepthDuration/v2_depth_duration_MTurk/v2_DepthDuration_HTML.html#467,467,1536,864,1920,1080,8-30-2022,9-56-3,98,depth_duration_stimuli/002875_2014-06-01_15-19-00_094959634447_rgbf000151-resize_1/002875_2014-06-01_15-19-00_094959634447_rgbf000151-resize_1-target.png,125,1.9675,5,3953,133,feet,jsons/VE125_randls_41.json,842029,1263043,39,Woman
98,670893,DepthScenes,duration_manipulation_targetAtFixation,jsons/VE125_randls_41.json,http://54.235.29.9/FacialAge/BNav_EC2/DepthDuration/v2_depth_duration_MTurk/v2_DepthDuration_HTML.html#467,467,1536,864,1920,1080,8-30-2022,9-56-3,99,depth_duration_stimuli/001540_2014-06-20_17-01-05_260595134347_rgbf000086-resize_2/001540_2014-06-20_17-01-05_260595134347_rgbf000086-resize-original.jpg,125,1.459,0,4010,117,feet,jsons/VE125_randls_41.json,842029,1263043,39,Woman
99,670893,DepthScenes,duration_manipulation_targetAtFixation,jsons/VE125_randls_41.json,http://54.235.29.9/FacialAge/BNav_EC2/DepthDuration/v2_depth_duration_MTurk/v2_DepthDuration_HTML.html#467,467,1536,864,1920,1080,8-30-2022,9-56-3,100,depth_duration_stimuli/002630_2014-06-24_14-47-50_094959634447_rgbf000055-resize_1/002630_2014-06-24_14-47-50_094959634447_rgbf000055-resize_1-target.png,125,3.0095,6,6672,119,feet,jsons/VE125_randls_41.json,842029,1263043,39,Woman
100,670893,DepthScenes,duration_manipulation_targetAtFixation,jsons/VE125_randls_41.json,http://54.235.29.9/FacialAge/BNav_EC2/DepthDuration/v2_depth_duration_MTurk/v2_DepthDuration_HTML.html#467,467,1536,864,1920,1080,8-30-2022,9-56-3,101,depth_duration_stimuli/002758_2014-06-22_19-11-20_094959634447_rgbf000128-resize_1/002758_2014-06-22_19-11-20_094959634447_rgbf000128-resize_1-target.png,125,2.555,3,3856,120,feet,jsons/VE125_randls_41.json,842029,1263043,39,Woman
101,670893,DepthScenes,duration_manipulation_targetAtFixation,jsons/VE125_randls_41.json,http://54.235.29.9/FacialAge/BNav_EC2/DepthDuration/v2_depth_duration_MTurk/v2_DepthDuration_HTML.html#467,467,1536,864,1920,1080,8-30-2022,9-56-3,102,depth_duration_stimuli/002763_2014-06-22_19-13-10_094959634447_rgbf000075-resize_4/002763_2014-06-22_19-13-10_094959634447_rgbf000075-resize_4-target.png,125,1.68375,2,6065,126,feet,jsons/VE125_randls_41.json,842029,1263043,39,Woman
102,670893,DepthScenes,duration_manipulation_targetAtFixation,jsons/VE125_randls_41.json,http://54.235.29.9/FacialAge/BNav_EC2/DepthDuration/v2_depth_duration_MTurk/v2_DepthDuration_HTML.html#467,467,1536,864,1920,1080,8-30-2022,9-56-3,103,depth_duration_stimuli/002209_2014-06-28_18-36-10_260595134347_rgbf000051-resize_1/002209_2014-06-28_18-36-10_260595134347_rgbf000051-resize_1-target.png,125,2.057,4,3405,116,feet,jsons/VE125_randls_41.json,842029,1263043,39,Woman
103,670893,DepthScenes,duration_manipulation_targetAtFixation,jsons/VE125_randls_41.json,http://54.235.29.9/FacialAge/BNav_EC2/DepthDuration/v2_depth_duration_MTurk/v2_DepthDuration_HTML.html#467,467,1536,864,1920,1080,8-30-2022,9-56-3,104,depth_duration_stimuli/002570_2014-06-24_13-59-54_094959634447_rgbf000059-resize_0/002570_2014-06-24_13-59-54_094959634447_rgbf000059-resize_0-target.png,125,4.037,4,4284,138,feet,jsons/VE125_randls_41.json,842029,1263043,39,Woman
104,670893,DepthScenes,duration_manipulation_targetAtFixation,jsons/VE125_randls_41.json,http://54.235.29.9/FacialAge/BNav_EC2/DepthDuration/v2_depth_duration_MTurk/v2_DepthDuration_HTML.html#467,467,1536,864,1920,1080,8-30-2022,9-56-3,105,depth_duration_stimuli/002467_2014-06-28_20-38-07_260595134347_rgbf000026-resize_2/002467_2014-06-28_20-38-07_260595134347_rgbf000026-resize_2-target.png,125,4.742,5,5548,128,feet,jsons/VE125_randls_41.json,842029,1263043,39,Woman
105,670893,DepthScenes,duration_manipulation_targetAtFixation,jsons/VE125_randls_41.json,http://54.235.29.9/FacialAge/BNav_EC2/DepthDuration/v2_depth_duration_MTurk/v2_DepthDuration_HTML.html#467,467,1536,864,1920,1080,8-30-2022,9-56-3,106,depth_duration_stimuli/001808_2014-06-26_20-50-58_260595134347_rgbf000029-resize_1/001808_2014-06-26_20-50-58_260595134347_rgbf000029-resize_1-target.png,125,4.249,0,4513,120,feet,jsons/VE125_randls_41.json,842029,1263043,39,Woman
106,670893,DepthScenes,duration_manipulation_targetAtFixation,jsons/VE125_randls_41.json,http://54.235.29.9/FacialAge/BNav_EC2/DepthDuration/v2_depth_duration_MTurk/v2_DepthDuration_HTML.html#467,467,1536,864,1920,1080,8-30-2022,9-56-3,107,depth_duration_stimuli/001815_2014-06-26_20-52-55_260595134347_rgbf000020-resize_0/001815_2014-06-26_20-52-55_260595134347_rgbf000020-resize_0-target.png,125,3.3865,6,4674,143,feet,jsons/VE125_randls_41.json,842029,1263043,39,Woman
107,670893,DepthScenes,duration_manipulation_targetAtFixation,jsons/VE125_randls_41.json,http://54.235.29.9/FacialAge/BNav_EC2/DepthDuration/v2_depth_duration_MTurk/v2_DepthDuration_HTML.html#467,467,1536,864,1920,1080,8-30-2022,9-56-3,108,depth_duration_stimuli/002964_2014-06-08_17-46-11_094959634447_rgbf000091-resize_4/002964_2014-06-08_17-46-11_094959634447_rgbf000091-resize_4-target.png,125,1.6909999999999998,2,3308,122,feet,jsons/VE125_randls_41.json,842029,1263043,39,Woman
108,670893,DepthScenes,duration_manipulation_targetAtFixation,jsons/VE125_randls_41.json,http://54.235.29.9/FacialAge/BNav_EC2/DepthDuration/v2_depth_duration_MTurk/v2_DepthDuration_HTML.html#467,467,1536,864,1920,1080,8-30-2022,9-56-3,109,depth_duration_stimuli/002136_2014-06-25_21-18-03_260595134347_rgbf000109-resize_3/002136_2014-06-25_21-18-03_260595134347_rgbf000109-resize_3-target.png,125,1.9569999999999999,2,3608,127,feet,jsons/VE125_randls_41.json,842029,1263043,39,Woman
109,670893,DepthScenes,duration_manipulation_targetAtFixation,jsons/VE125_randls_41.json,http://54.235.29.9/FacialAge/BNav_EC2/DepthDuration/v2_depth_duration_MTurk/v2_DepthDuration_HTML.html#467,467,1536,864,1920,1080,8-30-2022,9-56-3,110,depth_duration_stimuli/003534_2014-05-22_15-06-10_094959634447_rgbf000102-resize_4/003534_2014-05-22_15-06-10_094959634447_rgbf000102-resize_4-target.png,125,1.426,2,3470,120,feet,jsons/VE125_randls_41.json,842029,1263043,39,Woman
110,670893,DepthScenes,duration_manipulation_targetAtFixation,jsons/VE125_randls_41.json,http://54.235.29.9/FacialAge/BNav_EC2/DepthDuration/v2_depth_duration_MTurk/v2_DepthDuration_HTML.html#467,467,1536,864,1920,1080,8-30-2022,9-56-3,111,depth_duration_stimuli/002637_2014-06-24_14-51-13_094959634447_rgbf000066-resize_4/002637_2014-06-24_14-51-13_094959634447_rgbf000066-resize_4-target.png,125,1.9955,0,3485,122,feet,jsons/VE125_randls_41.json,842029,1263043,39,Woman
111,670893,DepthScenes,duration_manipulation_targetAtFixation,jsons/VE125_randls_41.json,http://54.235.29.9/FacialAge/BNav_EC2/DepthDuration/v2_depth_duration_MTurk/v2_DepthDuration_HTML.html#467,467,1536,864,1920,1080,8-30-2022,9-56-3,112,depth_duration_stimuli/000739_2014-06-08_18-45-58_260595134347_rgbf000068-resize_1/000739_2014-06-08_18-45-58_260595134347_rgbf000068-resize_1-target.png,125,3.534,5,5435,113,feet,jsons/VE125_randls_41.json,842029,1263043,39,Woman
112,670893,DepthScenes,duration_manipulation_targetAtFixation,jsons/VE125_randls_41.json,http://54.235.29.9/FacialAge/BNav_EC2/DepthDuration/v2_depth_duration_MTurk/v2_DepthDuration_HTML.html#467,467,1536,864,1920,1080,8-30-2022,9-56-3,113,depth_duration_stimuli/000734_2014-06-08_17-39-11_260595134347_rgbf000128-resize_2/000734_2014-06-08_17-39-11_260595134347_rgbf000128-resize_2-target.png,125,4.098,4,5516,123,feet,jsons/VE125_randls_41.json,842029,1263043,39,Woman
113,670893,DepthScenes,duration_manipulation_targetAtFixation,jsons/VE125_randls_41.json,http://54.235.29.9/FacialAge/BNav_EC2/DepthDuration/v2_depth_duration_MTurk/v2_DepthDuration_HTML.html#467,467,1536,864,1920,1080,8-30-2022,9-56-3,114,depth_duration_stimuli/001133_2014-06-17_14-49-16_260595134347_rgbf000100-resize_0/001133_2014-06-17_14-49-16_260595134347_rgbf000100-resize_0-target.png,125,4.2115,6,4246,123,feet,jsons/VE125_randls_41.json,842029,1263043,39,Woman
114,670893,DepthScenes,duration_manipulation_targetAtFixation,jsons/VE125_randls_41.json,http://54.235.29.9/FacialAge/BNav_EC2/DepthDuration/v2_depth_duration_MTurk/v2_DepthDuration_HTML.html#467,467,1536,864,1920,1080,8-30-2022,9-56-3,115,depth_duration_stimuli/001132_2014-06-17_14-48-54_260595134347_rgbf000100-resize_2/001132_2014-06-17_14-48-54_260595134347_rgbf000100-resize_2-target.png,125,3.753,4,4543,124,feet,jsons/VE125_randls_41.json,842029,1263043,39,Woman
115,670893,DepthScenes,duration_manipulation_targetAtFixation,jsons/VE125_randls_41.json,http://54.235.29.9/FacialAge/BNav_EC2/DepthDuration/v2_depth_duration_MTurk/v2_DepthDuration_HTML.html#467,467,1536,864,1920,1080,8-30-2022,9-56-3,116,depth_duration_stimuli/001170_2014-06-17_15-43-44_260595134347_rgbf000096-resize_6/001170_2014-06-17_15-43-44_260595134347_rgbf000096-resize-original.jpg,125,1.1909999999999998,0,3593,115,feet,jsons/VE125_randls_41.json,842029,1263043,39,Woman
116,670893,DepthScenes,duration_manipulation_targetAtFixation,jsons/VE125_randls_41.json,http://54.235.29.9/FacialAge/BNav_EC2/DepthDuration/v2_depth_duration_MTurk/v2_DepthDuration_HTML.html#467,467,1536,864,1920,1080,8-30-2022,9-56-3,117,depth_duration_stimuli/001449_2014-06-19_17-01-27_260595134347_rgbf000116-resize_2/001449_2014-06-19_17-01-27_260595134347_rgbf000116-resize_2-target.png,125,3.452,5,5263,136,feet,jsons/VE125_randls_41.json,842029,1263043,39,Woman
117,670893,DepthScenes,duration_manipulation_targetAtFixation,jsons/VE125_randls_41.json,http://54.235.29.9/FacialAge/BNav_EC2/DepthDuration/v2_depth_duration_MTurk/v2_DepthDuration_HTML.html#467,467,1536,864,1920,1080,8-30-2022,9-56-3,118,depth_duration_stimuli/001450_2014-06-19_17-02-03_260595134347_rgbf000203-resize_4/001450_2014-06-19_17-02-03_260595134347_rgbf000203-resize_4-target.png,125,4.0106666666667,6,4446,120,feet,jsons/VE125_randls_41.json,842029,1263043,39,Woman
118,670893,DepthScenes,duration_manipulation_targetAtFixation,jsons/VE125_randls_41.json,http://54.235.29.9/FacialAge/BNav_EC2/DepthDuration/v2_depth_duration_MTurk/v2_DepthDuration_HTML.html#467,467,1536,864,1920,1080,8-30-2022,9-56-3,119,depth_duration_stimuli/000758_2014-06-08_22-05-08_260595134347_rgbf000085-resize_0/000758_2014-06-08_22-05-08_260595134347_rgbf000085-resize_0-target.png,125,3.3810000000000002,6,5010,123,feet,jsons/VE125_randls_41.json,842029,1263043,39,Woman
119,670893,DepthScenes,duration_manipulation_targetAtFixation,jsons/VE125_randls_41.json,http://54.235.29.9/FacialAge/BNav_EC2/DepthDuration/v2_depth_duration_MTurk/v2_DepthDuration_HTML.html#467,467,1536,864,1920,1080,8-30-2022,9-56-3,120,depth_duration_stimuli/000854_2014-06-09_19-43-13_260595134347_rgbf000066-resize_0/000854_2014-06-09_19-43-13_260595134347_rgbf000066-resize_0-target.png,125,3.068,5,6675,116,feet,jsons/VE125_randls_41.json,842029,1263043,39,Woman
120,670893,DepthScenes,duration_manipulation_targetAtFixation,jsons/VE125_randls_41.json,http://54.235.29.9/FacialAge/BNav_EC2/DepthDuration/v2_depth_duration_MTurk/v2_DepthDuration_HTML.html#467,467,1536,864,1920,1080,8-30-2022,9-56-3,121,depth_duration_stimuli/001199_2014-06-17_16-03-48_260595134347_rgbf000077-resize_0/001199_2014-06-17_16-03-48_260595134347_rgbf000077-resize_0-target.png,125,3.4375,5,4274,116,feet,jsons/VE125_randls_41.json,842029,1263043,39,Woman
121,670893,DepthScenes,duration_manipulation_targetAtFixation,jsons/VE125_randls_41.json,http://54.235.29.9/FacialAge/BNav_EC2/DepthDuration/v2_depth_duration_MTurk/v2_DepthDuration_HTML.html#467,467,1536,864,1920,1080,8-30-2022,9-56-3,122,depth_duration_stimuli/000502_2014-06-08_23-02-32_260595134347_rgbf000063-resize_4/000502_2014-06-08_23-02-32_260595134347_rgbf000063-resize_4-target.png,125,2.431,0,3278,123,feet,jsons/VE125_randls_41.json,842029,1263043,39,Woman
122,670893,DepthScenes,duration_manipulation_targetAtFixation,jsons/VE125_randls_41.json,http://54.235.29.9/FacialAge/BNav_EC2/DepthDuration/v2_depth_duration_MTurk/v2_DepthDuration_HTML.html#467,467,1536,864,1920,1080,8-30-2022,9-56-3,123,depth_duration_stimuli/000486_2014-06-09_20-47-20_260595134347_rgbf000143-resize_2/000486_2014-06-09_20-47-20_260595134347_rgbf000143-resize_2-target.png,125,4.8325,6,14051,110,feet,jsons/VE125_randls_41.json,842029,1263043,39,Woman
123,670893,DepthScenes,duration_manipulation_targetAtFixation,jsons/VE125_randls_41.json,http://54.235.29.9/FacialAge/BNav_EC2/DepthDuration/v2_depth_duration_MTurk/v2_DepthDuration_HTML.html#467,467,1536,864,1920,1080,8-30-2022,9-56-3,124,depth_duration_stimuli/003083_2014-06-15_15-21-03_094959634447_rgbf000063-resize_1/003083_2014-06-15_15-21-03_094959634447_rgbf000063-resize_1-target.png,125,4.1405,7,3571,124,feet,jsons/VE125_randls_41.json,842029,1263043,39,Woman
124,670893,DepthScenes,duration_manipulation_targetAtFixation,jsons/VE125_randls_41.json,http://54.235.29.9/FacialAge/BNav_EC2/DepthDuration/v2_depth_duration_MTurk/v2_DepthDuration_HTML.html#467,467,1536,864,1920,1080,8-30-2022,9-56-3,125,depth_duration_stimuli/002272_2014-06-28_18-53-56_260595134347_rgbf000067-resize_2/002272_2014-06-28_18-53-56_260595134347_rgbf000067-resize_2-target.png,125,1.138,2,3815,125,feet,jsons/VE125_randls_41.json,842029,1263043,39,Woman
125,670893,DepthScenes,duration_manipulation_targetAtFixation,jsons/VE125_randls_41.json,http://54.235.29.9/FacialAge/BNav_EC2/DepthDuration/v2_depth_duration_MTurk/v2_DepthDuration_HTML.html#467,467,1536,864,1920,1080,8-30-2022,9-56-3,126,depth_duration_stimuli/001571_2014-06-20_17-21-32_260595134347_rgbf000089-resize_1/001571_2014-06-20_17-21-32_260595134347_rgbf000089-resize_1-target.png,125,1.86,3,6857,121,feet,jsons/VE125_randls_41.json,842029,1263043,39,Woman
126,670893,DepthScenes,duration_manipulation_targetAtFixation,jsons/VE125_randls_41.json,http://54.235.29.9/FacialAge/BNav_EC2/DepthDuration/v2_depth_duration_MTurk/v2_DepthDuration_HTML.html#467,467,1536,864,1920,1080,8-30-2022,9-56-3,127,depth_duration_stimuli/000506_2014-06-08_23-21-00_260595134347_rgbf000070-resize_7/000506_2014-06-08_23-21-00_260595134347_rgbf000070-resize_7-target.png,125,4.0585,5,3917,130,feet,jsons/VE125_randls_41.json,842029,1263043,39,Woman
127,670893,DepthScenes,duration_manipulation_targetAtFixation,jsons/VE125_randls_41.json,http://54.235.29.9/FacialAge/BNav_EC2/DepthDuration/v2_depth_duration_MTurk/v2_DepthDuration_HTML.html#467,467,1536,864,1920,1080,8-30-2022,9-56-3,128,depth_duration_stimuli/003079_2014-06-15_15-18-20_094959634447_rgbf000152-resize_8/003079_2014-06-15_15-18-20_094959634447_rgbf000152-resize_8-target.png,125,2.8775,6,3579,119,feet,jsons/VE125_randls_41.json,842029,1263043,39,Woman
128,670893,DepthScenes,duration_manipulation_targetAtFixation,jsons/VE125_randls_41.json,http://54.235.29.9/FacialAge/BNav_EC2/DepthDuration/v2_depth_duration_MTurk/v2_DepthDuration_HTML.html#467,467,1536,864,1920,1080,8-30-2022,9-56-3,129,depth_duration_stimuli/003070_2014-06-15_14-58-27_094959634447_rgbf000150-resize_3/003070_2014-06-15_14-58-27_094959634447_rgbf000150-resize_3-target.png,125,2.9415,3,3728,114,feet,jsons/VE125_randls_41.json,842029,1263043,39,Woman
129,670893,DepthScenes,duration_manipulation_targetAtFixation,jsons/VE125_randls_41.json,http://54.235.29.9/FacialAge/BNav_EC2/DepthDuration/v2_depth_duration_MTurk/v2_DepthDuration_HTML.html#467,467,1536,864,1920,1080,8-30-2022,9-56-3,130,depth_duration_stimuli/000943_2014-06-09_19-31-07_260595134347_rgbf000128-resize_1/000943_2014-06-09_19-31-07_260595134347_rgbf000128-resize_1-target.png,125,1.9765,2,5141,113,feet,jsons/VE125_randls_41.json,842029,1263043,39,Woman
130,670893,DepthScenes,duration_manipulation_targetAtFixation,jsons/VE125_randls_41.json,http://54.235.29.9/FacialAge/BNav_EC2/DepthDuration/v2_depth_duration_MTurk/v2_DepthDuration_HTML.html#467,467,1536,864,1920,1080,8-30-2022,9-56-3,131,depth_duration_stimuli/003621_2014-05-23_18-06-08_094959634447_rgbf000101-resize_1/003621_2014-05-23_18-06-08_094959634447_rgbf000101-resize_1-target.png,125,3.9835,6,5841,123,feet,jsons/VE125_randls_41.json,842029,1263043,39,Woman
131,670893,DepthScenes,duration_manipulation_targetAtFixation,jsons/VE125_randls_41.json,http://54.235.29.9/FacialAge/BNav_EC2/DepthDuration/v2_depth_duration_MTurk/v2_DepthDuration_HTML.html#467,467,1536,864,1920,1080,8-30-2022,9-56-3,132,depth_duration_stimuli/001584_2014-06-20_11-07-43_260595134347_rgbf000002-resize_1/001584_2014-06-20_11-07-43_260595134347_rgbf000002-resize_1-target.png,125,3.53,4,8162,123,feet,jsons/VE125_randls_41.json,842029,1263043,39,Woman
132,670893,DepthScenes,duration_manipulation_targetAtFixation,jsons/VE125_randls_41.json,http://54.235.29.9/FacialAge/BNav_EC2/DepthDuration/v2_depth_duration_MTurk/v2_DepthDuration_HTML.html#467,467,1536,864,1920,1080,8-30-2022,9-56-3,133,depth_duration_stimuli/000692_2014-06-08_13-09-42_260595134347_rgbf000199-resize_2/000692_2014-06-08_13-09-42_260595134347_rgbf000199-resize_2-target.png,125,3.661,7,4085,116,feet,jsons/VE125_randls_41.json,842029,1263043,39,Woman
133,670893,DepthScenes,duration_manipulation_targetAtFixation,jsons/VE125_randls_41.json,http://54.235.29.9/FacialAge/BNav_EC2/DepthDuration/v2_depth_duration_MTurk/v2_DepthDuration_HTML.html#467,467,1536,864,1920,1080,8-30-2022,9-56-3,134,depth_duration_stimuli/001094_2014-06-15_17-36-00_260595134347_rgbf000205-resize_0/001094_2014-06-15_17-36-00_260595134347_rgbf000205-resize_0-target.png,125,4.2175,6,5741,133,feet,jsons/VE125_randls_41.json,842029,1263043,39,Woman
134,670893,DepthScenes,duration_manipulation_targetAtFixation,jsons/VE125_randls_41.json,http://54.235.29.9/FacialAge/BNav_EC2/DepthDuration/v2_depth_duration_MTurk/v2_DepthDuration_HTML.html#467,467,1536,864,1920,1080,8-30-2022,9-56-3,135,depth_duration_stimuli/002072_2014-06-24_21-48-06_260595134347_rgbf000115-resize_0/002072_2014-06-24_21-48-06_260595134347_rgbf000115-resize-original.jpg,125,4.702,0,3832,116,feet,jsons/VE125_randls_41.json,842029,1263043,39,Woman
135,670893,DepthScenes,duration_manipulation_targetAtFixation,jsons/VE125_randls_41.json,http://54.235.29.9/FacialAge/BNav_EC2/DepthDuration/v2_depth_duration_MTurk/v2_DepthDuration_HTML.html#467,467,1536,864,1920,1080,8-30-2022,9-56-3,136,depth_duration_stimuli/002153_2014-06-25_21-27-18_260595134347_rgbf000038-resize_5/002153_2014-06-25_21-27-18_260595134347_rgbf000038-resize_5-target.png,125,2.505,2,5714,112,feet,jsons/VE125_randls_41.json,842029,1263043,39,Woman
136,670893,DepthScenes,duration_manipulation_targetAtFixation,jsons/VE125_randls_41.json,http://54.235.29.9/FacialAge/BNav_EC2/DepthDuration/v2_depth_duration_MTurk/v2_DepthDuration_HTML.html#467,467,1536,864,1920,1080,8-30-2022,9-56-3,137,depth_duration_stimuli/002660_2014-06-13_15-44-18_094959634447_rgbf001878-resize_2/002660_2014-06-13_15-44-18_094959634447_rgbf001878-resize_2-target.png,125,3.576,0,3217,123,feet,jsons/VE125_randls_41.json,842029,1263043,39,Woman
137,670893,DepthScenes,duration_manipulation_targetAtFixation,jsons/VE125_randls_41.json,http://54.235.29.9/FacialAge/BNav_EC2/DepthDuration/v2_depth_duration_MTurk/v2_DepthDuration_HTML.html#467,467,1536,864,1920,1080,8-30-2022,9-56-3,138,depth_duration_stimuli/000368_2014-06-09_15-53-01_260595134347_rgbf000155-resize_2/000368_2014-06-09_15-53-01_260595134347_rgbf000155-resize_2-target.png,125,2.4859999999999998,3,7227,130,feet,jsons/VE125_randls_41.json,842029,1263043,39,Woman
138,670893,DepthScenes,duration_manipulation_targetAtFixation,jsons/VE125_randls_41.json,http://54.235.29.9/FacialAge/BNav_EC2/DepthDuration/v2_depth_duration_MTurk/v2_DepthDuration_HTML.html#467,467,1536,864,1920,1080,8-30-2022,9-56-3,139,depth_duration_stimuli/002678_2014-06-13_16-15-32_094959634447_rgbf000151-resize_6/002678_2014-06-13_16-15-32_094959634447_rgbf000151-resize_6-target.png,125,2.1830000000000003,5,3590,116,feet,jsons/VE125_randls_41.json,842029,1263043,39,Woman
139,670893,DepthScenes,duration_manipulation_targetAtFixation,jsons/VE125_randls_41.json,http://54.235.29.9/FacialAge/BNav_EC2/DepthDuration/v2_depth_duration_MTurk/v2_DepthDuration_HTML.html#467,467,1536,864,1920,1080,8-30-2022,9-56-3,140,depth_duration_stimuli/002988_2014-06-15_12-24-20_094959634447_rgbf000150-resize_1/002988_2014-06-15_12-24-20_094959634447_rgbf000150-resize_1-target.png,125,4.7669999999999995,6,5782,124,feet,jsons/VE125_randls_41.json,842029,1263043,39,Woman
140,670893,DepthScenes,duration_manipulation_targetAtFixation,jsons/VE125_randls_41.json,http://54.235.29.9/FacialAge/BNav_EC2/DepthDuration/v2_depth_duration_MTurk/v2_DepthDuration_HTML.html#467,467,1536,864,1920,1080,8-30-2022,9-56-3,141,depth_duration_stimuli/001052_2014-06-08_18-24-54_260595134347_rgbf000130-resize_1/001052_2014-06-08_18-24-54_260595134347_rgbf000130-resize_1-target.png,125,4.1045,6,4247,109,feet,jsons/VE125_randls_41.json,842029,1263043,39,Woman
141,670893,DepthScenes,duration_manipulation_targetAtFixation,jsons/VE125_randls_41.json,http://54.235.29.9/FacialAge/BNav_EC2/DepthDuration/v2_depth_duration_MTurk/v2_DepthDuration_HTML.html#467,467,1536,864,1920,1080,8-30-2022,9-56-3,142,depth_duration_stimuli/001029_2014-06-08_13-17-57_260595134347_rgbf000065-resize_1/001029_2014-06-08_13-17-57_260595134347_rgbf000065-resize_1-target.png,125,3.0835,5,6744,117,feet,jsons/VE125_randls_41.json,842029,1263043,39,Woman
142,670893,DepthScenes,duration_manipulation_targetAtFixation,jsons/VE125_randls_41.json,http://54.235.29.9/FacialAge/BNav_EC2/DepthDuration/v2_depth_duration_MTurk/v2_DepthDuration_HTML.html#467,467,1536,864,1920,1080,8-30-2022,9-56-3,143,depth_duration_stimuli/000677_2014-06-08_23-10-32_260595134347_rgbf000158-resize_6/000677_2014-06-08_23-10-32_260595134347_rgbf000158-resize_6-target.png,125,3.556,5,4001,119,feet,jsons/VE125_randls_41.json,842029,1263043,39,Woman
143,670893,DepthScenes,duration_manipulation_targetAtFixation,jsons/VE125_randls_41.json,http://54.235.29.9/FacialAge/BNav_EC2/DepthDuration/v2_depth_duration_MTurk/v2_DepthDuration_HTML.html#467,467,1536,864,1920,1080,8-30-2022,9-56-3,144,depth_duration_stimuli/000878_2014-06-08_22-52-45_260595134347_rgbf000045-resize_2/000878_2014-06-08_22-52-45_260595134347_rgbf000045-resize_2-target.png,125,2.092,5,3754,136,feet,jsons/VE125_randls_41.json,842029,1263043,39,Woman
144,670893,DepthScenes,duration_manipulation_targetAtFixation,jsons/VE125_randls_41.json,http://54.235.29.9/FacialAge/BNav_EC2/DepthDuration/v2_depth_duration_MTurk/v2_DepthDuration_HTML.html#467,467,1536,864,1920,1080,8-30-2022,9-56-3,145,depth_duration_stimuli/002953_2014-06-08_17-32-18_094959634447_rgbf000059-resize_5/002953_2014-06-08_17-32-18_094959634447_rgbf000059-resize_5-target.png,125,1.551,0,3361,116,feet,jsons/VE125_randls_41.json,842029,1263043,39,Woman
145,670893,DepthScenes,duration_manipulation_targetAtFixation,jsons/VE125_randls_41.json,http://54.235.29.9/FacialAge/BNav_EC2/DepthDuration/v2_depth_duration_MTurk/v2_DepthDuration_HTML.html#467,467,1536,864,1920,1080,8-30-2022,9-56-3,146,depth_duration_stimuli/001498_2014-06-19_17-45-14_260595134347_rgbf000129-resize_4/001498_2014-06-19_17-45-14_260595134347_rgbf000129-resize-original.jpg,125,1.4075,0,3253,108,feet,jsons/VE125_randls_41.json,842029,1263043,39,Woman
146,670893,DepthScenes,duration_manipulation_targetAtFixation,jsons/VE125_randls_41.json,http://54.235.29.9/FacialAge/BNav_EC2/DepthDuration/v2_depth_duration_MTurk/v2_DepthDuration_HTML.html#467,467,1536,864,1920,1080,8-30-2022,9-56-3,147,depth_duration_stimuli/001059_2014-06-08_21-53-27_260595134347_rgbf000061-resize_4/001059_2014-06-08_21-53-27_260595134347_rgbf000061-resize_4-target.png,125,2.4185,2,3489,116,feet,jsons/VE125_randls_41.json,842029,1263043,39,Woman
147,670893,DepthScenes,duration_manipulation_targetAtFixation,jsons/VE125_randls_41.json,http://54.235.29.9/FacialAge/BNav_EC2/DepthDuration/v2_depth_duration_MTurk/v2_DepthDuration_HTML.html#467,467,1536,864,1920,1080,8-30-2022,9-56-3,148,depth_duration_stimuli/001032_2014-06-08_13-23-17_260595134347_rgbf000021-resize_3/001032_2014-06-08_13-23-17_260595134347_rgbf000021-resize_3-target.png,125,3.2725,1,3001,129,feet,jsons/VE125_randls_41.json,842029,1263043,39,Woman
148,670893,DepthScenes,duration_manipulation_targetAtFixation,jsons/VE125_randls_41.json,http://54.235.29.9/FacialAge/BNav_EC2/DepthDuration/v2_depth_duration_MTurk/v2_DepthDuration_HTML.html#467,467,1536,864,1920,1080,8-30-2022,9-56-3,149,depth_duration_stimuli/001092_2014-06-15_17-34-58_260595134347_rgbf000171-resize_3/001092_2014-06-15_17-34-58_260595134347_rgbf000171-resize_3-target.png,125,2.6935,2,3406,129,feet,jsons/VE125_randls_41.json,842029,1263043,39,Woman
149,670893,DepthScenes,duration_manipulation_targetAtFixation,jsons/VE125_randls_41.json,http://54.235.29.9/FacialAge/BNav_EC2/DepthDuration/v2_depth_duration_MTurk/v2_DepthDuration_HTML.html#467,467,1536,864,1920,1080,8-30-2022,9-56-3,150,depth_duration_stimuli/002545_2014-06-24_13-38-53_094959634447_rgbf000080-resize_4/002545_2014-06-24_13-38-53_094959634447_rgbf000080-resize_4-target.png,125,1.9205,3,3425,116,feet,jsons/VE125_randls_41.json,842029,1263043,39,Woman
150,670893,DepthScenes,duration_manipulation_targetAtFixation,jsons/VE125_randls_41.json,http://54.235.29.9/FacialAge/BNav_EC2/DepthDuration/v2_depth_duration_MTurk/v2_DepthDuration_HTML.html#467,467,1536,864,1920,1080,8-30-2022,9-56-3,151,depth_duration_stimuli/000682_2014-06-08_23-14-58_260595134347_rgbf000041-resize_5/000682_2014-06-08_23-14-58_260595134347_rgbf000041-resize_5-target.png,125,2.7239999999999998,4,4300,124,feet,jsons/VE125_randls_41.json,842029,1263043,39,Woman
151,670893,DepthScenes,duration_manipulation_targetAtFixation,jsons/VE125_randls_41.json,http://54.235.29.9/FacialAge/BNav_EC2/DepthDuration/v2_depth_duration_MTurk/v2_DepthDuration_HTML.html#467,467,1536,864,1920,1080,8-30-2022,9-56-3,152,depth_duration_stimuli/001650_2014-06-20_12-09-00_260595134347_rgbf000087-resize_3/001650_2014-06-20_12-09-00_260595134347_rgbf000087-resize_3-target.png,125,1.9505,2,3609,120,feet,jsons/VE125_randls_41.json,842029,1263043,39,Woman
152,670893,DepthScenes,duration_manipulation_targetAtFixation,jsons/VE125_randls_41.json,http://54.235.29.9/FacialAge/BNav_EC2/DepthDuration/v2_depth_duration_MTurk/v2_DepthDuration_HTML.html#467,467,1536,864,1920,1080,8-30-2022,9-56-3,153,depth_duration_stimuli/000469_2014-06-09_19-42-10_260595134347_rgbf000081-resize_1/000469_2014-06-09_19-42-10_260595134347_rgbf000081-resize_1-target.png,125,1.652,1,5171,134,feet,jsons/VE125_randls_41.json,842029,1263043,39,Woman
153,670893,DepthScenes,duration_manipulation_targetAtFixation,jsons/VE125_randls_41.json,http://54.235.29.9/FacialAge/BNav_EC2/DepthDuration/v2_depth_duration_MTurk/v2_DepthDuration_HTML.html#467,467,1536,864,1920,1080,8-30-2022,9-56-3,154,depth_duration_stimuli/000483_2014-06-09_20-41-45_260595134347_rgbf000116-resize_4/000483_2014-06-09_20-41-45_260595134347_rgbf000116-resize_4-target.png,125,1.337,1,4274,114,feet,jsons/VE125_randls_41.json,842029,1263043,39,Woman
154,670893,DepthScenes,duration_manipulation_targetAtFixation,jsons/VE125_randls_41.json,http://54.235.29.9/FacialAge/BNav_EC2/DepthDuration/v2_depth_duration_MTurk/v2_DepthDuration_HTML.html#467,467,1536,864,1920,1080,8-30-2022,9-56-3,155,depth_duration_stimuli/002549_2014-06-24_13-41-39_094959634447_rgbf000022-resize_3/002549_2014-06-24_13-41-39_094959634447_rgbf000022-resize_3-target.png,125,1.476,0,13842,134,feet,jsons/VE125_randls_41.json,842029,1263043,39,Woman
155,670893,DepthScenes,duration_manipulation_targetAtFixation,jsons/VE125_randls_41.json,http://54.235.29.9/FacialAge/BNav_EC2/DepthDuration/v2_depth_duration_MTurk/v2_DepthDuration_HTML.html#467,467,1536,864,1920,1080,8-30-2022,9-56-3,156,depth_duration_stimuli/002750_2014-06-22_19-08-03_094959634447_rgbf000094-resize_4/002750_2014-06-22_19-08-03_094959634447_rgbf000094-resize_4-target.png,125,2.354,5,3513,119,feet,jsons/VE125_randls_41.json,842029,1263043,39,Woman
156,670893,DepthScenes,duration_manipulation_targetAtFixation,jsons/VE125_randls_41.json,http://54.235.29.9/FacialAge/BNav_EC2/DepthDuration/v2_depth_duration_MTurk/v2_DepthDuration_HTML.html#467,467,1536,864,1920,1080,8-30-2022,9-56-3,157,depth_duration_stimuli/002725_2014-06-22_11-47-51_094959634447_rgbf000070-resize_1/002725_2014-06-22_11-47-51_094959634447_rgbf000070-resize_1-target.png,125,2.195,3,4332,125,feet,jsons/VE125_randls_41.json,842029,1263043,39,Woman
157,670893,DepthScenes,duration_manipulation_targetAtFixation,jsons/VE125_randls_41.json,http://54.235.29.9/FacialAge/BNav_EC2/DepthDuration/v2_depth_duration_MTurk/v2_DepthDuration_HTML.html#467,467,1536,864,1920,1080,8-30-2022,9-56-3,158,depth_duration_stimuli/002344_2014-06-28_20-06-29_260595134347_rgbf000030-resize_1/002344_2014-06-28_20-06-29_260595134347_rgbf000030-resize_1-target.png,125,1.5795,1,3663,129,feet,jsons/VE125_randls_41.json,842029,1263043,39,Woman
158,670893,DepthScenes,duration_manipulation_targetAtFixation,jsons/VE125_randls_41.json,http://54.235.29.9/FacialAge/BNav_EC2/DepthDuration/v2_depth_duration_MTurk/v2_DepthDuration_HTML.html#467,467,1536,864,1920,1080,8-30-2022,9-56-3,159,depth_duration_stimuli/002989_2014-06-15_12-25-03_094959634447_rgbf000150-resize_3/002989_2014-06-15_12-25-03_094959634447_rgbf000150-resize_3-target.png,125,4.1975,0,3939,115,feet,jsons/VE125_randls_41.json,842029,1263043,39,Woman
159,670893,DepthScenes,duration_manipulation_targetAtFixation,jsons/VE125_randls_41.json,http://54.235.29.9/FacialAge/BNav_EC2/DepthDuration/v2_depth_duration_MTurk/v2_DepthDuration_HTML.html#467,467,1536,864,1920,1080,8-30-2022,9-56-3,160,depth_duration_stimuli/000866_2014-06-09_20-45-42_260595134347_rgbf000139-resize_1/000866_2014-06-09_20-45-42_260595134347_rgbf000139-resize_1-target.png,125,3.2155,0,3456,123,feet,jsons/VE125_randls_41.json,842029,1263043,39,Woman
160,670893,DepthScenes,duration_manipulation_targetAtFixation,jsons/VE125_randls_41.json,http://54.235.29.9/FacialAge/BNav_EC2/DepthDuration/v2_depth_duration_MTurk/v2_DepthDuration_HTML.html#467,467,1536,864,1920,1080,8-30-2022,9-56-3,161,depth_duration_stimuli/001056_2014-06-08_18-46-44_260595134347_rgbf000068-resize_0/001056_2014-06-08_18-46-44_260595134347_rgbf000068-resize_0-target.png,125,2.6625,5,4528,124,feet,jsons/VE125_randls_41.json,842029,1263043,39,Woman
161,670893,DepthScenes,duration_manipulation_targetAtFixation,jsons/VE125_randls_41.json,http://54.235.29.9/FacialAge/BNav_EC2/DepthDuration/v2_depth_duration_MTurk/v2_DepthDuration_HTML.html#467,467,1536,864,1920,1080,8-30-2022,9-56-3,162,depth_duration_stimuli/002199_2014-06-28_18-33-56_260595134347_rgbf000074-resize_0/002199_2014-06-28_18-33-56_260595134347_rgbf000074-resize_0-target.png,125,1.996,1,4429,128,feet,jsons/VE125_randls_41.json,842029,1263043,39,Woman
162,670893,DepthScenes,duration_manipulation_targetAtFixation,jsons/VE125_randls_41.json,http://54.235.29.9/FacialAge/BNav_EC2/DepthDuration/v2_depth_duration_MTurk/v2_DepthDuration_HTML.html#467,467,1536,864,1920,1080,8-30-2022,9-56-3,163,depth_duration_stimuli/001417_2014-06-19_16-25-36_260595134347_rgbf000115-resize_5/001417_2014-06-19_16-25-36_260595134347_rgbf000115-resize_5-target.png,125,4.6255,2,3594,109,feet,jsons/VE125_randls_41.json,842029,1263043,39,Woman
163,670893,DepthScenes,duration_manipulation_targetAtFixation,jsons/VE125_randls_41.json,http://54.235.29.9/FacialAge/BNav_EC2/DepthDuration/v2_depth_duration_MTurk/v2_DepthDuration_HTML.html#467,467,1536,864,1920,1080,8-30-2022,9-56-3,164,depth_duration_stimuli/003081_2014-06-15_15-19-16_094959634447_rgbf000150-resize_1/003081_2014-06-15_15-19-16_094959634447_rgbf000150-resize_1-target.png,125,3.9125,4,4037,122,feet,jsons/VE125_randls_41.json,842029,1263043,39,Woman
