,subjID,experimentName,versionName,sequenceName,url,selected_row,windowWidth,windowHeight,screenWidth,screenHeight,startDate,startTime,trial,stimulus,duration,actual_depth,depth_estimate,trial_RT,log_sceneDuration,unitSelection,seq_filepath,experimentTime,totalTime,age,gender
0,673496,DepthScenes,duration_manipulation_targetAtFixation,jsons/VE125_randls_50.json,http://54.235.29.9/FacialAge/BNav_EC2/DepthDuration/v2_depth_duration_MTurk/v2_DepthDuration_HTML.html#104,104,1440,789,1440,900,8-21-2022,9-38-56,1,depth_duration_stimuli/001175_2014-06-17_15-45-55_260595134347_rgbf000129-resize_4/001175_2014-06-17_15-45-55_260595134347_rgbf000129-resize_4-target.png,125,4.255,55,3204,123,meters,jsons/VE125_randls_50.json,1226058,1560529,30,Woman
1,673496,DepthScenes,duration_manipulation_targetAtFixation,jsons/VE125_randls_50.json,http://54.235.29.9/FacialAge/BNav_EC2/DepthDuration/v2_depth_duration_MTurk/v2_DepthDuration_HTML.html#104,104,1440,789,1440,900,8-21-2022,9-38-56,2,depth_duration_stimuli/003490_2014-05-21_15-50-11_094959634447_rgbf000101-resize_3/003490_2014-05-21_15-50-11_094959634447_rgbf000101-resize_3-target.png,125,3.6445,50,34433,125,meters,jsons/VE125_randls_50.json,1226058,1560529,30,Woman
2,673496,DepthScenes,duration_manipulation_targetAtFixation,jsons/VE125_randls_50.json,http://54.235.29.9/FacialAge/BNav_EC2/DepthDuration/v2_depth_duration_MTurk/v2_DepthDuration_HTML.html#104,104,1440,789,1440,900,8-21-2022,9-38-56,3,depth_duration_stimuli/003621_2014-05-23_18-06-08_094959634447_rgbf000101-resize_1/003621_2014-05-23_18-06-08_094959634447_rgbf000101-resize_1-target.png,125,3.9835,50,5395,125,meters,jsons/VE125_randls_50.json,1226058,1560529,30,Woman
3,673496,DepthScenes,duration_manipulation_targetAtFixation,jsons/VE125_randls_50.json,http://54.235.29.9/FacialAge/BNav_EC2/DepthDuration/v2_depth_duration_MTurk/v2_DepthDuration_HTML.html#104,104,1440,789,1440,900,8-21-2022,9-38-56,4,depth_duration_stimuli/001584_2014-06-20_11-07-43_260595134347_rgbf000002-resize_1/001584_2014-06-20_11-07-43_260595134347_rgbf000002-resize_1-target.png,125,3.53,0,2819,125,meters,jsons/VE125_randls_50.json,1226058,1560529,30,Woman
4,673496,DepthScenes,duration_manipulation_targetAtFixation,jsons/VE125_randls_50.json,http://54.235.29.9/FacialAge/BNav_EC2/DepthDuration/v2_depth_duration_MTurk/v2_DepthDuration_HTML.html#104,104,1440,789,1440,900,8-21-2022,9-38-56,5,depth_duration_stimuli/001199_2014-06-17_16-03-48_260595134347_rgbf000077-resize_0/001199_2014-06-17_16-03-48_260595134347_rgbf000077-resize_0-target.png,125,3.4375,55,2737,124,meters,jsons/VE125_randls_50.json,1226058,1560529,30,Woman
5,673496,DepthScenes,duration_manipulation_targetAtFixation,jsons/VE125_randls_50.json,http://54.235.29.9/FacialAge/BNav_EC2/DepthDuration/v2_depth_duration_MTurk/v2_DepthDuration_HTML.html#104,104,1440,789,1440,900,8-21-2022,9-38-56,6,depth_duration_stimuli/000502_2014-06-08_23-02-32_260595134347_rgbf000063-resize_4/000502_2014-06-08_23-02-32_260595134347_rgbf000063-resize_4-target.png,125,2.431,65,3832,125,meters,jsons/VE125_randls_50.json,1226058,1560529,30,Woman
6,673496,DepthScenes,duration_manipulation_targetAtFixation,jsons/VE125_randls_50.json,http://54.235.29.9/FacialAge/BNav_EC2/DepthDuration/v2_depth_duration_MTurk/v2_DepthDuration_HTML.html#104,104,1440,789,1440,900,8-21-2022,9-38-56,7,depth_duration_stimuli/000682_2014-06-08_23-14-58_260595134347_rgbf000041-resize_5/000682_2014-06-08_23-14-58_260595134347_rgbf000041-resize_5-target.png,125,2.7239999999999998,55,3490,124,meters,jsons/VE125_randls_50.json,1226058,1560529,30,Woman
7,673496,DepthScenes,duration_manipulation_targetAtFixation,jsons/VE125_randls_50.json,http://54.235.29.9/FacialAge/BNav_EC2/DepthDuration/v2_depth_duration_MTurk/v2_DepthDuration_HTML.html#104,104,1440,789,1440,900,8-21-2022,9-38-56,8,depth_duration_stimuli/001650_2014-06-20_12-09-00_260595134347_rgbf000087-resize_3/001650_2014-06-20_12-09-00_260595134347_rgbf000087-resize_3-target.png,125,1.9505,56,6494,125,meters,jsons/VE125_randls_50.json,1226058,1560529,30,Woman
8,673496,DepthScenes,duration_manipulation_targetAtFixation,jsons/VE125_randls_50.json,http://54.235.29.9/FacialAge/BNav_EC2/DepthDuration/v2_depth_duration_MTurk/v2_DepthDuration_HTML.html#104,104,1440,789,1440,900,8-21-2022,9-38-56,9,depth_duration_stimuli/002279_2014-06-28_18-55-32_260595134347_rgbf000040-resize_5/002279_2014-06-28_18-55-32_260595134347_rgbf000040-resize_5-target.png,125,1.5043333333333,55,3512,124,meters,jsons/VE125_randls_50.json,1226058,1560529,30,Woman
9,673496,DepthScenes,duration_manipulation_targetAtFixation,jsons/VE125_randls_50.json,http://54.235.29.9/FacialAge/BNav_EC2/DepthDuration/v2_depth_duration_MTurk/v2_DepthDuration_HTML.html#104,104,1440,789,1440,900,8-21-2022,9-38-56,10,depth_duration_stimuli/000635_2014-06-08_16-38-42_260595134347_rgbf000106-resize_1/000635_2014-06-08_16-38-42_260595134347_rgbf000106-resize_1-target.png,125,2.074,55,3459,126,meters,jsons/VE125_randls_50.json,1226058,1560529,30,Woman
10,673496,DepthScenes,duration_manipulation_targetAtFixation,jsons/VE125_randls_50.json,http://54.235.29.9/FacialAge/BNav_EC2/DepthDuration/v2_depth_duration_MTurk/v2_DepthDuration_HTML.html#104,104,1440,789,1440,900,8-21-2022,9-38-56,11,depth_duration_stimuli/002763_2014-06-22_19-13-10_094959634447_rgbf000075-resize_4/002763_2014-06-22_19-13-10_094959634447_rgbf000075-resize_4-target.png,125,1.68375,52,80266,125,meters,jsons/VE125_randls_50.json,1226058,1560529,30,Woman
11,673496,DepthScenes,duration_manipulation_targetAtFixation,jsons/VE125_randls_50.json,http://54.235.29.9/FacialAge/BNav_EC2/DepthDuration/v2_depth_duration_MTurk/v2_DepthDuration_HTML.html#104,104,1440,789,1440,900,8-21-2022,9-38-56,12,depth_duration_stimuli/002209_2014-06-28_18-36-10_260595134347_rgbf000051-resize_1/002209_2014-06-28_18-36-10_260595134347_rgbf000051-resize_1-target.png,125,2.057,54,4131,125,meters,jsons/VE125_randls_50.json,1226058,1560529,30,Woman
12,673496,DepthScenes,duration_manipulation_targetAtFixation,jsons/VE125_randls_50.json,http://54.235.29.9/FacialAge/BNav_EC2/DepthDuration/v2_depth_duration_MTurk/v2_DepthDuration_HTML.html#104,104,1440,789,1440,900,8-21-2022,9-38-56,13,depth_duration_stimuli/000569_2014-06-09_22-51-47_260595134347_rgbf000141-resize_3/000569_2014-06-09_22-51-47_260595134347_rgbf000141-resize-original.jpg,125,4.512,55,5298,126,meters,jsons/VE125_randls_50.json,1226058,1560529,30,Woman
13,673496,DepthScenes,duration_manipulation_targetAtFixation,jsons/VE125_randls_50.json,http://54.235.29.9/FacialAge/BNav_EC2/DepthDuration/v2_depth_duration_MTurk/v2_DepthDuration_HTML.html#104,104,1440,789,1440,900,8-21-2022,9-38-56,14,depth_duration_stimuli/002600_2014-06-24_14-27-04_094959634447_rgbf000074-resize_2/002600_2014-06-24_14-27-04_094959634447_rgbf000074-resize_2-target.png,125,2.7575,55,4923,124,meters,jsons/VE125_randls_50.json,1226058,1560529,30,Woman
14,673496,DepthScenes,duration_manipulation_targetAtFixation,jsons/VE125_randls_50.json,http://54.235.29.9/FacialAge/BNav_EC2/DepthDuration/v2_depth_duration_MTurk/v2_DepthDuration_HTML.html#104,104,1440,789,1440,900,8-21-2022,9-38-56,15,depth_duration_stimuli/003228_2014-05-14_13-42-35_094959634447_rgbf000101-resize_1/003228_2014-05-14_13-42-35_094959634447_rgbf000101-resize_1-target.png,125,1.9680000000000002,65,2833,124,meters,jsons/VE125_randls_50.json,1226058,1560529,30,Woman
15,673496,DepthScenes,duration_manipulation_targetAtFixation,jsons/VE125_randls_50.json,http://54.235.29.9/FacialAge/BNav_EC2/DepthDuration/v2_depth_duration_MTurk/v2_DepthDuration_HTML.html#104,104,1440,789,1440,900,8-21-2022,9-38-56,16,depth_duration_stimuli/000447_2014-06-08_16-15-46_260595134347_rgbf000130-resize_1/000447_2014-06-08_16-15-46_260595134347_rgbf000130-resize_1-target.png,125,4.479,45,3956,125,meters,jsons/VE125_randls_50.json,1226058,1560529,30,Woman
16,673496,DepthScenes,duration_manipulation_targetAtFixation,jsons/VE125_randls_50.json,http://54.235.29.9/FacialAge/BNav_EC2/DepthDuration/v2_depth_duration_MTurk/v2_DepthDuration_HTML.html#104,104,1440,789,1440,900,8-21-2022,9-38-56,17,depth_duration_stimuli/001447_2014-06-19_17-00-32_260595134347_rgbf000082-resize_5/001447_2014-06-19_17-00-32_260595134347_rgbf000082-resize_5-target.png,125,4.13775,65,6141,125,meters,jsons/VE125_randls_50.json,1226058,1560529,30,Woman
17,673496,DepthScenes,duration_manipulation_targetAtFixation,jsons/VE125_randls_50.json,http://54.235.29.9/FacialAge/BNav_EC2/DepthDuration/v2_depth_duration_MTurk/v2_DepthDuration_HTML.html#104,104,1440,789,1440,900,8-21-2022,9-38-56,18,depth_duration_stimuli/002630_2014-06-24_14-47-50_094959634447_rgbf000055-resize_1/002630_2014-06-24_14-47-50_094959634447_rgbf000055-resize_1-target.png,125,3.0095,55,2873,124,meters,jsons/VE125_randls_50.json,1226058,1560529,30,Woman
18,673496,DepthScenes,duration_manipulation_targetAtFixation,jsons/VE125_randls_50.json,http://54.235.29.9/FacialAge/BNav_EC2/DepthDuration/v2_depth_duration_MTurk/v2_DepthDuration_HTML.html#104,104,1440,789,1440,900,8-21-2022,9-38-56,19,depth_duration_stimuli/002758_2014-06-22_19-11-20_094959634447_rgbf000128-resize_1/002758_2014-06-22_19-11-20_094959634447_rgbf000128-resize_1-target.png,125,2.555,75,3779,124,meters,jsons/VE125_randls_50.json,1226058,1560529,30,Woman
19,673496,DepthScenes,duration_manipulation_targetAtFixation,jsons/VE125_randls_50.json,http://54.235.29.9/FacialAge/BNav_EC2/DepthDuration/v2_depth_duration_MTurk/v2_DepthDuration_HTML.html#104,104,1440,789,1440,900,8-21-2022,9-38-56,20,depth_duration_stimuli/002725_2014-06-22_11-47-51_094959634447_rgbf000070-resize_1/002725_2014-06-22_11-47-51_094959634447_rgbf000070-resize_1-target.png,125,2.195,58,3035,124,meters,jsons/VE125_randls_50.json,1226058,1560529,30,Woman
20,673496,DepthScenes,duration_manipulation_targetAtFixation,jsons/VE125_randls_50.json,http://54.235.29.9/FacialAge/BNav_EC2/DepthDuration/v2_depth_duration_MTurk/v2_DepthDuration_HTML.html#104,104,1440,789,1440,900,8-21-2022,9-38-56,21,depth_duration_stimuli/002344_2014-06-28_20-06-29_260595134347_rgbf000030-resize_1/002344_2014-06-28_20-06-29_260595134347_rgbf000030-resize_1-target.png,125,1.5795,67,3019,126,meters,jsons/VE125_randls_50.json,1226058,1560529,30,Woman
21,673496,DepthScenes,duration_manipulation_targetAtFixation,jsons/VE125_randls_50.json,http://54.235.29.9/FacialAge/BNav_EC2/DepthDuration/v2_depth_duration_MTurk/v2_DepthDuration_HTML.html#104,104,1440,789,1440,900,8-21-2022,9-38-56,22,depth_duration_stimuli/003070_2014-06-15_14-58-27_094959634447_rgbf000150-resize_3/003070_2014-06-15_14-58-27_094959634447_rgbf000150-resize_3-target.png,125,2.9415,77,3066,125,meters,jsons/VE125_randls_50.json,1226058,1560529,30,Woman
22,673496,DepthScenes,duration_manipulation_targetAtFixation,jsons/VE125_randls_50.json,http://54.235.29.9/FacialAge/BNav_EC2/DepthDuration/v2_depth_duration_MTurk/v2_DepthDuration_HTML.html#104,104,1440,789,1440,900,8-21-2022,9-38-56,23,depth_duration_stimuli/000943_2014-06-09_19-31-07_260595134347_rgbf000128-resize_1/000943_2014-06-09_19-31-07_260595134347_rgbf000128-resize_1-target.png,125,1.9765,79,5016,126,meters,jsons/VE125_randls_50.json,1226058,1560529,30,Woman
23,673496,DepthScenes,duration_manipulation_targetAtFixation,jsons/VE125_randls_50.json,http://54.235.29.9/FacialAge/BNav_EC2/DepthDuration/v2_depth_duration_MTurk/v2_DepthDuration_HTML.html#104,104,1440,789,1440,900,8-21-2022,9-38-56,24,depth_duration_stimuli/001029_2014-06-08_13-17-57_260595134347_rgbf000065-resize_1/001029_2014-06-08_13-17-57_260595134347_rgbf000065-resize_1-target.png,125,3.0835,0,104036,125,meters,jsons/VE125_randls_50.json,1226058,1560529,30,Woman
24,673496,DepthScenes,duration_manipulation_targetAtFixation,jsons/VE125_randls_50.json,http://54.235.29.9/FacialAge/BNav_EC2/DepthDuration/v2_depth_duration_MTurk/v2_DepthDuration_HTML.html#104,104,1440,789,1440,900,8-21-2022,9-38-56,25,depth_duration_stimuli/000677_2014-06-08_23-10-32_260595134347_rgbf000158-resize_6/000677_2014-06-08_23-10-32_260595134347_rgbf000158-resize_6-target.png,125,3.556,55,3297,124,meters,jsons/VE125_randls_50.json,1226058,1560529,30,Woman
25,673496,DepthScenes,duration_manipulation_targetAtFixation,jsons/VE125_randls_50.json,http://54.235.29.9/FacialAge/BNav_EC2/DepthDuration/v2_depth_duration_MTurk/v2_DepthDuration_HTML.html#104,104,1440,789,1440,900,8-21-2022,9-38-56,26,depth_duration_stimuli/002039_2014-06-24_20-22-38_260595134347_rgbf000084-resize_1/002039_2014-06-24_20-22-38_260595134347_rgbf000084-resize_1-target.png,125,4.408,54,2684,126,meters,jsons/VE125_randls_50.json,1226058,1560529,30,Woman
26,673496,DepthScenes,duration_manipulation_targetAtFixation,jsons/VE125_randls_50.json,http://54.235.29.9/FacialAge/BNav_EC2/DepthDuration/v2_depth_duration_MTurk/v2_DepthDuration_HTML.html#104,104,1440,789,1440,900,8-21-2022,9-38-56,27,depth_duration_stimuli/002103_2014-06-25_20-00-40_260595134347_rgbf000049-resize_0/002103_2014-06-25_20-00-40_260595134347_rgbf000049-resize_0-target.png,125,4.105,0,2728,125,meters,jsons/VE125_randls_50.json,1226058,1560529,30,Woman
27,673496,DepthScenes,duration_manipulation_targetAtFixation,jsons/VE125_randls_50.json,http://54.235.29.9/FacialAge/BNav_EC2/DepthDuration/v2_depth_duration_MTurk/v2_DepthDuration_HTML.html#104,104,1440,789,1440,900,8-21-2022,9-38-56,28,depth_duration_stimuli/002784_2014-06-22_19-26-30_094959634447_rgbf000083-resize_3/002784_2014-06-22_19-26-30_094959634447_rgbf000083-resize_3-target.png,125,1.8046666666667,0,2602,125,meters,jsons/VE125_randls_50.json,1226058,1560529,30,Woman
28,673496,DepthScenes,duration_manipulation_targetAtFixation,jsons/VE125_randls_50.json,http://54.235.29.9/FacialAge/BNav_EC2/DepthDuration/v2_depth_duration_MTurk/v2_DepthDuration_HTML.html#104,104,1440,789,1440,900,8-21-2022,9-38-56,29,depth_duration_stimuli/001100_2014-06-15_17-46-26_260595134347_rgbf000225-resize_2/001100_2014-06-15_17-46-26_260595134347_rgbf000225-resize_2-target.png,125,2.24,64,2844,125,meters,jsons/VE125_randls_50.json,1226058,1560529,30,Woman
29,673496,DepthScenes,duration_manipulation_targetAtFixation,jsons/VE125_randls_50.json,http://54.235.29.9/FacialAge/BNav_EC2/DepthDuration/v2_depth_duration_MTurk/v2_DepthDuration_HTML.html#104,104,1440,789,1440,900,8-21-2022,9-38-56,30,depth_duration_stimuli/000375_2014-06-08_11-17-29_260595134347_rgbf000133-resize_2/000375_2014-06-08_11-17-29_260595134347_rgbf000133-resize-original.jpg,125,4.718,0,2593,125,meters,jsons/VE125_randls_50.json,1226058,1560529,30,Woman
30,673496,DepthScenes,duration_manipulation_targetAtFixation,jsons/VE125_randls_50.json,http://54.235.29.9/FacialAge/BNav_EC2/DepthDuration/v2_depth_duration_MTurk/v2_DepthDuration_HTML.html#104,104,1440,789,1440,900,8-21-2022,9-38-56,31,depth_duration_stimuli/000758_2014-06-08_22-05-08_260595134347_rgbf000085-resize_0/000758_2014-06-08_22-05-08_260595134347_rgbf000085-resize_0-target.png,125,3.3810000000000002,65,3211,126,meters,jsons/VE125_randls_50.json,1226058,1560529,30,Woman
31,673496,DepthScenes,duration_manipulation_targetAtFixation,jsons/VE125_randls_50.json,http://54.235.29.9/FacialAge/BNav_EC2/DepthDuration/v2_depth_duration_MTurk/v2_DepthDuration_HTML.html#104,104,1440,789,1440,900,8-21-2022,9-38-56,32,depth_duration_stimuli/000854_2014-06-09_19-43-13_260595134347_rgbf000066-resize_0/000854_2014-06-09_19-43-13_260595134347_rgbf000066-resize_0-target.png,125,3.068,50,5102,126,meters,jsons/VE125_randls_50.json,1226058,1560529,30,Woman
32,673496,DepthScenes,duration_manipulation_targetAtFixation,jsons/VE125_randls_50.json,http://54.235.29.9/FacialAge/BNav_EC2/DepthDuration/v2_depth_duration_MTurk/v2_DepthDuration_HTML.html#104,104,1440,789,1440,900,8-21-2022,9-38-56,33,depth_duration_stimuli/002153_2014-06-25_21-27-18_260595134347_rgbf000038-resize_5/002153_2014-06-25_21-27-18_260595134347_rgbf000038-resize_5-target.png,125,2.505,0,2528,125,meters,jsons/VE125_randls_50.json,1226058,1560529,30,Woman
33,673496,DepthScenes,duration_manipulation_targetAtFixation,jsons/VE125_randls_50.json,http://54.235.29.9/FacialAge/BNav_EC2/DepthDuration/v2_depth_duration_MTurk/v2_DepthDuration_HTML.html#104,104,1440,789,1440,900,8-21-2022,9-38-56,34,depth_duration_stimuli/002660_2014-06-13_15-44-18_094959634447_rgbf001878-resize_2/002660_2014-06-13_15-44-18_094959634447_rgbf001878-resize_2-target.png,125,3.576,65,3395,126,meters,jsons/VE125_randls_50.json,1226058,1560529,30,Woman
34,673496,DepthScenes,duration_manipulation_targetAtFixation,jsons/VE125_randls_50.json,http://54.235.29.9/FacialAge/BNav_EC2/DepthDuration/v2_depth_duration_MTurk/v2_DepthDuration_HTML.html#104,104,1440,789,1440,900,8-21-2022,9-38-56,35,depth_duration_stimuli/002788_2014-06-22_19-36-03_094959634447_rgbf000088-resize_2/002788_2014-06-22_19-36-03_094959634447_rgbf000088-resize_2-target.png,125,1.6465,45,3057,124,meters,jsons/VE125_randls_50.json,1226058,1560529,30,Woman
35,673496,DepthScenes,duration_manipulation_targetAtFixation,jsons/VE125_randls_50.json,http://54.235.29.9/FacialAge/BNav_EC2/DepthDuration/v2_depth_duration_MTurk/v2_DepthDuration_HTML.html#104,104,1440,789,1440,900,8-21-2022,9-38-56,36,depth_duration_stimuli/000749_2014-06-08_21-55-06_260595134347_rgbf000070-resize_2/000749_2014-06-08_21-55-06_260595134347_rgbf000070-resize_2-target.png,125,2.331,65,2755,125,meters,jsons/VE125_randls_50.json,1226058,1560529,30,Woman
36,673496,DepthScenes,duration_manipulation_targetAtFixation,jsons/VE125_randls_50.json,http://54.235.29.9/FacialAge/BNav_EC2/DepthDuration/v2_depth_duration_MTurk/v2_DepthDuration_HTML.html#104,104,1440,789,1440,900,8-21-2022,9-38-56,37,depth_duration_stimuli/000878_2014-06-08_22-52-45_260595134347_rgbf000045-resize_2/000878_2014-06-08_22-52-45_260595134347_rgbf000045-resize_2-target.png,125,2.092,52,2987,125,meters,jsons/VE125_randls_50.json,1226058,1560529,30,Woman
37,673496,DepthScenes,duration_manipulation_targetAtFixation,jsons/VE125_randls_50.json,http://54.235.29.9/FacialAge/BNav_EC2/DepthDuration/v2_depth_duration_MTurk/v2_DepthDuration_HTML.html#104,104,1440,789,1440,900,8-21-2022,9-38-56,38,depth_duration_stimuli/002953_2014-06-08_17-32-18_094959634447_rgbf000059-resize_5/002953_2014-06-08_17-32-18_094959634447_rgbf000059-resize_5-target.png,125,1.551,55,3420,126,meters,jsons/VE125_randls_50.json,1226058,1560529,30,Woman
38,673496,DepthScenes,duration_manipulation_targetAtFixation,jsons/VE125_randls_50.json,http://54.235.29.9/FacialAge/BNav_EC2/DepthDuration/v2_depth_duration_MTurk/v2_DepthDuration_HTML.html#104,104,1440,789,1440,900,8-21-2022,9-38-56,39,depth_duration_stimuli/000414_2014-06-04_19-49-13_260595134347_rgbf000044-resize_0/000414_2014-06-04_19-49-13_260595134347_rgbf000044-resize_0-target.png,125,4.329,80,4233,124,meters,jsons/VE125_randls_50.json,1226058,1560529,30,Woman
39,673496,DepthScenes,duration_manipulation_targetAtFixation,jsons/VE125_randls_50.json,http://54.235.29.9/FacialAge/BNav_EC2/DepthDuration/v2_depth_duration_MTurk/v2_DepthDuration_HTML.html#104,104,1440,789,1440,900,8-21-2022,9-38-56,40,depth_duration_stimuli/003129_2014-05-12_10-48-10_094959634447_rgbf000100-resize_0/003129_2014-05-12_10-48-10_094959634447_rgbf000100-resize_0-target.png,125,4.9305,77,3299,125,meters,jsons/VE125_randls_50.json,1226058,1560529,30,Woman
40,673496,DepthScenes,duration_manipulation_targetAtFixation,jsons/VE125_randls_50.json,http://54.235.29.9/FacialAge/BNav_EC2/DepthDuration/v2_depth_duration_MTurk/v2_DepthDuration_HTML.html#104,104,1440,789,1440,900,8-21-2022,9-38-56,41,depth_duration_stimuli/002988_2014-06-15_12-24-20_094959634447_rgbf000150-resize_1/002988_2014-06-15_12-24-20_094959634447_rgbf000150-resize_1-target.png,125,4.7669999999999995,74,5219,125,meters,jsons/VE125_randls_50.json,1226058,1560529,30,Woman
41,673496,DepthScenes,duration_manipulation_targetAtFixation,jsons/VE125_randls_50.json,http://54.235.29.9/FacialAge/BNav_EC2/DepthDuration/v2_depth_duration_MTurk/v2_DepthDuration_HTML.html#104,104,1440,789,1440,900,8-21-2022,9-38-56,42,depth_duration_stimuli/001052_2014-06-08_18-24-54_260595134347_rgbf000130-resize_1/001052_2014-06-08_18-24-54_260595134347_rgbf000130-resize_1-target.png,125,4.1045,66,2723,125,meters,jsons/VE125_randls_50.json,1226058,1560529,30,Woman
42,673496,DepthScenes,duration_manipulation_targetAtFixation,jsons/VE125_randls_50.json,http://54.235.29.9/FacialAge/BNav_EC2/DepthDuration/v2_depth_duration_MTurk/v2_DepthDuration_HTML.html#104,104,1440,789,1440,900,8-21-2022,9-38-56,43,depth_duration_stimuli/000906_2014-06-08_13-35-43_260595134347_rgbf000155-resize_1/000906_2014-06-08_13-35-43_260595134347_rgbf000155-resize_1-target.png,125,2.8489999999999998,77,59747,125,meters,jsons/VE125_randls_50.json,1226058,1560529,30,Woman
43,673496,DepthScenes,duration_manipulation_targetAtFixation,jsons/VE125_randls_50.json,http://54.235.29.9/FacialAge/BNav_EC2/DepthDuration/v2_depth_duration_MTurk/v2_DepthDuration_HTML.html#104,104,1440,789,1440,900,8-21-2022,9-38-56,44,depth_duration_stimuli/002805_2014-06-22_19-54-03_094959634447_rgbf000079-resize_1/002805_2014-06-22_19-54-03_094959634447_rgbf000079-resize_1-target.png,125,3.1439999999999997,78,3883,124,meters,jsons/VE125_randls_50.json,1226058,1560529,30,Woman
44,673496,DepthScenes,duration_manipulation_targetAtFixation,jsons/VE125_randls_50.json,http://54.235.29.9/FacialAge/BNav_EC2/DepthDuration/v2_depth_duration_MTurk/v2_DepthDuration_HTML.html#104,104,1440,789,1440,900,8-21-2022,9-38-56,45,depth_duration_stimuli/000787_2014-06-08_22-33-53_260595134347_rgbf000175-resize_1/000787_2014-06-08_22-33-53_260595134347_rgbf000175-resize-original.jpg,125,4.784,0,2529,125,meters,jsons/VE125_randls_50.json,1226058,1560529,30,Woman
45,673496,DepthScenes,duration_manipulation_targetAtFixation,jsons/VE125_randls_50.json,http://54.235.29.9/FacialAge/BNav_EC2/DepthDuration/v2_depth_duration_MTurk/v2_DepthDuration_HTML.html#104,104,1440,789,1440,900,8-21-2022,9-38-56,46,depth_duration_stimuli/000009_2014-05-26_14-32-05_260595134347_rgbf000034-resize_3/000009_2014-05-26_14-32-05_260595134347_rgbf000034-resize_3-target.png,125,3.8715,80,4778,125,meters,jsons/VE125_randls_50.json,1226058,1560529,30,Woman
46,673496,DepthScenes,duration_manipulation_targetAtFixation,jsons/VE125_randls_50.json,http://54.235.29.9/FacialAge/BNav_EC2/DepthDuration/v2_depth_duration_MTurk/v2_DepthDuration_HTML.html#104,104,1440,789,1440,900,8-21-2022,9-38-56,47,depth_duration_stimuli/001828_2014-06-26_21-40-03_260595134347_rgbf000024-resize_0/001828_2014-06-26_21-40-03_260595134347_rgbf000024-resize_0-target.png,125,4.8260000000000005,56,4475,124,meters,jsons/VE125_randls_50.json,1226058,1560529,30,Woman
47,673496,DepthScenes,duration_manipulation_targetAtFixation,jsons/VE125_randls_50.json,http://54.235.29.9/FacialAge/BNav_EC2/DepthDuration/v2_depth_duration_MTurk/v2_DepthDuration_HTML.html#104,104,1440,789,1440,900,8-21-2022,9-38-56,48,depth_duration_stimuli/002570_2014-06-24_13-59-54_094959634447_rgbf000059-resize_0/002570_2014-06-24_13-59-54_094959634447_rgbf000059-resize_0-target.png,125,4.037,0,3650,125,meters,jsons/VE125_randls_50.json,1226058,1560529,30,Woman
48,673496,DepthScenes,duration_manipulation_targetAtFixation,jsons/VE125_randls_50.json,http://54.235.29.9/FacialAge/BNav_EC2/DepthDuration/v2_depth_duration_MTurk/v2_DepthDuration_HTML.html#104,104,1440,789,1440,900,8-21-2022,9-38-56,49,depth_duration_stimuli/002467_2014-06-28_20-38-07_260595134347_rgbf000026-resize_2/002467_2014-06-28_20-38-07_260595134347_rgbf000026-resize_2-target.png,125,4.742,63,3995,124,meters,jsons/VE125_randls_50.json,1226058,1560529,30,Woman
49,673496,DepthScenes,duration_manipulation_targetAtFixation,jsons/VE125_randls_50.json,http://54.235.29.9/FacialAge/BNav_EC2/DepthDuration/v2_depth_duration_MTurk/v2_DepthDuration_HTML.html#104,104,1440,789,1440,900,8-21-2022,9-38-56,50,depth_duration_stimuli/001150_2014-06-17_15-27-34_260595134347_rgbf000108-resize_2/001150_2014-06-17_15-27-34_260595134347_rgbf000108-resize_2-target.png,125,4.0325,65,3163,126,meters,jsons/VE125_randls_50.json,1226058,1560529,30,Woman
50,673496,DepthScenes,duration_manipulation_targetAtFixation,jsons/VE125_randls_50.json,http://54.235.29.9/FacialAge/BNav_EC2/DepthDuration/v2_depth_duration_MTurk/v2_DepthDuration_HTML.html#104,104,1440,789,1440,900,8-21-2022,9-38-56,51,depth_duration_stimuli/000665_2014-06-09_20-42-35_260595134347_rgbf000110-resize_1/000665_2014-06-09_20-42-35_260595134347_rgbf000110-resize_1-target.png,125,3.057,25,4953,125,meters,jsons/VE125_randls_50.json,1226058,1560529,30,Woman
51,673496,DepthScenes,duration_manipulation_targetAtFixation,jsons/VE125_randls_50.json,http://54.235.29.9/FacialAge/BNav_EC2/DepthDuration/v2_depth_duration_MTurk/v2_DepthDuration_HTML.html#104,104,1440,789,1440,900,8-21-2022,9-38-56,52,depth_duration_stimuli/001011_2014-06-08_23-18-54_260595134347_rgbf000044-resize_4/001011_2014-06-08_23-18-54_260595134347_rgbf000044-resize_4-target.png,125,2.4730000000000003,74,2498,125,meters,jsons/VE125_randls_50.json,1226058,1560529,30,Woman
52,673496,DepthScenes,duration_manipulation_targetAtFixation,jsons/VE125_randls_50.json,http://54.235.29.9/FacialAge/BNav_EC2/DepthDuration/v2_depth_duration_MTurk/v2_DepthDuration_HTML.html#104,104,1440,789,1440,900,8-21-2022,9-38-56,53,depth_duration_stimuli/002875_2014-06-01_15-19-00_094959634447_rgbf000151-resize_1/002875_2014-06-01_15-19-00_094959634447_rgbf000151-resize_1-target.png,125,1.9675,54,2715,126,meters,jsons/VE125_randls_50.json,1226058,1560529,30,Woman
53,673496,DepthScenes,duration_manipulation_targetAtFixation,jsons/VE125_randls_50.json,http://54.235.29.9/FacialAge/BNav_EC2/DepthDuration/v2_depth_duration_MTurk/v2_DepthDuration_HTML.html#104,104,1440,789,1440,900,8-21-2022,9-38-56,54,depth_duration_stimuli/000773_2014-06-08_22-24-54_260595134347_rgbf000093-resize_1/000773_2014-06-08_22-24-54_260595134347_rgbf000093-resize_1-target.png,125,4.973,85,2459,125,meters,jsons/VE125_randls_50.json,1226058,1560529,30,Woman
54,673496,DepthScenes,duration_manipulation_targetAtFixation,jsons/VE125_randls_50.json,http://54.235.29.9/FacialAge/BNav_EC2/DepthDuration/v2_depth_duration_MTurk/v2_DepthDuration_HTML.html#104,104,1440,789,1440,900,8-21-2022,9-38-56,55,depth_duration_stimuli/002414_2014-06-28_20-24-58_260595134347_rgbf000067-resize_4/002414_2014-06-28_20-24-58_260595134347_rgbf000067-resize_4-target.png,125,4.363,45,2939,124,meters,jsons/VE125_randls_50.json,1226058,1560529,30,Woman
55,673496,DepthScenes,duration_manipulation_targetAtFixation,jsons/VE125_randls_50.json,http://54.235.29.9/FacialAge/BNav_EC2/DepthDuration/v2_depth_duration_MTurk/v2_DepthDuration_HTML.html#104,104,1440,789,1440,900,8-21-2022,9-38-56,56,depth_duration_stimuli/001110_2014-06-15_17-25-28_260595134347_rgbf000150-resize_1/001110_2014-06-15_17-25-28_260595134347_rgbf000150-resize_1-target.png,125,1.7115,65,3466,124,meters,jsons/VE125_randls_50.json,1226058,1560529,30,Woman
56,673496,DepthScenes,duration_manipulation_targetAtFixation,jsons/VE125_randls_50.json,http://54.235.29.9/FacialAge/BNav_EC2/DepthDuration/v2_depth_duration_MTurk/v2_DepthDuration_HTML.html#104,104,1440,789,1440,900,8-21-2022,9-38-56,57,depth_duration_stimuli/000927_2014-06-09_16-32-30_260595134347_rgbf000123-resize_3/000927_2014-06-09_16-32-30_260595134347_rgbf000123-resize_3-target.png,125,2.6785,52,2626,125,meters,jsons/VE125_randls_50.json,1226058,1560529,30,Woman
57,673496,DepthScenes,duration_manipulation_targetAtFixation,jsons/VE125_randls_50.json,http://54.235.29.9/FacialAge/BNav_EC2/DepthDuration/v2_depth_duration_MTurk/v2_DepthDuration_HTML.html#104,104,1440,789,1440,900,8-21-2022,9-38-56,58,depth_duration_stimuli/002905_2014-06-03_18-04-43_094959634447_rgbf000151-resize_2/002905_2014-06-03_18-04-43_094959634447_rgbf000151-resize_2-target.png,125,2.0295,56,4674,125,meters,jsons/VE125_randls_50.json,1226058,1560529,30,Woman
58,673496,DepthScenes,duration_manipulation_targetAtFixation,jsons/VE125_randls_50.json,http://54.235.29.9/FacialAge/BNav_EC2/DepthDuration/v2_depth_duration_MTurk/v2_DepthDuration_HTML.html#104,104,1440,789,1440,900,8-21-2022,9-38-56,59,depth_duration_stimuli/003423_2014-05-21_10-23-26_094959634447_rgbf002665-resize_2/003423_2014-05-21_10-23-26_094959634447_rgbf002665-resize_2-target.png,125,3.2575,66,2603,125,meters,jsons/VE125_randls_50.json,1226058,1560529,30,Woman
59,673496,DepthScenes,duration_manipulation_targetAtFixation,jsons/VE125_randls_50.json,http://54.235.29.9/FacialAge/BNav_EC2/DepthDuration/v2_depth_duration_MTurk/v2_DepthDuration_HTML.html#104,104,1440,789,1440,900,8-21-2022,9-38-56,60,depth_duration_stimuli/001092_2014-06-15_17-34-58_260595134347_rgbf000171-resize_3/001092_2014-06-15_17-34-58_260595134347_rgbf000171-resize_3-target.png,125,2.6935,69,2947,125,meters,jsons/VE125_randls_50.json,1226058,1560529,30,Woman
60,673496,DepthScenes,duration_manipulation_targetAtFixation,jsons/VE125_randls_50.json,http://54.235.29.9/FacialAge/BNav_EC2/DepthDuration/v2_depth_duration_MTurk/v2_DepthDuration_HTML.html#104,104,1440,789,1440,900,8-21-2022,9-38-56,61,depth_duration_stimuli/002545_2014-06-24_13-38-53_094959634447_rgbf000080-resize_4/002545_2014-06-24_13-38-53_094959634447_rgbf000080-resize_4-target.png,125,1.9205,59,2915,126,meters,jsons/VE125_randls_50.json,1226058,1560529,30,Woman
61,673496,DepthScenes,duration_manipulation_targetAtFixation,jsons/VE125_randls_50.json,http://54.235.29.9/FacialAge/BNav_EC2/DepthDuration/v2_depth_duration_MTurk/v2_DepthDuration_HTML.html#104,104,1440,789,1440,900,8-21-2022,9-38-56,62,depth_duration_stimuli/002118_2014-06-25_20-32-08_260595134347_rgbf000078-resize_1/002118_2014-06-25_20-32-08_260595134347_rgbf000078-resize_1-target.png,125,2.6460000000000004,52,2554,124,meters,jsons/VE125_randls_50.json,1226058,1560529,30,Woman
62,673496,DepthScenes,duration_manipulation_targetAtFixation,jsons/VE125_randls_50.json,http://54.235.29.9/FacialAge/BNav_EC2/DepthDuration/v2_depth_duration_MTurk/v2_DepthDuration_HTML.html#104,104,1440,789,1440,900,8-21-2022,9-38-56,63,depth_duration_stimuli/001516_2014-06-20_16-25-09_260595134347_rgbf000076-resize_2/001516_2014-06-20_16-25-09_260595134347_rgbf000076-resize_2-target.png,125,1.7445,55,2610,124,meters,jsons/VE125_randls_50.json,1226058,1560529,30,Woman
63,673496,DepthScenes,duration_manipulation_targetAtFixation,jsons/VE125_randls_50.json,http://54.235.29.9/FacialAge/BNav_EC2/DepthDuration/v2_depth_duration_MTurk/v2_DepthDuration_HTML.html#104,104,1440,789,1440,900,8-21-2022,9-38-56,64,depth_duration_stimuli/001164_2014-06-17_15-35-46_260595134347_rgbf000085-resize_3/001164_2014-06-17_15-35-46_260595134347_rgbf000085-resize_3-target.png,125,2.354,55,2948,125,meters,jsons/VE125_randls_50.json,1226058,1560529,30,Woman
64,673496,DepthScenes,duration_manipulation_targetAtFixation,jsons/VE125_randls_50.json,http://54.235.29.9/FacialAge/BNav_EC2/DepthDuration/v2_depth_duration_MTurk/v2_DepthDuration_HTML.html#104,104,1440,789,1440,900,8-21-2022,9-38-56,65,depth_duration_stimuli/001136_2014-06-17_15-19-41_260595134347_rgbf000076-resize_3/001136_2014-06-17_15-19-41_260595134347_rgbf000076-resize_3-target.png,125,1.8655,5,2809,124,meters,jsons/VE125_randls_50.json,1226058,1560529,30,Woman
65,673496,DepthScenes,duration_manipulation_targetAtFixation,jsons/VE125_randls_50.json,http://54.235.29.9/FacialAge/BNav_EC2/DepthDuration/v2_depth_duration_MTurk/v2_DepthDuration_HTML.html#104,104,1440,789,1440,900,8-21-2022,9-38-56,66,depth_duration_stimuli/001222_2014-06-17_16-24-06_260595134347_rgbf000073-resize_0/001222_2014-06-17_16-24-06_260595134347_rgbf000073-resize-original.jpg,125,1.4385,0,2002,124,meters,jsons/VE125_randls_50.json,1226058,1560529,30,Woman
66,673496,DepthScenes,duration_manipulation_targetAtFixation,jsons/VE125_randls_50.json,http://54.235.29.9/FacialAge/BNav_EC2/DepthDuration/v2_depth_duration_MTurk/v2_DepthDuration_HTML.html#104,104,1440,789,1440,900,8-21-2022,9-38-56,67,depth_duration_stimuli/002663_2014-06-13_15-50-26_094959634447_rgbf000075-resize_1/002663_2014-06-13_15-50-26_094959634447_rgbf000075-resize_1-target.png,125,4.7495,52,109291,124,meters,jsons/VE125_randls_50.json,1226058,1560529,30,Woman
67,673496,DepthScenes,duration_manipulation_targetAtFixation,jsons/VE125_randls_50.json,http://54.235.29.9/FacialAge/BNav_EC2/DepthDuration/v2_depth_duration_MTurk/v2_DepthDuration_HTML.html#104,104,1440,789,1440,900,8-21-2022,9-38-56,68,depth_duration_stimuli/000409_2014-06-04_19-23-33_260595134347_rgbf000067-resize_0/000409_2014-06-04_19-23-33_260595134347_rgbf000067-resize_0-target.png,125,3.7335,55,2155,126,meters,jsons/VE125_randls_50.json,1226058,1560529,30,Woman
68,673496,DepthScenes,duration_manipulation_targetAtFixation,jsons/VE125_randls_50.json,http://54.235.29.9/FacialAge/BNav_EC2/DepthDuration/v2_depth_duration_MTurk/v2_DepthDuration_HTML.html#104,104,1440,789,1440,900,8-21-2022,9-38-56,69,depth_duration_stimuli/002989_2014-06-15_12-25-03_094959634447_rgbf000150-resize_3/002989_2014-06-15_12-25-03_094959634447_rgbf000150-resize_3-target.png,125,4.1975,63,2201,125,meters,jsons/VE125_randls_50.json,1226058,1560529,30,Woman
69,673496,DepthScenes,duration_manipulation_targetAtFixation,jsons/VE125_randls_50.json,http://54.235.29.9/FacialAge/BNav_EC2/DepthDuration/v2_depth_duration_MTurk/v2_DepthDuration_HTML.html#104,104,1440,789,1440,900,8-21-2022,9-38-56,70,depth_duration_stimuli/000866_2014-06-09_20-45-42_260595134347_rgbf000139-resize_1/000866_2014-06-09_20-45-42_260595134347_rgbf000139-resize_1-target.png,125,3.2155,69,2149,125,meters,jsons/VE125_randls_50.json,1226058,1560529,30,Woman
70,673496,DepthScenes,duration_manipulation_targetAtFixation,jsons/VE125_randls_50.json,http://54.235.29.9/FacialAge/BNav_EC2/DepthDuration/v2_depth_duration_MTurk/v2_DepthDuration_HTML.html#104,104,1440,789,1440,900,8-21-2022,9-38-56,71,depth_duration_stimuli/000917_2014-06-09_22-45-29_260595134347_rgbf000149-resize_3/000917_2014-06-09_22-45-29_260595134347_rgbf000149-resize_3-target.png,125,4.1865,68,2328,125,meters,jsons/VE125_randls_50.json,1226058,1560529,30,Woman
71,673496,DepthScenes,duration_manipulation_targetAtFixation,jsons/VE125_randls_50.json,http://54.235.29.9/FacialAge/BNav_EC2/DepthDuration/v2_depth_duration_MTurk/v2_DepthDuration_HTML.html#104,104,1440,789,1440,900,8-21-2022,9-38-56,72,depth_duration_stimuli/002323_2014-06-28_20-01-54_260595134347_rgbf000051-resize_4/002323_2014-06-28_20-01-54_260595134347_rgbf000051-resize_4-target.png,125,3.7310000000000003,673,2186,125,meters,jsons/VE125_randls_50.json,1226058,1560529,30,Woman
72,673496,DepthScenes,duration_manipulation_targetAtFixation,jsons/VE125_randls_50.json,http://54.235.29.9/FacialAge/BNav_EC2/DepthDuration/v2_depth_duration_MTurk/v2_DepthDuration_HTML.html#104,104,1440,789,1440,900,8-21-2022,9-38-56,73,depth_duration_stimuli/000736_2014-06-08_18-24-15_260595134347_rgbf000206-resize_3/000736_2014-06-08_18-24-15_260595134347_rgbf000206-resize_3-target.png,125,3.515,68,2249,124,meters,jsons/VE125_randls_50.json,1226058,1560529,30,Woman
73,673496,DepthScenes,duration_manipulation_targetAtFixation,jsons/VE125_randls_50.json,http://54.235.29.9/FacialAge/BNav_EC2/DepthDuration/v2_depth_duration_MTurk/v2_DepthDuration_HTML.html#104,104,1440,789,1440,900,8-21-2022,9-38-56,74,depth_duration_stimuli/000137_2014-05-20_17-04-49_260595134347_rgbf000120-resize_1/000137_2014-05-20_17-04-49_260595134347_rgbf000120-resize_1-target.png,125,3.786,68,2673,125,meters,jsons/VE125_randls_50.json,1226058,1560529,30,Woman
74,673496,DepthScenes,duration_manipulation_targetAtFixation,jsons/VE125_randls_50.json,http://54.235.29.9/FacialAge/BNav_EC2/DepthDuration/v2_depth_duration_MTurk/v2_DepthDuration_HTML.html#104,104,1440,789,1440,900,8-21-2022,9-38-56,75,depth_duration_stimuli/001806_2014-06-26_20-50-20_260595134347_rgbf000091-resize_1/001806_2014-06-26_20-50-20_260595134347_rgbf000091-resize_1-target.png,125,2.7305,665,2314,125,meters,jsons/VE125_randls_50.json,1226058,1560529,30,Woman
75,673496,DepthScenes,duration_manipulation_targetAtFixation,jsons/VE125_randls_50.json,http://54.235.29.9/FacialAge/BNav_EC2/DepthDuration/v2_depth_duration_MTurk/v2_DepthDuration_HTML.html#104,104,1440,789,1440,900,8-21-2022,9-38-56,76,depth_duration_stimuli/001617_2014-06-20_11-35-32_260595134347_rgbf000066-resize_1/001617_2014-06-20_11-35-32_260595134347_rgbf000066-resize_1-target.png,125,3.7910000000000004,62,3529,124,meters,jsons/VE125_randls_50.json,1226058,1560529,30,Woman
76,673496,DepthScenes,duration_manipulation_targetAtFixation,jsons/VE125_randls_50.json,http://54.235.29.9/FacialAge/BNav_EC2/DepthDuration/v2_depth_duration_MTurk/v2_DepthDuration_HTML.html#104,104,1440,789,1440,900,8-21-2022,9-38-56,77,depth_duration_stimuli/000692_2014-06-08_13-09-42_260595134347_rgbf000199-resize_2/000692_2014-06-08_13-09-42_260595134347_rgbf000199-resize_2-target.png,125,3.661,65,7149,124,meters,jsons/VE125_randls_50.json,1226058,1560529,30,Woman
77,673496,DepthScenes,duration_manipulation_targetAtFixation,jsons/VE125_randls_50.json,http://54.235.29.9/FacialAge/BNav_EC2/DepthDuration/v2_depth_duration_MTurk/v2_DepthDuration_HTML.html#104,104,1440,789,1440,900,8-21-2022,9-38-56,78,depth_duration_stimuli/001094_2014-06-15_17-36-00_260595134347_rgbf000205-resize_0/001094_2014-06-15_17-36-00_260595134347_rgbf000205-resize_0-target.png,125,4.2175,15,2305,125,meters,jsons/VE125_randls_50.json,1226058,1560529,30,Woman
78,673496,DepthScenes,duration_manipulation_targetAtFixation,jsons/VE125_randls_50.json,http://54.235.29.9/FacialAge/BNav_EC2/DepthDuration/v2_depth_duration_MTurk/v2_DepthDuration_HTML.html#104,104,1440,789,1440,900,8-21-2022,9-38-56,79,depth_duration_stimuli/003534_2014-05-22_15-06-10_094959634447_rgbf000102-resize_4/003534_2014-05-22_15-06-10_094959634447_rgbf000102-resize_4-target.png,125,1.426,52,2164,125,meters,jsons/VE125_randls_50.json,1226058,1560529,30,Woman
79,673496,DepthScenes,duration_manipulation_targetAtFixation,jsons/VE125_randls_50.json,http://54.235.29.9/FacialAge/BNav_EC2/DepthDuration/v2_depth_duration_MTurk/v2_DepthDuration_HTML.html#104,104,1440,789,1440,900,8-21-2022,9-38-56,80,depth_duration_stimuli/002637_2014-06-24_14-51-13_094959634447_rgbf000066-resize_4/002637_2014-06-24_14-51-13_094959634447_rgbf000066-resize_4-target.png,125,1.9955,53,2401,124,meters,jsons/VE125_randls_50.json,1226058,1560529,30,Woman
80,673496,DepthScenes,duration_manipulation_targetAtFixation,jsons/VE125_randls_50.json,http://54.235.29.9/FacialAge/BNav_EC2/DepthDuration/v2_depth_duration_MTurk/v2_DepthDuration_HTML.html#104,104,1440,789,1440,900,8-21-2022,9-38-56,81,depth_duration_stimuli/001417_2014-06-19_16-25-36_260595134347_rgbf000115-resize_5/001417_2014-06-19_16-25-36_260595134347_rgbf000115-resize_5-target.png,125,4.6255,52,3762,125,meters,jsons/VE125_randls_50.json,1226058,1560529,30,Woman
81,673496,DepthScenes,duration_manipulation_targetAtFixation,jsons/VE125_randls_50.json,http://54.235.29.9/FacialAge/BNav_EC2/DepthDuration/v2_depth_duration_MTurk/v2_DepthDuration_HTML.html#104,104,1440,789,1440,900,8-21-2022,9-38-56,82,depth_duration_stimuli/003081_2014-06-15_15-19-16_094959634447_rgbf000150-resize_1/003081_2014-06-15_15-19-16_094959634447_rgbf000150-resize_1-target.png,125,3.9125,55,2355,125,meters,jsons/VE125_randls_50.json,1226058,1560529,30,Woman
82,673496,DepthScenes,duration_manipulation_targetAtFixation,jsons/VE125_randls_50.json,http://54.235.29.9/FacialAge/BNav_EC2/DepthDuration/v2_depth_duration_MTurk/v2_DepthDuration_HTML.html#104,104,1440,789,1440,900,8-21-2022,9-38-56,83,depth_duration_stimuli/000486_2014-06-09_20-47-20_260595134347_rgbf000143-resize_2/000486_2014-06-09_20-47-20_260595134347_rgbf000143-resize_2-target.png,125,4.8325,56,2330,124,meters,jsons/VE125_randls_50.json,1226058,1560529,30,Woman
83,673496,DepthScenes,duration_manipulation_targetAtFixation,jsons/VE125_randls_50.json,http://54.235.29.9/FacialAge/BNav_EC2/DepthDuration/v2_depth_duration_MTurk/v2_DepthDuration_HTML.html#104,104,1440,789,1440,900,8-21-2022,9-38-56,84,depth_duration_stimuli/003083_2014-06-15_15-21-03_094959634447_rgbf000063-resize_1/003083_2014-06-15_15-21-03_094959634447_rgbf000063-resize_1-target.png,125,4.1405,58,2434,125,meters,jsons/VE125_randls_50.json,1226058,1560529,30,Woman
84,673496,DepthScenes,duration_manipulation_targetAtFixation,jsons/VE125_randls_50.json,http://54.235.29.9/FacialAge/BNav_EC2/DepthDuration/v2_depth_duration_MTurk/v2_DepthDuration_HTML.html#104,104,1440,789,1440,900,8-21-2022,9-38-56,85,depth_duration_stimuli/000522_2014-06-08_13-35-06_260595134347_rgbf000244-resize_1/000522_2014-06-08_13-35-06_260595134347_rgbf000244-resize_1-target.png,125,2.3715,59,4388,125,meters,jsons/VE125_randls_50.json,1226058,1560529,30,Woman
85,673496,DepthScenes,duration_manipulation_targetAtFixation,jsons/VE125_randls_50.json,http://54.235.29.9/FacialAge/BNav_EC2/DepthDuration/v2_depth_duration_MTurk/v2_DepthDuration_HTML.html#104,104,1440,789,1440,900,8-21-2022,9-38-56,86,depth_duration_stimuli/002949_2014-06-26_15-57-42_094959634447_rgbf000079-resize_1/002949_2014-06-26_15-57-42_094959634447_rgbf000079-resize_1-target.png,125,1.8915,0,2770,124,meters,jsons/VE125_randls_50.json,1226058,1560529,30,Woman
86,673496,DepthScenes,duration_manipulation_targetAtFixation,jsons/VE125_randls_50.json,http://54.235.29.9/FacialAge/BNav_EC2/DepthDuration/v2_depth_duration_MTurk/v2_DepthDuration_HTML.html#104,104,1440,789,1440,900,8-21-2022,9-38-56,87,depth_duration_stimuli/000739_2014-06-08_18-45-58_260595134347_rgbf000068-resize_1/000739_2014-06-08_18-45-58_260595134347_rgbf000068-resize_1-target.png,125,3.534,65,2401,125,meters,jsons/VE125_randls_50.json,1226058,1560529,30,Woman
87,673496,DepthScenes,duration_manipulation_targetAtFixation,jsons/VE125_randls_50.json,http://54.235.29.9/FacialAge/BNav_EC2/DepthDuration/v2_depth_duration_MTurk/v2_DepthDuration_HTML.html#104,104,1440,789,1440,900,8-21-2022,9-38-56,88,depth_duration_stimuli/000734_2014-06-08_17-39-11_260595134347_rgbf000128-resize_2/000734_2014-06-08_17-39-11_260595134347_rgbf000128-resize_2-target.png,125,4.098,59,3842,124,meters,jsons/VE125_randls_50.json,1226058,1560529,30,Woman
88,673496,DepthScenes,duration_manipulation_targetAtFixation,jsons/VE125_randls_50.json,http://54.235.29.9/FacialAge/BNav_EC2/DepthDuration/v2_depth_duration_MTurk/v2_DepthDuration_HTML.html#104,104,1440,789,1440,900,8-21-2022,9-38-56,89,depth_duration_stimuli/001016_2014-06-09_16-16-10_260595134347_rgbf000112-resize_5/001016_2014-06-09_16-16-10_260595134347_rgbf000112-resize_5-target.png,125,1.6565,57,2529,124,meters,jsons/VE125_randls_50.json,1226058,1560529,30,Woman
89,673496,DepthScenes,duration_manipulation_targetAtFixation,jsons/VE125_randls_50.json,http://54.235.29.9/FacialAge/BNav_EC2/DepthDuration/v2_depth_duration_MTurk/v2_DepthDuration_HTML.html#104,104,1440,789,1440,900,8-21-2022,9-38-56,90,depth_duration_stimuli/002340_2014-06-28_20-05-46_260595134347_rgbf000113-resize_0/002340_2014-06-28_20-05-46_260595134347_rgbf000113-resize_0-target.png,125,2.4735,75,3946,126,meters,jsons/VE125_randls_50.json,1226058,1560529,30,Woman
90,673496,DepthScenes,duration_manipulation_targetAtFixation,jsons/VE125_randls_50.json,http://54.235.29.9/FacialAge/BNav_EC2/DepthDuration/v2_depth_duration_MTurk/v2_DepthDuration_HTML.html#104,104,1440,789,1440,900,8-21-2022,9-38-56,91,depth_duration_stimuli/001158_2014-06-17_15-32-16_260595134347_rgbf000138-resize_2/001158_2014-06-17_15-32-16_260595134347_rgbf000138-resize_2-target.png,125,4.5315,56,3723,124,meters,jsons/VE125_randls_50.json,1226058,1560529,30,Woman
91,673496,DepthScenes,duration_manipulation_targetAtFixation,jsons/VE125_randls_50.json,http://54.235.29.9/FacialAge/BNav_EC2/DepthDuration/v2_depth_duration_MTurk/v2_DepthDuration_HTML.html#104,104,1440,789,1440,900,8-21-2022,9-38-56,92,depth_duration_stimuli/000556_2014-06-09_22-42-56_260595134347_rgbf000214-resize_1/000556_2014-06-09_22-42-56_260595134347_rgbf000214-resize_1-target.png,125,4.8415,65,3850,125,meters,jsons/VE125_randls_50.json,1226058,1560529,30,Woman
92,673496,DepthScenes,duration_manipulation_targetAtFixation,jsons/VE125_randls_50.json,http://54.235.29.9/FacialAge/BNav_EC2/DepthDuration/v2_depth_duration_MTurk/v2_DepthDuration_HTML.html#104,104,1440,789,1440,900,8-21-2022,9-38-56,93,depth_duration_stimuli/000810_2014-06-08_17-20-01_260595134347_rgbf000105-resize_0/000810_2014-06-08_17-20-01_260595134347_rgbf000105-resize_0-target.png,125,1.4865,65,4234,124,meters,jsons/VE125_randls_50.json,1226058,1560529,30,Woman
93,673496,DepthScenes,duration_manipulation_targetAtFixation,jsons/VE125_randls_50.json,http://54.235.29.9/FacialAge/BNav_EC2/DepthDuration/v2_depth_duration_MTurk/v2_DepthDuration_HTML.html#104,104,1440,789,1440,900,8-21-2022,9-38-56,94,depth_duration_stimuli/001214_2014-06-17_16-13-55_260595134347_rgbf000111-resize_0/001214_2014-06-17_16-13-55_260595134347_rgbf000111-resize_0-target.png,125,2.6505,52,2939,125,meters,jsons/VE125_randls_50.json,1226058,1560529,30,Woman
94,673496,DepthScenes,duration_manipulation_targetAtFixation,jsons/VE125_randls_50.json,http://54.235.29.9/FacialAge/BNav_EC2/DepthDuration/v2_depth_duration_MTurk/v2_DepthDuration_HTML.html#104,104,1440,789,1440,900,8-21-2022,9-38-56,95,depth_duration_stimuli/000506_2014-06-08_23-21-00_260595134347_rgbf000070-resize_7/000506_2014-06-08_23-21-00_260595134347_rgbf000070-resize_7-target.png,125,4.0585,55,2467,124,meters,jsons/VE125_randls_50.json,1226058,1560529,30,Woman
95,673496,DepthScenes,duration_manipulation_targetAtFixation,jsons/VE125_randls_50.json,http://54.235.29.9/FacialAge/BNav_EC2/DepthDuration/v2_depth_duration_MTurk/v2_DepthDuration_HTML.html#104,104,1440,789,1440,900,8-21-2022,9-38-56,96,depth_duration_stimuli/003079_2014-06-15_15-18-20_094959634447_rgbf000152-resize_8/003079_2014-06-15_15-18-20_094959634447_rgbf000152-resize_8-target.png,125,2.8775,52,5130,125,meters,jsons/VE125_randls_50.json,1226058,1560529,30,Woman
96,673496,DepthScenes,duration_manipulation_targetAtFixation,jsons/VE125_randls_50.json,http://54.235.29.9/FacialAge/BNav_EC2/DepthDuration/v2_depth_duration_MTurk/v2_DepthDuration_HTML.html#104,104,1440,789,1440,900,8-21-2022,9-38-56,97,depth_duration_stimuli/001167_2014-06-17_15-38-07_260595134347_rgbf000108-resize_0/001167_2014-06-17_15-38-07_260595134347_rgbf000108-resize_0-target.png,125,1.8505,55,2233,125,meters,jsons/VE125_randls_50.json,1226058,1560529,30,Woman
97,673496,DepthScenes,duration_manipulation_targetAtFixation,jsons/VE125_randls_50.json,http://54.235.29.9/FacialAge/BNav_EC2/DepthDuration/v2_depth_duration_MTurk/v2_DepthDuration_HTML.html#104,104,1440,789,1440,900,8-21-2022,9-38-56,98,depth_duration_stimuli/003587_2014-05-23_16-48-02_094959634447_rgbf002384-resize_2/003587_2014-05-23_16-48-02_094959634447_rgbf002384-resize_2-target.png,125,1.357,55,2274,125,meters,jsons/VE125_randls_50.json,1226058,1560529,30,Woman
98,673496,DepthScenes,duration_manipulation_targetAtFixation,jsons/VE125_randls_50.json,http://54.235.29.9/FacialAge/BNav_EC2/DepthDuration/v2_depth_duration_MTurk/v2_DepthDuration_HTML.html#104,104,1440,789,1440,900,8-21-2022,9-38-56,99,depth_duration_stimuli/001540_2014-06-20_17-01-05_260595134347_rgbf000086-resize_2/001540_2014-06-20_17-01-05_260595134347_rgbf000086-resize-original.jpg,125,1.459,0,2586,124,meters,jsons/VE125_randls_50.json,1226058,1560529,30,Woman
99,673496,DepthScenes,duration_manipulation_targetAtFixation,jsons/VE125_randls_50.json,http://54.235.29.9/FacialAge/BNav_EC2/DepthDuration/v2_depth_duration_MTurk/v2_DepthDuration_HTML.html#104,104,1440,789,1440,900,8-21-2022,9-38-56,100,depth_duration_stimuli/001810_2014-06-26_20-51-35_260595134347_rgbf000040-resize_3/001810_2014-06-26_20-51-35_260595134347_rgbf000040-resize_3-target.png,125,2.2525,55,268044,124,meters,jsons/VE125_randls_50.json,1226058,1560529,30,Woman
100,673496,DepthScenes,duration_manipulation_targetAtFixation,jsons/VE125_randls_50.json,http://54.235.29.9/FacialAge/BNav_EC2/DepthDuration/v2_depth_duration_MTurk/v2_DepthDuration_HTML.html#104,104,1440,789,1440,900,8-21-2022,9-38-56,101,depth_duration_stimuli/003010_2014-06-15_12-54-35_094959634447_rgbf000112-resize_0/003010_2014-06-15_12-54-35_094959634447_rgbf000112-resize_0-target.png,125,3.1185,55,3267,125,meters,jsons/VE125_randls_50.json,1226058,1560529,30,Woman
101,673496,DepthScenes,duration_manipulation_targetAtFixation,jsons/VE125_randls_50.json,http://54.235.29.9/FacialAge/BNav_EC2/DepthDuration/v2_depth_duration_MTurk/v2_DepthDuration_HTML.html#104,104,1440,789,1440,900,8-21-2022,9-38-56,102,depth_duration_stimuli/000788_2014-06-08_22-34-36_260595134347_rgbf000131-resize_1/000788_2014-06-08_22-34-36_260595134347_rgbf000131-resize_1-target.png,125,3.359,55,2579,124,meters,jsons/VE125_randls_50.json,1226058,1560529,30,Woman
102,673496,DepthScenes,duration_manipulation_targetAtFixation,jsons/VE125_randls_50.json,http://54.235.29.9/FacialAge/BNav_EC2/DepthDuration/v2_depth_duration_MTurk/v2_DepthDuration_HTML.html#104,104,1440,789,1440,900,8-21-2022,9-38-56,103,depth_duration_stimuli/001235_2014-06-17_16-37-36_260595134347_rgbf000084-resize_4/001235_2014-06-17_16-37-36_260595134347_rgbf000084-resize_4-target.png,125,3.6605,55,2152,125,meters,jsons/VE125_randls_50.json,1226058,1560529,30,Woman
103,673496,DepthScenes,duration_manipulation_targetAtFixation,jsons/VE125_randls_50.json,http://54.235.29.9/FacialAge/BNav_EC2/DepthDuration/v2_depth_duration_MTurk/v2_DepthDuration_HTML.html#104,104,1440,789,1440,900,8-21-2022,9-38-56,104,depth_duration_stimuli/000436_2014-06-09_22-25-11_260595134347_rgbf000137-resize_1/000436_2014-06-09_22-25-11_260595134347_rgbf000137-resize_1-target.png,125,4.0705,58,2234,125,meters,jsons/VE125_randls_50.json,1226058,1560529,30,Woman
104,673496,DepthScenes,duration_manipulation_targetAtFixation,jsons/VE125_randls_50.json,http://54.235.29.9/FacialAge/BNav_EC2/DepthDuration/v2_depth_duration_MTurk/v2_DepthDuration_HTML.html#104,104,1440,789,1440,900,8-21-2022,9-38-56,105,depth_duration_stimuli/002444_2014-06-28_20-32-08_260595134347_rgbf000027-resize_0/002444_2014-06-28_20-32-08_260595134347_rgbf000027-resize_0-target.png,125,4.388999999999999,59,2539,125,meters,jsons/VE125_randls_50.json,1226058,1560529,30,Woman
105,673496,DepthScenes,duration_manipulation_targetAtFixation,jsons/VE125_randls_50.json,http://54.235.29.9/FacialAge/BNav_EC2/DepthDuration/v2_depth_duration_MTurk/v2_DepthDuration_HTML.html#104,104,1440,789,1440,900,8-21-2022,9-38-56,106,depth_duration_stimuli/002445_2014-06-28_20-32-16_260595134347_rgbf000029-resize_4/002445_2014-06-28_20-32-16_260595134347_rgbf000029-resize_4-target.png,125,2.5315,55,2226,125,meters,jsons/VE125_randls_50.json,1226058,1560529,30,Woman
106,673496,DepthScenes,duration_manipulation_targetAtFixation,jsons/VE125_randls_50.json,http://54.235.29.9/FacialAge/BNav_EC2/DepthDuration/v2_depth_duration_MTurk/v2_DepthDuration_HTML.html#104,104,1440,789,1440,900,8-21-2022,9-38-56,107,depth_duration_stimuli/000780_2014-06-08_22-28-29_260595134347_rgbf000126-resize_1/000780_2014-06-08_22-28-29_260595134347_rgbf000126-resize_1-target.png,125,3.3825,65,2451,126,meters,jsons/VE125_randls_50.json,1226058,1560529,30,Woman
107,673496,DepthScenes,duration_manipulation_targetAtFixation,jsons/VE125_randls_50.json,http://54.235.29.9/FacialAge/BNav_EC2/DepthDuration/v2_depth_duration_MTurk/v2_DepthDuration_HTML.html#104,104,1440,789,1440,900,8-21-2022,9-38-56,108,depth_duration_stimuli/002043_2014-06-24_20-29-38_260595134347_rgbf000039-resize_4/002043_2014-06-24_20-29-38_260595134347_rgbf000039-resize_4-target.png,125,2.8435,45,2210,125,meters,jsons/VE125_randls_50.json,1226058,1560529,30,Woman
108,673496,DepthScenes,duration_manipulation_targetAtFixation,jsons/VE125_randls_50.json,http://54.235.29.9/FacialAge/BNav_EC2/DepthDuration/v2_depth_duration_MTurk/v2_DepthDuration_HTML.html#104,104,1440,789,1440,900,8-21-2022,9-38-56,109,depth_duration_stimuli/003048_2014-06-15_13-49-43_094959634447_rgbf000150-resize_1/003048_2014-06-15_13-49-43_094959634447_rgbf000150-resize_1-target.png,125,4.0035,100,2025,124,meters,jsons/VE125_randls_50.json,1226058,1560529,30,Woman
109,673496,DepthScenes,duration_manipulation_targetAtFixation,jsons/VE125_randls_50.json,http://54.235.29.9/FacialAge/BNav_EC2/DepthDuration/v2_depth_duration_MTurk/v2_DepthDuration_HTML.html#104,104,1440,789,1440,900,8-21-2022,9-38-56,110,depth_duration_stimuli/001133_2014-06-17_14-49-16_260595134347_rgbf000100-resize_0/001133_2014-06-17_14-49-16_260595134347_rgbf000100-resize_0-target.png,125,4.2115,52,2139,123,meters,jsons/VE125_randls_50.json,1226058,1560529,30,Woman
110,673496,DepthScenes,duration_manipulation_targetAtFixation,jsons/VE125_randls_50.json,http://54.235.29.9/FacialAge/BNav_EC2/DepthDuration/v2_depth_duration_MTurk/v2_DepthDuration_HTML.html#104,104,1440,789,1440,900,8-21-2022,9-38-56,111,depth_duration_stimuli/001132_2014-06-17_14-48-54_260595134347_rgbf000100-resize_2/001132_2014-06-17_14-48-54_260595134347_rgbf000100-resize_2-target.png,125,3.753,65,2177,124,meters,jsons/VE125_randls_50.json,1226058,1560529,30,Woman
111,673496,DepthScenes,duration_manipulation_targetAtFixation,jsons/VE125_randls_50.json,http://54.235.29.9/FacialAge/BNav_EC2/DepthDuration/v2_depth_duration_MTurk/v2_DepthDuration_HTML.html#104,104,1440,789,1440,900,8-21-2022,9-38-56,112,depth_duration_stimuli/001808_2014-06-26_20-50-58_260595134347_rgbf000029-resize_1/001808_2014-06-26_20-50-58_260595134347_rgbf000029-resize_1-target.png,125,4.249,58,2170,126,meters,jsons/VE125_randls_50.json,1226058,1560529,30,Woman
112,673496,DepthScenes,duration_manipulation_targetAtFixation,jsons/VE125_randls_50.json,http://54.235.29.9/FacialAge/BNav_EC2/DepthDuration/v2_depth_duration_MTurk/v2_DepthDuration_HTML.html#104,104,1440,789,1440,900,8-21-2022,9-38-56,113,depth_duration_stimuli/001815_2014-06-26_20-52-55_260595134347_rgbf000020-resize_0/001815_2014-06-26_20-52-55_260595134347_rgbf000020-resize_0-target.png,125,3.3865,95,2091,125,meters,jsons/VE125_randls_50.json,1226058,1560529,30,Woman
113,673496,DepthScenes,duration_manipulation_targetAtFixation,jsons/VE125_randls_50.json,http://54.235.29.9/FacialAge/BNav_EC2/DepthDuration/v2_depth_duration_MTurk/v2_DepthDuration_HTML.html#104,104,1440,789,1440,900,8-21-2022,9-38-56,114,depth_duration_stimuli/001055_2014-06-08_18-45-35_260595134347_rgbf000111-resize_4/001055_2014-06-08_18-45-35_260595134347_rgbf000111-resize_4-target.png,125,2.4290000000000003,54,2258,124,meters,jsons/VE125_randls_50.json,1226058,1560529,30,Woman
114,673496,DepthScenes,duration_manipulation_targetAtFixation,jsons/VE125_randls_50.json,http://54.235.29.9/FacialAge/BNav_EC2/DepthDuration/v2_depth_duration_MTurk/v2_DepthDuration_HTML.html#104,104,1440,789,1440,900,8-21-2022,9-38-56,115,depth_duration_stimuli/000549_2014-06-08_22-10-24_260595134347_rgbf000247-resize_3/000549_2014-06-08_22-10-24_260595134347_rgbf000247-resize_3-target.png,125,1.841,56,2273,124,meters,jsons/VE125_randls_50.json,1226058,1560529,30,Woman
115,673496,DepthScenes,duration_manipulation_targetAtFixation,jsons/VE125_randls_50.json,http://54.235.29.9/FacialAge/BNav_EC2/DepthDuration/v2_depth_duration_MTurk/v2_DepthDuration_HTML.html#104,104,1440,789,1440,900,8-21-2022,9-38-56,116,depth_duration_stimuli/001170_2014-06-17_15-43-44_260595134347_rgbf000096-resize_6/001170_2014-06-17_15-43-44_260595134347_rgbf000096-resize-original.jpg,125,1.1909999999999998,55,2268,125,meters,jsons/VE125_randls_50.json,1226058,1560529,30,Woman
116,673496,DepthScenes,duration_manipulation_targetAtFixation,jsons/VE125_randls_50.json,http://54.235.29.9/FacialAge/BNav_EC2/DepthDuration/v2_depth_duration_MTurk/v2_DepthDuration_HTML.html#104,104,1440,789,1440,900,8-21-2022,9-38-56,117,depth_duration_stimuli/001066_2014-06-08_22-03-20_260595134347_rgbf000066-resize_4/001066_2014-06-08_22-03-20_260595134347_rgbf000066-resize_4-target.png,125,4.2330000000000005,52,2370,124,meters,jsons/VE125_randls_50.json,1226058,1560529,30,Woman
117,673496,DepthScenes,duration_manipulation_targetAtFixation,jsons/VE125_randls_50.json,http://54.235.29.9/FacialAge/BNav_EC2/DepthDuration/v2_depth_duration_MTurk/v2_DepthDuration_HTML.html#104,104,1440,789,1440,900,8-21-2022,9-38-56,118,depth_duration_stimuli/000742_2014-06-08_18-48-09_260595134347_rgbf000164-resize_4/000742_2014-06-08_18-48-09_260595134347_rgbf000164-resize_4-target.png,125,4.632,0,2307,125,meters,jsons/VE125_randls_50.json,1226058,1560529,30,Woman
118,673496,DepthScenes,duration_manipulation_targetAtFixation,jsons/VE125_randls_50.json,http://54.235.29.9/FacialAge/BNav_EC2/DepthDuration/v2_depth_duration_MTurk/v2_DepthDuration_HTML.html#104,104,1440,789,1440,900,8-21-2022,9-38-56,119,depth_duration_stimuli/000493_2014-06-09_21-01-18_260595134347_rgbf000196-resize_3/000493_2014-06-09_21-01-18_260595134347_rgbf000196-resize_3-target.png,125,3.44,55,2274,124,meters,jsons/VE125_randls_50.json,1226058,1560529,30,Woman
119,673496,DepthScenes,duration_manipulation_targetAtFixation,jsons/VE125_randls_50.json,http://54.235.29.9/FacialAge/BNav_EC2/DepthDuration/v2_depth_duration_MTurk/v2_DepthDuration_HTML.html#104,104,1440,789,1440,900,8-21-2022,9-38-56,120,depth_duration_stimuli/000191_2014-05-12_17-07-38_260595134347_rgbf000199-resize_0/000191_2014-05-12_17-07-38_260595134347_rgbf000199-resize_0-target.png,125,3.7995,55,2227,125,meters,jsons/VE125_randls_50.json,1226058,1560529,30,Woman
120,673496,DepthScenes,duration_manipulation_targetAtFixation,jsons/VE125_randls_50.json,http://54.235.29.9/FacialAge/BNav_EC2/DepthDuration/v2_depth_duration_MTurk/v2_DepthDuration_HTML.html#104,104,1440,789,1440,900,8-21-2022,9-38-56,121,depth_duration_stimuli/001570_2014-06-20_17-21-09_260595134347_rgbf000135-resize_4/001570_2014-06-20_17-21-09_260595134347_rgbf000135-resize_4-target.png,125,4.467,55,2137,124,meters,jsons/VE125_randls_50.json,1226058,1560529,30,Woman
121,673496,DepthScenes,duration_manipulation_targetAtFixation,jsons/VE125_randls_50.json,http://54.235.29.9/FacialAge/BNav_EC2/DepthDuration/v2_depth_duration_MTurk/v2_DepthDuration_HTML.html#104,104,1440,789,1440,900,8-21-2022,9-38-56,122,depth_duration_stimuli/001392_2014-06-19_16-07-59_260595134347_rgbf000046-resize_1/001392_2014-06-19_16-07-59_260595134347_rgbf000046-resize_1-target.png,125,4.135,56,2122,124,meters,jsons/VE125_randls_50.json,1226058,1560529,30,Woman
122,673496,DepthScenes,duration_manipulation_targetAtFixation,jsons/VE125_randls_50.json,http://54.235.29.9/FacialAge/BNav_EC2/DepthDuration/v2_depth_duration_MTurk/v2_DepthDuration_HTML.html#104,104,1440,789,1440,900,8-21-2022,9-38-56,123,depth_duration_stimuli/000469_2014-06-09_19-42-10_260595134347_rgbf000081-resize_1/000469_2014-06-09_19-42-10_260595134347_rgbf000081-resize_1-target.png,125,1.652,55,4027,125,meters,jsons/VE125_randls_50.json,1226058,1560529,30,Woman
123,673496,DepthScenes,duration_manipulation_targetAtFixation,jsons/VE125_randls_50.json,http://54.235.29.9/FacialAge/BNav_EC2/DepthDuration/v2_depth_duration_MTurk/v2_DepthDuration_HTML.html#104,104,1440,789,1440,900,8-21-2022,9-38-56,124,depth_duration_stimuli/000483_2014-06-09_20-41-45_260595134347_rgbf000116-resize_4/000483_2014-06-09_20-41-45_260595134347_rgbf000116-resize_4-target.png,125,1.337,0,2161,125,meters,jsons/VE125_randls_50.json,1226058,1560529,30,Woman
124,673496,DepthScenes,duration_manipulation_targetAtFixation,jsons/VE125_randls_50.json,http://54.235.29.9/FacialAge/BNav_EC2/DepthDuration/v2_depth_duration_MTurk/v2_DepthDuration_HTML.html#104,104,1440,789,1440,900,8-21-2022,9-38-56,125,depth_duration_stimuli/002213_2014-06-28_18-37-58_260595134347_rgbf000055-resize_1/002213_2014-06-28_18-37-58_260595134347_rgbf000055-resize_1-target.png,125,3.62,55,3906,124,meters,jsons/VE125_randls_50.json,1226058,1560529,30,Woman
125,673496,DepthScenes,duration_manipulation_targetAtFixation,jsons/VE125_randls_50.json,http://54.235.29.9/FacialAge/BNav_EC2/DepthDuration/v2_depth_duration_MTurk/v2_DepthDuration_HTML.html#104,104,1440,789,1440,900,8-21-2022,9-38-56,126,depth_duration_stimuli/000691_2014-06-08_13-08-50_260595134347_rgbf000132-resize_3/000691_2014-06-08_13-08-50_260595134347_rgbf000132-resize_3-target.png,125,4.1530000000000005,55,4274,125,meters,jsons/VE125_randls_50.json,1226058,1560529,30,Woman
126,673496,DepthScenes,duration_manipulation_targetAtFixation,jsons/VE125_randls_50.json,http://54.235.29.9/FacialAge/BNav_EC2/DepthDuration/v2_depth_duration_MTurk/v2_DepthDuration_HTML.html#104,104,1440,789,1440,900,8-21-2022,9-38-56,127,depth_duration_stimuli/002057_2014-06-24_21-00-13_260595134347_rgbf000120-resize_1/002057_2014-06-24_21-00-13_260595134347_rgbf000120-resize_1-target.png,125,2.967,56,2104,125,meters,jsons/VE125_randls_50.json,1226058,1560529,30,Woman
127,673496,DepthScenes,duration_manipulation_targetAtFixation,jsons/VE125_randls_50.json,http://54.235.29.9/FacialAge/BNav_EC2/DepthDuration/v2_depth_duration_MTurk/v2_DepthDuration_HTML.html#104,104,1440,789,1440,900,8-21-2022,9-38-56,128,depth_duration_stimuli/000709_2014-06-08_13-51-55_260595134347_rgbf000068-resize_3/000709_2014-06-08_13-51-55_260595134347_rgbf000068-resize_3-target.png,125,1.8030000000000002,58,2243,124,meters,jsons/VE125_randls_50.json,1226058,1560529,30,Woman
128,673496,DepthScenes,duration_manipulation_targetAtFixation,jsons/VE125_randls_50.json,http://54.235.29.9/FacialAge/BNav_EC2/DepthDuration/v2_depth_duration_MTurk/v2_DepthDuration_HTML.html#104,104,1440,789,1440,900,8-21-2022,9-38-56,129,depth_duration_stimuli/002964_2014-06-08_17-46-11_094959634447_rgbf000091-resize_4/002964_2014-06-08_17-46-11_094959634447_rgbf000091-resize_4-target.png,125,1.6909999999999998,56,2714,125,meters,jsons/VE125_randls_50.json,1226058,1560529,30,Woman
129,673496,DepthScenes,duration_manipulation_targetAtFixation,jsons/VE125_randls_50.json,http://54.235.29.9/FacialAge/BNav_EC2/DepthDuration/v2_depth_duration_MTurk/v2_DepthDuration_HTML.html#104,104,1440,789,1440,900,8-21-2022,9-38-56,130,depth_duration_stimuli/002136_2014-06-25_21-18-03_260595134347_rgbf000109-resize_3/002136_2014-06-25_21-18-03_260595134347_rgbf000109-resize_3-target.png,125,1.9569999999999999,52,2291,124,meters,jsons/VE125_randls_50.json,1226058,1560529,30,Woman
130,673496,DepthScenes,duration_manipulation_targetAtFixation,jsons/VE125_randls_50.json,http://54.235.29.9/FacialAge/BNav_EC2/DepthDuration/v2_depth_duration_MTurk/v2_DepthDuration_HTML.html#104,104,1440,789,1440,900,8-21-2022,9-38-56,131,depth_duration_stimuli/001449_2014-06-19_17-01-27_260595134347_rgbf000116-resize_2/001449_2014-06-19_17-01-27_260595134347_rgbf000116-resize_2-target.png,125,3.452,52,2058,125,meters,jsons/VE125_randls_50.json,1226058,1560529,30,Woman
131,673496,DepthScenes,duration_manipulation_targetAtFixation,jsons/VE125_randls_50.json,http://54.235.29.9/FacialAge/BNav_EC2/DepthDuration/v2_depth_duration_MTurk/v2_DepthDuration_HTML.html#104,104,1440,789,1440,900,8-21-2022,9-38-56,132,depth_duration_stimuli/001450_2014-06-19_17-02-03_260595134347_rgbf000203-resize_4/001450_2014-06-19_17-02-03_260595134347_rgbf000203-resize_4-target.png,125,4.0106666666667,56,3082,125,meters,jsons/VE125_randls_50.json,1226058,1560529,30,Woman
132,673496,DepthScenes,duration_manipulation_targetAtFixation,jsons/VE125_randls_50.json,http://54.235.29.9/FacialAge/BNav_EC2/DepthDuration/v2_depth_duration_MTurk/v2_DepthDuration_HTML.html#104,104,1440,789,1440,900,8-21-2022,9-38-56,133,depth_duration_stimuli/001056_2014-06-08_18-46-44_260595134347_rgbf000068-resize_0/001056_2014-06-08_18-46-44_260595134347_rgbf000068-resize_0-target.png,125,2.6625,55,2361,125,meters,jsons/VE125_randls_50.json,1226058,1560529,30,Woman
133,673496,DepthScenes,duration_manipulation_targetAtFixation,jsons/VE125_randls_50.json,http://54.235.29.9/FacialAge/BNav_EC2/DepthDuration/v2_depth_duration_MTurk/v2_DepthDuration_HTML.html#104,104,1440,789,1440,900,8-21-2022,9-38-56,134,depth_duration_stimuli/002199_2014-06-28_18-33-56_260595134347_rgbf000074-resize_0/002199_2014-06-28_18-33-56_260595134347_rgbf000074-resize_0-target.png,125,1.996,58,2220,126,meters,jsons/VE125_randls_50.json,1226058,1560529,30,Woman
134,673496,DepthScenes,duration_manipulation_targetAtFixation,jsons/VE125_randls_50.json,http://54.235.29.9/FacialAge/BNav_EC2/DepthDuration/v2_depth_duration_MTurk/v2_DepthDuration_HTML.html#104,104,1440,789,1440,900,8-21-2022,9-38-56,135,depth_duration_stimuli/002072_2014-06-24_21-48-06_260595134347_rgbf000115-resize_0/002072_2014-06-24_21-48-06_260595134347_rgbf000115-resize-original.jpg,125,4.702,0,15258,124,meters,jsons/VE125_randls_50.json,1226058,1560529,30,Woman
135,673496,DepthScenes,duration_manipulation_targetAtFixation,jsons/VE125_randls_50.json,http://54.235.29.9/FacialAge/BNav_EC2/DepthDuration/v2_depth_duration_MTurk/v2_DepthDuration_HTML.html#104,104,1440,789,1440,900,8-21-2022,9-38-56,136,depth_duration_stimuli/002272_2014-06-28_18-53-56_260595134347_rgbf000067-resize_2/002272_2014-06-28_18-53-56_260595134347_rgbf000067-resize_2-target.png,125,1.138,0,1946,125,meters,jsons/VE125_randls_50.json,1226058,1560529,30,Woman
136,673496,DepthScenes,duration_manipulation_targetAtFixation,jsons/VE125_randls_50.json,http://54.235.29.9/FacialAge/BNav_EC2/DepthDuration/v2_depth_duration_MTurk/v2_DepthDuration_HTML.html#104,104,1440,789,1440,900,8-21-2022,9-38-56,137,depth_duration_stimuli/001571_2014-06-20_17-21-32_260595134347_rgbf000089-resize_1/001571_2014-06-20_17-21-32_260595134347_rgbf000089-resize_1-target.png,125,1.86,52,2186,124,meters,jsons/VE125_randls_50.json,1226058,1560529,30,Woman
137,673496,DepthScenes,duration_manipulation_targetAtFixation,jsons/VE125_randls_50.json,http://54.235.29.9/FacialAge/BNav_EC2/DepthDuration/v2_depth_duration_MTurk/v2_DepthDuration_HTML.html#104,104,1440,789,1440,900,8-21-2022,9-38-56,138,depth_duration_stimuli/000470_2014-06-09_19-42-40_260595134347_rgbf000094-resize_1/000470_2014-06-09_19-42-40_260595134347_rgbf000094-resize_1-target.png,125,1.831,56,2234,125,meters,jsons/VE125_randls_50.json,1226058,1560529,30,Woman
138,673496,DepthScenes,duration_manipulation_targetAtFixation,jsons/VE125_randls_50.json,http://54.235.29.9/FacialAge/BNav_EC2/DepthDuration/v2_depth_duration_MTurk/v2_DepthDuration_HTML.html#104,104,1440,789,1440,900,8-21-2022,9-38-56,139,depth_duration_stimuli/000109_2014-05-14_23-41-52_260595134347_rgbf000035-resize_9/000109_2014-05-14_23-41-52_260595134347_rgbf000035-resize_9-target.png,125,1.3545,56,2177,125,meters,jsons/VE125_randls_50.json,1226058,1560529,30,Woman
139,673496,DepthScenes,duration_manipulation_targetAtFixation,jsons/VE125_randls_50.json,http://54.235.29.9/FacialAge/BNav_EC2/DepthDuration/v2_depth_duration_MTurk/v2_DepthDuration_HTML.html#104,104,1440,789,1440,900,8-21-2022,9-38-56,140,depth_duration_stimuli/000929_2014-06-09_16-33-19_260595134347_rgbf000139-resize_0/000929_2014-06-09_16-33-19_260595134347_rgbf000139-resize_0-target.png,125,2.8680000000000003,52,2076,125,meters,jsons/VE125_randls_50.json,1226058,1560529,30,Woman
140,673496,DepthScenes,duration_manipulation_targetAtFixation,jsons/VE125_randls_50.json,http://54.235.29.9/FacialAge/BNav_EC2/DepthDuration/v2_depth_duration_MTurk/v2_DepthDuration_HTML.html#104,104,1440,789,1440,900,8-21-2022,9-38-56,141,depth_duration_stimuli/000457_2014-06-08_16-52-43_260595134347_rgbf000199-resize_1/000457_2014-06-08_16-52-43_260595134347_rgbf000199-resize_1-target.png,125,3.6489999999999996,52,2089,125,meters,jsons/VE125_randls_50.json,1226058,1560529,30,Woman
141,673496,DepthScenes,duration_manipulation_targetAtFixation,jsons/VE125_randls_50.json,http://54.235.29.9/FacialAge/BNav_EC2/DepthDuration/v2_depth_duration_MTurk/v2_DepthDuration_HTML.html#104,104,1440,789,1440,900,8-21-2022,9-38-56,142,depth_duration_stimuli/002549_2014-06-24_13-41-39_094959634447_rgbf000022-resize_3/002549_2014-06-24_13-41-39_094959634447_rgbf000022-resize_3-target.png,125,1.476,56,2209,126,meters,jsons/VE125_randls_50.json,1226058,1560529,30,Woman
142,673496,DepthScenes,duration_manipulation_targetAtFixation,jsons/VE125_randls_50.json,http://54.235.29.9/FacialAge/BNav_EC2/DepthDuration/v2_depth_duration_MTurk/v2_DepthDuration_HTML.html#104,104,1440,789,1440,900,8-21-2022,9-38-56,143,depth_duration_stimuli/002750_2014-06-22_19-08-03_094959634447_rgbf000094-resize_4/002750_2014-06-22_19-08-03_094959634447_rgbf000094-resize_4-target.png,125,2.354,55,2517,125,meters,jsons/VE125_randls_50.json,1226058,1560529,30,Woman
143,673496,DepthScenes,duration_manipulation_targetAtFixation,jsons/VE125_randls_50.json,http://54.235.29.9/FacialAge/BNav_EC2/DepthDuration/v2_depth_duration_MTurk/v2_DepthDuration_HTML.html#104,104,1440,789,1440,900,8-21-2022,9-38-56,144,depth_duration_stimuli/001555_2014-06-20_17-12-10_260595134347_rgbf000065-resize_4/001555_2014-06-20_17-12-10_260595134347_rgbf000065-resize_4-target.png,125,1.633,55,2489,124,meters,jsons/VE125_randls_50.json,1226058,1560529,30,Woman
144,673496,DepthScenes,duration_manipulation_targetAtFixation,jsons/VE125_randls_50.json,http://54.235.29.9/FacialAge/BNav_EC2/DepthDuration/v2_depth_duration_MTurk/v2_DepthDuration_HTML.html#104,104,1440,789,1440,900,8-21-2022,9-38-56,145,depth_duration_stimuli/000103_2014-05-14_22-01-17_260595134347_rgbf000152-resize_5/000103_2014-05-14_22-01-17_260595134347_rgbf000152-resize_5-target.png,125,1.993,55,8826,125,meters,jsons/VE125_randls_50.json,1226058,1560529,30,Woman
145,673496,DepthScenes,duration_manipulation_targetAtFixation,jsons/VE125_randls_50.json,http://54.235.29.9/FacialAge/BNav_EC2/DepthDuration/v2_depth_duration_MTurk/v2_DepthDuration_HTML.html#104,104,1440,789,1440,900,8-21-2022,9-38-56,146,depth_duration_stimuli/001498_2014-06-19_17-45-14_260595134347_rgbf000129-resize_4/001498_2014-06-19_17-45-14_260595134347_rgbf000129-resize-original.jpg,125,1.4075,0,2010,124,meters,jsons/VE125_randls_50.json,1226058,1560529,30,Woman
146,673496,DepthScenes,duration_manipulation_targetAtFixation,jsons/VE125_randls_50.json,http://54.235.29.9/FacialAge/BNav_EC2/DepthDuration/v2_depth_duration_MTurk/v2_DepthDuration_HTML.html#104,104,1440,789,1440,900,8-21-2022,9-38-56,147,depth_duration_stimuli/002375_2014-06-28_20-13-44_260595134347_rgbf000032-resize_1/002375_2014-06-28_20-13-44_260595134347_rgbf000032-resize_1-target.png,125,4.0175,0,2417,125,meters,jsons/VE125_randls_50.json,1226058,1560529,30,Woman
147,673496,DepthScenes,duration_manipulation_targetAtFixation,jsons/VE125_randls_50.json,http://54.235.29.9/FacialAge/BNav_EC2/DepthDuration/v2_depth_duration_MTurk/v2_DepthDuration_HTML.html#104,104,1440,789,1440,900,8-21-2022,9-38-56,148,depth_duration_stimuli/002657_2014-06-13_15-29-54_094959634447_rgbf000150-resize_1/002657_2014-06-13_15-29-54_094959634447_rgbf000150-resize_1-target.png,125,4.919,5,2130,124,meters,jsons/VE125_randls_50.json,1226058,1560529,30,Woman
148,673496,DepthScenes,duration_manipulation_targetAtFixation,jsons/VE125_randls_50.json,http://54.235.29.9/FacialAge/BNav_EC2/DepthDuration/v2_depth_duration_MTurk/v2_DepthDuration_HTML.html#104,104,1440,789,1440,900,8-21-2022,9-38-56,149,depth_duration_stimuli/003492_2014-05-21_15-50-55_094959634447_rgbf000828-resize_1/003492_2014-05-21_15-50-55_094959634447_rgbf000828-resize_1-target.png,125,4.06875,55,2603,123,meters,jsons/VE125_randls_50.json,1226058,1560529,30,Woman
149,673496,DepthScenes,duration_manipulation_targetAtFixation,jsons/VE125_randls_50.json,http://54.235.29.9/FacialAge/BNav_EC2/DepthDuration/v2_depth_duration_MTurk/v2_DepthDuration_HTML.html#104,104,1440,789,1440,900,8-21-2022,9-38-56,150,depth_duration_stimuli/002568_2014-06-24_13-59-21_094959634447_rgbf000062-resize_4/002568_2014-06-24_13-59-21_094959634447_rgbf000062-resize_4-target.png,125,3.015,55,2330,124,meters,jsons/VE125_randls_50.json,1226058,1560529,30,Woman
150,673496,DepthScenes,duration_manipulation_targetAtFixation,jsons/VE125_randls_50.json,http://54.235.29.9/FacialAge/BNav_EC2/DepthDuration/v2_depth_duration_MTurk/v2_DepthDuration_HTML.html#104,104,1440,789,1440,900,8-21-2022,9-38-56,151,depth_duration_stimuli/002748_2014-06-22_19-07-22_094959634447_rgbf000078-resize_1/002748_2014-06-22_19-07-22_094959634447_rgbf000078-resize_1-target.png,125,4.6705,52,2083,126,meters,jsons/VE125_randls_50.json,1226058,1560529,30,Woman
151,673496,DepthScenes,duration_manipulation_targetAtFixation,jsons/VE125_randls_50.json,http://54.235.29.9/FacialAge/BNav_EC2/DepthDuration/v2_depth_duration_MTurk/v2_DepthDuration_HTML.html#104,104,1440,789,1440,900,8-21-2022,9-38-56,152,depth_duration_stimuli/002995_2014-06-15_12-31-26_094959634447_rgbf000150-resize_1/002995_2014-06-15_12-31-26_094959634447_rgbf000150-resize_1-target.png,125,3.8360000000000003,53,3178,125,meters,jsons/VE125_randls_50.json,1226058,1560529,30,Woman
152,673496,DepthScenes,duration_manipulation_targetAtFixation,jsons/VE125_randls_50.json,http://54.235.29.9/FacialAge/BNav_EC2/DepthDuration/v2_depth_duration_MTurk/v2_DepthDuration_HTML.html#104,104,1440,789,1440,900,8-21-2022,9-38-56,153,depth_duration_stimuli/001244_2014-06-17_16-47-45_260595134347_rgbf000030-resize_4/001244_2014-06-17_16-47-45_260595134347_rgbf000030-resize_4-target.png,125,2.0425,53,2868,124,meters,jsons/VE125_randls_50.json,1226058,1560529,30,Woman
153,673496,DepthScenes,duration_manipulation_targetAtFixation,jsons/VE125_randls_50.json,http://54.235.29.9/FacialAge/BNav_EC2/DepthDuration/v2_depth_duration_MTurk/v2_DepthDuration_HTML.html#104,104,1440,789,1440,900,8-21-2022,9-38-56,154,depth_duration_stimuli/003495_2014-05-21_16-01-51_094959634447_rgbf000100-resize_3/003495_2014-05-21_16-01-51_094959634447_rgbf000100-resize_3-target.png,125,1.6255,58,2800,124,meters,jsons/VE125_randls_50.json,1226058,1560529,30,Woman
154,673496,DepthScenes,duration_manipulation_targetAtFixation,jsons/VE125_randls_50.json,http://54.235.29.9/FacialAge/BNav_EC2/DepthDuration/v2_depth_duration_MTurk/v2_DepthDuration_HTML.html#104,104,1440,789,1440,900,8-21-2022,9-38-56,155,depth_duration_stimuli/001059_2014-06-08_21-53-27_260595134347_rgbf000061-resize_4/001059_2014-06-08_21-53-27_260595134347_rgbf000061-resize_4-target.png,125,2.4185,51,3588,124,meters,jsons/VE125_randls_50.json,1226058,1560529,30,Woman
155,673496,DepthScenes,duration_manipulation_targetAtFixation,jsons/VE125_randls_50.json,http://54.235.29.9/FacialAge/BNav_EC2/DepthDuration/v2_depth_duration_MTurk/v2_DepthDuration_HTML.html#104,104,1440,789,1440,900,8-21-2022,9-38-56,156,depth_duration_stimuli/001032_2014-06-08_13-23-17_260595134347_rgbf000021-resize_3/001032_2014-06-08_13-23-17_260595134347_rgbf000021-resize_3-target.png,125,3.2725,53,2826,125,meters,jsons/VE125_randls_50.json,1226058,1560529,30,Woman
156,673496,DepthScenes,duration_manipulation_targetAtFixation,jsons/VE125_randls_50.json,http://54.235.29.9/FacialAge/BNav_EC2/DepthDuration/v2_depth_duration_MTurk/v2_DepthDuration_HTML.html#104,104,1440,789,1440,900,8-21-2022,9-38-56,157,depth_duration_stimuli/003292_2014-05-14_21-53-49_094959634447_rgbf000100-resize_2/003292_2014-05-14_21-53-49_094959634447_rgbf000100-resize_2-target.png,125,3.4815,58,2354,125,meters,jsons/VE125_randls_50.json,1226058,1560529,30,Woman
157,673496,DepthScenes,duration_manipulation_targetAtFixation,jsons/VE125_randls_50.json,http://54.235.29.9/FacialAge/BNav_EC2/DepthDuration/v2_depth_duration_MTurk/v2_DepthDuration_HTML.html#104,104,1440,789,1440,900,8-21-2022,9-38-56,158,depth_duration_stimuli/002639_2014-06-24_14-51-37_094959634447_rgbf000074-resize_4/002639_2014-06-24_14-51-37_094959634447_rgbf000074-resize_4-target.png,125,4.0375,59,2433,124,meters,jsons/VE125_randls_50.json,1226058,1560529,30,Woman
158,673496,DepthScenes,duration_manipulation_targetAtFixation,jsons/VE125_randls_50.json,http://54.235.29.9/FacialAge/BNav_EC2/DepthDuration/v2_depth_duration_MTurk/v2_DepthDuration_HTML.html#104,104,1440,789,1440,900,8-21-2022,9-38-56,159,depth_duration_stimuli/000642_2014-06-08_16-59-25_260595134347_rgbf000098-resize_2/000642_2014-06-08_16-59-25_260595134347_rgbf000098-resize_2-target.png,125,2.8815,52,2250,125,meters,jsons/VE125_randls_50.json,1226058,1560529,30,Woman
159,673496,DepthScenes,duration_manipulation_targetAtFixation,jsons/VE125_randls_50.json,http://54.235.29.9/FacialAge/BNav_EC2/DepthDuration/v2_depth_duration_MTurk/v2_DepthDuration_HTML.html#104,104,1440,789,1440,900,8-21-2022,9-38-56,160,depth_duration_stimuli/002425_2014-06-28_20-27-29_260595134347_rgbf000031-resize_8/002425_2014-06-28_20-27-29_260595134347_rgbf000031-resize_8-target.png,125,3.8960000000000004,58,2395,125,meters,jsons/VE125_randls_50.json,1226058,1560529,30,Woman
160,673496,DepthScenes,duration_manipulation_targetAtFixation,jsons/VE125_randls_50.json,http://54.235.29.9/FacialAge/BNav_EC2/DepthDuration/v2_depth_duration_MTurk/v2_DepthDuration_HTML.html#104,104,1440,789,1440,900,8-21-2022,9-38-56,161,depth_duration_stimuli/002509_2014-06-24_13-19-22_094959634447_rgbf000077-resize_0/002509_2014-06-24_13-19-22_094959634447_rgbf000077-resize_0-target.png,125,1.3065,58,2379,126,meters,jsons/VE125_randls_50.json,1226058,1560529,30,Woman
161,673496,DepthScenes,duration_manipulation_targetAtFixation,jsons/VE125_randls_50.json,http://54.235.29.9/FacialAge/BNav_EC2/DepthDuration/v2_depth_duration_MTurk/v2_DepthDuration_HTML.html#104,104,1440,789,1440,900,8-21-2022,9-38-56,162,depth_duration_stimuli/003338_2014-05-20_11-01-23_094959634447_rgbf000051-resize_6/003338_2014-05-20_11-01-23_094959634447_rgbf000051-resize_6-target.png,125,1.693,58,2514,125,meters,jsons/VE125_randls_50.json,1226058,1560529,30,Woman
162,673496,DepthScenes,duration_manipulation_targetAtFixation,jsons/VE125_randls_50.json,http://54.235.29.9/FacialAge/BNav_EC2/DepthDuration/v2_depth_duration_MTurk/v2_DepthDuration_HTML.html#104,104,1440,789,1440,900,8-21-2022,9-38-56,163,depth_duration_stimuli/000368_2014-06-09_15-53-01_260595134347_rgbf000155-resize_2/000368_2014-06-09_15-53-01_260595134347_rgbf000155-resize_2-target.png,125,2.4859999999999998,59,2306,125,meters,jsons/VE125_randls_50.json,1226058,1560529,30,Woman
163,673496,DepthScenes,duration_manipulation_targetAtFixation,jsons/VE125_randls_50.json,http://54.235.29.9/FacialAge/BNav_EC2/DepthDuration/v2_depth_duration_MTurk/v2_DepthDuration_HTML.html#104,104,1440,789,1440,900,8-21-2022,9-38-56,164,depth_duration_stimuli/002678_2014-06-13_16-15-32_094959634447_rgbf000151-resize_6/002678_2014-06-13_16-15-32_094959634447_rgbf000151-resize_6-target.png,125,2.1830000000000003,96,2673,125,meters,jsons/VE125_randls_50.json,1226058,1560529,30,Woman
