,subjID,experimentName,versionName,sequenceName,url,selected_row,windowWidth,windowHeight,screenWidth,screenHeight,startDate,startTime,trial,stimulus,duration,actual_depth,depth_estimate,trial_RT,log_sceneDuration,unitSelection,seq_filepath,experimentTime,totalTime,age,gender
0,673972,DepthScenes,duration_manipulation_targetAtFixation,jsons/v1_VE250_randls_45_rotated.json,http://54.235.29.9/FacialAge/BNav_EC2/DepthDuration/v2_depth_duration_MTurk/v2_DepthDuration_HTML.html#444,444,1920,1009,1920,1080,8-30-2022,10-2-9,1,depth_duration_stimuli/000943_2014-06-09_19-31-07_260595134347_rgbf000128-resize_1/000943_2014-06-09_19-31-07_260595134347_rgbf000128-resize_1-target.png,250,1.9765,5,3552,248,feet,jsons/v1_VE250_randls_45_rotated.json,495261,579482,31,Man
1,673972,DepthScenes,duration_manipulation_targetAtFixation,jsons/v1_VE250_randls_45_rotated.json,http://54.235.29.9/FacialAge/BNav_EC2/DepthDuration/v2_depth_duration_MTurk/v2_DepthDuration_HTML.html#444,444,1920,1009,1920,1080,8-30-2022,10-2-9,2,depth_duration_stimuli/003070_2014-06-15_14-58-27_094959634447_rgbf000150-resize_3/003070_2014-06-15_14-58-27_094959634447_rgbf000150-resize_3-target.png,250,2.9415,8,3868,250,feet,jsons/v1_VE250_randls_45_rotated.json,495261,579482,31,Man
2,673972,DepthScenes,duration_manipulation_targetAtFixation,jsons/v1_VE250_randls_45_rotated.json,http://54.235.29.9/FacialAge/BNav_EC2/DepthDuration/v2_depth_duration_MTurk/v2_DepthDuration_HTML.html#444,444,1920,1009,1920,1080,8-30-2022,10-2-9,3,depth_duration_stimuli/001571_2014-06-20_17-21-32_260595134347_rgbf000089-resize_1/001571_2014-06-20_17-21-32_260595134347_rgbf000089-resize_1-target.png,250,1.86,4,2640,240,feet,jsons/v1_VE250_randls_45_rotated.json,495261,579482,31,Man
3,673972,DepthScenes,duration_manipulation_targetAtFixation,jsons/v1_VE250_randls_45_rotated.json,http://54.235.29.9/FacialAge/BNav_EC2/DepthDuration/v2_depth_duration_MTurk/v2_DepthDuration_HTML.html#444,444,1920,1009,1920,1080,8-30-2022,10-2-9,4,depth_duration_stimuli/002272_2014-06-28_18-53-56_260595134347_rgbf000067-resize_2/002272_2014-06-28_18-53-56_260595134347_rgbf000067-resize_2-target.png,250,1.138,3,2836,249,feet,jsons/v1_VE250_randls_45_rotated.json,495261,579482,31,Man
4,673972,DepthScenes,duration_manipulation_targetAtFixation,jsons/v1_VE250_randls_45_rotated.json,http://54.235.29.9/FacialAge/BNav_EC2/DepthDuration/v2_depth_duration_MTurk/v2_DepthDuration_HTML.html#444,444,1920,1009,1920,1080,8-30-2022,10-2-9,5,depth_duration_stimuli/002995_2014-06-15_12-31-26_094959634447_rgbf000150-resize_1/002995_2014-06-15_12-31-26_094959634447_rgbf000150-resize_1-target.png,250,3.8360000000000003,12,3189,249,feet,jsons/v1_VE250_randls_45_rotated.json,495261,579482,31,Man
5,673972,DepthScenes,duration_manipulation_targetAtFixation,jsons/v1_VE250_randls_45_rotated.json,http://54.235.29.9/FacialAge/BNav_EC2/DepthDuration/v2_depth_duration_MTurk/v2_DepthDuration_HTML.html#444,444,1920,1009,1920,1080,8-30-2022,10-2-9,6,depth_duration_stimuli/002748_2014-06-22_19-07-22_094959634447_rgbf000078-resize_1/002748_2014-06-22_19-07-22_094959634447_rgbf000078-resize_1-target.png,250,4.6705,20,3219,250,feet,jsons/v1_VE250_randls_45_rotated.json,495261,579482,31,Man
6,673972,DepthScenes,duration_manipulation_targetAtFixation,jsons/v1_VE250_randls_45_rotated.json,http://54.235.29.9/FacialAge/BNav_EC2/DepthDuration/v2_depth_duration_MTurk/v2_DepthDuration_HTML.html#444,444,1920,1009,1920,1080,8-30-2022,10-2-9,7,depth_duration_stimuli/000780_2014-06-08_22-28-29_260595134347_rgbf000126-resize_1/000780_2014-06-08_22-28-29_260595134347_rgbf000126-resize_1-target.png,250,3.3825,15,3658,250,feet,jsons/v1_VE250_randls_45_rotated.json,495261,579482,31,Man
7,673972,DepthScenes,duration_manipulation_targetAtFixation,jsons/v1_VE250_randls_45_rotated.json,http://54.235.29.9/FacialAge/BNav_EC2/DepthDuration/v2_depth_duration_MTurk/v2_DepthDuration_HTML.html#444,444,1920,1009,1920,1080,8-30-2022,10-2-9,8,depth_duration_stimuli/002445_2014-06-28_20-32-16_260595134347_rgbf000029-resize_4/002445_2014-06-28_20-32-16_260595134347_rgbf000029-resize_4-target.png,250,2.5315,8,2563,262,feet,jsons/v1_VE250_randls_45_rotated.json,495261,579482,31,Man
8,673972,DepthScenes,duration_manipulation_targetAtFixation,jsons/v1_VE250_randls_45_rotated.json,http://54.235.29.9/FacialAge/BNav_EC2/DepthDuration/v2_depth_duration_MTurk/v2_DepthDuration_HTML.html#444,444,1920,1009,1920,1080,8-30-2022,10-2-9,9,depth_duration_stimuli/001828_2014-06-26_21-40-03_260595134347_rgbf000024-resize_0/001828_2014-06-26_21-40-03_260595134347_rgbf000024-resize_0-target.png,250,4.8260000000000005,15,2923,250,feet,jsons/v1_VE250_randls_45_rotated.json,495261,579482,31,Man
9,673972,DepthScenes,duration_manipulation_targetAtFixation,jsons/v1_VE250_randls_45_rotated.json,http://54.235.29.9/FacialAge/BNav_EC2/DepthDuration/v2_depth_duration_MTurk/v2_DepthDuration_HTML.html#444,444,1920,1009,1920,1080,8-30-2022,10-2-9,10,depth_duration_stimuli/000009_2014-05-26_14-32-05_260595134347_rgbf000034-resize_3/000009_2014-05-26_14-32-05_260595134347_rgbf000034-resize_3-target.png,250,3.8715,15,2619,250,feet,jsons/v1_VE250_randls_45_rotated.json,495261,579482,31,Man
10,673972,DepthScenes,duration_manipulation_targetAtFixation,jsons/v1_VE250_randls_45_rotated.json,http://54.235.29.9/FacialAge/BNav_EC2/DepthDuration/v2_depth_duration_MTurk/v2_DepthDuration_HTML.html#444,444,1920,1009,1920,1080,8-30-2022,10-2-9,11,depth_duration_stimuli/001584_2014-06-20_11-07-43_260595134347_rgbf000002-resize_1/001584_2014-06-20_11-07-43_260595134347_rgbf000002-resize_1-target.png,250,3.53,12,3131,249,feet,jsons/v1_VE250_randls_45_rotated.json,495261,579482,31,Man
11,673972,DepthScenes,duration_manipulation_targetAtFixation,jsons/v1_VE250_randls_45_rotated.json,http://54.235.29.9/FacialAge/BNav_EC2/DepthDuration/v2_depth_duration_MTurk/v2_DepthDuration_HTML.html#444,444,1920,1009,1920,1080,8-30-2022,10-2-9,12,depth_duration_stimuli/003621_2014-05-23_18-06-08_094959634447_rgbf000101-resize_1/003621_2014-05-23_18-06-08_094959634447_rgbf000101-resize_1-target.png,250,3.9835,12,2203,249,feet,jsons/v1_VE250_randls_45_rotated.json,495261,579482,31,Man
12,673972,DepthScenes,duration_manipulation_targetAtFixation,jsons/v1_VE250_randls_45_rotated.json,http://54.235.29.9/FacialAge/BNav_EC2/DepthDuration/v2_depth_duration_MTurk/v2_DepthDuration_HTML.html#444,444,1920,1009,1920,1080,8-30-2022,10-2-9,13,depth_duration_stimuli/002678_2014-06-13_16-15-32_094959634447_rgbf000151-resize_6/002678_2014-06-13_16-15-32_094959634447_rgbf000151-resize_6-target.png,250,2.1830000000000003,10,2676,250,feet,jsons/v1_VE250_randls_45_rotated.json,495261,579482,31,Man
13,673972,DepthScenes,duration_manipulation_targetAtFixation,jsons/v1_VE250_randls_45_rotated.json,http://54.235.29.9/FacialAge/BNav_EC2/DepthDuration/v2_depth_duration_MTurk/v2_DepthDuration_HTML.html#444,444,1920,1009,1920,1080,8-30-2022,10-2-9,14,depth_duration_stimuli/000368_2014-06-09_15-53-01_260595134347_rgbf000155-resize_2/000368_2014-06-09_15-53-01_260595134347_rgbf000155-resize_2-target.png,250,2.4859999999999998,4,2506,212,feet,jsons/v1_VE250_randls_45_rotated.json,495261,579482,31,Man
14,673972,DepthScenes,duration_manipulation_targetAtFixation,jsons/v1_VE250_randls_45_rotated.json,http://54.235.29.9/FacialAge/BNav_EC2/DepthDuration/v2_depth_duration_MTurk/v2_DepthDuration_HTML.html#444,444,1920,1009,1920,1080,8-30-2022,10-2-9,15,depth_duration_stimuli/001136_2014-06-17_15-19-41_260595134347_rgbf000076-resize_3/001136_2014-06-17_15-19-41_260595134347_rgbf000076-resize_3-target.png,250,1.8655,6,2651,244,feet,jsons/v1_VE250_randls_45_rotated.json,495261,579482,31,Man
15,673972,DepthScenes,duration_manipulation_targetAtFixation,jsons/v1_VE250_randls_45_rotated.json,http://54.235.29.9/FacialAge/BNav_EC2/DepthDuration/v2_depth_duration_MTurk/v2_DepthDuration_HTML.html#444,444,1920,1009,1920,1080,8-30-2022,10-2-9,16,depth_duration_stimuli/001164_2014-06-17_15-35-46_260595134347_rgbf000085-resize_3/001164_2014-06-17_15-35-46_260595134347_rgbf000085-resize_3-target.png,250,2.354,7,2771,253,feet,jsons/v1_VE250_randls_45_rotated.json,495261,579482,31,Man
16,673972,DepthScenes,duration_manipulation_targetAtFixation,jsons/v1_VE250_randls_45_rotated.json,http://54.235.29.9/FacialAge/BNav_EC2/DepthDuration/v2_depth_duration_MTurk/v2_DepthDuration_HTML.html#444,444,1920,1009,1920,1080,8-30-2022,10-2-9,17,depth_duration_stimuli/003079_2014-06-15_15-18-20_094959634447_rgbf000152-resize_8/003079_2014-06-15_15-18-20_094959634447_rgbf000152-resize_8-target.png,250,2.8775,12,2324,250,feet,jsons/v1_VE250_randls_45_rotated.json,495261,579482,31,Man
17,673972,DepthScenes,duration_manipulation_targetAtFixation,jsons/v1_VE250_randls_45_rotated.json,http://54.235.29.9/FacialAge/BNav_EC2/DepthDuration/v2_depth_duration_MTurk/v2_DepthDuration_HTML.html#444,444,1920,1009,1920,1080,8-30-2022,10-2-9,18,depth_duration_stimuli/000506_2014-06-08_23-21-00_260595134347_rgbf000070-resize_7/000506_2014-06-08_23-21-00_260595134347_rgbf000070-resize_7-target.png,250,4.0585,10,5851,250,feet,jsons/v1_VE250_randls_45_rotated.json,495261,579482,31,Man
18,673972,DepthScenes,duration_manipulation_targetAtFixation,jsons/v1_VE250_randls_45_rotated.json,http://54.235.29.9/FacialAge/BNav_EC2/DepthDuration/v2_depth_duration_MTurk/v2_DepthDuration_HTML.html#444,444,1920,1009,1920,1080,8-30-2022,10-2-9,19,depth_duration_stimuli/001498_2014-06-19_17-45-14_260595134347_rgbf000129-resize_4/001498_2014-06-19_17-45-14_260595134347_rgbf000129-resize-original.jpg,250,1.4075,0,2956,250,feet,jsons/v1_VE250_randls_45_rotated.json,495261,579482,31,Man
19,673972,DepthScenes,duration_manipulation_targetAtFixation,jsons/v1_VE250_randls_45_rotated.json,http://54.235.29.9/FacialAge/BNav_EC2/DepthDuration/v2_depth_duration_MTurk/v2_DepthDuration_HTML.html#444,444,1920,1009,1920,1080,8-30-2022,10-2-9,20,depth_duration_stimuli/000742_2014-06-08_18-48-09_260595134347_rgbf000164-resize_4/000742_2014-06-08_18-48-09_260595134347_rgbf000164-resize_4-target.png,250,4.632,10,4364,249,feet,jsons/v1_VE250_randls_45_rotated.json,495261,579482,31,Man
20,673972,DepthScenes,duration_manipulation_targetAtFixation,jsons/v1_VE250_randls_45_rotated.json,http://54.235.29.9/FacialAge/BNav_EC2/DepthDuration/v2_depth_duration_MTurk/v2_DepthDuration_HTML.html#444,444,1920,1009,1920,1080,8-30-2022,10-2-9,21,depth_duration_stimuli/001066_2014-06-08_22-03-20_260595134347_rgbf000066-resize_4/001066_2014-06-08_22-03-20_260595134347_rgbf000066-resize_4-target.png,250,4.2330000000000005,15,3154,250,feet,jsons/v1_VE250_randls_45_rotated.json,495261,579482,31,Man
21,673972,DepthScenes,duration_manipulation_targetAtFixation,jsons/v1_VE250_randls_45_rotated.json,http://54.235.29.9/FacialAge/BNav_EC2/DepthDuration/v2_depth_duration_MTurk/v2_DepthDuration_HTML.html#444,444,1920,1009,1920,1080,8-30-2022,10-2-9,22,depth_duration_stimuli/000665_2014-06-09_20-42-35_260595134347_rgbf000110-resize_1/000665_2014-06-09_20-42-35_260595134347_rgbf000110-resize_1-target.png,250,3.057,8,2554,250,feet,jsons/v1_VE250_randls_45_rotated.json,495261,579482,31,Man
22,673972,DepthScenes,duration_manipulation_targetAtFixation,jsons/v1_VE250_randls_45_rotated.json,http://54.235.29.9/FacialAge/BNav_EC2/DepthDuration/v2_depth_duration_MTurk/v2_DepthDuration_HTML.html#444,444,1920,1009,1920,1080,8-30-2022,10-2-9,23,depth_duration_stimuli/001150_2014-06-17_15-27-34_260595134347_rgbf000108-resize_2/001150_2014-06-17_15-27-34_260595134347_rgbf000108-resize_2-target.png,250,4.0325,10,2899,250,feet,jsons/v1_VE250_randls_45_rotated.json,495261,579482,31,Man
23,673972,DepthScenes,duration_manipulation_targetAtFixation,jsons/v1_VE250_randls_45_rotated.json,http://54.235.29.9/FacialAge/BNav_EC2/DepthDuration/v2_depth_duration_MTurk/v2_DepthDuration_HTML.html#444,444,1920,1009,1920,1080,8-30-2022,10-2-9,24,depth_duration_stimuli/000866_2014-06-09_20-45-42_260595134347_rgbf000139-resize_1/000866_2014-06-09_20-45-42_260595134347_rgbf000139-resize_1-target.png,250,3.2155,6,2823,250,feet,jsons/v1_VE250_randls_45_rotated.json,495261,579482,31,Man
24,673972,DepthScenes,duration_manipulation_targetAtFixation,jsons/v1_VE250_randls_45_rotated.json,http://54.235.29.9/FacialAge/BNav_EC2/DepthDuration/v2_depth_duration_MTurk/v2_DepthDuration_HTML.html#444,444,1920,1009,1920,1080,8-30-2022,10-2-9,25,depth_duration_stimuli/002989_2014-06-15_12-25-03_094959634447_rgbf000150-resize_3/002989_2014-06-15_12-25-03_094959634447_rgbf000150-resize_3-target.png,250,4.1975,10,3211,249,feet,jsons/v1_VE250_randls_45_rotated.json,495261,579482,31,Man
25,673972,DepthScenes,duration_manipulation_targetAtFixation,jsons/v1_VE250_randls_45_rotated.json,http://54.235.29.9/FacialAge/BNav_EC2/DepthDuration/v2_depth_duration_MTurk/v2_DepthDuration_HTML.html#444,444,1920,1009,1920,1080,8-30-2022,10-2-9,26,depth_duration_stimuli/000677_2014-06-08_23-10-32_260595134347_rgbf000158-resize_6/000677_2014-06-08_23-10-32_260595134347_rgbf000158-resize_6-target.png,250,3.556,7,2655,250,feet,jsons/v1_VE250_randls_45_rotated.json,495261,579482,31,Man
26,673972,DepthScenes,duration_manipulation_targetAtFixation,jsons/v1_VE250_randls_45_rotated.json,http://54.235.29.9/FacialAge/BNav_EC2/DepthDuration/v2_depth_duration_MTurk/v2_DepthDuration_HTML.html#444,444,1920,1009,1920,1080,8-30-2022,10-2-9,27,depth_duration_stimuli/001029_2014-06-08_13-17-57_260595134347_rgbf000065-resize_1/001029_2014-06-08_13-17-57_260595134347_rgbf000065-resize_1-target.png,250,3.0835,6,2612,249,feet,jsons/v1_VE250_randls_45_rotated.json,495261,579482,31,Man
27,673972,DepthScenes,duration_manipulation_targetAtFixation,jsons/v1_VE250_randls_45_rotated.json,http://54.235.29.9/FacialAge/BNav_EC2/DepthDuration/v2_depth_duration_MTurk/v2_DepthDuration_HTML.html#444,444,1920,1009,1920,1080,8-30-2022,10-2-9,28,depth_duration_stimuli/003423_2014-05-21_10-23-26_094959634447_rgbf002665-resize_2/003423_2014-05-21_10-23-26_094959634447_rgbf002665-resize_2-target.png,250,3.2575,10,4248,250,feet,jsons/v1_VE250_randls_45_rotated.json,495261,579482,31,Man
28,673972,DepthScenes,duration_manipulation_targetAtFixation,jsons/v1_VE250_randls_45_rotated.json,http://54.235.29.9/FacialAge/BNav_EC2/DepthDuration/v2_depth_duration_MTurk/v2_DepthDuration_HTML.html#444,444,1920,1009,1920,1080,8-30-2022,10-2-9,29,depth_duration_stimuli/002905_2014-06-03_18-04-43_094959634447_rgbf000151-resize_2/002905_2014-06-03_18-04-43_094959634447_rgbf000151-resize_2-target.png,250,2.0295,5,2557,216,feet,jsons/v1_VE250_randls_45_rotated.json,495261,579482,31,Man
29,673972,DepthScenes,duration_manipulation_targetAtFixation,jsons/v1_VE250_randls_45_rotated.json,http://54.235.29.9/FacialAge/BNav_EC2/DepthDuration/v2_depth_duration_MTurk/v2_DepthDuration_HTML.html#444,444,1920,1009,1920,1080,8-30-2022,10-2-9,30,depth_duration_stimuli/002072_2014-06-24_21-48-06_260595134347_rgbf000115-resize_0/002072_2014-06-24_21-48-06_260595134347_rgbf000115-resize-original.jpg,250,4.702,0,2939,250,feet,jsons/v1_VE250_randls_45_rotated.json,495261,579482,31,Man
30,673972,DepthScenes,duration_manipulation_targetAtFixation,jsons/v1_VE250_randls_45_rotated.json,http://54.235.29.9/FacialAge/BNav_EC2/DepthDuration/v2_depth_duration_MTurk/v2_DepthDuration_HTML.html#444,444,1920,1009,1920,1080,8-30-2022,10-2-9,31,depth_duration_stimuli/002953_2014-06-08_17-32-18_094959634447_rgbf000059-resize_5/002953_2014-06-08_17-32-18_094959634447_rgbf000059-resize_5-target.png,250,1.551,3,4571,249,feet,jsons/v1_VE250_randls_45_rotated.json,495261,579482,31,Man
31,673972,DepthScenes,duration_manipulation_targetAtFixation,jsons/v1_VE250_randls_45_rotated.json,http://54.235.29.9/FacialAge/BNav_EC2/DepthDuration/v2_depth_duration_MTurk/v2_DepthDuration_HTML.html#444,444,1920,1009,1920,1080,8-30-2022,10-2-9,32,depth_duration_stimuli/000878_2014-06-08_22-52-45_260595134347_rgbf000045-resize_2/000878_2014-06-08_22-52-45_260595134347_rgbf000045-resize_2-target.png,250,2.092,6,2971,250,feet,jsons/v1_VE250_randls_45_rotated.json,495261,579482,31,Man
32,673972,DepthScenes,duration_manipulation_targetAtFixation,jsons/v1_VE250_randls_45_rotated.json,http://54.235.29.9/FacialAge/BNav_EC2/DepthDuration/v2_depth_duration_MTurk/v2_DepthDuration_HTML.html#444,444,1920,1009,1920,1080,8-30-2022,10-2-9,33,depth_duration_stimuli/001094_2014-06-15_17-36-00_260595134347_rgbf000205-resize_0/001094_2014-06-15_17-36-00_260595134347_rgbf000205-resize_0-target.png,250,4.2175,12,5650,248,feet,jsons/v1_VE250_randls_45_rotated.json,495261,579482,31,Man
33,673972,DepthScenes,duration_manipulation_targetAtFixation,jsons/v1_VE250_randls_45_rotated.json,http://54.235.29.9/FacialAge/BNav_EC2/DepthDuration/v2_depth_duration_MTurk/v2_DepthDuration_HTML.html#444,444,1920,1009,1920,1080,8-30-2022,10-2-9,34,depth_duration_stimuli/000692_2014-06-08_13-09-42_260595134347_rgbf000199-resize_2/000692_2014-06-08_13-09-42_260595134347_rgbf000199-resize_2-target.png,250,3.661,15,2940,249,feet,jsons/v1_VE250_randls_45_rotated.json,495261,579482,31,Man
34,673972,DepthScenes,duration_manipulation_targetAtFixation,jsons/v1_VE250_randls_45_rotated.json,http://54.235.29.9/FacialAge/BNav_EC2/DepthDuration/v2_depth_duration_MTurk/v2_DepthDuration_HTML.html#444,444,1920,1009,1920,1080,8-30-2022,10-2-9,35,depth_duration_stimuli/002545_2014-06-24_13-38-53_094959634447_rgbf000080-resize_4/002545_2014-06-24_13-38-53_094959634447_rgbf000080-resize_4-target.png,250,1.9205,5,2506,248,feet,jsons/v1_VE250_randls_45_rotated.json,495261,579482,31,Man
35,673972,DepthScenes,duration_manipulation_targetAtFixation,jsons/v1_VE250_randls_45_rotated.json,http://54.235.29.9/FacialAge/BNav_EC2/DepthDuration/v2_depth_duration_MTurk/v2_DepthDuration_HTML.html#444,444,1920,1009,1920,1080,8-30-2022,10-2-9,36,depth_duration_stimuli/001092_2014-06-15_17-34-58_260595134347_rgbf000171-resize_3/001092_2014-06-15_17-34-58_260595134347_rgbf000171-resize_3-target.png,250,2.6935,5,2442,249,feet,jsons/v1_VE250_randls_45_rotated.json,495261,579482,31,Man
36,673972,DepthScenes,duration_manipulation_targetAtFixation,jsons/v1_VE250_randls_45_rotated.json,http://54.235.29.9/FacialAge/BNav_EC2/DepthDuration/v2_depth_duration_MTurk/v2_DepthDuration_HTML.html#444,444,1920,1009,1920,1080,8-30-2022,10-2-9,37,depth_duration_stimuli/001447_2014-06-19_17-00-32_260595134347_rgbf000082-resize_5/001447_2014-06-19_17-00-32_260595134347_rgbf000082-resize_5-target.png,250,4.13775,7,2396,250,feet,jsons/v1_VE250_randls_45_rotated.json,495261,579482,31,Man
37,673972,DepthScenes,duration_manipulation_targetAtFixation,jsons/v1_VE250_randls_45_rotated.json,http://54.235.29.9/FacialAge/BNav_EC2/DepthDuration/v2_depth_duration_MTurk/v2_DepthDuration_HTML.html#444,444,1920,1009,1920,1080,8-30-2022,10-2-9,38,depth_duration_stimuli/000447_2014-06-08_16-15-46_260595134347_rgbf000130-resize_1/000447_2014-06-08_16-15-46_260595134347_rgbf000130-resize_1-target.png,250,4.479,12,2642,250,feet,jsons/v1_VE250_randls_45_rotated.json,495261,579482,31,Man
38,673972,DepthScenes,duration_manipulation_targetAtFixation,jsons/v1_VE250_randls_45_rotated.json,http://54.235.29.9/FacialAge/BNav_EC2/DepthDuration/v2_depth_duration_MTurk/v2_DepthDuration_HTML.html#444,444,1920,1009,1920,1080,8-30-2022,10-2-9,39,depth_duration_stimuli/002660_2014-06-13_15-44-18_094959634447_rgbf001878-resize_2/002660_2014-06-13_15-44-18_094959634447_rgbf001878-resize_2-target.png,250,3.576,10,3235,250,feet,jsons/v1_VE250_randls_45_rotated.json,495261,579482,31,Man
39,673972,DepthScenes,duration_manipulation_targetAtFixation,jsons/v1_VE250_randls_45_rotated.json,http://54.235.29.9/FacialAge/BNav_EC2/DepthDuration/v2_depth_duration_MTurk/v2_DepthDuration_HTML.html#444,444,1920,1009,1920,1080,8-30-2022,10-2-9,40,depth_duration_stimuli/002153_2014-06-25_21-27-18_260595134347_rgbf000038-resize_5/002153_2014-06-25_21-27-18_260595134347_rgbf000038-resize_5-target.png,250,2.505,6,2606,245,feet,jsons/v1_VE250_randls_45_rotated.json,495261,579482,31,Man
40,673972,DepthScenes,duration_manipulation_targetAtFixation,jsons/v1_VE250_randls_45_rotated.json,http://54.235.29.9/FacialAge/BNav_EC2/DepthDuration/v2_depth_duration_MTurk/v2_DepthDuration_HTML.html#444,444,1920,1009,1920,1080,8-30-2022,10-2-9,41,depth_duration_stimuli/000635_2014-06-08_16-38-42_260595134347_rgbf000106-resize_1/000635_2014-06-08_16-38-42_260595134347_rgbf000106-resize_1-target.png,250,2.074,7,2547,249,feet,jsons/v1_VE250_randls_45_rotated.json,495261,579482,31,Man
41,673972,DepthScenes,duration_manipulation_targetAtFixation,jsons/v1_VE250_randls_45_rotated.json,http://54.235.29.9/FacialAge/BNav_EC2/DepthDuration/v2_depth_duration_MTurk/v2_DepthDuration_HTML.html#444,444,1920,1009,1920,1080,8-30-2022,10-2-9,42,depth_duration_stimuli/002279_2014-06-28_18-55-32_260595134347_rgbf000040-resize_5/002279_2014-06-28_18-55-32_260595134347_rgbf000040-resize_5-target.png,250,1.5043333333333,3,2547,249,feet,jsons/v1_VE250_randls_45_rotated.json,495261,579482,31,Man
42,673972,DepthScenes,duration_manipulation_targetAtFixation,jsons/v1_VE250_randls_45_rotated.json,http://54.235.29.9/FacialAge/BNav_EC2/DepthDuration/v2_depth_duration_MTurk/v2_DepthDuration_HTML.html#444,444,1920,1009,1920,1080,8-30-2022,10-2-9,43,depth_duration_stimuli/003587_2014-05-23_16-48-02_094959634447_rgbf002384-resize_2/003587_2014-05-23_16-48-02_094959634447_rgbf002384-resize_2-target.png,250,1.357,2,1677,250,feet,jsons/v1_VE250_randls_45_rotated.json,495261,579482,31,Man
43,673972,DepthScenes,duration_manipulation_targetAtFixation,jsons/v1_VE250_randls_45_rotated.json,http://54.235.29.9/FacialAge/BNav_EC2/DepthDuration/v2_depth_duration_MTurk/v2_DepthDuration_HTML.html#444,444,1920,1009,1920,1080,8-30-2022,10-2-9,44,depth_duration_stimuli/001167_2014-06-17_15-38-07_260595134347_rgbf000108-resize_0/001167_2014-06-17_15-38-07_260595134347_rgbf000108-resize_0-target.png,250,1.8505,3,1905,250,feet,jsons/v1_VE250_randls_45_rotated.json,495261,579482,31,Man
44,673972,DepthScenes,duration_manipulation_targetAtFixation,jsons/v1_VE250_randls_45_rotated.json,http://54.235.29.9/FacialAge/BNav_EC2/DepthDuration/v2_depth_duration_MTurk/v2_DepthDuration_HTML.html#444,444,1920,1009,1920,1080,8-30-2022,10-2-9,45,depth_duration_stimuli/002199_2014-06-28_18-33-56_260595134347_rgbf000074-resize_0/002199_2014-06-28_18-33-56_260595134347_rgbf000074-resize_0-target.png,250,1.996,2,1563,250,feet,jsons/v1_VE250_randls_45_rotated.json,495261,579482,31,Man
45,673972,DepthScenes,duration_manipulation_targetAtFixation,jsons/v1_VE250_randls_45_rotated.json,http://54.235.29.9/FacialAge/BNav_EC2/DepthDuration/v2_depth_duration_MTurk/v2_DepthDuration_HTML.html#444,444,1920,1009,1920,1080,8-30-2022,10-2-9,46,depth_duration_stimuli/001056_2014-06-08_18-46-44_260595134347_rgbf000068-resize_0/001056_2014-06-08_18-46-44_260595134347_rgbf000068-resize_0-target.png,250,2.6625,6,2293,250,feet,jsons/v1_VE250_randls_45_rotated.json,495261,579482,31,Man
46,673972,DepthScenes,duration_manipulation_targetAtFixation,jsons/v1_VE250_randls_45_rotated.json,http://54.235.29.9/FacialAge/BNav_EC2/DepthDuration/v2_depth_duration_MTurk/v2_DepthDuration_HTML.html#444,444,1920,1009,1920,1080,8-30-2022,10-2-9,47,depth_duration_stimuli/002136_2014-06-25_21-18-03_260595134347_rgbf000109-resize_3/002136_2014-06-25_21-18-03_260595134347_rgbf000109-resize_3-target.png,250,1.9569999999999999,4,2312,231,feet,jsons/v1_VE250_randls_45_rotated.json,495261,579482,31,Man
47,673972,DepthScenes,duration_manipulation_targetAtFixation,jsons/v1_VE250_randls_45_rotated.json,http://54.235.29.9/FacialAge/BNav_EC2/DepthDuration/v2_depth_duration_MTurk/v2_DepthDuration_HTML.html#444,444,1920,1009,1920,1080,8-30-2022,10-2-9,48,depth_duration_stimuli/002964_2014-06-08_17-46-11_094959634447_rgbf000091-resize_4/002964_2014-06-08_17-46-11_094959634447_rgbf000091-resize_4-target.png,250,1.6909999999999998,3,1837,251,feet,jsons/v1_VE250_randls_45_rotated.json,495261,579482,31,Man
48,673972,DepthScenes,duration_manipulation_targetAtFixation,jsons/v1_VE250_randls_45_rotated.json,http://54.235.29.9/FacialAge/BNav_EC2/DepthDuration/v2_depth_duration_MTurk/v2_DepthDuration_HTML.html#444,444,1920,1009,1920,1080,8-30-2022,10-2-9,49,depth_duration_stimuli/001170_2014-06-17_15-43-44_260595134347_rgbf000096-resize_6/001170_2014-06-17_15-43-44_260595134347_rgbf000096-resize-original.jpg,250,1.1909999999999998,0,2307,250,feet,jsons/v1_VE250_randls_45_rotated.json,495261,579482,31,Man
49,673972,DepthScenes,duration_manipulation_targetAtFixation,jsons/v1_VE250_randls_45_rotated.json,http://54.235.29.9/FacialAge/BNav_EC2/DepthDuration/v2_depth_duration_MTurk/v2_DepthDuration_HTML.html#444,444,1920,1009,1920,1080,8-30-2022,10-2-9,50,depth_duration_stimuli/000483_2014-06-09_20-41-45_260595134347_rgbf000116-resize_4/000483_2014-06-09_20-41-45_260595134347_rgbf000116-resize_4-target.png,250,1.337,3,2203,249,feet,jsons/v1_VE250_randls_45_rotated.json,495261,579482,31,Man
50,673972,DepthScenes,duration_manipulation_targetAtFixation,jsons/v1_VE250_randls_45_rotated.json,http://54.235.29.9/FacialAge/BNav_EC2/DepthDuration/v2_depth_duration_MTurk/v2_DepthDuration_HTML.html#444,444,1920,1009,1920,1080,8-30-2022,10-2-9,51,depth_duration_stimuli/000469_2014-06-09_19-42-10_260595134347_rgbf000081-resize_1/000469_2014-06-09_19-42-10_260595134347_rgbf000081-resize_1-target.png,250,1.652,3,1748,249,feet,jsons/v1_VE250_randls_45_rotated.json,495261,579482,31,Man
51,673972,DepthScenes,duration_manipulation_targetAtFixation,jsons/v1_VE250_randls_45_rotated.json,http://54.235.29.9/FacialAge/BNav_EC2/DepthDuration/v2_depth_duration_MTurk/v2_DepthDuration_HTML.html#444,444,1920,1009,1920,1080,8-30-2022,10-2-9,52,depth_duration_stimuli/000549_2014-06-08_22-10-24_260595134347_rgbf000247-resize_3/000549_2014-06-08_22-10-24_260595134347_rgbf000247-resize_3-target.png,250,1.841,3,1579,250,feet,jsons/v1_VE250_randls_45_rotated.json,495261,579482,31,Man
52,673972,DepthScenes,duration_manipulation_targetAtFixation,jsons/v1_VE250_randls_45_rotated.json,http://54.235.29.9/FacialAge/BNav_EC2/DepthDuration/v2_depth_duration_MTurk/v2_DepthDuration_HTML.html#444,444,1920,1009,1920,1080,8-30-2022,10-2-9,53,depth_duration_stimuli/001055_2014-06-08_18-45-35_260595134347_rgbf000111-resize_4/001055_2014-06-08_18-45-35_260595134347_rgbf000111-resize_4-target.png,250,2.4290000000000003,10,3027,250,feet,jsons/v1_VE250_randls_45_rotated.json,495261,579482,31,Man
53,673972,DepthScenes,duration_manipulation_targetAtFixation,jsons/v1_VE250_randls_45_rotated.json,http://54.235.29.9/FacialAge/BNav_EC2/DepthDuration/v2_depth_duration_MTurk/v2_DepthDuration_HTML.html#444,444,1920,1009,1920,1080,8-30-2022,10-2-9,54,depth_duration_stimuli/002323_2014-06-28_20-01-54_260595134347_rgbf000051-resize_4/002323_2014-06-28_20-01-54_260595134347_rgbf000051-resize_4-target.png,250,3.7310000000000003,8,2500,251,feet,jsons/v1_VE250_randls_45_rotated.json,495261,579482,31,Man
54,673972,DepthScenes,duration_manipulation_targetAtFixation,jsons/v1_VE250_randls_45_rotated.json,http://54.235.29.9/FacialAge/BNav_EC2/DepthDuration/v2_depth_duration_MTurk/v2_DepthDuration_HTML.html#444,444,1920,1009,1920,1080,8-30-2022,10-2-9,55,depth_duration_stimuli/000917_2014-06-09_22-45-29_260595134347_rgbf000149-resize_3/000917_2014-06-09_22-45-29_260595134347_rgbf000149-resize_3-target.png,250,4.1865,15,3787,250,feet,jsons/v1_VE250_randls_45_rotated.json,495261,579482,31,Man
55,673972,DepthScenes,duration_manipulation_targetAtFixation,jsons/v1_VE250_randls_45_rotated.json,http://54.235.29.9/FacialAge/BNav_EC2/DepthDuration/v2_depth_duration_MTurk/v2_DepthDuration_HTML.html#444,444,1920,1009,1920,1080,8-30-2022,10-2-9,56,depth_duration_stimuli/002758_2014-06-22_19-11-20_094959634447_rgbf000128-resize_1/002758_2014-06-22_19-11-20_094959634447_rgbf000128-resize_1-target.png,250,2.555,5,2300,250,feet,jsons/v1_VE250_randls_45_rotated.json,495261,579482,31,Man
56,673972,DepthScenes,duration_manipulation_targetAtFixation,jsons/v1_VE250_randls_45_rotated.json,http://54.235.29.9/FacialAge/BNav_EC2/DepthDuration/v2_depth_duration_MTurk/v2_DepthDuration_HTML.html#444,444,1920,1009,1920,1080,8-30-2022,10-2-9,57,depth_duration_stimuli/002630_2014-06-24_14-47-50_094959634447_rgbf000055-resize_1/002630_2014-06-24_14-47-50_094959634447_rgbf000055-resize_1-target.png,250,3.0095,12,1699,250,feet,jsons/v1_VE250_randls_45_rotated.json,495261,579482,31,Man
57,673972,DepthScenes,duration_manipulation_targetAtFixation,jsons/v1_VE250_randls_45_rotated.json,http://54.235.29.9/FacialAge/BNav_EC2/DepthDuration/v2_depth_duration_MTurk/v2_DepthDuration_HTML.html#444,444,1920,1009,1920,1080,8-30-2022,10-2-9,58,depth_duration_stimuli/002340_2014-06-28_20-05-46_260595134347_rgbf000113-resize_0/002340_2014-06-28_20-05-46_260595134347_rgbf000113-resize_0-target.png,250,2.4735,10,2764,249,feet,jsons/v1_VE250_randls_45_rotated.json,495261,579482,31,Man
58,673972,DepthScenes,duration_manipulation_targetAtFixation,jsons/v1_VE250_randls_45_rotated.json,http://54.235.29.9/FacialAge/BNav_EC2/DepthDuration/v2_depth_duration_MTurk/v2_DepthDuration_HTML.html#444,444,1920,1009,1920,1080,8-30-2022,10-2-9,59,depth_duration_stimuli/001016_2014-06-09_16-16-10_260595134347_rgbf000112-resize_5/001016_2014-06-09_16-16-10_260595134347_rgbf000112-resize_5-target.png,250,1.6565,5,3444,250,feet,jsons/v1_VE250_randls_45_rotated.json,495261,579482,31,Man
59,673972,DepthScenes,duration_manipulation_targetAtFixation,jsons/v1_VE250_randls_45_rotated.json,http://54.235.29.9/FacialAge/BNav_EC2/DepthDuration/v2_depth_duration_MTurk/v2_DepthDuration_HTML.html#444,444,1920,1009,1920,1080,8-30-2022,10-2-9,60,depth_duration_stimuli/000502_2014-06-08_23-02-32_260595134347_rgbf000063-resize_4/000502_2014-06-08_23-02-32_260595134347_rgbf000063-resize_4-target.png,250,2.431,5,1642,250,feet,jsons/v1_VE250_randls_45_rotated.json,495261,579482,31,Man
60,673972,DepthScenes,duration_manipulation_targetAtFixation,jsons/v1_VE250_randls_45_rotated.json,http://54.235.29.9/FacialAge/BNav_EC2/DepthDuration/v2_depth_duration_MTurk/v2_DepthDuration_HTML.html#444,444,1920,1009,1920,1080,8-30-2022,10-2-9,61,depth_duration_stimuli/001199_2014-06-17_16-03-48_260595134347_rgbf000077-resize_0/001199_2014-06-17_16-03-48_260595134347_rgbf000077-resize_0-target.png,250,3.4375,12,3011,250,feet,jsons/v1_VE250_randls_45_rotated.json,495261,579482,31,Man
61,673972,DepthScenes,duration_manipulation_targetAtFixation,jsons/v1_VE250_randls_45_rotated.json,http://54.235.29.9/FacialAge/BNav_EC2/DepthDuration/v2_depth_duration_MTurk/v2_DepthDuration_HTML.html#444,444,1920,1009,1920,1080,8-30-2022,10-2-9,62,depth_duration_stimuli/003490_2014-05-21_15-50-11_094959634447_rgbf000101-resize_3/003490_2014-05-21_15-50-11_094959634447_rgbf000101-resize_3-target.png,250,3.6445,10,2835,250,feet,jsons/v1_VE250_randls_45_rotated.json,495261,579482,31,Man
62,673972,DepthScenes,duration_manipulation_targetAtFixation,jsons/v1_VE250_randls_45_rotated.json,http://54.235.29.9/FacialAge/BNav_EC2/DepthDuration/v2_depth_duration_MTurk/v2_DepthDuration_HTML.html#444,444,1920,1009,1920,1080,8-30-2022,10-2-9,63,depth_duration_stimuli/001175_2014-06-17_15-45-55_260595134347_rgbf000129-resize_4/001175_2014-06-17_15-45-55_260595134347_rgbf000129-resize_4-target.png,250,4.255,15,2684,250,feet,jsons/v1_VE250_randls_45_rotated.json,495261,579482,31,Man
63,673972,DepthScenes,duration_manipulation_targetAtFixation,jsons/v1_VE250_randls_45_rotated.json,http://54.235.29.9/FacialAge/BNav_EC2/DepthDuration/v2_depth_duration_MTurk/v2_DepthDuration_HTML.html#444,444,1920,1009,1920,1080,8-30-2022,10-2-9,64,depth_duration_stimuli/000191_2014-05-12_17-07-38_260595134347_rgbf000199-resize_0/000191_2014-05-12_17-07-38_260595134347_rgbf000199-resize_0-target.png,250,3.7995,10,2771,250,feet,jsons/v1_VE250_randls_45_rotated.json,495261,579482,31,Man
64,673972,DepthScenes,duration_manipulation_targetAtFixation,jsons/v1_VE250_randls_45_rotated.json,http://54.235.29.9/FacialAge/BNav_EC2/DepthDuration/v2_depth_duration_MTurk/v2_DepthDuration_HTML.html#444,444,1920,1009,1920,1080,8-30-2022,10-2-9,65,depth_duration_stimuli/000493_2014-06-09_21-01-18_260595134347_rgbf000196-resize_3/000493_2014-06-09_21-01-18_260595134347_rgbf000196-resize_3-target.png,250,3.44,6,2635,250,feet,jsons/v1_VE250_randls_45_rotated.json,495261,579482,31,Man
65,673972,DepthScenes,duration_manipulation_targetAtFixation,jsons/v1_VE250_randls_45_rotated.json,http://54.235.29.9/FacialAge/BNav_EC2/DepthDuration/v2_depth_duration_MTurk/v2_DepthDuration_HTML.html#444,444,1920,1009,1920,1080,8-30-2022,10-2-9,66,depth_duration_stimuli/001540_2014-06-20_17-01-05_260595134347_rgbf000086-resize_2/001540_2014-06-20_17-01-05_260595134347_rgbf000086-resize-original.jpg,250,1.459,0,2632,246,feet,jsons/v1_VE250_randls_45_rotated.json,495261,579482,31,Man
66,673972,DepthScenes,duration_manipulation_targetAtFixation,jsons/v1_VE250_randls_45_rotated.json,http://54.235.29.9/FacialAge/BNav_EC2/DepthDuration/v2_depth_duration_MTurk/v2_DepthDuration_HTML.html#444,444,1920,1009,1920,1080,8-30-2022,10-2-9,67,depth_duration_stimuli/001392_2014-06-19_16-07-59_260595134347_rgbf000046-resize_1/001392_2014-06-19_16-07-59_260595134347_rgbf000046-resize_1-target.png,250,4.135,10,3212,250,feet,jsons/v1_VE250_randls_45_rotated.json,495261,579482,31,Man
67,673972,DepthScenes,duration_manipulation_targetAtFixation,jsons/v1_VE250_randls_45_rotated.json,http://54.235.29.9/FacialAge/BNav_EC2/DepthDuration/v2_depth_duration_MTurk/v2_DepthDuration_HTML.html#444,444,1920,1009,1920,1080,8-30-2022,10-2-9,68,depth_duration_stimuli/001570_2014-06-20_17-21-09_260595134347_rgbf000135-resize_4/001570_2014-06-20_17-21-09_260595134347_rgbf000135-resize_4-target.png,250,4.467,15,3859,249,feet,jsons/v1_VE250_randls_45_rotated.json,495261,579482,31,Man
68,673972,DepthScenes,duration_manipulation_targetAtFixation,jsons/v1_VE250_randls_45_rotated.json,http://54.235.29.9/FacialAge/BNav_EC2/DepthDuration/v2_depth_duration_MTurk/v2_DepthDuration_HTML.html#444,444,1920,1009,1920,1080,8-30-2022,10-2-9,69,depth_duration_stimuli/000734_2014-06-08_17-39-11_260595134347_rgbf000128-resize_2/000734_2014-06-08_17-39-11_260595134347_rgbf000128-resize_2-target.png,250,4.098,7,2588,249,feet,jsons/v1_VE250_randls_45_rotated.json,495261,579482,31,Man
69,673972,DepthScenes,duration_manipulation_targetAtFixation,jsons/v1_VE250_randls_45_rotated.json,http://54.235.29.9/FacialAge/BNav_EC2/DepthDuration/v2_depth_duration_MTurk/v2_DepthDuration_HTML.html#444,444,1920,1009,1920,1080,8-30-2022,10-2-9,70,depth_duration_stimuli/000739_2014-06-08_18-45-58_260595134347_rgbf000068-resize_1/000739_2014-06-08_18-45-58_260595134347_rgbf000068-resize_1-target.png,250,3.534,8,2955,282,feet,jsons/v1_VE250_randls_45_rotated.json,495261,579482,31,Man
70,673972,DepthScenes,duration_manipulation_targetAtFixation,jsons/v1_VE250_randls_45_rotated.json,http://54.235.29.9/FacialAge/BNav_EC2/DepthDuration/v2_depth_duration_MTurk/v2_DepthDuration_HTML.html#444,444,1920,1009,1920,1080,8-30-2022,10-2-9,71,depth_duration_stimuli/003338_2014-05-20_11-01-23_094959634447_rgbf000051-resize_6/003338_2014-05-20_11-01-23_094959634447_rgbf000051-resize_6-target.png,250,1.693,2,2597,250,feet,jsons/v1_VE250_randls_45_rotated.json,495261,579482,31,Man
71,673972,DepthScenes,duration_manipulation_targetAtFixation,jsons/v1_VE250_randls_45_rotated.json,http://54.235.29.9/FacialAge/BNav_EC2/DepthDuration/v2_depth_duration_MTurk/v2_DepthDuration_HTML.html#444,444,1920,1009,1920,1080,8-30-2022,10-2-9,72,depth_duration_stimuli/002509_2014-06-24_13-19-22_094959634447_rgbf000077-resize_0/002509_2014-06-24_13-19-22_094959634447_rgbf000077-resize_0-target.png,250,1.3065,2,1590,254,feet,jsons/v1_VE250_randls_45_rotated.json,495261,579482,31,Man
72,673972,DepthScenes,duration_manipulation_targetAtFixation,jsons/v1_VE250_randls_45_rotated.json,http://54.235.29.9/FacialAge/BNav_EC2/DepthDuration/v2_depth_duration_MTurk/v2_DepthDuration_HTML.html#444,444,1920,1009,1920,1080,8-30-2022,10-2-9,73,depth_duration_stimuli/001100_2014-06-15_17-46-26_260595134347_rgbf000225-resize_2/001100_2014-06-15_17-46-26_260595134347_rgbf000225-resize_2-target.png,250,2.24,3,1657,232,feet,jsons/v1_VE250_randls_45_rotated.json,495261,579482,31,Man
73,673972,DepthScenes,duration_manipulation_targetAtFixation,jsons/v1_VE250_randls_45_rotated.json,http://54.235.29.9/FacialAge/BNav_EC2/DepthDuration/v2_depth_duration_MTurk/v2_DepthDuration_HTML.html#444,444,1920,1009,1920,1080,8-30-2022,10-2-9,74,depth_duration_stimuli/002784_2014-06-22_19-26-30_094959634447_rgbf000083-resize_3/002784_2014-06-22_19-26-30_094959634447_rgbf000083-resize_3-target.png,250,1.8046666666667,3,1600,240,feet,jsons/v1_VE250_randls_45_rotated.json,495261,579482,31,Man
74,673972,DepthScenes,duration_manipulation_targetAtFixation,jsons/v1_VE250_randls_45_rotated.json,http://54.235.29.9/FacialAge/BNav_EC2/DepthDuration/v2_depth_duration_MTurk/v2_DepthDuration_HTML.html#444,444,1920,1009,1920,1080,8-30-2022,10-2-9,75,depth_duration_stimuli/003010_2014-06-15_12-54-35_094959634447_rgbf000112-resize_0/003010_2014-06-15_12-54-35_094959634447_rgbf000112-resize_0-target.png,250,3.1185,8,2749,240,feet,jsons/v1_VE250_randls_45_rotated.json,495261,579482,31,Man
75,673972,DepthScenes,duration_manipulation_targetAtFixation,jsons/v1_VE250_randls_45_rotated.json,http://54.235.29.9/FacialAge/BNav_EC2/DepthDuration/v2_depth_duration_MTurk/v2_DepthDuration_HTML.html#444,444,1920,1009,1920,1080,8-30-2022,10-2-9,76,depth_duration_stimuli/001810_2014-06-26_20-51-35_260595134347_rgbf000040-resize_3/001810_2014-06-26_20-51-35_260595134347_rgbf000040-resize_3-target.png,250,2.2525,5,2133,250,feet,jsons/v1_VE250_randls_45_rotated.json,495261,579482,31,Man
76,673972,DepthScenes,duration_manipulation_targetAtFixation,jsons/v1_VE250_randls_45_rotated.json,http://54.235.29.9/FacialAge/BNav_EC2/DepthDuration/v2_depth_duration_MTurk/v2_DepthDuration_HTML.html#444,444,1920,1009,1920,1080,8-30-2022,10-2-9,77,depth_duration_stimuli/002657_2014-06-13_15-29-54_094959634447_rgbf000150-resize_1/002657_2014-06-13_15-29-54_094959634447_rgbf000150-resize_1-target.png,250,4.919,12,2850,250,feet,jsons/v1_VE250_randls_45_rotated.json,495261,579482,31,Man
77,673972,DepthScenes,duration_manipulation_targetAtFixation,jsons/v1_VE250_randls_45_rotated.json,http://54.235.29.9/FacialAge/BNav_EC2/DepthDuration/v2_depth_duration_MTurk/v2_DepthDuration_HTML.html#444,444,1920,1009,1920,1080,8-30-2022,10-2-9,78,depth_duration_stimuli/002375_2014-06-28_20-13-44_260595134347_rgbf000032-resize_1/002375_2014-06-28_20-13-44_260595134347_rgbf000032-resize_1-target.png,250,4.0175,6,2293,251,feet,jsons/v1_VE250_randls_45_rotated.json,495261,579482,31,Man
78,673972,DepthScenes,duration_manipulation_targetAtFixation,jsons/v1_VE250_randls_45_rotated.json,http://54.235.29.9/FacialAge/BNav_EC2/DepthDuration/v2_depth_duration_MTurk/v2_DepthDuration_HTML.html#444,444,1920,1009,1920,1080,8-30-2022,10-2-9,79,depth_duration_stimuli/003081_2014-06-15_15-19-16_094959634447_rgbf000150-resize_1/003081_2014-06-15_15-19-16_094959634447_rgbf000150-resize_1-target.png,250,3.9125,10,2367,248,feet,jsons/v1_VE250_randls_45_rotated.json,495261,579482,31,Man
79,673972,DepthScenes,duration_manipulation_targetAtFixation,jsons/v1_VE250_randls_45_rotated.json,http://54.235.29.9/FacialAge/BNav_EC2/DepthDuration/v2_depth_duration_MTurk/v2_DepthDuration_HTML.html#444,444,1920,1009,1920,1080,8-30-2022,10-2-9,80,depth_duration_stimuli/001417_2014-06-19_16-25-36_260595134347_rgbf000115-resize_5/001417_2014-06-19_16-25-36_260595134347_rgbf000115-resize_5-target.png,250,4.6255,12,2035,250,feet,jsons/v1_VE250_randls_45_rotated.json,495261,579482,31,Man
80,673972,DepthScenes,duration_manipulation_targetAtFixation,jsons/v1_VE250_randls_45_rotated.json,http://54.235.29.9/FacialAge/BNav_EC2/DepthDuration/v2_depth_duration_MTurk/v2_DepthDuration_HTML.html#444,444,1920,1009,1920,1080,8-30-2022,10-2-9,81,depth_duration_stimuli/000409_2014-06-04_19-23-33_260595134347_rgbf000067-resize_0/000409_2014-06-04_19-23-33_260595134347_rgbf000067-resize_0-target.png,250,3.7335,8,2387,250,feet,jsons/v1_VE250_randls_45_rotated.json,495261,579482,31,Man
81,673972,DepthScenes,duration_manipulation_targetAtFixation,jsons/v1_VE250_randls_45_rotated.json,http://54.235.29.9/FacialAge/BNav_EC2/DepthDuration/v2_depth_duration_MTurk/v2_DepthDuration_HTML.html#444,444,1920,1009,1920,1080,8-30-2022,10-2-9,82,depth_duration_stimuli/002663_2014-06-13_15-50-26_094959634447_rgbf000075-resize_1/002663_2014-06-13_15-50-26_094959634447_rgbf000075-resize_1-target.png,250,4.7495,12,1819,250,feet,jsons/v1_VE250_randls_45_rotated.json,495261,579482,31,Man
82,673972,DepthScenes,duration_manipulation_targetAtFixation,jsons/v1_VE250_randls_45_rotated.json,http://54.235.29.9/FacialAge/BNav_EC2/DepthDuration/v2_depth_duration_MTurk/v2_DepthDuration_HTML.html#444,444,1920,1009,1920,1080,8-30-2022,10-2-9,83,depth_duration_stimuli/000109_2014-05-14_23-41-52_260595134347_rgbf000035-resize_9/000109_2014-05-14_23-41-52_260595134347_rgbf000035-resize_9-target.png,250,1.3545,2,1835,250,feet,jsons/v1_VE250_randls_45_rotated.json,495261,579482,31,Man
83,673972,DepthScenes,duration_manipulation_targetAtFixation,jsons/v1_VE250_randls_45_rotated.json,http://54.235.29.9/FacialAge/BNav_EC2/DepthDuration/v2_depth_duration_MTurk/v2_DepthDuration_HTML.html#444,444,1920,1009,1920,1080,8-30-2022,10-2-9,84,depth_duration_stimuli/000470_2014-06-09_19-42-40_260595134347_rgbf000094-resize_1/000470_2014-06-09_19-42-40_260595134347_rgbf000094-resize_1-target.png,250,1.831,3,1459,250,feet,jsons/v1_VE250_randls_45_rotated.json,495261,579482,31,Man
84,673972,DepthScenes,duration_manipulation_targetAtFixation,jsons/v1_VE250_randls_45_rotated.json,http://54.235.29.9/FacialAge/BNav_EC2/DepthDuration/v2_depth_duration_MTurk/v2_DepthDuration_HTML.html#444,444,1920,1009,1920,1080,8-30-2022,10-2-9,85,depth_duration_stimuli/000854_2014-06-09_19-43-13_260595134347_rgbf000066-resize_0/000854_2014-06-09_19-43-13_260595134347_rgbf000066-resize_0-target.png,250,3.068,4,1596,250,feet,jsons/v1_VE250_randls_45_rotated.json,495261,579482,31,Man
85,673972,DepthScenes,duration_manipulation_targetAtFixation,jsons/v1_VE250_randls_45_rotated.json,http://54.235.29.9/FacialAge/BNav_EC2/DepthDuration/v2_depth_duration_MTurk/v2_DepthDuration_HTML.html#444,444,1920,1009,1920,1080,8-30-2022,10-2-9,86,depth_duration_stimuli/000758_2014-06-08_22-05-08_260595134347_rgbf000085-resize_0/000758_2014-06-08_22-05-08_260595134347_rgbf000085-resize_0-target.png,250,3.3810000000000002,10,2540,250,feet,jsons/v1_VE250_randls_45_rotated.json,495261,579482,31,Man
86,673972,DepthScenes,duration_manipulation_targetAtFixation,jsons/v1_VE250_randls_45_rotated.json,http://54.235.29.9/FacialAge/BNav_EC2/DepthDuration/v2_depth_duration_MTurk/v2_DepthDuration_HTML.html#444,444,1920,1009,1920,1080,8-30-2022,10-2-9,87,depth_duration_stimuli/002750_2014-06-22_19-08-03_094959634447_rgbf000094-resize_4/002750_2014-06-22_19-08-03_094959634447_rgbf000094-resize_4-target.png,250,2.354,8,2140,249,feet,jsons/v1_VE250_randls_45_rotated.json,495261,579482,31,Man
87,673972,DepthScenes,duration_manipulation_targetAtFixation,jsons/v1_VE250_randls_45_rotated.json,http://54.235.29.9/FacialAge/BNav_EC2/DepthDuration/v2_depth_duration_MTurk/v2_DepthDuration_HTML.html#444,444,1920,1009,1920,1080,8-30-2022,10-2-9,88,depth_duration_stimuli/002549_2014-06-24_13-41-39_094959634447_rgbf000022-resize_3/002549_2014-06-24_13-41-39_094959634447_rgbf000022-resize_3-target.png,250,1.476,4,2116,242,feet,jsons/v1_VE250_randls_45_rotated.json,495261,579482,31,Man
88,673972,DepthScenes,duration_manipulation_targetAtFixation,jsons/v1_VE250_randls_45_rotated.json,http://54.235.29.9/FacialAge/BNav_EC2/DepthDuration/v2_depth_duration_MTurk/v2_DepthDuration_HTML.html#444,444,1920,1009,1920,1080,8-30-2022,10-2-9,89,depth_duration_stimuli/002103_2014-06-25_20-00-40_260595134347_rgbf000049-resize_0/002103_2014-06-25_20-00-40_260595134347_rgbf000049-resize_0-target.png,250,4.105,10,2987,250,feet,jsons/v1_VE250_randls_45_rotated.json,495261,579482,31,Man
89,673972,DepthScenes,duration_manipulation_targetAtFixation,jsons/v1_VE250_randls_45_rotated.json,http://54.235.29.9/FacialAge/BNav_EC2/DepthDuration/v2_depth_duration_MTurk/v2_DepthDuration_HTML.html#444,444,1920,1009,1920,1080,8-30-2022,10-2-9,90,depth_duration_stimuli/002039_2014-06-24_20-22-38_260595134347_rgbf000084-resize_1/002039_2014-06-24_20-22-38_260595134347_rgbf000084-resize_1-target.png,250,4.408,115,2291,250,feet,jsons/v1_VE250_randls_45_rotated.json,495261,579482,31,Man
90,673972,DepthScenes,duration_manipulation_targetAtFixation,jsons/v1_VE250_randls_45_rotated.json,http://54.235.29.9/FacialAge/BNav_EC2/DepthDuration/v2_depth_duration_MTurk/v2_DepthDuration_HTML.html#444,444,1920,1009,1920,1080,8-30-2022,10-2-9,91,depth_duration_stimuli/002875_2014-06-01_15-19-00_094959634447_rgbf000151-resize_1/002875_2014-06-01_15-19-00_094959634447_rgbf000151-resize_1-target.png,250,1.9675,7,2994,250,feet,jsons/v1_VE250_randls_45_rotated.json,495261,579482,31,Man
91,673972,DepthScenes,duration_manipulation_targetAtFixation,jsons/v1_VE250_randls_45_rotated.json,http://54.235.29.9/FacialAge/BNav_EC2/DepthDuration/v2_depth_duration_MTurk/v2_DepthDuration_HTML.html#444,444,1920,1009,1920,1080,8-30-2022,10-2-9,92,depth_duration_stimuli/001011_2014-06-08_23-18-54_260595134347_rgbf000044-resize_4/001011_2014-06-08_23-18-54_260595134347_rgbf000044-resize_4-target.png,250,2.4730000000000003,8,2420,250,feet,jsons/v1_VE250_randls_45_rotated.json,495261,579482,31,Man
92,673972,DepthScenes,duration_manipulation_targetAtFixation,jsons/v1_VE250_randls_45_rotated.json,http://54.235.29.9/FacialAge/BNav_EC2/DepthDuration/v2_depth_duration_MTurk/v2_DepthDuration_HTML.html#444,444,1920,1009,1920,1080,8-30-2022,10-2-9,93,depth_duration_stimuli/001235_2014-06-17_16-37-36_260595134347_rgbf000084-resize_4/001235_2014-06-17_16-37-36_260595134347_rgbf000084-resize_4-target.png,250,3.6605,6,2667,250,feet,jsons/v1_VE250_randls_45_rotated.json,495261,579482,31,Man
93,673972,DepthScenes,duration_manipulation_targetAtFixation,jsons/v1_VE250_randls_45_rotated.json,http://54.235.29.9/FacialAge/BNav_EC2/DepthDuration/v2_depth_duration_MTurk/v2_DepthDuration_HTML.html#444,444,1920,1009,1920,1080,8-30-2022,10-2-9,94,depth_duration_stimuli/000788_2014-06-08_22-34-36_260595134347_rgbf000131-resize_1/000788_2014-06-08_22-34-36_260595134347_rgbf000131-resize_1-target.png,250,3.359,8,2447,231,feet,jsons/v1_VE250_randls_45_rotated.json,495261,579482,31,Man
94,673972,DepthScenes,duration_manipulation_targetAtFixation,jsons/v1_VE250_randls_45_rotated.json,http://54.235.29.9/FacialAge/BNav_EC2/DepthDuration/v2_depth_duration_MTurk/v2_DepthDuration_HTML.html#444,444,1920,1009,1920,1080,8-30-2022,10-2-9,95,depth_duration_stimuli/000457_2014-06-08_16-52-43_260595134347_rgbf000199-resize_1/000457_2014-06-08_16-52-43_260595134347_rgbf000199-resize_1-target.png,250,3.6489999999999996,10,2776,270,feet,jsons/v1_VE250_randls_45_rotated.json,495261,579482,31,Man
95,673972,DepthScenes,duration_manipulation_targetAtFixation,jsons/v1_VE250_randls_45_rotated.json,http://54.235.29.9/FacialAge/BNav_EC2/DepthDuration/v2_depth_duration_MTurk/v2_DepthDuration_HTML.html#444,444,1920,1009,1920,1080,8-30-2022,10-2-9,96,depth_duration_stimuli/000929_2014-06-09_16-33-19_260595134347_rgbf000139-resize_0/000929_2014-06-09_16-33-19_260595134347_rgbf000139-resize_0-target.png,250,2.8680000000000003,7,2301,257,feet,jsons/v1_VE250_randls_45_rotated.json,495261,579482,31,Man
96,673972,DepthScenes,duration_manipulation_targetAtFixation,jsons/v1_VE250_randls_45_rotated.json,http://54.235.29.9/FacialAge/BNav_EC2/DepthDuration/v2_depth_duration_MTurk/v2_DepthDuration_HTML.html#444,444,1920,1009,1920,1080,8-30-2022,10-2-9,97,depth_duration_stimuli/000691_2014-06-08_13-08-50_260595134347_rgbf000132-resize_3/000691_2014-06-08_13-08-50_260595134347_rgbf000132-resize_3-target.png,250,4.1530000000000005,8,2667,255,feet,jsons/v1_VE250_randls_45_rotated.json,495261,579482,31,Man
97,673972,DepthScenes,duration_manipulation_targetAtFixation,jsons/v1_VE250_randls_45_rotated.json,http://54.235.29.9/FacialAge/BNav_EC2/DepthDuration/v2_depth_duration_MTurk/v2_DepthDuration_HTML.html#444,444,1920,1009,1920,1080,8-30-2022,10-2-9,98,depth_duration_stimuli/002213_2014-06-28_18-37-58_260595134347_rgbf000055-resize_1/002213_2014-06-28_18-37-58_260595134347_rgbf000055-resize_1-target.png,250,3.62,12,3523,250,feet,jsons/v1_VE250_randls_45_rotated.json,495261,579482,31,Man
98,673972,DepthScenes,duration_manipulation_targetAtFixation,jsons/v1_VE250_randls_45_rotated.json,http://54.235.29.9/FacialAge/BNav_EC2/DepthDuration/v2_depth_duration_MTurk/v2_DepthDuration_HTML.html#444,444,1920,1009,1920,1080,8-30-2022,10-2-9,99,depth_duration_stimuli/001222_2014-06-17_16-24-06_260595134347_rgbf000073-resize_0/001222_2014-06-17_16-24-06_260595134347_rgbf000073-resize-original.jpg,250,1.4385,0,2531,250,feet,jsons/v1_VE250_randls_45_rotated.json,495261,579482,31,Man
99,673972,DepthScenes,duration_manipulation_targetAtFixation,jsons/v1_VE250_randls_45_rotated.json,http://54.235.29.9/FacialAge/BNav_EC2/DepthDuration/v2_depth_duration_MTurk/v2_DepthDuration_HTML.html#444,444,1920,1009,1920,1080,8-30-2022,10-2-9,100,depth_duration_stimuli/003048_2014-06-15_13-49-43_094959634447_rgbf000150-resize_1/003048_2014-06-15_13-49-43_094959634447_rgbf000150-resize_1-target.png,250,4.0035,8,3243,250,feet,jsons/v1_VE250_randls_45_rotated.json,495261,579482,31,Man
100,673972,DepthScenes,duration_manipulation_targetAtFixation,jsons/v1_VE250_randls_45_rotated.json,http://54.235.29.9/FacialAge/BNav_EC2/DepthDuration/v2_depth_duration_MTurk/v2_DepthDuration_HTML.html#444,444,1920,1009,1920,1080,8-30-2022,10-2-9,101,depth_duration_stimuli/002043_2014-06-24_20-29-38_260595134347_rgbf000039-resize_4/002043_2014-06-24_20-29-38_260595134347_rgbf000039-resize_4-target.png,250,2.8435,8,2484,250,feet,jsons/v1_VE250_randls_45_rotated.json,495261,579482,31,Man
101,673972,DepthScenes,duration_manipulation_targetAtFixation,jsons/v1_VE250_randls_45_rotated.json,http://54.235.29.9/FacialAge/BNav_EC2/DepthDuration/v2_depth_duration_MTurk/v2_DepthDuration_HTML.html#444,444,1920,1009,1920,1080,8-30-2022,10-2-9,102,depth_duration_stimuli/001132_2014-06-17_14-48-54_260595134347_rgbf000100-resize_2/001132_2014-06-17_14-48-54_260595134347_rgbf000100-resize_2-target.png,250,3.753,10,3131,250,feet,jsons/v1_VE250_randls_45_rotated.json,495261,579482,31,Man
102,673972,DepthScenes,duration_manipulation_targetAtFixation,jsons/v1_VE250_randls_45_rotated.json,http://54.235.29.9/FacialAge/BNav_EC2/DepthDuration/v2_depth_duration_MTurk/v2_DepthDuration_HTML.html#444,444,1920,1009,1920,1080,8-30-2022,10-2-9,103,depth_duration_stimuli/001133_2014-06-17_14-49-16_260595134347_rgbf000100-resize_0/001133_2014-06-17_14-49-16_260595134347_rgbf000100-resize_0-target.png,250,4.2115,12,2916,249,feet,jsons/v1_VE250_randls_45_rotated.json,495261,579482,31,Man
103,673972,DepthScenes,duration_manipulation_targetAtFixation,jsons/v1_VE250_randls_45_rotated.json,http://54.235.29.9/FacialAge/BNav_EC2/DepthDuration/v2_depth_duration_MTurk/v2_DepthDuration_HTML.html#444,444,1920,1009,1920,1080,8-30-2022,10-2-9,104,depth_duration_stimuli/001650_2014-06-20_12-09-00_260595134347_rgbf000087-resize_3/001650_2014-06-20_12-09-00_260595134347_rgbf000087-resize_3-target.png,250,1.9505,2,1660,249,feet,jsons/v1_VE250_randls_45_rotated.json,495261,579482,31,Man
104,673972,DepthScenes,duration_manipulation_targetAtFixation,jsons/v1_VE250_randls_45_rotated.json,http://54.235.29.9/FacialAge/BNav_EC2/DepthDuration/v2_depth_duration_MTurk/v2_DepthDuration_HTML.html#444,444,1920,1009,1920,1080,8-30-2022,10-2-9,105,depth_duration_stimuli/000682_2014-06-08_23-14-58_260595134347_rgbf000041-resize_5/000682_2014-06-08_23-14-58_260595134347_rgbf000041-resize_5-target.png,250,2.7239999999999998,5,2339,250,feet,jsons/v1_VE250_randls_45_rotated.json,495261,579482,31,Man
105,673972,DepthScenes,duration_manipulation_targetAtFixation,jsons/v1_VE250_randls_45_rotated.json,http://54.235.29.9/FacialAge/BNav_EC2/DepthDuration/v2_depth_duration_MTurk/v2_DepthDuration_HTML.html#444,444,1920,1009,1920,1080,8-30-2022,10-2-9,106,depth_duration_stimuli/001214_2014-06-17_16-13-55_260595134347_rgbf000111-resize_0/001214_2014-06-17_16-13-55_260595134347_rgbf000111-resize_0-target.png,250,2.6505,5,2211,250,feet,jsons/v1_VE250_randls_45_rotated.json,495261,579482,31,Man
106,673972,DepthScenes,duration_manipulation_targetAtFixation,jsons/v1_VE250_randls_45_rotated.json,http://54.235.29.9/FacialAge/BNav_EC2/DepthDuration/v2_depth_duration_MTurk/v2_DepthDuration_HTML.html#444,444,1920,1009,1920,1080,8-30-2022,10-2-9,107,depth_duration_stimuli/000810_2014-06-08_17-20-01_260595134347_rgbf000105-resize_0/000810_2014-06-08_17-20-01_260595134347_rgbf000105-resize_0-target.png,250,1.4865,4,2032,241,feet,jsons/v1_VE250_randls_45_rotated.json,495261,579482,31,Man
107,673972,DepthScenes,duration_manipulation_targetAtFixation,jsons/v1_VE250_randls_45_rotated.json,http://54.235.29.9/FacialAge/BNav_EC2/DepthDuration/v2_depth_duration_MTurk/v2_DepthDuration_HTML.html#444,444,1920,1009,1920,1080,8-30-2022,10-2-9,108,depth_duration_stimuli/002444_2014-06-28_20-32-08_260595134347_rgbf000027-resize_0/002444_2014-06-28_20-32-08_260595134347_rgbf000027-resize_0-target.png,250,4.388999999999999,14,2550,250,feet,jsons/v1_VE250_randls_45_rotated.json,495261,579482,31,Man
108,673972,DepthScenes,duration_manipulation_targetAtFixation,jsons/v1_VE250_randls_45_rotated.json,http://54.235.29.9/FacialAge/BNav_EC2/DepthDuration/v2_depth_duration_MTurk/v2_DepthDuration_HTML.html#444,444,1920,1009,1920,1080,8-30-2022,10-2-9,109,depth_duration_stimuli/000436_2014-06-09_22-25-11_260595134347_rgbf000137-resize_1/000436_2014-06-09_22-25-11_260595134347_rgbf000137-resize_1-target.png,250,4.0705,15,2573,251,feet,jsons/v1_VE250_randls_45_rotated.json,495261,579482,31,Man
109,673972,DepthScenes,duration_manipulation_targetAtFixation,jsons/v1_VE250_randls_45_rotated.json,http://54.235.29.9/FacialAge/BNav_EC2/DepthDuration/v2_depth_duration_MTurk/v2_DepthDuration_HTML.html#444,444,1920,1009,1920,1080,8-30-2022,10-2-9,110,depth_duration_stimuli/002209_2014-06-28_18-36-10_260595134347_rgbf000051-resize_1/002209_2014-06-28_18-36-10_260595134347_rgbf000051-resize_1-target.png,250,2.057,4,2242,250,feet,jsons/v1_VE250_randls_45_rotated.json,495261,579482,31,Man
110,673972,DepthScenes,duration_manipulation_targetAtFixation,jsons/v1_VE250_randls_45_rotated.json,http://54.235.29.9/FacialAge/BNav_EC2/DepthDuration/v2_depth_duration_MTurk/v2_DepthDuration_HTML.html#444,444,1920,1009,1920,1080,8-30-2022,10-2-9,111,depth_duration_stimuli/002763_2014-06-22_19-13-10_094959634447_rgbf000075-resize_4/002763_2014-06-22_19-13-10_094959634447_rgbf000075-resize_4-target.png,250,1.68375,5,2091,250,feet,jsons/v1_VE250_randls_45_rotated.json,495261,579482,31,Man
111,673972,DepthScenes,duration_manipulation_targetAtFixation,jsons/v1_VE250_randls_45_rotated.json,http://54.235.29.9/FacialAge/BNav_EC2/DepthDuration/v2_depth_duration_MTurk/v2_DepthDuration_HTML.html#444,444,1920,1009,1920,1080,8-30-2022,10-2-9,112,depth_duration_stimuli/000749_2014-06-08_21-55-06_260595134347_rgbf000070-resize_2/000749_2014-06-08_21-55-06_260595134347_rgbf000070-resize_2-target.png,250,2.331,5,1595,250,feet,jsons/v1_VE250_randls_45_rotated.json,495261,579482,31,Man
112,673972,DepthScenes,duration_manipulation_targetAtFixation,jsons/v1_VE250_randls_45_rotated.json,http://54.235.29.9/FacialAge/BNav_EC2/DepthDuration/v2_depth_duration_MTurk/v2_DepthDuration_HTML.html#444,444,1920,1009,1920,1080,8-30-2022,10-2-9,113,depth_duration_stimuli/002788_2014-06-22_19-36-03_094959634447_rgbf000088-resize_2/002788_2014-06-22_19-36-03_094959634447_rgbf000088-resize_2-target.png,250,1.6465,6,1604,250,feet,jsons/v1_VE250_randls_45_rotated.json,495261,579482,31,Man
113,673972,DepthScenes,duration_manipulation_targetAtFixation,jsons/v1_VE250_randls_45_rotated.json,http://54.235.29.9/FacialAge/BNav_EC2/DepthDuration/v2_depth_duration_MTurk/v2_DepthDuration_HTML.html#444,444,1920,1009,1920,1080,8-30-2022,10-2-9,114,depth_duration_stimuli/003495_2014-05-21_16-01-51_094959634447_rgbf000100-resize_3/003495_2014-05-21_16-01-51_094959634447_rgbf000100-resize_3-target.png,250,1.6255,3,2034,250,feet,jsons/v1_VE250_randls_45_rotated.json,495261,579482,31,Man
114,673972,DepthScenes,duration_manipulation_targetAtFixation,jsons/v1_VE250_randls_45_rotated.json,http://54.235.29.9/FacialAge/BNav_EC2/DepthDuration/v2_depth_duration_MTurk/v2_DepthDuration_HTML.html#444,444,1920,1009,1920,1080,8-30-2022,10-2-9,115,depth_duration_stimuli/001244_2014-06-17_16-47-45_260595134347_rgbf000030-resize_4/001244_2014-06-17_16-47-45_260595134347_rgbf000030-resize_4-target.png,250,2.0425,3,2292,248,feet,jsons/v1_VE250_randls_45_rotated.json,495261,579482,31,Man
115,673972,DepthScenes,duration_manipulation_targetAtFixation,jsons/v1_VE250_randls_45_rotated.json,http://54.235.29.9/FacialAge/BNav_EC2/DepthDuration/v2_depth_duration_MTurk/v2_DepthDuration_HTML.html#444,444,1920,1009,1920,1080,8-30-2022,10-2-9,116,depth_duration_stimuli/003083_2014-06-15_15-21-03_094959634447_rgbf000063-resize_1/003083_2014-06-15_15-21-03_094959634447_rgbf000063-resize_1-target.png,250,4.1405,8,2359,196,feet,jsons/v1_VE250_randls_45_rotated.json,495261,579482,31,Man
116,673972,DepthScenes,duration_manipulation_targetAtFixation,jsons/v1_VE250_randls_45_rotated.json,http://54.235.29.9/FacialAge/BNav_EC2/DepthDuration/v2_depth_duration_MTurk/v2_DepthDuration_HTML.html#444,444,1920,1009,1920,1080,8-30-2022,10-2-9,117,depth_duration_stimuli/000486_2014-06-09_20-47-20_260595134347_rgbf000143-resize_2/000486_2014-06-09_20-47-20_260595134347_rgbf000143-resize_2-target.png,250,4.8325,7,2316,247,feet,jsons/v1_VE250_randls_45_rotated.json,495261,579482,31,Man
117,673972,DepthScenes,duration_manipulation_targetAtFixation,jsons/v1_VE250_randls_45_rotated.json,http://54.235.29.9/FacialAge/BNav_EC2/DepthDuration/v2_depth_duration_MTurk/v2_DepthDuration_HTML.html#444,444,1920,1009,1920,1080,8-30-2022,10-2-9,118,depth_duration_stimuli/002344_2014-06-28_20-06-29_260595134347_rgbf000030-resize_1/002344_2014-06-28_20-06-29_260595134347_rgbf000030-resize_1-target.png,250,1.5795,2,1652,249,feet,jsons/v1_VE250_randls_45_rotated.json,495261,579482,31,Man
118,673972,DepthScenes,duration_manipulation_targetAtFixation,jsons/v1_VE250_randls_45_rotated.json,http://54.235.29.9/FacialAge/BNav_EC2/DepthDuration/v2_depth_duration_MTurk/v2_DepthDuration_HTML.html#444,444,1920,1009,1920,1080,8-30-2022,10-2-9,119,depth_duration_stimuli/002725_2014-06-22_11-47-51_094959634447_rgbf000070-resize_1/002725_2014-06-22_11-47-51_094959634447_rgbf000070-resize_1-target.png,250,2.195,4,2451,250,feet,jsons/v1_VE250_randls_45_rotated.json,495261,579482,31,Man
119,673972,DepthScenes,duration_manipulation_targetAtFixation,jsons/v1_VE250_randls_45_rotated.json,http://54.235.29.9/FacialAge/BNav_EC2/DepthDuration/v2_depth_duration_MTurk/v2_DepthDuration_HTML.html#444,444,1920,1009,1920,1080,8-30-2022,10-2-9,120,depth_duration_stimuli/000787_2014-06-08_22-33-53_260595134347_rgbf000175-resize_1/000787_2014-06-08_22-33-53_260595134347_rgbf000175-resize-original.jpg,250,4.784,0,2587,250,feet,jsons/v1_VE250_randls_45_rotated.json,495261,579482,31,Man
120,673972,DepthScenes,duration_manipulation_targetAtFixation,jsons/v1_VE250_randls_45_rotated.json,http://54.235.29.9/FacialAge/BNav_EC2/DepthDuration/v2_depth_duration_MTurk/v2_DepthDuration_HTML.html#444,444,1920,1009,1920,1080,8-30-2022,10-2-9,121,depth_duration_stimuli/001617_2014-06-20_11-35-32_260595134347_rgbf000066-resize_1/001617_2014-06-20_11-35-32_260595134347_rgbf000066-resize_1-target.png,250,3.7910000000000004,7,2467,250,feet,jsons/v1_VE250_randls_45_rotated.json,495261,579482,31,Man
121,673972,DepthScenes,duration_manipulation_targetAtFixation,jsons/v1_VE250_randls_45_rotated.json,http://54.235.29.9/FacialAge/BNav_EC2/DepthDuration/v2_depth_duration_MTurk/v2_DepthDuration_HTML.html#444,444,1920,1009,1920,1080,8-30-2022,10-2-9,122,depth_duration_stimuli/001806_2014-06-26_20-50-20_260595134347_rgbf000091-resize_1/001806_2014-06-26_20-50-20_260595134347_rgbf000091-resize_1-target.png,250,2.7305,4,2100,250,feet,jsons/v1_VE250_randls_45_rotated.json,495261,579482,31,Man
122,673972,DepthScenes,duration_manipulation_targetAtFixation,jsons/v1_VE250_randls_45_rotated.json,http://54.235.29.9/FacialAge/BNav_EC2/DepthDuration/v2_depth_duration_MTurk/v2_DepthDuration_HTML.html#444,444,1920,1009,1920,1080,8-30-2022,10-2-9,123,depth_duration_stimuli/001032_2014-06-08_13-23-17_260595134347_rgbf000021-resize_3/001032_2014-06-08_13-23-17_260595134347_rgbf000021-resize_3-target.png,250,3.2725,8,2724,249,feet,jsons/v1_VE250_randls_45_rotated.json,495261,579482,31,Man
123,673972,DepthScenes,duration_manipulation_targetAtFixation,jsons/v1_VE250_randls_45_rotated.json,http://54.235.29.9/FacialAge/BNav_EC2/DepthDuration/v2_depth_duration_MTurk/v2_DepthDuration_HTML.html#444,444,1920,1009,1920,1080,8-30-2022,10-2-9,124,depth_duration_stimuli/001059_2014-06-08_21-53-27_260595134347_rgbf000061-resize_4/001059_2014-06-08_21-53-27_260595134347_rgbf000061-resize_4-target.png,250,2.4185,4,2547,250,feet,jsons/v1_VE250_randls_45_rotated.json,495261,579482,31,Man
124,673972,DepthScenes,duration_manipulation_targetAtFixation,jsons/v1_VE250_randls_45_rotated.json,http://54.235.29.9/FacialAge/BNav_EC2/DepthDuration/v2_depth_duration_MTurk/v2_DepthDuration_HTML.html#444,444,1920,1009,1920,1080,8-30-2022,10-2-9,125,depth_duration_stimuli/002949_2014-06-26_15-57-42_094959634447_rgbf000079-resize_1/002949_2014-06-26_15-57-42_094959634447_rgbf000079-resize_1-target.png,250,1.8915,3,1619,249,feet,jsons/v1_VE250_randls_45_rotated.json,495261,579482,31,Man
125,673972,DepthScenes,duration_manipulation_targetAtFixation,jsons/v1_VE250_randls_45_rotated.json,http://54.235.29.9/FacialAge/BNav_EC2/DepthDuration/v2_depth_duration_MTurk/v2_DepthDuration_HTML.html#444,444,1920,1009,1920,1080,8-30-2022,10-2-9,126,depth_duration_stimuli/000522_2014-06-08_13-35-06_260595134347_rgbf000244-resize_1/000522_2014-06-08_13-35-06_260595134347_rgbf000244-resize_1-target.png,250,2.3715,2,1683,249,feet,jsons/v1_VE250_randls_45_rotated.json,495261,579482,31,Man
126,673972,DepthScenes,duration_manipulation_targetAtFixation,jsons/v1_VE250_randls_45_rotated.json,http://54.235.29.9/FacialAge/BNav_EC2/DepthDuration/v2_depth_duration_MTurk/v2_DepthDuration_HTML.html#444,444,1920,1009,1920,1080,8-30-2022,10-2-9,127,depth_duration_stimuli/000103_2014-05-14_22-01-17_260595134347_rgbf000152-resize_5/000103_2014-05-14_22-01-17_260595134347_rgbf000152-resize_5-target.png,250,1.993,5,1908,249,feet,jsons/v1_VE250_randls_45_rotated.json,495261,579482,31,Man
127,673972,DepthScenes,duration_manipulation_targetAtFixation,jsons/v1_VE250_randls_45_rotated.json,http://54.235.29.9/FacialAge/BNav_EC2/DepthDuration/v2_depth_duration_MTurk/v2_DepthDuration_HTML.html#444,444,1920,1009,1920,1080,8-30-2022,10-2-9,128,depth_duration_stimuli/001555_2014-06-20_17-12-10_260595134347_rgbf000065-resize_4/001555_2014-06-20_17-12-10_260595134347_rgbf000065-resize_4-target.png,250,1.633,3,2330,250,feet,jsons/v1_VE250_randls_45_rotated.json,495261,579482,31,Man
128,673972,DepthScenes,duration_manipulation_targetAtFixation,jsons/v1_VE250_randls_45_rotated.json,http://54.235.29.9/FacialAge/BNav_EC2/DepthDuration/v2_depth_duration_MTurk/v2_DepthDuration_HTML.html#444,444,1920,1009,1920,1080,8-30-2022,10-2-9,129,depth_duration_stimuli/000137_2014-05-20_17-04-49_260595134347_rgbf000120-resize_1/000137_2014-05-20_17-04-49_260595134347_rgbf000120-resize_1-target.png,250,3.786,10,2587,250,feet,jsons/v1_VE250_randls_45_rotated.json,495261,579482,31,Man
129,673972,DepthScenes,duration_manipulation_targetAtFixation,jsons/v1_VE250_randls_45_rotated.json,http://54.235.29.9/FacialAge/BNav_EC2/DepthDuration/v2_depth_duration_MTurk/v2_DepthDuration_HTML.html#444,444,1920,1009,1920,1080,8-30-2022,10-2-9,130,depth_duration_stimuli/000736_2014-06-08_18-24-15_260595134347_rgbf000206-resize_3/000736_2014-06-08_18-24-15_260595134347_rgbf000206-resize_3-target.png,250,3.515,7,2187,250,feet,jsons/v1_VE250_randls_45_rotated.json,495261,579482,31,Man
130,673972,DepthScenes,duration_manipulation_targetAtFixation,jsons/v1_VE250_randls_45_rotated.json,http://54.235.29.9/FacialAge/BNav_EC2/DepthDuration/v2_depth_duration_MTurk/v2_DepthDuration_HTML.html#444,444,1920,1009,1920,1080,8-30-2022,10-2-9,131,depth_duration_stimuli/003228_2014-05-14_13-42-35_094959634447_rgbf000101-resize_1/003228_2014-05-14_13-42-35_094959634447_rgbf000101-resize_1-target.png,250,1.9680000000000002,5,2083,247,feet,jsons/v1_VE250_randls_45_rotated.json,495261,579482,31,Man
131,673972,DepthScenes,duration_manipulation_targetAtFixation,jsons/v1_VE250_randls_45_rotated.json,http://54.235.29.9/FacialAge/BNav_EC2/DepthDuration/v2_depth_duration_MTurk/v2_DepthDuration_HTML.html#444,444,1920,1009,1920,1080,8-30-2022,10-2-9,132,depth_duration_stimuli/002600_2014-06-24_14-27-04_094959634447_rgbf000074-resize_2/002600_2014-06-24_14-27-04_094959634447_rgbf000074-resize_2-target.png,250,2.7575,8,2193,250,feet,jsons/v1_VE250_randls_45_rotated.json,495261,579482,31,Man
132,673972,DepthScenes,duration_manipulation_targetAtFixation,jsons/v1_VE250_randls_45_rotated.json,http://54.235.29.9/FacialAge/BNav_EC2/DepthDuration/v2_depth_duration_MTurk/v2_DepthDuration_HTML.html#444,444,1920,1009,1920,1080,8-30-2022,10-2-9,133,depth_duration_stimuli/002637_2014-06-24_14-51-13_094959634447_rgbf000066-resize_4/002637_2014-06-24_14-51-13_094959634447_rgbf000066-resize_4-target.png,250,1.9955,6,2203,250,feet,jsons/v1_VE250_randls_45_rotated.json,495261,579482,31,Man
133,673972,DepthScenes,duration_manipulation_targetAtFixation,jsons/v1_VE250_randls_45_rotated.json,http://54.235.29.9/FacialAge/BNav_EC2/DepthDuration/v2_depth_duration_MTurk/v2_DepthDuration_HTML.html#444,444,1920,1009,1920,1080,8-30-2022,10-2-9,134,depth_duration_stimuli/003534_2014-05-22_15-06-10_094959634447_rgbf000102-resize_4/003534_2014-05-22_15-06-10_094959634447_rgbf000102-resize_4-target.png,250,1.426,2,1571,250,feet,jsons/v1_VE250_randls_45_rotated.json,495261,579482,31,Man
134,673972,DepthScenes,duration_manipulation_targetAtFixation,jsons/v1_VE250_randls_45_rotated.json,http://54.235.29.9/FacialAge/BNav_EC2/DepthDuration/v2_depth_duration_MTurk/v2_DepthDuration_HTML.html#444,444,1920,1009,1920,1080,8-30-2022,10-2-9,135,depth_duration_stimuli/000375_2014-06-08_11-17-29_260595134347_rgbf000133-resize_2/000375_2014-06-08_11-17-29_260595134347_rgbf000133-resize-original.jpg,250,4.718,0,2403,251,feet,jsons/v1_VE250_randls_45_rotated.json,495261,579482,31,Man
135,673972,DepthScenes,duration_manipulation_targetAtFixation,jsons/v1_VE250_randls_45_rotated.json,http://54.235.29.9/FacialAge/BNav_EC2/DepthDuration/v2_depth_duration_MTurk/v2_DepthDuration_HTML.html#444,444,1920,1009,1920,1080,8-30-2022,10-2-9,136,depth_duration_stimuli/001516_2014-06-20_16-25-09_260595134347_rgbf000076-resize_2/001516_2014-06-20_16-25-09_260595134347_rgbf000076-resize_2-target.png,250,1.7445,4,1921,250,feet,jsons/v1_VE250_randls_45_rotated.json,495261,579482,31,Man
136,673972,DepthScenes,duration_manipulation_targetAtFixation,jsons/v1_VE250_randls_45_rotated.json,http://54.235.29.9/FacialAge/BNav_EC2/DepthDuration/v2_depth_duration_MTurk/v2_DepthDuration_HTML.html#444,444,1920,1009,1920,1080,8-30-2022,10-2-9,137,depth_duration_stimuli/002118_2014-06-25_20-32-08_260595134347_rgbf000078-resize_1/002118_2014-06-25_20-32-08_260595134347_rgbf000078-resize_1-target.png,250,2.6460000000000004,6,1951,242,feet,jsons/v1_VE250_randls_45_rotated.json,495261,579482,31,Man
137,673972,DepthScenes,duration_manipulation_targetAtFixation,jsons/v1_VE250_randls_45_rotated.json,http://54.235.29.9/FacialAge/BNav_EC2/DepthDuration/v2_depth_duration_MTurk/v2_DepthDuration_HTML.html#444,444,1920,1009,1920,1080,8-30-2022,10-2-9,138,depth_duration_stimuli/002568_2014-06-24_13-59-21_094959634447_rgbf000062-resize_4/002568_2014-06-24_13-59-21_094959634447_rgbf000062-resize_4-target.png,250,3.015,8,2121,238,feet,jsons/v1_VE250_randls_45_rotated.json,495261,579482,31,Man
138,673972,DepthScenes,duration_manipulation_targetAtFixation,jsons/v1_VE250_randls_45_rotated.json,http://54.235.29.9/FacialAge/BNav_EC2/DepthDuration/v2_depth_duration_MTurk/v2_DepthDuration_HTML.html#444,444,1920,1009,1920,1080,8-30-2022,10-2-9,139,depth_duration_stimuli/003492_2014-05-21_15-50-55_094959634447_rgbf000828-resize_1/003492_2014-05-21_15-50-55_094959634447_rgbf000828-resize_1-target.png,250,4.06875,10,2668,249,feet,jsons/v1_VE250_randls_45_rotated.json,495261,579482,31,Man
139,673972,DepthScenes,duration_manipulation_targetAtFixation,jsons/v1_VE250_randls_45_rotated.json,http://54.235.29.9/FacialAge/BNav_EC2/DepthDuration/v2_depth_duration_MTurk/v2_DepthDuration_HTML.html#444,444,1920,1009,1920,1080,8-30-2022,10-2-9,140,depth_duration_stimuli/001052_2014-06-08_18-24-54_260595134347_rgbf000130-resize_1/001052_2014-06-08_18-24-54_260595134347_rgbf000130-resize_1-target.png,250,4.1045,12,2040,250,feet,jsons/v1_VE250_randls_45_rotated.json,495261,579482,31,Man
140,673972,DepthScenes,duration_manipulation_targetAtFixation,jsons/v1_VE250_randls_45_rotated.json,http://54.235.29.9/FacialAge/BNav_EC2/DepthDuration/v2_depth_duration_MTurk/v2_DepthDuration_HTML.html#444,444,1920,1009,1920,1080,8-30-2022,10-2-9,141,depth_duration_stimuli/002988_2014-06-15_12-24-20_094959634447_rgbf000150-resize_1/002988_2014-06-15_12-24-20_094959634447_rgbf000150-resize_1-target.png,250,4.7669999999999995,12,1624,224,feet,jsons/v1_VE250_randls_45_rotated.json,495261,579482,31,Man
141,673972,DepthScenes,duration_manipulation_targetAtFixation,jsons/v1_VE250_randls_45_rotated.json,http://54.235.29.9/FacialAge/BNav_EC2/DepthDuration/v2_depth_duration_MTurk/v2_DepthDuration_HTML.html#444,444,1920,1009,1920,1080,8-30-2022,10-2-9,142,depth_duration_stimuli/003129_2014-05-12_10-48-10_094959634447_rgbf000100-resize_0/003129_2014-05-12_10-48-10_094959634447_rgbf000100-resize_0-target.png,250,4.9305,10,2588,250,feet,jsons/v1_VE250_randls_45_rotated.json,495261,579482,31,Man
142,673972,DepthScenes,duration_manipulation_targetAtFixation,jsons/v1_VE250_randls_45_rotated.json,http://54.235.29.9/FacialAge/BNav_EC2/DepthDuration/v2_depth_duration_MTurk/v2_DepthDuration_HTML.html#444,444,1920,1009,1920,1080,8-30-2022,10-2-9,143,depth_duration_stimuli/000414_2014-06-04_19-49-13_260595134347_rgbf000044-resize_0/000414_2014-06-04_19-49-13_260595134347_rgbf000044-resize_0-target.png,250,4.329,10,2720,250,feet,jsons/v1_VE250_randls_45_rotated.json,495261,579482,31,Man
143,673972,DepthScenes,duration_manipulation_targetAtFixation,jsons/v1_VE250_randls_45_rotated.json,http://54.235.29.9/FacialAge/BNav_EC2/DepthDuration/v2_depth_duration_MTurk/v2_DepthDuration_HTML.html#444,444,1920,1009,1920,1080,8-30-2022,10-2-9,144,depth_duration_stimuli/002414_2014-06-28_20-24-58_260595134347_rgbf000067-resize_4/002414_2014-06-28_20-24-58_260595134347_rgbf000067-resize_4-target.png,250,4.363,10,2744,249,feet,jsons/v1_VE250_randls_45_rotated.json,495261,579482,31,Man
144,673972,DepthScenes,duration_manipulation_targetAtFixation,jsons/v1_VE250_randls_45_rotated.json,http://54.235.29.9/FacialAge/BNav_EC2/DepthDuration/v2_depth_duration_MTurk/v2_DepthDuration_HTML.html#444,444,1920,1009,1920,1080,8-30-2022,10-2-9,145,depth_duration_stimuli/000773_2014-06-08_22-24-54_260595134347_rgbf000093-resize_1/000773_2014-06-08_22-24-54_260595134347_rgbf000093-resize_1-target.png,250,4.973,12,1571,259,feet,jsons/v1_VE250_randls_45_rotated.json,495261,579482,31,Man
145,673972,DepthScenes,duration_manipulation_targetAtFixation,jsons/v1_VE250_randls_45_rotated.json,http://54.235.29.9/FacialAge/BNav_EC2/DepthDuration/v2_depth_duration_MTurk/v2_DepthDuration_HTML.html#444,444,1920,1009,1920,1080,8-30-2022,10-2-9,146,depth_duration_stimuli/000709_2014-06-08_13-51-55_260595134347_rgbf000068-resize_3/000709_2014-06-08_13-51-55_260595134347_rgbf000068-resize_3-target.png,250,1.8030000000000002,4,1635,249,feet,jsons/v1_VE250_randls_45_rotated.json,495261,579482,31,Man
146,673972,DepthScenes,duration_manipulation_targetAtFixation,jsons/v1_VE250_randls_45_rotated.json,http://54.235.29.9/FacialAge/BNav_EC2/DepthDuration/v2_depth_duration_MTurk/v2_DepthDuration_HTML.html#444,444,1920,1009,1920,1080,8-30-2022,10-2-9,147,depth_duration_stimuli/002057_2014-06-24_21-00-13_260595134347_rgbf000120-resize_1/002057_2014-06-24_21-00-13_260595134347_rgbf000120-resize_1-target.png,250,2.967,8,2163,249,feet,jsons/v1_VE250_randls_45_rotated.json,495261,579482,31,Man
147,673972,DepthScenes,duration_manipulation_targetAtFixation,jsons/v1_VE250_randls_45_rotated.json,http://54.235.29.9/FacialAge/BNav_EC2/DepthDuration/v2_depth_duration_MTurk/v2_DepthDuration_HTML.html#444,444,1920,1009,1920,1080,8-30-2022,10-2-9,148,depth_duration_stimuli/002467_2014-06-28_20-38-07_260595134347_rgbf000026-resize_2/002467_2014-06-28_20-38-07_260595134347_rgbf000026-resize_2-target.png,250,4.742,10,2882,250,feet,jsons/v1_VE250_randls_45_rotated.json,495261,579482,31,Man
148,673972,DepthScenes,duration_manipulation_targetAtFixation,jsons/v1_VE250_randls_45_rotated.json,http://54.235.29.9/FacialAge/BNav_EC2/DepthDuration/v2_depth_duration_MTurk/v2_DepthDuration_HTML.html#444,444,1920,1009,1920,1080,8-30-2022,10-2-9,149,depth_duration_stimuli/002570_2014-06-24_13-59-54_094959634447_rgbf000059-resize_0/002570_2014-06-24_13-59-54_094959634447_rgbf000059-resize_0-target.png,250,4.037,7,1986,250,feet,jsons/v1_VE250_randls_45_rotated.json,495261,579482,31,Man
149,673972,DepthScenes,duration_manipulation_targetAtFixation,jsons/v1_VE250_randls_45_rotated.json,http://54.235.29.9/FacialAge/BNav_EC2/DepthDuration/v2_depth_duration_MTurk/v2_DepthDuration_HTML.html#444,444,1920,1009,1920,1080,8-30-2022,10-2-9,150,depth_duration_stimuli/002639_2014-06-24_14-51-37_094959634447_rgbf000074-resize_4/002639_2014-06-24_14-51-37_094959634447_rgbf000074-resize_4-target.png,250,4.0375,7,2388,250,feet,jsons/v1_VE250_randls_45_rotated.json,495261,579482,31,Man
150,673972,DepthScenes,duration_manipulation_targetAtFixation,jsons/v1_VE250_randls_45_rotated.json,http://54.235.29.9/FacialAge/BNav_EC2/DepthDuration/v2_depth_duration_MTurk/v2_DepthDuration_HTML.html#444,444,1920,1009,1920,1080,8-30-2022,10-2-9,151,depth_duration_stimuli/003292_2014-05-14_21-53-49_094959634447_rgbf000100-resize_2/003292_2014-05-14_21-53-49_094959634447_rgbf000100-resize_2-target.png,250,3.4815,5,1971,250,feet,jsons/v1_VE250_randls_45_rotated.json,495261,579482,31,Man
151,673972,DepthScenes,duration_manipulation_targetAtFixation,jsons/v1_VE250_randls_45_rotated.json,http://54.235.29.9/FacialAge/BNav_EC2/DepthDuration/v2_depth_duration_MTurk/v2_DepthDuration_HTML.html#444,444,1920,1009,1920,1080,8-30-2022,10-2-9,152,depth_duration_stimuli/000569_2014-06-09_22-51-47_260595134347_rgbf000141-resize_3/000569_2014-06-09_22-51-47_260595134347_rgbf000141-resize-original.jpg,250,4.512,0,2242,250,feet,jsons/v1_VE250_randls_45_rotated.json,495261,579482,31,Man
152,673972,DepthScenes,duration_manipulation_targetAtFixation,jsons/v1_VE250_randls_45_rotated.json,http://54.235.29.9/FacialAge/BNav_EC2/DepthDuration/v2_depth_duration_MTurk/v2_DepthDuration_HTML.html#444,444,1920,1009,1920,1080,8-30-2022,10-2-9,153,depth_duration_stimuli/002425_2014-06-28_20-27-29_260595134347_rgbf000031-resize_8/002425_2014-06-28_20-27-29_260595134347_rgbf000031-resize_8-target.png,250,3.8960000000000004,10,3143,250,feet,jsons/v1_VE250_randls_45_rotated.json,495261,579482,31,Man
153,673972,DepthScenes,duration_manipulation_targetAtFixation,jsons/v1_VE250_randls_45_rotated.json,http://54.235.29.9/FacialAge/BNav_EC2/DepthDuration/v2_depth_duration_MTurk/v2_DepthDuration_HTML.html#444,444,1920,1009,1920,1080,8-30-2022,10-2-9,154,depth_duration_stimuli/000642_2014-06-08_16-59-25_260595134347_rgbf000098-resize_2/000642_2014-06-08_16-59-25_260595134347_rgbf000098-resize_2-target.png,250,2.8815,6,2449,250,feet,jsons/v1_VE250_randls_45_rotated.json,495261,579482,31,Man
154,673972,DepthScenes,duration_manipulation_targetAtFixation,jsons/v1_VE250_randls_45_rotated.json,http://54.235.29.9/FacialAge/BNav_EC2/DepthDuration/v2_depth_duration_MTurk/v2_DepthDuration_HTML.html#444,444,1920,1009,1920,1080,8-30-2022,10-2-9,155,depth_duration_stimuli/001450_2014-06-19_17-02-03_260595134347_rgbf000203-resize_4/001450_2014-06-19_17-02-03_260595134347_rgbf000203-resize_4-target.png,250,4.0106666666667,8,2204,250,feet,jsons/v1_VE250_randls_45_rotated.json,495261,579482,31,Man
155,673972,DepthScenes,duration_manipulation_targetAtFixation,jsons/v1_VE250_randls_45_rotated.json,http://54.235.29.9/FacialAge/BNav_EC2/DepthDuration/v2_depth_duration_MTurk/v2_DepthDuration_HTML.html#444,444,1920,1009,1920,1080,8-30-2022,10-2-9,156,depth_duration_stimuli/001449_2014-06-19_17-01-27_260595134347_rgbf000116-resize_2/001449_2014-06-19_17-01-27_260595134347_rgbf000116-resize_2-target.png,250,3.452,7,2453,249,feet,jsons/v1_VE250_randls_45_rotated.json,495261,579482,31,Man
156,673972,DepthScenes,duration_manipulation_targetAtFixation,jsons/v1_VE250_randls_45_rotated.json,http://54.235.29.9/FacialAge/BNav_EC2/DepthDuration/v2_depth_duration_MTurk/v2_DepthDuration_HTML.html#444,444,1920,1009,1920,1080,8-30-2022,10-2-9,157,depth_duration_stimuli/001815_2014-06-26_20-52-55_260595134347_rgbf000020-resize_0/001815_2014-06-26_20-52-55_260595134347_rgbf000020-resize_0-target.png,250,3.3865,7,2287,239,feet,jsons/v1_VE250_randls_45_rotated.json,495261,579482,31,Man
157,673972,DepthScenes,duration_manipulation_targetAtFixation,jsons/v1_VE250_randls_45_rotated.json,http://54.235.29.9/FacialAge/BNav_EC2/DepthDuration/v2_depth_duration_MTurk/v2_DepthDuration_HTML.html#444,444,1920,1009,1920,1080,8-30-2022,10-2-9,158,depth_duration_stimuli/001808_2014-06-26_20-50-58_260595134347_rgbf000029-resize_1/001808_2014-06-26_20-50-58_260595134347_rgbf000029-resize_1-target.png,250,4.249,8,1619,250,feet,jsons/v1_VE250_randls_45_rotated.json,495261,579482,31,Man
158,673972,DepthScenes,duration_manipulation_targetAtFixation,jsons/v1_VE250_randls_45_rotated.json,http://54.235.29.9/FacialAge/BNav_EC2/DepthDuration/v2_depth_duration_MTurk/v2_DepthDuration_HTML.html#444,444,1920,1009,1920,1080,8-30-2022,10-2-9,159,depth_duration_stimuli/002805_2014-06-22_19-54-03_094959634447_rgbf000079-resize_1/002805_2014-06-22_19-54-03_094959634447_rgbf000079-resize_1-target.png,250,3.1439999999999997,8,2283,250,feet,jsons/v1_VE250_randls_45_rotated.json,495261,579482,31,Man
159,673972,DepthScenes,duration_manipulation_targetAtFixation,jsons/v1_VE250_randls_45_rotated.json,http://54.235.29.9/FacialAge/BNav_EC2/DepthDuration/v2_depth_duration_MTurk/v2_DepthDuration_HTML.html#444,444,1920,1009,1920,1080,8-30-2022,10-2-9,160,depth_duration_stimuli/000906_2014-06-08_13-35-43_260595134347_rgbf000155-resize_1/000906_2014-06-08_13-35-43_260595134347_rgbf000155-resize_1-target.png,250,2.8489999999999998,7,2243,250,feet,jsons/v1_VE250_randls_45_rotated.json,495261,579482,31,Man
160,673972,DepthScenes,duration_manipulation_targetAtFixation,jsons/v1_VE250_randls_45_rotated.json,http://54.235.29.9/FacialAge/BNav_EC2/DepthDuration/v2_depth_duration_MTurk/v2_DepthDuration_HTML.html#444,444,1920,1009,1920,1080,8-30-2022,10-2-9,161,depth_duration_stimuli/000927_2014-06-09_16-32-30_260595134347_rgbf000123-resize_3/000927_2014-06-09_16-32-30_260595134347_rgbf000123-resize_3-target.png,250,2.6785,7,2140,250,feet,jsons/v1_VE250_randls_45_rotated.json,495261,579482,31,Man
161,673972,DepthScenes,duration_manipulation_targetAtFixation,jsons/v1_VE250_randls_45_rotated.json,http://54.235.29.9/FacialAge/BNav_EC2/DepthDuration/v2_depth_duration_MTurk/v2_DepthDuration_HTML.html#444,444,1920,1009,1920,1080,8-30-2022,10-2-9,162,depth_duration_stimuli/001110_2014-06-15_17-25-28_260595134347_rgbf000150-resize_1/001110_2014-06-15_17-25-28_260595134347_rgbf000150-resize_1-target.png,250,1.7115,5,2701,250,feet,jsons/v1_VE250_randls_45_rotated.json,495261,579482,31,Man
162,673972,DepthScenes,duration_manipulation_targetAtFixation,jsons/v1_VE250_randls_45_rotated.json,http://54.235.29.9/FacialAge/BNav_EC2/DepthDuration/v2_depth_duration_MTurk/v2_DepthDuration_HTML.html#444,444,1920,1009,1920,1080,8-30-2022,10-2-9,163,depth_duration_stimuli/000556_2014-06-09_22-42-56_260595134347_rgbf000214-resize_1/000556_2014-06-09_22-42-56_260595134347_rgbf000214-resize_1-target.png,250,4.8415,8,2202,250,feet,jsons/v1_VE250_randls_45_rotated.json,495261,579482,31,Man
163,673972,DepthScenes,duration_manipulation_targetAtFixation,jsons/v1_VE250_randls_45_rotated.json,http://54.235.29.9/FacialAge/BNav_EC2/DepthDuration/v2_depth_duration_MTurk/v2_DepthDuration_HTML.html#444,444,1920,1009,1920,1080,8-30-2022,10-2-9,164,depth_duration_stimuli/001158_2014-06-17_15-32-16_260595134347_rgbf000138-resize_2/001158_2014-06-17_15-32-16_260595134347_rgbf000138-resize_2-target.png,250,4.5315,6,2443,249,feet,jsons/v1_VE250_randls_45_rotated.json,495261,579482,31,Man
