,subjID,experimentName,versionName,sequenceName,url,selected_row,windowWidth,windowHeight,screenWidth,screenHeight,startDate,startTime,trial,stimulus,duration,actual_depth,depth_estimate,trial_RT,log_sceneDuration,unitSelection,seq_filepath,experimentTime,totalTime,age,gender
0,674659,DepthScenes,duration_manipulation_targetAtFixation,jsons/v1_VE250_randls_49.json,http://54.235.29.9/FacialAge/BNav_EC2/DepthDuration/v2_depth_duration_MTurk/v2_DepthDuration_HTML.html#66,66,1366,657,1366,768,8-20-2022,12-54-4,1,depth_duration_stimuli/000642_2014-06-08_16-59-25_260595134347_rgbf000098-resize_2/000642_2014-06-08_16-59-25_260595134347_rgbf000098-resize_2-target.png,250,2.8815,3.0,6143,249,feet,jsons/v1_VE250_randls_49.json,1109945,1408096,50,Man
1,674659,DepthScenes,duration_manipulation_targetAtFixation,jsons/v1_VE250_randls_49.json,http://54.235.29.9/FacialAge/BNav_EC2/DepthDuration/v2_depth_duration_MTurk/v2_DepthDuration_HTML.html#66,66,1366,657,1366,768,8-20-2022,12-54-4,2,depth_duration_stimuli/002425_2014-06-28_20-27-29_260595134347_rgbf000031-resize_8/002425_2014-06-28_20-27-29_260595134347_rgbf000031-resize_8-target.png,250,3.8960000000000004,3.0,4517,248,feet,jsons/v1_VE250_randls_49.json,1109945,1408096,50,Man
2,674659,DepthScenes,duration_manipulation_targetAtFixation,jsons/v1_VE250_randls_49.json,http://54.235.29.9/FacialAge/BNav_EC2/DepthDuration/v2_depth_duration_MTurk/v2_DepthDuration_HTML.html#66,66,1366,657,1366,768,8-20-2022,12-54-4,3,depth_duration_stimuli/001016_2014-06-09_16-16-10_260595134347_rgbf000112-resize_5/001016_2014-06-09_16-16-10_260595134347_rgbf000112-resize_5-target.png,250,1.6565,3.5,5660,247,feet,jsons/v1_VE250_randls_49.json,1109945,1408096,50,Man
3,674659,DepthScenes,duration_manipulation_targetAtFixation,jsons/v1_VE250_randls_49.json,http://54.235.29.9/FacialAge/BNav_EC2/DepthDuration/v2_depth_duration_MTurk/v2_DepthDuration_HTML.html#66,66,1366,657,1366,768,8-20-2022,12-54-4,4,depth_duration_stimuli/002340_2014-06-28_20-05-46_260595134347_rgbf000113-resize_0/002340_2014-06-28_20-05-46_260595134347_rgbf000113-resize_0-target.png,250,2.4735,6.0,4148,201,feet,jsons/v1_VE250_randls_49.json,1109945,1408096,50,Man
4,674659,DepthScenes,duration_manipulation_targetAtFixation,jsons/v1_VE250_randls_49.json,http://54.235.29.9/FacialAge/BNav_EC2/DepthDuration/v2_depth_duration_MTurk/v2_DepthDuration_HTML.html#66,66,1366,657,1366,768,8-20-2022,12-54-4,5,depth_duration_stimuli/001808_2014-06-26_20-50-58_260595134347_rgbf000029-resize_1/001808_2014-06-26_20-50-58_260595134347_rgbf000029-resize_1-target.png,250,4.249,5.5,6716,248,feet,jsons/v1_VE250_randls_49.json,1109945,1408096,50,Man
5,674659,DepthScenes,duration_manipulation_targetAtFixation,jsons/v1_VE250_randls_49.json,http://54.235.29.9/FacialAge/BNav_EC2/DepthDuration/v2_depth_duration_MTurk/v2_DepthDuration_HTML.html#66,66,1366,657,1366,768,8-20-2022,12-54-4,6,depth_duration_stimuli/001815_2014-06-26_20-52-55_260595134347_rgbf000020-resize_0/001815_2014-06-26_20-52-55_260595134347_rgbf000020-resize_0-target.png,250,3.3865,6.5,5121,79,feet,jsons/v1_VE250_randls_49.json,1109945,1408096,50,Man
6,674659,DepthScenes,duration_manipulation_targetAtFixation,jsons/v1_VE250_randls_49.json,http://54.235.29.9/FacialAge/BNav_EC2/DepthDuration/v2_depth_duration_MTurk/v2_DepthDuration_HTML.html#66,66,1366,657,1366,768,8-20-2022,12-54-4,7,depth_duration_stimuli/000878_2014-06-08_22-52-45_260595134347_rgbf000045-resize_2/000878_2014-06-08_22-52-45_260595134347_rgbf000045-resize_2-target.png,250,2.092,4.0,5149,249,feet,jsons/v1_VE250_randls_49.json,1109945,1408096,50,Man
7,674659,DepthScenes,duration_manipulation_targetAtFixation,jsons/v1_VE250_randls_49.json,http://54.235.29.9/FacialAge/BNav_EC2/DepthDuration/v2_depth_duration_MTurk/v2_DepthDuration_HTML.html#66,66,1366,657,1366,768,8-20-2022,12-54-4,8,depth_duration_stimuli/002953_2014-06-08_17-32-18_094959634447_rgbf000059-resize_5/002953_2014-06-08_17-32-18_094959634447_rgbf000059-resize_5-target.png,250,1.551,3.5,10120,249,feet,jsons/v1_VE250_randls_49.json,1109945,1408096,50,Man
8,674659,DepthScenes,duration_manipulation_targetAtFixation,jsons/v1_VE250_randls_49.json,http://54.235.29.9/FacialAge/BNav_EC2/DepthDuration/v2_depth_duration_MTurk/v2_DepthDuration_HTML.html#66,66,1366,657,1366,768,8-20-2022,12-54-4,9,depth_duration_stimuli/000368_2014-06-09_15-53-01_260595134347_rgbf000155-resize_2/000368_2014-06-09_15-53-01_260595134347_rgbf000155-resize_2-target.png,250,2.4859999999999998,1.5,8038,99,feet,jsons/v1_VE250_randls_49.json,1109945,1408096,50,Man
9,674659,DepthScenes,duration_manipulation_targetAtFixation,jsons/v1_VE250_randls_49.json,http://54.235.29.9/FacialAge/BNav_EC2/DepthDuration/v2_depth_duration_MTurk/v2_DepthDuration_HTML.html#66,66,1366,657,1366,768,8-20-2022,12-54-4,10,depth_duration_stimuli/002678_2014-06-13_16-15-32_094959634447_rgbf000151-resize_6/002678_2014-06-13_16-15-32_094959634447_rgbf000151-resize_6-target.png,250,2.1830000000000003,5.0,4388,249,feet,jsons/v1_VE250_randls_49.json,1109945,1408096,50,Man
10,674659,DepthScenes,duration_manipulation_targetAtFixation,jsons/v1_VE250_randls_49.json,http://54.235.29.9/FacialAge/BNav_EC2/DepthDuration/v2_depth_duration_MTurk/v2_DepthDuration_HTML.html#66,66,1366,657,1366,768,8-20-2022,12-54-4,11,depth_duration_stimuli/000447_2014-06-08_16-15-46_260595134347_rgbf000130-resize_1/000447_2014-06-08_16-15-46_260595134347_rgbf000130-resize_1-target.png,250,4.479,3.0,4200,247,feet,jsons/v1_VE250_randls_49.json,1109945,1408096,50,Man
11,674659,DepthScenes,duration_manipulation_targetAtFixation,jsons/v1_VE250_randls_49.json,http://54.235.29.9/FacialAge/BNav_EC2/DepthDuration/v2_depth_duration_MTurk/v2_DepthDuration_HTML.html#66,66,1366,657,1366,768,8-20-2022,12-54-4,12,depth_duration_stimuli/001447_2014-06-19_17-00-32_260595134347_rgbf000082-resize_5/001447_2014-06-19_17-00-32_260595134347_rgbf000082-resize_5-target.png,250,4.13775,4.0,5135,249,feet,jsons/v1_VE250_randls_49.json,1109945,1408096,50,Man
12,674659,DepthScenes,duration_manipulation_targetAtFixation,jsons/v1_VE250_randls_49.json,http://54.235.29.9/FacialAge/BNav_EC2/DepthDuration/v2_depth_duration_MTurk/v2_DepthDuration_HTML.html#66,66,1366,657,1366,768,8-20-2022,12-54-4,13,depth_duration_stimuli/000569_2014-06-09_22-51-47_260595134347_rgbf000141-resize_3/000569_2014-06-09_22-51-47_260595134347_rgbf000141-resize-original.jpg,250,4.512,0.0,4277,248,feet,jsons/v1_VE250_randls_49.json,1109945,1408096,50,Man
13,674659,DepthScenes,duration_manipulation_targetAtFixation,jsons/v1_VE250_randls_49.json,http://54.235.29.9/FacialAge/BNav_EC2/DepthDuration/v2_depth_duration_MTurk/v2_DepthDuration_HTML.html#66,66,1366,657,1366,768,8-20-2022,12-54-4,14,depth_duration_stimuli/002725_2014-06-22_11-47-51_094959634447_rgbf000070-resize_1/002725_2014-06-22_11-47-51_094959634447_rgbf000070-resize_1-target.png,250,2.195,4.0,7518,249,feet,jsons/v1_VE250_randls_49.json,1109945,1408096,50,Man
14,674659,DepthScenes,duration_manipulation_targetAtFixation,jsons/v1_VE250_randls_49.json,http://54.235.29.9/FacialAge/BNav_EC2/DepthDuration/v2_depth_duration_MTurk/v2_DepthDuration_HTML.html#66,66,1366,657,1366,768,8-20-2022,12-54-4,15,depth_duration_stimuli/002344_2014-06-28_20-06-29_260595134347_rgbf000030-resize_1/002344_2014-06-28_20-06-29_260595134347_rgbf000030-resize_1-target.png,250,1.5795,3.0,4038,248,feet,jsons/v1_VE250_randls_49.json,1109945,1408096,50,Man
15,674659,DepthScenes,duration_manipulation_targetAtFixation,jsons/v1_VE250_randls_49.json,http://54.235.29.9/FacialAge/BNav_EC2/DepthDuration/v2_depth_duration_MTurk/v2_DepthDuration_HTML.html#66,66,1366,657,1366,768,8-20-2022,12-54-4,16,depth_duration_stimuli/000682_2014-06-08_23-14-58_260595134347_rgbf000041-resize_5/000682_2014-06-08_23-14-58_260595134347_rgbf000041-resize_5-target.png,250,2.7239999999999998,2.5,6493,248,feet,jsons/v1_VE250_randls_49.json,1109945,1408096,50,Man
16,674659,DepthScenes,duration_manipulation_targetAtFixation,jsons/v1_VE250_randls_49.json,http://54.235.29.9/FacialAge/BNav_EC2/DepthDuration/v2_depth_duration_MTurk/v2_DepthDuration_HTML.html#66,66,1366,657,1366,768,8-20-2022,12-54-4,17,depth_duration_stimuli/001650_2014-06-20_12-09-00_260595134347_rgbf000087-resize_3/001650_2014-06-20_12-09-00_260595134347_rgbf000087-resize_3-target.png,250,1.9505,3.5,59038,247,feet,jsons/v1_VE250_randls_49.json,1109945,1408096,50,Man
17,674659,DepthScenes,duration_manipulation_targetAtFixation,jsons/v1_VE250_randls_49.json,http://54.235.29.9/FacialAge/BNav_EC2/DepthDuration/v2_depth_duration_MTurk/v2_DepthDuration_HTML.html#66,66,1366,657,1366,768,8-20-2022,12-54-4,18,depth_duration_stimuli/001806_2014-06-26_20-50-20_260595134347_rgbf000091-resize_1/001806_2014-06-26_20-50-20_260595134347_rgbf000091-resize_1-target.png,250,2.7305,4.0,9359,258,feet,jsons/v1_VE250_randls_49.json,1109945,1408096,50,Man
18,674659,DepthScenes,duration_manipulation_targetAtFixation,jsons/v1_VE250_randls_49.json,http://54.235.29.9/FacialAge/BNav_EC2/DepthDuration/v2_depth_duration_MTurk/v2_DepthDuration_HTML.html#66,66,1366,657,1366,768,8-20-2022,12-54-4,19,depth_duration_stimuli/001617_2014-06-20_11-35-32_260595134347_rgbf000066-resize_1/001617_2014-06-20_11-35-32_260595134347_rgbf000066-resize_1-target.png,250,3.7910000000000004,4.0,6497,247,feet,jsons/v1_VE250_randls_49.json,1109945,1408096,50,Man
19,674659,DepthScenes,duration_manipulation_targetAtFixation,jsons/v1_VE250_randls_49.json,http://54.235.29.9/FacialAge/BNav_EC2/DepthDuration/v2_depth_duration_MTurk/v2_DepthDuration_HTML.html#66,66,1366,657,1366,768,8-20-2022,12-54-4,20,depth_duration_stimuli/001810_2014-06-26_20-51-35_260595134347_rgbf000040-resize_3/001810_2014-06-26_20-51-35_260595134347_rgbf000040-resize_3-target.png,250,2.2525,3.0,3633,173,feet,jsons/v1_VE250_randls_49.json,1109945,1408096,50,Man
20,674659,DepthScenes,duration_manipulation_targetAtFixation,jsons/v1_VE250_randls_49.json,http://54.235.29.9/FacialAge/BNav_EC2/DepthDuration/v2_depth_duration_MTurk/v2_DepthDuration_HTML.html#66,66,1366,657,1366,768,8-20-2022,12-54-4,21,depth_duration_stimuli/003010_2014-06-15_12-54-35_094959634447_rgbf000112-resize_0/003010_2014-06-15_12-54-35_094959634447_rgbf000112-resize_0-target.png,250,3.1185,7.0,4988,249,feet,jsons/v1_VE250_randls_49.json,1109945,1408096,50,Man
21,674659,DepthScenes,duration_manipulation_targetAtFixation,jsons/v1_VE250_randls_49.json,http://54.235.29.9/FacialAge/BNav_EC2/DepthDuration/v2_depth_duration_MTurk/v2_DepthDuration_HTML.html#66,66,1366,657,1366,768,8-20-2022,12-54-4,22,depth_duration_stimuli/001417_2014-06-19_16-25-36_260595134347_rgbf000115-resize_5/001417_2014-06-19_16-25-36_260595134347_rgbf000115-resize_5-target.png,250,4.6255,4.0,4088,250,feet,jsons/v1_VE250_randls_49.json,1109945,1408096,50,Man
22,674659,DepthScenes,duration_manipulation_targetAtFixation,jsons/v1_VE250_randls_49.json,http://54.235.29.9/FacialAge/BNav_EC2/DepthDuration/v2_depth_duration_MTurk/v2_DepthDuration_HTML.html#66,66,1366,657,1366,768,8-20-2022,12-54-4,23,depth_duration_stimuli/003081_2014-06-15_15-19-16_094959634447_rgbf000150-resize_1/003081_2014-06-15_15-19-16_094959634447_rgbf000150-resize_1-target.png,250,3.9125,4.0,3208,248,feet,jsons/v1_VE250_randls_49.json,1109945,1408096,50,Man
23,674659,DepthScenes,duration_manipulation_targetAtFixation,jsons/v1_VE250_randls_49.json,http://54.235.29.9/FacialAge/BNav_EC2/DepthDuration/v2_depth_duration_MTurk/v2_DepthDuration_HTML.html#66,66,1366,657,1366,768,8-20-2022,12-54-4,24,depth_duration_stimuli/001110_2014-06-15_17-25-28_260595134347_rgbf000150-resize_1/001110_2014-06-15_17-25-28_260595134347_rgbf000150-resize_1-target.png,250,1.7115,3.5,6309,249,feet,jsons/v1_VE250_randls_49.json,1109945,1408096,50,Man
24,674659,DepthScenes,duration_manipulation_targetAtFixation,jsons/v1_VE250_randls_49.json,http://54.235.29.9/FacialAge/BNav_EC2/DepthDuration/v2_depth_duration_MTurk/v2_DepthDuration_HTML.html#66,66,1366,657,1366,768,8-20-2022,12-54-4,25,depth_duration_stimuli/000927_2014-06-09_16-32-30_260595134347_rgbf000123-resize_3/000927_2014-06-09_16-32-30_260595134347_rgbf000123-resize_3-target.png,250,2.6785,4.0,3489,248,feet,jsons/v1_VE250_randls_49.json,1109945,1408096,50,Man
25,674659,DepthScenes,duration_manipulation_targetAtFixation,jsons/v1_VE250_randls_49.json,http://54.235.29.9/FacialAge/BNav_EC2/DepthDuration/v2_depth_duration_MTurk/v2_DepthDuration_HTML.html#66,66,1366,657,1366,768,8-20-2022,12-54-4,26,depth_duration_stimuli/002763_2014-06-22_19-13-10_094959634447_rgbf000075-resize_4/002763_2014-06-22_19-13-10_094959634447_rgbf000075-resize_4-target.png,250,1.68375,3.5,5715,247,feet,jsons/v1_VE250_randls_49.json,1109945,1408096,50,Man
26,674659,DepthScenes,duration_manipulation_targetAtFixation,jsons/v1_VE250_randls_49.json,http://54.235.29.9/FacialAge/BNav_EC2/DepthDuration/v2_depth_duration_MTurk/v2_DepthDuration_HTML.html#66,66,1366,657,1366,768,8-20-2022,12-54-4,27,depth_duration_stimuli/002209_2014-06-28_18-36-10_260595134347_rgbf000051-resize_1/002209_2014-06-28_18-36-10_260595134347_rgbf000051-resize_1-target.png,250,2.057,3.0,3402,193,feet,jsons/v1_VE250_randls_49.json,1109945,1408096,50,Man
27,674659,DepthScenes,duration_manipulation_targetAtFixation,jsons/v1_VE250_randls_49.json,http://54.235.29.9/FacialAge/BNav_EC2/DepthDuration/v2_depth_duration_MTurk/v2_DepthDuration_HTML.html#66,66,1366,657,1366,768,8-20-2022,12-54-4,28,depth_duration_stimuli/000810_2014-06-08_17-20-01_260595134347_rgbf000105-resize_0/000810_2014-06-08_17-20-01_260595134347_rgbf000105-resize_0-target.png,250,1.4865,2.0,3629,248,feet,jsons/v1_VE250_randls_49.json,1109945,1408096,50,Man
28,674659,DepthScenes,duration_manipulation_targetAtFixation,jsons/v1_VE250_randls_49.json,http://54.235.29.9/FacialAge/BNav_EC2/DepthDuration/v2_depth_duration_MTurk/v2_DepthDuration_HTML.html#66,66,1366,657,1366,768,8-20-2022,12-54-4,29,depth_duration_stimuli/001214_2014-06-17_16-13-55_260595134347_rgbf000111-resize_0/001214_2014-06-17_16-13-55_260595134347_rgbf000111-resize_0-target.png,250,2.6505,2.5,5213,385,feet,jsons/v1_VE250_randls_49.json,1109945,1408096,50,Man
29,674659,DepthScenes,duration_manipulation_targetAtFixation,jsons/v1_VE250_randls_49.json,http://54.235.29.9/FacialAge/BNav_EC2/DepthDuration/v2_depth_duration_MTurk/v2_DepthDuration_HTML.html#66,66,1366,657,1366,768,8-20-2022,12-54-4,30,depth_duration_stimuli/000375_2014-06-08_11-17-29_260595134347_rgbf000133-resize_2/000375_2014-06-08_11-17-29_260595134347_rgbf000133-resize-original.jpg,250,4.718,0.0,4096,247,feet,jsons/v1_VE250_randls_49.json,1109945,1408096,50,Man
30,674659,DepthScenes,duration_manipulation_targetAtFixation,jsons/v1_VE250_randls_49.json,http://54.235.29.9/FacialAge/BNav_EC2/DepthDuration/v2_depth_duration_MTurk/v2_DepthDuration_HTML.html#66,66,1366,657,1366,768,8-20-2022,12-54-4,31,depth_duration_stimuli/000692_2014-06-08_13-09-42_260595134347_rgbf000199-resize_2/000692_2014-06-08_13-09-42_260595134347_rgbf000199-resize_2-target.png,250,3.661,5.0,3359,248,feet,jsons/v1_VE250_randls_49.json,1109945,1408096,50,Man
31,674659,DepthScenes,duration_manipulation_targetAtFixation,jsons/v1_VE250_randls_49.json,http://54.235.29.9/FacialAge/BNav_EC2/DepthDuration/v2_depth_duration_MTurk/v2_DepthDuration_HTML.html#66,66,1366,657,1366,768,8-20-2022,12-54-4,32,depth_duration_stimuli/001094_2014-06-15_17-36-00_260595134347_rgbf000205-resize_0/001094_2014-06-15_17-36-00_260595134347_rgbf000205-resize_0-target.png,250,4.2175,4.0,3317,249,feet,jsons/v1_VE250_randls_49.json,1109945,1408096,50,Man
32,674659,DepthScenes,duration_manipulation_targetAtFixation,jsons/v1_VE250_randls_49.json,http://54.235.29.9/FacialAge/BNav_EC2/DepthDuration/v2_depth_duration_MTurk/v2_DepthDuration_HTML.html#66,66,1366,657,1366,768,8-20-2022,12-54-4,33,depth_duration_stimuli/000470_2014-06-09_19-42-40_260595134347_rgbf000094-resize_1/000470_2014-06-09_19-42-40_260595134347_rgbf000094-resize_1-target.png,250,1.831,3.0,4179,248,feet,jsons/v1_VE250_randls_49.json,1109945,1408096,50,Man
33,674659,DepthScenes,duration_manipulation_targetAtFixation,jsons/v1_VE250_randls_49.json,http://54.235.29.9/FacialAge/BNav_EC2/DepthDuration/v2_depth_duration_MTurk/v2_DepthDuration_HTML.html#66,66,1366,657,1366,768,8-20-2022,12-54-4,34,depth_duration_stimuli/000109_2014-05-14_23-41-52_260595134347_rgbf000035-resize_9/000109_2014-05-14_23-41-52_260595134347_rgbf000035-resize_9-target.png,250,1.3545,1.5,5457,249,feet,jsons/v1_VE250_randls_49.json,1109945,1408096,50,Man
34,674659,DepthScenes,duration_manipulation_targetAtFixation,jsons/v1_VE250_randls_49.json,http://54.235.29.9/FacialAge/BNav_EC2/DepthDuration/v2_depth_duration_MTurk/v2_DepthDuration_HTML.html#66,66,1366,657,1366,768,8-20-2022,12-54-4,35,depth_duration_stimuli/001175_2014-06-17_15-45-55_260595134347_rgbf000129-resize_4/001175_2014-06-17_15-45-55_260595134347_rgbf000129-resize_4-target.png,250,4.255,5.0,4409,248,feet,jsons/v1_VE250_randls_49.json,1109945,1408096,50,Man
35,674659,DepthScenes,duration_manipulation_targetAtFixation,jsons/v1_VE250_randls_49.json,http://54.235.29.9/FacialAge/BNav_EC2/DepthDuration/v2_depth_duration_MTurk/v2_DepthDuration_HTML.html#66,66,1366,657,1366,768,8-20-2022,12-54-4,36,depth_duration_stimuli/003490_2014-05-21_15-50-11_094959634447_rgbf000101-resize_3/003490_2014-05-21_15-50-11_094959634447_rgbf000101-resize_3-target.png,250,3.6445,4.0,4611,249,feet,jsons/v1_VE250_randls_49.json,1109945,1408096,50,Man
36,674659,DepthScenes,duration_manipulation_targetAtFixation,jsons/v1_VE250_randls_49.json,http://54.235.29.9/FacialAge/BNav_EC2/DepthDuration/v2_depth_duration_MTurk/v2_DepthDuration_HTML.html#66,66,1366,657,1366,768,8-20-2022,12-54-4,37,depth_duration_stimuli/000469_2014-06-09_19-42-10_260595134347_rgbf000081-resize_1/000469_2014-06-09_19-42-10_260595134347_rgbf000081-resize_1-target.png,250,1.652,3.0,4167,249,feet,jsons/v1_VE250_randls_49.json,1109945,1408096,50,Man
37,674659,DepthScenes,duration_manipulation_targetAtFixation,jsons/v1_VE250_randls_49.json,http://54.235.29.9/FacialAge/BNav_EC2/DepthDuration/v2_depth_duration_MTurk/v2_DepthDuration_HTML.html#66,66,1366,657,1366,768,8-20-2022,12-54-4,38,depth_duration_stimuli/000483_2014-06-09_20-41-45_260595134347_rgbf000116-resize_4/000483_2014-06-09_20-41-45_260595134347_rgbf000116-resize_4-target.png,250,1.337,0.0,5815,141,feet,jsons/v1_VE250_randls_49.json,1109945,1408096,50,Man
38,674659,DepthScenes,duration_manipulation_targetAtFixation,jsons/v1_VE250_randls_49.json,http://54.235.29.9/FacialAge/BNav_EC2/DepthDuration/v2_depth_duration_MTurk/v2_DepthDuration_HTML.html#66,66,1366,657,1366,768,8-20-2022,12-54-4,39,depth_duration_stimuli/001199_2014-06-17_16-03-48_260595134347_rgbf000077-resize_0/001199_2014-06-17_16-03-48_260595134347_rgbf000077-resize_0-target.png,250,3.4375,4.0,4157,250,feet,jsons/v1_VE250_randls_49.json,1109945,1408096,50,Man
39,674659,DepthScenes,duration_manipulation_targetAtFixation,jsons/v1_VE250_randls_49.json,http://54.235.29.9/FacialAge/BNav_EC2/DepthDuration/v2_depth_duration_MTurk/v2_DepthDuration_HTML.html#66,66,1366,657,1366,768,8-20-2022,12-54-4,40,depth_duration_stimuli/000502_2014-06-08_23-02-32_260595134347_rgbf000063-resize_4/000502_2014-06-08_23-02-32_260595134347_rgbf000063-resize_4-target.png,250,2.431,2.5,4998,267,feet,jsons/v1_VE250_randls_49.json,1109945,1408096,50,Man
40,674659,DepthScenes,duration_manipulation_targetAtFixation,jsons/v1_VE250_randls_49.json,http://54.235.29.9/FacialAge/BNav_EC2/DepthDuration/v2_depth_duration_MTurk/v2_DepthDuration_HTML.html#66,66,1366,657,1366,768,8-20-2022,12-54-4,41,depth_duration_stimuli/002509_2014-06-24_13-19-22_094959634447_rgbf000077-resize_0/002509_2014-06-24_13-19-22_094959634447_rgbf000077-resize_0-target.png,250,1.3065,4.5,5518,250,feet,jsons/v1_VE250_randls_49.json,1109945,1408096,50,Man
41,674659,DepthScenes,duration_manipulation_targetAtFixation,jsons/v1_VE250_randls_49.json,http://54.235.29.9/FacialAge/BNav_EC2/DepthDuration/v2_depth_duration_MTurk/v2_DepthDuration_HTML.html#66,66,1366,657,1366,768,8-20-2022,12-54-4,42,depth_duration_stimuli/003338_2014-05-20_11-01-23_094959634447_rgbf000051-resize_6/003338_2014-05-20_11-01-23_094959634447_rgbf000051-resize_6-target.png,250,1.693,3.0,7822,163,feet,jsons/v1_VE250_randls_49.json,1109945,1408096,50,Man
42,674659,DepthScenes,duration_manipulation_targetAtFixation,jsons/v1_VE250_randls_49.json,http://54.235.29.9/FacialAge/BNav_EC2/DepthDuration/v2_depth_duration_MTurk/v2_DepthDuration_HTML.html#66,66,1366,657,1366,768,8-20-2022,12-54-4,43,depth_duration_stimuli/002784_2014-06-22_19-26-30_094959634447_rgbf000083-resize_3/002784_2014-06-22_19-26-30_094959634447_rgbf000083-resize_3-target.png,250,1.8046666666667,2.0,4200,248,feet,jsons/v1_VE250_randls_49.json,1109945,1408096,50,Man
43,674659,DepthScenes,duration_manipulation_targetAtFixation,jsons/v1_VE250_randls_49.json,http://54.235.29.9/FacialAge/BNav_EC2/DepthDuration/v2_depth_duration_MTurk/v2_DepthDuration_HTML.html#66,66,1366,657,1366,768,8-20-2022,12-54-4,44,depth_duration_stimuli/001100_2014-06-15_17-46-26_260595134347_rgbf000225-resize_2/001100_2014-06-15_17-46-26_260595134347_rgbf000225-resize_2-target.png,250,2.24,3.0,9165,247,feet,jsons/v1_VE250_randls_49.json,1109945,1408096,50,Man
44,674659,DepthScenes,duration_manipulation_targetAtFixation,jsons/v1_VE250_randls_49.json,http://54.235.29.9/FacialAge/BNav_EC2/DepthDuration/v2_depth_duration_MTurk/v2_DepthDuration_HTML.html#66,66,1366,657,1366,768,8-20-2022,12-54-4,45,depth_duration_stimuli/000787_2014-06-08_22-33-53_260595134347_rgbf000175-resize_1/000787_2014-06-08_22-33-53_260595134347_rgbf000175-resize-original.jpg,250,4.784,0.0,4157,248,feet,jsons/v1_VE250_randls_49.json,1109945,1408096,50,Man
45,674659,DepthScenes,duration_manipulation_targetAtFixation,jsons/v1_VE250_randls_49.json,http://54.235.29.9/FacialAge/BNav_EC2/DepthDuration/v2_depth_duration_MTurk/v2_DepthDuration_HTML.html#66,66,1366,657,1366,768,8-20-2022,12-54-4,46,depth_duration_stimuli/001167_2014-06-17_15-38-07_260595134347_rgbf000108-resize_0/001167_2014-06-17_15-38-07_260595134347_rgbf000108-resize_0-target.png,250,1.8505,4.0,4721,248,feet,jsons/v1_VE250_randls_49.json,1109945,1408096,50,Man
46,674659,DepthScenes,duration_manipulation_targetAtFixation,jsons/v1_VE250_randls_49.json,http://54.235.29.9/FacialAge/BNav_EC2/DepthDuration/v2_depth_duration_MTurk/v2_DepthDuration_HTML.html#66,66,1366,657,1366,768,8-20-2022,12-54-4,47,depth_duration_stimuli/003587_2014-05-23_16-48-02_094959634447_rgbf002384-resize_2/003587_2014-05-23_16-48-02_094959634447_rgbf002384-resize_2-target.png,250,1.357,3.0,7007,83,feet,jsons/v1_VE250_randls_49.json,1109945,1408096,50,Man
47,674659,DepthScenes,duration_manipulation_targetAtFixation,jsons/v1_VE250_randls_49.json,http://54.235.29.9/FacialAge/BNav_EC2/DepthDuration/v2_depth_duration_MTurk/v2_DepthDuration_HTML.html#66,66,1366,657,1366,768,8-20-2022,12-54-4,48,depth_duration_stimuli/002905_2014-06-03_18-04-43_094959634447_rgbf000151-resize_2/002905_2014-06-03_18-04-43_094959634447_rgbf000151-resize_2-target.png,250,2.0295,2.5,5857,250,feet,jsons/v1_VE250_randls_49.json,1109945,1408096,50,Man
48,674659,DepthScenes,duration_manipulation_targetAtFixation,jsons/v1_VE250_randls_49.json,http://54.235.29.9/FacialAge/BNav_EC2/DepthDuration/v2_depth_duration_MTurk/v2_DepthDuration_HTML.html#66,66,1366,657,1366,768,8-20-2022,12-54-4,49,depth_duration_stimuli/003423_2014-05-21_10-23-26_094959634447_rgbf002665-resize_2/003423_2014-05-21_10-23-26_094959634447_rgbf002665-resize_2-target.png,250,3.2575,3.0,5610,289,feet,jsons/v1_VE250_randls_49.json,1109945,1408096,50,Man
49,674659,DepthScenes,duration_manipulation_targetAtFixation,jsons/v1_VE250_randls_49.json,http://54.235.29.9/FacialAge/BNav_EC2/DepthDuration/v2_depth_duration_MTurk/v2_DepthDuration_HTML.html#66,66,1366,657,1366,768,8-20-2022,12-54-4,50,depth_duration_stimuli/001029_2014-06-08_13-17-57_260595134347_rgbf000065-resize_1/001029_2014-06-08_13-17-57_260595134347_rgbf000065-resize_1-target.png,250,3.0835,4.5,6888,249,feet,jsons/v1_VE250_randls_49.json,1109945,1408096,50,Man
50,674659,DepthScenes,duration_manipulation_targetAtFixation,jsons/v1_VE250_randls_49.json,http://54.235.29.9/FacialAge/BNav_EC2/DepthDuration/v2_depth_duration_MTurk/v2_DepthDuration_HTML.html#66,66,1366,657,1366,768,8-20-2022,12-54-4,51,depth_duration_stimuli/000677_2014-06-08_23-10-32_260595134347_rgbf000158-resize_6/000677_2014-06-08_23-10-32_260595134347_rgbf000158-resize_6-target.png,250,3.556,4.0,3225,248,feet,jsons/v1_VE250_randls_49.json,1109945,1408096,50,Man
51,674659,DepthScenes,duration_manipulation_targetAtFixation,jsons/v1_VE250_randls_49.json,http://54.235.29.9/FacialAge/BNav_EC2/DepthDuration/v2_depth_duration_MTurk/v2_DepthDuration_HTML.html#66,66,1366,657,1366,768,8-20-2022,12-54-4,52,depth_duration_stimuli/000506_2014-06-08_23-21-00_260595134347_rgbf000070-resize_7/000506_2014-06-08_23-21-00_260595134347_rgbf000070-resize_7-target.png,250,4.0585,4.0,3510,248,feet,jsons/v1_VE250_randls_49.json,1109945,1408096,50,Man
52,674659,DepthScenes,duration_manipulation_targetAtFixation,jsons/v1_VE250_randls_49.json,http://54.235.29.9/FacialAge/BNav_EC2/DepthDuration/v2_depth_duration_MTurk/v2_DepthDuration_HTML.html#66,66,1366,657,1366,768,8-20-2022,12-54-4,53,depth_duration_stimuli/003079_2014-06-15_15-18-20_094959634447_rgbf000152-resize_8/003079_2014-06-15_15-18-20_094959634447_rgbf000152-resize_8-target.png,250,2.8775,7.0,3626,250,feet,jsons/v1_VE250_randls_49.json,1109945,1408096,50,Man
53,674659,DepthScenes,duration_manipulation_targetAtFixation,jsons/v1_VE250_randls_49.json,http://54.235.29.9/FacialAge/BNav_EC2/DepthDuration/v2_depth_duration_MTurk/v2_DepthDuration_HTML.html#66,66,1366,657,1366,768,8-20-2022,12-54-4,54,depth_duration_stimuli/000009_2014-05-26_14-32-05_260595134347_rgbf000034-resize_3/000009_2014-05-26_14-32-05_260595134347_rgbf000034-resize_3-target.png,250,3.8715,6.0,3778,249,feet,jsons/v1_VE250_randls_49.json,1109945,1408096,50,Man
54,674659,DepthScenes,duration_manipulation_targetAtFixation,jsons/v1_VE250_randls_49.json,http://54.235.29.9/FacialAge/BNav_EC2/DepthDuration/v2_depth_duration_MTurk/v2_DepthDuration_HTML.html#66,66,1366,657,1366,768,8-20-2022,12-54-4,55,depth_duration_stimuli/001828_2014-06-26_21-40-03_260595134347_rgbf000024-resize_0/001828_2014-06-26_21-40-03_260595134347_rgbf000024-resize_0-target.png,250,4.8260000000000005,5.0,5278,249,feet,jsons/v1_VE250_randls_49.json,1109945,1408096,50,Man
55,674659,DepthScenes,duration_manipulation_targetAtFixation,jsons/v1_VE250_randls_49.json,http://54.235.29.9/FacialAge/BNav_EC2/DepthDuration/v2_depth_duration_MTurk/v2_DepthDuration_HTML.html#66,66,1366,657,1366,768,8-20-2022,12-54-4,56,depth_duration_stimuli/001158_2014-06-17_15-32-16_260595134347_rgbf000138-resize_2/001158_2014-06-17_15-32-16_260595134347_rgbf000138-resize_2-target.png,250,4.5315,4.0,10659,250,feet,jsons/v1_VE250_randls_49.json,1109945,1408096,50,Man
56,674659,DepthScenes,duration_manipulation_targetAtFixation,jsons/v1_VE250_randls_49.json,http://54.235.29.9/FacialAge/BNav_EC2/DepthDuration/v2_depth_duration_MTurk/v2_DepthDuration_HTML.html#66,66,1366,657,1366,768,8-20-2022,12-54-4,57,depth_duration_stimuli/000556_2014-06-09_22-42-56_260595134347_rgbf000214-resize_1/000556_2014-06-09_22-42-56_260595134347_rgbf000214-resize_1-target.png,250,4.8415,3.0,5358,249,feet,jsons/v1_VE250_randls_49.json,1109945,1408096,50,Man
57,674659,DepthScenes,duration_manipulation_targetAtFixation,jsons/v1_VE250_randls_49.json,http://54.235.29.9/FacialAge/BNav_EC2/DepthDuration/v2_depth_duration_MTurk/v2_DepthDuration_HTML.html#66,66,1366,657,1366,768,8-20-2022,12-54-4,58,depth_duration_stimuli/002043_2014-06-24_20-29-38_260595134347_rgbf000039-resize_4/002043_2014-06-24_20-29-38_260595134347_rgbf000039-resize_4-target.png,250,2.8435,3.0,4003,288,feet,jsons/v1_VE250_randls_49.json,1109945,1408096,50,Man
58,674659,DepthScenes,duration_manipulation_targetAtFixation,jsons/v1_VE250_randls_49.json,http://54.235.29.9/FacialAge/BNav_EC2/DepthDuration/v2_depth_duration_MTurk/v2_DepthDuration_HTML.html#66,66,1366,657,1366,768,8-20-2022,12-54-4,59,depth_duration_stimuli/003048_2014-06-15_13-49-43_094959634447_rgbf000150-resize_1/003048_2014-06-15_13-49-43_094959634447_rgbf000150-resize_1-target.png,250,4.0035,5.0,3062,251,feet,jsons/v1_VE250_randls_49.json,1109945,1408096,50,Man
59,674659,DepthScenes,duration_manipulation_targetAtFixation,jsons/v1_VE250_randls_49.json,http://54.235.29.9/FacialAge/BNav_EC2/DepthDuration/v2_depth_duration_MTurk/v2_DepthDuration_HTML.html#66,66,1366,657,1366,768,8-20-2022,12-54-4,60,depth_duration_stimuli/002989_2014-06-15_12-25-03_094959634447_rgbf000150-resize_3/002989_2014-06-15_12-25-03_094959634447_rgbf000150-resize_3-target.png,250,4.1975,6.0,3785,248,feet,jsons/v1_VE250_randls_49.json,1109945,1408096,50,Man
60,674659,DepthScenes,duration_manipulation_targetAtFixation,jsons/v1_VE250_randls_49.json,http://54.235.29.9/FacialAge/BNav_EC2/DepthDuration/v2_depth_duration_MTurk/v2_DepthDuration_HTML.html#66,66,1366,657,1366,768,8-20-2022,12-54-4,61,depth_duration_stimuli/000866_2014-06-09_20-45-42_260595134347_rgbf000139-resize_1/000866_2014-06-09_20-45-42_260595134347_rgbf000139-resize_1-target.png,250,3.2155,3.0,2908,248,feet,jsons/v1_VE250_randls_49.json,1109945,1408096,50,Man
61,674659,DepthScenes,duration_manipulation_targetAtFixation,jsons/v1_VE250_randls_49.json,http://54.235.29.9/FacialAge/BNav_EC2/DepthDuration/v2_depth_duration_MTurk/v2_DepthDuration_HTML.html#66,66,1366,657,1366,768,8-20-2022,12-54-4,62,depth_duration_stimuli/000486_2014-06-09_20-47-20_260595134347_rgbf000143-resize_2/000486_2014-06-09_20-47-20_260595134347_rgbf000143-resize_2-target.png,250,4.8325,3.0,3414,248,feet,jsons/v1_VE250_randls_49.json,1109945,1408096,50,Man
62,674659,DepthScenes,duration_manipulation_targetAtFixation,jsons/v1_VE250_randls_49.json,http://54.235.29.9/FacialAge/BNav_EC2/DepthDuration/v2_depth_duration_MTurk/v2_DepthDuration_HTML.html#66,66,1366,657,1366,768,8-20-2022,12-54-4,63,depth_duration_stimuli/003083_2014-06-15_15-21-03_094959634447_rgbf000063-resize_1/003083_2014-06-15_15-21-03_094959634447_rgbf000063-resize_1-target.png,250,4.1405,5.0,3150,248,feet,jsons/v1_VE250_randls_49.json,1109945,1408096,50,Man
63,674659,DepthScenes,duration_manipulation_targetAtFixation,jsons/v1_VE250_randls_49.json,http://54.235.29.9/FacialAge/BNav_EC2/DepthDuration/v2_depth_duration_MTurk/v2_DepthDuration_HTML.html#66,66,1366,657,1366,768,8-20-2022,12-54-4,64,depth_duration_stimuli/002788_2014-06-22_19-36-03_094959634447_rgbf000088-resize_2/002788_2014-06-22_19-36-03_094959634447_rgbf000088-resize_2-target.png,250,1.6465,3.0,3525,247,feet,jsons/v1_VE250_randls_49.json,1109945,1408096,50,Man
64,674659,DepthScenes,duration_manipulation_targetAtFixation,jsons/v1_VE250_randls_49.json,http://54.235.29.9/FacialAge/BNav_EC2/DepthDuration/v2_depth_duration_MTurk/v2_DepthDuration_HTML.html#66,66,1366,657,1366,768,8-20-2022,12-54-4,65,depth_duration_stimuli/000749_2014-06-08_21-55-06_260595134347_rgbf000070-resize_2/000749_2014-06-08_21-55-06_260595134347_rgbf000070-resize_2-target.png,250,2.331,0.0,5900,249,feet,jsons/v1_VE250_randls_49.json,1109945,1408096,50,Man
65,674659,DepthScenes,duration_manipulation_targetAtFixation,jsons/v1_VE250_randls_49.json,http://54.235.29.9/FacialAge/BNav_EC2/DepthDuration/v2_depth_duration_MTurk/v2_DepthDuration_HTML.html#66,66,1366,657,1366,768,8-20-2022,12-54-4,66,depth_duration_stimuli/001222_2014-06-17_16-24-06_260595134347_rgbf000073-resize_0/001222_2014-06-17_16-24-06_260595134347_rgbf000073-resize-original.jpg,250,1.4385,0.0,49178,272,feet,jsons/v1_VE250_randls_49.json,1109945,1408096,50,Man
66,674659,DepthScenes,duration_manipulation_targetAtFixation,jsons/v1_VE250_randls_49.json,http://54.235.29.9/FacialAge/BNav_EC2/DepthDuration/v2_depth_duration_MTurk/v2_DepthDuration_HTML.html#66,66,1366,657,1366,768,8-20-2022,12-54-4,67,depth_duration_stimuli/002375_2014-06-28_20-13-44_260595134347_rgbf000032-resize_1/002375_2014-06-28_20-13-44_260595134347_rgbf000032-resize_1-target.png,250,4.0175,3.0,5643,357,feet,jsons/v1_VE250_randls_49.json,1109945,1408096,50,Man
67,674659,DepthScenes,duration_manipulation_targetAtFixation,jsons/v1_VE250_randls_49.json,http://54.235.29.9/FacialAge/BNav_EC2/DepthDuration/v2_depth_duration_MTurk/v2_DepthDuration_HTML.html#66,66,1366,657,1366,768,8-20-2022,12-54-4,68,depth_duration_stimuli/002657_2014-06-13_15-29-54_094959634447_rgbf000150-resize_1/002657_2014-06-13_15-29-54_094959634447_rgbf000150-resize_1-target.png,250,4.919,3.0,4396,254,feet,jsons/v1_VE250_randls_49.json,1109945,1408096,50,Man
68,674659,DepthScenes,duration_manipulation_targetAtFixation,jsons/v1_VE250_randls_49.json,http://54.235.29.9/FacialAge/BNav_EC2/DepthDuration/v2_depth_duration_MTurk/v2_DepthDuration_HTML.html#66,66,1366,657,1366,768,8-20-2022,12-54-4,69,depth_duration_stimuli/001133_2014-06-17_14-49-16_260595134347_rgbf000100-resize_0/001133_2014-06-17_14-49-16_260595134347_rgbf000100-resize_0-target.png,250,4.2115,2.5,6661,248,feet,jsons/v1_VE250_randls_49.json,1109945,1408096,50,Man
69,674659,DepthScenes,duration_manipulation_targetAtFixation,jsons/v1_VE250_randls_49.json,http://54.235.29.9/FacialAge/BNav_EC2/DepthDuration/v2_depth_duration_MTurk/v2_DepthDuration_HTML.html#66,66,1366,657,1366,768,8-20-2022,12-54-4,70,depth_duration_stimuli/001132_2014-06-17_14-48-54_260595134347_rgbf000100-resize_2/001132_2014-06-17_14-48-54_260595134347_rgbf000100-resize_2-target.png,250,3.753,4.0,7300,248,feet,jsons/v1_VE250_randls_49.json,1109945,1408096,50,Man
70,674659,DepthScenes,duration_manipulation_targetAtFixation,jsons/v1_VE250_randls_49.json,http://54.235.29.9/FacialAge/BNav_EC2/DepthDuration/v2_depth_duration_MTurk/v2_DepthDuration_HTML.html#66,66,1366,657,1366,768,8-20-2022,12-54-4,71,depth_duration_stimuli/002039_2014-06-24_20-22-38_260595134347_rgbf000084-resize_1/002039_2014-06-24_20-22-38_260595134347_rgbf000084-resize_1-target.png,250,4.408,3.5,5716,248,feet,jsons/v1_VE250_randls_49.json,1109945,1408096,50,Man
71,674659,DepthScenes,duration_manipulation_targetAtFixation,jsons/v1_VE250_randls_49.json,http://54.235.29.9/FacialAge/BNav_EC2/DepthDuration/v2_depth_duration_MTurk/v2_DepthDuration_HTML.html#66,66,1366,657,1366,768,8-20-2022,12-54-4,72,depth_duration_stimuli/002103_2014-06-25_20-00-40_260595134347_rgbf000049-resize_0/002103_2014-06-25_20-00-40_260595134347_rgbf000049-resize_0-target.png,250,4.105,3.0,3475,363,feet,jsons/v1_VE250_randls_49.json,1109945,1408096,50,Man
72,674659,DepthScenes,duration_manipulation_targetAtFixation,jsons/v1_VE250_randls_49.json,http://54.235.29.9/FacialAge/BNav_EC2/DepthDuration/v2_depth_duration_MTurk/v2_DepthDuration_HTML.html#66,66,1366,657,1366,768,8-20-2022,12-54-4,73,depth_duration_stimuli/000414_2014-06-04_19-49-13_260595134347_rgbf000044-resize_0/000414_2014-06-04_19-49-13_260595134347_rgbf000044-resize_0-target.png,250,4.329,5.0,4244,251,feet,jsons/v1_VE250_randls_49.json,1109945,1408096,50,Man
73,674659,DepthScenes,duration_manipulation_targetAtFixation,jsons/v1_VE250_randls_49.json,http://54.235.29.9/FacialAge/BNav_EC2/DepthDuration/v2_depth_duration_MTurk/v2_DepthDuration_HTML.html#66,66,1366,657,1366,768,8-20-2022,12-54-4,74,depth_duration_stimuli/003129_2014-05-12_10-48-10_094959634447_rgbf000100-resize_0/003129_2014-05-12_10-48-10_094959634447_rgbf000100-resize_0-target.png,250,4.9305,3.5,4363,249,feet,jsons/v1_VE250_randls_49.json,1109945,1408096,50,Man
74,674659,DepthScenes,duration_manipulation_targetAtFixation,jsons/v1_VE250_randls_49.json,http://54.235.29.9/FacialAge/BNav_EC2/DepthDuration/v2_depth_duration_MTurk/v2_DepthDuration_HTML.html#66,66,1366,657,1366,768,8-20-2022,12-54-4,75,depth_duration_stimuli/001164_2014-06-17_15-35-46_260595134347_rgbf000085-resize_3/001164_2014-06-17_15-35-46_260595134347_rgbf000085-resize_3-target.png,250,2.354,3.5,6867,248,feet,jsons/v1_VE250_randls_49.json,1109945,1408096,50,Man
75,674659,DepthScenes,duration_manipulation_targetAtFixation,jsons/v1_VE250_randls_49.json,http://54.235.29.9/FacialAge/BNav_EC2/DepthDuration/v2_depth_duration_MTurk/v2_DepthDuration_HTML.html#66,66,1366,657,1366,768,8-20-2022,12-54-4,76,depth_duration_stimuli/001136_2014-06-17_15-19-41_260595134347_rgbf000076-resize_3/001136_2014-06-17_15-19-41_260595134347_rgbf000076-resize_3-target.png,250,1.8655,3.2,5487,250,feet,jsons/v1_VE250_randls_49.json,1109945,1408096,50,Man
76,674659,DepthScenes,duration_manipulation_targetAtFixation,jsons/v1_VE250_randls_49.json,http://54.235.29.9/FacialAge/BNav_EC2/DepthDuration/v2_depth_duration_MTurk/v2_DepthDuration_HTML.html#66,66,1366,657,1366,768,8-20-2022,12-54-4,77,depth_duration_stimuli/002570_2014-06-24_13-59-54_094959634447_rgbf000059-resize_0/002570_2014-06-24_13-59-54_094959634447_rgbf000059-resize_0-target.png,250,4.037,1.5,6319,249,feet,jsons/v1_VE250_randls_49.json,1109945,1408096,50,Man
77,674659,DepthScenes,duration_manipulation_targetAtFixation,jsons/v1_VE250_randls_49.json,http://54.235.29.9/FacialAge/BNav_EC2/DepthDuration/v2_depth_duration_MTurk/v2_DepthDuration_HTML.html#66,66,1366,657,1366,768,8-20-2022,12-54-4,78,depth_duration_stimuli/002467_2014-06-28_20-38-07_260595134347_rgbf000026-resize_2/002467_2014-06-28_20-38-07_260595134347_rgbf000026-resize_2-target.png,250,4.742,4.0,4298,249,feet,jsons/v1_VE250_randls_49.json,1109945,1408096,50,Man
78,674659,DepthScenes,duration_manipulation_targetAtFixation,jsons/v1_VE250_randls_49.json,http://54.235.29.9/FacialAge/BNav_EC2/DepthDuration/v2_depth_duration_MTurk/v2_DepthDuration_HTML.html#66,66,1366,657,1366,768,8-20-2022,12-54-4,79,depth_duration_stimuli/002964_2014-06-08_17-46-11_094959634447_rgbf000091-resize_4/002964_2014-06-08_17-46-11_094959634447_rgbf000091-resize_4-target.png,250,1.6909999999999998,1.0,10468,248,feet,jsons/v1_VE250_randls_49.json,1109945,1408096,50,Man
79,674659,DepthScenes,duration_manipulation_targetAtFixation,jsons/v1_VE250_randls_49.json,http://54.235.29.9/FacialAge/BNav_EC2/DepthDuration/v2_depth_duration_MTurk/v2_DepthDuration_HTML.html#66,66,1366,657,1366,768,8-20-2022,12-54-4,80,depth_duration_stimuli/002136_2014-06-25_21-18-03_260595134347_rgbf000109-resize_3/002136_2014-06-25_21-18-03_260595134347_rgbf000109-resize_3-target.png,250,1.9569999999999999,3.0,4579,249,feet,jsons/v1_VE250_randls_49.json,1109945,1408096,50,Man
80,674659,DepthScenes,duration_manipulation_targetAtFixation,jsons/v1_VE250_randls_49.json,http://54.235.29.9/FacialAge/BNav_EC2/DepthDuration/v2_depth_duration_MTurk/v2_DepthDuration_HTML.html#66,66,1366,657,1366,768,8-20-2022,12-54-4,81,depth_duration_stimuli/000906_2014-06-08_13-35-43_260595134347_rgbf000155-resize_1/000906_2014-06-08_13-35-43_260595134347_rgbf000155-resize_1-target.png,250,2.8489999999999998,3.0,5605,246,feet,jsons/v1_VE250_randls_49.json,1109945,1408096,50,Man
81,674659,DepthScenes,duration_manipulation_targetAtFixation,jsons/v1_VE250_randls_49.json,http://54.235.29.9/FacialAge/BNav_EC2/DepthDuration/v2_depth_duration_MTurk/v2_DepthDuration_HTML.html#66,66,1366,657,1366,768,8-20-2022,12-54-4,82,depth_duration_stimuli/002805_2014-06-22_19-54-03_094959634447_rgbf000079-resize_1/002805_2014-06-22_19-54-03_094959634447_rgbf000079-resize_1-target.png,250,3.1439999999999997,3.5,6460,246,feet,jsons/v1_VE250_randls_49.json,1109945,1408096,50,Man
82,674659,DepthScenes,duration_manipulation_targetAtFixation,jsons/v1_VE250_randls_49.json,http://54.235.29.9/FacialAge/BNav_EC2/DepthDuration/v2_depth_duration_MTurk/v2_DepthDuration_HTML.html#66,66,1366,657,1366,768,8-20-2022,12-54-4,83,depth_duration_stimuli/003070_2014-06-15_14-58-27_094959634447_rgbf000150-resize_3/003070_2014-06-15_14-58-27_094959634447_rgbf000150-resize_3-target.png,250,2.9415,2.5,5755,248,feet,jsons/v1_VE250_randls_49.json,1109945,1408096,50,Man
83,674659,DepthScenes,duration_manipulation_targetAtFixation,jsons/v1_VE250_randls_49.json,http://54.235.29.9/FacialAge/BNav_EC2/DepthDuration/v2_depth_duration_MTurk/v2_DepthDuration_HTML.html#66,66,1366,657,1366,768,8-20-2022,12-54-4,84,depth_duration_stimuli/000943_2014-06-09_19-31-07_260595134347_rgbf000128-resize_1/000943_2014-06-09_19-31-07_260595134347_rgbf000128-resize_1-target.png,250,1.9765,3.5,5749,267,feet,jsons/v1_VE250_randls_49.json,1109945,1408096,50,Man
84,674659,DepthScenes,duration_manipulation_targetAtFixation,jsons/v1_VE250_randls_49.json,http://54.235.29.9/FacialAge/BNav_EC2/DepthDuration/v2_depth_duration_MTurk/v2_DepthDuration_HTML.html#66,66,1366,657,1366,768,8-20-2022,12-54-4,85,depth_duration_stimuli/000739_2014-06-08_18-45-58_260595134347_rgbf000068-resize_1/000739_2014-06-08_18-45-58_260595134347_rgbf000068-resize_1-target.png,250,3.534,3.5,6839,187,feet,jsons/v1_VE250_randls_49.json,1109945,1408096,50,Man
85,674659,DepthScenes,duration_manipulation_targetAtFixation,jsons/v1_VE250_randls_49.json,http://54.235.29.9/FacialAge/BNav_EC2/DepthDuration/v2_depth_duration_MTurk/v2_DepthDuration_HTML.html#66,66,1366,657,1366,768,8-20-2022,12-54-4,86,depth_duration_stimuli/000734_2014-06-08_17-39-11_260595134347_rgbf000128-resize_2/000734_2014-06-08_17-39-11_260595134347_rgbf000128-resize_2-target.png,250,4.098,4.0,6462,247,feet,jsons/v1_VE250_randls_49.json,1109945,1408096,50,Man
86,674659,DepthScenes,duration_manipulation_targetAtFixation,jsons/v1_VE250_randls_49.json,http://54.235.29.9/FacialAge/BNav_EC2/DepthDuration/v2_depth_duration_MTurk/v2_DepthDuration_HTML.html#66,66,1366,657,1366,768,8-20-2022,12-54-4,87,depth_duration_stimuli/003534_2014-05-22_15-06-10_094959634447_rgbf000102-resize_4/003534_2014-05-22_15-06-10_094959634447_rgbf000102-resize_4-target.png,250,1.426,1.0,5895,248,feet,jsons/v1_VE250_randls_49.json,1109945,1408096,50,Man
87,674659,DepthScenes,duration_manipulation_targetAtFixation,jsons/v1_VE250_randls_49.json,http://54.235.29.9/FacialAge/BNav_EC2/DepthDuration/v2_depth_duration_MTurk/v2_DepthDuration_HTML.html#66,66,1366,657,1366,768,8-20-2022,12-54-4,88,depth_duration_stimuli/002637_2014-06-24_14-51-13_094959634447_rgbf000066-resize_4/002637_2014-06-24_14-51-13_094959634447_rgbf000066-resize_4-target.png,250,1.9955,3.0,8416,249,feet,jsons/v1_VE250_randls_49.json,1109945,1408096,50,Man
88,674659,DepthScenes,duration_manipulation_targetAtFixation,jsons/v1_VE250_randls_49.json,http://54.235.29.9/FacialAge/BNav_EC2/DepthDuration/v2_depth_duration_MTurk/v2_DepthDuration_HTML.html#66,66,1366,657,1366,768,8-20-2022,12-54-4,89,depth_duration_stimuli/001055_2014-06-08_18-45-35_260595134347_rgbf000111-resize_4/001055_2014-06-08_18-45-35_260595134347_rgbf000111-resize_4-target.png,250,2.4290000000000003,5.5,5789,249,feet,jsons/v1_VE250_randls_49.json,1109945,1408096,50,Man
89,674659,DepthScenes,duration_manipulation_targetAtFixation,jsons/v1_VE250_randls_49.json,http://54.235.29.9/FacialAge/BNav_EC2/DepthDuration/v2_depth_duration_MTurk/v2_DepthDuration_HTML.html#66,66,1366,657,1366,768,8-20-2022,12-54-4,90,depth_duration_stimuli/000549_2014-06-08_22-10-24_260595134347_rgbf000247-resize_3/000549_2014-06-08_22-10-24_260595134347_rgbf000247-resize_3-target.png,250,1.841,2.0,4668,248,feet,jsons/v1_VE250_randls_49.json,1109945,1408096,50,Man
90,674659,DepthScenes,duration_manipulation_targetAtFixation,jsons/v1_VE250_randls_49.json,http://54.235.29.9/FacialAge/BNav_EC2/DepthDuration/v2_depth_duration_MTurk/v2_DepthDuration_HTML.html#66,66,1366,657,1366,768,8-20-2022,12-54-4,91,depth_duration_stimuli/001555_2014-06-20_17-12-10_260595134347_rgbf000065-resize_4/001555_2014-06-20_17-12-10_260595134347_rgbf000065-resize_4-target.png,250,1.633,1.4,6317,248,feet,jsons/v1_VE250_randls_49.json,1109945,1408096,50,Man
91,674659,DepthScenes,duration_manipulation_targetAtFixation,jsons/v1_VE250_randls_49.json,http://54.235.29.9/FacialAge/BNav_EC2/DepthDuration/v2_depth_duration_MTurk/v2_DepthDuration_HTML.html#66,66,1366,657,1366,768,8-20-2022,12-54-4,92,depth_duration_stimuli/000103_2014-05-14_22-01-17_260595134347_rgbf000152-resize_5/000103_2014-05-14_22-01-17_260595134347_rgbf000152-resize_5-target.png,250,1.993,5.0,4493,250,feet,jsons/v1_VE250_randls_49.json,1109945,1408096,50,Man
92,674659,DepthScenes,duration_manipulation_targetAtFixation,jsons/v1_VE250_randls_49.json,http://54.235.29.9/FacialAge/BNav_EC2/DepthDuration/v2_depth_duration_MTurk/v2_DepthDuration_HTML.html#66,66,1366,657,1366,768,8-20-2022,12-54-4,93,depth_duration_stimuli/000788_2014-06-08_22-34-36_260595134347_rgbf000131-resize_1/000788_2014-06-08_22-34-36_260595134347_rgbf000131-resize_1-target.png,250,3.359,2.0,3603,250,feet,jsons/v1_VE250_randls_49.json,1109945,1408096,50,Man
93,674659,DepthScenes,duration_manipulation_targetAtFixation,jsons/v1_VE250_randls_49.json,http://54.235.29.9/FacialAge/BNav_EC2/DepthDuration/v2_depth_duration_MTurk/v2_DepthDuration_HTML.html#66,66,1366,657,1366,768,8-20-2022,12-54-4,94,depth_duration_stimuli/001235_2014-06-17_16-37-36_260595134347_rgbf000084-resize_4/001235_2014-06-17_16-37-36_260595134347_rgbf000084-resize_4-target.png,250,3.6605,4.0,17069,249,feet,jsons/v1_VE250_randls_49.json,1109945,1408096,50,Man
94,674659,DepthScenes,duration_manipulation_targetAtFixation,jsons/v1_VE250_randls_49.json,http://54.235.29.9/FacialAge/BNav_EC2/DepthDuration/v2_depth_duration_MTurk/v2_DepthDuration_HTML.html#66,66,1366,657,1366,768,8-20-2022,12-54-4,95,depth_duration_stimuli/000773_2014-06-08_22-24-54_260595134347_rgbf000093-resize_1/000773_2014-06-08_22-24-54_260595134347_rgbf000093-resize_1-target.png,250,4.973,3.0,4688,310,feet,jsons/v1_VE250_randls_49.json,1109945,1408096,50,Man
95,674659,DepthScenes,duration_manipulation_targetAtFixation,jsons/v1_VE250_randls_49.json,http://54.235.29.9/FacialAge/BNav_EC2/DepthDuration/v2_depth_duration_MTurk/v2_DepthDuration_HTML.html#66,66,1366,657,1366,768,8-20-2022,12-54-4,96,depth_duration_stimuli/002414_2014-06-28_20-24-58_260595134347_rgbf000067-resize_4/002414_2014-06-28_20-24-58_260595134347_rgbf000067-resize_4-target.png,250,4.363,3.0,17320,249,feet,jsons/v1_VE250_randls_49.json,1109945,1408096,50,Man
96,674659,DepthScenes,duration_manipulation_targetAtFixation,jsons/v1_VE250_randls_49.json,http://54.235.29.9/FacialAge/BNav_EC2/DepthDuration/v2_depth_duration_MTurk/v2_DepthDuration_HTML.html#66,66,1366,657,1366,768,8-20-2022,12-54-4,97,depth_duration_stimuli/003492_2014-05-21_15-50-55_094959634447_rgbf000828-resize_1/003492_2014-05-21_15-50-55_094959634447_rgbf000828-resize_1-target.png,250,4.06875,3.5,6079,123,feet,jsons/v1_VE250_randls_49.json,1109945,1408096,50,Man
97,674659,DepthScenes,duration_manipulation_targetAtFixation,jsons/v1_VE250_randls_49.json,http://54.235.29.9/FacialAge/BNav_EC2/DepthDuration/v2_depth_duration_MTurk/v2_DepthDuration_HTML.html#66,66,1366,657,1366,768,8-20-2022,12-54-4,98,depth_duration_stimuli/002568_2014-06-24_13-59-21_094959634447_rgbf000062-resize_4/002568_2014-06-24_13-59-21_094959634447_rgbf000062-resize_4-target.png,250,3.015,3.0,4008,250,feet,jsons/v1_VE250_randls_49.json,1109945,1408096,50,Man
98,674659,DepthScenes,duration_manipulation_targetAtFixation,jsons/v1_VE250_randls_49.json,http://54.235.29.9/FacialAge/BNav_EC2/DepthDuration/v2_depth_duration_MTurk/v2_DepthDuration_HTML.html#66,66,1366,657,1366,768,8-20-2022,12-54-4,99,depth_duration_stimuli/001540_2014-06-20_17-01-05_260595134347_rgbf000086-resize_2/001540_2014-06-20_17-01-05_260595134347_rgbf000086-resize-original.jpg,250,1.459,0.0,5108,248,feet,jsons/v1_VE250_randls_49.json,1109945,1408096,50,Man
99,674659,DepthScenes,duration_manipulation_targetAtFixation,jsons/v1_VE250_randls_49.json,http://54.235.29.9/FacialAge/BNav_EC2/DepthDuration/v2_depth_duration_MTurk/v2_DepthDuration_HTML.html#66,66,1366,657,1366,768,8-20-2022,12-54-4,100,depth_duration_stimuli/003292_2014-05-14_21-53-49_094959634447_rgbf000100-resize_2/003292_2014-05-14_21-53-49_094959634447_rgbf000100-resize_2-target.png,250,3.4815,3.0,3987,247,feet,jsons/v1_VE250_randls_49.json,1109945,1408096,50,Man
100,674659,DepthScenes,duration_manipulation_targetAtFixation,jsons/v1_VE250_randls_49.json,http://54.235.29.9/FacialAge/BNav_EC2/DepthDuration/v2_depth_duration_MTurk/v2_DepthDuration_HTML.html#66,66,1366,657,1366,768,8-20-2022,12-54-4,101,depth_duration_stimuli/002639_2014-06-24_14-51-37_094959634447_rgbf000074-resize_4/002639_2014-06-24_14-51-37_094959634447_rgbf000074-resize_4-target.png,250,4.0375,3.0,3287,249,feet,jsons/v1_VE250_randls_49.json,1109945,1408096,50,Man
101,674659,DepthScenes,duration_manipulation_targetAtFixation,jsons/v1_VE250_randls_49.json,http://54.235.29.9/FacialAge/BNav_EC2/DepthDuration/v2_depth_duration_MTurk/v2_DepthDuration_HTML.html#66,66,1366,657,1366,768,8-20-2022,12-54-4,102,depth_duration_stimuli/001244_2014-06-17_16-47-45_260595134347_rgbf000030-resize_4/001244_2014-06-17_16-47-45_260595134347_rgbf000030-resize_4-target.png,250,2.0425,3.0,6034,248,feet,jsons/v1_VE250_randls_49.json,1109945,1408096,50,Man
102,674659,DepthScenes,duration_manipulation_targetAtFixation,jsons/v1_VE250_randls_49.json,http://54.235.29.9/FacialAge/BNav_EC2/DepthDuration/v2_depth_duration_MTurk/v2_DepthDuration_HTML.html#66,66,1366,657,1366,768,8-20-2022,12-54-4,103,depth_duration_stimuli/003495_2014-05-21_16-01-51_094959634447_rgbf000100-resize_3/003495_2014-05-21_16-01-51_094959634447_rgbf000100-resize_3-target.png,250,1.6255,2.0,3516,249,feet,jsons/v1_VE250_randls_49.json,1109945,1408096,50,Man
103,674659,DepthScenes,duration_manipulation_targetAtFixation,jsons/v1_VE250_randls_49.json,http://54.235.29.9/FacialAge/BNav_EC2/DepthDuration/v2_depth_duration_MTurk/v2_DepthDuration_HTML.html#66,66,1366,657,1366,768,8-20-2022,12-54-4,104,depth_duration_stimuli/001449_2014-06-19_17-01-27_260595134347_rgbf000116-resize_2/001449_2014-06-19_17-01-27_260595134347_rgbf000116-resize_2-target.png,250,3.452,3.5,7613,248,feet,jsons/v1_VE250_randls_49.json,1109945,1408096,50,Man
104,674659,DepthScenes,duration_manipulation_targetAtFixation,jsons/v1_VE250_randls_49.json,http://54.235.29.9/FacialAge/BNav_EC2/DepthDuration/v2_depth_duration_MTurk/v2_DepthDuration_HTML.html#66,66,1366,657,1366,768,8-20-2022,12-54-4,105,depth_duration_stimuli/001450_2014-06-19_17-02-03_260595134347_rgbf000203-resize_4/001450_2014-06-19_17-02-03_260595134347_rgbf000203-resize_4-target.png,250,4.0106666666667,0.0,4737,249,feet,jsons/v1_VE250_randls_49.json,1109945,1408096,50,Man
105,674659,DepthScenes,duration_manipulation_targetAtFixation,jsons/v1_VE250_randls_49.json,http://54.235.29.9/FacialAge/BNav_EC2/DepthDuration/v2_depth_duration_MTurk/v2_DepthDuration_HTML.html#66,66,1366,657,1366,768,8-20-2022,12-54-4,106,depth_duration_stimuli/002153_2014-06-25_21-27-18_260595134347_rgbf000038-resize_5/002153_2014-06-25_21-27-18_260595134347_rgbf000038-resize_5-target.png,250,2.505,2.5,6871,249,feet,jsons/v1_VE250_randls_49.json,1109945,1408096,50,Man
106,674659,DepthScenes,duration_manipulation_targetAtFixation,jsons/v1_VE250_randls_49.json,http://54.235.29.9/FacialAge/BNav_EC2/DepthDuration/v2_depth_duration_MTurk/v2_DepthDuration_HTML.html#66,66,1366,657,1366,768,8-20-2022,12-54-4,107,depth_duration_stimuli/002660_2014-06-13_15-44-18_094959634447_rgbf001878-resize_2/002660_2014-06-13_15-44-18_094959634447_rgbf001878-resize_2-target.png,250,3.576,2.5,7227,250,feet,jsons/v1_VE250_randls_49.json,1109945,1408096,50,Man
107,674659,DepthScenes,duration_manipulation_targetAtFixation,jsons/v1_VE250_randls_49.json,http://54.235.29.9/FacialAge/BNav_EC2/DepthDuration/v2_depth_duration_MTurk/v2_DepthDuration_HTML.html#66,66,1366,657,1366,768,8-20-2022,12-54-4,108,depth_duration_stimuli/000522_2014-06-08_13-35-06_260595134347_rgbf000244-resize_1/000522_2014-06-08_13-35-06_260595134347_rgbf000244-resize_1-target.png,250,2.3715,3.0,4128,248,feet,jsons/v1_VE250_randls_49.json,1109945,1408096,50,Man
108,674659,DepthScenes,duration_manipulation_targetAtFixation,jsons/v1_VE250_randls_49.json,http://54.235.29.9/FacialAge/BNav_EC2/DepthDuration/v2_depth_duration_MTurk/v2_DepthDuration_HTML.html#66,66,1366,657,1366,768,8-20-2022,12-54-4,109,depth_duration_stimuli/002949_2014-06-26_15-57-42_094959634447_rgbf000079-resize_1/002949_2014-06-26_15-57-42_094959634447_rgbf000079-resize_1-target.png,250,1.8915,2.5,5287,246,feet,jsons/v1_VE250_randls_49.json,1109945,1408096,50,Man
109,674659,DepthScenes,duration_manipulation_targetAtFixation,jsons/v1_VE250_randls_49.json,http://54.235.29.9/FacialAge/BNav_EC2/DepthDuration/v2_depth_duration_MTurk/v2_DepthDuration_HTML.html#66,66,1366,657,1366,768,8-20-2022,12-54-4,110,depth_duration_stimuli/002748_2014-06-22_19-07-22_094959634447_rgbf000078-resize_1/002748_2014-06-22_19-07-22_094959634447_rgbf000078-resize_1-target.png,250,4.6705,4.0,4497,248,feet,jsons/v1_VE250_randls_49.json,1109945,1408096,50,Man
110,674659,DepthScenes,duration_manipulation_targetAtFixation,jsons/v1_VE250_randls_49.json,http://54.235.29.9/FacialAge/BNav_EC2/DepthDuration/v2_depth_duration_MTurk/v2_DepthDuration_HTML.html#66,66,1366,657,1366,768,8-20-2022,12-54-4,111,depth_duration_stimuli/002995_2014-06-15_12-31-26_094959634447_rgbf000150-resize_1/002995_2014-06-15_12-31-26_094959634447_rgbf000150-resize_1-target.png,250,3.8360000000000003,3.5,4737,249,feet,jsons/v1_VE250_randls_49.json,1109945,1408096,50,Man
111,674659,DepthScenes,duration_manipulation_targetAtFixation,jsons/v1_VE250_randls_49.json,http://54.235.29.9/FacialAge/BNav_EC2/DepthDuration/v2_depth_duration_MTurk/v2_DepthDuration_HTML.html#66,66,1366,657,1366,768,8-20-2022,12-54-4,112,depth_duration_stimuli/002445_2014-06-28_20-32-16_260595134347_rgbf000029-resize_4/002445_2014-06-28_20-32-16_260595134347_rgbf000029-resize_4-target.png,250,2.5315,2.5,5500,361,feet,jsons/v1_VE250_randls_49.json,1109945,1408096,50,Man
112,674659,DepthScenes,duration_manipulation_targetAtFixation,jsons/v1_VE250_randls_49.json,http://54.235.29.9/FacialAge/BNav_EC2/DepthDuration/v2_depth_duration_MTurk/v2_DepthDuration_HTML.html#66,66,1366,657,1366,768,8-20-2022,12-54-4,113,depth_duration_stimuli/000780_2014-06-08_22-28-29_260595134347_rgbf000126-resize_1/000780_2014-06-08_22-28-29_260595134347_rgbf000126-resize_1-target.png,250,3.3825,4.0,3897,249,feet,jsons/v1_VE250_randls_49.json,1109945,1408096,50,Man
113,674659,DepthScenes,duration_manipulation_targetAtFixation,jsons/v1_VE250_randls_49.json,http://54.235.29.9/FacialAge/BNav_EC2/DepthDuration/v2_depth_duration_MTurk/v2_DepthDuration_HTML.html#66,66,1366,657,1366,768,8-20-2022,12-54-4,114,depth_duration_stimuli/001066_2014-06-08_22-03-20_260595134347_rgbf000066-resize_4/001066_2014-06-08_22-03-20_260595134347_rgbf000066-resize_4-target.png,250,4.2330000000000005,5.0,4708,248,feet,jsons/v1_VE250_randls_49.json,1109945,1408096,50,Man
114,674659,DepthScenes,duration_manipulation_targetAtFixation,jsons/v1_VE250_randls_49.json,http://54.235.29.9/FacialAge/BNav_EC2/DepthDuration/v2_depth_duration_MTurk/v2_DepthDuration_HTML.html#66,66,1366,657,1366,768,8-20-2022,12-54-4,115,depth_duration_stimuli/000742_2014-06-08_18-48-09_260595134347_rgbf000164-resize_4/000742_2014-06-08_18-48-09_260595134347_rgbf000164-resize_4-target.png,250,4.632,4.0,4832,105,feet,jsons/v1_VE250_randls_49.json,1109945,1408096,50,Man
115,674659,DepthScenes,duration_manipulation_targetAtFixation,jsons/v1_VE250_randls_49.json,http://54.235.29.9/FacialAge/BNav_EC2/DepthDuration/v2_depth_duration_MTurk/v2_DepthDuration_HTML.html#66,66,1366,657,1366,768,8-20-2022,12-54-4,116,depth_duration_stimuli/001170_2014-06-17_15-43-44_260595134347_rgbf000096-resize_6/001170_2014-06-17_15-43-44_260595134347_rgbf000096-resize-original.jpg,250,1.1909999999999998,0.0,3796,248,feet,jsons/v1_VE250_randls_49.json,1109945,1408096,50,Man
116,674659,DepthScenes,duration_manipulation_targetAtFixation,jsons/v1_VE250_randls_49.json,http://54.235.29.9/FacialAge/BNav_EC2/DepthDuration/v2_depth_duration_MTurk/v2_DepthDuration_HTML.html#66,66,1366,657,1366,768,8-20-2022,12-54-4,117,depth_duration_stimuli/002272_2014-06-28_18-53-56_260595134347_rgbf000067-resize_2/002272_2014-06-28_18-53-56_260595134347_rgbf000067-resize_2-target.png,250,1.138,2.5,6448,249,feet,jsons/v1_VE250_randls_49.json,1109945,1408096,50,Man
117,674659,DepthScenes,duration_manipulation_targetAtFixation,jsons/v1_VE250_randls_49.json,http://54.235.29.9/FacialAge/BNav_EC2/DepthDuration/v2_depth_duration_MTurk/v2_DepthDuration_HTML.html#66,66,1366,657,1366,768,8-20-2022,12-54-4,118,depth_duration_stimuli/001571_2014-06-20_17-21-32_260595134347_rgbf000089-resize_1/001571_2014-06-20_17-21-32_260595134347_rgbf000089-resize_1-target.png,250,1.86,2.0,4094,250,feet,jsons/v1_VE250_randls_49.json,1109945,1408096,50,Man
118,674659,DepthScenes,duration_manipulation_targetAtFixation,jsons/v1_VE250_randls_49.json,http://54.235.29.9/FacialAge/BNav_EC2/DepthDuration/v2_depth_duration_MTurk/v2_DepthDuration_HTML.html#66,66,1366,657,1366,768,8-20-2022,12-54-4,119,depth_duration_stimuli/001570_2014-06-20_17-21-09_260595134347_rgbf000135-resize_4/001570_2014-06-20_17-21-09_260595134347_rgbf000135-resize_4-target.png,250,4.467,3.0,4653,248,feet,jsons/v1_VE250_randls_49.json,1109945,1408096,50,Man
119,674659,DepthScenes,duration_manipulation_targetAtFixation,jsons/v1_VE250_randls_49.json,http://54.235.29.9/FacialAge/BNav_EC2/DepthDuration/v2_depth_duration_MTurk/v2_DepthDuration_HTML.html#66,66,1366,657,1366,768,8-20-2022,12-54-4,120,depth_duration_stimuli/001392_2014-06-19_16-07-59_260595134347_rgbf000046-resize_1/001392_2014-06-19_16-07-59_260595134347_rgbf000046-resize_1-target.png,250,4.135,5.8,6248,248,feet,jsons/v1_VE250_randls_49.json,1109945,1408096,50,Man
120,674659,DepthScenes,duration_manipulation_targetAtFixation,jsons/v1_VE250_randls_49.json,http://54.235.29.9/FacialAge/BNav_EC2/DepthDuration/v2_depth_duration_MTurk/v2_DepthDuration_HTML.html#66,66,1366,657,1366,768,8-20-2022,12-54-4,121,depth_duration_stimuli/002549_2014-06-24_13-41-39_094959634447_rgbf000022-resize_3/002549_2014-06-24_13-41-39_094959634447_rgbf000022-resize_3-target.png,250,1.476,2.7,6004,248,feet,jsons/v1_VE250_randls_49.json,1109945,1408096,50,Man
121,674659,DepthScenes,duration_manipulation_targetAtFixation,jsons/v1_VE250_randls_49.json,http://54.235.29.9/FacialAge/BNav_EC2/DepthDuration/v2_depth_duration_MTurk/v2_DepthDuration_HTML.html#66,66,1366,657,1366,768,8-20-2022,12-54-4,122,depth_duration_stimuli/002750_2014-06-22_19-08-03_094959634447_rgbf000094-resize_4/002750_2014-06-22_19-08-03_094959634447_rgbf000094-resize_4-target.png,250,2.354,4.5,5081,248,feet,jsons/v1_VE250_randls_49.json,1109945,1408096,50,Man
122,674659,DepthScenes,duration_manipulation_targetAtFixation,jsons/v1_VE250_randls_49.json,http://54.235.29.9/FacialAge/BNav_EC2/DepthDuration/v2_depth_duration_MTurk/v2_DepthDuration_HTML.html#66,66,1366,657,1366,768,8-20-2022,12-54-4,123,depth_duration_stimuli/002988_2014-06-15_12-24-20_094959634447_rgbf000150-resize_1/002988_2014-06-15_12-24-20_094959634447_rgbf000150-resize_1-target.png,250,4.7669999999999995,7.3,6118,291,feet,jsons/v1_VE250_randls_49.json,1109945,1408096,50,Man
123,674659,DepthScenes,duration_manipulation_targetAtFixation,jsons/v1_VE250_randls_49.json,http://54.235.29.9/FacialAge/BNav_EC2/DepthDuration/v2_depth_duration_MTurk/v2_DepthDuration_HTML.html#66,66,1366,657,1366,768,8-20-2022,12-54-4,124,depth_duration_stimuli/001052_2014-06-08_18-24-54_260595134347_rgbf000130-resize_1/001052_2014-06-08_18-24-54_260595134347_rgbf000130-resize_1-target.png,250,4.1045,3.0,3262,250,feet,jsons/v1_VE250_randls_49.json,1109945,1408096,50,Man
124,674659,DepthScenes,duration_manipulation_targetAtFixation,jsons/v1_VE250_randls_49.json,http://54.235.29.9/FacialAge/BNav_EC2/DepthDuration/v2_depth_duration_MTurk/v2_DepthDuration_HTML.html#66,66,1366,657,1366,768,8-20-2022,12-54-4,125,depth_duration_stimuli/002663_2014-06-13_15-50-26_094959634447_rgbf000075-resize_1/002663_2014-06-13_15-50-26_094959634447_rgbf000075-resize_1-target.png,250,4.7495,3.2,5983,248,feet,jsons/v1_VE250_randls_49.json,1109945,1408096,50,Man
125,674659,DepthScenes,duration_manipulation_targetAtFixation,jsons/v1_VE250_randls_49.json,http://54.235.29.9/FacialAge/BNav_EC2/DepthDuration/v2_depth_duration_MTurk/v2_DepthDuration_HTML.html#66,66,1366,657,1366,768,8-20-2022,12-54-4,126,depth_duration_stimuli/000409_2014-06-04_19-23-33_260595134347_rgbf000067-resize_0/000409_2014-06-04_19-23-33_260595134347_rgbf000067-resize_0-target.png,250,3.7335,2.5,4763,248,feet,jsons/v1_VE250_randls_49.json,1109945,1408096,50,Man
126,674659,DepthScenes,duration_manipulation_targetAtFixation,jsons/v1_VE250_randls_49.json,http://54.235.29.9/FacialAge/BNav_EC2/DepthDuration/v2_depth_duration_MTurk/v2_DepthDuration_HTML.html#66,66,1366,657,1366,768,8-20-2022,12-54-4,127,depth_duration_stimuli/001056_2014-06-08_18-46-44_260595134347_rgbf000068-resize_0/001056_2014-06-08_18-46-44_260595134347_rgbf000068-resize_0-target.png,250,2.6625,3.0,3783,249,feet,jsons/v1_VE250_randls_49.json,1109945,1408096,50,Man
127,674659,DepthScenes,duration_manipulation_targetAtFixation,jsons/v1_VE250_randls_49.json,http://54.235.29.9/FacialAge/BNav_EC2/DepthDuration/v2_depth_duration_MTurk/v2_DepthDuration_HTML.html#66,66,1366,657,1366,768,8-20-2022,12-54-4,128,depth_duration_stimuli/002199_2014-06-28_18-33-56_260595134347_rgbf000074-resize_0/002199_2014-06-28_18-33-56_260595134347_rgbf000074-resize_0-target.png,250,1.996,2.0,4669,249,feet,jsons/v1_VE250_randls_49.json,1109945,1408096,50,Man
128,674659,DepthScenes,duration_manipulation_targetAtFixation,jsons/v1_VE250_randls_49.json,http://54.235.29.9/FacialAge/BNav_EC2/DepthDuration/v2_depth_duration_MTurk/v2_DepthDuration_HTML.html#66,66,1366,657,1366,768,8-20-2022,12-54-4,129,depth_duration_stimuli/000736_2014-06-08_18-24-15_260595134347_rgbf000206-resize_3/000736_2014-06-08_18-24-15_260595134347_rgbf000206-resize_3-target.png,250,3.515,2.0,4807,267,feet,jsons/v1_VE250_randls_49.json,1109945,1408096,50,Man
129,674659,DepthScenes,duration_manipulation_targetAtFixation,jsons/v1_VE250_randls_49.json,http://54.235.29.9/FacialAge/BNav_EC2/DepthDuration/v2_depth_duration_MTurk/v2_DepthDuration_HTML.html#66,66,1366,657,1366,768,8-20-2022,12-54-4,130,depth_duration_stimuli/000137_2014-05-20_17-04-49_260595134347_rgbf000120-resize_1/000137_2014-05-20_17-04-49_260595134347_rgbf000120-resize_1-target.png,250,3.786,3.4,5802,247,feet,jsons/v1_VE250_randls_49.json,1109945,1408096,50,Man
130,674659,DepthScenes,duration_manipulation_targetAtFixation,jsons/v1_VE250_randls_49.json,http://54.235.29.9/FacialAge/BNav_EC2/DepthDuration/v2_depth_duration_MTurk/v2_DepthDuration_HTML.html#66,66,1366,657,1366,768,8-20-2022,12-54-4,131,depth_duration_stimuli/000758_2014-06-08_22-05-08_260595134347_rgbf000085-resize_0/000758_2014-06-08_22-05-08_260595134347_rgbf000085-resize_0-target.png,250,3.3810000000000002,3.4,7522,247,feet,jsons/v1_VE250_randls_49.json,1109945,1408096,50,Man
131,674659,DepthScenes,duration_manipulation_targetAtFixation,jsons/v1_VE250_randls_49.json,http://54.235.29.9/FacialAge/BNav_EC2/DepthDuration/v2_depth_duration_MTurk/v2_DepthDuration_HTML.html#66,66,1366,657,1366,768,8-20-2022,12-54-4,132,depth_duration_stimuli/000854_2014-06-09_19-43-13_260595134347_rgbf000066-resize_0/000854_2014-06-09_19-43-13_260595134347_rgbf000066-resize_0-target.png,250,3.068,2.5,5478,249,feet,jsons/v1_VE250_randls_49.json,1109945,1408096,50,Man
132,674659,DepthScenes,duration_manipulation_targetAtFixation,jsons/v1_VE250_randls_49.json,http://54.235.29.9/FacialAge/BNav_EC2/DepthDuration/v2_depth_duration_MTurk/v2_DepthDuration_HTML.html#66,66,1366,657,1366,768,8-20-2022,12-54-4,133,depth_duration_stimuli/002118_2014-06-25_20-32-08_260595134347_rgbf000078-resize_1/002118_2014-06-25_20-32-08_260595134347_rgbf000078-resize_1-target.png,250,2.6460000000000004,2.0,5466,248,feet,jsons/v1_VE250_randls_49.json,1109945,1408096,50,Man
133,674659,DepthScenes,duration_manipulation_targetAtFixation,jsons/v1_VE250_randls_49.json,http://54.235.29.9/FacialAge/BNav_EC2/DepthDuration/v2_depth_duration_MTurk/v2_DepthDuration_HTML.html#66,66,1366,657,1366,768,8-20-2022,12-54-4,134,depth_duration_stimuli/001516_2014-06-20_16-25-09_260595134347_rgbf000076-resize_2/001516_2014-06-20_16-25-09_260595134347_rgbf000076-resize_2-target.png,250,1.7445,3.5,6779,250,feet,jsons/v1_VE250_randls_49.json,1109945,1408096,50,Man
134,674659,DepthScenes,duration_manipulation_targetAtFixation,jsons/v1_VE250_randls_49.json,http://54.235.29.9/FacialAge/BNav_EC2/DepthDuration/v2_depth_duration_MTurk/v2_DepthDuration_HTML.html#66,66,1366,657,1366,768,8-20-2022,12-54-4,135,depth_duration_stimuli/002072_2014-06-24_21-48-06_260595134347_rgbf000115-resize_0/002072_2014-06-24_21-48-06_260595134347_rgbf000115-resize-original.jpg,250,4.702,0.0,4278,248,feet,jsons/v1_VE250_randls_49.json,1109945,1408096,50,Man
135,674659,DepthScenes,duration_manipulation_targetAtFixation,jsons/v1_VE250_randls_49.json,http://54.235.29.9/FacialAge/BNav_EC2/DepthDuration/v2_depth_duration_MTurk/v2_DepthDuration_HTML.html#66,66,1366,657,1366,768,8-20-2022,12-54-4,136,depth_duration_stimuli/002057_2014-06-24_21-00-13_260595134347_rgbf000120-resize_1/002057_2014-06-24_21-00-13_260595134347_rgbf000120-resize_1-target.png,250,2.967,4.0,21335,248,feet,jsons/v1_VE250_randls_49.json,1109945,1408096,50,Man
136,674659,DepthScenes,duration_manipulation_targetAtFixation,jsons/v1_VE250_randls_49.json,http://54.235.29.9/FacialAge/BNav_EC2/DepthDuration/v2_depth_duration_MTurk/v2_DepthDuration_HTML.html#66,66,1366,657,1366,768,8-20-2022,12-54-4,137,depth_duration_stimuli/000709_2014-06-08_13-51-55_260595134347_rgbf000068-resize_3/000709_2014-06-08_13-51-55_260595134347_rgbf000068-resize_3-target.png,250,1.8030000000000002,5.0,6049,249,feet,jsons/v1_VE250_randls_49.json,1109945,1408096,50,Man
137,674659,DepthScenes,duration_manipulation_targetAtFixation,jsons/v1_VE250_randls_49.json,http://54.235.29.9/FacialAge/BNav_EC2/DepthDuration/v2_depth_duration_MTurk/v2_DepthDuration_HTML.html#66,66,1366,657,1366,768,8-20-2022,12-54-4,138,depth_duration_stimuli/001011_2014-06-08_23-18-54_260595134347_rgbf000044-resize_4/001011_2014-06-08_23-18-54_260595134347_rgbf000044-resize_4-target.png,250,2.4730000000000003,3.8,8087,248,feet,jsons/v1_VE250_randls_49.json,1109945,1408096,50,Man
138,674659,DepthScenes,duration_manipulation_targetAtFixation,jsons/v1_VE250_randls_49.json,http://54.235.29.9/FacialAge/BNav_EC2/DepthDuration/v2_depth_duration_MTurk/v2_DepthDuration_HTML.html#66,66,1366,657,1366,768,8-20-2022,12-54-4,139,depth_duration_stimuli/002875_2014-06-01_15-19-00_094959634447_rgbf000151-resize_1/002875_2014-06-01_15-19-00_094959634447_rgbf000151-resize_1-target.png,250,1.9675,3.0,3310,249,feet,jsons/v1_VE250_randls_49.json,1109945,1408096,50,Man
139,674659,DepthScenes,duration_manipulation_targetAtFixation,jsons/v1_VE250_randls_49.json,http://54.235.29.9/FacialAge/BNav_EC2/DepthDuration/v2_depth_duration_MTurk/v2_DepthDuration_HTML.html#66,66,1366,657,1366,768,8-20-2022,12-54-4,140,depth_duration_stimuli/002630_2014-06-24_14-47-50_094959634447_rgbf000055-resize_1/002630_2014-06-24_14-47-50_094959634447_rgbf000055-resize_1-target.png,250,3.0095,3.5,20808,249,feet,jsons/v1_VE250_randls_49.json,1109945,1408096,50,Man
140,674659,DepthScenes,duration_manipulation_targetAtFixation,jsons/v1_VE250_randls_49.json,http://54.235.29.9/FacialAge/BNav_EC2/DepthDuration/v2_depth_duration_MTurk/v2_DepthDuration_HTML.html#66,66,1366,657,1366,768,8-20-2022,12-54-4,141,depth_duration_stimuli/002758_2014-06-22_19-11-20_094959634447_rgbf000128-resize_1/002758_2014-06-22_19-11-20_094959634447_rgbf000128-resize_1-target.png,250,2.555,2.0,5555,248,feet,jsons/v1_VE250_randls_49.json,1109945,1408096,50,Man
141,674659,DepthScenes,duration_manipulation_targetAtFixation,jsons/v1_VE250_randls_49.json,http://54.235.29.9/FacialAge/BNav_EC2/DepthDuration/v2_depth_duration_MTurk/v2_DepthDuration_HTML.html#66,66,1366,657,1366,768,8-20-2022,12-54-4,142,depth_duration_stimuli/001092_2014-06-15_17-34-58_260595134347_rgbf000171-resize_3/001092_2014-06-15_17-34-58_260595134347_rgbf000171-resize_3-target.png,250,2.6935,2.0,4570,249,feet,jsons/v1_VE250_randls_49.json,1109945,1408096,50,Man
142,674659,DepthScenes,duration_manipulation_targetAtFixation,jsons/v1_VE250_randls_49.json,http://54.235.29.9/FacialAge/BNav_EC2/DepthDuration/v2_depth_duration_MTurk/v2_DepthDuration_HTML.html#66,66,1366,657,1366,768,8-20-2022,12-54-4,143,depth_duration_stimuli/002545_2014-06-24_13-38-53_094959634447_rgbf000080-resize_4/002545_2014-06-24_13-38-53_094959634447_rgbf000080-resize_4-target.png,250,1.9205,3.5,4778,366,feet,jsons/v1_VE250_randls_49.json,1109945,1408096,50,Man
143,674659,DepthScenes,duration_manipulation_targetAtFixation,jsons/v1_VE250_randls_49.json,http://54.235.29.9/FacialAge/BNav_EC2/DepthDuration/v2_depth_duration_MTurk/v2_DepthDuration_HTML.html#66,66,1366,657,1366,768,8-20-2022,12-54-4,144,depth_duration_stimuli/002279_2014-06-28_18-55-32_260595134347_rgbf000040-resize_5/002279_2014-06-28_18-55-32_260595134347_rgbf000040-resize_5-target.png,250,1.5043333333333,2.5,5528,248,feet,jsons/v1_VE250_randls_49.json,1109945,1408096,50,Man
144,674659,DepthScenes,duration_manipulation_targetAtFixation,jsons/v1_VE250_randls_49.json,http://54.235.29.9/FacialAge/BNav_EC2/DepthDuration/v2_depth_duration_MTurk/v2_DepthDuration_HTML.html#66,66,1366,657,1366,768,8-20-2022,12-54-4,145,depth_duration_stimuli/000635_2014-06-08_16-38-42_260595134347_rgbf000106-resize_1/000635_2014-06-08_16-38-42_260595134347_rgbf000106-resize_1-target.png,250,2.074,3.0,3729,251,feet,jsons/v1_VE250_randls_49.json,1109945,1408096,50,Man
145,674659,DepthScenes,duration_manipulation_targetAtFixation,jsons/v1_VE250_randls_49.json,http://54.235.29.9/FacialAge/BNav_EC2/DepthDuration/v2_depth_duration_MTurk/v2_DepthDuration_HTML.html#66,66,1366,657,1366,768,8-20-2022,12-54-4,146,depth_duration_stimuli/001498_2014-06-19_17-45-14_260595134347_rgbf000129-resize_4/001498_2014-06-19_17-45-14_260595134347_rgbf000129-resize-original.jpg,250,1.4075,0.0,3889,250,feet,jsons/v1_VE250_randls_49.json,1109945,1408096,50,Man
146,674659,DepthScenes,duration_manipulation_targetAtFixation,jsons/v1_VE250_randls_49.json,http://54.235.29.9/FacialAge/BNav_EC2/DepthDuration/v2_depth_duration_MTurk/v2_DepthDuration_HTML.html#66,66,1366,657,1366,768,8-20-2022,12-54-4,147,depth_duration_stimuli/000493_2014-06-09_21-01-18_260595134347_rgbf000196-resize_3/000493_2014-06-09_21-01-18_260595134347_rgbf000196-resize_3-target.png,250,3.44,3.0,4146,228,feet,jsons/v1_VE250_randls_49.json,1109945,1408096,50,Man
147,674659,DepthScenes,duration_manipulation_targetAtFixation,jsons/v1_VE250_randls_49.json,http://54.235.29.9/FacialAge/BNav_EC2/DepthDuration/v2_depth_duration_MTurk/v2_DepthDuration_HTML.html#66,66,1366,657,1366,768,8-20-2022,12-54-4,148,depth_duration_stimuli/000191_2014-05-12_17-07-38_260595134347_rgbf000199-resize_0/000191_2014-05-12_17-07-38_260595134347_rgbf000199-resize_0-target.png,250,3.7995,6.0,3727,247,feet,jsons/v1_VE250_randls_49.json,1109945,1408096,50,Man
148,674659,DepthScenes,duration_manipulation_targetAtFixation,jsons/v1_VE250_randls_49.json,http://54.235.29.9/FacialAge/BNav_EC2/DepthDuration/v2_depth_duration_MTurk/v2_DepthDuration_HTML.html#66,66,1366,657,1366,768,8-20-2022,12-54-4,149,depth_duration_stimuli/002600_2014-06-24_14-27-04_094959634447_rgbf000074-resize_2/002600_2014-06-24_14-27-04_094959634447_rgbf000074-resize_2-target.png,250,2.7575,2.5,5306,147,feet,jsons/v1_VE250_randls_49.json,1109945,1408096,50,Man
149,674659,DepthScenes,duration_manipulation_targetAtFixation,jsons/v1_VE250_randls_49.json,http://54.235.29.9/FacialAge/BNav_EC2/DepthDuration/v2_depth_duration_MTurk/v2_DepthDuration_HTML.html#66,66,1366,657,1366,768,8-20-2022,12-54-4,150,depth_duration_stimuli/003228_2014-05-14_13-42-35_094959634447_rgbf000101-resize_1/003228_2014-05-14_13-42-35_094959634447_rgbf000101-resize_1-target.png,250,1.9680000000000002,2.3,7487,248,feet,jsons/v1_VE250_randls_49.json,1109945,1408096,50,Man
150,674659,DepthScenes,duration_manipulation_targetAtFixation,jsons/v1_VE250_randls_49.json,http://54.235.29.9/FacialAge/BNav_EC2/DepthDuration/v2_depth_duration_MTurk/v2_DepthDuration_HTML.html#66,66,1366,657,1366,768,8-20-2022,12-54-4,151,depth_duration_stimuli/003621_2014-05-23_18-06-08_094959634447_rgbf000101-resize_1/003621_2014-05-23_18-06-08_094959634447_rgbf000101-resize_1-target.png,250,3.9835,3.5,5088,249,feet,jsons/v1_VE250_randls_49.json,1109945,1408096,50,Man
151,674659,DepthScenes,duration_manipulation_targetAtFixation,jsons/v1_VE250_randls_49.json,http://54.235.29.9/FacialAge/BNav_EC2/DepthDuration/v2_depth_duration_MTurk/v2_DepthDuration_HTML.html#66,66,1366,657,1366,768,8-20-2022,12-54-4,152,depth_duration_stimuli/001584_2014-06-20_11-07-43_260595134347_rgbf000002-resize_1/001584_2014-06-20_11-07-43_260595134347_rgbf000002-resize_1-target.png,250,3.53,3.5,4548,199,feet,jsons/v1_VE250_randls_49.json,1109945,1408096,50,Man
152,674659,DepthScenes,duration_manipulation_targetAtFixation,jsons/v1_VE250_randls_49.json,http://54.235.29.9/FacialAge/BNav_EC2/DepthDuration/v2_depth_duration_MTurk/v2_DepthDuration_HTML.html#66,66,1366,657,1366,768,8-20-2022,12-54-4,153,depth_duration_stimuli/000929_2014-06-09_16-33-19_260595134347_rgbf000139-resize_0/000929_2014-06-09_16-33-19_260595134347_rgbf000139-resize_0-target.png,250,2.8680000000000003,2.5,6639,248,feet,jsons/v1_VE250_randls_49.json,1109945,1408096,50,Man
153,674659,DepthScenes,duration_manipulation_targetAtFixation,jsons/v1_VE250_randls_49.json,http://54.235.29.9/FacialAge/BNav_EC2/DepthDuration/v2_depth_duration_MTurk/v2_DepthDuration_HTML.html#66,66,1366,657,1366,768,8-20-2022,12-54-4,154,depth_duration_stimuli/000457_2014-06-08_16-52-43_260595134347_rgbf000199-resize_1/000457_2014-06-08_16-52-43_260595134347_rgbf000199-resize_1-target.png,250,3.6489999999999996,4.0,4530,241,feet,jsons/v1_VE250_randls_49.json,1109945,1408096,50,Man
154,674659,DepthScenes,duration_manipulation_targetAtFixation,jsons/v1_VE250_randls_49.json,http://54.235.29.9/FacialAge/BNav_EC2/DepthDuration/v2_depth_duration_MTurk/v2_DepthDuration_HTML.html#66,66,1366,657,1366,768,8-20-2022,12-54-4,155,depth_duration_stimuli/002213_2014-06-28_18-37-58_260595134347_rgbf000055-resize_1/002213_2014-06-28_18-37-58_260595134347_rgbf000055-resize_1-target.png,250,3.62,4.0,4492,247,feet,jsons/v1_VE250_randls_49.json,1109945,1408096,50,Man
155,674659,DepthScenes,duration_manipulation_targetAtFixation,jsons/v1_VE250_randls_49.json,http://54.235.29.9/FacialAge/BNav_EC2/DepthDuration/v2_depth_duration_MTurk/v2_DepthDuration_HTML.html#66,66,1366,657,1366,768,8-20-2022,12-54-4,156,depth_duration_stimuli/000691_2014-06-08_13-08-50_260595134347_rgbf000132-resize_3/000691_2014-06-08_13-08-50_260595134347_rgbf000132-resize_3-target.png,250,4.1530000000000005,3.6,6554,248,feet,jsons/v1_VE250_randls_49.json,1109945,1408096,50,Man
156,674659,DepthScenes,duration_manipulation_targetAtFixation,jsons/v1_VE250_randls_49.json,http://54.235.29.9/FacialAge/BNav_EC2/DepthDuration/v2_depth_duration_MTurk/v2_DepthDuration_HTML.html#66,66,1366,657,1366,768,8-20-2022,12-54-4,157,depth_duration_stimuli/000917_2014-06-09_22-45-29_260595134347_rgbf000149-resize_3/000917_2014-06-09_22-45-29_260595134347_rgbf000149-resize_3-target.png,250,4.1865,3.4,6797,366,feet,jsons/v1_VE250_randls_49.json,1109945,1408096,50,Man
157,674659,DepthScenes,duration_manipulation_targetAtFixation,jsons/v1_VE250_randls_49.json,http://54.235.29.9/FacialAge/BNav_EC2/DepthDuration/v2_depth_duration_MTurk/v2_DepthDuration_HTML.html#66,66,1366,657,1366,768,8-20-2022,12-54-4,158,depth_duration_stimuli/002323_2014-06-28_20-01-54_260595134347_rgbf000051-resize_4/002323_2014-06-28_20-01-54_260595134347_rgbf000051-resize_4-target.png,250,3.7310000000000003,2.8,6707,248,feet,jsons/v1_VE250_randls_49.json,1109945,1408096,50,Man
158,674659,DepthScenes,duration_manipulation_targetAtFixation,jsons/v1_VE250_randls_49.json,http://54.235.29.9/FacialAge/BNav_EC2/DepthDuration/v2_depth_duration_MTurk/v2_DepthDuration_HTML.html#66,66,1366,657,1366,768,8-20-2022,12-54-4,159,depth_duration_stimuli/001059_2014-06-08_21-53-27_260595134347_rgbf000061-resize_4/001059_2014-06-08_21-53-27_260595134347_rgbf000061-resize_4-target.png,250,2.4185,2.8,9327,247,feet,jsons/v1_VE250_randls_49.json,1109945,1408096,50,Man
159,674659,DepthScenes,duration_manipulation_targetAtFixation,jsons/v1_VE250_randls_49.json,http://54.235.29.9/FacialAge/BNav_EC2/DepthDuration/v2_depth_duration_MTurk/v2_DepthDuration_HTML.html#66,66,1366,657,1366,768,8-20-2022,12-54-4,160,depth_duration_stimuli/001032_2014-06-08_13-23-17_260595134347_rgbf000021-resize_3/001032_2014-06-08_13-23-17_260595134347_rgbf000021-resize_3-target.png,250,3.2725,1.7,4680,248,feet,jsons/v1_VE250_randls_49.json,1109945,1408096,50,Man
160,674659,DepthScenes,duration_manipulation_targetAtFixation,jsons/v1_VE250_randls_49.json,http://54.235.29.9/FacialAge/BNav_EC2/DepthDuration/v2_depth_duration_MTurk/v2_DepthDuration_HTML.html#66,66,1366,657,1366,768,8-20-2022,12-54-4,161,depth_duration_stimuli/000436_2014-06-09_22-25-11_260595134347_rgbf000137-resize_1/000436_2014-06-09_22-25-11_260595134347_rgbf000137-resize_1-target.png,250,4.0705,3.6,6059,249,feet,jsons/v1_VE250_randls_49.json,1109945,1408096,50,Man
161,674659,DepthScenes,duration_manipulation_targetAtFixation,jsons/v1_VE250_randls_49.json,http://54.235.29.9/FacialAge/BNav_EC2/DepthDuration/v2_depth_duration_MTurk/v2_DepthDuration_HTML.html#66,66,1366,657,1366,768,8-20-2022,12-54-4,162,depth_duration_stimuli/002444_2014-06-28_20-32-08_260595134347_rgbf000027-resize_0/002444_2014-06-28_20-32-08_260595134347_rgbf000027-resize_0-target.png,250,4.388999999999999,3.8,4982,247,feet,jsons/v1_VE250_randls_49.json,1109945,1408096,50,Man
162,674659,DepthScenes,duration_manipulation_targetAtFixation,jsons/v1_VE250_randls_49.json,http://54.235.29.9/FacialAge/BNav_EC2/DepthDuration/v2_depth_duration_MTurk/v2_DepthDuration_HTML.html#66,66,1366,657,1366,768,8-20-2022,12-54-4,163,depth_duration_stimuli/001150_2014-06-17_15-27-34_260595134347_rgbf000108-resize_2/001150_2014-06-17_15-27-34_260595134347_rgbf000108-resize_2-target.png,250,4.0325,4.5,9301,247,feet,jsons/v1_VE250_randls_49.json,1109945,1408096,50,Man
163,674659,DepthScenes,duration_manipulation_targetAtFixation,jsons/v1_VE250_randls_49.json,http://54.235.29.9/FacialAge/BNav_EC2/DepthDuration/v2_depth_duration_MTurk/v2_DepthDuration_HTML.html#66,66,1366,657,1366,768,8-20-2022,12-54-4,164,depth_duration_stimuli/000665_2014-06-09_20-42-35_260595134347_rgbf000110-resize_1/000665_2014-06-09_20-42-35_260595134347_rgbf000110-resize_1-target.png,250,3.057,3.4,7820,247,feet,jsons/v1_VE250_randls_49.json,1109945,1408096,50,Man
