,subjID,experimentName,versionName,sequenceName,url,selected_row,windowWidth,windowHeight,screenWidth,screenHeight,startDate,startTime,trial,stimulus,duration,actual_depth,depth_estimate,trial_RT,log_sceneDuration,unitSelection,seq_filepath,experimentTime,totalTime,age,gender
0,676615,DepthScenes,duration_manipulation_targetAtFixation,jsons/v1_VE1000_randls_55_rotated.json,http://54.235.29.9/FacialAge/BNav_EC2/DepthDuration/v2_depth_duration_MTurk/v2_DepthDuration_HTML.html#71,71,1818,1024,1364,768,8-22-2022,5-4-19,1,depth_duration_stimuli/000677_2014-06-08_23-10-32_260595134347_rgbf000158-resize_6/000677_2014-06-08_23-10-32_260595134347_rgbf000158-resize_6-target.png,1000,3.556,1.0,18002,999,meters,jsons/v1_VE1000_randls_55_rotated.json,1506023,1935251,24,Man
1,676615,DepthScenes,duration_manipulation_targetAtFixation,jsons/v1_VE1000_randls_55_rotated.json,http://54.235.29.9/FacialAge/BNav_EC2/DepthDuration/v2_depth_duration_MTurk/v2_DepthDuration_HTML.html#71,71,1818,1024,1364,768,8-22-2022,5-4-19,2,depth_duration_stimuli/001029_2014-06-08_13-17-57_260595134347_rgbf000065-resize_1/001029_2014-06-08_13-17-57_260595134347_rgbf000065-resize_1-target.png,1000,3.0835,1.5,6802,1000,meters,jsons/v1_VE1000_randls_55_rotated.json,1506023,1935251,24,Man
2,676615,DepthScenes,duration_manipulation_targetAtFixation,jsons/v1_VE1000_randls_55_rotated.json,http://54.235.29.9/FacialAge/BNav_EC2/DepthDuration/v2_depth_duration_MTurk/v2_DepthDuration_HTML.html#71,71,1818,1024,1364,768,8-22-2022,5-4-19,3,depth_duration_stimuli/001032_2014-06-08_13-23-17_260595134347_rgbf000021-resize_3/001032_2014-06-08_13-23-17_260595134347_rgbf000021-resize_3-target.png,1000,3.2725,0.5,7635,1000,meters,jsons/v1_VE1000_randls_55_rotated.json,1506023,1935251,24,Man
3,676615,DepthScenes,duration_manipulation_targetAtFixation,jsons/v1_VE1000_randls_55_rotated.json,http://54.235.29.9/FacialAge/BNav_EC2/DepthDuration/v2_depth_duration_MTurk/v2_DepthDuration_HTML.html#71,71,1818,1024,1364,768,8-22-2022,5-4-19,4,depth_duration_stimuli/001059_2014-06-08_21-53-27_260595134347_rgbf000061-resize_4/001059_2014-06-08_21-53-27_260595134347_rgbf000061-resize_4-target.png,1000,2.4185,1.0,5057,1187,meters,jsons/v1_VE1000_randls_55_rotated.json,1506023,1935251,24,Man
4,676615,DepthScenes,duration_manipulation_targetAtFixation,jsons/v1_VE1000_randls_55_rotated.json,http://54.235.29.9/FacialAge/BNav_EC2/DepthDuration/v2_depth_duration_MTurk/v2_DepthDuration_HTML.html#71,71,1818,1024,1364,768,8-22-2022,5-4-19,5,depth_duration_stimuli/003423_2014-05-21_10-23-26_094959634447_rgbf002665-resize_2/003423_2014-05-21_10-23-26_094959634447_rgbf002665-resize_2-target.png,1000,3.2575,0.2,6859,999,meters,jsons/v1_VE1000_randls_55_rotated.json,1506023,1935251,24,Man
5,676615,DepthScenes,duration_manipulation_targetAtFixation,jsons/v1_VE1000_randls_55_rotated.json,http://54.235.29.9/FacialAge/BNav_EC2/DepthDuration/v2_depth_duration_MTurk/v2_DepthDuration_HTML.html#71,71,1818,1024,1364,768,8-22-2022,5-4-19,6,depth_duration_stimuli/002905_2014-06-03_18-04-43_094959634447_rgbf000151-resize_2/002905_2014-06-03_18-04-43_094959634447_rgbf000151-resize_2-target.png,1000,2.0295,0.3,5776,998,meters,jsons/v1_VE1000_randls_55_rotated.json,1506023,1935251,24,Man
6,676615,DepthScenes,duration_manipulation_targetAtFixation,jsons/v1_VE1000_randls_55_rotated.json,http://54.235.29.9/FacialAge/BNav_EC2/DepthDuration/v2_depth_duration_MTurk/v2_DepthDuration_HTML.html#71,71,1818,1024,1364,768,8-22-2022,5-4-19,7,depth_duration_stimuli/000866_2014-06-09_20-45-42_260595134347_rgbf000139-resize_1/000866_2014-06-09_20-45-42_260595134347_rgbf000139-resize_1-target.png,1000,3.2155,2.0,6513,999,meters,jsons/v1_VE1000_randls_55_rotated.json,1506023,1935251,24,Man
7,676615,DepthScenes,duration_manipulation_targetAtFixation,jsons/v1_VE1000_randls_55_rotated.json,http://54.235.29.9/FacialAge/BNav_EC2/DepthDuration/v2_depth_duration_MTurk/v2_DepthDuration_HTML.html#71,71,1818,1024,1364,768,8-22-2022,5-4-19,8,depth_duration_stimuli/002989_2014-06-15_12-25-03_094959634447_rgbf000150-resize_3/002989_2014-06-15_12-25-03_094959634447_rgbf000150-resize_3-target.png,1000,4.1975,1.5,5163,995,meters,jsons/v1_VE1000_randls_55_rotated.json,1506023,1935251,24,Man
8,676615,DepthScenes,duration_manipulation_targetAtFixation,jsons/v1_VE1000_randls_55_rotated.json,http://54.235.29.9/FacialAge/BNav_EC2/DepthDuration/v2_depth_duration_MTurk/v2_DepthDuration_HTML.html#71,71,1818,1024,1364,768,8-22-2022,5-4-19,9,depth_duration_stimuli/002949_2014-06-26_15-57-42_094959634447_rgbf000079-resize_1/002949_2014-06-26_15-57-42_094959634447_rgbf000079-resize_1-target.png,1000,1.8915,0.8,13073,996,meters,jsons/v1_VE1000_randls_55_rotated.json,1506023,1935251,24,Man
9,676615,DepthScenes,duration_manipulation_targetAtFixation,jsons/v1_VE1000_randls_55_rotated.json,http://54.235.29.9/FacialAge/BNav_EC2/DepthDuration/v2_depth_duration_MTurk/v2_DepthDuration_HTML.html#71,71,1818,1024,1364,768,8-22-2022,5-4-19,10,depth_duration_stimuli/000522_2014-06-08_13-35-06_260595134347_rgbf000244-resize_1/000522_2014-06-08_13-35-06_260595134347_rgbf000244-resize_1-target.png,1000,2.3715,0.4,6601,998,meters,jsons/v1_VE1000_randls_55_rotated.json,1506023,1935251,24,Man
10,676615,DepthScenes,duration_manipulation_targetAtFixation,jsons/v1_VE1000_randls_55_rotated.json,http://54.235.29.9/FacialAge/BNav_EC2/DepthDuration/v2_depth_duration_MTurk/v2_DepthDuration_HTML.html#71,71,1818,1024,1364,768,8-22-2022,5-4-19,11,depth_duration_stimuli/000635_2014-06-08_16-38-42_260595134347_rgbf000106-resize_1/000635_2014-06-08_16-38-42_260595134347_rgbf000106-resize_1-target.png,1000,2.074,1.0,8698,999,meters,jsons/v1_VE1000_randls_55_rotated.json,1506023,1935251,24,Man
11,676615,DepthScenes,duration_manipulation_targetAtFixation,jsons/v1_VE1000_randls_55_rotated.json,http://54.235.29.9/FacialAge/BNav_EC2/DepthDuration/v2_depth_duration_MTurk/v2_DepthDuration_HTML.html#71,71,1818,1024,1364,768,8-22-2022,5-4-19,12,depth_duration_stimuli/002279_2014-06-28_18-55-32_260595134347_rgbf000040-resize_5/002279_2014-06-28_18-55-32_260595134347_rgbf000040-resize_5-target.png,1000,1.5043333333333,1.2,7530,998,meters,jsons/v1_VE1000_randls_55_rotated.json,1506023,1935251,24,Man
12,676615,DepthScenes,duration_manipulation_targetAtFixation,jsons/v1_VE1000_randls_55_rotated.json,http://54.235.29.9/FacialAge/BNav_EC2/DepthDuration/v2_depth_duration_MTurk/v2_DepthDuration_HTML.html#71,71,1818,1024,1364,768,8-22-2022,5-4-19,13,depth_duration_stimuli/002209_2014-06-28_18-36-10_260595134347_rgbf000051-resize_1/002209_2014-06-28_18-36-10_260595134347_rgbf000051-resize_1-target.png,1000,2.057,1.0,6721,1001,meters,jsons/v1_VE1000_randls_55_rotated.json,1506023,1935251,24,Man
13,676615,DepthScenes,duration_manipulation_targetAtFixation,jsons/v1_VE1000_randls_55_rotated.json,http://54.235.29.9/FacialAge/BNav_EC2/DepthDuration/v2_depth_duration_MTurk/v2_DepthDuration_HTML.html#71,71,1818,1024,1364,768,8-22-2022,5-4-19,14,depth_duration_stimuli/002763_2014-06-22_19-13-10_094959634447_rgbf000075-resize_4/002763_2014-06-22_19-13-10_094959634447_rgbf000075-resize_4-target.png,1000,1.68375,0.9,9076,1001,meters,jsons/v1_VE1000_randls_55_rotated.json,1506023,1935251,24,Man
14,676615,DepthScenes,duration_manipulation_targetAtFixation,jsons/v1_VE1000_randls_55_rotated.json,http://54.235.29.9/FacialAge/BNav_EC2/DepthDuration/v2_depth_duration_MTurk/v2_DepthDuration_HTML.html#71,71,1818,1024,1364,768,8-22-2022,5-4-19,15,depth_duration_stimuli/002199_2014-06-28_18-33-56_260595134347_rgbf000074-resize_0/002199_2014-06-28_18-33-56_260595134347_rgbf000074-resize_0-target.png,1000,1.996,0.7,17842,998,meters,jsons/v1_VE1000_randls_55_rotated.json,1506023,1935251,24,Man
15,676615,DepthScenes,duration_manipulation_targetAtFixation,jsons/v1_VE1000_randls_55_rotated.json,http://54.235.29.9/FacialAge/BNav_EC2/DepthDuration/v2_depth_duration_MTurk/v2_DepthDuration_HTML.html#71,71,1818,1024,1364,768,8-22-2022,5-4-19,16,depth_duration_stimuli/001056_2014-06-08_18-46-44_260595134347_rgbf000068-resize_0/001056_2014-06-08_18-46-44_260595134347_rgbf000068-resize_0-target.png,1000,2.6625,1.0,10979,999,meters,jsons/v1_VE1000_randls_55_rotated.json,1506023,1935251,24,Man
16,676615,DepthScenes,duration_manipulation_targetAtFixation,jsons/v1_VE1000_randls_55_rotated.json,http://54.235.29.9/FacialAge/BNav_EC2/DepthDuration/v2_depth_duration_MTurk/v2_DepthDuration_HTML.html#71,71,1818,1024,1364,768,8-22-2022,5-4-19,17,depth_duration_stimuli/000943_2014-06-09_19-31-07_260595134347_rgbf000128-resize_1/000943_2014-06-09_19-31-07_260595134347_rgbf000128-resize_1-target.png,1000,1.9765,1.0,22012,999,meters,jsons/v1_VE1000_randls_55_rotated.json,1506023,1935251,24,Man
17,676615,DepthScenes,duration_manipulation_targetAtFixation,jsons/v1_VE1000_randls_55_rotated.json,http://54.235.29.9/FacialAge/BNav_EC2/DepthDuration/v2_depth_duration_MTurk/v2_DepthDuration_HTML.html#71,71,1818,1024,1364,768,8-22-2022,5-4-19,18,depth_duration_stimuli/003070_2014-06-15_14-58-27_094959634447_rgbf000150-resize_3/003070_2014-06-15_14-58-27_094959634447_rgbf000150-resize_3-target.png,1000,2.9415,1.0,22130,968,meters,jsons/v1_VE1000_randls_55_rotated.json,1506023,1935251,24,Man
18,676615,DepthScenes,duration_manipulation_targetAtFixation,jsons/v1_VE1000_randls_55_rotated.json,http://54.235.29.9/FacialAge/BNav_EC2/DepthDuration/v2_depth_duration_MTurk/v2_DepthDuration_HTML.html#71,71,1818,1024,1364,768,8-22-2022,5-4-19,19,depth_duration_stimuli/001498_2014-06-19_17-45-14_260595134347_rgbf000129-resize_4/001498_2014-06-19_17-45-14_260595134347_rgbf000129-resize-original.jpg,1000,1.4075,0.0,8044,1000,meters,jsons/v1_VE1000_randls_55_rotated.json,1506023,1935251,24,Man
19,676615,DepthScenes,duration_manipulation_targetAtFixation,jsons/v1_VE1000_randls_55_rotated.json,http://54.235.29.9/FacialAge/BNav_EC2/DepthDuration/v2_depth_duration_MTurk/v2_DepthDuration_HTML.html#71,71,1818,1024,1364,768,8-22-2022,5-4-19,20,depth_duration_stimuli/001052_2014-06-08_18-24-54_260595134347_rgbf000130-resize_1/001052_2014-06-08_18-24-54_260595134347_rgbf000130-resize_1-target.png,1000,4.1045,2.0,11302,1000,meters,jsons/v1_VE1000_randls_55_rotated.json,1506023,1935251,24,Man
20,676615,DepthScenes,duration_manipulation_targetAtFixation,jsons/v1_VE1000_randls_55_rotated.json,http://54.235.29.9/FacialAge/BNav_EC2/DepthDuration/v2_depth_duration_MTurk/v2_DepthDuration_HTML.html#71,71,1818,1024,1364,768,8-22-2022,5-4-19,21,depth_duration_stimuli/002988_2014-06-15_12-24-20_094959634447_rgbf000150-resize_1/002988_2014-06-15_12-24-20_094959634447_rgbf000150-resize_1-target.png,1000,4.7669999999999995,1.0,3909,1000,meters,jsons/v1_VE1000_randls_55_rotated.json,1506023,1935251,24,Man
21,676615,DepthScenes,duration_manipulation_targetAtFixation,jsons/v1_VE1000_randls_55_rotated.json,http://54.235.29.9/FacialAge/BNav_EC2/DepthDuration/v2_depth_duration_MTurk/v2_DepthDuration_HTML.html#71,71,1818,1024,1364,768,8-22-2022,5-4-19,22,depth_duration_stimuli/001584_2014-06-20_11-07-43_260595134347_rgbf000002-resize_1/001584_2014-06-20_11-07-43_260595134347_rgbf000002-resize_1-target.png,1000,3.53,1.5,6801,999,meters,jsons/v1_VE1000_randls_55_rotated.json,1506023,1935251,24,Man
22,676615,DepthScenes,duration_manipulation_targetAtFixation,jsons/v1_VE1000_randls_55_rotated.json,http://54.235.29.9/FacialAge/BNav_EC2/DepthDuration/v2_depth_duration_MTurk/v2_DepthDuration_HTML.html#71,71,1818,1024,1364,768,8-22-2022,5-4-19,23,depth_duration_stimuli/003621_2014-05-23_18-06-08_094959634447_rgbf000101-resize_1/003621_2014-05-23_18-06-08_094959634447_rgbf000101-resize_1-target.png,1000,3.9835,2.0,3586,999,meters,jsons/v1_VE1000_randls_55_rotated.json,1506023,1935251,24,Man
23,676615,DepthScenes,duration_manipulation_targetAtFixation,jsons/v1_VE1000_randls_55_rotated.json,http://54.235.29.9/FacialAge/BNav_EC2/DepthDuration/v2_depth_duration_MTurk/v2_DepthDuration_HTML.html#71,71,1818,1024,1364,768,8-22-2022,5-4-19,24,depth_duration_stimuli/000556_2014-06-09_22-42-56_260595134347_rgbf000214-resize_1/000556_2014-06-09_22-42-56_260595134347_rgbf000214-resize_1-target.png,1000,4.8415,0.6,7101,1000,meters,jsons/v1_VE1000_randls_55_rotated.json,1506023,1935251,24,Man
24,676615,DepthScenes,duration_manipulation_targetAtFixation,jsons/v1_VE1000_randls_55_rotated.json,http://54.235.29.9/FacialAge/BNav_EC2/DepthDuration/v2_depth_duration_MTurk/v2_DepthDuration_HTML.html#71,71,1818,1024,1364,768,8-22-2022,5-4-19,25,depth_duration_stimuli/001158_2014-06-17_15-32-16_260595134347_rgbf000138-resize_2/001158_2014-06-17_15-32-16_260595134347_rgbf000138-resize_2-target.png,1000,4.5315,0.4,7810,997,meters,jsons/v1_VE1000_randls_55_rotated.json,1506023,1935251,24,Man
25,676615,DepthScenes,duration_manipulation_targetAtFixation,jsons/v1_VE1000_randls_55_rotated.json,http://54.235.29.9/FacialAge/BNav_EC2/DepthDuration/v2_depth_duration_MTurk/v2_DepthDuration_HTML.html#71,71,1818,1024,1364,768,8-22-2022,5-4-19,26,depth_duration_stimuli/000457_2014-06-08_16-52-43_260595134347_rgbf000199-resize_1/000457_2014-06-08_16-52-43_260595134347_rgbf000199-resize_1-target.png,1000,3.6489999999999996,0.5,11403,999,meters,jsons/v1_VE1000_randls_55_rotated.json,1506023,1935251,24,Man
26,676615,DepthScenes,duration_manipulation_targetAtFixation,jsons/v1_VE1000_randls_55_rotated.json,http://54.235.29.9/FacialAge/BNav_EC2/DepthDuration/v2_depth_duration_MTurk/v2_DepthDuration_HTML.html#71,71,1818,1024,1364,768,8-22-2022,5-4-19,27,depth_duration_stimuli/000929_2014-06-09_16-33-19_260595134347_rgbf000139-resize_0/000929_2014-06-09_16-33-19_260595134347_rgbf000139-resize_0-target.png,1000,2.8680000000000003,0.4,6603,1000,meters,jsons/v1_VE1000_randls_55_rotated.json,1506023,1935251,24,Man
27,676615,DepthScenes,duration_manipulation_targetAtFixation,jsons/v1_VE1000_randls_55_rotated.json,http://54.235.29.9/FacialAge/BNav_EC2/DepthDuration/v2_depth_duration_MTurk/v2_DepthDuration_HTML.html#71,71,1818,1024,1364,768,8-22-2022,5-4-19,28,depth_duration_stimuli/000691_2014-06-08_13-08-50_260595134347_rgbf000132-resize_3/000691_2014-06-08_13-08-50_260595134347_rgbf000132-resize_3-target.png,1000,4.1530000000000005,0.3,9519,997,meters,jsons/v1_VE1000_randls_55_rotated.json,1506023,1935251,24,Man
28,676615,DepthScenes,duration_manipulation_targetAtFixation,jsons/v1_VE1000_randls_55_rotated.json,http://54.235.29.9/FacialAge/BNav_EC2/DepthDuration/v2_depth_duration_MTurk/v2_DepthDuration_HTML.html#71,71,1818,1024,1364,768,8-22-2022,5-4-19,29,depth_duration_stimuli/002213_2014-06-28_18-37-58_260595134347_rgbf000055-resize_1/002213_2014-06-28_18-37-58_260595134347_rgbf000055-resize_1-target.png,1000,3.62,1.0,5121,998,meters,jsons/v1_VE1000_randls_55_rotated.json,1506023,1935251,24,Man
29,676615,DepthScenes,duration_manipulation_targetAtFixation,jsons/v1_VE1000_randls_55_rotated.json,http://54.235.29.9/FacialAge/BNav_EC2/DepthDuration/v2_depth_duration_MTurk/v2_DepthDuration_HTML.html#71,71,1818,1024,1364,768,8-22-2022,5-4-19,30,depth_duration_stimuli/002072_2014-06-24_21-48-06_260595134347_rgbf000115-resize_0/002072_2014-06-24_21-48-06_260595134347_rgbf000115-resize-original.jpg,1000,4.702,0.0,6057,982,meters,jsons/v1_VE1000_randls_55_rotated.json,1506023,1935251,24,Man
30,676615,DepthScenes,duration_manipulation_targetAtFixation,jsons/v1_VE1000_randls_55_rotated.json,http://54.235.29.9/FacialAge/BNav_EC2/DepthDuration/v2_depth_duration_MTurk/v2_DepthDuration_HTML.html#71,71,1818,1024,1364,768,8-22-2022,5-4-19,31,depth_duration_stimuli/002875_2014-06-01_15-19-00_094959634447_rgbf000151-resize_1/002875_2014-06-01_15-19-00_094959634447_rgbf000151-resize_1-target.png,1000,1.9675,0.8,7507,1016,meters,jsons/v1_VE1000_randls_55_rotated.json,1506023,1935251,24,Man
31,676615,DepthScenes,duration_manipulation_targetAtFixation,jsons/v1_VE1000_randls_55_rotated.json,http://54.235.29.9/FacialAge/BNav_EC2/DepthDuration/v2_depth_duration_MTurk/v2_DepthDuration_HTML.html#71,71,1818,1024,1364,768,8-22-2022,5-4-19,32,depth_duration_stimuli/001011_2014-06-08_23-18-54_260595134347_rgbf000044-resize_4/001011_2014-06-08_23-18-54_260595134347_rgbf000044-resize_4-target.png,1000,2.4730000000000003,0.9,6458,999,meters,jsons/v1_VE1000_randls_55_rotated.json,1506023,1935251,24,Man
32,676615,DepthScenes,duration_manipulation_targetAtFixation,jsons/v1_VE1000_randls_55_rotated.json,http://54.235.29.9/FacialAge/BNav_EC2/DepthDuration/v2_depth_duration_MTurk/v2_DepthDuration_HTML.html#71,71,1818,1024,1364,768,8-22-2022,5-4-19,33,depth_duration_stimuli/002953_2014-06-08_17-32-18_094959634447_rgbf000059-resize_5/002953_2014-06-08_17-32-18_094959634447_rgbf000059-resize_5-target.png,1000,1.551,1.0,6690,998,meters,jsons/v1_VE1000_randls_55_rotated.json,1506023,1935251,24,Man
33,676615,DepthScenes,duration_manipulation_targetAtFixation,jsons/v1_VE1000_randls_55_rotated.json,http://54.235.29.9/FacialAge/BNav_EC2/DepthDuration/v2_depth_duration_MTurk/v2_DepthDuration_HTML.html#71,71,1818,1024,1364,768,8-22-2022,5-4-19,34,depth_duration_stimuli/000878_2014-06-08_22-52-45_260595134347_rgbf000045-resize_2/000878_2014-06-08_22-52-45_260595134347_rgbf000045-resize_2-target.png,1000,2.092,0.8,5425,1012,meters,jsons/v1_VE1000_randls_55_rotated.json,1506023,1935251,24,Man
34,676615,DepthScenes,duration_manipulation_targetAtFixation,jsons/v1_VE1000_randls_55_rotated.json,http://54.235.29.9/FacialAge/BNav_EC2/DepthDuration/v2_depth_duration_MTurk/v2_DepthDuration_HTML.html#71,71,1818,1024,1364,768,8-22-2022,5-4-19,35,depth_duration_stimuli/003010_2014-06-15_12-54-35_094959634447_rgbf000112-resize_0/003010_2014-06-15_12-54-35_094959634447_rgbf000112-resize_0-target.png,1000,3.1185,1.5,6689,997,meters,jsons/v1_VE1000_randls_55_rotated.json,1506023,1935251,24,Man
35,676615,DepthScenes,duration_manipulation_targetAtFixation,jsons/v1_VE1000_randls_55_rotated.json,http://54.235.29.9/FacialAge/BNav_EC2/DepthDuration/v2_depth_duration_MTurk/v2_DepthDuration_HTML.html#71,71,1818,1024,1364,768,8-22-2022,5-4-19,36,depth_duration_stimuli/001810_2014-06-26_20-51-35_260595134347_rgbf000040-resize_3/001810_2014-06-26_20-51-35_260595134347_rgbf000040-resize_3-target.png,1000,2.2525,0.6,6438,1000,meters,jsons/v1_VE1000_randls_55_rotated.json,1506023,1935251,24,Man
36,676615,DepthScenes,duration_manipulation_targetAtFixation,jsons/v1_VE1000_randls_55_rotated.json,http://54.235.29.9/FacialAge/BNav_EC2/DepthDuration/v2_depth_duration_MTurk/v2_DepthDuration_HTML.html#71,71,1818,1024,1364,768,8-22-2022,5-4-19,37,depth_duration_stimuli/001617_2014-06-20_11-35-32_260595134347_rgbf000066-resize_1/001617_2014-06-20_11-35-32_260595134347_rgbf000066-resize_1-target.png,1000,3.7910000000000004,0.5,7465,1000,meters,jsons/v1_VE1000_randls_55_rotated.json,1506023,1935251,24,Man
37,676615,DepthScenes,duration_manipulation_targetAtFixation,jsons/v1_VE1000_randls_55_rotated.json,http://54.235.29.9/FacialAge/BNav_EC2/DepthDuration/v2_depth_duration_MTurk/v2_DepthDuration_HTML.html#71,71,1818,1024,1364,768,8-22-2022,5-4-19,38,depth_duration_stimuli/001806_2014-06-26_20-50-20_260595134347_rgbf000091-resize_1/001806_2014-06-26_20-50-20_260595134347_rgbf000091-resize_1-target.png,1000,2.7305,0.2,4987,1000,meters,jsons/v1_VE1000_randls_55_rotated.json,1506023,1935251,24,Man
38,676615,DepthScenes,duration_manipulation_targetAtFixation,jsons/v1_VE1000_randls_55_rotated.json,http://54.235.29.9/FacialAge/BNav_EC2/DepthDuration/v2_depth_duration_MTurk/v2_DepthDuration_HTML.html#71,71,1818,1024,1364,768,8-22-2022,5-4-19,39,depth_duration_stimuli/002425_2014-06-28_20-27-29_260595134347_rgbf000031-resize_8/002425_2014-06-28_20-27-29_260595134347_rgbf000031-resize_8-target.png,1000,3.8960000000000004,0.6,7394,998,meters,jsons/v1_VE1000_randls_55_rotated.json,1506023,1935251,24,Man
39,676615,DepthScenes,duration_manipulation_targetAtFixation,jsons/v1_VE1000_randls_55_rotated.json,http://54.235.29.9/FacialAge/BNav_EC2/DepthDuration/v2_depth_duration_MTurk/v2_DepthDuration_HTML.html#71,71,1818,1024,1364,768,8-22-2022,5-4-19,40,depth_duration_stimuli/000642_2014-06-08_16-59-25_260595134347_rgbf000098-resize_2/000642_2014-06-08_16-59-25_260595134347_rgbf000098-resize_2-target.png,1000,2.8815,0.3,5082,999,meters,jsons/v1_VE1000_randls_55_rotated.json,1506023,1935251,24,Man
40,676615,DepthScenes,duration_manipulation_targetAtFixation,jsons/v1_VE1000_randls_55_rotated.json,http://54.235.29.9/FacialAge/BNav_EC2/DepthDuration/v2_depth_duration_MTurk/v2_DepthDuration_HTML.html#71,71,1818,1024,1364,768,8-22-2022,5-4-19,41,depth_duration_stimuli/002660_2014-06-13_15-44-18_094959634447_rgbf001878-resize_2/002660_2014-06-13_15-44-18_094959634447_rgbf001878-resize_2-target.png,1000,3.576,0.4,8449,1131,meters,jsons/v1_VE1000_randls_55_rotated.json,1506023,1935251,24,Man
41,676615,DepthScenes,duration_manipulation_targetAtFixation,jsons/v1_VE1000_randls_55_rotated.json,http://54.235.29.9/FacialAge/BNav_EC2/DepthDuration/v2_depth_duration_MTurk/v2_DepthDuration_HTML.html#71,71,1818,1024,1364,768,8-22-2022,5-4-19,42,depth_duration_stimuli/002153_2014-06-25_21-27-18_260595134347_rgbf000038-resize_5/002153_2014-06-25_21-27-18_260595134347_rgbf000038-resize_5-target.png,1000,2.505,0.3,9305,919,meters,jsons/v1_VE1000_randls_55_rotated.json,1506023,1935251,24,Man
42,676615,DepthScenes,duration_manipulation_targetAtFixation,jsons/v1_VE1000_randls_55_rotated.json,http://54.235.29.9/FacialAge/BNav_EC2/DepthDuration/v2_depth_duration_MTurk/v2_DepthDuration_HTML.html#71,71,1818,1024,1364,768,8-22-2022,5-4-19,43,depth_duration_stimuli/003079_2014-06-15_15-18-20_094959634447_rgbf000152-resize_8/003079_2014-06-15_15-18-20_094959634447_rgbf000152-resize_8-target.png,1000,2.8775,1.4,16557,1000,meters,jsons/v1_VE1000_randls_55_rotated.json,1506023,1935251,24,Man
43,676615,DepthScenes,duration_manipulation_targetAtFixation,jsons/v1_VE1000_randls_55_rotated.json,http://54.235.29.9/FacialAge/BNav_EC2/DepthDuration/v2_depth_duration_MTurk/v2_DepthDuration_HTML.html#71,71,1818,1024,1364,768,8-22-2022,5-4-19,44,depth_duration_stimuli/000506_2014-06-08_23-21-00_260595134347_rgbf000070-resize_7/000506_2014-06-08_23-21-00_260595134347_rgbf000070-resize_7-target.png,1000,4.0585,1.0,16312,998,meters,jsons/v1_VE1000_randls_55_rotated.json,1506023,1935251,24,Man
44,676615,DepthScenes,duration_manipulation_targetAtFixation,jsons/v1_VE1000_randls_55_rotated.json,http://54.235.29.9/FacialAge/BNav_EC2/DepthDuration/v2_depth_duration_MTurk/v2_DepthDuration_HTML.html#71,71,1818,1024,1364,768,8-22-2022,5-4-19,45,depth_duration_stimuli/001235_2014-06-17_16-37-36_260595134347_rgbf000084-resize_4/001235_2014-06-17_16-37-36_260595134347_rgbf000084-resize_4-target.png,1000,3.6605,1.0,17252,1000,meters,jsons/v1_VE1000_randls_55_rotated.json,1506023,1935251,24,Man
45,676615,DepthScenes,duration_manipulation_targetAtFixation,jsons/v1_VE1000_randls_55_rotated.json,http://54.235.29.9/FacialAge/BNav_EC2/DepthDuration/v2_depth_duration_MTurk/v2_DepthDuration_HTML.html#71,71,1818,1024,1364,768,8-22-2022,5-4-19,46,depth_duration_stimuli/000788_2014-06-08_22-34-36_260595134347_rgbf000131-resize_1/000788_2014-06-08_22-34-36_260595134347_rgbf000131-resize_1-target.png,1000,3.359,0.5,20103,1001,meters,jsons/v1_VE1000_randls_55_rotated.json,1506023,1935251,24,Man
46,676615,DepthScenes,duration_manipulation_targetAtFixation,jsons/v1_VE1000_randls_55_rotated.json,http://54.235.29.9/FacialAge/BNav_EC2/DepthDuration/v2_depth_duration_MTurk/v2_DepthDuration_HTML.html#71,71,1818,1024,1364,768,8-22-2022,5-4-19,47,depth_duration_stimuli/002103_2014-06-25_20-00-40_260595134347_rgbf000049-resize_0/002103_2014-06-25_20-00-40_260595134347_rgbf000049-resize_0-target.png,1000,4.105,1.0,13052,1001,meters,jsons/v1_VE1000_randls_55_rotated.json,1506023,1935251,24,Man
47,676615,DepthScenes,duration_manipulation_targetAtFixation,jsons/v1_VE1000_randls_55_rotated.json,http://54.235.29.9/FacialAge/BNav_EC2/DepthDuration/v2_depth_duration_MTurk/v2_DepthDuration_HTML.html#71,71,1818,1024,1364,768,8-22-2022,5-4-19,48,depth_duration_stimuli/002039_2014-06-24_20-22-38_260595134347_rgbf000084-resize_1/002039_2014-06-24_20-22-38_260595134347_rgbf000084-resize_1-target.png,1000,4.408,1.0,3979,999,meters,jsons/v1_VE1000_randls_55_rotated.json,1506023,1935251,24,Man
48,676615,DepthScenes,duration_manipulation_targetAtFixation,jsons/v1_VE1000_randls_55_rotated.json,http://54.235.29.9/FacialAge/BNav_EC2/DepthDuration/v2_depth_duration_MTurk/v2_DepthDuration_HTML.html#71,71,1818,1024,1364,768,8-22-2022,5-4-19,49,depth_duration_stimuli/001170_2014-06-17_15-43-44_260595134347_rgbf000096-resize_6/001170_2014-06-17_15-43-44_260595134347_rgbf000096-resize-original.jpg,1000,1.1909999999999998,0.0,7034,1001,meters,jsons/v1_VE1000_randls_55_rotated.json,1506023,1935251,24,Man
49,676615,DepthScenes,duration_manipulation_targetAtFixation,jsons/v1_VE1000_randls_55_rotated.json,http://54.235.29.9/FacialAge/BNav_EC2/DepthDuration/v2_depth_duration_MTurk/v2_DepthDuration_HTML.html#71,71,1818,1024,1364,768,8-22-2022,5-4-19,50,depth_duration_stimuli/002678_2014-06-13_16-15-32_094959634447_rgbf000151-resize_6/002678_2014-06-13_16-15-32_094959634447_rgbf000151-resize_6-target.png,1000,2.1830000000000003,2.0,6794,1000,meters,jsons/v1_VE1000_randls_55_rotated.json,1506023,1935251,24,Man
50,676615,DepthScenes,duration_manipulation_targetAtFixation,jsons/v1_VE1000_randls_55_rotated.json,http://54.235.29.9/FacialAge/BNav_EC2/DepthDuration/v2_depth_duration_MTurk/v2_DepthDuration_HTML.html#71,71,1818,1024,1364,768,8-22-2022,5-4-19,51,depth_duration_stimuli/000368_2014-06-09_15-53-01_260595134347_rgbf000155-resize_2/000368_2014-06-09_15-53-01_260595134347_rgbf000155-resize_2-target.png,1000,2.4859999999999998,1.0,3634,999,meters,jsons/v1_VE1000_randls_55_rotated.json,1506023,1935251,24,Man
51,676615,DepthScenes,duration_manipulation_targetAtFixation,jsons/v1_VE1000_randls_55_rotated.json,http://54.235.29.9/FacialAge/BNav_EC2/DepthDuration/v2_depth_duration_MTurk/v2_DepthDuration_HTML.html#71,71,1818,1024,1364,768,8-22-2022,5-4-19,52,depth_duration_stimuli/001100_2014-06-15_17-46-26_260595134347_rgbf000225-resize_2/001100_2014-06-15_17-46-26_260595134347_rgbf000225-resize_2-target.png,1000,2.24,0.6,6734,999,meters,jsons/v1_VE1000_randls_55_rotated.json,1506023,1935251,24,Man
52,676615,DepthScenes,duration_manipulation_targetAtFixation,jsons/v1_VE1000_randls_55_rotated.json,http://54.235.29.9/FacialAge/BNav_EC2/DepthDuration/v2_depth_duration_MTurk/v2_DepthDuration_HTML.html#71,71,1818,1024,1364,768,8-22-2022,5-4-19,53,depth_duration_stimuli/002784_2014-06-22_19-26-30_094959634447_rgbf000083-resize_3/002784_2014-06-22_19-26-30_094959634447_rgbf000083-resize_3-target.png,1000,1.8046666666667,0.2,4927,1000,meters,jsons/v1_VE1000_randls_55_rotated.json,1506023,1935251,24,Man
53,676615,DepthScenes,duration_manipulation_targetAtFixation,jsons/v1_VE1000_randls_55_rotated.json,http://54.235.29.9/FacialAge/BNav_EC2/DepthDuration/v2_depth_duration_MTurk/v2_DepthDuration_HTML.html#71,71,1818,1024,1364,768,8-22-2022,5-4-19,54,depth_duration_stimuli/002467_2014-06-28_20-38-07_260595134347_rgbf000026-resize_2/002467_2014-06-28_20-38-07_260595134347_rgbf000026-resize_2-target.png,1000,4.742,4.0,5074,941,meters,jsons/v1_VE1000_randls_55_rotated.json,1506023,1935251,24,Man
54,676615,DepthScenes,duration_manipulation_targetAtFixation,jsons/v1_VE1000_randls_55_rotated.json,http://54.235.29.9/FacialAge/BNav_EC2/DepthDuration/v2_depth_duration_MTurk/v2_DepthDuration_HTML.html#71,71,1818,1024,1364,768,8-22-2022,5-4-19,55,depth_duration_stimuli/002570_2014-06-24_13-59-54_094959634447_rgbf000059-resize_0/002570_2014-06-24_13-59-54_094959634447_rgbf000059-resize_0-target.png,1000,4.037,1.0,3465,998,meters,jsons/v1_VE1000_randls_55_rotated.json,1506023,1935251,24,Man
55,676615,DepthScenes,duration_manipulation_targetAtFixation,jsons/v1_VE1000_randls_55_rotated.json,http://54.235.29.9/FacialAge/BNav_EC2/DepthDuration/v2_depth_duration_MTurk/v2_DepthDuration_HTML.html#71,71,1818,1024,1364,768,8-22-2022,5-4-19,56,depth_duration_stimuli/000109_2014-05-14_23-41-52_260595134347_rgbf000035-resize_9/000109_2014-05-14_23-41-52_260595134347_rgbf000035-resize_9-target.png,1000,1.3545,0.2,5692,999,meters,jsons/v1_VE1000_randls_55_rotated.json,1506023,1935251,24,Man
56,676615,DepthScenes,duration_manipulation_targetAtFixation,jsons/v1_VE1000_randls_55_rotated.json,http://54.235.29.9/FacialAge/BNav_EC2/DepthDuration/v2_depth_duration_MTurk/v2_DepthDuration_HTML.html#71,71,1818,1024,1364,768,8-22-2022,5-4-19,57,depth_duration_stimuli/000470_2014-06-09_19-42-40_260595134347_rgbf000094-resize_1/000470_2014-06-09_19-42-40_260595134347_rgbf000094-resize_1-target.png,1000,1.831,0.3,8993,1000,meters,jsons/v1_VE1000_randls_55_rotated.json,1506023,1935251,24,Man
57,676615,DepthScenes,duration_manipulation_targetAtFixation,jsons/v1_VE1000_randls_55_rotated.json,http://54.235.29.9/FacialAge/BNav_EC2/DepthDuration/v2_depth_duration_MTurk/v2_DepthDuration_HTML.html#71,71,1818,1024,1364,768,8-22-2022,5-4-19,58,depth_duration_stimuli/002344_2014-06-28_20-06-29_260595134347_rgbf000030-resize_1/002344_2014-06-28_20-06-29_260595134347_rgbf000030-resize_1-target.png,1000,1.5795,0.4,12625,1000,meters,jsons/v1_VE1000_randls_55_rotated.json,1506023,1935251,24,Man
58,676615,DepthScenes,duration_manipulation_targetAtFixation,jsons/v1_VE1000_randls_55_rotated.json,http://54.235.29.9/FacialAge/BNav_EC2/DepthDuration/v2_depth_duration_MTurk/v2_DepthDuration_HTML.html#71,71,1818,1024,1364,768,8-22-2022,5-4-19,59,depth_duration_stimuli/002725_2014-06-22_11-47-51_094959634447_rgbf000070-resize_1/002725_2014-06-22_11-47-51_094959634447_rgbf000070-resize_1-target.png,1000,2.195,0.5,8791,999,meters,jsons/v1_VE1000_randls_55_rotated.json,1506023,1935251,24,Man
59,676615,DepthScenes,duration_manipulation_targetAtFixation,jsons/v1_VE1000_randls_55_rotated.json,http://54.235.29.9/FacialAge/BNav_EC2/DepthDuration/v2_depth_duration_MTurk/v2_DepthDuration_HTML.html#71,71,1818,1024,1364,768,8-22-2022,5-4-19,60,depth_duration_stimuli/002414_2014-06-28_20-24-58_260595134347_rgbf000067-resize_4/002414_2014-06-28_20-24-58_260595134347_rgbf000067-resize_4-target.png,1000,4.363,0.6,9887,1000,meters,jsons/v1_VE1000_randls_55_rotated.json,1506023,1935251,24,Man
60,676615,DepthScenes,duration_manipulation_targetAtFixation,jsons/v1_VE1000_randls_55_rotated.json,http://54.235.29.9/FacialAge/BNav_EC2/DepthDuration/v2_depth_duration_MTurk/v2_DepthDuration_HTML.html#71,71,1818,1024,1364,768,8-22-2022,5-4-19,61,depth_duration_stimuli/000773_2014-06-08_22-24-54_260595134347_rgbf000093-resize_1/000773_2014-06-08_22-24-54_260595134347_rgbf000093-resize_1-target.png,1000,4.973,1.0,6170,999,meters,jsons/v1_VE1000_randls_55_rotated.json,1506023,1935251,24,Man
61,676615,DepthScenes,duration_manipulation_targetAtFixation,jsons/v1_VE1000_randls_55_rotated.json,http://54.235.29.9/FacialAge/BNav_EC2/DepthDuration/v2_depth_duration_MTurk/v2_DepthDuration_HTML.html#71,71,1818,1024,1364,768,8-22-2022,5-4-19,62,depth_duration_stimuli/001516_2014-06-20_16-25-09_260595134347_rgbf000076-resize_2/001516_2014-06-20_16-25-09_260595134347_rgbf000076-resize_2-target.png,1000,1.7445,1.0,9065,998,meters,jsons/v1_VE1000_randls_55_rotated.json,1506023,1935251,24,Man
62,676615,DepthScenes,duration_manipulation_targetAtFixation,jsons/v1_VE1000_randls_55_rotated.json,http://54.235.29.9/FacialAge/BNav_EC2/DepthDuration/v2_depth_duration_MTurk/v2_DepthDuration_HTML.html#71,71,1818,1024,1364,768,8-22-2022,5-4-19,63,depth_duration_stimuli/002118_2014-06-25_20-32-08_260595134347_rgbf000078-resize_1/002118_2014-06-25_20-32-08_260595134347_rgbf000078-resize_1-target.png,1000,2.6460000000000004,0.0,6554,1001,meters,jsons/v1_VE1000_randls_55_rotated.json,1506023,1935251,24,Man
63,676615,DepthScenes,duration_manipulation_targetAtFixation,jsons/v1_VE1000_randls_55_rotated.json,http://54.235.29.9/FacialAge/BNav_EC2/DepthDuration/v2_depth_duration_MTurk/v2_DepthDuration_HTML.html#71,71,1818,1024,1364,768,8-22-2022,5-4-19,64,depth_duration_stimuli/000483_2014-06-09_20-41-45_260595134347_rgbf000116-resize_4/000483_2014-06-09_20-41-45_260595134347_rgbf000116-resize_4-target.png,1000,1.337,1.0,28103,983,meters,jsons/v1_VE1000_randls_55_rotated.json,1506023,1935251,24,Man
64,676615,DepthScenes,duration_manipulation_targetAtFixation,jsons/v1_VE1000_randls_55_rotated.json,http://54.235.29.9/FacialAge/BNav_EC2/DepthDuration/v2_depth_duration_MTurk/v2_DepthDuration_HTML.html#71,71,1818,1024,1364,768,8-22-2022,5-4-19,65,depth_duration_stimuli/000469_2014-06-09_19-42-10_260595134347_rgbf000081-resize_1/000469_2014-06-09_19-42-10_260595134347_rgbf000081-resize_1-target.png,1000,1.652,1.0,6951,1001,meters,jsons/v1_VE1000_randls_55_rotated.json,1506023,1935251,24,Man
65,676615,DepthScenes,duration_manipulation_targetAtFixation,jsons/v1_VE1000_randls_55_rotated.json,http://54.235.29.9/FacialAge/BNav_EC2/DepthDuration/v2_depth_duration_MTurk/v2_DepthDuration_HTML.html#71,71,1818,1024,1364,768,8-22-2022,5-4-19,66,depth_duration_stimuli/001540_2014-06-20_17-01-05_260595134347_rgbf000086-resize_2/001540_2014-06-20_17-01-05_260595134347_rgbf000086-resize-original.jpg,1000,1.459,0.0,9771,999,meters,jsons/v1_VE1000_randls_55_rotated.json,1506023,1935251,24,Man
66,676615,DepthScenes,duration_manipulation_targetAtFixation,jsons/v1_VE1000_randls_55_rotated.json,http://54.235.29.9/FacialAge/BNav_EC2/DepthDuration/v2_depth_duration_MTurk/v2_DepthDuration_HTML.html#71,71,1818,1024,1364,768,8-22-2022,5-4-19,67,depth_duration_stimuli/002805_2014-06-22_19-54-03_094959634447_rgbf000079-resize_1/002805_2014-06-22_19-54-03_094959634447_rgbf000079-resize_1-target.png,1000,3.1439999999999997,2.0,6995,1000,meters,jsons/v1_VE1000_randls_55_rotated.json,1506023,1935251,24,Man
67,676615,DepthScenes,duration_manipulation_targetAtFixation,jsons/v1_VE1000_randls_55_rotated.json,http://54.235.29.9/FacialAge/BNav_EC2/DepthDuration/v2_depth_duration_MTurk/v2_DepthDuration_HTML.html#71,71,1818,1024,1364,768,8-22-2022,5-4-19,68,depth_duration_stimuli/000906_2014-06-08_13-35-43_260595134347_rgbf000155-resize_1/000906_2014-06-08_13-35-43_260595134347_rgbf000155-resize_1-target.png,1000,2.8489999999999998,2.0,7723,1000,meters,jsons/v1_VE1000_randls_55_rotated.json,1506023,1935251,24,Man
68,676615,DepthScenes,duration_manipulation_targetAtFixation,jsons/v1_VE1000_randls_55_rotated.json,http://54.235.29.9/FacialAge/BNav_EC2/DepthDuration/v2_depth_duration_MTurk/v2_DepthDuration_HTML.html#71,71,1818,1024,1364,768,8-22-2022,5-4-19,69,depth_duration_stimuli/000665_2014-06-09_20-42-35_260595134347_rgbf000110-resize_1/000665_2014-06-09_20-42-35_260595134347_rgbf000110-resize_1-target.png,1000,3.057,1.0,12857,998,meters,jsons/v1_VE1000_randls_55_rotated.json,1506023,1935251,24,Man
69,676615,DepthScenes,duration_manipulation_targetAtFixation,jsons/v1_VE1000_randls_55_rotated.json,http://54.235.29.9/FacialAge/BNav_EC2/DepthDuration/v2_depth_duration_MTurk/v2_DepthDuration_HTML.html#71,71,1818,1024,1364,768,8-22-2022,5-4-19,70,depth_duration_stimuli/001150_2014-06-17_15-27-34_260595134347_rgbf000108-resize_2/001150_2014-06-17_15-27-34_260595134347_rgbf000108-resize_2-target.png,1000,4.0325,2.0,5257,999,meters,jsons/v1_VE1000_randls_55_rotated.json,1506023,1935251,24,Man
70,676615,DepthScenes,duration_manipulation_targetAtFixation,jsons/v1_VE1000_randls_55_rotated.json,http://54.235.29.9/FacialAge/BNav_EC2/DepthDuration/v2_depth_duration_MTurk/v2_DepthDuration_HTML.html#71,71,1818,1024,1364,768,8-22-2022,5-4-19,71,depth_duration_stimuli/001450_2014-06-19_17-02-03_260595134347_rgbf000203-resize_4/001450_2014-06-19_17-02-03_260595134347_rgbf000203-resize_4-target.png,1000,4.0106666666667,1.0,17571,1000,meters,jsons/v1_VE1000_randls_55_rotated.json,1506023,1935251,24,Man
71,676615,DepthScenes,duration_manipulation_targetAtFixation,jsons/v1_VE1000_randls_55_rotated.json,http://54.235.29.9/FacialAge/BNav_EC2/DepthDuration/v2_depth_duration_MTurk/v2_DepthDuration_HTML.html#71,71,1818,1024,1364,768,8-22-2022,5-4-19,72,depth_duration_stimuli/001449_2014-06-19_17-01-27_260595134347_rgbf000116-resize_2/001449_2014-06-19_17-01-27_260595134347_rgbf000116-resize_2-target.png,1000,3.452,1.0,6123,1001,meters,jsons/v1_VE1000_randls_55_rotated.json,1506023,1935251,24,Man
72,676615,DepthScenes,duration_manipulation_targetAtFixation,jsons/v1_VE1000_randls_55_rotated.json,http://54.235.29.9/FacialAge/BNav_EC2/DepthDuration/v2_depth_duration_MTurk/v2_DepthDuration_HTML.html#71,71,1818,1024,1364,768,8-22-2022,5-4-19,73,depth_duration_stimuli/002545_2014-06-24_13-38-53_094959634447_rgbf000080-resize_4/002545_2014-06-24_13-38-53_094959634447_rgbf000080-resize_4-target.png,1000,1.9205,1.0,7332,1001,meters,jsons/v1_VE1000_randls_55_rotated.json,1506023,1935251,24,Man
73,676615,DepthScenes,duration_manipulation_targetAtFixation,jsons/v1_VE1000_randls_55_rotated.json,http://54.235.29.9/FacialAge/BNav_EC2/DepthDuration/v2_depth_duration_MTurk/v2_DepthDuration_HTML.html#71,71,1818,1024,1364,768,8-22-2022,5-4-19,74,depth_duration_stimuli/001092_2014-06-15_17-34-58_260595134347_rgbf000171-resize_3/001092_2014-06-15_17-34-58_260595134347_rgbf000171-resize_3-target.png,1000,2.6935,2.0,5409,1003,meters,jsons/v1_VE1000_randls_55_rotated.json,1506023,1935251,24,Man
74,676615,DepthScenes,duration_manipulation_targetAtFixation,jsons/v1_VE1000_randls_55_rotated.json,http://54.235.29.9/FacialAge/BNav_EC2/DepthDuration/v2_depth_duration_MTurk/v2_DepthDuration_HTML.html#71,71,1818,1024,1364,768,8-22-2022,5-4-19,75,depth_duration_stimuli/000734_2014-06-08_17-39-11_260595134347_rgbf000128-resize_2/000734_2014-06-08_17-39-11_260595134347_rgbf000128-resize_2-target.png,1000,4.098,1.0,6587,1000,meters,jsons/v1_VE1000_randls_55_rotated.json,1506023,1935251,24,Man
75,676615,DepthScenes,duration_manipulation_targetAtFixation,jsons/v1_VE1000_randls_55_rotated.json,http://54.235.29.9/FacialAge/BNav_EC2/DepthDuration/v2_depth_duration_MTurk/v2_DepthDuration_HTML.html#71,71,1818,1024,1364,768,8-22-2022,5-4-19,76,depth_duration_stimuli/000739_2014-06-08_18-45-58_260595134347_rgbf000068-resize_1/000739_2014-06-08_18-45-58_260595134347_rgbf000068-resize_1-target.png,1000,3.534,2.0,9571,1045,meters,jsons/v1_VE1000_randls_55_rotated.json,1506023,1935251,24,Man
76,676615,DepthScenes,duration_manipulation_targetAtFixation,jsons/v1_VE1000_randls_55_rotated.json,http://54.235.29.9/FacialAge/BNav_EC2/DepthDuration/v2_depth_duration_MTurk/v2_DepthDuration_HTML.html#71,71,1818,1024,1364,768,8-22-2022,5-4-19,77,depth_duration_stimuli/000927_2014-06-09_16-32-30_260595134347_rgbf000123-resize_3/000927_2014-06-09_16-32-30_260595134347_rgbf000123-resize_3-target.png,1000,2.6785,2.0,15082,1002,meters,jsons/v1_VE1000_randls_55_rotated.json,1506023,1935251,24,Man
77,676615,DepthScenes,duration_manipulation_targetAtFixation,jsons/v1_VE1000_randls_55_rotated.json,http://54.235.29.9/FacialAge/BNav_EC2/DepthDuration/v2_depth_duration_MTurk/v2_DepthDuration_HTML.html#71,71,1818,1024,1364,768,8-22-2022,5-4-19,78,depth_duration_stimuli/001110_2014-06-15_17-25-28_260595134347_rgbf000150-resize_1/001110_2014-06-15_17-25-28_260595134347_rgbf000150-resize_1-target.png,1000,1.7115,1.0,5565,1030,meters,jsons/v1_VE1000_randls_55_rotated.json,1506023,1935251,24,Man
78,676615,DepthScenes,duration_manipulation_targetAtFixation,jsons/v1_VE1000_randls_55_rotated.json,http://54.235.29.9/FacialAge/BNav_EC2/DepthDuration/v2_depth_duration_MTurk/v2_DepthDuration_HTML.html#71,71,1818,1024,1364,768,8-22-2022,5-4-19,79,depth_duration_stimuli/000137_2014-05-20_17-04-49_260595134347_rgbf000120-resize_1/000137_2014-05-20_17-04-49_260595134347_rgbf000120-resize_1-target.png,1000,3.786,2.0,10198,999,meters,jsons/v1_VE1000_randls_55_rotated.json,1506023,1935251,24,Man
79,676615,DepthScenes,duration_manipulation_targetAtFixation,jsons/v1_VE1000_randls_55_rotated.json,http://54.235.29.9/FacialAge/BNav_EC2/DepthDuration/v2_depth_duration_MTurk/v2_DepthDuration_HTML.html#71,71,1818,1024,1364,768,8-22-2022,5-4-19,80,depth_duration_stimuli/000736_2014-06-08_18-24-15_260595134347_rgbf000206-resize_3/000736_2014-06-08_18-24-15_260595134347_rgbf000206-resize_3-target.png,1000,3.515,1.0,8459,999,meters,jsons/v1_VE1000_randls_55_rotated.json,1506023,1935251,24,Man
80,676615,DepthScenes,duration_manipulation_targetAtFixation,jsons/v1_VE1000_randls_55_rotated.json,http://54.235.29.9/FacialAge/BNav_EC2/DepthDuration/v2_depth_duration_MTurk/v2_DepthDuration_HTML.html#71,71,1818,1024,1364,768,8-22-2022,5-4-19,81,depth_duration_stimuli/002750_2014-06-22_19-08-03_094959634447_rgbf000094-resize_4/002750_2014-06-22_19-08-03_094959634447_rgbf000094-resize_4-target.png,1000,2.354,2.0,9515,999,meters,jsons/v1_VE1000_randls_55_rotated.json,1506023,1935251,24,Man
81,676615,DepthScenes,duration_manipulation_targetAtFixation,jsons/v1_VE1000_randls_55_rotated.json,http://54.235.29.9/FacialAge/BNav_EC2/DepthDuration/v2_depth_duration_MTurk/v2_DepthDuration_HTML.html#71,71,1818,1024,1364,768,8-22-2022,5-4-19,82,depth_duration_stimuli/002549_2014-06-24_13-41-39_094959634447_rgbf000022-resize_3/002549_2014-06-24_13-41-39_094959634447_rgbf000022-resize_3-target.png,1000,1.476,2.0,3059,999,meters,jsons/v1_VE1000_randls_55_rotated.json,1506023,1935251,24,Man
82,676615,DepthScenes,duration_manipulation_targetAtFixation,jsons/v1_VE1000_randls_55_rotated.json,http://54.235.29.9/FacialAge/BNav_EC2/DepthDuration/v2_depth_duration_MTurk/v2_DepthDuration_HTML.html#71,71,1818,1024,1364,768,8-22-2022,5-4-19,83,depth_duration_stimuli/002136_2014-06-25_21-18-03_260595134347_rgbf000109-resize_3/002136_2014-06-25_21-18-03_260595134347_rgbf000109-resize_3-target.png,1000,1.9569999999999999,2.0,9374,1001,meters,jsons/v1_VE1000_randls_55_rotated.json,1506023,1935251,24,Man
83,676615,DepthScenes,duration_manipulation_targetAtFixation,jsons/v1_VE1000_randls_55_rotated.json,http://54.235.29.9/FacialAge/BNav_EC2/DepthDuration/v2_depth_duration_MTurk/v2_DepthDuration_HTML.html#71,71,1818,1024,1364,768,8-22-2022,5-4-19,84,depth_duration_stimuli/002964_2014-06-08_17-46-11_094959634447_rgbf000091-resize_4/002964_2014-06-08_17-46-11_094959634447_rgbf000091-resize_4-target.png,1000,1.6909999999999998,3.0,2782,999,meters,jsons/v1_VE1000_randls_55_rotated.json,1506023,1935251,24,Man
84,676615,DepthScenes,duration_manipulation_targetAtFixation,jsons/v1_VE1000_randls_55_rotated.json,http://54.235.29.9/FacialAge/BNav_EC2/DepthDuration/v2_depth_duration_MTurk/v2_DepthDuration_HTML.html#71,71,1818,1024,1364,768,8-22-2022,5-4-19,85,depth_duration_stimuli/002639_2014-06-24_14-51-37_094959634447_rgbf000074-resize_4/002639_2014-06-24_14-51-37_094959634447_rgbf000074-resize_4-target.png,1000,4.0375,1.0,5643,1067,meters,jsons/v1_VE1000_randls_55_rotated.json,1506023,1935251,24,Man
85,676615,DepthScenes,duration_manipulation_targetAtFixation,jsons/v1_VE1000_randls_55_rotated.json,http://54.235.29.9/FacialAge/BNav_EC2/DepthDuration/v2_depth_duration_MTurk/v2_DepthDuration_HTML.html#71,71,1818,1024,1364,768,8-22-2022,5-4-19,86,depth_duration_stimuli/003292_2014-05-14_21-53-49_094959634447_rgbf000100-resize_2/003292_2014-05-14_21-53-49_094959634447_rgbf000100-resize_2-target.png,1000,3.4815,1.0,2716,1000,meters,jsons/v1_VE1000_randls_55_rotated.json,1506023,1935251,24,Man
86,676615,DepthScenes,duration_manipulation_targetAtFixation,jsons/v1_VE1000_randls_55_rotated.json,http://54.235.29.9/FacialAge/BNav_EC2/DepthDuration/v2_depth_duration_MTurk/v2_DepthDuration_HTML.html#71,71,1818,1024,1364,768,8-22-2022,5-4-19,87,depth_duration_stimuli/001828_2014-06-26_21-40-03_260595134347_rgbf000024-resize_0/001828_2014-06-26_21-40-03_260595134347_rgbf000024-resize_0-target.png,1000,4.8260000000000005,3.0,6912,1000,meters,jsons/v1_VE1000_randls_55_rotated.json,1506023,1935251,24,Man
87,676615,DepthScenes,duration_manipulation_targetAtFixation,jsons/v1_VE1000_randls_55_rotated.json,http://54.235.29.9/FacialAge/BNav_EC2/DepthDuration/v2_depth_duration_MTurk/v2_DepthDuration_HTML.html#71,71,1818,1024,1364,768,8-22-2022,5-4-19,88,depth_duration_stimuli/000009_2014-05-26_14-32-05_260595134347_rgbf000034-resize_3/000009_2014-05-26_14-32-05_260595134347_rgbf000034-resize_3-target.png,1000,3.8715,2.0,2842,999,meters,jsons/v1_VE1000_randls_55_rotated.json,1506023,1935251,24,Man
88,676615,DepthScenes,duration_manipulation_targetAtFixation,jsons/v1_VE1000_randls_55_rotated.json,http://54.235.29.9/FacialAge/BNav_EC2/DepthDuration/v2_depth_duration_MTurk/v2_DepthDuration_HTML.html#71,71,1818,1024,1364,768,8-22-2022,5-4-19,89,depth_duration_stimuli/000749_2014-06-08_21-55-06_260595134347_rgbf000070-resize_2/000749_2014-06-08_21-55-06_260595134347_rgbf000070-resize_2-target.png,1000,2.331,3.0,5554,1000,meters,jsons/v1_VE1000_randls_55_rotated.json,1506023,1935251,24,Man
89,676615,DepthScenes,duration_manipulation_targetAtFixation,jsons/v1_VE1000_randls_55_rotated.json,http://54.235.29.9/FacialAge/BNav_EC2/DepthDuration/v2_depth_duration_MTurk/v2_DepthDuration_HTML.html#71,71,1818,1024,1364,768,8-22-2022,5-4-19,90,depth_duration_stimuli/002788_2014-06-22_19-36-03_094959634447_rgbf000088-resize_2/002788_2014-06-22_19-36-03_094959634447_rgbf000088-resize_2-target.png,1000,1.6465,3.0,3382,999,meters,jsons/v1_VE1000_randls_55_rotated.json,1506023,1935251,24,Man
90,676615,DepthScenes,duration_manipulation_targetAtFixation,jsons/v1_VE1000_randls_55_rotated.json,http://54.235.29.9/FacialAge/BNav_EC2/DepthDuration/v2_depth_duration_MTurk/v2_DepthDuration_HTML.html#71,71,1818,1024,1364,768,8-22-2022,5-4-19,91,depth_duration_stimuli/000191_2014-05-12_17-07-38_260595134347_rgbf000199-resize_0/000191_2014-05-12_17-07-38_260595134347_rgbf000199-resize_0-target.png,1000,3.7995,3.0,6714,1001,meters,jsons/v1_VE1000_randls_55_rotated.json,1506023,1935251,24,Man
91,676615,DepthScenes,duration_manipulation_targetAtFixation,jsons/v1_VE1000_randls_55_rotated.json,http://54.235.29.9/FacialAge/BNav_EC2/DepthDuration/v2_depth_duration_MTurk/v2_DepthDuration_HTML.html#71,71,1818,1024,1364,768,8-22-2022,5-4-19,92,depth_duration_stimuli/000493_2014-06-09_21-01-18_260595134347_rgbf000196-resize_3/000493_2014-06-09_21-01-18_260595134347_rgbf000196-resize_3-target.png,1000,3.44,2.0,7034,999,meters,jsons/v1_VE1000_randls_55_rotated.json,1506023,1935251,24,Man
92,676615,DepthScenes,duration_manipulation_targetAtFixation,jsons/v1_VE1000_randls_55_rotated.json,http://54.235.29.9/FacialAge/BNav_EC2/DepthDuration/v2_depth_duration_MTurk/v2_DepthDuration_HTML.html#71,71,1818,1024,1364,768,8-22-2022,5-4-19,93,depth_duration_stimuli/001571_2014-06-20_17-21-32_260595134347_rgbf000089-resize_1/001571_2014-06-20_17-21-32_260595134347_rgbf000089-resize_1-target.png,1000,1.86,3.0,13972,1000,meters,jsons/v1_VE1000_randls_55_rotated.json,1506023,1935251,24,Man
93,676615,DepthScenes,duration_manipulation_targetAtFixation,jsons/v1_VE1000_randls_55_rotated.json,http://54.235.29.9/FacialAge/BNav_EC2/DepthDuration/v2_depth_duration_MTurk/v2_DepthDuration_HTML.html#71,71,1818,1024,1364,768,8-22-2022,5-4-19,94,depth_duration_stimuli/002272_2014-06-28_18-53-56_260595134347_rgbf000067-resize_2/002272_2014-06-28_18-53-56_260595134347_rgbf000067-resize_2-target.png,1000,1.138,2.0,5081,998,meters,jsons/v1_VE1000_randls_55_rotated.json,1506023,1935251,24,Man
94,676615,DepthScenes,duration_manipulation_targetAtFixation,jsons/v1_VE1000_randls_55_rotated.json,http://54.235.29.9/FacialAge/BNav_EC2/DepthDuration/v2_depth_duration_MTurk/v2_DepthDuration_HTML.html#71,71,1818,1024,1364,768,8-22-2022,5-4-19,95,depth_duration_stimuli/003495_2014-05-21_16-01-51_094959634447_rgbf000100-resize_3/003495_2014-05-21_16-01-51_094959634447_rgbf000100-resize_3-target.png,1000,1.6255,2.0,38747,1018,meters,jsons/v1_VE1000_randls_55_rotated.json,1506023,1935251,24,Man
95,676615,DepthScenes,duration_manipulation_targetAtFixation,jsons/v1_VE1000_randls_55_rotated.json,http://54.235.29.9/FacialAge/BNav_EC2/DepthDuration/v2_depth_duration_MTurk/v2_DepthDuration_HTML.html#71,71,1818,1024,1364,768,8-22-2022,5-4-19,96,depth_duration_stimuli/001244_2014-06-17_16-47-45_260595134347_rgbf000030-resize_4/001244_2014-06-17_16-47-45_260595134347_rgbf000030-resize_4-target.png,1000,2.0425,3.0,4067,1001,meters,jsons/v1_VE1000_randls_55_rotated.json,1506023,1935251,24,Man
96,676615,DepthScenes,duration_manipulation_targetAtFixation,jsons/v1_VE1000_randls_55_rotated.json,http://54.235.29.9/FacialAge/BNav_EC2/DepthDuration/v2_depth_duration_MTurk/v2_DepthDuration_HTML.html#71,71,1818,1024,1364,768,8-22-2022,5-4-19,97,depth_duration_stimuli/000780_2014-06-08_22-28-29_260595134347_rgbf000126-resize_1/000780_2014-06-08_22-28-29_260595134347_rgbf000126-resize_1-target.png,1000,3.3825,1.0,13435,1001,meters,jsons/v1_VE1000_randls_55_rotated.json,1506023,1935251,24,Man
97,676615,DepthScenes,duration_manipulation_targetAtFixation,jsons/v1_VE1000_randls_55_rotated.json,http://54.235.29.9/FacialAge/BNav_EC2/DepthDuration/v2_depth_duration_MTurk/v2_DepthDuration_HTML.html#71,71,1818,1024,1364,768,8-22-2022,5-4-19,98,depth_duration_stimuli/002445_2014-06-28_20-32-16_260595134347_rgbf000029-resize_4/002445_2014-06-28_20-32-16_260595134347_rgbf000029-resize_4-target.png,1000,2.5315,2.0,4591,998,meters,jsons/v1_VE1000_randls_55_rotated.json,1506023,1935251,24,Man
98,676615,DepthScenes,duration_manipulation_targetAtFixation,jsons/v1_VE1000_randls_55_rotated.json,http://54.235.29.9/FacialAge/BNav_EC2/DepthDuration/v2_depth_duration_MTurk/v2_DepthDuration_HTML.html#71,71,1818,1024,1364,768,8-22-2022,5-4-19,99,depth_duration_stimuli/001222_2014-06-17_16-24-06_260595134347_rgbf000073-resize_0/001222_2014-06-17_16-24-06_260595134347_rgbf000073-resize-original.jpg,1000,1.4385,2.0,9838,994,meters,jsons/v1_VE1000_randls_55_rotated.json,1506023,1935251,24,Man
99,676615,DepthScenes,duration_manipulation_targetAtFixation,jsons/v1_VE1000_randls_55_rotated.json,http://54.235.29.9/FacialAge/BNav_EC2/DepthDuration/v2_depth_duration_MTurk/v2_DepthDuration_HTML.html#71,71,1818,1024,1364,768,8-22-2022,5-4-19,100,depth_duration_stimuli/003490_2014-05-21_15-50-11_094959634447_rgbf000101-resize_3/003490_2014-05-21_15-50-11_094959634447_rgbf000101-resize_3-target.png,1000,3.6445,1.0,8939,998,meters,jsons/v1_VE1000_randls_55_rotated.json,1506023,1935251,24,Man
100,676615,DepthScenes,duration_manipulation_targetAtFixation,jsons/v1_VE1000_randls_55_rotated.json,http://54.235.29.9/FacialAge/BNav_EC2/DepthDuration/v2_depth_duration_MTurk/v2_DepthDuration_HTML.html#71,71,1818,1024,1364,768,8-22-2022,5-4-19,101,depth_duration_stimuli/001175_2014-06-17_15-45-55_260595134347_rgbf000129-resize_4/001175_2014-06-17_15-45-55_260595134347_rgbf000129-resize_4-target.png,1000,4.255,2.0,2747,999,meters,jsons/v1_VE1000_randls_55_rotated.json,1506023,1935251,24,Man
101,676615,DepthScenes,duration_manipulation_targetAtFixation,jsons/v1_VE1000_randls_55_rotated.json,http://54.235.29.9/FacialAge/BNav_EC2/DepthDuration/v2_depth_duration_MTurk/v2_DepthDuration_HTML.html#71,71,1818,1024,1364,768,8-22-2022,5-4-19,102,depth_duration_stimuli/000103_2014-05-14_22-01-17_260595134347_rgbf000152-resize_5/000103_2014-05-14_22-01-17_260595134347_rgbf000152-resize_5-target.png,1000,1.993,2.0,6154,1000,meters,jsons/v1_VE1000_randls_55_rotated.json,1506023,1935251,24,Man
102,676615,DepthScenes,duration_manipulation_targetAtFixation,jsons/v1_VE1000_randls_55_rotated.json,http://54.235.29.9/FacialAge/BNav_EC2/DepthDuration/v2_depth_duration_MTurk/v2_DepthDuration_HTML.html#71,71,1818,1024,1364,768,8-22-2022,5-4-19,103,depth_duration_stimuli/001555_2014-06-20_17-12-10_260595134347_rgbf000065-resize_4/001555_2014-06-20_17-12-10_260595134347_rgbf000065-resize_4-target.png,1000,1.633,1.0,4034,999,meters,jsons/v1_VE1000_randls_55_rotated.json,1506023,1935251,24,Man
103,676615,DepthScenes,duration_manipulation_targetAtFixation,jsons/v1_VE1000_randls_55_rotated.json,http://54.235.29.9/FacialAge/BNav_EC2/DepthDuration/v2_depth_duration_MTurk/v2_DepthDuration_HTML.html#71,71,1818,1024,1364,768,8-22-2022,5-4-19,104,depth_duration_stimuli/003083_2014-06-15_15-21-03_094959634447_rgbf000063-resize_1/003083_2014-06-15_15-21-03_094959634447_rgbf000063-resize_1-target.png,1000,4.1405,3.0,6483,999,meters,jsons/v1_VE1000_randls_55_rotated.json,1506023,1935251,24,Man
104,676615,DepthScenes,duration_manipulation_targetAtFixation,jsons/v1_VE1000_randls_55_rotated.json,http://54.235.29.9/FacialAge/BNav_EC2/DepthDuration/v2_depth_duration_MTurk/v2_DepthDuration_HTML.html#71,71,1818,1024,1364,768,8-22-2022,5-4-19,105,depth_duration_stimuli/000486_2014-06-09_20-47-20_260595134347_rgbf000143-resize_2/000486_2014-06-09_20-47-20_260595134347_rgbf000143-resize_2-target.png,1000,4.8325,2.0,2992,1003,meters,jsons/v1_VE1000_randls_55_rotated.json,1506023,1935251,24,Man
105,676615,DepthScenes,duration_manipulation_targetAtFixation,jsons/v1_VE1000_randls_55_rotated.json,http://54.235.29.9/FacialAge/BNav_EC2/DepthDuration/v2_depth_duration_MTurk/v2_DepthDuration_HTML.html#71,71,1818,1024,1364,768,8-22-2022,5-4-19,106,depth_duration_stimuli/002568_2014-06-24_13-59-21_094959634447_rgbf000062-resize_4/002568_2014-06-24_13-59-21_094959634447_rgbf000062-resize_4-target.png,1000,3.015,1.0,5124,1001,meters,jsons/v1_VE1000_randls_55_rotated.json,1506023,1935251,24,Man
106,676615,DepthScenes,duration_manipulation_targetAtFixation,jsons/v1_VE1000_randls_55_rotated.json,http://54.235.29.9/FacialAge/BNav_EC2/DepthDuration/v2_depth_duration_MTurk/v2_DepthDuration_HTML.html#71,71,1818,1024,1364,768,8-22-2022,5-4-19,107,depth_duration_stimuli/003492_2014-05-21_15-50-55_094959634447_rgbf000828-resize_1/003492_2014-05-21_15-50-55_094959634447_rgbf000828-resize_1-target.png,1000,4.06875,3.0,3919,998,meters,jsons/v1_VE1000_randls_55_rotated.json,1506023,1935251,24,Man
107,676615,DepthScenes,duration_manipulation_targetAtFixation,jsons/v1_VE1000_randls_55_rotated.json,http://54.235.29.9/FacialAge/BNav_EC2/DepthDuration/v2_depth_duration_MTurk/v2_DepthDuration_HTML.html#71,71,1818,1024,1364,768,8-22-2022,5-4-19,108,depth_duration_stimuli/002995_2014-06-15_12-31-26_094959634447_rgbf000150-resize_1/002995_2014-06-15_12-31-26_094959634447_rgbf000150-resize_1-target.png,1000,3.8360000000000003,1.0,8731,999,meters,jsons/v1_VE1000_randls_55_rotated.json,1506023,1935251,24,Man
108,676615,DepthScenes,duration_manipulation_targetAtFixation,jsons/v1_VE1000_randls_55_rotated.json,http://54.235.29.9/FacialAge/BNav_EC2/DepthDuration/v2_depth_duration_MTurk/v2_DepthDuration_HTML.html#71,71,1818,1024,1364,768,8-22-2022,5-4-19,109,depth_duration_stimuli/002748_2014-06-22_19-07-22_094959634447_rgbf000078-resize_1/002748_2014-06-22_19-07-22_094959634447_rgbf000078-resize_1-target.png,1000,4.6705,2.0,6027,997,meters,jsons/v1_VE1000_randls_55_rotated.json,1506023,1935251,24,Man
109,676615,DepthScenes,duration_manipulation_targetAtFixation,jsons/v1_VE1000_randls_55_rotated.json,http://54.235.29.9/FacialAge/BNav_EC2/DepthDuration/v2_depth_duration_MTurk/v2_DepthDuration_HTML.html#71,71,1818,1024,1364,768,8-22-2022,5-4-19,110,depth_duration_stimuli/000549_2014-06-08_22-10-24_260595134347_rgbf000247-resize_3/000549_2014-06-08_22-10-24_260595134347_rgbf000247-resize_3-target.png,1000,1.841,3.0,14213,1000,meters,jsons/v1_VE1000_randls_55_rotated.json,1506023,1935251,24,Man
110,676615,DepthScenes,duration_manipulation_targetAtFixation,jsons/v1_VE1000_randls_55_rotated.json,http://54.235.29.9/FacialAge/BNav_EC2/DepthDuration/v2_depth_duration_MTurk/v2_DepthDuration_HTML.html#71,71,1818,1024,1364,768,8-22-2022,5-4-19,111,depth_duration_stimuli/001055_2014-06-08_18-45-35_260595134347_rgbf000111-resize_4/001055_2014-06-08_18-45-35_260595134347_rgbf000111-resize_4-target.png,1000,2.4290000000000003,2.0,3804,999,meters,jsons/v1_VE1000_randls_55_rotated.json,1506023,1935251,24,Man
111,676615,DepthScenes,duration_manipulation_targetAtFixation,jsons/v1_VE1000_randls_55_rotated.json,http://54.235.29.9/FacialAge/BNav_EC2/DepthDuration/v2_depth_duration_MTurk/v2_DepthDuration_HTML.html#71,71,1818,1024,1364,768,8-22-2022,5-4-19,112,depth_duration_stimuli/003081_2014-06-15_15-19-16_094959634447_rgbf000150-resize_1/003081_2014-06-15_15-19-16_094959634447_rgbf000150-resize_1-target.png,1000,3.9125,1.0,9665,997,meters,jsons/v1_VE1000_randls_55_rotated.json,1506023,1935251,24,Man
112,676615,DepthScenes,duration_manipulation_targetAtFixation,jsons/v1_VE1000_randls_55_rotated.json,http://54.235.29.9/FacialAge/BNav_EC2/DepthDuration/v2_depth_duration_MTurk/v2_DepthDuration_HTML.html#71,71,1818,1024,1364,768,8-22-2022,5-4-19,113,depth_duration_stimuli/001417_2014-06-19_16-25-36_260595134347_rgbf000115-resize_5/001417_2014-06-19_16-25-36_260595134347_rgbf000115-resize_5-target.png,1000,4.6255,3.0,6974,994,meters,jsons/v1_VE1000_randls_55_rotated.json,1506023,1935251,24,Man
113,676615,DepthScenes,duration_manipulation_targetAtFixation,jsons/v1_VE1000_randls_55_rotated.json,http://54.235.29.9/FacialAge/BNav_EC2/DepthDuration/v2_depth_duration_MTurk/v2_DepthDuration_HTML.html#71,71,1818,1024,1364,768,8-22-2022,5-4-19,114,depth_duration_stimuli/000742_2014-06-08_18-48-09_260595134347_rgbf000164-resize_4/000742_2014-06-08_18-48-09_260595134347_rgbf000164-resize_4-target.png,1000,4.632,2.0,10258,1002,meters,jsons/v1_VE1000_randls_55_rotated.json,1506023,1935251,24,Man
114,676615,DepthScenes,duration_manipulation_targetAtFixation,jsons/v1_VE1000_randls_55_rotated.json,http://54.235.29.9/FacialAge/BNav_EC2/DepthDuration/v2_depth_duration_MTurk/v2_DepthDuration_HTML.html#71,71,1818,1024,1364,768,8-22-2022,5-4-19,115,depth_duration_stimuli/001066_2014-06-08_22-03-20_260595134347_rgbf000066-resize_4/001066_2014-06-08_22-03-20_260595134347_rgbf000066-resize_4-target.png,1000,4.2330000000000005,1.0,3674,1000,meters,jsons/v1_VE1000_randls_55_rotated.json,1506023,1935251,24,Man
115,676615,DepthScenes,duration_manipulation_targetAtFixation,jsons/v1_VE1000_randls_55_rotated.json,http://54.235.29.9/FacialAge/BNav_EC2/DepthDuration/v2_depth_duration_MTurk/v2_DepthDuration_HTML.html#71,71,1818,1024,1364,768,8-22-2022,5-4-19,116,depth_duration_stimuli/001132_2014-06-17_14-48-54_260595134347_rgbf000100-resize_2/001132_2014-06-17_14-48-54_260595134347_rgbf000100-resize_2-target.png,1000,3.753,1.0,5556,1000,meters,jsons/v1_VE1000_randls_55_rotated.json,1506023,1935251,24,Man
116,676615,DepthScenes,duration_manipulation_targetAtFixation,jsons/v1_VE1000_randls_55_rotated.json,http://54.235.29.9/FacialAge/BNav_EC2/DepthDuration/v2_depth_duration_MTurk/v2_DepthDuration_HTML.html#71,71,1818,1024,1364,768,8-22-2022,5-4-19,117,depth_duration_stimuli/001133_2014-06-17_14-49-16_260595134347_rgbf000100-resize_0/001133_2014-06-17_14-49-16_260595134347_rgbf000100-resize_0-target.png,1000,4.2115,2.0,9836,999,meters,jsons/v1_VE1000_randls_55_rotated.json,1506023,1935251,24,Man
117,676615,DepthScenes,duration_manipulation_targetAtFixation,jsons/v1_VE1000_randls_55_rotated.json,http://54.235.29.9/FacialAge/BNav_EC2/DepthDuration/v2_depth_duration_MTurk/v2_DepthDuration_HTML.html#71,71,1818,1024,1364,768,8-22-2022,5-4-19,118,depth_duration_stimuli/000409_2014-06-04_19-23-33_260595134347_rgbf000067-resize_0/000409_2014-06-04_19-23-33_260595134347_rgbf000067-resize_0-target.png,1000,3.7335,2.0,12008,1004,meters,jsons/v1_VE1000_randls_55_rotated.json,1506023,1935251,24,Man
118,676615,DepthScenes,duration_manipulation_targetAtFixation,jsons/v1_VE1000_randls_55_rotated.json,http://54.235.29.9/FacialAge/BNav_EC2/DepthDuration/v2_depth_duration_MTurk/v2_DepthDuration_HTML.html#71,71,1818,1024,1364,768,8-22-2022,5-4-19,119,depth_duration_stimuli/002663_2014-06-13_15-50-26_094959634447_rgbf000075-resize_1/002663_2014-06-13_15-50-26_094959634447_rgbf000075-resize_1-target.png,1000,4.7495,2.0,4507,1000,meters,jsons/v1_VE1000_randls_55_rotated.json,1506023,1935251,24,Man
119,676615,DepthScenes,duration_manipulation_targetAtFixation,jsons/v1_VE1000_randls_55_rotated.json,http://54.235.29.9/FacialAge/BNav_EC2/DepthDuration/v2_depth_duration_MTurk/v2_DepthDuration_HTML.html#71,71,1818,1024,1364,768,8-22-2022,5-4-19,120,depth_duration_stimuli/000787_2014-06-08_22-33-53_260595134347_rgbf000175-resize_1/000787_2014-06-08_22-33-53_260595134347_rgbf000175-resize-original.jpg,1000,4.784,3.0,7505,999,meters,jsons/v1_VE1000_randls_55_rotated.json,1506023,1935251,24,Man
120,676615,DepthScenes,duration_manipulation_targetAtFixation,jsons/v1_VE1000_randls_55_rotated.json,http://54.235.29.9/FacialAge/BNav_EC2/DepthDuration/v2_depth_duration_MTurk/v2_DepthDuration_HTML.html#71,71,1818,1024,1364,768,8-22-2022,5-4-19,121,depth_duration_stimuli/003129_2014-05-12_10-48-10_094959634447_rgbf000100-resize_0/003129_2014-05-12_10-48-10_094959634447_rgbf000100-resize_0-target.png,1000,4.9305,1.0,14100,1000,meters,jsons/v1_VE1000_randls_55_rotated.json,1506023,1935251,24,Man
121,676615,DepthScenes,duration_manipulation_targetAtFixation,jsons/v1_VE1000_randls_55_rotated.json,http://54.235.29.9/FacialAge/BNav_EC2/DepthDuration/v2_depth_duration_MTurk/v2_DepthDuration_HTML.html#71,71,1818,1024,1364,768,8-22-2022,5-4-19,122,depth_duration_stimuli/000414_2014-06-04_19-49-13_260595134347_rgbf000044-resize_0/000414_2014-06-04_19-49-13_260595134347_rgbf000044-resize_0-target.png,1000,4.329,2.0,7603,1023,meters,jsons/v1_VE1000_randls_55_rotated.json,1506023,1935251,24,Man
122,676615,DepthScenes,duration_manipulation_targetAtFixation,jsons/v1_VE1000_randls_55_rotated.json,http://54.235.29.9/FacialAge/BNav_EC2/DepthDuration/v2_depth_duration_MTurk/v2_DepthDuration_HTML.html#71,71,1818,1024,1364,768,8-22-2022,5-4-19,123,depth_duration_stimuli/003048_2014-06-15_13-49-43_094959634447_rgbf000150-resize_1/003048_2014-06-15_13-49-43_094959634447_rgbf000150-resize_1-target.png,1000,4.0035,2.0,14994,999,meters,jsons/v1_VE1000_randls_55_rotated.json,1506023,1935251,24,Man
123,676615,DepthScenes,duration_manipulation_targetAtFixation,jsons/v1_VE1000_randls_55_rotated.json,http://54.235.29.9/FacialAge/BNav_EC2/DepthDuration/v2_depth_duration_MTurk/v2_DepthDuration_HTML.html#71,71,1818,1024,1364,768,8-22-2022,5-4-19,124,depth_duration_stimuli/002043_2014-06-24_20-29-38_260595134347_rgbf000039-resize_4/002043_2014-06-24_20-29-38_260595134347_rgbf000039-resize_4-target.png,1000,2.8435,2.0,5518,999,meters,jsons/v1_VE1000_randls_55_rotated.json,1506023,1935251,24,Man
124,676615,DepthScenes,duration_manipulation_targetAtFixation,jsons/v1_VE1000_randls_55_rotated.json,http://54.235.29.9/FacialAge/BNav_EC2/DepthDuration/v2_depth_duration_MTurk/v2_DepthDuration_HTML.html#71,71,1818,1024,1364,768,8-22-2022,5-4-19,125,depth_duration_stimuli/002340_2014-06-28_20-05-46_260595134347_rgbf000113-resize_0/002340_2014-06-28_20-05-46_260595134347_rgbf000113-resize_0-target.png,1000,2.4735,3.0,11990,998,meters,jsons/v1_VE1000_randls_55_rotated.json,1506023,1935251,24,Man
125,676615,DepthScenes,duration_manipulation_targetAtFixation,jsons/v1_VE1000_randls_55_rotated.json,http://54.235.29.9/FacialAge/BNav_EC2/DepthDuration/v2_depth_duration_MTurk/v2_DepthDuration_HTML.html#71,71,1818,1024,1364,768,8-22-2022,5-4-19,126,depth_duration_stimuli/001016_2014-06-09_16-16-10_260595134347_rgbf000112-resize_5/001016_2014-06-09_16-16-10_260595134347_rgbf000112-resize_5-target.png,1000,1.6565,2.0,7842,1000,meters,jsons/v1_VE1000_randls_55_rotated.json,1506023,1935251,24,Man
126,676615,DepthScenes,duration_manipulation_targetAtFixation,jsons/v1_VE1000_randls_55_rotated.json,http://54.235.29.9/FacialAge/BNav_EC2/DepthDuration/v2_depth_duration_MTurk/v2_DepthDuration_HTML.html#71,71,1818,1024,1364,768,8-22-2022,5-4-19,127,depth_duration_stimuli/001392_2014-06-19_16-07-59_260595134347_rgbf000046-resize_1/001392_2014-06-19_16-07-59_260595134347_rgbf000046-resize_1-target.png,1000,4.135,2.0,13467,999,meters,jsons/v1_VE1000_randls_55_rotated.json,1506023,1935251,24,Man
127,676615,DepthScenes,duration_manipulation_targetAtFixation,jsons/v1_VE1000_randls_55_rotated.json,http://54.235.29.9/FacialAge/BNav_EC2/DepthDuration/v2_depth_duration_MTurk/v2_DepthDuration_HTML.html#71,71,1818,1024,1364,768,8-22-2022,5-4-19,128,depth_duration_stimuli/001570_2014-06-20_17-21-09_260595134347_rgbf000135-resize_4/001570_2014-06-20_17-21-09_260595134347_rgbf000135-resize_4-target.png,1000,4.467,2.0,5354,1069,meters,jsons/v1_VE1000_randls_55_rotated.json,1506023,1935251,24,Man
128,676615,DepthScenes,duration_manipulation_targetAtFixation,jsons/v1_VE1000_randls_55_rotated.json,http://54.235.29.9/FacialAge/BNav_EC2/DepthDuration/v2_depth_duration_MTurk/v2_DepthDuration_HTML.html#71,71,1818,1024,1364,768,8-22-2022,5-4-19,129,depth_duration_stimuli/001815_2014-06-26_20-52-55_260595134347_rgbf000020-resize_0/001815_2014-06-26_20-52-55_260595134347_rgbf000020-resize_0-target.png,1000,3.3865,2.0,6317,1000,meters,jsons/v1_VE1000_randls_55_rotated.json,1506023,1935251,24,Man
129,676615,DepthScenes,duration_manipulation_targetAtFixation,jsons/v1_VE1000_randls_55_rotated.json,http://54.235.29.9/FacialAge/BNav_EC2/DepthDuration/v2_depth_duration_MTurk/v2_DepthDuration_HTML.html#71,71,1818,1024,1364,768,8-22-2022,5-4-19,130,depth_duration_stimuli/001808_2014-06-26_20-50-58_260595134347_rgbf000029-resize_1/001808_2014-06-26_20-50-58_260595134347_rgbf000029-resize_1-target.png,1000,4.249,1.0,4368,1001,meters,jsons/v1_VE1000_randls_55_rotated.json,1506023,1935251,24,Man
130,676615,DepthScenes,duration_manipulation_targetAtFixation,jsons/v1_VE1000_randls_55_rotated.json,http://54.235.29.9/FacialAge/BNav_EC2/DepthDuration/v2_depth_duration_MTurk/v2_DepthDuration_HTML.html#71,71,1818,1024,1364,768,8-22-2022,5-4-19,131,depth_duration_stimuli/001136_2014-06-17_15-19-41_260595134347_rgbf000076-resize_3/001136_2014-06-17_15-19-41_260595134347_rgbf000076-resize_3-target.png,1000,1.8655,2.0,9139,1004,meters,jsons/v1_VE1000_randls_55_rotated.json,1506023,1935251,24,Man
131,676615,DepthScenes,duration_manipulation_targetAtFixation,jsons/v1_VE1000_randls_55_rotated.json,http://54.235.29.9/FacialAge/BNav_EC2/DepthDuration/v2_depth_duration_MTurk/v2_DepthDuration_HTML.html#71,71,1818,1024,1364,768,8-22-2022,5-4-19,132,depth_duration_stimuli/001164_2014-06-17_15-35-46_260595134347_rgbf000085-resize_3/001164_2014-06-17_15-35-46_260595134347_rgbf000085-resize_3-target.png,1000,2.354,1.0,6651,999,meters,jsons/v1_VE1000_randls_55_rotated.json,1506023,1935251,24,Man
132,676615,DepthScenes,duration_manipulation_targetAtFixation,jsons/v1_VE1000_randls_55_rotated.json,http://54.235.29.9/FacialAge/BNav_EC2/DepthDuration/v2_depth_duration_MTurk/v2_DepthDuration_HTML.html#71,71,1818,1024,1364,768,8-22-2022,5-4-19,133,depth_duration_stimuli/001650_2014-06-20_12-09-00_260595134347_rgbf000087-resize_3/001650_2014-06-20_12-09-00_260595134347_rgbf000087-resize_3-target.png,1000,1.9505,2.0,12330,1001,meters,jsons/v1_VE1000_randls_55_rotated.json,1506023,1935251,24,Man
133,676615,DepthScenes,duration_manipulation_targetAtFixation,jsons/v1_VE1000_randls_55_rotated.json,http://54.235.29.9/FacialAge/BNav_EC2/DepthDuration/v2_depth_duration_MTurk/v2_DepthDuration_HTML.html#71,71,1818,1024,1364,768,8-22-2022,5-4-19,134,depth_duration_stimuli/000682_2014-06-08_23-14-58_260595134347_rgbf000041-resize_5/000682_2014-06-08_23-14-58_260595134347_rgbf000041-resize_5-target.png,1000,2.7239999999999998,1.0,14256,986,meters,jsons/v1_VE1000_randls_55_rotated.json,1506023,1935251,24,Man
134,676615,DepthScenes,duration_manipulation_targetAtFixation,jsons/v1_VE1000_randls_55_rotated.json,http://54.235.29.9/FacialAge/BNav_EC2/DepthDuration/v2_depth_duration_MTurk/v2_DepthDuration_HTML.html#71,71,1818,1024,1364,768,8-22-2022,5-4-19,135,depth_duration_stimuli/000375_2014-06-08_11-17-29_260595134347_rgbf000133-resize_2/000375_2014-06-08_11-17-29_260595134347_rgbf000133-resize-original.jpg,1000,4.718,1.0,70367,999,meters,jsons/v1_VE1000_randls_55_rotated.json,1506023,1935251,24,Man
135,676615,DepthScenes,duration_manipulation_targetAtFixation,jsons/v1_VE1000_randls_55_rotated.json,http://54.235.29.9/FacialAge/BNav_EC2/DepthDuration/v2_depth_duration_MTurk/v2_DepthDuration_HTML.html#71,71,1818,1024,1364,768,8-22-2022,5-4-19,136,depth_duration_stimuli/000709_2014-06-08_13-51-55_260595134347_rgbf000068-resize_3/000709_2014-06-08_13-51-55_260595134347_rgbf000068-resize_3-target.png,1000,1.8030000000000002,2.0,11874,999,meters,jsons/v1_VE1000_randls_55_rotated.json,1506023,1935251,24,Man
136,676615,DepthScenes,duration_manipulation_targetAtFixation,jsons/v1_VE1000_randls_55_rotated.json,http://54.235.29.9/FacialAge/BNav_EC2/DepthDuration/v2_depth_duration_MTurk/v2_DepthDuration_HTML.html#71,71,1818,1024,1364,768,8-22-2022,5-4-19,137,depth_duration_stimuli/002057_2014-06-24_21-00-13_260595134347_rgbf000120-resize_1/002057_2014-06-24_21-00-13_260595134347_rgbf000120-resize_1-target.png,1000,2.967,2.0,8676,999,meters,jsons/v1_VE1000_randls_55_rotated.json,1506023,1935251,24,Man
137,676615,DepthScenes,duration_manipulation_targetAtFixation,jsons/v1_VE1000_randls_55_rotated.json,http://54.235.29.9/FacialAge/BNav_EC2/DepthDuration/v2_depth_duration_MTurk/v2_DepthDuration_HTML.html#71,71,1818,1024,1364,768,8-22-2022,5-4-19,138,depth_duration_stimuli/003338_2014-05-20_11-01-23_094959634447_rgbf000051-resize_6/003338_2014-05-20_11-01-23_094959634447_rgbf000051-resize_6-target.png,1000,1.693,1.0,12240,998,meters,jsons/v1_VE1000_randls_55_rotated.json,1506023,1935251,24,Man
138,676615,DepthScenes,duration_manipulation_targetAtFixation,jsons/v1_VE1000_randls_55_rotated.json,http://54.235.29.9/FacialAge/BNav_EC2/DepthDuration/v2_depth_duration_MTurk/v2_DepthDuration_HTML.html#71,71,1818,1024,1364,768,8-22-2022,5-4-19,139,depth_duration_stimuli/002509_2014-06-24_13-19-22_094959634447_rgbf000077-resize_0/002509_2014-06-24_13-19-22_094959634447_rgbf000077-resize_0-target.png,1000,1.3065,1.0,4473,1000,meters,jsons/v1_VE1000_randls_55_rotated.json,1506023,1935251,24,Man
139,676615,DepthScenes,duration_manipulation_targetAtFixation,jsons/v1_VE1000_randls_55_rotated.json,http://54.235.29.9/FacialAge/BNav_EC2/DepthDuration/v2_depth_duration_MTurk/v2_DepthDuration_HTML.html#71,71,1818,1024,1364,768,8-22-2022,5-4-19,140,depth_duration_stimuli/002323_2014-06-28_20-01-54_260595134347_rgbf000051-resize_4/002323_2014-06-28_20-01-54_260595134347_rgbf000051-resize_4-target.png,1000,3.7310000000000003,3.0,6762,1001,meters,jsons/v1_VE1000_randls_55_rotated.json,1506023,1935251,24,Man
140,676615,DepthScenes,duration_manipulation_targetAtFixation,jsons/v1_VE1000_randls_55_rotated.json,http://54.235.29.9/FacialAge/BNav_EC2/DepthDuration/v2_depth_duration_MTurk/v2_DepthDuration_HTML.html#71,71,1818,1024,1364,768,8-22-2022,5-4-19,141,depth_duration_stimuli/000917_2014-06-09_22-45-29_260595134347_rgbf000149-resize_3/000917_2014-06-09_22-45-29_260595134347_rgbf000149-resize_3-target.png,1000,4.1865,2.0,4443,1001,meters,jsons/v1_VE1000_randls_55_rotated.json,1506023,1935251,24,Man
141,676615,DepthScenes,duration_manipulation_targetAtFixation,jsons/v1_VE1000_randls_55_rotated.json,http://54.235.29.9/FacialAge/BNav_EC2/DepthDuration/v2_depth_duration_MTurk/v2_DepthDuration_HTML.html#71,71,1818,1024,1364,768,8-22-2022,5-4-19,142,depth_duration_stimuli/001094_2014-06-15_17-36-00_260595134347_rgbf000205-resize_0/001094_2014-06-15_17-36-00_260595134347_rgbf000205-resize_0-target.png,1000,4.2175,1.0,6872,1006,meters,jsons/v1_VE1000_randls_55_rotated.json,1506023,1935251,24,Man
142,676615,DepthScenes,duration_manipulation_targetAtFixation,jsons/v1_VE1000_randls_55_rotated.json,http://54.235.29.9/FacialAge/BNav_EC2/DepthDuration/v2_depth_duration_MTurk/v2_DepthDuration_HTML.html#71,71,1818,1024,1364,768,8-22-2022,5-4-19,143,depth_duration_stimuli/000692_2014-06-08_13-09-42_260595134347_rgbf000199-resize_2/000692_2014-06-08_13-09-42_260595134347_rgbf000199-resize_2-target.png,1000,3.661,1.0,5196,999,meters,jsons/v1_VE1000_randls_55_rotated.json,1506023,1935251,24,Man
143,676615,DepthScenes,duration_manipulation_targetAtFixation,jsons/v1_VE1000_randls_55_rotated.json,http://54.235.29.9/FacialAge/BNav_EC2/DepthDuration/v2_depth_duration_MTurk/v2_DepthDuration_HTML.html#71,71,1818,1024,1364,768,8-22-2022,5-4-19,144,depth_duration_stimuli/000502_2014-06-08_23-02-32_260595134347_rgbf000063-resize_4/000502_2014-06-08_23-02-32_260595134347_rgbf000063-resize_4-target.png,1000,2.431,2.0,7625,998,meters,jsons/v1_VE1000_randls_55_rotated.json,1506023,1935251,24,Man
144,676615,DepthScenes,duration_manipulation_targetAtFixation,jsons/v1_VE1000_randls_55_rotated.json,http://54.235.29.9/FacialAge/BNav_EC2/DepthDuration/v2_depth_duration_MTurk/v2_DepthDuration_HTML.html#71,71,1818,1024,1364,768,8-22-2022,5-4-19,145,depth_duration_stimuli/001199_2014-06-17_16-03-48_260595134347_rgbf000077-resize_0/001199_2014-06-17_16-03-48_260595134347_rgbf000077-resize_0-target.png,1000,3.4375,3.0,3546,999,meters,jsons/v1_VE1000_randls_55_rotated.json,1506023,1935251,24,Man
145,676615,DepthScenes,duration_manipulation_targetAtFixation,jsons/v1_VE1000_randls_55_rotated.json,http://54.235.29.9/FacialAge/BNav_EC2/DepthDuration/v2_depth_duration_MTurk/v2_DepthDuration_HTML.html#71,71,1818,1024,1364,768,8-22-2022,5-4-19,146,depth_duration_stimuli/000854_2014-06-09_19-43-13_260595134347_rgbf000066-resize_0/000854_2014-06-09_19-43-13_260595134347_rgbf000066-resize_0-target.png,1000,3.068,2.0,6117,1000,meters,jsons/v1_VE1000_randls_55_rotated.json,1506023,1935251,24,Man
146,676615,DepthScenes,duration_manipulation_targetAtFixation,jsons/v1_VE1000_randls_55_rotated.json,http://54.235.29.9/FacialAge/BNav_EC2/DepthDuration/v2_depth_duration_MTurk/v2_DepthDuration_HTML.html#71,71,1818,1024,1364,768,8-22-2022,5-4-19,147,depth_duration_stimuli/000758_2014-06-08_22-05-08_260595134347_rgbf000085-resize_0/000758_2014-06-08_22-05-08_260595134347_rgbf000085-resize_0-target.png,1000,3.3810000000000002,1.0,9106,999,meters,jsons/v1_VE1000_randls_55_rotated.json,1506023,1935251,24,Man
147,676615,DepthScenes,duration_manipulation_targetAtFixation,jsons/v1_VE1000_randls_55_rotated.json,http://54.235.29.9/FacialAge/BNav_EC2/DepthDuration/v2_depth_duration_MTurk/v2_DepthDuration_HTML.html#71,71,1818,1024,1364,768,8-22-2022,5-4-19,148,depth_duration_stimuli/003228_2014-05-14_13-42-35_094959634447_rgbf000101-resize_1/003228_2014-05-14_13-42-35_094959634447_rgbf000101-resize_1-target.png,1000,1.9680000000000002,1.0,10011,999,meters,jsons/v1_VE1000_randls_55_rotated.json,1506023,1935251,24,Man
148,676615,DepthScenes,duration_manipulation_targetAtFixation,jsons/v1_VE1000_randls_55_rotated.json,http://54.235.29.9/FacialAge/BNav_EC2/DepthDuration/v2_depth_duration_MTurk/v2_DepthDuration_HTML.html#71,71,1818,1024,1364,768,8-22-2022,5-4-19,149,depth_duration_stimuli/002600_2014-06-24_14-27-04_094959634447_rgbf000074-resize_2/002600_2014-06-24_14-27-04_094959634447_rgbf000074-resize_2-target.png,1000,2.7575,3.0,4905,1000,meters,jsons/v1_VE1000_randls_55_rotated.json,1506023,1935251,24,Man
149,676615,DepthScenes,duration_manipulation_targetAtFixation,jsons/v1_VE1000_randls_55_rotated.json,http://54.235.29.9/FacialAge/BNav_EC2/DepthDuration/v2_depth_duration_MTurk/v2_DepthDuration_HTML.html#71,71,1818,1024,1364,768,8-22-2022,5-4-19,150,depth_duration_stimuli/002444_2014-06-28_20-32-08_260595134347_rgbf000027-resize_0/002444_2014-06-28_20-32-08_260595134347_rgbf000027-resize_0-target.png,1000,4.388999999999999,1.0,8095,1000,meters,jsons/v1_VE1000_randls_55_rotated.json,1506023,1935251,24,Man
150,676615,DepthScenes,duration_manipulation_targetAtFixation,jsons/v1_VE1000_randls_55_rotated.json,http://54.235.29.9/FacialAge/BNav_EC2/DepthDuration/v2_depth_duration_MTurk/v2_DepthDuration_HTML.html#71,71,1818,1024,1364,768,8-22-2022,5-4-19,151,depth_duration_stimuli/000436_2014-06-09_22-25-11_260595134347_rgbf000137-resize_1/000436_2014-06-09_22-25-11_260595134347_rgbf000137-resize_1-target.png,1000,4.0705,2.0,3574,958,meters,jsons/v1_VE1000_randls_55_rotated.json,1506023,1935251,24,Man
151,676615,DepthScenes,duration_manipulation_targetAtFixation,jsons/v1_VE1000_randls_55_rotated.json,http://54.235.29.9/FacialAge/BNav_EC2/DepthDuration/v2_depth_duration_MTurk/v2_DepthDuration_HTML.html#71,71,1818,1024,1364,768,8-22-2022,5-4-19,152,depth_duration_stimuli/000569_2014-06-09_22-51-47_260595134347_rgbf000141-resize_3/000569_2014-06-09_22-51-47_260595134347_rgbf000141-resize-original.jpg,1000,4.512,2.0,5977,1000,meters,jsons/v1_VE1000_randls_55_rotated.json,1506023,1935251,24,Man
152,676615,DepthScenes,duration_manipulation_targetAtFixation,jsons/v1_VE1000_randls_55_rotated.json,http://54.235.29.9/FacialAge/BNav_EC2/DepthDuration/v2_depth_duration_MTurk/v2_DepthDuration_HTML.html#71,71,1818,1024,1364,768,8-22-2022,5-4-19,153,depth_duration_stimuli/002637_2014-06-24_14-51-13_094959634447_rgbf000066-resize_4/002637_2014-06-24_14-51-13_094959634447_rgbf000066-resize_4-target.png,1000,1.9955,2.0,13704,999,meters,jsons/v1_VE1000_randls_55_rotated.json,1506023,1935251,24,Man
153,676615,DepthScenes,duration_manipulation_targetAtFixation,jsons/v1_VE1000_randls_55_rotated.json,http://54.235.29.9/FacialAge/BNav_EC2/DepthDuration/v2_depth_duration_MTurk/v2_DepthDuration_HTML.html#71,71,1818,1024,1364,768,8-22-2022,5-4-19,154,depth_duration_stimuli/003534_2014-05-22_15-06-10_094959634447_rgbf000102-resize_4/003534_2014-05-22_15-06-10_094959634447_rgbf000102-resize_4-target.png,1000,1.426,3.0,3578,999,meters,jsons/v1_VE1000_randls_55_rotated.json,1506023,1935251,24,Man
154,676615,DepthScenes,duration_manipulation_targetAtFixation,jsons/v1_VE1000_randls_55_rotated.json,http://54.235.29.9/FacialAge/BNav_EC2/DepthDuration/v2_depth_duration_MTurk/v2_DepthDuration_HTML.html#71,71,1818,1024,1364,768,8-22-2022,5-4-19,155,depth_duration_stimuli/001214_2014-06-17_16-13-55_260595134347_rgbf000111-resize_0/001214_2014-06-17_16-13-55_260595134347_rgbf000111-resize_0-target.png,1000,2.6505,1.0,6611,1000,meters,jsons/v1_VE1000_randls_55_rotated.json,1506023,1935251,24,Man
155,676615,DepthScenes,duration_manipulation_targetAtFixation,jsons/v1_VE1000_randls_55_rotated.json,http://54.235.29.9/FacialAge/BNav_EC2/DepthDuration/v2_depth_duration_MTurk/v2_DepthDuration_HTML.html#71,71,1818,1024,1364,768,8-22-2022,5-4-19,156,depth_duration_stimuli/000810_2014-06-08_17-20-01_260595134347_rgbf000105-resize_0/000810_2014-06-08_17-20-01_260595134347_rgbf000105-resize_0-target.png,1000,1.4865,2.0,9378,999,meters,jsons/v1_VE1000_randls_55_rotated.json,1506023,1935251,24,Man
156,676615,DepthScenes,duration_manipulation_targetAtFixation,jsons/v1_VE1000_randls_55_rotated.json,http://54.235.29.9/FacialAge/BNav_EC2/DepthDuration/v2_depth_duration_MTurk/v2_DepthDuration_HTML.html#71,71,1818,1024,1364,768,8-22-2022,5-4-19,157,depth_duration_stimuli/002758_2014-06-22_19-11-20_094959634447_rgbf000128-resize_1/002758_2014-06-22_19-11-20_094959634447_rgbf000128-resize_1-target.png,1000,2.555,2.0,5458,1000,meters,jsons/v1_VE1000_randls_55_rotated.json,1506023,1935251,24,Man
157,676615,DepthScenes,duration_manipulation_targetAtFixation,jsons/v1_VE1000_randls_55_rotated.json,http://54.235.29.9/FacialAge/BNav_EC2/DepthDuration/v2_depth_duration_MTurk/v2_DepthDuration_HTML.html#71,71,1818,1024,1364,768,8-22-2022,5-4-19,158,depth_duration_stimuli/002630_2014-06-24_14-47-50_094959634447_rgbf000055-resize_1/002630_2014-06-24_14-47-50_094959634447_rgbf000055-resize_1-target.png,1000,3.0095,1.0,6906,999,meters,jsons/v1_VE1000_randls_55_rotated.json,1506023,1935251,24,Man
158,676615,DepthScenes,duration_manipulation_targetAtFixation,jsons/v1_VE1000_randls_55_rotated.json,http://54.235.29.9/FacialAge/BNav_EC2/DepthDuration/v2_depth_duration_MTurk/v2_DepthDuration_HTML.html#71,71,1818,1024,1364,768,8-22-2022,5-4-19,159,depth_duration_stimuli/002657_2014-06-13_15-29-54_094959634447_rgbf000150-resize_1/002657_2014-06-13_15-29-54_094959634447_rgbf000150-resize_1-target.png,1000,4.919,2.0,7924,999,meters,jsons/v1_VE1000_randls_55_rotated.json,1506023,1935251,24,Man
159,676615,DepthScenes,duration_manipulation_targetAtFixation,jsons/v1_VE1000_randls_55_rotated.json,http://54.235.29.9/FacialAge/BNav_EC2/DepthDuration/v2_depth_duration_MTurk/v2_DepthDuration_HTML.html#71,71,1818,1024,1364,768,8-22-2022,5-4-19,160,depth_duration_stimuli/002375_2014-06-28_20-13-44_260595134347_rgbf000032-resize_1/002375_2014-06-28_20-13-44_260595134347_rgbf000032-resize_1-target.png,1000,4.0175,2.0,3603,1001,meters,jsons/v1_VE1000_randls_55_rotated.json,1506023,1935251,24,Man
160,676615,DepthScenes,duration_manipulation_targetAtFixation,jsons/v1_VE1000_randls_55_rotated.json,http://54.235.29.9/FacialAge/BNav_EC2/DepthDuration/v2_depth_duration_MTurk/v2_DepthDuration_HTML.html#71,71,1818,1024,1364,768,8-22-2022,5-4-19,161,depth_duration_stimuli/001447_2014-06-19_17-00-32_260595134347_rgbf000082-resize_5/001447_2014-06-19_17-00-32_260595134347_rgbf000082-resize_5-target.png,1000,4.13775,1.0,9628,1001,meters,jsons/v1_VE1000_randls_55_rotated.json,1506023,1935251,24,Man
161,676615,DepthScenes,duration_manipulation_targetAtFixation,jsons/v1_VE1000_randls_55_rotated.json,http://54.235.29.9/FacialAge/BNav_EC2/DepthDuration/v2_depth_duration_MTurk/v2_DepthDuration_HTML.html#71,71,1818,1024,1364,768,8-22-2022,5-4-19,162,depth_duration_stimuli/000447_2014-06-08_16-15-46_260595134347_rgbf000130-resize_1/000447_2014-06-08_16-15-46_260595134347_rgbf000130-resize_1-target.png,1000,4.479,2.0,3439,1000,meters,jsons/v1_VE1000_randls_55_rotated.json,1506023,1935251,24,Man
162,676615,DepthScenes,duration_manipulation_targetAtFixation,jsons/v1_VE1000_randls_55_rotated.json,http://54.235.29.9/FacialAge/BNav_EC2/DepthDuration/v2_depth_duration_MTurk/v2_DepthDuration_HTML.html#71,71,1818,1024,1364,768,8-22-2022,5-4-19,163,depth_duration_stimuli/003587_2014-05-23_16-48-02_094959634447_rgbf002384-resize_2/003587_2014-05-23_16-48-02_094959634447_rgbf002384-resize_2-target.png,1000,1.357,1.0,8132,1001,meters,jsons/v1_VE1000_randls_55_rotated.json,1506023,1935251,24,Man
163,676615,DepthScenes,duration_manipulation_targetAtFixation,jsons/v1_VE1000_randls_55_rotated.json,http://54.235.29.9/FacialAge/BNav_EC2/DepthDuration/v2_depth_duration_MTurk/v2_DepthDuration_HTML.html#71,71,1818,1024,1364,768,8-22-2022,5-4-19,164,depth_duration_stimuli/001167_2014-06-17_15-38-07_260595134347_rgbf000108-resize_0/001167_2014-06-17_15-38-07_260595134347_rgbf000108-resize_0-target.png,1000,1.8505,2.0,5015,1000,meters,jsons/v1_VE1000_randls_55_rotated.json,1506023,1935251,24,Man
