,subjID,experimentName,versionName,sequenceName,url,selected_row,windowWidth,windowHeight,screenWidth,screenHeight,startDate,startTime,trial,stimulus,duration,actual_depth,depth_estimate,trial_RT,log_sceneDuration,unitSelection,seq_filepath,experimentTime,totalTime,age,gender
0,677256,DepthScenes,duration_manipulation_targetAtFixation,jsons/v1_VE250_randls_60.json,http://54.235.29.9/FacialAge/BNav_EC2/DepthDuration/v2_depth_duration_MTurk/v2_DepthDuration_HTML.html#459,459,1366,657,1366,768,8-30-2022,11-4-59,1,depth_duration_stimuli/000929_2014-06-09_16-33-19_260595134347_rgbf000139-resize_0/000929_2014-06-09_16-33-19_260595134347_rgbf000139-resize_0-target.png,250,2.8680000000000003,0,5219,247,feet,jsons/v1_VE250_randls_60.json,1980320,2235940,37,Woman
1,677256,DepthScenes,duration_manipulation_targetAtFixation,jsons/v1_VE250_randls_60.json,http://54.235.29.9/FacialAge/BNav_EC2/DepthDuration/v2_depth_duration_MTurk/v2_DepthDuration_HTML.html#459,459,1366,657,1366,768,8-30-2022,11-4-59,2,depth_duration_stimuli/000457_2014-06-08_16-52-43_260595134347_rgbf000199-resize_1/000457_2014-06-08_16-52-43_260595134347_rgbf000199-resize_1-target.png,250,3.6489999999999996,4,6958,250,feet,jsons/v1_VE250_randls_60.json,1980320,2235940,37,Woman
2,677256,DepthScenes,duration_manipulation_targetAtFixation,jsons/v1_VE250_randls_60.json,http://54.235.29.9/FacialAge/BNav_EC2/DepthDuration/v2_depth_duration_MTurk/v2_DepthDuration_HTML.html#459,459,1366,657,1366,768,8-30-2022,11-4-59,3,depth_duration_stimuli/002748_2014-06-22_19-07-22_094959634447_rgbf000078-resize_1/002748_2014-06-22_19-07-22_094959634447_rgbf000078-resize_1-target.png,250,4.6705,4,3249,263,feet,jsons/v1_VE250_randls_60.json,1980320,2235940,37,Woman
3,677256,DepthScenes,duration_manipulation_targetAtFixation,jsons/v1_VE250_randls_60.json,http://54.235.29.9/FacialAge/BNav_EC2/DepthDuration/v2_depth_duration_MTurk/v2_DepthDuration_HTML.html#459,459,1366,657,1366,768,8-30-2022,11-4-59,4,depth_duration_stimuli/002995_2014-06-15_12-31-26_094959634447_rgbf000150-resize_1/002995_2014-06-15_12-31-26_094959634447_rgbf000150-resize_1-target.png,250,3.8360000000000003,4,3698,261,feet,jsons/v1_VE250_randls_60.json,1980320,2235940,37,Woman
4,677256,DepthScenes,duration_manipulation_targetAtFixation,jsons/v1_VE250_randls_60.json,http://54.235.29.9/FacialAge/BNav_EC2/DepthDuration/v2_depth_duration_MTurk/v2_DepthDuration_HTML.html#459,459,1366,657,1366,768,8-30-2022,11-4-59,5,depth_duration_stimuli/002763_2014-06-22_19-13-10_094959634447_rgbf000075-resize_4/002763_2014-06-22_19-13-10_094959634447_rgbf000075-resize_4-target.png,250,1.68375,0,3604,254,feet,jsons/v1_VE250_randls_60.json,1980320,2235940,37,Woman
5,677256,DepthScenes,duration_manipulation_targetAtFixation,jsons/v1_VE250_randls_60.json,http://54.235.29.9/FacialAge/BNav_EC2/DepthDuration/v2_depth_duration_MTurk/v2_DepthDuration_HTML.html#459,459,1366,657,1366,768,8-30-2022,11-4-59,6,depth_duration_stimuli/002209_2014-06-28_18-36-10_260595134347_rgbf000051-resize_1/002209_2014-06-28_18-36-10_260595134347_rgbf000051-resize_1-target.png,250,2.057,4,3698,253,feet,jsons/v1_VE250_randls_60.json,1980320,2235940,37,Woman
6,677256,DepthScenes,duration_manipulation_targetAtFixation,jsons/v1_VE250_randls_60.json,http://54.235.29.9/FacialAge/BNav_EC2/DepthDuration/v2_depth_duration_MTurk/v2_DepthDuration_HTML.html#459,459,1366,657,1366,768,8-30-2022,11-4-59,7,depth_duration_stimuli/003534_2014-05-22_15-06-10_094959634447_rgbf000102-resize_4/003534_2014-05-22_15-06-10_094959634447_rgbf000102-resize_4-target.png,250,1.426,3,4481,260,feet,jsons/v1_VE250_randls_60.json,1980320,2235940,37,Woman
7,677256,DepthScenes,duration_manipulation_targetAtFixation,jsons/v1_VE250_randls_60.json,http://54.235.29.9/FacialAge/BNav_EC2/DepthDuration/v2_depth_duration_MTurk/v2_DepthDuration_HTML.html#459,459,1366,657,1366,768,8-30-2022,11-4-59,8,depth_duration_stimuli/002637_2014-06-24_14-51-13_094959634447_rgbf000066-resize_4/002637_2014-06-24_14-51-13_094959634447_rgbf000066-resize_4-target.png,250,1.9955,1,3481,258,feet,jsons/v1_VE250_randls_60.json,1980320,2235940,37,Woman
8,677256,DepthScenes,duration_manipulation_targetAtFixation,jsons/v1_VE250_randls_60.json,http://54.235.29.9/FacialAge/BNav_EC2/DepthDuration/v2_depth_duration_MTurk/v2_DepthDuration_HTML.html#459,459,1366,657,1366,768,8-30-2022,11-4-59,9,depth_duration_stimuli/001158_2014-06-17_15-32-16_260595134347_rgbf000138-resize_2/001158_2014-06-17_15-32-16_260595134347_rgbf000138-resize_2-target.png,250,4.5315,1,3388,249,feet,jsons/v1_VE250_randls_60.json,1980320,2235940,37,Woman
9,677256,DepthScenes,duration_manipulation_targetAtFixation,jsons/v1_VE250_randls_60.json,http://54.235.29.9/FacialAge/BNav_EC2/DepthDuration/v2_depth_duration_MTurk/v2_DepthDuration_HTML.html#459,459,1366,657,1366,768,8-30-2022,11-4-59,10,depth_duration_stimuli/000556_2014-06-09_22-42-56_260595134347_rgbf000214-resize_1/000556_2014-06-09_22-42-56_260595134347_rgbf000214-resize_1-target.png,250,4.8415,1,3141,253,feet,jsons/v1_VE250_randls_60.json,1980320,2235940,37,Woman
10,677256,DepthScenes,duration_manipulation_targetAtFixation,jsons/v1_VE250_randls_60.json,http://54.235.29.9/FacialAge/BNav_EC2/DepthDuration/v2_depth_duration_MTurk/v2_DepthDuration_HTML.html#459,459,1366,657,1366,768,8-30-2022,11-4-59,11,depth_duration_stimuli/002549_2014-06-24_13-41-39_094959634447_rgbf000022-resize_3/002549_2014-06-24_13-41-39_094959634447_rgbf000022-resize_3-target.png,250,1.476,2,3129,236,feet,jsons/v1_VE250_randls_60.json,1980320,2235940,37,Woman
11,677256,DepthScenes,duration_manipulation_targetAtFixation,jsons/v1_VE250_randls_60.json,http://54.235.29.9/FacialAge/BNav_EC2/DepthDuration/v2_depth_duration_MTurk/v2_DepthDuration_HTML.html#459,459,1366,657,1366,768,8-30-2022,11-4-59,12,depth_duration_stimuli/002750_2014-06-22_19-08-03_094959634447_rgbf000094-resize_4/002750_2014-06-22_19-08-03_094959634447_rgbf000094-resize_4-target.png,250,2.354,1,3530,264,feet,jsons/v1_VE250_randls_60.json,1980320,2235940,37,Woman
12,677256,DepthScenes,duration_manipulation_targetAtFixation,jsons/v1_VE250_randls_60.json,http://54.235.29.9/FacialAge/BNav_EC2/DepthDuration/v2_depth_duration_MTurk/v2_DepthDuration_HTML.html#459,459,1366,657,1366,768,8-30-2022,11-4-59,13,depth_duration_stimuli/000569_2014-06-09_22-51-47_260595134347_rgbf000141-resize_3/000569_2014-06-09_22-51-47_260595134347_rgbf000141-resize-original.jpg,250,4.512,0,3983,251,feet,jsons/v1_VE250_randls_60.json,1980320,2235940,37,Woman
13,677256,DepthScenes,duration_manipulation_targetAtFixation,jsons/v1_VE250_randls_60.json,http://54.235.29.9/FacialAge/BNav_EC2/DepthDuration/v2_depth_duration_MTurk/v2_DepthDuration_HTML.html#459,459,1366,657,1366,768,8-30-2022,11-4-59,14,depth_duration_stimuli/001199_2014-06-17_16-03-48_260595134347_rgbf000077-resize_0/001199_2014-06-17_16-03-48_260595134347_rgbf000077-resize_0-target.png,250,3.4375,2,5398,263,feet,jsons/v1_VE250_randls_60.json,1980320,2235940,37,Woman
14,677256,DepthScenes,duration_manipulation_targetAtFixation,jsons/v1_VE250_randls_60.json,http://54.235.29.9/FacialAge/BNav_EC2/DepthDuration/v2_depth_duration_MTurk/v2_DepthDuration_HTML.html#459,459,1366,657,1366,768,8-30-2022,11-4-59,15,depth_duration_stimuli/000502_2014-06-08_23-02-32_260595134347_rgbf000063-resize_4/000502_2014-06-08_23-02-32_260595134347_rgbf000063-resize_4-target.png,250,2.431,1,4208,262,feet,jsons/v1_VE250_randls_60.json,1980320,2235940,37,Woman
15,677256,DepthScenes,duration_manipulation_targetAtFixation,jsons/v1_VE250_randls_60.json,http://54.235.29.9/FacialAge/BNav_EC2/DepthDuration/v2_depth_duration_MTurk/v2_DepthDuration_HTML.html#459,459,1366,657,1366,768,8-30-2022,11-4-59,16,depth_duration_stimuli/000739_2014-06-08_18-45-58_260595134347_rgbf000068-resize_1/000739_2014-06-08_18-45-58_260595134347_rgbf000068-resize_1-target.png,250,3.534,3,3274,250,feet,jsons/v1_VE250_randls_60.json,1980320,2235940,37,Woman
16,677256,DepthScenes,duration_manipulation_targetAtFixation,jsons/v1_VE250_randls_60.json,http://54.235.29.9/FacialAge/BNav_EC2/DepthDuration/v2_depth_duration_MTurk/v2_DepthDuration_HTML.html#459,459,1366,657,1366,768,8-30-2022,11-4-59,17,depth_duration_stimuli/000734_2014-06-08_17-39-11_260595134347_rgbf000128-resize_2/000734_2014-06-08_17-39-11_260595134347_rgbf000128-resize_2-target.png,250,4.098,2,3496,250,feet,jsons/v1_VE250_randls_60.json,1980320,2235940,37,Woman
17,677256,DepthScenes,duration_manipulation_targetAtFixation,jsons/v1_VE250_randls_60.json,http://54.235.29.9/FacialAge/BNav_EC2/DepthDuration/v2_depth_duration_MTurk/v2_DepthDuration_HTML.html#459,459,1366,657,1366,768,8-30-2022,11-4-59,18,depth_duration_stimuli/001150_2014-06-17_15-27-34_260595134347_rgbf000108-resize_2/001150_2014-06-17_15-27-34_260595134347_rgbf000108-resize_2-target.png,250,4.0325,2,3051,264,feet,jsons/v1_VE250_randls_60.json,1980320,2235940,37,Woman
18,677256,DepthScenes,duration_manipulation_targetAtFixation,jsons/v1_VE250_randls_60.json,http://54.235.29.9/FacialAge/BNav_EC2/DepthDuration/v2_depth_duration_MTurk/v2_DepthDuration_HTML.html#459,459,1366,657,1366,768,8-30-2022,11-4-59,19,depth_duration_stimuli/000665_2014-06-09_20-42-35_260595134347_rgbf000110-resize_1/000665_2014-06-09_20-42-35_260595134347_rgbf000110-resize_1-target.png,250,3.057,2,3342,244,feet,jsons/v1_VE250_randls_60.json,1980320,2235940,37,Woman
19,677256,DepthScenes,duration_manipulation_targetAtFixation,jsons/v1_VE250_randls_60.json,http://54.235.29.9/FacialAge/BNav_EC2/DepthDuration/v2_depth_duration_MTurk/v2_DepthDuration_HTML.html#459,459,1366,657,1366,768,8-30-2022,11-4-59,20,depth_duration_stimuli/002445_2014-06-28_20-32-16_260595134347_rgbf000029-resize_4/002445_2014-06-28_20-32-16_260595134347_rgbf000029-resize_4-target.png,250,2.5315,1,3554,262,feet,jsons/v1_VE250_randls_60.json,1980320,2235940,37,Woman
20,677256,DepthScenes,duration_manipulation_targetAtFixation,jsons/v1_VE250_randls_60.json,http://54.235.29.9/FacialAge/BNav_EC2/DepthDuration/v2_depth_duration_MTurk/v2_DepthDuration_HTML.html#459,459,1366,657,1366,768,8-30-2022,11-4-59,21,depth_duration_stimuli/000780_2014-06-08_22-28-29_260595134347_rgbf000126-resize_1/000780_2014-06-08_22-28-29_260595134347_rgbf000126-resize_1-target.png,250,3.3825,2,2843,259,feet,jsons/v1_VE250_randls_60.json,1980320,2235940,37,Woman
21,677256,DepthScenes,duration_manipulation_targetAtFixation,jsons/v1_VE250_randls_60.json,http://54.235.29.9/FacialAge/BNav_EC2/DepthDuration/v2_depth_duration_MTurk/v2_DepthDuration_HTML.html#459,459,1366,657,1366,768,8-30-2022,11-4-59,22,depth_duration_stimuli/002039_2014-06-24_20-22-38_260595134347_rgbf000084-resize_1/002039_2014-06-24_20-22-38_260595134347_rgbf000084-resize_1-target.png,250,4.408,2,2800,244,feet,jsons/v1_VE250_randls_60.json,1980320,2235940,37,Woman
22,677256,DepthScenes,duration_manipulation_targetAtFixation,jsons/v1_VE250_randls_60.json,http://54.235.29.9/FacialAge/BNav_EC2/DepthDuration/v2_depth_duration_MTurk/v2_DepthDuration_HTML.html#459,459,1366,657,1366,768,8-30-2022,11-4-59,23,depth_duration_stimuli/002103_2014-06-25_20-00-40_260595134347_rgbf000049-resize_0/002103_2014-06-25_20-00-40_260595134347_rgbf000049-resize_0-target.png,250,4.105,1,3132,250,feet,jsons/v1_VE250_randls_60.json,1980320,2235940,37,Woman
23,677256,DepthScenes,duration_manipulation_targetAtFixation,jsons/v1_VE250_randls_60.json,http://54.235.29.9/FacialAge/BNav_EC2/DepthDuration/v2_depth_duration_MTurk/v2_DepthDuration_HTML.html#459,459,1366,657,1366,768,8-30-2022,11-4-59,24,depth_duration_stimuli/001167_2014-06-17_15-38-07_260595134347_rgbf000108-resize_0/001167_2014-06-17_15-38-07_260595134347_rgbf000108-resize_0-target.png,250,1.8505,1,2983,256,feet,jsons/v1_VE250_randls_60.json,1980320,2235940,37,Woman
24,677256,DepthScenes,duration_manipulation_targetAtFixation,jsons/v1_VE250_randls_60.json,http://54.235.29.9/FacialAge/BNav_EC2/DepthDuration/v2_depth_duration_MTurk/v2_DepthDuration_HTML.html#459,459,1366,657,1366,768,8-30-2022,11-4-59,25,depth_duration_stimuli/003587_2014-05-23_16-48-02_094959634447_rgbf002384-resize_2/003587_2014-05-23_16-48-02_094959634447_rgbf002384-resize_2-target.png,250,1.357,2,3134,251,feet,jsons/v1_VE250_randls_60.json,1980320,2235940,37,Woman
25,677256,DepthScenes,duration_manipulation_targetAtFixation,jsons/v1_VE250_randls_60.json,http://54.235.29.9/FacialAge/BNav_EC2/DepthDuration/v2_depth_duration_MTurk/v2_DepthDuration_HTML.html#459,459,1366,657,1366,768,8-30-2022,11-4-59,26,depth_duration_stimuli/002989_2014-06-15_12-25-03_094959634447_rgbf000150-resize_3/002989_2014-06-15_12-25-03_094959634447_rgbf000150-resize_3-target.png,250,4.1975,1,2821,243,feet,jsons/v1_VE250_randls_60.json,1980320,2235940,37,Woman
26,677256,DepthScenes,duration_manipulation_targetAtFixation,jsons/v1_VE250_randls_60.json,http://54.235.29.9/FacialAge/BNav_EC2/DepthDuration/v2_depth_duration_MTurk/v2_DepthDuration_HTML.html#459,459,1366,657,1366,768,8-30-2022,11-4-59,27,depth_duration_stimuli/000866_2014-06-09_20-45-42_260595134347_rgbf000139-resize_1/000866_2014-06-09_20-45-42_260595134347_rgbf000139-resize_1-target.png,250,3.2155,2,3039,249,feet,jsons/v1_VE250_randls_60.json,1980320,2235940,37,Woman
27,677256,DepthScenes,duration_manipulation_targetAtFixation,jsons/v1_VE250_randls_60.json,http://54.235.29.9/FacialAge/BNav_EC2/DepthDuration/v2_depth_duration_MTurk/v2_DepthDuration_HTML.html#459,459,1366,657,1366,768,8-30-2022,11-4-59,28,depth_duration_stimuli/001056_2014-06-08_18-46-44_260595134347_rgbf000068-resize_0/001056_2014-06-08_18-46-44_260595134347_rgbf000068-resize_0-target.png,250,2.6625,2,2982,261,feet,jsons/v1_VE250_randls_60.json,1980320,2235940,37,Woman
28,677256,DepthScenes,duration_manipulation_targetAtFixation,jsons/v1_VE250_randls_60.json,http://54.235.29.9/FacialAge/BNav_EC2/DepthDuration/v2_depth_duration_MTurk/v2_DepthDuration_HTML.html#459,459,1366,657,1366,768,8-30-2022,11-4-59,29,depth_duration_stimuli/002199_2014-06-28_18-33-56_260595134347_rgbf000074-resize_0/002199_2014-06-28_18-33-56_260595134347_rgbf000074-resize_0-target.png,250,1.996,1,2611,248,feet,jsons/v1_VE250_randls_60.json,1980320,2235940,37,Woman
29,677256,DepthScenes,duration_manipulation_targetAtFixation,jsons/v1_VE250_randls_60.json,http://54.235.29.9/FacialAge/BNav_EC2/DepthDuration/v2_depth_duration_MTurk/v2_DepthDuration_HTML.html#459,459,1366,657,1366,768,8-30-2022,11-4-59,30,depth_duration_stimuli/000375_2014-06-08_11-17-29_260595134347_rgbf000133-resize_2/000375_2014-06-08_11-17-29_260595134347_rgbf000133-resize-original.jpg,250,4.718,0,3483,261,feet,jsons/v1_VE250_randls_60.json,1980320,2235940,37,Woman
30,677256,DepthScenes,duration_manipulation_targetAtFixation,jsons/v1_VE250_randls_60.json,http://54.235.29.9/FacialAge/BNav_EC2/DepthDuration/v2_depth_duration_MTurk/v2_DepthDuration_HTML.html#459,459,1366,657,1366,768,8-30-2022,11-4-59,31,depth_duration_stimuli/003492_2014-05-21_15-50-55_094959634447_rgbf000828-resize_1/003492_2014-05-21_15-50-55_094959634447_rgbf000828-resize_1-target.png,250,4.06875,2,48100,245,feet,jsons/v1_VE250_randls_60.json,1980320,2235940,37,Woman
31,677256,DepthScenes,duration_manipulation_targetAtFixation,jsons/v1_VE250_randls_60.json,http://54.235.29.9/FacialAge/BNav_EC2/DepthDuration/v2_depth_duration_MTurk/v2_DepthDuration_HTML.html#459,459,1366,657,1366,768,8-30-2022,11-4-59,32,depth_duration_stimuli/002568_2014-06-24_13-59-21_094959634447_rgbf000062-resize_4/002568_2014-06-24_13-59-21_094959634447_rgbf000062-resize_4-target.png,250,3.015,2,9107,257,feet,jsons/v1_VE250_randls_60.json,1980320,2235940,37,Woman
32,677256,DepthScenes,duration_manipulation_targetAtFixation,jsons/v1_VE250_randls_60.json,http://54.235.29.9/FacialAge/BNav_EC2/DepthDuration/v2_depth_duration_MTurk/v2_DepthDuration_HTML.html#459,459,1366,657,1366,768,8-30-2022,11-4-59,33,depth_duration_stimuli/001011_2014-06-08_23-18-54_260595134347_rgbf000044-resize_4/001011_2014-06-08_23-18-54_260595134347_rgbf000044-resize_4-target.png,250,2.4730000000000003,2,76156,238,feet,jsons/v1_VE250_randls_60.json,1980320,2235940,37,Woman
33,677256,DepthScenes,duration_manipulation_targetAtFixation,jsons/v1_VE250_randls_60.json,http://54.235.29.9/FacialAge/BNav_EC2/DepthDuration/v2_depth_duration_MTurk/v2_DepthDuration_HTML.html#459,459,1366,657,1366,768,8-30-2022,11-4-59,34,depth_duration_stimuli/002875_2014-06-01_15-19-00_094959634447_rgbf000151-resize_1/002875_2014-06-01_15-19-00_094959634447_rgbf000151-resize_1-target.png,250,1.9675,2,2960,255,feet,jsons/v1_VE250_randls_60.json,1980320,2235940,37,Woman
34,677256,DepthScenes,duration_manipulation_targetAtFixation,jsons/v1_VE250_randls_60.json,http://54.235.29.9/FacialAge/BNav_EC2/DepthDuration/v2_depth_duration_MTurk/v2_DepthDuration_HTML.html#459,459,1366,657,1366,768,8-30-2022,11-4-59,35,depth_duration_stimuli/000642_2014-06-08_16-59-25_260595134347_rgbf000098-resize_2/000642_2014-06-08_16-59-25_260595134347_rgbf000098-resize_2-target.png,250,2.8815,2,3476,267,feet,jsons/v1_VE250_randls_60.json,1980320,2235940,37,Woman
35,677256,DepthScenes,duration_manipulation_targetAtFixation,jsons/v1_VE250_randls_60.json,http://54.235.29.9/FacialAge/BNav_EC2/DepthDuration/v2_depth_duration_MTurk/v2_DepthDuration_HTML.html#459,459,1366,657,1366,768,8-30-2022,11-4-59,36,depth_duration_stimuli/002425_2014-06-28_20-27-29_260595134347_rgbf000031-resize_8/002425_2014-06-28_20-27-29_260595134347_rgbf000031-resize_8-target.png,250,3.8960000000000004,2,4368,252,feet,jsons/v1_VE250_randls_60.json,1980320,2235940,37,Woman
36,677256,DepthScenes,duration_manipulation_targetAtFixation,jsons/v1_VE250_randls_60.json,http://54.235.29.9/FacialAge/BNav_EC2/DepthDuration/v2_depth_duration_MTurk/v2_DepthDuration_HTML.html#459,459,1366,657,1366,768,8-30-2022,11-4-59,37,depth_duration_stimuli/000447_2014-06-08_16-15-46_260595134347_rgbf000130-resize_1/000447_2014-06-08_16-15-46_260595134347_rgbf000130-resize_1-target.png,250,4.479,2,2777,256,feet,jsons/v1_VE250_randls_60.json,1980320,2235940,37,Woman
37,677256,DepthScenes,duration_manipulation_targetAtFixation,jsons/v1_VE250_randls_60.json,http://54.235.29.9/FacialAge/BNav_EC2/DepthDuration/v2_depth_duration_MTurk/v2_DepthDuration_HTML.html#459,459,1366,657,1366,768,8-30-2022,11-4-59,38,depth_duration_stimuli/001447_2014-06-19_17-00-32_260595134347_rgbf000082-resize_5/001447_2014-06-19_17-00-32_260595134347_rgbf000082-resize_5-target.png,250,4.13775,2,3803,249,feet,jsons/v1_VE250_randls_60.json,1980320,2235940,37,Woman
38,677256,DepthScenes,duration_manipulation_targetAtFixation,jsons/v1_VE250_randls_60.json,http://54.235.29.9/FacialAge/BNav_EC2/DepthDuration/v2_depth_duration_MTurk/v2_DepthDuration_HTML.html#459,459,1366,657,1366,768,8-30-2022,11-4-59,39,depth_duration_stimuli/002600_2014-06-24_14-27-04_094959634447_rgbf000074-resize_2/002600_2014-06-24_14-27-04_094959634447_rgbf000074-resize_2-target.png,250,2.7575,2,3544,246,feet,jsons/v1_VE250_randls_60.json,1980320,2235940,37,Woman
39,677256,DepthScenes,duration_manipulation_targetAtFixation,jsons/v1_VE250_randls_60.json,http://54.235.29.9/FacialAge/BNav_EC2/DepthDuration/v2_depth_duration_MTurk/v2_DepthDuration_HTML.html#459,459,1366,657,1366,768,8-30-2022,11-4-59,40,depth_duration_stimuli/003228_2014-05-14_13-42-35_094959634447_rgbf000101-resize_1/003228_2014-05-14_13-42-35_094959634447_rgbf000101-resize_1-target.png,250,1.9680000000000002,2,4283,263,feet,jsons/v1_VE250_randls_60.json,1980320,2235940,37,Woman
40,677256,DepthScenes,duration_manipulation_targetAtFixation,jsons/v1_VE250_randls_60.json,http://54.235.29.9/FacialAge/BNav_EC2/DepthDuration/v2_depth_duration_MTurk/v2_DepthDuration_HTML.html#459,459,1366,657,1366,768,8-30-2022,11-4-59,41,depth_duration_stimuli/000506_2014-06-08_23-21-00_260595134347_rgbf000070-resize_7/000506_2014-06-08_23-21-00_260595134347_rgbf000070-resize_7-target.png,250,4.0585,2,3214,247,feet,jsons/v1_VE250_randls_60.json,1980320,2235940,37,Woman
41,677256,DepthScenes,duration_manipulation_targetAtFixation,jsons/v1_VE250_randls_60.json,http://54.235.29.9/FacialAge/BNav_EC2/DepthDuration/v2_depth_duration_MTurk/v2_DepthDuration_HTML.html#459,459,1366,657,1366,768,8-30-2022,11-4-59,42,depth_duration_stimuli/003079_2014-06-15_15-18-20_094959634447_rgbf000152-resize_8/003079_2014-06-15_15-18-20_094959634447_rgbf000152-resize_8-target.png,250,2.8775,2,3142,255,feet,jsons/v1_VE250_randls_60.json,1980320,2235940,37,Woman
42,677256,DepthScenes,duration_manipulation_targetAtFixation,jsons/v1_VE250_randls_60.json,http://54.235.29.9/FacialAge/BNav_EC2/DepthDuration/v2_depth_duration_MTurk/v2_DepthDuration_HTML.html#459,459,1366,657,1366,768,8-30-2022,11-4-59,43,depth_duration_stimuli/001092_2014-06-15_17-34-58_260595134347_rgbf000171-resize_3/001092_2014-06-15_17-34-58_260595134347_rgbf000171-resize_3-target.png,250,2.6935,2,3332,248,feet,jsons/v1_VE250_randls_60.json,1980320,2235940,37,Woman
43,677256,DepthScenes,duration_manipulation_targetAtFixation,jsons/v1_VE250_randls_60.json,http://54.235.29.9/FacialAge/BNav_EC2/DepthDuration/v2_depth_duration_MTurk/v2_DepthDuration_HTML.html#459,459,1366,657,1366,768,8-30-2022,11-4-59,44,depth_duration_stimuli/002545_2014-06-24_13-38-53_094959634447_rgbf000080-resize_4/002545_2014-06-24_13-38-53_094959634447_rgbf000080-resize_4-target.png,250,1.9205,2,3686,240,feet,jsons/v1_VE250_randls_60.json,1980320,2235940,37,Woman
44,677256,DepthScenes,duration_manipulation_targetAtFixation,jsons/v1_VE250_randls_60.json,http://54.235.29.9/FacialAge/BNav_EC2/DepthDuration/v2_depth_duration_MTurk/v2_DepthDuration_HTML.html#459,459,1366,657,1366,768,8-30-2022,11-4-59,45,depth_duration_stimuli/000787_2014-06-08_22-33-53_260595134347_rgbf000175-resize_1/000787_2014-06-08_22-33-53_260595134347_rgbf000175-resize-original.jpg,250,4.784,0,4370,249,feet,jsons/v1_VE250_randls_60.json,1980320,2235940,37,Woman
45,677256,DepthScenes,duration_manipulation_targetAtFixation,jsons/v1_VE250_randls_60.json,http://54.235.29.9/FacialAge/BNav_EC2/DepthDuration/v2_depth_duration_MTurk/v2_DepthDuration_HTML.html#459,459,1366,657,1366,768,8-30-2022,11-4-59,46,depth_duration_stimuli/000758_2014-06-08_22-05-08_260595134347_rgbf000085-resize_0/000758_2014-06-08_22-05-08_260595134347_rgbf000085-resize_0-target.png,250,3.3810000000000002,2,5307,252,feet,jsons/v1_VE250_randls_60.json,1980320,2235940,37,Woman
46,677256,DepthScenes,duration_manipulation_targetAtFixation,jsons/v1_VE250_randls_60.json,http://54.235.29.9/FacialAge/BNav_EC2/DepthDuration/v2_depth_duration_MTurk/v2_DepthDuration_HTML.html#459,459,1366,657,1366,768,8-30-2022,11-4-59,47,depth_duration_stimuli/000854_2014-06-09_19-43-13_260595134347_rgbf000066-resize_0/000854_2014-06-09_19-43-13_260595134347_rgbf000066-resize_0-target.png,250,3.068,1,2738,256,feet,jsons/v1_VE250_randls_60.json,1980320,2235940,37,Woman
47,677256,DepthScenes,duration_manipulation_targetAtFixation,jsons/v1_VE250_randls_60.json,http://54.235.29.9/FacialAge/BNav_EC2/DepthDuration/v2_depth_duration_MTurk/v2_DepthDuration_HTML.html#459,459,1366,657,1366,768,8-30-2022,11-4-59,48,depth_duration_stimuli/002153_2014-06-25_21-27-18_260595134347_rgbf000038-resize_5/002153_2014-06-25_21-27-18_260595134347_rgbf000038-resize_5-target.png,250,2.505,0,3951,250,feet,jsons/v1_VE250_randls_60.json,1980320,2235940,37,Woman
48,677256,DepthScenes,duration_manipulation_targetAtFixation,jsons/v1_VE250_randls_60.json,http://54.235.29.9/FacialAge/BNav_EC2/DepthDuration/v2_depth_duration_MTurk/v2_DepthDuration_HTML.html#459,459,1366,657,1366,768,8-30-2022,11-4-59,49,depth_duration_stimuli/002660_2014-06-13_15-44-18_094959634447_rgbf001878-resize_2/002660_2014-06-13_15-44-18_094959634447_rgbf001878-resize_2-target.png,250,3.576,0,2926,238,feet,jsons/v1_VE250_randls_60.json,1980320,2235940,37,Woman
49,677256,DepthScenes,duration_manipulation_targetAtFixation,jsons/v1_VE250_randls_60.json,http://54.235.29.9/FacialAge/BNav_EC2/DepthDuration/v2_depth_duration_MTurk/v2_DepthDuration_HTML.html#459,459,1366,657,1366,768,8-30-2022,11-4-59,50,depth_duration_stimuli/000522_2014-06-08_13-35-06_260595134347_rgbf000244-resize_1/000522_2014-06-08_13-35-06_260595134347_rgbf000244-resize_1-target.png,250,2.3715,2,3047,236,feet,jsons/v1_VE250_randls_60.json,1980320,2235940,37,Woman
50,677256,DepthScenes,duration_manipulation_targetAtFixation,jsons/v1_VE250_randls_60.json,http://54.235.29.9/FacialAge/BNav_EC2/DepthDuration/v2_depth_duration_MTurk/v2_DepthDuration_HTML.html#459,459,1366,657,1366,768,8-30-2022,11-4-59,51,depth_duration_stimuli/002949_2014-06-26_15-57-42_094959634447_rgbf000079-resize_1/002949_2014-06-26_15-57-42_094959634447_rgbf000079-resize_1-target.png,250,1.8915,2,3203,262,feet,jsons/v1_VE250_randls_60.json,1980320,2235940,37,Woman
51,677256,DepthScenes,duration_manipulation_targetAtFixation,jsons/v1_VE250_randls_60.json,http://54.235.29.9/FacialAge/BNav_EC2/DepthDuration/v2_depth_duration_MTurk/v2_DepthDuration_HTML.html#459,459,1366,657,1366,768,8-30-2022,11-4-59,52,depth_duration_stimuli/000414_2014-06-04_19-49-13_260595134347_rgbf000044-resize_0/000414_2014-06-04_19-49-13_260595134347_rgbf000044-resize_0-target.png,250,4.329,2,3101,246,feet,jsons/v1_VE250_randls_60.json,1980320,2235940,37,Woman
52,677256,DepthScenes,duration_manipulation_targetAtFixation,jsons/v1_VE250_randls_60.json,http://54.235.29.9/FacialAge/BNav_EC2/DepthDuration/v2_depth_duration_MTurk/v2_DepthDuration_HTML.html#459,459,1366,657,1366,768,8-30-2022,11-4-59,53,depth_duration_stimuli/003129_2014-05-12_10-48-10_094959634447_rgbf000100-resize_0/003129_2014-05-12_10-48-10_094959634447_rgbf000100-resize_0-target.png,250,4.9305,2,2667,258,feet,jsons/v1_VE250_randls_60.json,1980320,2235940,37,Woman
53,677256,DepthScenes,duration_manipulation_targetAtFixation,jsons/v1_VE250_randls_60.json,http://54.235.29.9/FacialAge/BNav_EC2/DepthDuration/v2_depth_duration_MTurk/v2_DepthDuration_HTML.html#459,459,1366,657,1366,768,8-30-2022,11-4-59,54,depth_duration_stimuli/001175_2014-06-17_15-45-55_260595134347_rgbf000129-resize_4/001175_2014-06-17_15-45-55_260595134347_rgbf000129-resize_4-target.png,250,4.255,2,3331,250,feet,jsons/v1_VE250_randls_60.json,1980320,2235940,37,Woman
54,677256,DepthScenes,duration_manipulation_targetAtFixation,jsons/v1_VE250_randls_60.json,http://54.235.29.9/FacialAge/BNav_EC2/DepthDuration/v2_depth_duration_MTurk/v2_DepthDuration_HTML.html#459,459,1366,657,1366,768,8-30-2022,11-4-59,55,depth_duration_stimuli/003490_2014-05-21_15-50-11_094959634447_rgbf000101-resize_3/003490_2014-05-21_15-50-11_094959634447_rgbf000101-resize_3-target.png,250,3.6445,2,5240,257,feet,jsons/v1_VE250_randls_60.json,1980320,2235940,37,Woman
55,677256,DepthScenes,duration_manipulation_targetAtFixation,jsons/v1_VE250_randls_60.json,http://54.235.29.9/FacialAge/BNav_EC2/DepthDuration/v2_depth_duration_MTurk/v2_DepthDuration_HTML.html#459,459,1366,657,1366,768,8-30-2022,11-4-59,56,depth_duration_stimuli/000470_2014-06-09_19-42-40_260595134347_rgbf000094-resize_1/000470_2014-06-09_19-42-40_260595134347_rgbf000094-resize_1-target.png,250,1.831,1,3539,241,feet,jsons/v1_VE250_randls_60.json,1980320,2235940,37,Woman
56,677256,DepthScenes,duration_manipulation_targetAtFixation,jsons/v1_VE250_randls_60.json,http://54.235.29.9/FacialAge/BNav_EC2/DepthDuration/v2_depth_duration_MTurk/v2_DepthDuration_HTML.html#459,459,1366,657,1366,768,8-30-2022,11-4-59,57,depth_duration_stimuli/000109_2014-05-14_23-41-52_260595134347_rgbf000035-resize_9/000109_2014-05-14_23-41-52_260595134347_rgbf000035-resize_9-target.png,250,1.3545,2,2802,250,feet,jsons/v1_VE250_randls_60.json,1980320,2235940,37,Woman
57,677256,DepthScenes,duration_manipulation_targetAtFixation,jsons/v1_VE250_randls_60.json,http://54.235.29.9/FacialAge/BNav_EC2/DepthDuration/v2_depth_duration_MTurk/v2_DepthDuration_HTML.html#459,459,1366,657,1366,768,8-30-2022,11-4-59,58,depth_duration_stimuli/002213_2014-06-28_18-37-58_260595134347_rgbf000055-resize_1/002213_2014-06-28_18-37-58_260595134347_rgbf000055-resize_1-target.png,250,3.62,2,3148,239,feet,jsons/v1_VE250_randls_60.json,1980320,2235940,37,Woman
58,677256,DepthScenes,duration_manipulation_targetAtFixation,jsons/v1_VE250_randls_60.json,http://54.235.29.9/FacialAge/BNav_EC2/DepthDuration/v2_depth_duration_MTurk/v2_DepthDuration_HTML.html#459,459,1366,657,1366,768,8-30-2022,11-4-59,59,depth_duration_stimuli/000691_2014-06-08_13-08-50_260595134347_rgbf000132-resize_3/000691_2014-06-08_13-08-50_260595134347_rgbf000132-resize_3-target.png,250,4.1530000000000005,2,2725,244,feet,jsons/v1_VE250_randls_60.json,1980320,2235940,37,Woman
59,677256,DepthScenes,duration_manipulation_targetAtFixation,jsons/v1_VE250_randls_60.json,http://54.235.29.9/FacialAge/BNav_EC2/DepthDuration/v2_depth_duration_MTurk/v2_DepthDuration_HTML.html#459,459,1366,657,1366,768,8-30-2022,11-4-59,60,depth_duration_stimuli/001055_2014-06-08_18-45-35_260595134347_rgbf000111-resize_4/001055_2014-06-08_18-45-35_260595134347_rgbf000111-resize_4-target.png,250,2.4290000000000003,0,2646,249,feet,jsons/v1_VE250_randls_60.json,1980320,2235940,37,Woman
60,677256,DepthScenes,duration_manipulation_targetAtFixation,jsons/v1_VE250_randls_60.json,http://54.235.29.9/FacialAge/BNav_EC2/DepthDuration/v2_depth_duration_MTurk/v2_DepthDuration_HTML.html#459,459,1366,657,1366,768,8-30-2022,11-4-59,61,depth_duration_stimuli/000549_2014-06-08_22-10-24_260595134347_rgbf000247-resize_3/000549_2014-06-08_22-10-24_260595134347_rgbf000247-resize_3-target.png,250,1.841,2,2326,236,feet,jsons/v1_VE250_randls_60.json,1980320,2235940,37,Woman
61,677256,DepthScenes,duration_manipulation_targetAtFixation,jsons/v1_VE250_randls_60.json,http://54.235.29.9/FacialAge/BNav_EC2/DepthDuration/v2_depth_duration_MTurk/v2_DepthDuration_HTML.html#459,459,1366,657,1366,768,8-30-2022,11-4-59,62,depth_duration_stimuli/002788_2014-06-22_19-36-03_094959634447_rgbf000088-resize_2/002788_2014-06-22_19-36-03_094959634447_rgbf000088-resize_2-target.png,250,1.6465,2,2566,237,feet,jsons/v1_VE250_randls_60.json,1980320,2235940,37,Woman
62,677256,DepthScenes,duration_manipulation_targetAtFixation,jsons/v1_VE250_randls_60.json,http://54.235.29.9/FacialAge/BNav_EC2/DepthDuration/v2_depth_duration_MTurk/v2_DepthDuration_HTML.html#459,459,1366,657,1366,768,8-30-2022,11-4-59,63,depth_duration_stimuli/000749_2014-06-08_21-55-06_260595134347_rgbf000070-resize_2/000749_2014-06-08_21-55-06_260595134347_rgbf000070-resize_2-target.png,250,2.331,2,3681,253,feet,jsons/v1_VE250_randls_60.json,1980320,2235940,37,Woman
63,677256,DepthScenes,duration_manipulation_targetAtFixation,jsons/v1_VE250_randls_60.json,http://54.235.29.9/FacialAge/BNav_EC2/DepthDuration/v2_depth_duration_MTurk/v2_DepthDuration_HTML.html#459,459,1366,657,1366,768,8-30-2022,11-4-59,64,depth_duration_stimuli/002725_2014-06-22_11-47-51_094959634447_rgbf000070-resize_1/002725_2014-06-22_11-47-51_094959634447_rgbf000070-resize_1-target.png,250,2.195,2,2661,246,feet,jsons/v1_VE250_randls_60.json,1980320,2235940,37,Woman
64,677256,DepthScenes,duration_manipulation_targetAtFixation,jsons/v1_VE250_randls_60.json,http://54.235.29.9/FacialAge/BNav_EC2/DepthDuration/v2_depth_duration_MTurk/v2_DepthDuration_HTML.html#459,459,1366,657,1366,768,8-30-2022,11-4-59,65,depth_duration_stimuli/002344_2014-06-28_20-06-29_260595134347_rgbf000030-resize_1/002344_2014-06-28_20-06-29_260595134347_rgbf000030-resize_1-target.png,250,1.5795,2,2279,253,feet,jsons/v1_VE250_randls_60.json,1980320,2235940,37,Woman
65,677256,DepthScenes,duration_manipulation_targetAtFixation,jsons/v1_VE250_randls_60.json,http://54.235.29.9/FacialAge/BNav_EC2/DepthDuration/v2_depth_duration_MTurk/v2_DepthDuration_HTML.html#459,459,1366,657,1366,768,8-30-2022,11-4-59,66,depth_duration_stimuli/001222_2014-06-17_16-24-06_260595134347_rgbf000073-resize_0/001222_2014-06-17_16-24-06_260595134347_rgbf000073-resize-original.jpg,250,1.4385,0,3303,243,feet,jsons/v1_VE250_randls_60.json,1980320,2235940,37,Woman
66,677256,DepthScenes,duration_manipulation_targetAtFixation,jsons/v1_VE250_randls_60.json,http://54.235.29.9/FacialAge/BNav_EC2/DepthDuration/v2_depth_duration_MTurk/v2_DepthDuration_HTML.html#459,459,1366,657,1366,768,8-30-2022,11-4-59,67,depth_duration_stimuli/000906_2014-06-08_13-35-43_260595134347_rgbf000155-resize_1/000906_2014-06-08_13-35-43_260595134347_rgbf000155-resize_1-target.png,250,2.8489999999999998,2,3118,245,feet,jsons/v1_VE250_randls_60.json,1980320,2235940,37,Woman
67,677256,DepthScenes,duration_manipulation_targetAtFixation,jsons/v1_VE250_randls_60.json,http://54.235.29.9/FacialAge/BNav_EC2/DepthDuration/v2_depth_duration_MTurk/v2_DepthDuration_HTML.html#459,459,1366,657,1366,768,8-30-2022,11-4-59,68,depth_duration_stimuli/002805_2014-06-22_19-54-03_094959634447_rgbf000079-resize_1/002805_2014-06-22_19-54-03_094959634447_rgbf000079-resize_1-target.png,250,3.1439999999999997,2,4467,256,feet,jsons/v1_VE250_randls_60.json,1980320,2235940,37,Woman
68,677256,DepthScenes,duration_manipulation_targetAtFixation,jsons/v1_VE250_randls_60.json,http://54.235.29.9/FacialAge/BNav_EC2/DepthDuration/v2_depth_duration_MTurk/v2_DepthDuration_HTML.html#459,459,1366,657,1366,768,8-30-2022,11-4-59,69,depth_duration_stimuli/002630_2014-06-24_14-47-50_094959634447_rgbf000055-resize_1/002630_2014-06-24_14-47-50_094959634447_rgbf000055-resize_1-target.png,250,3.0095,2,2824,249,feet,jsons/v1_VE250_randls_60.json,1980320,2235940,37,Woman
69,677256,DepthScenes,duration_manipulation_targetAtFixation,jsons/v1_VE250_randls_60.json,http://54.235.29.9/FacialAge/BNav_EC2/DepthDuration/v2_depth_duration_MTurk/v2_DepthDuration_HTML.html#459,459,1366,657,1366,768,8-30-2022,11-4-59,70,depth_duration_stimuli/002758_2014-06-22_19-11-20_094959634447_rgbf000128-resize_1/002758_2014-06-22_19-11-20_094959634447_rgbf000128-resize_1-target.png,250,2.555,1,3355,234,feet,jsons/v1_VE250_randls_60.json,1980320,2235940,37,Woman
70,677256,DepthScenes,duration_manipulation_targetAtFixation,jsons/v1_VE250_randls_60.json,http://54.235.29.9/FacialAge/BNav_EC2/DepthDuration/v2_depth_duration_MTurk/v2_DepthDuration_HTML.html#459,459,1366,657,1366,768,8-30-2022,11-4-59,71,depth_duration_stimuli/001417_2014-06-19_16-25-36_260595134347_rgbf000115-resize_5/001417_2014-06-19_16-25-36_260595134347_rgbf000115-resize_5-target.png,250,4.6255,2,3259,259,feet,jsons/v1_VE250_randls_60.json,1980320,2235940,37,Woman
71,677256,DepthScenes,duration_manipulation_targetAtFixation,jsons/v1_VE250_randls_60.json,http://54.235.29.9/FacialAge/BNav_EC2/DepthDuration/v2_depth_duration_MTurk/v2_DepthDuration_HTML.html#459,459,1366,657,1366,768,8-30-2022,11-4-59,72,depth_duration_stimuli/003081_2014-06-15_15-19-16_094959634447_rgbf000150-resize_1/003081_2014-06-15_15-19-16_094959634447_rgbf000150-resize_1-target.png,250,3.9125,2,2875,242,feet,jsons/v1_VE250_randls_60.json,1980320,2235940,37,Woman
72,677256,DepthScenes,duration_manipulation_targetAtFixation,jsons/v1_VE250_randls_60.json,http://54.235.29.9/FacialAge/BNav_EC2/DepthDuration/v2_depth_duration_MTurk/v2_DepthDuration_HTML.html#459,459,1366,657,1366,768,8-30-2022,11-4-59,73,depth_duration_stimuli/002509_2014-06-24_13-19-22_094959634447_rgbf000077-resize_0/002509_2014-06-24_13-19-22_094959634447_rgbf000077-resize_0-target.png,250,1.3065,2,2942,258,feet,jsons/v1_VE250_randls_60.json,1980320,2235940,37,Woman
73,677256,DepthScenes,duration_manipulation_targetAtFixation,jsons/v1_VE250_randls_60.json,http://54.235.29.9/FacialAge/BNav_EC2/DepthDuration/v2_depth_duration_MTurk/v2_DepthDuration_HTML.html#459,459,1366,657,1366,768,8-30-2022,11-4-59,74,depth_duration_stimuli/003338_2014-05-20_11-01-23_094959634447_rgbf000051-resize_6/003338_2014-05-20_11-01-23_094959634447_rgbf000051-resize_6-target.png,250,1.693,1,2813,256,feet,jsons/v1_VE250_randls_60.json,1980320,2235940,37,Woman
74,677256,DepthScenes,duration_manipulation_targetAtFixation,jsons/v1_VE250_randls_60.json,http://54.235.29.9/FacialAge/BNav_EC2/DepthDuration/v2_depth_duration_MTurk/v2_DepthDuration_HTML.html#459,459,1366,657,1366,768,8-30-2022,11-4-59,75,depth_duration_stimuli/001449_2014-06-19_17-01-27_260595134347_rgbf000116-resize_2/001449_2014-06-19_17-01-27_260595134347_rgbf000116-resize_2-target.png,250,3.452,2,2365,240,feet,jsons/v1_VE250_randls_60.json,1980320,2235940,37,Woman
75,677256,DepthScenes,duration_manipulation_targetAtFixation,jsons/v1_VE250_randls_60.json,http://54.235.29.9/FacialAge/BNav_EC2/DepthDuration/v2_depth_duration_MTurk/v2_DepthDuration_HTML.html#459,459,1366,657,1366,768,8-30-2022,11-4-59,76,depth_duration_stimuli/001450_2014-06-19_17-02-03_260595134347_rgbf000203-resize_4/001450_2014-06-19_17-02-03_260595134347_rgbf000203-resize_4-target.png,250,4.0106666666667,2,3047,239,feet,jsons/v1_VE250_randls_60.json,1980320,2235940,37,Woman
76,677256,DepthScenes,duration_manipulation_targetAtFixation,jsons/v1_VE250_randls_60.json,http://54.235.29.9/FacialAge/BNav_EC2/DepthDuration/v2_depth_duration_MTurk/v2_DepthDuration_HTML.html#459,459,1366,657,1366,768,8-30-2022,11-4-59,77,depth_duration_stimuli/001810_2014-06-26_20-51-35_260595134347_rgbf000040-resize_3/001810_2014-06-26_20-51-35_260595134347_rgbf000040-resize_3-target.png,250,2.2525,0,3115,247,feet,jsons/v1_VE250_randls_60.json,1980320,2235940,37,Woman
77,677256,DepthScenes,duration_manipulation_targetAtFixation,jsons/v1_VE250_randls_60.json,http://54.235.29.9/FacialAge/BNav_EC2/DepthDuration/v2_depth_duration_MTurk/v2_DepthDuration_HTML.html#459,459,1366,657,1366,768,8-30-2022,11-4-59,78,depth_duration_stimuli/003010_2014-06-15_12-54-35_094959634447_rgbf000112-resize_0/003010_2014-06-15_12-54-35_094959634447_rgbf000112-resize_0-target.png,250,3.1185,1,3610,258,feet,jsons/v1_VE250_randls_60.json,1980320,2235940,37,Woman
78,677256,DepthScenes,duration_manipulation_targetAtFixation,jsons/v1_VE250_randls_60.json,http://54.235.29.9/FacialAge/BNav_EC2/DepthDuration/v2_depth_duration_MTurk/v2_DepthDuration_HTML.html#459,459,1366,657,1366,768,8-30-2022,11-4-59,79,depth_duration_stimuli/002375_2014-06-28_20-13-44_260595134347_rgbf000032-resize_1/002375_2014-06-28_20-13-44_260595134347_rgbf000032-resize_1-target.png,250,4.0175,2,134406,245,feet,jsons/v1_VE250_randls_60.json,1980320,2235940,37,Woman
79,677256,DepthScenes,duration_manipulation_targetAtFixation,jsons/v1_VE250_randls_60.json,http://54.235.29.9/FacialAge/BNav_EC2/DepthDuration/v2_depth_duration_MTurk/v2_DepthDuration_HTML.html#459,459,1366,657,1366,768,8-30-2022,11-4-59,80,depth_duration_stimuli/002657_2014-06-13_15-29-54_094959634447_rgbf000150-resize_1/002657_2014-06-13_15-29-54_094959634447_rgbf000150-resize_1-target.png,250,4.919,3,3983,247,feet,jsons/v1_VE250_randls_60.json,1980320,2235940,37,Woman
80,677256,DepthScenes,duration_manipulation_targetAtFixation,jsons/v1_VE250_randls_60.json,http://54.235.29.9/FacialAge/BNav_EC2/DepthDuration/v2_depth_duration_MTurk/v2_DepthDuration_HTML.html#459,459,1366,657,1366,768,8-30-2022,11-4-59,81,depth_duration_stimuli/002118_2014-06-25_20-32-08_260595134347_rgbf000078-resize_1/002118_2014-06-25_20-32-08_260595134347_rgbf000078-resize_1-target.png,250,2.6460000000000004,2,5735,263,feet,jsons/v1_VE250_randls_60.json,1980320,2235940,37,Woman
81,677256,DepthScenes,duration_manipulation_targetAtFixation,jsons/v1_VE250_randls_60.json,http://54.235.29.9/FacialAge/BNav_EC2/DepthDuration/v2_depth_duration_MTurk/v2_DepthDuration_HTML.html#459,459,1366,657,1366,768,8-30-2022,11-4-59,82,depth_duration_stimuli/001516_2014-06-20_16-25-09_260595134347_rgbf000076-resize_2/001516_2014-06-20_16-25-09_260595134347_rgbf000076-resize_2-target.png,250,1.7445,2,4820,247,feet,jsons/v1_VE250_randls_60.json,1980320,2235940,37,Woman
82,677256,DepthScenes,duration_manipulation_targetAtFixation,jsons/v1_VE250_randls_60.json,http://54.235.29.9/FacialAge/BNav_EC2/DepthDuration/v2_depth_duration_MTurk/v2_DepthDuration_HTML.html#459,459,1366,657,1366,768,8-30-2022,11-4-59,83,depth_duration_stimuli/002570_2014-06-24_13-59-54_094959634447_rgbf000059-resize_0/002570_2014-06-24_13-59-54_094959634447_rgbf000059-resize_0-target.png,250,4.037,4,5437,261,feet,jsons/v1_VE250_randls_60.json,1980320,2235940,37,Woman
83,677256,DepthScenes,duration_manipulation_targetAtFixation,jsons/v1_VE250_randls_60.json,http://54.235.29.9/FacialAge/BNav_EC2/DepthDuration/v2_depth_duration_MTurk/v2_DepthDuration_HTML.html#459,459,1366,657,1366,768,8-30-2022,11-4-59,84,depth_duration_stimuli/002467_2014-06-28_20-38-07_260595134347_rgbf000026-resize_2/002467_2014-06-28_20-38-07_260595134347_rgbf000026-resize_2-target.png,250,4.742,3,47546,254,feet,jsons/v1_VE250_randls_60.json,1980320,2235940,37,Woman
84,677256,DepthScenes,duration_manipulation_targetAtFixation,jsons/v1_VE250_randls_60.json,http://54.235.29.9/FacialAge/BNav_EC2/DepthDuration/v2_depth_duration_MTurk/v2_DepthDuration_HTML.html#459,459,1366,657,1366,768,8-30-2022,11-4-59,85,depth_duration_stimuli/000917_2014-06-09_22-45-29_260595134347_rgbf000149-resize_3/000917_2014-06-09_22-45-29_260595134347_rgbf000149-resize_3-target.png,250,4.1865,0,4570,255,feet,jsons/v1_VE250_randls_60.json,1980320,2235940,37,Woman
85,677256,DepthScenes,duration_manipulation_targetAtFixation,jsons/v1_VE250_randls_60.json,http://54.235.29.9/FacialAge/BNav_EC2/DepthDuration/v2_depth_duration_MTurk/v2_DepthDuration_HTML.html#459,459,1366,657,1366,768,8-30-2022,11-4-59,86,depth_duration_stimuli/002323_2014-06-28_20-01-54_260595134347_rgbf000051-resize_4/002323_2014-06-28_20-01-54_260595134347_rgbf000051-resize_4-target.png,250,3.7310000000000003,2,5698,241,feet,jsons/v1_VE250_randls_60.json,1980320,2235940,37,Woman
86,677256,DepthScenes,duration_manipulation_targetAtFixation,jsons/v1_VE250_randls_60.json,http://54.235.29.9/FacialAge/BNav_EC2/DepthDuration/v2_depth_duration_MTurk/v2_DepthDuration_HTML.html#459,459,1366,657,1366,768,8-30-2022,11-4-59,87,depth_duration_stimuli/000493_2014-06-09_21-01-18_260595134347_rgbf000196-resize_3/000493_2014-06-09_21-01-18_260595134347_rgbf000196-resize_3-target.png,250,3.44,1,6801,251,feet,jsons/v1_VE250_randls_60.json,1980320,2235940,37,Woman
87,677256,DepthScenes,duration_manipulation_targetAtFixation,jsons/v1_VE250_randls_60.json,http://54.235.29.9/FacialAge/BNav_EC2/DepthDuration/v2_depth_duration_MTurk/v2_DepthDuration_HTML.html#459,459,1366,657,1366,768,8-30-2022,11-4-59,88,depth_duration_stimuli/000191_2014-05-12_17-07-38_260595134347_rgbf000199-resize_0/000191_2014-05-12_17-07-38_260595134347_rgbf000199-resize_0-target.png,250,3.7995,3,5679,263,feet,jsons/v1_VE250_randls_60.json,1980320,2235940,37,Woman
88,677256,DepthScenes,duration_manipulation_targetAtFixation,jsons/v1_VE250_randls_60.json,http://54.235.29.9/FacialAge/BNav_EC2/DepthDuration/v2_depth_duration_MTurk/v2_DepthDuration_HTML.html#459,459,1366,657,1366,768,8-30-2022,11-4-59,89,depth_duration_stimuli/000878_2014-06-08_22-52-45_260595134347_rgbf000045-resize_2/000878_2014-06-08_22-52-45_260595134347_rgbf000045-resize_2-target.png,250,2.092,3,10975,235,feet,jsons/v1_VE250_randls_60.json,1980320,2235940,37,Woman
89,677256,DepthScenes,duration_manipulation_targetAtFixation,jsons/v1_VE250_randls_60.json,http://54.235.29.9/FacialAge/BNav_EC2/DepthDuration/v2_depth_duration_MTurk/v2_DepthDuration_HTML.html#459,459,1366,657,1366,768,8-30-2022,11-4-59,90,depth_duration_stimuli/002953_2014-06-08_17-32-18_094959634447_rgbf000059-resize_5/002953_2014-06-08_17-32-18_094959634447_rgbf000059-resize_5-target.png,250,1.551,4,8904,261,feet,jsons/v1_VE250_randls_60.json,1980320,2235940,37,Woman
90,677256,DepthScenes,duration_manipulation_targetAtFixation,jsons/v1_VE250_randls_60.json,http://54.235.29.9/FacialAge/BNav_EC2/DepthDuration/v2_depth_duration_MTurk/v2_DepthDuration_HTML.html#459,459,1366,657,1366,768,8-30-2022,11-4-59,91,depth_duration_stimuli/002663_2014-06-13_15-50-26_094959634447_rgbf000075-resize_1/002663_2014-06-13_15-50-26_094959634447_rgbf000075-resize_1-target.png,250,4.7495,3,11690,250,feet,jsons/v1_VE250_randls_60.json,1980320,2235940,37,Woman
91,677256,DepthScenes,duration_manipulation_targetAtFixation,jsons/v1_VE250_randls_60.json,http://54.235.29.9/FacialAge/BNav_EC2/DepthDuration/v2_depth_duration_MTurk/v2_DepthDuration_HTML.html#459,459,1366,657,1366,768,8-30-2022,11-4-59,92,depth_duration_stimuli/000409_2014-06-04_19-23-33_260595134347_rgbf000067-resize_0/000409_2014-06-04_19-23-33_260595134347_rgbf000067-resize_0-target.png,250,3.7335,3,6299,256,feet,jsons/v1_VE250_randls_60.json,1980320,2235940,37,Woman
92,677256,DepthScenes,duration_manipulation_targetAtFixation,jsons/v1_VE250_randls_60.json,http://54.235.29.9/FacialAge/BNav_EC2/DepthDuration/v2_depth_duration_MTurk/v2_DepthDuration_HTML.html#459,459,1366,657,1366,768,8-30-2022,11-4-59,93,depth_duration_stimuli/001555_2014-06-20_17-12-10_260595134347_rgbf000065-resize_4/001555_2014-06-20_17-12-10_260595134347_rgbf000065-resize_4-target.png,250,1.633,3,29153,244,feet,jsons/v1_VE250_randls_60.json,1980320,2235940,37,Woman
93,677256,DepthScenes,duration_manipulation_targetAtFixation,jsons/v1_VE250_randls_60.json,http://54.235.29.9/FacialAge/BNav_EC2/DepthDuration/v2_depth_duration_MTurk/v2_DepthDuration_HTML.html#459,459,1366,657,1366,768,8-30-2022,11-4-59,94,depth_duration_stimuli/000103_2014-05-14_22-01-17_260595134347_rgbf000152-resize_5/000103_2014-05-14_22-01-17_260595134347_rgbf000152-resize_5-target.png,250,1.993,3,9351,233,feet,jsons/v1_VE250_randls_60.json,1980320,2235940,37,Woman
94,677256,DepthScenes,duration_manipulation_targetAtFixation,jsons/v1_VE250_randls_60.json,http://54.235.29.9/FacialAge/BNav_EC2/DepthDuration/v2_depth_duration_MTurk/v2_DepthDuration_HTML.html#459,459,1366,657,1366,768,8-30-2022,11-4-59,95,depth_duration_stimuli/000788_2014-06-08_22-34-36_260595134347_rgbf000131-resize_1/000788_2014-06-08_22-34-36_260595134347_rgbf000131-resize_1-target.png,250,3.359,2,4900,250,feet,jsons/v1_VE250_randls_60.json,1980320,2235940,37,Woman
95,677256,DepthScenes,duration_manipulation_targetAtFixation,jsons/v1_VE250_randls_60.json,http://54.235.29.9/FacialAge/BNav_EC2/DepthDuration/v2_depth_duration_MTurk/v2_DepthDuration_HTML.html#459,459,1366,657,1366,768,8-30-2022,11-4-59,96,depth_duration_stimuli/001235_2014-06-17_16-37-36_260595134347_rgbf000084-resize_4/001235_2014-06-17_16-37-36_260595134347_rgbf000084-resize_4-target.png,250,3.6605,2,4450,246,feet,jsons/v1_VE250_randls_60.json,1980320,2235940,37,Woman
96,677256,DepthScenes,duration_manipulation_targetAtFixation,jsons/v1_VE250_randls_60.json,http://54.235.29.9/FacialAge/BNav_EC2/DepthDuration/v2_depth_duration_MTurk/v2_DepthDuration_HTML.html#459,459,1366,657,1366,768,8-30-2022,11-4-59,97,depth_duration_stimuli/002964_2014-06-08_17-46-11_094959634447_rgbf000091-resize_4/002964_2014-06-08_17-46-11_094959634447_rgbf000091-resize_4-target.png,250,1.6909999999999998,8,4284,245,feet,jsons/v1_VE250_randls_60.json,1980320,2235940,37,Woman
97,677256,DepthScenes,duration_manipulation_targetAtFixation,jsons/v1_VE250_randls_60.json,http://54.235.29.9/FacialAge/BNav_EC2/DepthDuration/v2_depth_duration_MTurk/v2_DepthDuration_HTML.html#459,459,1366,657,1366,768,8-30-2022,11-4-59,98,depth_duration_stimuli/002136_2014-06-25_21-18-03_260595134347_rgbf000109-resize_3/002136_2014-06-25_21-18-03_260595134347_rgbf000109-resize_3-target.png,250,1.9569999999999999,4,3820,245,feet,jsons/v1_VE250_randls_60.json,1980320,2235940,37,Woman
98,677256,DepthScenes,duration_manipulation_targetAtFixation,jsons/v1_VE250_randls_60.json,http://54.235.29.9/FacialAge/BNav_EC2/DepthDuration/v2_depth_duration_MTurk/v2_DepthDuration_HTML.html#459,459,1366,657,1366,768,8-30-2022,11-4-59,99,depth_duration_stimuli/001540_2014-06-20_17-01-05_260595134347_rgbf000086-resize_2/001540_2014-06-20_17-01-05_260595134347_rgbf000086-resize-original.jpg,250,1.459,3,11248,239,feet,jsons/v1_VE250_randls_60.json,1980320,2235940,37,Woman
99,677256,DepthScenes,duration_manipulation_targetAtFixation,jsons/v1_VE250_randls_60.json,http://54.235.29.9/FacialAge/BNav_EC2/DepthDuration/v2_depth_duration_MTurk/v2_DepthDuration_HTML.html#459,459,1366,657,1366,768,8-30-2022,11-4-59,100,depth_duration_stimuli/001133_2014-06-17_14-49-16_260595134347_rgbf000100-resize_0/001133_2014-06-17_14-49-16_260595134347_rgbf000100-resize_0-target.png,250,4.2115,2,8738,255,feet,jsons/v1_VE250_randls_60.json,1980320,2235940,37,Woman
100,677256,DepthScenes,duration_manipulation_targetAtFixation,jsons/v1_VE250_randls_60.json,http://54.235.29.9/FacialAge/BNav_EC2/DepthDuration/v2_depth_duration_MTurk/v2_DepthDuration_HTML.html#459,459,1366,657,1366,768,8-30-2022,11-4-59,101,depth_duration_stimuli/001132_2014-06-17_14-48-54_260595134347_rgbf000100-resize_2/001132_2014-06-17_14-48-54_260595134347_rgbf000100-resize_2-target.png,250,3.753,3,3874,245,feet,jsons/v1_VE250_randls_60.json,1980320,2235940,37,Woman
101,677256,DepthScenes,duration_manipulation_targetAtFixation,jsons/v1_VE250_randls_60.json,http://54.235.29.9/FacialAge/BNav_EC2/DepthDuration/v2_depth_duration_MTurk/v2_DepthDuration_HTML.html#459,459,1366,657,1366,768,8-30-2022,11-4-59,102,depth_duration_stimuli/000736_2014-06-08_18-24-15_260595134347_rgbf000206-resize_3/000736_2014-06-08_18-24-15_260595134347_rgbf000206-resize_3-target.png,250,3.515,2,4654,262,feet,jsons/v1_VE250_randls_60.json,1980320,2235940,37,Woman
102,677256,DepthScenes,duration_manipulation_targetAtFixation,jsons/v1_VE250_randls_60.json,http://54.235.29.9/FacialAge/BNav_EC2/DepthDuration/v2_depth_duration_MTurk/v2_DepthDuration_HTML.html#459,459,1366,657,1366,768,8-30-2022,11-4-59,103,depth_duration_stimuli/000137_2014-05-20_17-04-49_260595134347_rgbf000120-resize_1/000137_2014-05-20_17-04-49_260595134347_rgbf000120-resize_1-target.png,250,3.786,2,8973,237,feet,jsons/v1_VE250_randls_60.json,1980320,2235940,37,Woman
103,677256,DepthScenes,duration_manipulation_targetAtFixation,jsons/v1_VE250_randls_60.json,http://54.235.29.9/FacialAge/BNav_EC2/DepthDuration/v2_depth_duration_MTurk/v2_DepthDuration_HTML.html#459,459,1366,657,1366,768,8-30-2022,11-4-59,104,depth_duration_stimuli/000692_2014-06-08_13-09-42_260595134347_rgbf000199-resize_2/000692_2014-06-08_13-09-42_260595134347_rgbf000199-resize_2-target.png,250,3.661,2,20183,254,feet,jsons/v1_VE250_randls_60.json,1980320,2235940,37,Woman
104,677256,DepthScenes,duration_manipulation_targetAtFixation,jsons/v1_VE250_randls_60.json,http://54.235.29.9/FacialAge/BNav_EC2/DepthDuration/v2_depth_duration_MTurk/v2_DepthDuration_HTML.html#459,459,1366,657,1366,768,8-30-2022,11-4-59,105,depth_duration_stimuli/001094_2014-06-15_17-36-00_260595134347_rgbf000205-resize_0/001094_2014-06-15_17-36-00_260595134347_rgbf000205-resize_0-target.png,250,4.2175,2,10990,261,feet,jsons/v1_VE250_randls_60.json,1980320,2235940,37,Woman
105,677256,DepthScenes,duration_manipulation_targetAtFixation,jsons/v1_VE250_randls_60.json,http://54.235.29.9/FacialAge/BNav_EC2/DepthDuration/v2_depth_duration_MTurk/v2_DepthDuration_HTML.html#459,459,1366,657,1366,768,8-30-2022,11-4-59,106,depth_duration_stimuli/003621_2014-05-23_18-06-08_094959634447_rgbf000101-resize_1/003621_2014-05-23_18-06-08_094959634447_rgbf000101-resize_1-target.png,250,3.9835,2,21522,251,feet,jsons/v1_VE250_randls_60.json,1980320,2235940,37,Woman
106,677256,DepthScenes,duration_manipulation_targetAtFixation,jsons/v1_VE250_randls_60.json,http://54.235.29.9/FacialAge/BNav_EC2/DepthDuration/v2_depth_duration_MTurk/v2_DepthDuration_HTML.html#459,459,1366,657,1366,768,8-30-2022,11-4-59,107,depth_duration_stimuli/001584_2014-06-20_11-07-43_260595134347_rgbf000002-resize_1/001584_2014-06-20_11-07-43_260595134347_rgbf000002-resize_1-target.png,250,3.53,2,40632,245,feet,jsons/v1_VE250_randls_60.json,1980320,2235940,37,Woman
107,677256,DepthScenes,duration_manipulation_targetAtFixation,jsons/v1_VE250_randls_60.json,http://54.235.29.9/FacialAge/BNav_EC2/DepthDuration/v2_depth_duration_MTurk/v2_DepthDuration_HTML.html#459,459,1366,657,1366,768,8-30-2022,11-4-59,108,depth_duration_stimuli/002784_2014-06-22_19-26-30_094959634447_rgbf000083-resize_3/002784_2014-06-22_19-26-30_094959634447_rgbf000083-resize_3-target.png,250,1.8046666666667,3,9622,256,feet,jsons/v1_VE250_randls_60.json,1980320,2235940,37,Woman
108,677256,DepthScenes,duration_manipulation_targetAtFixation,jsons/v1_VE250_randls_60.json,http://54.235.29.9/FacialAge/BNav_EC2/DepthDuration/v2_depth_duration_MTurk/v2_DepthDuration_HTML.html#459,459,1366,657,1366,768,8-30-2022,11-4-59,109,depth_duration_stimuli/001100_2014-06-15_17-46-26_260595134347_rgbf000225-resize_2/001100_2014-06-15_17-46-26_260595134347_rgbf000225-resize_2-target.png,250,2.24,3,3920,255,feet,jsons/v1_VE250_randls_60.json,1980320,2235940,37,Woman
109,677256,DepthScenes,duration_manipulation_targetAtFixation,jsons/v1_VE250_randls_60.json,http://54.235.29.9/FacialAge/BNav_EC2/DepthDuration/v2_depth_duration_MTurk/v2_DepthDuration_HTML.html#459,459,1366,657,1366,768,8-30-2022,11-4-59,110,depth_duration_stimuli/001806_2014-06-26_20-50-20_260595134347_rgbf000091-resize_1/001806_2014-06-26_20-50-20_260595134347_rgbf000091-resize_1-target.png,250,2.7305,3,5584,240,feet,jsons/v1_VE250_randls_60.json,1980320,2235940,37,Woman
110,677256,DepthScenes,duration_manipulation_targetAtFixation,jsons/v1_VE250_randls_60.json,http://54.235.29.9/FacialAge/BNav_EC2/DepthDuration/v2_depth_duration_MTurk/v2_DepthDuration_HTML.html#459,459,1366,657,1366,768,8-30-2022,11-4-59,111,depth_duration_stimuli/001617_2014-06-20_11-35-32_260595134347_rgbf000066-resize_1/001617_2014-06-20_11-35-32_260595134347_rgbf000066-resize_1-target.png,250,3.7910000000000004,2,4345,262,feet,jsons/v1_VE250_randls_60.json,1980320,2235940,37,Woman
111,677256,DepthScenes,duration_manipulation_targetAtFixation,jsons/v1_VE250_randls_60.json,http://54.235.29.9/FacialAge/BNav_EC2/DepthDuration/v2_depth_duration_MTurk/v2_DepthDuration_HTML.html#459,459,1366,657,1366,768,8-30-2022,11-4-59,112,depth_duration_stimuli/001016_2014-06-09_16-16-10_260595134347_rgbf000112-resize_5/001016_2014-06-09_16-16-10_260595134347_rgbf000112-resize_5-target.png,250,1.6565,9,4771,250,feet,jsons/v1_VE250_randls_60.json,1980320,2235940,37,Woman
112,677256,DepthScenes,duration_manipulation_targetAtFixation,jsons/v1_VE250_randls_60.json,http://54.235.29.9/FacialAge/BNav_EC2/DepthDuration/v2_depth_duration_MTurk/v2_DepthDuration_HTML.html#459,459,1366,657,1366,768,8-30-2022,11-4-59,113,depth_duration_stimuli/002340_2014-06-28_20-05-46_260595134347_rgbf000113-resize_0/002340_2014-06-28_20-05-46_260595134347_rgbf000113-resize_0-target.png,250,2.4735,2,3891,244,feet,jsons/v1_VE250_randls_60.json,1980320,2235940,37,Woman
113,677256,DepthScenes,duration_manipulation_targetAtFixation,jsons/v1_VE250_randls_60.json,http://54.235.29.9/FacialAge/BNav_EC2/DepthDuration/v2_depth_duration_MTurk/v2_DepthDuration_HTML.html#459,459,1366,657,1366,768,8-30-2022,11-4-59,114,depth_duration_stimuli/001029_2014-06-08_13-17-57_260595134347_rgbf000065-resize_1/001029_2014-06-08_13-17-57_260595134347_rgbf000065-resize_1-target.png,250,3.0835,2,4717,244,feet,jsons/v1_VE250_randls_60.json,1980320,2235940,37,Woman
114,677256,DepthScenes,duration_manipulation_targetAtFixation,jsons/v1_VE250_randls_60.json,http://54.235.29.9/FacialAge/BNav_EC2/DepthDuration/v2_depth_duration_MTurk/v2_DepthDuration_HTML.html#459,459,1366,657,1366,768,8-30-2022,11-4-59,115,depth_duration_stimuli/000677_2014-06-08_23-10-32_260595134347_rgbf000158-resize_6/000677_2014-06-08_23-10-32_260595134347_rgbf000158-resize_6-target.png,250,3.556,2,3732,240,feet,jsons/v1_VE250_randls_60.json,1980320,2235940,37,Woman
115,677256,DepthScenes,duration_manipulation_targetAtFixation,jsons/v1_VE250_randls_60.json,http://54.235.29.9/FacialAge/BNav_EC2/DepthDuration/v2_depth_duration_MTurk/v2_DepthDuration_HTML.html#459,459,1366,657,1366,768,8-30-2022,11-4-59,116,depth_duration_stimuli/001170_2014-06-17_15-43-44_260595134347_rgbf000096-resize_6/001170_2014-06-17_15-43-44_260595134347_rgbf000096-resize-original.jpg,250,1.1909999999999998,0,4059,250,feet,jsons/v1_VE250_randls_60.json,1980320,2235940,37,Woman
116,677256,DepthScenes,duration_manipulation_targetAtFixation,jsons/v1_VE250_randls_60.json,http://54.235.29.9/FacialAge/BNav_EC2/DepthDuration/v2_depth_duration_MTurk/v2_DepthDuration_HTML.html#459,459,1366,657,1366,768,8-30-2022,11-4-59,117,depth_duration_stimuli/003070_2014-06-15_14-58-27_094959634447_rgbf000150-resize_3/003070_2014-06-15_14-58-27_094959634447_rgbf000150-resize_3-target.png,250,2.9415,3,89795,239,feet,jsons/v1_VE250_randls_60.json,1980320,2235940,37,Woman
117,677256,DepthScenes,duration_manipulation_targetAtFixation,jsons/v1_VE250_randls_60.json,http://54.235.29.9/FacialAge/BNav_EC2/DepthDuration/v2_depth_duration_MTurk/v2_DepthDuration_HTML.html#459,459,1366,657,1366,768,8-30-2022,11-4-59,118,depth_duration_stimuli/000943_2014-06-09_19-31-07_260595134347_rgbf000128-resize_1/000943_2014-06-09_19-31-07_260595134347_rgbf000128-resize_1-target.png,250,1.9765,3,17310,251,feet,jsons/v1_VE250_randls_60.json,1980320,2235940,37,Woman
118,677256,DepthScenes,duration_manipulation_targetAtFixation,jsons/v1_VE250_randls_60.json,http://54.235.29.9/FacialAge/BNav_EC2/DepthDuration/v2_depth_duration_MTurk/v2_DepthDuration_HTML.html#459,459,1366,657,1366,768,8-30-2022,11-4-59,119,depth_duration_stimuli/000682_2014-06-08_23-14-58_260595134347_rgbf000041-resize_5/000682_2014-06-08_23-14-58_260595134347_rgbf000041-resize_5-target.png,250,2.7239999999999998,3,3849,245,feet,jsons/v1_VE250_randls_60.json,1980320,2235940,37,Woman
119,677256,DepthScenes,duration_manipulation_targetAtFixation,jsons/v1_VE250_randls_60.json,http://54.235.29.9/FacialAge/BNav_EC2/DepthDuration/v2_depth_duration_MTurk/v2_DepthDuration_HTML.html#459,459,1366,657,1366,768,8-30-2022,11-4-59,120,depth_duration_stimuli/001650_2014-06-20_12-09-00_260595134347_rgbf000087-resize_3/001650_2014-06-20_12-09-00_260595134347_rgbf000087-resize_3-target.png,250,1.9505,3,9492,251,feet,jsons/v1_VE250_randls_60.json,1980320,2235940,37,Woman
120,677256,DepthScenes,duration_manipulation_targetAtFixation,jsons/v1_VE250_randls_60.json,http://54.235.29.9/FacialAge/BNav_EC2/DepthDuration/v2_depth_duration_MTurk/v2_DepthDuration_HTML.html#459,459,1366,657,1366,768,8-30-2022,11-4-59,121,depth_duration_stimuli/000368_2014-06-09_15-53-01_260595134347_rgbf000155-resize_2/000368_2014-06-09_15-53-01_260595134347_rgbf000155-resize_2-target.png,250,2.4859999999999998,2,49995,245,feet,jsons/v1_VE250_randls_60.json,1980320,2235940,37,Woman
121,677256,DepthScenes,duration_manipulation_targetAtFixation,jsons/v1_VE250_randls_60.json,http://54.235.29.9/FacialAge/BNav_EC2/DepthDuration/v2_depth_duration_MTurk/v2_DepthDuration_HTML.html#459,459,1366,657,1366,768,8-30-2022,11-4-59,122,depth_duration_stimuli/002678_2014-06-13_16-15-32_094959634447_rgbf000151-resize_6/002678_2014-06-13_16-15-32_094959634447_rgbf000151-resize_6-target.png,250,2.1830000000000003,3,4992,246,feet,jsons/v1_VE250_randls_60.json,1980320,2235940,37,Woman
122,677256,DepthScenes,duration_manipulation_targetAtFixation,jsons/v1_VE250_randls_60.json,http://54.235.29.9/FacialAge/BNav_EC2/DepthDuration/v2_depth_duration_MTurk/v2_DepthDuration_HTML.html#459,459,1366,657,1366,768,8-30-2022,11-4-59,123,depth_duration_stimuli/002272_2014-06-28_18-53-56_260595134347_rgbf000067-resize_2/002272_2014-06-28_18-53-56_260595134347_rgbf000067-resize_2-target.png,250,1.138,0,5088,237,feet,jsons/v1_VE250_randls_60.json,1980320,2235940,37,Woman
123,677256,DepthScenes,duration_manipulation_targetAtFixation,jsons/v1_VE250_randls_60.json,http://54.235.29.9/FacialAge/BNav_EC2/DepthDuration/v2_depth_duration_MTurk/v2_DepthDuration_HTML.html#459,459,1366,657,1366,768,8-30-2022,11-4-59,124,depth_duration_stimuli/001571_2014-06-20_17-21-32_260595134347_rgbf000089-resize_1/001571_2014-06-20_17-21-32_260595134347_rgbf000089-resize_1-target.png,250,1.86,0,32387,248,feet,jsons/v1_VE250_randls_60.json,1980320,2235940,37,Woman
124,677256,DepthScenes,duration_manipulation_targetAtFixation,jsons/v1_VE250_randls_60.json,http://54.235.29.9/FacialAge/BNav_EC2/DepthDuration/v2_depth_duration_MTurk/v2_DepthDuration_HTML.html#459,459,1366,657,1366,768,8-30-2022,11-4-59,125,depth_duration_stimuli/002988_2014-06-15_12-24-20_094959634447_rgbf000150-resize_1/002988_2014-06-15_12-24-20_094959634447_rgbf000150-resize_1-target.png,250,4.7669999999999995,2,29801,250,feet,jsons/v1_VE250_randls_60.json,1980320,2235940,37,Woman
125,677256,DepthScenes,duration_manipulation_targetAtFixation,jsons/v1_VE250_randls_60.json,http://54.235.29.9/FacialAge/BNav_EC2/DepthDuration/v2_depth_duration_MTurk/v2_DepthDuration_HTML.html#459,459,1366,657,1366,768,8-30-2022,11-4-59,126,depth_duration_stimuli/001052_2014-06-08_18-24-54_260595134347_rgbf000130-resize_1/001052_2014-06-08_18-24-54_260595134347_rgbf000130-resize_1-target.png,250,4.1045,2,3628,250,feet,jsons/v1_VE250_randls_60.json,1980320,2235940,37,Woman
126,677256,DepthScenes,duration_manipulation_targetAtFixation,jsons/v1_VE250_randls_60.json,http://54.235.29.9/FacialAge/BNav_EC2/DepthDuration/v2_depth_duration_MTurk/v2_DepthDuration_HTML.html#459,459,1366,657,1366,768,8-30-2022,11-4-59,127,depth_duration_stimuli/001808_2014-06-26_20-50-58_260595134347_rgbf000029-resize_1/001808_2014-06-26_20-50-58_260595134347_rgbf000029-resize_1-target.png,250,4.249,0,4121,246,feet,jsons/v1_VE250_randls_60.json,1980320,2235940,37,Woman
127,677256,DepthScenes,duration_manipulation_targetAtFixation,jsons/v1_VE250_randls_60.json,http://54.235.29.9/FacialAge/BNav_EC2/DepthDuration/v2_depth_duration_MTurk/v2_DepthDuration_HTML.html#459,459,1366,657,1366,768,8-30-2022,11-4-59,128,depth_duration_stimuli/001815_2014-06-26_20-52-55_260595134347_rgbf000020-resize_0/001815_2014-06-26_20-52-55_260595134347_rgbf000020-resize_0-target.png,250,3.3865,2,3178,257,feet,jsons/v1_VE250_randls_60.json,1980320,2235940,37,Woman
128,677256,DepthScenes,duration_manipulation_targetAtFixation,jsons/v1_VE250_randls_60.json,http://54.235.29.9/FacialAge/BNav_EC2/DepthDuration/v2_depth_duration_MTurk/v2_DepthDuration_HTML.html#459,459,1366,657,1366,768,8-30-2022,11-4-59,129,depth_duration_stimuli/001244_2014-06-17_16-47-45_260595134347_rgbf000030-resize_4/001244_2014-06-17_16-47-45_260595134347_rgbf000030-resize_4-target.png,250,2.0425,2,3900,249,feet,jsons/v1_VE250_randls_60.json,1980320,2235940,37,Woman
129,677256,DepthScenes,duration_manipulation_targetAtFixation,jsons/v1_VE250_randls_60.json,http://54.235.29.9/FacialAge/BNav_EC2/DepthDuration/v2_depth_duration_MTurk/v2_DepthDuration_HTML.html#459,459,1366,657,1366,768,8-30-2022,11-4-59,130,depth_duration_stimuli/003495_2014-05-21_16-01-51_094959634447_rgbf000100-resize_3/003495_2014-05-21_16-01-51_094959634447_rgbf000100-resize_3-target.png,250,1.6255,0,3985,249,feet,jsons/v1_VE250_randls_60.json,1980320,2235940,37,Woman
130,677256,DepthScenes,duration_manipulation_targetAtFixation,jsons/v1_VE250_randls_60.json,http://54.235.29.9/FacialAge/BNav_EC2/DepthDuration/v2_depth_duration_MTurk/v2_DepthDuration_HTML.html#459,459,1366,657,1366,768,8-30-2022,11-4-59,131,depth_duration_stimuli/001110_2014-06-15_17-25-28_260595134347_rgbf000150-resize_1/001110_2014-06-15_17-25-28_260595134347_rgbf000150-resize_1-target.png,250,1.7115,2,3966,249,feet,jsons/v1_VE250_randls_60.json,1980320,2235940,37,Woman
131,677256,DepthScenes,duration_manipulation_targetAtFixation,jsons/v1_VE250_randls_60.json,http://54.235.29.9/FacialAge/BNav_EC2/DepthDuration/v2_depth_duration_MTurk/v2_DepthDuration_HTML.html#459,459,1366,657,1366,768,8-30-2022,11-4-59,132,depth_duration_stimuli/000927_2014-06-09_16-32-30_260595134347_rgbf000123-resize_3/000927_2014-06-09_16-32-30_260595134347_rgbf000123-resize_3-target.png,250,2.6785,2,3872,259,feet,jsons/v1_VE250_randls_60.json,1980320,2235940,37,Woman
132,677256,DepthScenes,duration_manipulation_targetAtFixation,jsons/v1_VE250_randls_60.json,http://54.235.29.9/FacialAge/BNav_EC2/DepthDuration/v2_depth_duration_MTurk/v2_DepthDuration_HTML.html#459,459,1366,657,1366,768,8-30-2022,11-4-59,133,depth_duration_stimuli/000436_2014-06-09_22-25-11_260595134347_rgbf000137-resize_1/000436_2014-06-09_22-25-11_260595134347_rgbf000137-resize_1-target.png,250,4.0705,2,4569,261,feet,jsons/v1_VE250_randls_60.json,1980320,2235940,37,Woman
133,677256,DepthScenes,duration_manipulation_targetAtFixation,jsons/v1_VE250_randls_60.json,http://54.235.29.9/FacialAge/BNav_EC2/DepthDuration/v2_depth_duration_MTurk/v2_DepthDuration_HTML.html#459,459,1366,657,1366,768,8-30-2022,11-4-59,134,depth_duration_stimuli/002444_2014-06-28_20-32-08_260595134347_rgbf000027-resize_0/002444_2014-06-28_20-32-08_260595134347_rgbf000027-resize_0-target.png,250,4.388999999999999,2,4435,247,feet,jsons/v1_VE250_randls_60.json,1980320,2235940,37,Woman
134,677256,DepthScenes,duration_manipulation_targetAtFixation,jsons/v1_VE250_randls_60.json,http://54.235.29.9/FacialAge/BNav_EC2/DepthDuration/v2_depth_duration_MTurk/v2_DepthDuration_HTML.html#459,459,1366,657,1366,768,8-30-2022,11-4-59,135,depth_duration_stimuli/002072_2014-06-24_21-48-06_260595134347_rgbf000115-resize_0/002072_2014-06-24_21-48-06_260595134347_rgbf000115-resize-original.jpg,250,4.702,0,4613,248,feet,jsons/v1_VE250_randls_60.json,1980320,2235940,37,Woman
135,677256,DepthScenes,duration_manipulation_targetAtFixation,jsons/v1_VE250_randls_60.json,http://54.235.29.9/FacialAge/BNav_EC2/DepthDuration/v2_depth_duration_MTurk/v2_DepthDuration_HTML.html#459,459,1366,657,1366,768,8-30-2022,11-4-59,136,depth_duration_stimuli/000009_2014-05-26_14-32-05_260595134347_rgbf000034-resize_3/000009_2014-05-26_14-32-05_260595134347_rgbf000034-resize_3-target.png,250,3.8715,2,4574,241,feet,jsons/v1_VE250_randls_60.json,1980320,2235940,37,Woman
136,677256,DepthScenes,duration_manipulation_targetAtFixation,jsons/v1_VE250_randls_60.json,http://54.235.29.9/FacialAge/BNav_EC2/DepthDuration/v2_depth_duration_MTurk/v2_DepthDuration_HTML.html#459,459,1366,657,1366,768,8-30-2022,11-4-59,137,depth_duration_stimuli/001828_2014-06-26_21-40-03_260595134347_rgbf000024-resize_0/001828_2014-06-26_21-40-03_260595134347_rgbf000024-resize_0-target.png,250,4.8260000000000005,2,4325,261,feet,jsons/v1_VE250_randls_60.json,1980320,2235940,37,Woman
137,677256,DepthScenes,duration_manipulation_targetAtFixation,jsons/v1_VE250_randls_60.json,http://54.235.29.9/FacialAge/BNav_EC2/DepthDuration/v2_depth_duration_MTurk/v2_DepthDuration_HTML.html#459,459,1366,657,1366,768,8-30-2022,11-4-59,138,depth_duration_stimuli/002905_2014-06-03_18-04-43_094959634447_rgbf000151-resize_2/002905_2014-06-03_18-04-43_094959634447_rgbf000151-resize_2-target.png,250,2.0295,3,58848,251,feet,jsons/v1_VE250_randls_60.json,1980320,2235940,37,Woman
138,677256,DepthScenes,duration_manipulation_targetAtFixation,jsons/v1_VE250_randls_60.json,http://54.235.29.9/FacialAge/BNav_EC2/DepthDuration/v2_depth_duration_MTurk/v2_DepthDuration_HTML.html#459,459,1366,657,1366,768,8-30-2022,11-4-59,139,depth_duration_stimuli/003423_2014-05-21_10-23-26_094959634447_rgbf002665-resize_2/003423_2014-05-21_10-23-26_094959634447_rgbf002665-resize_2-target.png,250,3.2575,3,27903,246,feet,jsons/v1_VE250_randls_60.json,1980320,2235940,37,Woman
139,677256,DepthScenes,duration_manipulation_targetAtFixation,jsons/v1_VE250_randls_60.json,http://54.235.29.9/FacialAge/BNav_EC2/DepthDuration/v2_depth_duration_MTurk/v2_DepthDuration_HTML.html#459,459,1366,657,1366,768,8-30-2022,11-4-59,140,depth_duration_stimuli/001066_2014-06-08_22-03-20_260595134347_rgbf000066-resize_4/001066_2014-06-08_22-03-20_260595134347_rgbf000066-resize_4-target.png,250,4.2330000000000005,3,7831,251,feet,jsons/v1_VE250_randls_60.json,1980320,2235940,37,Woman
140,677256,DepthScenes,duration_manipulation_targetAtFixation,jsons/v1_VE250_randls_60.json,http://54.235.29.9/FacialAge/BNav_EC2/DepthDuration/v2_depth_duration_MTurk/v2_DepthDuration_HTML.html#459,459,1366,657,1366,768,8-30-2022,11-4-59,141,depth_duration_stimuli/000742_2014-06-08_18-48-09_260595134347_rgbf000164-resize_4/000742_2014-06-08_18-48-09_260595134347_rgbf000164-resize_4-target.png,250,4.632,3,7055,256,feet,jsons/v1_VE250_randls_60.json,1980320,2235940,37,Woman
141,677256,DepthScenes,duration_manipulation_targetAtFixation,jsons/v1_VE250_randls_60.json,http://54.235.29.9/FacialAge/BNav_EC2/DepthDuration/v2_depth_duration_MTurk/v2_DepthDuration_HTML.html#459,459,1366,657,1366,768,8-30-2022,11-4-59,142,depth_duration_stimuli/002279_2014-06-28_18-55-32_260595134347_rgbf000040-resize_5/002279_2014-06-28_18-55-32_260595134347_rgbf000040-resize_5-target.png,250,1.5043333333333,2,3450,242,feet,jsons/v1_VE250_randls_60.json,1980320,2235940,37,Woman
142,677256,DepthScenes,duration_manipulation_targetAtFixation,jsons/v1_VE250_randls_60.json,http://54.235.29.9/FacialAge/BNav_EC2/DepthDuration/v2_depth_duration_MTurk/v2_DepthDuration_HTML.html#459,459,1366,657,1366,768,8-30-2022,11-4-59,143,depth_duration_stimuli/000635_2014-06-08_16-38-42_260595134347_rgbf000106-resize_1/000635_2014-06-08_16-38-42_260595134347_rgbf000106-resize_1-target.png,250,2.074,2,7035,262,feet,jsons/v1_VE250_randls_60.json,1980320,2235940,37,Woman
143,677256,DepthScenes,duration_manipulation_targetAtFixation,jsons/v1_VE250_randls_60.json,http://54.235.29.9/FacialAge/BNav_EC2/DepthDuration/v2_depth_duration_MTurk/v2_DepthDuration_HTML.html#459,459,1366,657,1366,768,8-30-2022,11-4-59,144,depth_duration_stimuli/003292_2014-05-14_21-53-49_094959634447_rgbf000100-resize_2/003292_2014-05-14_21-53-49_094959634447_rgbf000100-resize_2-target.png,250,3.4815,2,3101,250,feet,jsons/v1_VE250_randls_60.json,1980320,2235940,37,Woman
144,677256,DepthScenes,duration_manipulation_targetAtFixation,jsons/v1_VE250_randls_60.json,http://54.235.29.9/FacialAge/BNav_EC2/DepthDuration/v2_depth_duration_MTurk/v2_DepthDuration_HTML.html#459,459,1366,657,1366,768,8-30-2022,11-4-59,145,depth_duration_stimuli/002639_2014-06-24_14-51-37_094959634447_rgbf000074-resize_4/002639_2014-06-24_14-51-37_094959634447_rgbf000074-resize_4-target.png,250,4.0375,2,4609,246,feet,jsons/v1_VE250_randls_60.json,1980320,2235940,37,Woman
145,677256,DepthScenes,duration_manipulation_targetAtFixation,jsons/v1_VE250_randls_60.json,http://54.235.29.9/FacialAge/BNav_EC2/DepthDuration/v2_depth_duration_MTurk/v2_DepthDuration_HTML.html#459,459,1366,657,1366,768,8-30-2022,11-4-59,146,depth_duration_stimuli/001498_2014-06-19_17-45-14_260595134347_rgbf000129-resize_4/001498_2014-06-19_17-45-14_260595134347_rgbf000129-resize-original.jpg,250,1.4075,2,12106,240,feet,jsons/v1_VE250_randls_60.json,1980320,2235940,37,Woman
146,677256,DepthScenes,duration_manipulation_targetAtFixation,jsons/v1_VE250_randls_60.json,http://54.235.29.9/FacialAge/BNav_EC2/DepthDuration/v2_depth_duration_MTurk/v2_DepthDuration_HTML.html#459,459,1366,657,1366,768,8-30-2022,11-4-59,147,depth_duration_stimuli/001570_2014-06-20_17-21-09_260595134347_rgbf000135-resize_4/001570_2014-06-20_17-21-09_260595134347_rgbf000135-resize_4-target.png,250,4.467,3,4251,256,feet,jsons/v1_VE250_randls_60.json,1980320,2235940,37,Woman
147,677256,DepthScenes,duration_manipulation_targetAtFixation,jsons/v1_VE250_randls_60.json,http://54.235.29.9/FacialAge/BNav_EC2/DepthDuration/v2_depth_duration_MTurk/v2_DepthDuration_HTML.html#459,459,1366,657,1366,768,8-30-2022,11-4-59,148,depth_duration_stimuli/001392_2014-06-19_16-07-59_260595134347_rgbf000046-resize_1/001392_2014-06-19_16-07-59_260595134347_rgbf000046-resize_1-target.png,250,4.135,2,42362,263,feet,jsons/v1_VE250_randls_60.json,1980320,2235940,37,Woman
148,677256,DepthScenes,duration_manipulation_targetAtFixation,jsons/v1_VE250_randls_60.json,http://54.235.29.9/FacialAge/BNav_EC2/DepthDuration/v2_depth_duration_MTurk/v2_DepthDuration_HTML.html#459,459,1366,657,1366,768,8-30-2022,11-4-59,149,depth_duration_stimuli/000773_2014-06-08_22-24-54_260595134347_rgbf000093-resize_1/000773_2014-06-08_22-24-54_260595134347_rgbf000093-resize_1-target.png,250,4.973,3,4157,240,feet,jsons/v1_VE250_randls_60.json,1980320,2235940,37,Woman
149,677256,DepthScenes,duration_manipulation_targetAtFixation,jsons/v1_VE250_randls_60.json,http://54.235.29.9/FacialAge/BNav_EC2/DepthDuration/v2_depth_duration_MTurk/v2_DepthDuration_HTML.html#459,459,1366,657,1366,768,8-30-2022,11-4-59,150,depth_duration_stimuli/002414_2014-06-28_20-24-58_260595134347_rgbf000067-resize_4/002414_2014-06-28_20-24-58_260595134347_rgbf000067-resize_4-target.png,250,4.363,3,3842,245,feet,jsons/v1_VE250_randls_60.json,1980320,2235940,37,Woman
150,677256,DepthScenes,duration_manipulation_targetAtFixation,jsons/v1_VE250_randls_60.json,http://54.235.29.9/FacialAge/BNav_EC2/DepthDuration/v2_depth_duration_MTurk/v2_DepthDuration_HTML.html#459,459,1366,657,1366,768,8-30-2022,11-4-59,151,depth_duration_stimuli/000469_2014-06-09_19-42-10_260595134347_rgbf000081-resize_1/000469_2014-06-09_19-42-10_260595134347_rgbf000081-resize_1-target.png,250,1.652,2,20920,251,feet,jsons/v1_VE250_randls_60.json,1980320,2235940,37,Woman
151,677256,DepthScenes,duration_manipulation_targetAtFixation,jsons/v1_VE250_randls_60.json,http://54.235.29.9/FacialAge/BNav_EC2/DepthDuration/v2_depth_duration_MTurk/v2_DepthDuration_HTML.html#459,459,1366,657,1366,768,8-30-2022,11-4-59,152,depth_duration_stimuli/000483_2014-06-09_20-41-45_260595134347_rgbf000116-resize_4/000483_2014-06-09_20-41-45_260595134347_rgbf000116-resize_4-target.png,250,1.337,3,3018,240,feet,jsons/v1_VE250_randls_60.json,1980320,2235940,37,Woman
152,677256,DepthScenes,duration_manipulation_targetAtFixation,jsons/v1_VE250_randls_60.json,http://54.235.29.9/FacialAge/BNav_EC2/DepthDuration/v2_depth_duration_MTurk/v2_DepthDuration_HTML.html#459,459,1366,657,1366,768,8-30-2022,11-4-59,153,depth_duration_stimuli/001164_2014-06-17_15-35-46_260595134347_rgbf000085-resize_3/001164_2014-06-17_15-35-46_260595134347_rgbf000085-resize_3-target.png,250,2.354,3,3921,256,feet,jsons/v1_VE250_randls_60.json,1980320,2235940,37,Woman
153,677256,DepthScenes,duration_manipulation_targetAtFixation,jsons/v1_VE250_randls_60.json,http://54.235.29.9/FacialAge/BNav_EC2/DepthDuration/v2_depth_duration_MTurk/v2_DepthDuration_HTML.html#459,459,1366,657,1366,768,8-30-2022,11-4-59,154,depth_duration_stimuli/001136_2014-06-17_15-19-41_260595134347_rgbf000076-resize_3/001136_2014-06-17_15-19-41_260595134347_rgbf000076-resize_3-target.png,250,1.8655,2,3176,239,feet,jsons/v1_VE250_randls_60.json,1980320,2235940,37,Woman
154,677256,DepthScenes,duration_manipulation_targetAtFixation,jsons/v1_VE250_randls_60.json,http://54.235.29.9/FacialAge/BNav_EC2/DepthDuration/v2_depth_duration_MTurk/v2_DepthDuration_HTML.html#459,459,1366,657,1366,768,8-30-2022,11-4-59,155,depth_duration_stimuli/002043_2014-06-24_20-29-38_260595134347_rgbf000039-resize_4/002043_2014-06-24_20-29-38_260595134347_rgbf000039-resize_4-target.png,250,2.8435,2,10538,250,feet,jsons/v1_VE250_randls_60.json,1980320,2235940,37,Woman
155,677256,DepthScenes,duration_manipulation_targetAtFixation,jsons/v1_VE250_randls_60.json,http://54.235.29.9/FacialAge/BNav_EC2/DepthDuration/v2_depth_duration_MTurk/v2_DepthDuration_HTML.html#459,459,1366,657,1366,768,8-30-2022,11-4-59,156,depth_duration_stimuli/003048_2014-06-15_13-49-43_094959634447_rgbf000150-resize_1/003048_2014-06-15_13-49-43_094959634447_rgbf000150-resize_1-target.png,250,4.0035,3,450821,267,feet,jsons/v1_VE250_randls_60.json,1980320,2235940,37,Woman
156,677256,DepthScenes,duration_manipulation_targetAtFixation,jsons/v1_VE250_randls_60.json,http://54.235.29.9/FacialAge/BNav_EC2/DepthDuration/v2_depth_duration_MTurk/v2_DepthDuration_HTML.html#459,459,1366,657,1366,768,8-30-2022,11-4-59,157,depth_duration_stimuli/000810_2014-06-08_17-20-01_260595134347_rgbf000105-resize_0/000810_2014-06-08_17-20-01_260595134347_rgbf000105-resize_0-target.png,250,1.4865,3,5862,251,feet,jsons/v1_VE250_randls_60.json,1980320,2235940,37,Woman
157,677256,DepthScenes,duration_manipulation_targetAtFixation,jsons/v1_VE250_randls_60.json,http://54.235.29.9/FacialAge/BNav_EC2/DepthDuration/v2_depth_duration_MTurk/v2_DepthDuration_HTML.html#459,459,1366,657,1366,768,8-30-2022,11-4-59,158,depth_duration_stimuli/001214_2014-06-17_16-13-55_260595134347_rgbf000111-resize_0/001214_2014-06-17_16-13-55_260595134347_rgbf000111-resize_0-target.png,250,2.6505,3,4691,251,feet,jsons/v1_VE250_randls_60.json,1980320,2235940,37,Woman
158,677256,DepthScenes,duration_manipulation_targetAtFixation,jsons/v1_VE250_randls_60.json,http://54.235.29.9/FacialAge/BNav_EC2/DepthDuration/v2_depth_duration_MTurk/v2_DepthDuration_HTML.html#459,459,1366,657,1366,768,8-30-2022,11-4-59,159,depth_duration_stimuli/002057_2014-06-24_21-00-13_260595134347_rgbf000120-resize_1/002057_2014-06-24_21-00-13_260595134347_rgbf000120-resize_1-target.png,250,2.967,3,6417,239,feet,jsons/v1_VE250_randls_60.json,1980320,2235940,37,Woman
159,677256,DepthScenes,duration_manipulation_targetAtFixation,jsons/v1_VE250_randls_60.json,http://54.235.29.9/FacialAge/BNav_EC2/DepthDuration/v2_depth_duration_MTurk/v2_DepthDuration_HTML.html#459,459,1366,657,1366,768,8-30-2022,11-4-59,160,depth_duration_stimuli/000709_2014-06-08_13-51-55_260595134347_rgbf000068-resize_3/000709_2014-06-08_13-51-55_260595134347_rgbf000068-resize_3-target.png,250,1.8030000000000002,4,4804,264,feet,jsons/v1_VE250_randls_60.json,1980320,2235940,37,Woman
160,677256,DepthScenes,duration_manipulation_targetAtFixation,jsons/v1_VE250_randls_60.json,http://54.235.29.9/FacialAge/BNav_EC2/DepthDuration/v2_depth_duration_MTurk/v2_DepthDuration_HTML.html#459,459,1366,657,1366,768,8-30-2022,11-4-59,161,depth_duration_stimuli/000486_2014-06-09_20-47-20_260595134347_rgbf000143-resize_2/000486_2014-06-09_20-47-20_260595134347_rgbf000143-resize_2-target.png,250,4.8325,4,4340,250,feet,jsons/v1_VE250_randls_60.json,1980320,2235940,37,Woman
161,677256,DepthScenes,duration_manipulation_targetAtFixation,jsons/v1_VE250_randls_60.json,http://54.235.29.9/FacialAge/BNav_EC2/DepthDuration/v2_depth_duration_MTurk/v2_DepthDuration_HTML.html#459,459,1366,657,1366,768,8-30-2022,11-4-59,162,depth_duration_stimuli/003083_2014-06-15_15-21-03_094959634447_rgbf000063-resize_1/003083_2014-06-15_15-21-03_094959634447_rgbf000063-resize_1-target.png,250,4.1405,5,8625,245,feet,jsons/v1_VE250_randls_60.json,1980320,2235940,37,Woman
162,677256,DepthScenes,duration_manipulation_targetAtFixation,jsons/v1_VE250_randls_60.json,http://54.235.29.9/FacialAge/BNav_EC2/DepthDuration/v2_depth_duration_MTurk/v2_DepthDuration_HTML.html#459,459,1366,657,1366,768,8-30-2022,11-4-59,163,depth_duration_stimuli/001059_2014-06-08_21-53-27_260595134347_rgbf000061-resize_4/001059_2014-06-08_21-53-27_260595134347_rgbf000061-resize_4-target.png,250,2.4185,3,4265,248,feet,jsons/v1_VE250_randls_60.json,1980320,2235940,37,Woman
163,677256,DepthScenes,duration_manipulation_targetAtFixation,jsons/v1_VE250_randls_60.json,http://54.235.29.9/FacialAge/BNav_EC2/DepthDuration/v2_depth_duration_MTurk/v2_DepthDuration_HTML.html#459,459,1366,657,1366,768,8-30-2022,11-4-59,164,depth_duration_stimuli/001032_2014-06-08_13-23-17_260595134347_rgbf000021-resize_3/001032_2014-06-08_13-23-17_260595134347_rgbf000021-resize_3-target.png,250,3.2725,3,4298,241,feet,jsons/v1_VE250_randls_60.json,1980320,2235940,37,Woman
