,subjID,experimentName,versionName,sequenceName,url,selected_row,windowWidth,windowHeight,screenWidth,screenHeight,startDate,startTime,trial,stimulus,duration,actual_depth,depth_estimate,trial_RT,log_sceneDuration,unitSelection,seq_filepath,experimentTime,totalTime,age,gender
0,679013,DepthScenes,duration_manipulation_targetAtFixation,jsons/VE125_randls_2_rotated.json,http://54.235.29.9/FacialAge/BNav_EC2/DepthDuration/v2_depth_duration_MTurk/v2_DepthDuration_HTML.html#14,14,1360,625,1360,768,8-21-2022,11-47-56,1,depth_duration_stimuli/002209_2014-06-28_18-36-10_260595134347_rgbf000051-resize_1/002209_2014-06-28_18-36-10_260595134347_rgbf000051-resize_1-target.png,125,2.057,14,11229,124,meters,jsons/VE125_randls_2_rotated.json,1784310,2341462,67,Man
1,679013,DepthScenes,duration_manipulation_targetAtFixation,jsons/VE125_randls_2_rotated.json,http://54.235.29.9/FacialAge/BNav_EC2/DepthDuration/v2_depth_duration_MTurk/v2_DepthDuration_HTML.html#14,14,1360,625,1360,768,8-21-2022,11-47-56,2,depth_duration_stimuli/002763_2014-06-22_19-13-10_094959634447_rgbf000075-resize_4/002763_2014-06-22_19-13-10_094959634447_rgbf000075-resize_4-target.png,125,1.68375,13,9165,125,meters,jsons/VE125_randls_2_rotated.json,1784310,2341462,67,Man
2,679013,DepthScenes,duration_manipulation_targetAtFixation,jsons/VE125_randls_2_rotated.json,http://54.235.29.9/FacialAge/BNav_EC2/DepthDuration/v2_depth_duration_MTurk/v2_DepthDuration_HTML.html#14,14,1360,625,1360,768,8-21-2022,11-47-56,3,depth_duration_stimuli/000780_2014-06-08_22-28-29_260595134347_rgbf000126-resize_1/000780_2014-06-08_22-28-29_260595134347_rgbf000126-resize_1-target.png,125,3.3825,23,12480,125,meters,jsons/VE125_randls_2_rotated.json,1784310,2341462,67,Man
3,679013,DepthScenes,duration_manipulation_targetAtFixation,jsons/VE125_randls_2_rotated.json,http://54.235.29.9/FacialAge/BNav_EC2/DepthDuration/v2_depth_duration_MTurk/v2_DepthDuration_HTML.html#14,14,1360,625,1360,768,8-21-2022,11-47-56,4,depth_duration_stimuli/002445_2014-06-28_20-32-16_260595134347_rgbf000029-resize_4/002445_2014-06-28_20-32-16_260595134347_rgbf000029-resize_4-target.png,125,2.5315,25,9320,123,meters,jsons/VE125_randls_2_rotated.json,1784310,2341462,67,Man
4,679013,DepthScenes,duration_manipulation_targetAtFixation,jsons/VE125_randls_2_rotated.json,http://54.235.29.9/FacialAge/BNav_EC2/DepthDuration/v2_depth_duration_MTurk/v2_DepthDuration_HTML.html#14,14,1360,625,1360,768,8-21-2022,11-47-56,5,depth_duration_stimuli/002805_2014-06-22_19-54-03_094959634447_rgbf000079-resize_1/002805_2014-06-22_19-54-03_094959634447_rgbf000079-resize_1-target.png,125,3.1439999999999997,35,18753,125,meters,jsons/VE125_randls_2_rotated.json,1784310,2341462,67,Man
5,679013,DepthScenes,duration_manipulation_targetAtFixation,jsons/VE125_randls_2_rotated.json,http://54.235.29.9/FacialAge/BNav_EC2/DepthDuration/v2_depth_duration_MTurk/v2_DepthDuration_HTML.html#14,14,1360,625,1360,768,8-21-2022,11-47-56,6,depth_duration_stimuli/000906_2014-06-08_13-35-43_260595134347_rgbf000155-resize_1/000906_2014-06-08_13-35-43_260595134347_rgbf000155-resize_1-target.png,125,2.8489999999999998,34,7292,124,meters,jsons/VE125_randls_2_rotated.json,1784310,2341462,67,Man
6,679013,DepthScenes,duration_manipulation_targetAtFixation,jsons/VE125_randls_2_rotated.json,http://54.235.29.9/FacialAge/BNav_EC2/DepthDuration/v2_depth_duration_MTurk/v2_DepthDuration_HTML.html#14,14,1360,625,1360,768,8-21-2022,11-47-56,7,depth_duration_stimuli/000556_2014-06-09_22-42-56_260595134347_rgbf000214-resize_1/000556_2014-06-09_22-42-56_260595134347_rgbf000214-resize_1-target.png,125,4.8415,36,11753,124,meters,jsons/VE125_randls_2_rotated.json,1784310,2341462,67,Man
7,679013,DepthScenes,duration_manipulation_targetAtFixation,jsons/VE125_randls_2_rotated.json,http://54.235.29.9/FacialAge/BNav_EC2/DepthDuration/v2_depth_duration_MTurk/v2_DepthDuration_HTML.html#14,14,1360,625,1360,768,8-21-2022,11-47-56,8,depth_duration_stimuli/001158_2014-06-17_15-32-16_260595134347_rgbf000138-resize_2/001158_2014-06-17_15-32-16_260595134347_rgbf000138-resize_2-target.png,125,4.5315,35,5323,125,meters,jsons/VE125_randls_2_rotated.json,1784310,2341462,67,Man
8,679013,DepthScenes,duration_manipulation_targetAtFixation,jsons/VE125_randls_2_rotated.json,http://54.235.29.9/FacialAge/BNav_EC2/DepthDuration/v2_depth_duration_MTurk/v2_DepthDuration_HTML.html#14,14,1360,625,1360,768,8-21-2022,11-47-56,9,depth_duration_stimuli/002444_2014-06-28_20-32-08_260595134347_rgbf000027-resize_0/002444_2014-06-28_20-32-08_260595134347_rgbf000027-resize_0-target.png,125,4.388999999999999,37,9063,123,meters,jsons/VE125_randls_2_rotated.json,1784310,2341462,67,Man
9,679013,DepthScenes,duration_manipulation_targetAtFixation,jsons/VE125_randls_2_rotated.json,http://54.235.29.9/FacialAge/BNav_EC2/DepthDuration/v2_depth_duration_MTurk/v2_DepthDuration_HTML.html#14,14,1360,625,1360,768,8-21-2022,11-47-56,10,depth_duration_stimuli/000436_2014-06-09_22-25-11_260595134347_rgbf000137-resize_1/000436_2014-06-09_22-25-11_260595134347_rgbf000137-resize_1-target.png,125,4.0705,27,12376,125,meters,jsons/VE125_randls_2_rotated.json,1784310,2341462,67,Man
10,679013,DepthScenes,duration_manipulation_targetAtFixation,jsons/VE125_randls_2_rotated.json,http://54.235.29.9/FacialAge/BNav_EC2/DepthDuration/v2_depth_duration_MTurk/v2_DepthDuration_HTML.html#14,14,1360,625,1360,768,8-21-2022,11-47-56,11,depth_duration_stimuli/002953_2014-06-08_17-32-18_094959634447_rgbf000059-resize_5/002953_2014-06-08_17-32-18_094959634447_rgbf000059-resize_5-target.png,125,1.551,23,9993,124,meters,jsons/VE125_randls_2_rotated.json,1784310,2341462,67,Man
11,679013,DepthScenes,duration_manipulation_targetAtFixation,jsons/VE125_randls_2_rotated.json,http://54.235.29.9/FacialAge/BNav_EC2/DepthDuration/v2_depth_duration_MTurk/v2_DepthDuration_HTML.html#14,14,1360,625,1360,768,8-21-2022,11-47-56,12,depth_duration_stimuli/000878_2014-06-08_22-52-45_260595134347_rgbf000045-resize_2/000878_2014-06-08_22-52-45_260595134347_rgbf000045-resize_2-target.png,125,2.092,32,8328,124,meters,jsons/VE125_randls_2_rotated.json,1784310,2341462,67,Man
12,679013,DepthScenes,duration_manipulation_targetAtFixation,jsons/VE125_randls_2_rotated.json,http://54.235.29.9/FacialAge/BNav_EC2/DepthDuration/v2_depth_duration_MTurk/v2_DepthDuration_HTML.html#14,14,1360,625,1360,768,8-21-2022,11-47-56,13,depth_duration_stimuli/001516_2014-06-20_16-25-09_260595134347_rgbf000076-resize_2/001516_2014-06-20_16-25-09_260595134347_rgbf000076-resize_2-target.png,125,1.7445,24,11848,124,meters,jsons/VE125_randls_2_rotated.json,1784310,2341462,67,Man
13,679013,DepthScenes,duration_manipulation_targetAtFixation,jsons/VE125_randls_2_rotated.json,http://54.235.29.9/FacialAge/BNav_EC2/DepthDuration/v2_depth_duration_MTurk/v2_DepthDuration_HTML.html#14,14,1360,625,1360,768,8-21-2022,11-47-56,14,depth_duration_stimuli/002118_2014-06-25_20-32-08_260595134347_rgbf000078-resize_1/002118_2014-06-25_20-32-08_260595134347_rgbf000078-resize_1-target.png,125,2.6460000000000004,25,10410,124,meters,jsons/VE125_randls_2_rotated.json,1784310,2341462,67,Man
14,679013,DepthScenes,duration_manipulation_targetAtFixation,jsons/VE125_randls_2_rotated.json,http://54.235.29.9/FacialAge/BNav_EC2/DepthDuration/v2_depth_duration_MTurk/v2_DepthDuration_HTML.html#14,14,1360,625,1360,768,8-21-2022,11-47-56,15,depth_duration_stimuli/003083_2014-06-15_15-21-03_094959634447_rgbf000063-resize_1/003083_2014-06-15_15-21-03_094959634447_rgbf000063-resize_1-target.png,125,4.1405,24,11258,124,meters,jsons/VE125_randls_2_rotated.json,1784310,2341462,67,Man
15,679013,DepthScenes,duration_manipulation_targetAtFixation,jsons/VE125_randls_2_rotated.json,http://54.235.29.9/FacialAge/BNav_EC2/DepthDuration/v2_depth_duration_MTurk/v2_DepthDuration_HTML.html#14,14,1360,625,1360,768,8-21-2022,11-47-56,16,depth_duration_stimuli/000486_2014-06-09_20-47-20_260595134347_rgbf000143-resize_2/000486_2014-06-09_20-47-20_260595134347_rgbf000143-resize_2-target.png,125,4.8325,14,7254,125,meters,jsons/VE125_randls_2_rotated.json,1784310,2341462,67,Man
16,679013,DepthScenes,duration_manipulation_targetAtFixation,jsons/VE125_randls_2_rotated.json,http://54.235.29.9/FacialAge/BNav_EC2/DepthDuration/v2_depth_duration_MTurk/v2_DepthDuration_HTML.html#14,14,1360,625,1360,768,8-21-2022,11-47-56,17,depth_duration_stimuli/000691_2014-06-08_13-08-50_260595134347_rgbf000132-resize_3/000691_2014-06-08_13-08-50_260595134347_rgbf000132-resize_3-target.png,125,4.1530000000000005,34,13040,125,meters,jsons/VE125_randls_2_rotated.json,1784310,2341462,67,Man
17,679013,DepthScenes,duration_manipulation_targetAtFixation,jsons/VE125_randls_2_rotated.json,http://54.235.29.9/FacialAge/BNav_EC2/DepthDuration/v2_depth_duration_MTurk/v2_DepthDuration_HTML.html#14,14,1360,625,1360,768,8-21-2022,11-47-56,18,depth_duration_stimuli/002213_2014-06-28_18-37-58_260595134347_rgbf000055-resize_1/002213_2014-06-28_18-37-58_260595134347_rgbf000055-resize_1-target.png,125,3.62,24,6596,125,meters,jsons/VE125_randls_2_rotated.json,1784310,2341462,67,Man
18,679013,DepthScenes,duration_manipulation_targetAtFixation,jsons/VE125_randls_2_rotated.json,http://54.235.29.9/FacialAge/BNav_EC2/DepthDuration/v2_depth_duration_MTurk/v2_DepthDuration_HTML.html#14,14,1360,625,1360,768,8-21-2022,11-47-56,19,depth_duration_stimuli/001498_2014-06-19_17-45-14_260595134347_rgbf000129-resize_4/001498_2014-06-19_17-45-14_260595134347_rgbf000129-resize-original.jpg,125,1.4075,0,12708,125,meters,jsons/VE125_randls_2_rotated.json,1784310,2341462,67,Man
19,679013,DepthScenes,duration_manipulation_targetAtFixation,jsons/VE125_randls_2_rotated.json,http://54.235.29.9/FacialAge/BNav_EC2/DepthDuration/v2_depth_duration_MTurk/v2_DepthDuration_HTML.html#14,14,1360,625,1360,768,8-21-2022,11-47-56,20,depth_duration_stimuli/003129_2014-05-12_10-48-10_094959634447_rgbf000100-resize_0/003129_2014-05-12_10-48-10_094959634447_rgbf000100-resize_0-target.png,125,4.9305,34,13289,125,meters,jsons/VE125_randls_2_rotated.json,1784310,2341462,67,Man
20,679013,DepthScenes,duration_manipulation_targetAtFixation,jsons/VE125_randls_2_rotated.json,http://54.235.29.9/FacialAge/BNav_EC2/DepthDuration/v2_depth_duration_MTurk/v2_DepthDuration_HTML.html#14,14,1360,625,1360,768,8-21-2022,11-47-56,21,depth_duration_stimuli/000414_2014-06-04_19-49-13_260595134347_rgbf000044-resize_0/000414_2014-06-04_19-49-13_260595134347_rgbf000044-resize_0-target.png,125,4.329,45,6048,124,meters,jsons/VE125_randls_2_rotated.json,1784310,2341462,67,Man
21,679013,DepthScenes,duration_manipulation_targetAtFixation,jsons/VE125_randls_2_rotated.json,http://54.235.29.9/FacialAge/BNav_EC2/DepthDuration/v2_depth_duration_MTurk/v2_DepthDuration_HTML.html#14,14,1360,625,1360,768,8-21-2022,11-47-56,22,depth_duration_stimuli/002103_2014-06-25_20-00-40_260595134347_rgbf000049-resize_0/002103_2014-06-25_20-00-40_260595134347_rgbf000049-resize_0-target.png,125,4.105,15,18161,126,meters,jsons/VE125_randls_2_rotated.json,1784310,2341462,67,Man
22,679013,DepthScenes,duration_manipulation_targetAtFixation,jsons/VE125_randls_2_rotated.json,http://54.235.29.9/FacialAge/BNav_EC2/DepthDuration/v2_depth_duration_MTurk/v2_DepthDuration_HTML.html#14,14,1360,625,1360,768,8-21-2022,11-47-56,23,depth_duration_stimuli/002039_2014-06-24_20-22-38_260595134347_rgbf000084-resize_1/002039_2014-06-24_20-22-38_260595134347_rgbf000084-resize_1-target.png,125,4.408,32,8786,125,meters,jsons/VE125_randls_2_rotated.json,1784310,2341462,67,Man
23,679013,DepthScenes,duration_manipulation_targetAtFixation,jsons/VE125_randls_2_rotated.json,http://54.235.29.9/FacialAge/BNav_EC2/DepthDuration/v2_depth_duration_MTurk/v2_DepthDuration_HTML.html#14,14,1360,625,1360,768,8-21-2022,11-47-56,24,depth_duration_stimuli/002414_2014-06-28_20-24-58_260595134347_rgbf000067-resize_4/002414_2014-06-28_20-24-58_260595134347_rgbf000067-resize_4-target.png,125,4.363,34,9757,125,meters,jsons/VE125_randls_2_rotated.json,1784310,2341462,67,Man
24,679013,DepthScenes,duration_manipulation_targetAtFixation,jsons/VE125_randls_2_rotated.json,http://54.235.29.9/FacialAge/BNav_EC2/DepthDuration/v2_depth_duration_MTurk/v2_DepthDuration_HTML.html#14,14,1360,625,1360,768,8-21-2022,11-47-56,25,depth_duration_stimuli/000773_2014-06-08_22-24-54_260595134347_rgbf000093-resize_1/000773_2014-06-08_22-24-54_260595134347_rgbf000093-resize_1-target.png,125,4.973,14,8076,123,meters,jsons/VE125_randls_2_rotated.json,1784310,2341462,67,Man
25,679013,DepthScenes,duration_manipulation_targetAtFixation,jsons/VE125_randls_2_rotated.json,http://54.235.29.9/FacialAge/BNav_EC2/DepthDuration/v2_depth_duration_MTurk/v2_DepthDuration_HTML.html#14,14,1360,625,1360,768,8-21-2022,11-47-56,26,depth_duration_stimuli/003010_2014-06-15_12-54-35_094959634447_rgbf000112-resize_0/003010_2014-06-15_12-54-35_094959634447_rgbf000112-resize_0-target.png,125,3.1185,34,7171,124,meters,jsons/VE125_randls_2_rotated.json,1784310,2341462,67,Man
26,679013,DepthScenes,duration_manipulation_targetAtFixation,jsons/VE125_randls_2_rotated.json,http://54.235.29.9/FacialAge/BNav_EC2/DepthDuration/v2_depth_duration_MTurk/v2_DepthDuration_HTML.html#14,14,1360,625,1360,768,8-21-2022,11-47-56,27,depth_duration_stimuli/001810_2014-06-26_20-51-35_260595134347_rgbf000040-resize_3/001810_2014-06-26_20-51-35_260595134347_rgbf000040-resize_3-target.png,125,2.2525,34,7682,125,meters,jsons/VE125_randls_2_rotated.json,1784310,2341462,67,Man
27,679013,DepthScenes,duration_manipulation_targetAtFixation,jsons/VE125_randls_2_rotated.json,http://54.235.29.9/FacialAge/BNav_EC2/DepthDuration/v2_depth_duration_MTurk/v2_DepthDuration_HTML.html#14,14,1360,625,1360,768,8-21-2022,11-47-56,28,depth_duration_stimuli/001100_2014-06-15_17-46-26_260595134347_rgbf000225-resize_2/001100_2014-06-15_17-46-26_260595134347_rgbf000225-resize_2-target.png,125,2.24,15,6863,124,meters,jsons/VE125_randls_2_rotated.json,1784310,2341462,67,Man
28,679013,DepthScenes,duration_manipulation_targetAtFixation,jsons/VE125_randls_2_rotated.json,http://54.235.29.9/FacialAge/BNav_EC2/DepthDuration/v2_depth_duration_MTurk/v2_DepthDuration_HTML.html#14,14,1360,625,1360,768,8-21-2022,11-47-56,29,depth_duration_stimuli/002784_2014-06-22_19-26-30_094959634447_rgbf000083-resize_3/002784_2014-06-22_19-26-30_094959634447_rgbf000083-resize_3-target.png,125,1.8046666666667,20,12365,124,meters,jsons/VE125_randls_2_rotated.json,1784310,2341462,67,Man
29,679013,DepthScenes,duration_manipulation_targetAtFixation,jsons/VE125_randls_2_rotated.json,http://54.235.29.9/FacialAge/BNav_EC2/DepthDuration/v2_depth_duration_MTurk/v2_DepthDuration_HTML.html#14,14,1360,625,1360,768,8-21-2022,11-47-56,30,depth_duration_stimuli/002072_2014-06-24_21-48-06_260595134347_rgbf000115-resize_0/002072_2014-06-24_21-48-06_260595134347_rgbf000115-resize-original.jpg,125,4.702,0,15507,126,meters,jsons/VE125_randls_2_rotated.json,1784310,2341462,67,Man
30,679013,DepthScenes,duration_manipulation_targetAtFixation,jsons/VE125_randls_2_rotated.json,http://54.235.29.9/FacialAge/BNav_EC2/DepthDuration/v2_depth_duration_MTurk/v2_DepthDuration_HTML.html#14,14,1360,625,1360,768,8-21-2022,11-47-56,31,depth_duration_stimuli/001392_2014-06-19_16-07-59_260595134347_rgbf000046-resize_1/001392_2014-06-19_16-07-59_260595134347_rgbf000046-resize_1-target.png,125,4.135,45,11740,125,meters,jsons/VE125_randls_2_rotated.json,1784310,2341462,67,Man
31,679013,DepthScenes,duration_manipulation_targetAtFixation,jsons/VE125_randls_2_rotated.json,http://54.235.29.9/FacialAge/BNav_EC2/DepthDuration/v2_depth_duration_MTurk/v2_DepthDuration_HTML.html#14,14,1360,625,1360,768,8-21-2022,11-47-56,32,depth_duration_stimuli/001570_2014-06-20_17-21-09_260595134347_rgbf000135-resize_4/001570_2014-06-20_17-21-09_260595134347_rgbf000135-resize_4-target.png,125,4.467,35,10839,124,meters,jsons/VE125_randls_2_rotated.json,1784310,2341462,67,Man
32,679013,DepthScenes,duration_manipulation_targetAtFixation,jsons/VE125_randls_2_rotated.json,http://54.235.29.9/FacialAge/BNav_EC2/DepthDuration/v2_depth_duration_MTurk/v2_DepthDuration_HTML.html#14,14,1360,625,1360,768,8-21-2022,11-47-56,33,depth_duration_stimuli/001052_2014-06-08_18-24-54_260595134347_rgbf000130-resize_1/001052_2014-06-08_18-24-54_260595134347_rgbf000130-resize_1-target.png,125,4.1045,45,13816,124,meters,jsons/VE125_randls_2_rotated.json,1784310,2341462,67,Man
33,679013,DepthScenes,duration_manipulation_targetAtFixation,jsons/VE125_randls_2_rotated.json,http://54.235.29.9/FacialAge/BNav_EC2/DepthDuration/v2_depth_duration_MTurk/v2_DepthDuration_HTML.html#14,14,1360,625,1360,768,8-21-2022,11-47-56,34,depth_duration_stimuli/002988_2014-06-15_12-24-20_094959634447_rgbf000150-resize_1/002988_2014-06-15_12-24-20_094959634447_rgbf000150-resize_1-target.png,125,4.7669999999999995,45,6860,124,meters,jsons/VE125_randls_2_rotated.json,1784310,2341462,67,Man
34,679013,DepthScenes,duration_manipulation_targetAtFixation,jsons/VE125_randls_2_rotated.json,http://54.235.29.9/FacialAge/BNav_EC2/DepthDuration/v2_depth_duration_MTurk/v2_DepthDuration_HTML.html#14,14,1360,625,1360,768,8-21-2022,11-47-56,35,depth_duration_stimuli/000665_2014-06-09_20-42-35_260595134347_rgbf000110-resize_1/000665_2014-06-09_20-42-35_260595134347_rgbf000110-resize_1-target.png,125,3.057,43,9957,125,meters,jsons/VE125_randls_2_rotated.json,1784310,2341462,67,Man
35,679013,DepthScenes,duration_manipulation_targetAtFixation,jsons/VE125_randls_2_rotated.json,http://54.235.29.9/FacialAge/BNav_EC2/DepthDuration/v2_depth_duration_MTurk/v2_DepthDuration_HTML.html#14,14,1360,625,1360,768,8-21-2022,11-47-56,36,depth_duration_stimuli/001150_2014-06-17_15-27-34_260595134347_rgbf000108-resize_2/001150_2014-06-17_15-27-34_260595134347_rgbf000108-resize_2-target.png,125,4.0325,24,124546,125,meters,jsons/VE125_randls_2_rotated.json,1784310,2341462,67,Man
36,679013,DepthScenes,duration_manipulation_targetAtFixation,jsons/VE125_randls_2_rotated.json,http://54.235.29.9/FacialAge/BNav_EC2/DepthDuration/v2_depth_duration_MTurk/v2_DepthDuration_HTML.html#14,14,1360,625,1360,768,8-21-2022,11-47-56,37,depth_duration_stimuli/000137_2014-05-20_17-04-49_260595134347_rgbf000120-resize_1/000137_2014-05-20_17-04-49_260595134347_rgbf000120-resize_1-target.png,125,3.786,35,29805,126,meters,jsons/VE125_randls_2_rotated.json,1784310,2341462,67,Man
37,679013,DepthScenes,duration_manipulation_targetAtFixation,jsons/VE125_randls_2_rotated.json,http://54.235.29.9/FacialAge/BNav_EC2/DepthDuration/v2_depth_duration_MTurk/v2_DepthDuration_HTML.html#14,14,1360,625,1360,768,8-21-2022,11-47-56,38,depth_duration_stimuli/000736_2014-06-08_18-24-15_260595134347_rgbf000206-resize_3/000736_2014-06-08_18-24-15_260595134347_rgbf000206-resize_3-target.png,125,3.515,34,6939,124,meters,jsons/VE125_randls_2_rotated.json,1784310,2341462,67,Man
38,679013,DepthScenes,duration_manipulation_targetAtFixation,jsons/VE125_randls_2_rotated.json,http://54.235.29.9/FacialAge/BNav_EC2/DepthDuration/v2_depth_duration_MTurk/v2_DepthDuration_HTML.html#14,14,1360,625,1360,768,8-21-2022,11-47-56,39,depth_duration_stimuli/001235_2014-06-17_16-37-36_260595134347_rgbf000084-resize_4/001235_2014-06-17_16-37-36_260595134347_rgbf000084-resize_4-target.png,125,3.6605,34,10066,124,meters,jsons/VE125_randls_2_rotated.json,1784310,2341462,67,Man
39,679013,DepthScenes,duration_manipulation_targetAtFixation,jsons/VE125_randls_2_rotated.json,http://54.235.29.9/FacialAge/BNav_EC2/DepthDuration/v2_depth_duration_MTurk/v2_DepthDuration_HTML.html#14,14,1360,625,1360,768,8-21-2022,11-47-56,40,depth_duration_stimuli/000788_2014-06-08_22-34-36_260595134347_rgbf000131-resize_1/000788_2014-06-08_22-34-36_260595134347_rgbf000131-resize_1-target.png,125,3.359,23,7341,125,meters,jsons/VE125_randls_2_rotated.json,1784310,2341462,67,Man
40,679013,DepthScenes,duration_manipulation_targetAtFixation,jsons/VE125_randls_2_rotated.json,http://54.235.29.9/FacialAge/BNav_EC2/DepthDuration/v2_depth_duration_MTurk/v2_DepthDuration_HTML.html#14,14,1360,625,1360,768,8-21-2022,11-47-56,41,depth_duration_stimuli/002995_2014-06-15_12-31-26_094959634447_rgbf000150-resize_1/002995_2014-06-15_12-31-26_094959634447_rgbf000150-resize_1-target.png,125,3.8360000000000003,34,5331,124,meters,jsons/VE125_randls_2_rotated.json,1784310,2341462,67,Man
41,679013,DepthScenes,duration_manipulation_targetAtFixation,jsons/VE125_randls_2_rotated.json,http://54.235.29.9/FacialAge/BNav_EC2/DepthDuration/v2_depth_duration_MTurk/v2_DepthDuration_HTML.html#14,14,1360,625,1360,768,8-21-2022,11-47-56,42,depth_duration_stimuli/002748_2014-06-22_19-07-22_094959634447_rgbf000078-resize_1/002748_2014-06-22_19-07-22_094959634447_rgbf000078-resize_1-target.png,125,4.6705,23,13624,125,meters,jsons/VE125_randls_2_rotated.json,1784310,2341462,67,Man
42,679013,DepthScenes,duration_manipulation_targetAtFixation,jsons/VE125_randls_2_rotated.json,http://54.235.29.9/FacialAge/BNav_EC2/DepthDuration/v2_depth_duration_MTurk/v2_DepthDuration_HTML.html#14,14,1360,625,1360,768,8-21-2022,11-47-56,43,depth_duration_stimuli/000854_2014-06-09_19-43-13_260595134347_rgbf000066-resize_0/000854_2014-06-09_19-43-13_260595134347_rgbf000066-resize_0-target.png,125,3.068,34,7683,125,meters,jsons/VE125_randls_2_rotated.json,1784310,2341462,67,Man
43,679013,DepthScenes,duration_manipulation_targetAtFixation,jsons/VE125_randls_2_rotated.json,http://54.235.29.9/FacialAge/BNav_EC2/DepthDuration/v2_depth_duration_MTurk/v2_DepthDuration_HTML.html#14,14,1360,625,1360,768,8-21-2022,11-47-56,44,depth_duration_stimuli/000758_2014-06-08_22-05-08_260595134347_rgbf000085-resize_0/000758_2014-06-08_22-05-08_260595134347_rgbf000085-resize_0-target.png,125,3.3810000000000002,45,10845,125,meters,jsons/VE125_randls_2_rotated.json,1784310,2341462,67,Man
44,679013,DepthScenes,duration_manipulation_targetAtFixation,jsons/VE125_randls_2_rotated.json,http://54.235.29.9/FacialAge/BNav_EC2/DepthDuration/v2_depth_duration_MTurk/v2_DepthDuration_HTML.html#14,14,1360,625,1360,768,8-21-2022,11-47-56,45,depth_duration_stimuli/001584_2014-06-20_11-07-43_260595134347_rgbf000002-resize_1/001584_2014-06-20_11-07-43_260595134347_rgbf000002-resize_1-target.png,125,3.53,34,7969,125,meters,jsons/VE125_randls_2_rotated.json,1784310,2341462,67,Man
45,679013,DepthScenes,duration_manipulation_targetAtFixation,jsons/VE125_randls_2_rotated.json,http://54.235.29.9/FacialAge/BNav_EC2/DepthDuration/v2_depth_duration_MTurk/v2_DepthDuration_HTML.html#14,14,1360,625,1360,768,8-21-2022,11-47-56,46,depth_duration_stimuli/003621_2014-05-23_18-06-08_094959634447_rgbf000101-resize_1/003621_2014-05-23_18-06-08_094959634447_rgbf000101-resize_1-target.png,125,3.9835,45,11291,124,meters,jsons/VE125_randls_2_rotated.json,1784310,2341462,67,Man
46,679013,DepthScenes,duration_manipulation_targetAtFixation,jsons/VE125_randls_2_rotated.json,http://54.235.29.9/FacialAge/BNav_EC2/DepthDuration/v2_depth_duration_MTurk/v2_DepthDuration_HTML.html#14,14,1360,625,1360,768,8-21-2022,11-47-56,47,depth_duration_stimuli/000409_2014-06-04_19-23-33_260595134347_rgbf000067-resize_0/000409_2014-06-04_19-23-33_260595134347_rgbf000067-resize_0-target.png,125,3.7335,34,7284,126,meters,jsons/VE125_randls_2_rotated.json,1784310,2341462,67,Man
47,679013,DepthScenes,duration_manipulation_targetAtFixation,jsons/VE125_randls_2_rotated.json,http://54.235.29.9/FacialAge/BNav_EC2/DepthDuration/v2_depth_duration_MTurk/v2_DepthDuration_HTML.html#14,14,1360,625,1360,768,8-21-2022,11-47-56,48,depth_duration_stimuli/002663_2014-06-13_15-50-26_094959634447_rgbf000075-resize_1/002663_2014-06-13_15-50-26_094959634447_rgbf000075-resize_1-target.png,125,4.7495,42,14259,124,meters,jsons/VE125_randls_2_rotated.json,1784310,2341462,67,Man
48,679013,DepthScenes,duration_manipulation_targetAtFixation,jsons/VE125_randls_2_rotated.json,http://54.235.29.9/FacialAge/BNav_EC2/DepthDuration/v2_depth_duration_MTurk/v2_DepthDuration_HTML.html#14,14,1360,625,1360,768,8-21-2022,11-47-56,49,depth_duration_stimuli/001170_2014-06-17_15-43-44_260595134347_rgbf000096-resize_6/001170_2014-06-17_15-43-44_260595134347_rgbf000096-resize-original.jpg,125,1.1909999999999998,45,9948,124,meters,jsons/VE125_randls_2_rotated.json,1784310,2341462,67,Man
49,679013,DepthScenes,duration_manipulation_targetAtFixation,jsons/VE125_randls_2_rotated.json,http://54.235.29.9/FacialAge/BNav_EC2/DepthDuration/v2_depth_duration_MTurk/v2_DepthDuration_HTML.html#14,14,1360,625,1360,768,8-21-2022,11-47-56,50,depth_duration_stimuli/003079_2014-06-15_15-18-20_094959634447_rgbf000152-resize_8/003079_2014-06-15_15-18-20_094959634447_rgbf000152-resize_8-target.png,125,2.8775,23,9047,124,meters,jsons/VE125_randls_2_rotated.json,1784310,2341462,67,Man
50,679013,DepthScenes,duration_manipulation_targetAtFixation,jsons/VE125_randls_2_rotated.json,http://54.235.29.9/FacialAge/BNav_EC2/DepthDuration/v2_depth_duration_MTurk/v2_DepthDuration_HTML.html#14,14,1360,625,1360,768,8-21-2022,11-47-56,51,depth_duration_stimuli/000506_2014-06-08_23-21-00_260595134347_rgbf000070-resize_7/000506_2014-06-08_23-21-00_260595134347_rgbf000070-resize_7-target.png,125,4.0585,45,6646,124,meters,jsons/VE125_randls_2_rotated.json,1784310,2341462,67,Man
51,679013,DepthScenes,duration_manipulation_targetAtFixation,jsons/VE125_randls_2_rotated.json,http://54.235.29.9/FacialAge/BNav_EC2/DepthDuration/v2_depth_duration_MTurk/v2_DepthDuration_HTML.html#14,14,1360,625,1360,768,8-21-2022,11-47-56,52,depth_duration_stimuli/001617_2014-06-20_11-35-32_260595134347_rgbf000066-resize_1/001617_2014-06-20_11-35-32_260595134347_rgbf000066-resize_1-target.png,125,3.7910000000000004,35,12743,124,meters,jsons/VE125_randls_2_rotated.json,1784310,2341462,67,Man
52,679013,DepthScenes,duration_manipulation_targetAtFixation,jsons/VE125_randls_2_rotated.json,http://54.235.29.9/FacialAge/BNav_EC2/DepthDuration/v2_depth_duration_MTurk/v2_DepthDuration_HTML.html#14,14,1360,625,1360,768,8-21-2022,11-47-56,53,depth_duration_stimuli/001806_2014-06-26_20-50-20_260595134347_rgbf000091-resize_1/001806_2014-06-26_20-50-20_260595134347_rgbf000091-resize_1-target.png,125,2.7305,23,10512,124,meters,jsons/VE125_randls_2_rotated.json,1784310,2341462,67,Man
53,679013,DepthScenes,duration_manipulation_targetAtFixation,jsons/VE125_randls_2_rotated.json,http://54.235.29.9/FacialAge/BNav_EC2/DepthDuration/v2_depth_duration_MTurk/v2_DepthDuration_HTML.html#14,14,1360,625,1360,768,8-21-2022,11-47-56,54,depth_duration_stimuli/000709_2014-06-08_13-51-55_260595134347_rgbf000068-resize_3/000709_2014-06-08_13-51-55_260595134347_rgbf000068-resize_3-target.png,125,1.8030000000000002,35,11455,125,meters,jsons/VE125_randls_2_rotated.json,1784310,2341462,67,Man
54,679013,DepthScenes,duration_manipulation_targetAtFixation,jsons/VE125_randls_2_rotated.json,http://54.235.29.9/FacialAge/BNav_EC2/DepthDuration/v2_depth_duration_MTurk/v2_DepthDuration_HTML.html#14,14,1360,625,1360,768,8-21-2022,11-47-56,55,depth_duration_stimuli/002057_2014-06-24_21-00-13_260595134347_rgbf000120-resize_1/002057_2014-06-24_21-00-13_260595134347_rgbf000120-resize_1-target.png,125,2.967,45,7512,124,meters,jsons/VE125_randls_2_rotated.json,1784310,2341462,67,Man
55,679013,DepthScenes,duration_manipulation_targetAtFixation,jsons/VE125_randls_2_rotated.json,http://54.235.29.9/FacialAge/BNav_EC2/DepthDuration/v2_depth_duration_MTurk/v2_DepthDuration_HTML.html#14,14,1360,625,1360,768,8-21-2022,11-47-56,56,depth_duration_stimuli/001032_2014-06-08_13-23-17_260595134347_rgbf000021-resize_3/001032_2014-06-08_13-23-17_260595134347_rgbf000021-resize_3-target.png,125,3.2725,67,69081,124,meters,jsons/VE125_randls_2_rotated.json,1784310,2341462,67,Man
56,679013,DepthScenes,duration_manipulation_targetAtFixation,jsons/VE125_randls_2_rotated.json,http://54.235.29.9/FacialAge/BNav_EC2/DepthDuration/v2_depth_duration_MTurk/v2_DepthDuration_HTML.html#14,14,1360,625,1360,768,8-21-2022,11-47-56,57,depth_duration_stimuli/001059_2014-06-08_21-53-27_260595134347_rgbf000061-resize_4/001059_2014-06-08_21-53-27_260595134347_rgbf000061-resize_4-target.png,125,2.4185,67,6078,125,meters,jsons/VE125_randls_2_rotated.json,1784310,2341462,67,Man
57,679013,DepthScenes,duration_manipulation_targetAtFixation,jsons/VE125_randls_2_rotated.json,http://54.235.29.9/FacialAge/BNav_EC2/DepthDuration/v2_depth_duration_MTurk/v2_DepthDuration_HTML.html#14,14,1360,625,1360,768,8-21-2022,11-47-56,58,depth_duration_stimuli/001094_2014-06-15_17-36-00_260595134347_rgbf000205-resize_0/001094_2014-06-15_17-36-00_260595134347_rgbf000205-resize_0-target.png,125,4.2175,34,9476,124,meters,jsons/VE125_randls_2_rotated.json,1784310,2341462,67,Man
58,679013,DepthScenes,duration_manipulation_targetAtFixation,jsons/VE125_randls_2_rotated.json,http://54.235.29.9/FacialAge/BNav_EC2/DepthDuration/v2_depth_duration_MTurk/v2_DepthDuration_HTML.html#14,14,1360,625,1360,768,8-21-2022,11-47-56,59,depth_duration_stimuli/000692_2014-06-08_13-09-42_260595134347_rgbf000199-resize_2/000692_2014-06-08_13-09-42_260595134347_rgbf000199-resize_2-target.png,125,3.661,45,5682,125,meters,jsons/VE125_randls_2_rotated.json,1784310,2341462,67,Man
59,679013,DepthScenes,duration_manipulation_targetAtFixation,jsons/VE125_randls_2_rotated.json,http://54.235.29.9/FacialAge/BNav_EC2/DepthDuration/v2_depth_duration_MTurk/v2_DepthDuration_HTML.html#14,14,1360,625,1360,768,8-21-2022,11-47-56,60,depth_duration_stimuli/002344_2014-06-28_20-06-29_260595134347_rgbf000030-resize_1/002344_2014-06-28_20-06-29_260595134347_rgbf000030-resize_1-target.png,125,1.5795,23,10326,125,meters,jsons/VE125_randls_2_rotated.json,1784310,2341462,67,Man
60,679013,DepthScenes,duration_manipulation_targetAtFixation,jsons/VE125_randls_2_rotated.json,http://54.235.29.9/FacialAge/BNav_EC2/DepthDuration/v2_depth_duration_MTurk/v2_DepthDuration_HTML.html#14,14,1360,625,1360,768,8-21-2022,11-47-56,61,depth_duration_stimuli/002725_2014-06-22_11-47-51_094959634447_rgbf000070-resize_1/002725_2014-06-22_11-47-51_094959634447_rgbf000070-resize_1-target.png,125,2.195,34,7827,126,meters,jsons/VE125_randls_2_rotated.json,1784310,2341462,67,Man
61,679013,DepthScenes,duration_manipulation_targetAtFixation,jsons/VE125_randls_2_rotated.json,http://54.235.29.9/FacialAge/BNav_EC2/DepthDuration/v2_depth_duration_MTurk/v2_DepthDuration_HTML.html#14,14,1360,625,1360,768,8-21-2022,11-47-56,62,depth_duration_stimuli/000635_2014-06-08_16-38-42_260595134347_rgbf000106-resize_1/000635_2014-06-08_16-38-42_260595134347_rgbf000106-resize_1-target.png,125,2.074,45,15561,123,meters,jsons/VE125_randls_2_rotated.json,1784310,2341462,67,Man
62,679013,DepthScenes,duration_manipulation_targetAtFixation,jsons/VE125_randls_2_rotated.json,http://54.235.29.9/FacialAge/BNav_EC2/DepthDuration/v2_depth_duration_MTurk/v2_DepthDuration_HTML.html#14,14,1360,625,1360,768,8-21-2022,11-47-56,63,depth_duration_stimuli/002279_2014-06-28_18-55-32_260595134347_rgbf000040-resize_5/002279_2014-06-28_18-55-32_260595134347_rgbf000040-resize_5-target.png,125,1.5043333333333,45,7077,124,meters,jsons/VE125_randls_2_rotated.json,1784310,2341462,67,Man
63,679013,DepthScenes,duration_manipulation_targetAtFixation,jsons/VE125_randls_2_rotated.json,http://54.235.29.9/FacialAge/BNav_EC2/DepthDuration/v2_depth_duration_MTurk/v2_DepthDuration_HTML.html#14,14,1360,625,1360,768,8-21-2022,11-47-56,64,depth_duration_stimuli/001828_2014-06-26_21-40-03_260595134347_rgbf000024-resize_0/001828_2014-06-26_21-40-03_260595134347_rgbf000024-resize_0-target.png,125,4.8260000000000005,23,7149,124,meters,jsons/VE125_randls_2_rotated.json,1784310,2341462,67,Man
64,679013,DepthScenes,duration_manipulation_targetAtFixation,jsons/VE125_randls_2_rotated.json,http://54.235.29.9/FacialAge/BNav_EC2/DepthDuration/v2_depth_duration_MTurk/v2_DepthDuration_HTML.html#14,14,1360,625,1360,768,8-21-2022,11-47-56,65,depth_duration_stimuli/000009_2014-05-26_14-32-05_260595134347_rgbf000034-resize_3/000009_2014-05-26_14-32-05_260595134347_rgbf000034-resize_3-target.png,125,3.8715,34,13027,124,meters,jsons/VE125_randls_2_rotated.json,1784310,2341462,67,Man
65,679013,DepthScenes,duration_manipulation_targetAtFixation,jsons/VE125_randls_2_rotated.json,http://54.235.29.9/FacialAge/BNav_EC2/DepthDuration/v2_depth_duration_MTurk/v2_DepthDuration_HTML.html#14,14,1360,625,1360,768,8-21-2022,11-47-56,66,depth_duration_stimuli/001540_2014-06-20_17-01-05_260595134347_rgbf000086-resize_2/001540_2014-06-20_17-01-05_260595134347_rgbf000086-resize-original.jpg,125,1.459,0,8879,124,meters,jsons/VE125_randls_2_rotated.json,1784310,2341462,67,Man
66,679013,DepthScenes,duration_manipulation_targetAtFixation,jsons/VE125_randls_2_rotated.json,http://54.235.29.9/FacialAge/BNav_EC2/DepthDuration/v2_depth_duration_MTurk/v2_DepthDuration_HTML.html#14,14,1360,625,1360,768,8-21-2022,11-47-56,67,depth_duration_stimuli/003228_2014-05-14_13-42-35_094959634447_rgbf000101-resize_1/003228_2014-05-14_13-42-35_094959634447_rgbf000101-resize_1-target.png,125,1.9680000000000002,23,5860,125,meters,jsons/VE125_randls_2_rotated.json,1784310,2341462,67,Man
67,679013,DepthScenes,duration_manipulation_targetAtFixation,jsons/VE125_randls_2_rotated.json,http://54.235.29.9/FacialAge/BNav_EC2/DepthDuration/v2_depth_duration_MTurk/v2_DepthDuration_HTML.html#14,14,1360,625,1360,768,8-21-2022,11-47-56,68,depth_duration_stimuli/002600_2014-06-24_14-27-04_094959634447_rgbf000074-resize_2/002600_2014-06-24_14-27-04_094959634447_rgbf000074-resize_2-target.png,125,2.7575,23,10773,122,meters,jsons/VE125_randls_2_rotated.json,1784310,2341462,67,Man
68,679013,DepthScenes,duration_manipulation_targetAtFixation,jsons/VE125_randls_2_rotated.json,http://54.235.29.9/FacialAge/BNav_EC2/DepthDuration/v2_depth_duration_MTurk/v2_DepthDuration_HTML.html#14,14,1360,625,1360,768,8-21-2022,11-47-56,69,depth_duration_stimuli/003490_2014-05-21_15-50-11_094959634447_rgbf000101-resize_3/003490_2014-05-21_15-50-11_094959634447_rgbf000101-resize_3-target.png,125,3.6445,34,13557,125,meters,jsons/VE125_randls_2_rotated.json,1784310,2341462,67,Man
69,679013,DepthScenes,duration_manipulation_targetAtFixation,jsons/VE125_randls_2_rotated.json,http://54.235.29.9/FacialAge/BNav_EC2/DepthDuration/v2_depth_duration_MTurk/v2_DepthDuration_HTML.html#14,14,1360,625,1360,768,8-21-2022,11-47-56,70,depth_duration_stimuli/001175_2014-06-17_15-45-55_260595134347_rgbf000129-resize_4/001175_2014-06-17_15-45-55_260595134347_rgbf000129-resize_4-target.png,125,4.255,34,6550,125,meters,jsons/VE125_randls_2_rotated.json,1784310,2341462,67,Man
70,679013,DepthScenes,duration_manipulation_targetAtFixation,jsons/VE125_randls_2_rotated.json,http://54.235.29.9/FacialAge/BNav_EC2/DepthDuration/v2_depth_duration_MTurk/v2_DepthDuration_HTML.html#14,14,1360,625,1360,768,8-21-2022,11-47-56,71,depth_duration_stimuli/000749_2014-06-08_21-55-06_260595134347_rgbf000070-resize_2/000749_2014-06-08_21-55-06_260595134347_rgbf000070-resize_2-target.png,125,2.331,45,5689,125,meters,jsons/VE125_randls_2_rotated.json,1784310,2341462,67,Man
71,679013,DepthScenes,duration_manipulation_targetAtFixation,jsons/VE125_randls_2_rotated.json,http://54.235.29.9/FacialAge/BNav_EC2/DepthDuration/v2_depth_duration_MTurk/v2_DepthDuration_HTML.html#14,14,1360,625,1360,768,8-21-2022,11-47-56,72,depth_duration_stimuli/002788_2014-06-22_19-36-03_094959634447_rgbf000088-resize_2/002788_2014-06-22_19-36-03_094959634447_rgbf000088-resize_2-target.png,125,1.6465,24,9600,125,meters,jsons/VE125_randls_2_rotated.json,1784310,2341462,67,Man
72,679013,DepthScenes,duration_manipulation_targetAtFixation,jsons/VE125_randls_2_rotated.json,http://54.235.29.9/FacialAge/BNav_EC2/DepthDuration/v2_depth_duration_MTurk/v2_DepthDuration_HTML.html#14,14,1360,625,1360,768,8-21-2022,11-47-56,73,depth_duration_stimuli/002199_2014-06-28_18-33-56_260595134347_rgbf000074-resize_0/002199_2014-06-28_18-33-56_260595134347_rgbf000074-resize_0-target.png,125,1.996,23,6874,123,meters,jsons/VE125_randls_2_rotated.json,1784310,2341462,67,Man
73,679013,DepthScenes,duration_manipulation_targetAtFixation,jsons/VE125_randls_2_rotated.json,http://54.235.29.9/FacialAge/BNav_EC2/DepthDuration/v2_depth_duration_MTurk/v2_DepthDuration_HTML.html#14,14,1360,625,1360,768,8-21-2022,11-47-56,74,depth_duration_stimuli/001056_2014-06-08_18-46-44_260595134347_rgbf000068-resize_0/001056_2014-06-08_18-46-44_260595134347_rgbf000068-resize_0-target.png,125,2.6625,24,14588,124,meters,jsons/VE125_randls_2_rotated.json,1784310,2341462,67,Man
74,679013,DepthScenes,duration_manipulation_targetAtFixation,jsons/VE125_randls_2_rotated.json,http://54.235.29.9/FacialAge/BNav_EC2/DepthDuration/v2_depth_duration_MTurk/v2_DepthDuration_HTML.html#14,14,1360,625,1360,768,8-21-2022,11-47-56,75,depth_duration_stimuli/001571_2014-06-20_17-21-32_260595134347_rgbf000089-resize_1/001571_2014-06-20_17-21-32_260595134347_rgbf000089-resize_1-target.png,125,1.86,34,7689,124,meters,jsons/VE125_randls_2_rotated.json,1784310,2341462,67,Man
75,679013,DepthScenes,duration_manipulation_targetAtFixation,jsons/VE125_randls_2_rotated.json,http://54.235.29.9/FacialAge/BNav_EC2/DepthDuration/v2_depth_duration_MTurk/v2_DepthDuration_HTML.html#14,14,1360,625,1360,768,8-21-2022,11-47-56,76,depth_duration_stimuli/002272_2014-06-28_18-53-56_260595134347_rgbf000067-resize_2/002272_2014-06-28_18-53-56_260595134347_rgbf000067-resize_2-target.png,125,1.138,45,17479,126,meters,jsons/VE125_randls_2_rotated.json,1784310,2341462,67,Man
76,679013,DepthScenes,duration_manipulation_targetAtFixation,jsons/VE125_randls_2_rotated.json,http://54.235.29.9/FacialAge/BNav_EC2/DepthDuration/v2_depth_duration_MTurk/v2_DepthDuration_HTML.html#14,14,1360,625,1360,768,8-21-2022,11-47-56,77,depth_duration_stimuli/003587_2014-05-23_16-48-02_094959634447_rgbf002384-resize_2/003587_2014-05-23_16-48-02_094959634447_rgbf002384-resize_2-target.png,125,1.357,23,7411,124,meters,jsons/VE125_randls_2_rotated.json,1784310,2341462,67,Man
77,679013,DepthScenes,duration_manipulation_targetAtFixation,jsons/VE125_randls_2_rotated.json,http://54.235.29.9/FacialAge/BNav_EC2/DepthDuration/v2_depth_duration_MTurk/v2_DepthDuration_HTML.html#14,14,1360,625,1360,768,8-21-2022,11-47-56,78,depth_duration_stimuli/001167_2014-06-17_15-38-07_260595134347_rgbf000108-resize_0/001167_2014-06-17_15-38-07_260595134347_rgbf000108-resize_0-target.png,125,1.8505,34,6346,124,meters,jsons/VE125_randls_2_rotated.json,1784310,2341462,67,Man
78,679013,DepthScenes,duration_manipulation_targetAtFixation,jsons/VE125_randls_2_rotated.json,http://54.235.29.9/FacialAge/BNav_EC2/DepthDuration/v2_depth_duration_MTurk/v2_DepthDuration_HTML.html#14,14,1360,625,1360,768,8-21-2022,11-47-56,79,depth_duration_stimuli/001650_2014-06-20_12-09-00_260595134347_rgbf000087-resize_3/001650_2014-06-20_12-09-00_260595134347_rgbf000087-resize_3-target.png,125,1.9505,34,6696,124,meters,jsons/VE125_randls_2_rotated.json,1784310,2341462,67,Man
79,679013,DepthScenes,duration_manipulation_targetAtFixation,jsons/VE125_randls_2_rotated.json,http://54.235.29.9/FacialAge/BNav_EC2/DepthDuration/v2_depth_duration_MTurk/v2_DepthDuration_HTML.html#14,14,1360,625,1360,768,8-21-2022,11-47-56,80,depth_duration_stimuli/000682_2014-06-08_23-14-58_260595134347_rgbf000041-resize_5/000682_2014-06-08_23-14-58_260595134347_rgbf000041-resize_5-target.png,125,2.7239999999999998,45,6657,122,meters,jsons/VE125_randls_2_rotated.json,1784310,2341462,67,Man
80,679013,DepthScenes,duration_manipulation_targetAtFixation,jsons/VE125_randls_2_rotated.json,http://54.235.29.9/FacialAge/BNav_EC2/DepthDuration/v2_depth_duration_MTurk/v2_DepthDuration_HTML.html#14,14,1360,625,1360,768,8-21-2022,11-47-56,81,depth_duration_stimuli/002323_2014-06-28_20-01-54_260595134347_rgbf000051-resize_4/002323_2014-06-28_20-01-54_260595134347_rgbf000051-resize_4-target.png,125,3.7310000000000003,34,7039,124,meters,jsons/VE125_randls_2_rotated.json,1784310,2341462,67,Man
81,679013,DepthScenes,duration_manipulation_targetAtFixation,jsons/VE125_randls_2_rotated.json,http://54.235.29.9/FacialAge/BNav_EC2/DepthDuration/v2_depth_duration_MTurk/v2_DepthDuration_HTML.html#14,14,1360,625,1360,768,8-21-2022,11-47-56,82,depth_duration_stimuli/000917_2014-06-09_22-45-29_260595134347_rgbf000149-resize_3/000917_2014-06-09_22-45-29_260595134347_rgbf000149-resize_3-target.png,125,4.1865,35,5428,124,meters,jsons/VE125_randls_2_rotated.json,1784310,2341462,67,Man
82,679013,DepthScenes,duration_manipulation_targetAtFixation,jsons/VE125_randls_2_rotated.json,http://54.235.29.9/FacialAge/BNav_EC2/DepthDuration/v2_depth_duration_MTurk/v2_DepthDuration_HTML.html#14,14,1360,625,1360,768,8-21-2022,11-47-56,83,depth_duration_stimuli/001447_2014-06-19_17-00-32_260595134347_rgbf000082-resize_5/001447_2014-06-19_17-00-32_260595134347_rgbf000082-resize_5-target.png,125,4.13775,45,10168,125,meters,jsons/VE125_randls_2_rotated.json,1784310,2341462,67,Man
83,679013,DepthScenes,duration_manipulation_targetAtFixation,jsons/VE125_randls_2_rotated.json,http://54.235.29.9/FacialAge/BNav_EC2/DepthDuration/v2_depth_duration_MTurk/v2_DepthDuration_HTML.html#14,14,1360,625,1360,768,8-21-2022,11-47-56,84,depth_duration_stimuli/000447_2014-06-08_16-15-46_260595134347_rgbf000130-resize_1/000447_2014-06-08_16-15-46_260595134347_rgbf000130-resize_1-target.png,125,4.479,23,4937,125,meters,jsons/VE125_randls_2_rotated.json,1784310,2341462,67,Man
84,679013,DepthScenes,duration_manipulation_targetAtFixation,jsons/VE125_randls_2_rotated.json,http://54.235.29.9/FacialAge/BNav_EC2/DepthDuration/v2_depth_duration_MTurk/v2_DepthDuration_HTML.html#14,14,1360,625,1360,768,8-21-2022,11-47-56,85,depth_duration_stimuli/002425_2014-06-28_20-27-29_260595134347_rgbf000031-resize_8/002425_2014-06-28_20-27-29_260595134347_rgbf000031-resize_8-target.png,125,3.8960000000000004,45,10039,125,meters,jsons/VE125_randls_2_rotated.json,1784310,2341462,67,Man
85,679013,DepthScenes,duration_manipulation_targetAtFixation,jsons/VE125_randls_2_rotated.json,http://54.235.29.9/FacialAge/BNav_EC2/DepthDuration/v2_depth_duration_MTurk/v2_DepthDuration_HTML.html#14,14,1360,625,1360,768,8-21-2022,11-47-56,86,depth_duration_stimuli/000642_2014-06-08_16-59-25_260595134347_rgbf000098-resize_2/000642_2014-06-08_16-59-25_260595134347_rgbf000098-resize_2-target.png,125,2.8815,45,4950,124,meters,jsons/VE125_randls_2_rotated.json,1784310,2341462,67,Man
86,679013,DepthScenes,duration_manipulation_targetAtFixation,jsons/VE125_randls_2_rotated.json,http://54.235.29.9/FacialAge/BNav_EC2/DepthDuration/v2_depth_duration_MTurk/v2_DepthDuration_HTML.html#14,14,1360,625,1360,768,8-21-2022,11-47-56,87,depth_duration_stimuli/000103_2014-05-14_22-01-17_260595134347_rgbf000152-resize_5/000103_2014-05-14_22-01-17_260595134347_rgbf000152-resize_5-target.png,125,1.993,34,12746,124,meters,jsons/VE125_randls_2_rotated.json,1784310,2341462,67,Man
87,679013,DepthScenes,duration_manipulation_targetAtFixation,jsons/VE125_randls_2_rotated.json,http://54.235.29.9/FacialAge/BNav_EC2/DepthDuration/v2_depth_duration_MTurk/v2_DepthDuration_HTML.html#14,14,1360,625,1360,768,8-21-2022,11-47-56,88,depth_duration_stimuli/001555_2014-06-20_17-12-10_260595134347_rgbf000065-resize_4/001555_2014-06-20_17-12-10_260595134347_rgbf000065-resize_4-target.png,125,1.633,23,6697,124,meters,jsons/VE125_randls_2_rotated.json,1784310,2341462,67,Man
88,679013,DepthScenes,duration_manipulation_targetAtFixation,jsons/VE125_randls_2_rotated.json,http://54.235.29.9/FacialAge/BNav_EC2/DepthDuration/v2_depth_duration_MTurk/v2_DepthDuration_HTML.html#14,14,1360,625,1360,768,8-21-2022,11-47-56,89,depth_duration_stimuli/003048_2014-06-15_13-49-43_094959634447_rgbf000150-resize_1/003048_2014-06-15_13-49-43_094959634447_rgbf000150-resize_1-target.png,125,4.0035,34,6377,124,meters,jsons/VE125_randls_2_rotated.json,1784310,2341462,67,Man
89,679013,DepthScenes,duration_manipulation_targetAtFixation,jsons/VE125_randls_2_rotated.json,http://54.235.29.9/FacialAge/BNav_EC2/DepthDuration/v2_depth_duration_MTurk/v2_DepthDuration_HTML.html#14,14,1360,625,1360,768,8-21-2022,11-47-56,90,depth_duration_stimuli/002043_2014-06-24_20-29-38_260595134347_rgbf000039-resize_4/002043_2014-06-24_20-29-38_260595134347_rgbf000039-resize_4-target.png,125,2.8435,34,6780,126,meters,jsons/VE125_randls_2_rotated.json,1784310,2341462,67,Man
90,679013,DepthScenes,duration_manipulation_targetAtFixation,jsons/VE125_randls_2_rotated.json,http://54.235.29.9/FacialAge/BNav_EC2/DepthDuration/v2_depth_duration_MTurk/v2_DepthDuration_HTML.html#14,14,1360,625,1360,768,8-21-2022,11-47-56,91,depth_duration_stimuli/002758_2014-06-22_19-11-20_094959634447_rgbf000128-resize_1/002758_2014-06-22_19-11-20_094959634447_rgbf000128-resize_1-target.png,125,2.555,34,5574,125,meters,jsons/VE125_randls_2_rotated.json,1784310,2341462,67,Man
91,679013,DepthScenes,duration_manipulation_targetAtFixation,jsons/VE125_randls_2_rotated.json,http://54.235.29.9/FacialAge/BNav_EC2/DepthDuration/v2_depth_duration_MTurk/v2_DepthDuration_HTML.html#14,14,1360,625,1360,768,8-21-2022,11-47-56,92,depth_duration_stimuli/002630_2014-06-24_14-47-50_094959634447_rgbf000055-resize_1/002630_2014-06-24_14-47-50_094959634447_rgbf000055-resize_1-target.png,125,3.0095,35,9383,125,meters,jsons/VE125_randls_2_rotated.json,1784310,2341462,67,Man
92,679013,DepthScenes,duration_manipulation_targetAtFixation,jsons/VE125_randls_2_rotated.json,http://54.235.29.9/FacialAge/BNav_EC2/DepthDuration/v2_depth_duration_MTurk/v2_DepthDuration_HTML.html#14,14,1360,625,1360,768,8-21-2022,11-47-56,93,depth_duration_stimuli/003495_2014-05-21_16-01-51_094959634447_rgbf000100-resize_3/003495_2014-05-21_16-01-51_094959634447_rgbf000100-resize_3-target.png,125,1.6255,35,13356,125,meters,jsons/VE125_randls_2_rotated.json,1784310,2341462,67,Man
93,679013,DepthScenes,duration_manipulation_targetAtFixation,jsons/VE125_randls_2_rotated.json,http://54.235.29.9/FacialAge/BNav_EC2/DepthDuration/v2_depth_duration_MTurk/v2_DepthDuration_HTML.html#14,14,1360,625,1360,768,8-21-2022,11-47-56,94,depth_duration_stimuli/001244_2014-06-17_16-47-45_260595134347_rgbf000030-resize_4/001244_2014-06-17_16-47-45_260595134347_rgbf000030-resize_4-target.png,125,2.0425,34,5368,124,meters,jsons/VE125_randls_2_rotated.json,1784310,2341462,67,Man
94,679013,DepthScenes,duration_manipulation_targetAtFixation,jsons/VE125_randls_2_rotated.json,http://54.235.29.9/FacialAge/BNav_EC2/DepthDuration/v2_depth_duration_MTurk/v2_DepthDuration_HTML.html#14,14,1360,625,1360,768,8-21-2022,11-47-56,95,depth_duration_stimuli/002639_2014-06-24_14-51-37_094959634447_rgbf000074-resize_4/002639_2014-06-24_14-51-37_094959634447_rgbf000074-resize_4-target.png,125,4.0375,34,13548,125,meters,jsons/VE125_randls_2_rotated.json,1784310,2341462,67,Man
95,679013,DepthScenes,duration_manipulation_targetAtFixation,jsons/VE125_randls_2_rotated.json,http://54.235.29.9/FacialAge/BNav_EC2/DepthDuration/v2_depth_duration_MTurk/v2_DepthDuration_HTML.html#14,14,1360,625,1360,768,8-21-2022,11-47-56,96,depth_duration_stimuli/003292_2014-05-14_21-53-49_094959634447_rgbf000100-resize_2/003292_2014-05-14_21-53-49_094959634447_rgbf000100-resize_2-target.png,125,3.4815,45,5680,125,meters,jsons/VE125_randls_2_rotated.json,1784310,2341462,67,Man
96,679013,DepthScenes,duration_manipulation_targetAtFixation,jsons/VE125_randls_2_rotated.json,http://54.235.29.9/FacialAge/BNav_EC2/DepthDuration/v2_depth_duration_MTurk/v2_DepthDuration_HTML.html#14,14,1360,625,1360,768,8-21-2022,11-47-56,97,depth_duration_stimuli/000457_2014-06-08_16-52-43_260595134347_rgbf000199-resize_1/000457_2014-06-08_16-52-43_260595134347_rgbf000199-resize_1-target.png,125,3.6489999999999996,45,5094,126,meters,jsons/VE125_randls_2_rotated.json,1784310,2341462,67,Man
97,679013,DepthScenes,duration_manipulation_targetAtFixation,jsons/VE125_randls_2_rotated.json,http://54.235.29.9/FacialAge/BNav_EC2/DepthDuration/v2_depth_duration_MTurk/v2_DepthDuration_HTML.html#14,14,1360,625,1360,768,8-21-2022,11-47-56,98,depth_duration_stimuli/000929_2014-06-09_16-33-19_260595134347_rgbf000139-resize_0/000929_2014-06-09_16-33-19_260595134347_rgbf000139-resize_0-target.png,125,2.8680000000000003,45,8558,125,meters,jsons/VE125_randls_2_rotated.json,1784310,2341462,67,Man
98,679013,DepthScenes,duration_manipulation_targetAtFixation,jsons/VE125_randls_2_rotated.json,http://54.235.29.9/FacialAge/BNav_EC2/DepthDuration/v2_depth_duration_MTurk/v2_DepthDuration_HTML.html#14,14,1360,625,1360,768,8-21-2022,11-47-56,99,depth_duration_stimuli/001222_2014-06-17_16-24-06_260595134347_rgbf000073-resize_0/001222_2014-06-17_16-24-06_260595134347_rgbf000073-resize-original.jpg,125,1.4385,0,12245,124,meters,jsons/VE125_randls_2_rotated.json,1784310,2341462,67,Man
99,679013,DepthScenes,duration_manipulation_targetAtFixation,jsons/VE125_randls_2_rotated.json,http://54.235.29.9/FacialAge/BNav_EC2/DepthDuration/v2_depth_duration_MTurk/v2_DepthDuration_HTML.html#14,14,1360,625,1360,768,8-21-2022,11-47-56,100,depth_duration_stimuli/003338_2014-05-20_11-01-23_094959634447_rgbf000051-resize_6/003338_2014-05-20_11-01-23_094959634447_rgbf000051-resize_6-target.png,125,1.693,34,12055,124,meters,jsons/VE125_randls_2_rotated.json,1784310,2341462,67,Man
100,679013,DepthScenes,duration_manipulation_targetAtFixation,jsons/VE125_randls_2_rotated.json,http://54.235.29.9/FacialAge/BNav_EC2/DepthDuration/v2_depth_duration_MTurk/v2_DepthDuration_HTML.html#14,14,1360,625,1360,768,8-21-2022,11-47-56,101,depth_duration_stimuli/002509_2014-06-24_13-19-22_094959634447_rgbf000077-resize_0/002509_2014-06-24_13-19-22_094959634447_rgbf000077-resize_0-target.png,125,1.3065,34,5240,125,meters,jsons/VE125_randls_2_rotated.json,1784310,2341462,67,Man
101,679013,DepthScenes,duration_manipulation_targetAtFixation,jsons/VE125_randls_2_rotated.json,http://54.235.29.9/FacialAge/BNav_EC2/DepthDuration/v2_depth_duration_MTurk/v2_DepthDuration_HTML.html#14,14,1360,625,1360,768,8-21-2022,11-47-56,102,depth_duration_stimuli/002750_2014-06-22_19-08-03_094959634447_rgbf000094-resize_4/002750_2014-06-22_19-08-03_094959634447_rgbf000094-resize_4-target.png,125,2.354,23,12200,125,meters,jsons/VE125_randls_2_rotated.json,1784310,2341462,67,Man
102,679013,DepthScenes,duration_manipulation_targetAtFixation,jsons/VE125_randls_2_rotated.json,http://54.235.29.9/FacialAge/BNav_EC2/DepthDuration/v2_depth_duration_MTurk/v2_DepthDuration_HTML.html#14,14,1360,625,1360,768,8-21-2022,11-47-56,103,depth_duration_stimuli/002549_2014-06-24_13-41-39_094959634447_rgbf000022-resize_3/002549_2014-06-24_13-41-39_094959634447_rgbf000022-resize_3-target.png,125,1.476,34,5937,126,meters,jsons/VE125_randls_2_rotated.json,1784310,2341462,67,Man
103,679013,DepthScenes,duration_manipulation_targetAtFixation,jsons/VE125_randls_2_rotated.json,http://54.235.29.9/FacialAge/BNav_EC2/DepthDuration/v2_depth_duration_MTurk/v2_DepthDuration_HTML.html#14,14,1360,625,1360,768,8-21-2022,11-47-56,104,depth_duration_stimuli/000483_2014-06-09_20-41-45_260595134347_rgbf000116-resize_4/000483_2014-06-09_20-41-45_260595134347_rgbf000116-resize_4-target.png,125,1.337,23,11923,125,meters,jsons/VE125_randls_2_rotated.json,1784310,2341462,67,Man
104,679013,DepthScenes,duration_manipulation_targetAtFixation,jsons/VE125_randls_2_rotated.json,http://54.235.29.9/FacialAge/BNav_EC2/DepthDuration/v2_depth_duration_MTurk/v2_DepthDuration_HTML.html#14,14,1360,625,1360,768,8-21-2022,11-47-56,105,depth_duration_stimuli/000469_2014-06-09_19-42-10_260595134347_rgbf000081-resize_1/000469_2014-06-09_19-42-10_260595134347_rgbf000081-resize_1-target.png,125,1.652,34,4294,125,meters,jsons/VE125_randls_2_rotated.json,1784310,2341462,67,Man
105,679013,DepthScenes,duration_manipulation_targetAtFixation,jsons/VE125_randls_2_rotated.json,http://54.235.29.9/FacialAge/BNav_EC2/DepthDuration/v2_depth_duration_MTurk/v2_DepthDuration_HTML.html#14,14,1360,625,1360,768,8-21-2022,11-47-56,106,depth_duration_stimuli/002949_2014-06-26_15-57-42_094959634447_rgbf000079-resize_1/002949_2014-06-26_15-57-42_094959634447_rgbf000079-resize_1-target.png,125,1.8915,45,5899,124,meters,jsons/VE125_randls_2_rotated.json,1784310,2341462,67,Man
106,679013,DepthScenes,duration_manipulation_targetAtFixation,jsons/VE125_randls_2_rotated.json,http://54.235.29.9/FacialAge/BNav_EC2/DepthDuration/v2_depth_duration_MTurk/v2_DepthDuration_HTML.html#14,14,1360,625,1360,768,8-21-2022,11-47-56,107,depth_duration_stimuli/000522_2014-06-08_13-35-06_260595134347_rgbf000244-resize_1/000522_2014-06-08_13-35-06_260595134347_rgbf000244-resize_1-target.png,125,2.3715,34,9747,126,meters,jsons/VE125_randls_2_rotated.json,1784310,2341462,67,Man
107,679013,DepthScenes,duration_manipulation_targetAtFixation,jsons/VE125_randls_2_rotated.json,http://54.235.29.9/FacialAge/BNav_EC2/DepthDuration/v2_depth_duration_MTurk/v2_DepthDuration_HTML.html#14,14,1360,625,1360,768,8-21-2022,11-47-56,108,depth_duration_stimuli/003081_2014-06-15_15-19-16_094959634447_rgbf000150-resize_1/003081_2014-06-15_15-19-16_094959634447_rgbf000150-resize_1-target.png,125,3.9125,34,5691,124,meters,jsons/VE125_randls_2_rotated.json,1784310,2341462,67,Man
108,679013,DepthScenes,duration_manipulation_targetAtFixation,jsons/VE125_randls_2_rotated.json,http://54.235.29.9/FacialAge/BNav_EC2/DepthDuration/v2_depth_duration_MTurk/v2_DepthDuration_HTML.html#14,14,1360,625,1360,768,8-21-2022,11-47-56,109,depth_duration_stimuli/001417_2014-06-19_16-25-36_260595134347_rgbf000115-resize_5/001417_2014-06-19_16-25-36_260595134347_rgbf000115-resize_5-target.png,125,4.6255,23,12459,125,meters,jsons/VE125_randls_2_rotated.json,1784310,2341462,67,Man
109,679013,DepthScenes,duration_manipulation_targetAtFixation,jsons/VE125_randls_2_rotated.json,http://54.235.29.9/FacialAge/BNav_EC2/DepthDuration/v2_depth_duration_MTurk/v2_DepthDuration_HTML.html#14,14,1360,625,1360,768,8-21-2022,11-47-56,110,depth_duration_stimuli/001132_2014-06-17_14-48-54_260595134347_rgbf000100-resize_2/001132_2014-06-17_14-48-54_260595134347_rgbf000100-resize_2-target.png,125,3.753,34,5575,125,meters,jsons/VE125_randls_2_rotated.json,1784310,2341462,67,Man
110,679013,DepthScenes,duration_manipulation_targetAtFixation,jsons/VE125_randls_2_rotated.json,http://54.235.29.9/FacialAge/BNav_EC2/DepthDuration/v2_depth_duration_MTurk/v2_DepthDuration_HTML.html#14,14,1360,625,1360,768,8-21-2022,11-47-56,111,depth_duration_stimuli/001133_2014-06-17_14-49-16_260595134347_rgbf000100-resize_0/001133_2014-06-17_14-49-16_260595134347_rgbf000100-resize_0-target.png,125,4.2115,45,6900,125,meters,jsons/VE125_randls_2_rotated.json,1784310,2341462,67,Man
111,679013,DepthScenes,duration_manipulation_targetAtFixation,jsons/VE125_randls_2_rotated.json,http://54.235.29.9/FacialAge/BNav_EC2/DepthDuration/v2_depth_duration_MTurk/v2_DepthDuration_HTML.html#14,14,1360,625,1360,768,8-21-2022,11-47-56,112,depth_duration_stimuli/000742_2014-06-08_18-48-09_260595134347_rgbf000164-resize_4/000742_2014-06-08_18-48-09_260595134347_rgbf000164-resize_4-target.png,125,4.632,45,13816,124,meters,jsons/VE125_randls_2_rotated.json,1784310,2341462,67,Man
112,679013,DepthScenes,duration_manipulation_targetAtFixation,jsons/VE125_randls_2_rotated.json,http://54.235.29.9/FacialAge/BNav_EC2/DepthDuration/v2_depth_duration_MTurk/v2_DepthDuration_HTML.html#14,14,1360,625,1360,768,8-21-2022,11-47-56,113,depth_duration_stimuli/001066_2014-06-08_22-03-20_260595134347_rgbf000066-resize_4/001066_2014-06-08_22-03-20_260595134347_rgbf000066-resize_4-target.png,125,4.2330000000000005,23,7004,126,meters,jsons/VE125_randls_2_rotated.json,1784310,2341462,67,Man
113,679013,DepthScenes,duration_manipulation_targetAtFixation,jsons/VE125_randls_2_rotated.json,http://54.235.29.9/FacialAge/BNav_EC2/DepthDuration/v2_depth_duration_MTurk/v2_DepthDuration_HTML.html#14,14,1360,625,1360,768,8-21-2022,11-47-56,114,depth_duration_stimuli/002136_2014-06-25_21-18-03_260595134347_rgbf000109-resize_3/002136_2014-06-25_21-18-03_260595134347_rgbf000109-resize_3-target.png,125,1.9569999999999999,45,11733,125,meters,jsons/VE125_randls_2_rotated.json,1784310,2341462,67,Man
114,679013,DepthScenes,duration_manipulation_targetAtFixation,jsons/VE125_randls_2_rotated.json,http://54.235.29.9/FacialAge/BNav_EC2/DepthDuration/v2_depth_duration_MTurk/v2_DepthDuration_HTML.html#14,14,1360,625,1360,768,8-21-2022,11-47-56,115,depth_duration_stimuli/002964_2014-06-08_17-46-11_094959634447_rgbf000091-resize_4/002964_2014-06-08_17-46-11_094959634447_rgbf000091-resize_4-target.png,125,1.6909999999999998,45,13401,124,meters,jsons/VE125_randls_2_rotated.json,1784310,2341462,67,Man
115,679013,DepthScenes,duration_manipulation_targetAtFixation,jsons/VE125_randls_2_rotated.json,http://54.235.29.9/FacialAge/BNav_EC2/DepthDuration/v2_depth_duration_MTurk/v2_DepthDuration_HTML.html#14,14,1360,625,1360,768,8-21-2022,11-47-56,116,depth_duration_stimuli/001136_2014-06-17_15-19-41_260595134347_rgbf000076-resize_3/001136_2014-06-17_15-19-41_260595134347_rgbf000076-resize_3-target.png,125,1.8655,45,5985,124,meters,jsons/VE125_randls_2_rotated.json,1784310,2341462,67,Man
116,679013,DepthScenes,duration_manipulation_targetAtFixation,jsons/VE125_randls_2_rotated.json,http://54.235.29.9/FacialAge/BNav_EC2/DepthDuration/v2_depth_duration_MTurk/v2_DepthDuration_HTML.html#14,14,1360,625,1360,768,8-21-2022,11-47-56,117,depth_duration_stimuli/001164_2014-06-17_15-35-46_260595134347_rgbf000085-resize_3/001164_2014-06-17_15-35-46_260595134347_rgbf000085-resize_3-target.png,125,2.354,45,13429,124,meters,jsons/VE125_randls_2_rotated.json,1784310,2341462,67,Man
117,679013,DepthScenes,duration_manipulation_targetAtFixation,jsons/VE125_randls_2_rotated.json,http://54.235.29.9/FacialAge/BNav_EC2/DepthDuration/v2_depth_duration_MTurk/v2_DepthDuration_HTML.html#14,14,1360,625,1360,768,8-21-2022,11-47-56,118,depth_duration_stimuli/002568_2014-06-24_13-59-21_094959634447_rgbf000062-resize_4/002568_2014-06-24_13-59-21_094959634447_rgbf000062-resize_4-target.png,125,3.015,34,9659,124,meters,jsons/VE125_randls_2_rotated.json,1784310,2341462,67,Man
118,679013,DepthScenes,duration_manipulation_targetAtFixation,jsons/VE125_randls_2_rotated.json,http://54.235.29.9/FacialAge/BNav_EC2/DepthDuration/v2_depth_duration_MTurk/v2_DepthDuration_HTML.html#14,14,1360,625,1360,768,8-21-2022,11-47-56,119,depth_duration_stimuli/003492_2014-05-21_15-50-55_094959634447_rgbf000828-resize_1/003492_2014-05-21_15-50-55_094959634447_rgbf000828-resize_1-target.png,125,4.06875,45,6298,125,meters,jsons/VE125_randls_2_rotated.json,1784310,2341462,67,Man
119,679013,DepthScenes,duration_manipulation_targetAtFixation,jsons/VE125_randls_2_rotated.json,http://54.235.29.9/FacialAge/BNav_EC2/DepthDuration/v2_depth_duration_MTurk/v2_DepthDuration_HTML.html#14,14,1360,625,1360,768,8-21-2022,11-47-56,120,depth_duration_stimuli/000787_2014-06-08_22-33-53_260595134347_rgbf000175-resize_1/000787_2014-06-08_22-33-53_260595134347_rgbf000175-resize-original.jpg,125,4.784,0,11450,124,meters,jsons/VE125_randls_2_rotated.json,1784310,2341462,67,Man
120,679013,DepthScenes,duration_manipulation_targetAtFixation,jsons/VE125_randls_2_rotated.json,http://54.235.29.9/FacialAge/BNav_EC2/DepthDuration/v2_depth_duration_MTurk/v2_DepthDuration_HTML.html#14,14,1360,625,1360,768,8-21-2022,11-47-56,121,depth_duration_stimuli/002467_2014-06-28_20-38-07_260595134347_rgbf000026-resize_2/002467_2014-06-28_20-38-07_260595134347_rgbf000026-resize_2-target.png,125,4.742,56,8657,124,meters,jsons/VE125_randls_2_rotated.json,1784310,2341462,67,Man
121,679013,DepthScenes,duration_manipulation_targetAtFixation,jsons/VE125_randls_2_rotated.json,http://54.235.29.9/FacialAge/BNav_EC2/DepthDuration/v2_depth_duration_MTurk/v2_DepthDuration_HTML.html#14,14,1360,625,1360,768,8-21-2022,11-47-56,122,depth_duration_stimuli/002570_2014-06-24_13-59-54_094959634447_rgbf000059-resize_0/002570_2014-06-24_13-59-54_094959634447_rgbf000059-resize_0-target.png,125,4.037,34,4574,124,meters,jsons/VE125_randls_2_rotated.json,1784310,2341462,67,Man
122,679013,DepthScenes,duration_manipulation_targetAtFixation,jsons/VE125_randls_2_rotated.json,http://54.235.29.9/FacialAge/BNav_EC2/DepthDuration/v2_depth_duration_MTurk/v2_DepthDuration_HTML.html#14,14,1360,625,1360,768,8-21-2022,11-47-56,123,depth_duration_stimuli/000866_2014-06-09_20-45-42_260595134347_rgbf000139-resize_1/000866_2014-06-09_20-45-42_260595134347_rgbf000139-resize_1-target.png,125,3.2155,23,11563,125,meters,jsons/VE125_randls_2_rotated.json,1784310,2341462,67,Man
123,679013,DepthScenes,duration_manipulation_targetAtFixation,jsons/VE125_randls_2_rotated.json,http://54.235.29.9/FacialAge/BNav_EC2/DepthDuration/v2_depth_duration_MTurk/v2_DepthDuration_HTML.html#14,14,1360,625,1360,768,8-21-2022,11-47-56,124,depth_duration_stimuli/002989_2014-06-15_12-25-03_094959634447_rgbf000150-resize_3/002989_2014-06-15_12-25-03_094959634447_rgbf000150-resize_3-target.png,125,4.1975,34,5628,125,meters,jsons/VE125_randls_2_rotated.json,1784310,2341462,67,Man
124,679013,DepthScenes,duration_manipulation_targetAtFixation,jsons/VE125_randls_2_rotated.json,http://54.235.29.9/FacialAge/BNav_EC2/DepthDuration/v2_depth_duration_MTurk/v2_DepthDuration_HTML.html#14,14,1360,625,1360,768,8-21-2022,11-47-56,125,depth_duration_stimuli/002678_2014-06-13_16-15-32_094959634447_rgbf000151-resize_6/002678_2014-06-13_16-15-32_094959634447_rgbf000151-resize_6-target.png,125,2.1830000000000003,34,4557,126,meters,jsons/VE125_randls_2_rotated.json,1784310,2341462,67,Man
125,679013,DepthScenes,duration_manipulation_targetAtFixation,jsons/VE125_randls_2_rotated.json,http://54.235.29.9/FacialAge/BNav_EC2/DepthDuration/v2_depth_duration_MTurk/v2_DepthDuration_HTML.html#14,14,1360,625,1360,768,8-21-2022,11-47-56,126,depth_duration_stimuli/000368_2014-06-09_15-53-01_260595134347_rgbf000155-resize_2/000368_2014-06-09_15-53-01_260595134347_rgbf000155-resize_2-target.png,125,2.4859999999999998,45,6119,124,meters,jsons/VE125_randls_2_rotated.json,1784310,2341462,67,Man
126,679013,DepthScenes,duration_manipulation_targetAtFixation,jsons/VE125_randls_2_rotated.json,http://54.235.29.9/FacialAge/BNav_EC2/DepthDuration/v2_depth_duration_MTurk/v2_DepthDuration_HTML.html#14,14,1360,625,1360,768,8-21-2022,11-47-56,127,depth_duration_stimuli/000502_2014-06-08_23-02-32_260595134347_rgbf000063-resize_4/000502_2014-06-08_23-02-32_260595134347_rgbf000063-resize_4-target.png,125,2.431,12,10527,125,meters,jsons/VE125_randls_2_rotated.json,1784310,2341462,67,Man
127,679013,DepthScenes,duration_manipulation_targetAtFixation,jsons/VE125_randls_2_rotated.json,http://54.235.29.9/FacialAge/BNav_EC2/DepthDuration/v2_depth_duration_MTurk/v2_DepthDuration_HTML.html#14,14,1360,625,1360,768,8-21-2022,11-47-56,128,depth_duration_stimuli/001199_2014-06-17_16-03-48_260595134347_rgbf000077-resize_0/001199_2014-06-17_16-03-48_260595134347_rgbf000077-resize_0-target.png,125,3.4375,12,5840,125,meters,jsons/VE125_randls_2_rotated.json,1784310,2341462,67,Man
128,679013,DepthScenes,duration_manipulation_targetAtFixation,jsons/VE125_randls_2_rotated.json,http://54.235.29.9/FacialAge/BNav_EC2/DepthDuration/v2_depth_duration_MTurk/v2_DepthDuration_HTML.html#14,14,1360,625,1360,768,8-21-2022,11-47-56,129,depth_duration_stimuli/000943_2014-06-09_19-31-07_260595134347_rgbf000128-resize_1/000943_2014-06-09_19-31-07_260595134347_rgbf000128-resize_1-target.png,125,1.9765,23,6511,125,meters,jsons/VE125_randls_2_rotated.json,1784310,2341462,67,Man
129,679013,DepthScenes,duration_manipulation_targetAtFixation,jsons/VE125_randls_2_rotated.json,http://54.235.29.9/FacialAge/BNav_EC2/DepthDuration/v2_depth_duration_MTurk/v2_DepthDuration_HTML.html#14,14,1360,625,1360,768,8-21-2022,11-47-56,130,depth_duration_stimuli/003070_2014-06-15_14-58-27_094959634447_rgbf000150-resize_3/003070_2014-06-15_14-58-27_094959634447_rgbf000150-resize_3-target.png,125,2.9415,34,10750,124,meters,jsons/VE125_randls_2_rotated.json,1784310,2341462,67,Man
130,679013,DepthScenes,duration_manipulation_targetAtFixation,jsons/VE125_randls_2_rotated.json,http://54.235.29.9/FacialAge/BNav_EC2/DepthDuration/v2_depth_duration_MTurk/v2_DepthDuration_HTML.html#14,14,1360,625,1360,768,8-21-2022,11-47-56,131,depth_duration_stimuli/000191_2014-05-12_17-07-38_260595134347_rgbf000199-resize_0/000191_2014-05-12_17-07-38_260595134347_rgbf000199-resize_0-target.png,125,3.7995,34,9351,124,meters,jsons/VE125_randls_2_rotated.json,1784310,2341462,67,Man
131,679013,DepthScenes,duration_manipulation_targetAtFixation,jsons/VE125_randls_2_rotated.json,http://54.235.29.9/FacialAge/BNav_EC2/DepthDuration/v2_depth_duration_MTurk/v2_DepthDuration_HTML.html#14,14,1360,625,1360,768,8-21-2022,11-47-56,132,depth_duration_stimuli/000493_2014-06-09_21-01-18_260595134347_rgbf000196-resize_3/000493_2014-06-09_21-01-18_260595134347_rgbf000196-resize_3-target.png,125,3.44,34,5928,125,meters,jsons/VE125_randls_2_rotated.json,1784310,2341462,67,Man
132,679013,DepthScenes,duration_manipulation_targetAtFixation,jsons/VE125_randls_2_rotated.json,http://54.235.29.9/FacialAge/BNav_EC2/DepthDuration/v2_depth_duration_MTurk/v2_DepthDuration_HTML.html#14,14,1360,625,1360,768,8-21-2022,11-47-56,133,depth_duration_stimuli/001214_2014-06-17_16-13-55_260595134347_rgbf000111-resize_0/001214_2014-06-17_16-13-55_260595134347_rgbf000111-resize_0-target.png,125,2.6505,45,7498,125,meters,jsons/VE125_randls_2_rotated.json,1784310,2341462,67,Man
133,679013,DepthScenes,duration_manipulation_targetAtFixation,jsons/VE125_randls_2_rotated.json,http://54.235.29.9/FacialAge/BNav_EC2/DepthDuration/v2_depth_duration_MTurk/v2_DepthDuration_HTML.html#14,14,1360,625,1360,768,8-21-2022,11-47-56,134,depth_duration_stimuli/000810_2014-06-08_17-20-01_260595134347_rgbf000105-resize_0/000810_2014-06-08_17-20-01_260595134347_rgbf000105-resize_0-target.png,125,1.4865,23,21178,124,meters,jsons/VE125_randls_2_rotated.json,1784310,2341462,67,Man
134,679013,DepthScenes,duration_manipulation_targetAtFixation,jsons/VE125_randls_2_rotated.json,http://54.235.29.9/FacialAge/BNav_EC2/DepthDuration/v2_depth_duration_MTurk/v2_DepthDuration_HTML.html#14,14,1360,625,1360,768,8-21-2022,11-47-56,135,depth_duration_stimuli/000375_2014-06-08_11-17-29_260595134347_rgbf000133-resize_2/000375_2014-06-08_11-17-29_260595134347_rgbf000133-resize-original.jpg,125,4.718,23,15320,125,meters,jsons/VE125_randls_2_rotated.json,1784310,2341462,67,Man
135,679013,DepthScenes,duration_manipulation_targetAtFixation,jsons/VE125_randls_2_rotated.json,http://54.235.29.9/FacialAge/BNav_EC2/DepthDuration/v2_depth_duration_MTurk/v2_DepthDuration_HTML.html#14,14,1360,625,1360,768,8-21-2022,11-47-56,136,depth_duration_stimuli/001815_2014-06-26_20-52-55_260595134347_rgbf000020-resize_0/001815_2014-06-26_20-52-55_260595134347_rgbf000020-resize_0-target.png,125,3.3865,45,10217,125,meters,jsons/VE125_randls_2_rotated.json,1784310,2341462,67,Man
136,679013,DepthScenes,duration_manipulation_targetAtFixation,jsons/VE125_randls_2_rotated.json,http://54.235.29.9/FacialAge/BNav_EC2/DepthDuration/v2_depth_duration_MTurk/v2_DepthDuration_HTML.html#14,14,1360,625,1360,768,8-21-2022,11-47-56,137,depth_duration_stimuli/001808_2014-06-26_20-50-58_260595134347_rgbf000029-resize_1/001808_2014-06-26_20-50-58_260595134347_rgbf000029-resize_1-target.png,125,4.249,45,8398,124,meters,jsons/VE125_randls_2_rotated.json,1784310,2341462,67,Man
137,679013,DepthScenes,duration_manipulation_targetAtFixation,jsons/VE125_randls_2_rotated.json,http://54.235.29.9/FacialAge/BNav_EC2/DepthDuration/v2_depth_duration_MTurk/v2_DepthDuration_HTML.html#14,14,1360,625,1360,768,8-21-2022,11-47-56,138,depth_duration_stimuli/002545_2014-06-24_13-38-53_094959634447_rgbf000080-resize_4/002545_2014-06-24_13-38-53_094959634447_rgbf000080-resize_4-target.png,125,1.9205,23,4820,125,meters,jsons/VE125_randls_2_rotated.json,1784310,2341462,67,Man
138,679013,DepthScenes,duration_manipulation_targetAtFixation,jsons/VE125_randls_2_rotated.json,http://54.235.29.9/FacialAge/BNav_EC2/DepthDuration/v2_depth_duration_MTurk/v2_DepthDuration_HTML.html#14,14,1360,625,1360,768,8-21-2022,11-47-56,139,depth_duration_stimuli/001092_2014-06-15_17-34-58_260595134347_rgbf000171-resize_3/001092_2014-06-15_17-34-58_260595134347_rgbf000171-resize_3-target.png,125,2.6935,23,9896,125,meters,jsons/VE125_randls_2_rotated.json,1784310,2341462,67,Man
139,679013,DepthScenes,duration_manipulation_targetAtFixation,jsons/VE125_randls_2_rotated.json,http://54.235.29.9/FacialAge/BNav_EC2/DepthDuration/v2_depth_duration_MTurk/v2_DepthDuration_HTML.html#14,14,1360,625,1360,768,8-21-2022,11-47-56,140,depth_duration_stimuli/003423_2014-05-21_10-23-26_094959634447_rgbf002665-resize_2/003423_2014-05-21_10-23-26_094959634447_rgbf002665-resize_2-target.png,125,3.2575,45,10637,124,meters,jsons/VE125_randls_2_rotated.json,1784310,2341462,67,Man
140,679013,DepthScenes,duration_manipulation_targetAtFixation,jsons/VE125_randls_2_rotated.json,http://54.235.29.9/FacialAge/BNav_EC2/DepthDuration/v2_depth_duration_MTurk/v2_DepthDuration_HTML.html#14,14,1360,625,1360,768,8-21-2022,11-47-56,141,depth_duration_stimuli/002905_2014-06-03_18-04-43_094959634447_rgbf000151-resize_2/002905_2014-06-03_18-04-43_094959634447_rgbf000151-resize_2-target.png,125,2.0295,56,6421,125,meters,jsons/VE125_randls_2_rotated.json,1784310,2341462,67,Man
141,679013,DepthScenes,duration_manipulation_targetAtFixation,jsons/VE125_randls_2_rotated.json,http://54.235.29.9/FacialAge/BNav_EC2/DepthDuration/v2_depth_duration_MTurk/v2_DepthDuration_HTML.html#14,14,1360,625,1360,768,8-21-2022,11-47-56,142,depth_duration_stimuli/000677_2014-06-08_23-10-32_260595134347_rgbf000158-resize_6/000677_2014-06-08_23-10-32_260595134347_rgbf000158-resize_6-target.png,125,3.556,45,6609,125,meters,jsons/VE125_randls_2_rotated.json,1784310,2341462,67,Man
142,679013,DepthScenes,duration_manipulation_targetAtFixation,jsons/VE125_randls_2_rotated.json,http://54.235.29.9/FacialAge/BNav_EC2/DepthDuration/v2_depth_duration_MTurk/v2_DepthDuration_HTML.html#14,14,1360,625,1360,768,8-21-2022,11-47-56,143,depth_duration_stimuli/001029_2014-06-08_13-17-57_260595134347_rgbf000065-resize_1/001029_2014-06-08_13-17-57_260595134347_rgbf000065-resize_1-target.png,125,3.0835,34,9388,125,meters,jsons/VE125_randls_2_rotated.json,1784310,2341462,67,Man
143,679013,DepthScenes,duration_manipulation_targetAtFixation,jsons/VE125_randls_2_rotated.json,http://54.235.29.9/FacialAge/BNav_EC2/DepthDuration/v2_depth_duration_MTurk/v2_DepthDuration_HTML.html#14,14,1360,625,1360,768,8-21-2022,11-47-56,144,depth_duration_stimuli/001450_2014-06-19_17-02-03_260595134347_rgbf000203-resize_4/001450_2014-06-19_17-02-03_260595134347_rgbf000203-resize_4-target.png,125,4.0106666666667,34,9377,124,meters,jsons/VE125_randls_2_rotated.json,1784310,2341462,67,Man
144,679013,DepthScenes,duration_manipulation_targetAtFixation,jsons/VE125_randls_2_rotated.json,http://54.235.29.9/FacialAge/BNav_EC2/DepthDuration/v2_depth_duration_MTurk/v2_DepthDuration_HTML.html#14,14,1360,625,1360,768,8-21-2022,11-47-56,145,depth_duration_stimuli/001449_2014-06-19_17-01-27_260595134347_rgbf000116-resize_2/001449_2014-06-19_17-01-27_260595134347_rgbf000116-resize_2-target.png,125,3.452,34,4876,123,meters,jsons/VE125_randls_2_rotated.json,1784310,2341462,67,Man
145,679013,DepthScenes,duration_manipulation_targetAtFixation,jsons/VE125_randls_2_rotated.json,http://54.235.29.9/FacialAge/BNav_EC2/DepthDuration/v2_depth_duration_MTurk/v2_DepthDuration_HTML.html#14,14,1360,625,1360,768,8-21-2022,11-47-56,146,depth_duration_stimuli/002875_2014-06-01_15-19-00_094959634447_rgbf000151-resize_1/002875_2014-06-01_15-19-00_094959634447_rgbf000151-resize_1-target.png,125,1.9675,45,11325,124,meters,jsons/VE125_randls_2_rotated.json,1784310,2341462,67,Man
146,679013,DepthScenes,duration_manipulation_targetAtFixation,jsons/VE125_randls_2_rotated.json,http://54.235.29.9/FacialAge/BNav_EC2/DepthDuration/v2_depth_duration_MTurk/v2_DepthDuration_HTML.html#14,14,1360,625,1360,768,8-21-2022,11-47-56,147,depth_duration_stimuli/001011_2014-06-08_23-18-54_260595134347_rgbf000044-resize_4/001011_2014-06-08_23-18-54_260595134347_rgbf000044-resize_4-target.png,125,2.4730000000000003,45,7730,125,meters,jsons/VE125_randls_2_rotated.json,1784310,2341462,67,Man
147,679013,DepthScenes,duration_manipulation_targetAtFixation,jsons/VE125_randls_2_rotated.json,http://54.235.29.9/FacialAge/BNav_EC2/DepthDuration/v2_depth_duration_MTurk/v2_DepthDuration_HTML.html#14,14,1360,625,1360,768,8-21-2022,11-47-56,148,depth_duration_stimuli/000927_2014-06-09_16-32-30_260595134347_rgbf000123-resize_3/000927_2014-06-09_16-32-30_260595134347_rgbf000123-resize_3-target.png,125,2.6785,45,10658,123,meters,jsons/VE125_randls_2_rotated.json,1784310,2341462,67,Man
148,679013,DepthScenes,duration_manipulation_targetAtFixation,jsons/VE125_randls_2_rotated.json,http://54.235.29.9/FacialAge/BNav_EC2/DepthDuration/v2_depth_duration_MTurk/v2_DepthDuration_HTML.html#14,14,1360,625,1360,768,8-21-2022,11-47-56,149,depth_duration_stimuli/001110_2014-06-15_17-25-28_260595134347_rgbf000150-resize_1/001110_2014-06-15_17-25-28_260595134347_rgbf000150-resize_1-target.png,125,1.7115,34,4797,124,meters,jsons/VE125_randls_2_rotated.json,1784310,2341462,67,Man
149,679013,DepthScenes,duration_manipulation_targetAtFixation,jsons/VE125_randls_2_rotated.json,http://54.235.29.9/FacialAge/BNav_EC2/DepthDuration/v2_depth_duration_MTurk/v2_DepthDuration_HTML.html#14,14,1360,625,1360,768,8-21-2022,11-47-56,150,depth_duration_stimuli/000549_2014-06-08_22-10-24_260595134347_rgbf000247-resize_3/000549_2014-06-08_22-10-24_260595134347_rgbf000247-resize_3-target.png,125,1.841,23,9057,124,meters,jsons/VE125_randls_2_rotated.json,1784310,2341462,67,Man
150,679013,DepthScenes,duration_manipulation_targetAtFixation,jsons/VE125_randls_2_rotated.json,http://54.235.29.9/FacialAge/BNav_EC2/DepthDuration/v2_depth_duration_MTurk/v2_DepthDuration_HTML.html#14,14,1360,625,1360,768,8-21-2022,11-47-56,151,depth_duration_stimuli/001055_2014-06-08_18-45-35_260595134347_rgbf000111-resize_4/001055_2014-06-08_18-45-35_260595134347_rgbf000111-resize_4-target.png,125,2.4290000000000003,23,4659,125,meters,jsons/VE125_randls_2_rotated.json,1784310,2341462,67,Man
151,679013,DepthScenes,duration_manipulation_targetAtFixation,jsons/VE125_randls_2_rotated.json,http://54.235.29.9/FacialAge/BNav_EC2/DepthDuration/v2_depth_duration_MTurk/v2_DepthDuration_HTML.html#14,14,1360,625,1360,768,8-21-2022,11-47-56,152,depth_duration_stimuli/000569_2014-06-09_22-51-47_260595134347_rgbf000141-resize_3/000569_2014-06-09_22-51-47_260595134347_rgbf000141-resize-original.jpg,125,4.512,0,5798,125,meters,jsons/VE125_randls_2_rotated.json,1784310,2341462,67,Man
152,679013,DepthScenes,duration_manipulation_targetAtFixation,jsons/VE125_randls_2_rotated.json,http://54.235.29.9/FacialAge/BNav_EC2/DepthDuration/v2_depth_duration_MTurk/v2_DepthDuration_HTML.html#14,14,1360,625,1360,768,8-21-2022,11-47-56,153,depth_duration_stimuli/000734_2014-06-08_17-39-11_260595134347_rgbf000128-resize_2/000734_2014-06-08_17-39-11_260595134347_rgbf000128-resize_2-target.png,125,4.098,34,10120,124,meters,jsons/VE125_randls_2_rotated.json,1784310,2341462,67,Man
153,679013,DepthScenes,duration_manipulation_targetAtFixation,jsons/VE125_randls_2_rotated.json,http://54.235.29.9/FacialAge/BNav_EC2/DepthDuration/v2_depth_duration_MTurk/v2_DepthDuration_HTML.html#14,14,1360,625,1360,768,8-21-2022,11-47-56,154,depth_duration_stimuli/000739_2014-06-08_18-45-58_260595134347_rgbf000068-resize_1/000739_2014-06-08_18-45-58_260595134347_rgbf000068-resize_1-target.png,125,3.534,42,7079,124,meters,jsons/VE125_randls_2_rotated.json,1784310,2341462,67,Man
154,679013,DepthScenes,duration_manipulation_targetAtFixation,jsons/VE125_randls_2_rotated.json,http://54.235.29.9/FacialAge/BNav_EC2/DepthDuration/v2_depth_duration_MTurk/v2_DepthDuration_HTML.html#14,14,1360,625,1360,768,8-21-2022,11-47-56,155,depth_duration_stimuli/002637_2014-06-24_14-51-13_094959634447_rgbf000066-resize_4/002637_2014-06-24_14-51-13_094959634447_rgbf000066-resize_4-target.png,125,1.9955,23,20100,123,meters,jsons/VE125_randls_2_rotated.json,1784310,2341462,67,Man
155,679013,DepthScenes,duration_manipulation_targetAtFixation,jsons/VE125_randls_2_rotated.json,http://54.235.29.9/FacialAge/BNav_EC2/DepthDuration/v2_depth_duration_MTurk/v2_DepthDuration_HTML.html#14,14,1360,625,1360,768,8-21-2022,11-47-56,156,depth_duration_stimuli/003534_2014-05-22_15-06-10_094959634447_rgbf000102-resize_4/003534_2014-05-22_15-06-10_094959634447_rgbf000102-resize_4-target.png,125,1.426,34,5496,124,meters,jsons/VE125_randls_2_rotated.json,1784310,2341462,67,Man
156,679013,DepthScenes,duration_manipulation_targetAtFixation,jsons/VE125_randls_2_rotated.json,http://54.235.29.9/FacialAge/BNav_EC2/DepthDuration/v2_depth_duration_MTurk/v2_DepthDuration_HTML.html#14,14,1360,625,1360,768,8-21-2022,11-47-56,157,depth_duration_stimuli/002660_2014-06-13_15-44-18_094959634447_rgbf001878-resize_2/002660_2014-06-13_15-44-18_094959634447_rgbf001878-resize_2-target.png,125,3.576,34,8692,125,meters,jsons/VE125_randls_2_rotated.json,1784310,2341462,67,Man
157,679013,DepthScenes,duration_manipulation_targetAtFixation,jsons/VE125_randls_2_rotated.json,http://54.235.29.9/FacialAge/BNav_EC2/DepthDuration/v2_depth_duration_MTurk/v2_DepthDuration_HTML.html#14,14,1360,625,1360,768,8-21-2022,11-47-56,158,depth_duration_stimuli/002153_2014-06-25_21-27-18_260595134347_rgbf000038-resize_5/002153_2014-06-25_21-27-18_260595134347_rgbf000038-resize_5-target.png,125,2.505,34,7573,124,meters,jsons/VE125_randls_2_rotated.json,1784310,2341462,67,Man
158,679013,DepthScenes,duration_manipulation_targetAtFixation,jsons/VE125_randls_2_rotated.json,http://54.235.29.9/FacialAge/BNav_EC2/DepthDuration/v2_depth_duration_MTurk/v2_DepthDuration_HTML.html#14,14,1360,625,1360,768,8-21-2022,11-47-56,159,depth_duration_stimuli/002340_2014-06-28_20-05-46_260595134347_rgbf000113-resize_0/002340_2014-06-28_20-05-46_260595134347_rgbf000113-resize_0-target.png,125,2.4735,34,11947,124,meters,jsons/VE125_randls_2_rotated.json,1784310,2341462,67,Man
159,679013,DepthScenes,duration_manipulation_targetAtFixation,jsons/VE125_randls_2_rotated.json,http://54.235.29.9/FacialAge/BNav_EC2/DepthDuration/v2_depth_duration_MTurk/v2_DepthDuration_HTML.html#14,14,1360,625,1360,768,8-21-2022,11-47-56,160,depth_duration_stimuli/001016_2014-06-09_16-16-10_260595134347_rgbf000112-resize_5/001016_2014-06-09_16-16-10_260595134347_rgbf000112-resize_5-target.png,125,1.6565,34,6098,125,meters,jsons/VE125_randls_2_rotated.json,1784310,2341462,67,Man
160,679013,DepthScenes,duration_manipulation_targetAtFixation,jsons/VE125_randls_2_rotated.json,http://54.235.29.9/FacialAge/BNav_EC2/DepthDuration/v2_depth_duration_MTurk/v2_DepthDuration_HTML.html#14,14,1360,625,1360,768,8-21-2022,11-47-56,161,depth_duration_stimuli/000109_2014-05-14_23-41-52_260595134347_rgbf000035-resize_9/000109_2014-05-14_23-41-52_260595134347_rgbf000035-resize_9-target.png,125,1.3545,34,14182,123,meters,jsons/VE125_randls_2_rotated.json,1784310,2341462,67,Man
161,679013,DepthScenes,duration_manipulation_targetAtFixation,jsons/VE125_randls_2_rotated.json,http://54.235.29.9/FacialAge/BNav_EC2/DepthDuration/v2_depth_duration_MTurk/v2_DepthDuration_HTML.html#14,14,1360,625,1360,768,8-21-2022,11-47-56,162,depth_duration_stimuli/000470_2014-06-09_19-42-40_260595134347_rgbf000094-resize_1/000470_2014-06-09_19-42-40_260595134347_rgbf000094-resize_1-target.png,125,1.831,45,5232,123,meters,jsons/VE125_randls_2_rotated.json,1784310,2341462,67,Man
162,679013,DepthScenes,duration_manipulation_targetAtFixation,jsons/VE125_randls_2_rotated.json,http://54.235.29.9/FacialAge/BNav_EC2/DepthDuration/v2_depth_duration_MTurk/v2_DepthDuration_HTML.html#14,14,1360,625,1360,768,8-21-2022,11-47-56,163,depth_duration_stimuli/002657_2014-06-13_15-29-54_094959634447_rgbf000150-resize_1/002657_2014-06-13_15-29-54_094959634447_rgbf000150-resize_1-target.png,125,4.919,34,10199,124,meters,jsons/VE125_randls_2_rotated.json,1784310,2341462,67,Man
163,679013,DepthScenes,duration_manipulation_targetAtFixation,jsons/VE125_randls_2_rotated.json,http://54.235.29.9/FacialAge/BNav_EC2/DepthDuration/v2_depth_duration_MTurk/v2_DepthDuration_HTML.html#14,14,1360,625,1360,768,8-21-2022,11-47-56,164,depth_duration_stimuli/002375_2014-06-28_20-13-44_260595134347_rgbf000032-resize_1/002375_2014-06-28_20-13-44_260595134347_rgbf000032-resize_1-target.png,125,4.0175,34,6058,124,meters,jsons/VE125_randls_2_rotated.json,1784310,2341462,67,Man
