,subjID,experimentName,versionName,sequenceName,url,selected_row,windowWidth,windowHeight,screenWidth,screenHeight,startDate,startTime,trial,stimulus,duration,actual_depth,depth_estimate,trial_RT,log_sceneDuration,unitSelection,seq_filepath,experimentTime,totalTime,age,gender
0,679854,DepthScenes,duration_manipulation_targetAtFixation,jsons/VE125_randls_42.json,http://54.235.29.9/FacialAge/BNav_EC2/DepthDuration/v2_depth_duration_MTurk/v2_DepthDuration_HTML.html#28,28,1024,625,1024,768,8-29-2022,13-36-3,1,depth_duration_stimuli/000758_2014-06-08_22-05-08_260595134347_rgbf000085-resize_0/000758_2014-06-08_22-05-08_260595134347_rgbf000085-resize_0-target.png,125,3.3810000000000002,2,8548,125,feet,jsons/VE125_randls_42.json,1174603,2652112,33,Woman
1,679854,DepthScenes,duration_manipulation_targetAtFixation,jsons/VE125_randls_42.json,http://54.235.29.9/FacialAge/BNav_EC2/DepthDuration/v2_depth_duration_MTurk/v2_DepthDuration_HTML.html#28,28,1024,625,1024,768,8-29-2022,13-36-3,2,depth_duration_stimuli/000854_2014-06-09_19-43-13_260595134347_rgbf000066-resize_0/000854_2014-06-09_19-43-13_260595134347_rgbf000066-resize_0-target.png,125,3.068,2,5515,124,feet,jsons/VE125_randls_42.json,1174603,2652112,33,Woman
2,679854,DepthScenes,duration_manipulation_targetAtFixation,jsons/VE125_randls_42.json,http://54.235.29.9/FacialAge/BNav_EC2/DepthDuration/v2_depth_duration_MTurk/v2_DepthDuration_HTML.html#28,28,1024,625,1024,768,8-29-2022,13-36-3,3,depth_duration_stimuli/002600_2014-06-24_14-27-04_094959634447_rgbf000074-resize_2/002600_2014-06-24_14-27-04_094959634447_rgbf000074-resize_2-target.png,125,2.7575,3,5771,126,feet,jsons/VE125_randls_42.json,1174603,2652112,33,Woman
3,679854,DepthScenes,duration_manipulation_targetAtFixation,jsons/VE125_randls_42.json,http://54.235.29.9/FacialAge/BNav_EC2/DepthDuration/v2_depth_duration_MTurk/v2_DepthDuration_HTML.html#28,28,1024,625,1024,768,8-29-2022,13-36-3,4,depth_duration_stimuli/003228_2014-05-14_13-42-35_094959634447_rgbf000101-resize_1/003228_2014-05-14_13-42-35_094959634447_rgbf000101-resize_1-target.png,125,1.9680000000000002,1,4955,124,feet,jsons/VE125_randls_42.json,1174603,2652112,33,Woman
4,679854,DepthScenes,duration_manipulation_targetAtFixation,jsons/VE125_randls_42.json,http://54.235.29.9/FacialAge/BNav_EC2/DepthDuration/v2_depth_duration_MTurk/v2_DepthDuration_HTML.html#28,28,1024,625,1024,768,8-29-2022,13-36-3,5,depth_duration_stimuli/000682_2014-06-08_23-14-58_260595134347_rgbf000041-resize_5/000682_2014-06-08_23-14-58_260595134347_rgbf000041-resize_5-target.png,125,2.7239999999999998,0,6209,125,feet,jsons/VE125_randls_42.json,1174603,2652112,33,Woman
5,679854,DepthScenes,duration_manipulation_targetAtFixation,jsons/VE125_randls_42.json,http://54.235.29.9/FacialAge/BNav_EC2/DepthDuration/v2_depth_duration_MTurk/v2_DepthDuration_HTML.html#28,28,1024,625,1024,768,8-29-2022,13-36-3,6,depth_duration_stimuli/001650_2014-06-20_12-09-00_260595134347_rgbf000087-resize_3/001650_2014-06-20_12-09-00_260595134347_rgbf000087-resize_3-target.png,125,1.9505,1,5917,124,feet,jsons/VE125_randls_42.json,1174603,2652112,33,Woman
6,679854,DepthScenes,duration_manipulation_targetAtFixation,jsons/VE125_randls_42.json,http://54.235.29.9/FacialAge/BNav_EC2/DepthDuration/v2_depth_duration_MTurk/v2_DepthDuration_HTML.html#28,28,1024,625,1024,768,8-29-2022,13-36-3,7,depth_duration_stimuli/002272_2014-06-28_18-53-56_260595134347_rgbf000067-resize_2/002272_2014-06-28_18-53-56_260595134347_rgbf000067-resize_2-target.png,125,1.138,2,11997,124,feet,jsons/VE125_randls_42.json,1174603,2652112,33,Woman
7,679854,DepthScenes,duration_manipulation_targetAtFixation,jsons/VE125_randls_42.json,http://54.235.29.9/FacialAge/BNav_EC2/DepthDuration/v2_depth_duration_MTurk/v2_DepthDuration_HTML.html#28,28,1024,625,1024,768,8-29-2022,13-36-3,8,depth_duration_stimuli/001571_2014-06-20_17-21-32_260595134347_rgbf000089-resize_1/001571_2014-06-20_17-21-32_260595134347_rgbf000089-resize_1-target.png,125,1.86,1,11930,125,feet,jsons/VE125_randls_42.json,1174603,2652112,33,Woman
8,679854,DepthScenes,duration_manipulation_targetAtFixation,jsons/VE125_randls_42.json,http://54.235.29.9/FacialAge/BNav_EC2/DepthDuration/v2_depth_duration_MTurk/v2_DepthDuration_HTML.html#28,28,1024,625,1024,768,8-29-2022,13-36-3,9,depth_duration_stimuli/002375_2014-06-28_20-13-44_260595134347_rgbf000032-resize_1/002375_2014-06-28_20-13-44_260595134347_rgbf000032-resize_1-target.png,125,4.0175,2,8963,126,feet,jsons/VE125_randls_42.json,1174603,2652112,33,Woman
9,679854,DepthScenes,duration_manipulation_targetAtFixation,jsons/VE125_randls_42.json,http://54.235.29.9/FacialAge/BNav_EC2/DepthDuration/v2_depth_duration_MTurk/v2_DepthDuration_HTML.html#28,28,1024,625,1024,768,8-29-2022,13-36-3,10,depth_duration_stimuli/002657_2014-06-13_15-29-54_094959634447_rgbf000150-resize_1/002657_2014-06-13_15-29-54_094959634447_rgbf000150-resize_1-target.png,125,4.919,2,5826,125,feet,jsons/VE125_randls_42.json,1174603,2652112,33,Woman
10,679854,DepthScenes,duration_manipulation_targetAtFixation,jsons/VE125_randls_42.json,http://54.235.29.9/FacialAge/BNav_EC2/DepthDuration/v2_depth_duration_MTurk/v2_DepthDuration_HTML.html#28,28,1024,625,1024,768,8-29-2022,13-36-3,11,depth_duration_stimuli/002989_2014-06-15_12-25-03_094959634447_rgbf000150-resize_3/002989_2014-06-15_12-25-03_094959634447_rgbf000150-resize_3-target.png,125,4.1975,1,8509,125,feet,jsons/VE125_randls_42.json,1174603,2652112,33,Woman
11,679854,DepthScenes,duration_manipulation_targetAtFixation,jsons/VE125_randls_42.json,http://54.235.29.9/FacialAge/BNav_EC2/DepthDuration/v2_depth_duration_MTurk/v2_DepthDuration_HTML.html#28,28,1024,625,1024,768,8-29-2022,13-36-3,12,depth_duration_stimuli/000866_2014-06-09_20-45-42_260595134347_rgbf000139-resize_1/000866_2014-06-09_20-45-42_260595134347_rgbf000139-resize_1-target.png,125,3.2155,2,5283,126,feet,jsons/VE125_randls_42.json,1174603,2652112,33,Woman
12,679854,DepthScenes,duration_manipulation_targetAtFixation,jsons/VE125_randls_42.json,http://54.235.29.9/FacialAge/BNav_EC2/DepthDuration/v2_depth_duration_MTurk/v2_DepthDuration_HTML.html#28,28,1024,625,1024,768,8-29-2022,13-36-3,13,depth_duration_stimuli/000569_2014-06-09_22-51-47_260595134347_rgbf000141-resize_3/000569_2014-06-09_22-51-47_260595134347_rgbf000141-resize-original.jpg,125,4.512,1,15932,126,feet,jsons/VE125_randls_42.json,1174603,2652112,33,Woman
13,679854,DepthScenes,duration_manipulation_targetAtFixation,jsons/VE125_randls_42.json,http://54.235.29.9/FacialAge/BNav_EC2/DepthDuration/v2_depth_duration_MTurk/v2_DepthDuration_HTML.html#28,28,1024,625,1024,768,8-29-2022,13-36-3,14,depth_duration_stimuli/002057_2014-06-24_21-00-13_260595134347_rgbf000120-resize_1/002057_2014-06-24_21-00-13_260595134347_rgbf000120-resize_1-target.png,125,2.967,2,6338,125,feet,jsons/VE125_randls_42.json,1174603,2652112,33,Woman
14,679854,DepthScenes,duration_manipulation_targetAtFixation,jsons/VE125_randls_42.json,http://54.235.29.9/FacialAge/BNav_EC2/DepthDuration/v2_depth_duration_MTurk/v2_DepthDuration_HTML.html#28,28,1024,625,1024,768,8-29-2022,13-36-3,15,depth_duration_stimuli/000709_2014-06-08_13-51-55_260595134347_rgbf000068-resize_3/000709_2014-06-08_13-51-55_260595134347_rgbf000068-resize_3-target.png,125,1.8030000000000002,0,6551,124,feet,jsons/VE125_randls_42.json,1174603,2652112,33,Woman
15,679854,DepthScenes,duration_manipulation_targetAtFixation,jsons/VE125_randls_42.json,http://54.235.29.9/FacialAge/BNav_EC2/DepthDuration/v2_depth_duration_MTurk/v2_DepthDuration_HTML.html#28,28,1024,625,1024,768,8-29-2022,13-36-3,16,depth_duration_stimuli/001555_2014-06-20_17-12-10_260595134347_rgbf000065-resize_4/001555_2014-06-20_17-12-10_260595134347_rgbf000065-resize_4-target.png,125,1.633,1,7146,125,feet,jsons/VE125_randls_42.json,1174603,2652112,33,Woman
16,679854,DepthScenes,duration_manipulation_targetAtFixation,jsons/VE125_randls_42.json,http://54.235.29.9/FacialAge/BNav_EC2/DepthDuration/v2_depth_duration_MTurk/v2_DepthDuration_HTML.html#28,28,1024,625,1024,768,8-29-2022,13-36-3,17,depth_duration_stimuli/000103_2014-05-14_22-01-17_260595134347_rgbf000152-resize_5/000103_2014-05-14_22-01-17_260595134347_rgbf000152-resize_5-target.png,125,1.993,2,4098,126,feet,jsons/VE125_randls_42.json,1174603,2652112,33,Woman
17,679854,DepthScenes,duration_manipulation_targetAtFixation,jsons/VE125_randls_42.json,http://54.235.29.9/FacialAge/BNav_EC2/DepthDuration/v2_depth_duration_MTurk/v2_DepthDuration_HTML.html#28,28,1024,625,1024,768,8-29-2022,13-36-3,18,depth_duration_stimuli/001164_2014-06-17_15-35-46_260595134347_rgbf000085-resize_3/001164_2014-06-17_15-35-46_260595134347_rgbf000085-resize_3-target.png,125,2.354,3,6253,125,feet,jsons/VE125_randls_42.json,1174603,2652112,33,Woman
18,679854,DepthScenes,duration_manipulation_targetAtFixation,jsons/VE125_randls_42.json,http://54.235.29.9/FacialAge/BNav_EC2/DepthDuration/v2_depth_duration_MTurk/v2_DepthDuration_HTML.html#28,28,1024,625,1024,768,8-29-2022,13-36-3,19,depth_duration_stimuli/001136_2014-06-17_15-19-41_260595134347_rgbf000076-resize_3/001136_2014-06-17_15-19-41_260595134347_rgbf000076-resize_3-target.png,125,1.8655,2,6055,125,feet,jsons/VE125_randls_42.json,1174603,2652112,33,Woman
19,679854,DepthScenes,duration_manipulation_targetAtFixation,jsons/VE125_randls_42.json,http://54.235.29.9/FacialAge/BNav_EC2/DepthDuration/v2_depth_duration_MTurk/v2_DepthDuration_HTML.html#28,28,1024,625,1024,768,8-29-2022,13-36-3,20,depth_duration_stimuli/001158_2014-06-17_15-32-16_260595134347_rgbf000138-resize_2/001158_2014-06-17_15-32-16_260595134347_rgbf000138-resize_2-target.png,125,4.5315,3,8389,118,feet,jsons/VE125_randls_42.json,1174603,2652112,33,Woman
20,679854,DepthScenes,duration_manipulation_targetAtFixation,jsons/VE125_randls_42.json,http://54.235.29.9/FacialAge/BNav_EC2/DepthDuration/v2_depth_duration_MTurk/v2_DepthDuration_HTML.html#28,28,1024,625,1024,768,8-29-2022,13-36-3,21,depth_duration_stimuli/000556_2014-06-09_22-42-56_260595134347_rgbf000214-resize_1/000556_2014-06-09_22-42-56_260595134347_rgbf000214-resize_1-target.png,125,4.8415,2,13564,125,feet,jsons/VE125_randls_42.json,1174603,2652112,33,Woman
21,679854,DepthScenes,duration_manipulation_targetAtFixation,jsons/VE125_randls_42.json,http://54.235.29.9/FacialAge/BNav_EC2/DepthDuration/v2_depth_duration_MTurk/v2_DepthDuration_HTML.html#28,28,1024,625,1024,768,8-29-2022,13-36-3,22,depth_duration_stimuli/002509_2014-06-24_13-19-22_094959634447_rgbf000077-resize_0/002509_2014-06-24_13-19-22_094959634447_rgbf000077-resize_0-target.png,125,1.3065,0,7476,101,feet,jsons/VE125_randls_42.json,1174603,2652112,33,Woman
22,679854,DepthScenes,duration_manipulation_targetAtFixation,jsons/VE125_randls_42.json,http://54.235.29.9/FacialAge/BNav_EC2/DepthDuration/v2_depth_duration_MTurk/v2_DepthDuration_HTML.html#28,28,1024,625,1024,768,8-29-2022,13-36-3,23,depth_duration_stimuli/003338_2014-05-20_11-01-23_094959634447_rgbf000051-resize_6/003338_2014-05-20_11-01-23_094959634447_rgbf000051-resize_6-target.png,125,1.693,1,6739,125,feet,jsons/VE125_randls_42.json,1174603,2652112,33,Woman
23,679854,DepthScenes,duration_manipulation_targetAtFixation,jsons/VE125_randls_42.json,http://54.235.29.9/FacialAge/BNav_EC2/DepthDuration/v2_depth_duration_MTurk/v2_DepthDuration_HTML.html#28,28,1024,625,1024,768,8-29-2022,13-36-3,24,depth_duration_stimuli/001244_2014-06-17_16-47-45_260595134347_rgbf000030-resize_4/001244_2014-06-17_16-47-45_260595134347_rgbf000030-resize_4-target.png,125,2.0425,3,9667,125,feet,jsons/VE125_randls_42.json,1174603,2652112,33,Woman
24,679854,DepthScenes,duration_manipulation_targetAtFixation,jsons/VE125_randls_42.json,http://54.235.29.9/FacialAge/BNav_EC2/DepthDuration/v2_depth_duration_MTurk/v2_DepthDuration_HTML.html#28,28,1024,625,1024,768,8-29-2022,13-36-3,25,depth_duration_stimuli/003495_2014-05-21_16-01-51_094959634447_rgbf000100-resize_3/003495_2014-05-21_16-01-51_094959634447_rgbf000100-resize_3-target.png,125,1.6255,1,4389,126,feet,jsons/VE125_randls_42.json,1174603,2652112,33,Woman
25,679854,DepthScenes,duration_manipulation_targetAtFixation,jsons/VE125_randls_42.json,http://54.235.29.9/FacialAge/BNav_EC2/DepthDuration/v2_depth_duration_MTurk/v2_DepthDuration_HTML.html#28,28,1024,625,1024,768,8-29-2022,13-36-3,26,depth_duration_stimuli/001066_2014-06-08_22-03-20_260595134347_rgbf000066-resize_4/001066_2014-06-08_22-03-20_260595134347_rgbf000066-resize_4-target.png,125,4.2330000000000005,3,5684,126,feet,jsons/VE125_randls_42.json,1174603,2652112,33,Woman
26,679854,DepthScenes,duration_manipulation_targetAtFixation,jsons/VE125_randls_42.json,http://54.235.29.9/FacialAge/BNav_EC2/DepthDuration/v2_depth_duration_MTurk/v2_DepthDuration_HTML.html#28,28,1024,625,1024,768,8-29-2022,13-36-3,27,depth_duration_stimuli/000742_2014-06-08_18-48-09_260595134347_rgbf000164-resize_4/000742_2014-06-08_18-48-09_260595134347_rgbf000164-resize_4-target.png,125,4.632,1,6907,124,feet,jsons/VE125_randls_42.json,1174603,2652112,33,Woman
27,679854,DepthScenes,duration_manipulation_targetAtFixation,jsons/VE125_randls_42.json,http://54.235.29.9/FacialAge/BNav_EC2/DepthDuration/v2_depth_duration_MTurk/v2_DepthDuration_HTML.html#28,28,1024,625,1024,768,8-29-2022,13-36-3,28,depth_duration_stimuli/002725_2014-06-22_11-47-51_094959634447_rgbf000070-resize_1/002725_2014-06-22_11-47-51_094959634447_rgbf000070-resize_1-target.png,125,2.195,2,6242,125,feet,jsons/VE125_randls_42.json,1174603,2652112,33,Woman
28,679854,DepthScenes,duration_manipulation_targetAtFixation,jsons/VE125_randls_42.json,http://54.235.29.9/FacialAge/BNav_EC2/DepthDuration/v2_depth_duration_MTurk/v2_DepthDuration_HTML.html#28,28,1024,625,1024,768,8-29-2022,13-36-3,29,depth_duration_stimuli/002344_2014-06-28_20-06-29_260595134347_rgbf000030-resize_1/002344_2014-06-28_20-06-29_260595134347_rgbf000030-resize_1-target.png,125,1.5795,1,5000,125,feet,jsons/VE125_randls_42.json,1174603,2652112,33,Woman
29,679854,DepthScenes,duration_manipulation_targetAtFixation,jsons/VE125_randls_42.json,http://54.235.29.9/FacialAge/BNav_EC2/DepthDuration/v2_depth_duration_MTurk/v2_DepthDuration_HTML.html#28,28,1024,625,1024,768,8-29-2022,13-36-3,30,depth_duration_stimuli/000375_2014-06-08_11-17-29_260595134347_rgbf000133-resize_2/000375_2014-06-08_11-17-29_260595134347_rgbf000133-resize-original.jpg,125,4.718,3,4579,122,feet,jsons/VE125_randls_42.json,1174603,2652112,33,Woman
30,679854,DepthScenes,duration_manipulation_targetAtFixation,jsons/VE125_randls_42.json,http://54.235.29.9/FacialAge/BNav_EC2/DepthDuration/v2_depth_duration_MTurk/v2_DepthDuration_HTML.html#28,28,1024,625,1024,768,8-29-2022,13-36-3,31,depth_duration_stimuli/000486_2014-06-09_20-47-20_260595134347_rgbf000143-resize_2/000486_2014-06-09_20-47-20_260595134347_rgbf000143-resize_2-target.png,125,4.8325,1,6834,125,feet,jsons/VE125_randls_42.json,1174603,2652112,33,Woman
31,679854,DepthScenes,duration_manipulation_targetAtFixation,jsons/VE125_randls_42.json,http://54.235.29.9/FacialAge/BNav_EC2/DepthDuration/v2_depth_duration_MTurk/v2_DepthDuration_HTML.html#28,28,1024,625,1024,768,8-29-2022,13-36-3,32,depth_duration_stimuli/003083_2014-06-15_15-21-03_094959634447_rgbf000063-resize_1/003083_2014-06-15_15-21-03_094959634447_rgbf000063-resize_1-target.png,125,4.1405,3,5827,124,feet,jsons/VE125_randls_42.json,1174603,2652112,33,Woman
32,679854,DepthScenes,duration_manipulation_targetAtFixation,jsons/VE125_randls_42.json,http://54.235.29.9/FacialAge/BNav_EC2/DepthDuration/v2_depth_duration_MTurk/v2_DepthDuration_HTML.html#28,28,1024,625,1024,768,8-29-2022,13-36-3,33,depth_duration_stimuli/001417_2014-06-19_16-25-36_260595134347_rgbf000115-resize_5/001417_2014-06-19_16-25-36_260595134347_rgbf000115-resize_5-target.png,125,4.6255,1,7437,125,feet,jsons/VE125_randls_42.json,1174603,2652112,33,Woman
33,679854,DepthScenes,duration_manipulation_targetAtFixation,jsons/VE125_randls_42.json,http://54.235.29.9/FacialAge/BNav_EC2/DepthDuration/v2_depth_duration_MTurk/v2_DepthDuration_HTML.html#28,28,1024,625,1024,768,8-29-2022,13-36-3,34,depth_duration_stimuli/003081_2014-06-15_15-19-16_094959634447_rgbf000150-resize_1/003081_2014-06-15_15-19-16_094959634447_rgbf000150-resize_1-target.png,125,3.9125,2,4147,125,feet,jsons/VE125_randls_42.json,1174603,2652112,33,Woman
34,679854,DepthScenes,duration_manipulation_targetAtFixation,jsons/VE125_randls_42.json,http://54.235.29.9/FacialAge/BNav_EC2/DepthDuration/v2_depth_duration_MTurk/v2_DepthDuration_HTML.html#28,28,1024,625,1024,768,8-29-2022,13-36-3,35,depth_duration_stimuli/000368_2014-06-09_15-53-01_260595134347_rgbf000155-resize_2/000368_2014-06-09_15-53-01_260595134347_rgbf000155-resize_2-target.png,125,2.4859999999999998,1,15666,125,feet,jsons/VE125_randls_42.json,1174603,2652112,33,Woman
35,679854,DepthScenes,duration_manipulation_targetAtFixation,jsons/VE125_randls_42.json,http://54.235.29.9/FacialAge/BNav_EC2/DepthDuration/v2_depth_duration_MTurk/v2_DepthDuration_HTML.html#28,28,1024,625,1024,768,8-29-2022,13-36-3,36,depth_duration_stimuli/002678_2014-06-13_16-15-32_094959634447_rgbf000151-resize_6/002678_2014-06-13_16-15-32_094959634447_rgbf000151-resize_6-target.png,125,2.1830000000000003,2,18110,125,feet,jsons/VE125_randls_42.json,1174603,2652112,33,Woman
36,679854,DepthScenes,duration_manipulation_targetAtFixation,jsons/VE125_randls_42.json,http://54.235.29.9/FacialAge/BNav_EC2/DepthDuration/v2_depth_duration_MTurk/v2_DepthDuration_HTML.html#28,28,1024,625,1024,768,8-29-2022,13-36-3,37,depth_duration_stimuli/002763_2014-06-22_19-13-10_094959634447_rgbf000075-resize_4/002763_2014-06-22_19-13-10_094959634447_rgbf000075-resize_4-target.png,125,1.68375,3,8250,123,feet,jsons/VE125_randls_42.json,1174603,2652112,33,Woman
37,679854,DepthScenes,duration_manipulation_targetAtFixation,jsons/VE125_randls_42.json,http://54.235.29.9/FacialAge/BNav_EC2/DepthDuration/v2_depth_duration_MTurk/v2_DepthDuration_HTML.html#28,28,1024,625,1024,768,8-29-2022,13-36-3,38,depth_duration_stimuli/002209_2014-06-28_18-36-10_260595134347_rgbf000051-resize_1/002209_2014-06-28_18-36-10_260595134347_rgbf000051-resize_1-target.png,125,2.057,1,7259,114,feet,jsons/VE125_randls_42.json,1174603,2652112,33,Woman
38,679854,DepthScenes,duration_manipulation_targetAtFixation,jsons/VE125_randls_42.json,http://54.235.29.9/FacialAge/BNav_EC2/DepthDuration/v2_depth_duration_MTurk/v2_DepthDuration_HTML.html#28,28,1024,625,1024,768,8-29-2022,13-36-3,39,depth_duration_stimuli/001055_2014-06-08_18-45-35_260595134347_rgbf000111-resize_4/001055_2014-06-08_18-45-35_260595134347_rgbf000111-resize_4-target.png,125,2.4290000000000003,2,4917,127,feet,jsons/VE125_randls_42.json,1174603,2652112,33,Woman
39,679854,DepthScenes,duration_manipulation_targetAtFixation,jsons/VE125_randls_42.json,http://54.235.29.9/FacialAge/BNav_EC2/DepthDuration/v2_depth_duration_MTurk/v2_DepthDuration_HTML.html#28,28,1024,625,1024,768,8-29-2022,13-36-3,40,depth_duration_stimuli/000549_2014-06-08_22-10-24_260595134347_rgbf000247-resize_3/000549_2014-06-08_22-10-24_260595134347_rgbf000247-resize_3-target.png,125,1.841,3,4004,125,feet,jsons/VE125_randls_42.json,1174603,2652112,33,Woman
40,679854,DepthScenes,duration_manipulation_targetAtFixation,jsons/VE125_randls_42.json,http://54.235.29.9/FacialAge/BNav_EC2/DepthDuration/v2_depth_duration_MTurk/v2_DepthDuration_HTML.html#28,28,1024,625,1024,768,8-29-2022,13-36-3,41,depth_duration_stimuli/002748_2014-06-22_19-07-22_094959634447_rgbf000078-resize_1/002748_2014-06-22_19-07-22_094959634447_rgbf000078-resize_1-target.png,125,4.6705,2,5940,112,feet,jsons/VE125_randls_42.json,1174603,2652112,33,Woman
41,679854,DepthScenes,duration_manipulation_targetAtFixation,jsons/VE125_randls_42.json,http://54.235.29.9/FacialAge/BNav_EC2/DepthDuration/v2_depth_duration_MTurk/v2_DepthDuration_HTML.html#28,28,1024,625,1024,768,8-29-2022,13-36-3,42,depth_duration_stimuli/002995_2014-06-15_12-31-26_094959634447_rgbf000150-resize_1/002995_2014-06-15_12-31-26_094959634447_rgbf000150-resize_1-target.png,125,3.8360000000000003,3,5540,125,feet,jsons/VE125_randls_42.json,1174603,2652112,33,Woman
42,679854,DepthScenes,duration_manipulation_targetAtFixation,jsons/VE125_randls_42.json,http://54.235.29.9/FacialAge/BNav_EC2/DepthDuration/v2_depth_duration_MTurk/v2_DepthDuration_HTML.html#28,28,1024,625,1024,768,8-29-2022,13-36-3,43,depth_duration_stimuli/003534_2014-05-22_15-06-10_094959634447_rgbf000102-resize_4/003534_2014-05-22_15-06-10_094959634447_rgbf000102-resize_4-target.png,125,1.426,2,5554,126,feet,jsons/VE125_randls_42.json,1174603,2652112,33,Woman
43,679854,DepthScenes,duration_manipulation_targetAtFixation,jsons/VE125_randls_42.json,http://54.235.29.9/FacialAge/BNav_EC2/DepthDuration/v2_depth_duration_MTurk/v2_DepthDuration_HTML.html#28,28,1024,625,1024,768,8-29-2022,13-36-3,44,depth_duration_stimuli/002637_2014-06-24_14-51-13_094959634447_rgbf000066-resize_4/002637_2014-06-24_14-51-13_094959634447_rgbf000066-resize_4-target.png,125,1.9955,3,4534,124,feet,jsons/VE125_randls_42.json,1174603,2652112,33,Woman
44,679854,DepthScenes,duration_manipulation_targetAtFixation,jsons/VE125_randls_42.json,http://54.235.29.9/FacialAge/BNav_EC2/DepthDuration/v2_depth_duration_MTurk/v2_DepthDuration_HTML.html#28,28,1024,625,1024,768,8-29-2022,13-36-3,45,depth_duration_stimuli/000787_2014-06-08_22-33-53_260595134347_rgbf000175-resize_1/000787_2014-06-08_22-33-53_260595134347_rgbf000175-resize-original.jpg,125,4.784,4,7031,124,feet,jsons/VE125_randls_42.json,1174603,2652112,33,Woman
45,679854,DepthScenes,duration_manipulation_targetAtFixation,jsons/VE125_randls_42.json,http://54.235.29.9/FacialAge/BNav_EC2/DepthDuration/v2_depth_duration_MTurk/v2_DepthDuration_HTML.html#28,28,1024,625,1024,768,8-29-2022,13-36-3,46,depth_duration_stimuli/000506_2014-06-08_23-21-00_260595134347_rgbf000070-resize_7/000506_2014-06-08_23-21-00_260595134347_rgbf000070-resize_7-target.png,125,4.0585,1,6613,124,feet,jsons/VE125_randls_42.json,1174603,2652112,33,Woman
46,679854,DepthScenes,duration_manipulation_targetAtFixation,jsons/VE125_randls_42.json,http://54.235.29.9/FacialAge/BNav_EC2/DepthDuration/v2_depth_duration_MTurk/v2_DepthDuration_HTML.html#28,28,1024,625,1024,768,8-29-2022,13-36-3,47,depth_duration_stimuli/003079_2014-06-15_15-18-20_094959634447_rgbf000152-resize_8/003079_2014-06-15_15-18-20_094959634447_rgbf000152-resize_8-target.png,125,2.8775,2,3866,125,feet,jsons/VE125_randls_42.json,1174603,2652112,33,Woman
47,679854,DepthScenes,duration_manipulation_targetAtFixation,jsons/VE125_randls_42.json,http://54.235.29.9/FacialAge/BNav_EC2/DepthDuration/v2_depth_duration_MTurk/v2_DepthDuration_HTML.html#28,28,1024,625,1024,768,8-29-2022,13-36-3,48,depth_duration_stimuli/001110_2014-06-15_17-25-28_260595134347_rgbf000150-resize_1/001110_2014-06-15_17-25-28_260595134347_rgbf000150-resize_1-target.png,125,1.7115,3,3900,125,feet,jsons/VE125_randls_42.json,1174603,2652112,33,Woman
48,679854,DepthScenes,duration_manipulation_targetAtFixation,jsons/VE125_randls_42.json,http://54.235.29.9/FacialAge/BNav_EC2/DepthDuration/v2_depth_duration_MTurk/v2_DepthDuration_HTML.html#28,28,1024,625,1024,768,8-29-2022,13-36-3,49,depth_duration_stimuli/000927_2014-06-09_16-32-30_260595134347_rgbf000123-resize_3/000927_2014-06-09_16-32-30_260595134347_rgbf000123-resize_3-target.png,125,2.6785,1,3536,125,feet,jsons/VE125_randls_42.json,1174603,2652112,33,Woman
49,679854,DepthScenes,duration_manipulation_targetAtFixation,jsons/VE125_randls_42.json,http://54.235.29.9/FacialAge/BNav_EC2/DepthDuration/v2_depth_duration_MTurk/v2_DepthDuration_HTML.html#28,28,1024,625,1024,768,8-29-2022,13-36-3,50,depth_duration_stimuli/000739_2014-06-08_18-45-58_260595134347_rgbf000068-resize_1/000739_2014-06-08_18-45-58_260595134347_rgbf000068-resize_1-target.png,125,3.534,2,5857,124,feet,jsons/VE125_randls_42.json,1174603,2652112,33,Woman
50,679854,DepthScenes,duration_manipulation_targetAtFixation,jsons/VE125_randls_42.json,http://54.235.29.9/FacialAge/BNav_EC2/DepthDuration/v2_depth_duration_MTurk/v2_DepthDuration_HTML.html#28,28,1024,625,1024,768,8-29-2022,13-36-3,51,depth_duration_stimuli/000734_2014-06-08_17-39-11_260595134347_rgbf000128-resize_2/000734_2014-06-08_17-39-11_260595134347_rgbf000128-resize_2-target.png,125,4.098,3,3775,125,feet,jsons/VE125_randls_42.json,1174603,2652112,33,Woman
51,679854,DepthScenes,duration_manipulation_targetAtFixation,jsons/VE125_randls_42.json,http://54.235.29.9/FacialAge/BNav_EC2/DepthDuration/v2_depth_duration_MTurk/v2_DepthDuration_HTML.html#28,28,1024,625,1024,768,8-29-2022,13-36-3,52,depth_duration_stimuli/000642_2014-06-08_16-59-25_260595134347_rgbf000098-resize_2/000642_2014-06-08_16-59-25_260595134347_rgbf000098-resize_2-target.png,125,2.8815,1,5318,125,feet,jsons/VE125_randls_42.json,1174603,2652112,33,Woman
52,679854,DepthScenes,duration_manipulation_targetAtFixation,jsons/VE125_randls_42.json,http://54.235.29.9/FacialAge/BNav_EC2/DepthDuration/v2_depth_duration_MTurk/v2_DepthDuration_HTML.html#28,28,1024,625,1024,768,8-29-2022,13-36-3,53,depth_duration_stimuli/002425_2014-06-28_20-27-29_260595134347_rgbf000031-resize_8/002425_2014-06-28_20-27-29_260595134347_rgbf000031-resize_8-target.png,125,3.8960000000000004,2,9324,124,feet,jsons/VE125_randls_42.json,1174603,2652112,33,Woman
53,679854,DepthScenes,duration_manipulation_targetAtFixation,jsons/VE125_randls_42.json,http://54.235.29.9/FacialAge/BNav_EC2/DepthDuration/v2_depth_duration_MTurk/v2_DepthDuration_HTML.html#28,28,1024,625,1024,768,8-29-2022,13-36-3,54,depth_duration_stimuli/000878_2014-06-08_22-52-45_260595134347_rgbf000045-resize_2/000878_2014-06-08_22-52-45_260595134347_rgbf000045-resize_2-target.png,125,2.092,1,6276,142,feet,jsons/VE125_randls_42.json,1174603,2652112,33,Woman
54,679854,DepthScenes,duration_manipulation_targetAtFixation,jsons/VE125_randls_42.json,http://54.235.29.9/FacialAge/BNav_EC2/DepthDuration/v2_depth_duration_MTurk/v2_DepthDuration_HTML.html#28,28,1024,625,1024,768,8-29-2022,13-36-3,55,depth_duration_stimuli/002953_2014-06-08_17-32-18_094959634447_rgbf000059-resize_5/002953_2014-06-08_17-32-18_094959634447_rgbf000059-resize_5-target.png,125,1.551,3,5315,125,feet,jsons/VE125_randls_42.json,1174603,2652112,33,Woman
55,679854,DepthScenes,duration_manipulation_targetAtFixation,jsons/VE125_randls_42.json,http://54.235.29.9/FacialAge/BNav_EC2/DepthDuration/v2_depth_duration_MTurk/v2_DepthDuration_HTML.html#28,28,1024,625,1024,768,8-29-2022,13-36-3,56,depth_duration_stimuli/000692_2014-06-08_13-09-42_260595134347_rgbf000199-resize_2/000692_2014-06-08_13-09-42_260595134347_rgbf000199-resize_2-target.png,125,3.661,1,8979,122,feet,jsons/VE125_randls_42.json,1174603,2652112,33,Woman
56,679854,DepthScenes,duration_manipulation_targetAtFixation,jsons/VE125_randls_42.json,http://54.235.29.9/FacialAge/BNav_EC2/DepthDuration/v2_depth_duration_MTurk/v2_DepthDuration_HTML.html#28,28,1024,625,1024,768,8-29-2022,13-36-3,57,depth_duration_stimuli/001094_2014-06-15_17-36-00_260595134347_rgbf000205-resize_0/001094_2014-06-15_17-36-00_260595134347_rgbf000205-resize_0-target.png,125,4.2175,2,4275,125,feet,jsons/VE125_randls_42.json,1174603,2652112,33,Woman
57,679854,DepthScenes,duration_manipulation_targetAtFixation,jsons/VE125_randls_42.json,http://54.235.29.9/FacialAge/BNav_EC2/DepthDuration/v2_depth_duration_MTurk/v2_DepthDuration_HTML.html#28,28,1024,625,1024,768,8-29-2022,13-36-3,58,depth_duration_stimuli/002788_2014-06-22_19-36-03_094959634447_rgbf000088-resize_2/002788_2014-06-22_19-36-03_094959634447_rgbf000088-resize_2-target.png,125,1.6465,1,5247,125,feet,jsons/VE125_randls_42.json,1174603,2652112,33,Woman
58,679854,DepthScenes,duration_manipulation_targetAtFixation,jsons/VE125_randls_42.json,http://54.235.29.9/FacialAge/BNav_EC2/DepthDuration/v2_depth_duration_MTurk/v2_DepthDuration_HTML.html#28,28,1024,625,1024,768,8-29-2022,13-36-3,59,depth_duration_stimuli/000749_2014-06-08_21-55-06_260595134347_rgbf000070-resize_2/000749_2014-06-08_21-55-06_260595134347_rgbf000070-resize_2-target.png,125,2.331,3,4149,126,feet,jsons/VE125_randls_42.json,1174603,2652112,33,Woman
59,679854,DepthScenes,duration_manipulation_targetAtFixation,jsons/VE125_randls_42.json,http://54.235.29.9/FacialAge/BNav_EC2/DepthDuration/v2_depth_duration_MTurk/v2_DepthDuration_HTML.html#28,28,1024,625,1024,768,8-29-2022,13-36-3,60,depth_duration_stimuli/001167_2014-06-17_15-38-07_260595134347_rgbf000108-resize_0/001167_2014-06-17_15-38-07_260595134347_rgbf000108-resize_0-target.png,125,1.8505,2,5588,126,feet,jsons/VE125_randls_42.json,1174603,2652112,33,Woman
60,679854,DepthScenes,duration_manipulation_targetAtFixation,jsons/VE125_randls_42.json,http://54.235.29.9/FacialAge/BNav_EC2/DepthDuration/v2_depth_duration_MTurk/v2_DepthDuration_HTML.html#28,28,1024,625,1024,768,8-29-2022,13-36-3,61,depth_duration_stimuli/003587_2014-05-23_16-48-02_094959634447_rgbf002384-resize_2/003587_2014-05-23_16-48-02_094959634447_rgbf002384-resize_2-target.png,125,1.357,1,5399,124,feet,jsons/VE125_randls_42.json,1174603,2652112,33,Woman
61,679854,DepthScenes,duration_manipulation_targetAtFixation,jsons/VE125_randls_42.json,http://54.235.29.9/FacialAge/BNav_EC2/DepthDuration/v2_depth_duration_MTurk/v2_DepthDuration_HTML.html#28,28,1024,625,1024,768,8-29-2022,13-36-3,62,depth_duration_stimuli/001016_2014-06-09_16-16-10_260595134347_rgbf000112-resize_5/001016_2014-06-09_16-16-10_260595134347_rgbf000112-resize_5-target.png,125,1.6565,2,4310,126,feet,jsons/VE125_randls_42.json,1174603,2652112,33,Woman
62,679854,DepthScenes,duration_manipulation_targetAtFixation,jsons/VE125_randls_42.json,http://54.235.29.9/FacialAge/BNav_EC2/DepthDuration/v2_depth_duration_MTurk/v2_DepthDuration_HTML.html#28,28,1024,625,1024,768,8-29-2022,13-36-3,63,depth_duration_stimuli/002340_2014-06-28_20-05-46_260595134347_rgbf000113-resize_0/002340_2014-06-28_20-05-46_260595134347_rgbf000113-resize_0-target.png,125,2.4735,3,3949,124,feet,jsons/VE125_randls_42.json,1174603,2652112,33,Woman
63,679854,DepthScenes,duration_manipulation_targetAtFixation,jsons/VE125_randls_42.json,http://54.235.29.9/FacialAge/BNav_EC2/DepthDuration/v2_depth_duration_MTurk/v2_DepthDuration_HTML.html#28,28,1024,625,1024,768,8-29-2022,13-36-3,64,depth_duration_stimuli/001059_2014-06-08_21-53-27_260595134347_rgbf000061-resize_4/001059_2014-06-08_21-53-27_260595134347_rgbf000061-resize_4-target.png,125,2.4185,4,5351,126,feet,jsons/VE125_randls_42.json,1174603,2652112,33,Woman
64,679854,DepthScenes,duration_manipulation_targetAtFixation,jsons/VE125_randls_42.json,http://54.235.29.9/FacialAge/BNav_EC2/DepthDuration/v2_depth_duration_MTurk/v2_DepthDuration_HTML.html#28,28,1024,625,1024,768,8-29-2022,13-36-3,65,depth_duration_stimuli/001032_2014-06-08_13-23-17_260595134347_rgbf000021-resize_3/001032_2014-06-08_13-23-17_260595134347_rgbf000021-resize_3-target.png,125,3.2725,5,4587,122,feet,jsons/VE125_randls_42.json,1174603,2652112,33,Woman
65,679854,DepthScenes,duration_manipulation_targetAtFixation,jsons/VE125_randls_42.json,http://54.235.29.9/FacialAge/BNav_EC2/DepthDuration/v2_depth_duration_MTurk/v2_DepthDuration_HTML.html#28,28,1024,625,1024,768,8-29-2022,13-36-3,66,depth_duration_stimuli/001222_2014-06-17_16-24-06_260595134347_rgbf000073-resize_0/001222_2014-06-17_16-24-06_260595134347_rgbf000073-resize-original.jpg,125,1.4385,2,5229,124,feet,jsons/VE125_randls_42.json,1174603,2652112,33,Woman
66,679854,DepthScenes,duration_manipulation_targetAtFixation,jsons/VE125_randls_42.json,http://54.235.29.9/FacialAge/BNav_EC2/DepthDuration/v2_depth_duration_MTurk/v2_DepthDuration_HTML.html#28,28,1024,625,1024,768,8-29-2022,13-36-3,67,depth_duration_stimuli/002043_2014-06-24_20-29-38_260595134347_rgbf000039-resize_4/002043_2014-06-24_20-29-38_260595134347_rgbf000039-resize_4-target.png,125,2.8435,1,4238,123,feet,jsons/VE125_randls_42.json,1174603,2652112,33,Woman
67,679854,DepthScenes,duration_manipulation_targetAtFixation,jsons/VE125_randls_42.json,http://54.235.29.9/FacialAge/BNav_EC2/DepthDuration/v2_depth_duration_MTurk/v2_DepthDuration_HTML.html#28,28,1024,625,1024,768,8-29-2022,13-36-3,68,depth_duration_stimuli/003048_2014-06-15_13-49-43_094959634447_rgbf000150-resize_1/003048_2014-06-15_13-49-43_094959634447_rgbf000150-resize_1-target.png,125,4.0035,2,4646,125,feet,jsons/VE125_randls_42.json,1174603,2652112,33,Woman
68,679854,DepthScenes,duration_manipulation_targetAtFixation,jsons/VE125_randls_42.json,http://54.235.29.9/FacialAge/BNav_EC2/DepthDuration/v2_depth_duration_MTurk/v2_DepthDuration_HTML.html#28,28,1024,625,1024,768,8-29-2022,13-36-3,69,depth_duration_stimuli/002570_2014-06-24_13-59-54_094959634447_rgbf000059-resize_0/002570_2014-06-24_13-59-54_094959634447_rgbf000059-resize_0-target.png,125,4.037,4,10310,125,feet,jsons/VE125_randls_42.json,1174603,2652112,33,Woman
69,679854,DepthScenes,duration_manipulation_targetAtFixation,jsons/VE125_randls_42.json,http://54.235.29.9/FacialAge/BNav_EC2/DepthDuration/v2_depth_duration_MTurk/v2_DepthDuration_HTML.html#28,28,1024,625,1024,768,8-29-2022,13-36-3,70,depth_duration_stimuli/002467_2014-06-28_20-38-07_260595134347_rgbf000026-resize_2/002467_2014-06-28_20-38-07_260595134347_rgbf000026-resize_2-target.png,125,4.742,2,8324,125,feet,jsons/VE125_randls_42.json,1174603,2652112,33,Woman
70,679854,DepthScenes,duration_manipulation_targetAtFixation,jsons/VE125_randls_42.json,http://54.235.29.9/FacialAge/BNav_EC2/DepthDuration/v2_depth_duration_MTurk/v2_DepthDuration_HTML.html#28,28,1024,625,1024,768,8-29-2022,13-36-3,71,depth_duration_stimuli/002213_2014-06-28_18-37-58_260595134347_rgbf000055-resize_1/002213_2014-06-28_18-37-58_260595134347_rgbf000055-resize_1-target.png,125,3.62,3,13378,125,feet,jsons/VE125_randls_42.json,1174603,2652112,33,Woman
71,679854,DepthScenes,duration_manipulation_targetAtFixation,jsons/VE125_randls_42.json,http://54.235.29.9/FacialAge/BNav_EC2/DepthDuration/v2_depth_duration_MTurk/v2_DepthDuration_HTML.html#28,28,1024,625,1024,768,8-29-2022,13-36-3,72,depth_duration_stimuli/000691_2014-06-08_13-08-50_260595134347_rgbf000132-resize_3/000691_2014-06-08_13-08-50_260595134347_rgbf000132-resize_3-target.png,125,4.1530000000000005,2,4986,126,feet,jsons/VE125_randls_42.json,1174603,2652112,33,Woman
72,679854,DepthScenes,duration_manipulation_targetAtFixation,jsons/VE125_randls_42.json,http://54.235.29.9/FacialAge/BNav_EC2/DepthDuration/v2_depth_duration_MTurk/v2_DepthDuration_HTML.html#28,28,1024,625,1024,768,8-29-2022,13-36-3,73,depth_duration_stimuli/000522_2014-06-08_13-35-06_260595134347_rgbf000244-resize_1/000522_2014-06-08_13-35-06_260595134347_rgbf000244-resize_1-target.png,125,2.3715,1,5178,125,feet,jsons/VE125_randls_42.json,1174603,2652112,33,Woman
73,679854,DepthScenes,duration_manipulation_targetAtFixation,jsons/VE125_randls_42.json,http://54.235.29.9/FacialAge/BNav_EC2/DepthDuration/v2_depth_duration_MTurk/v2_DepthDuration_HTML.html#28,28,1024,625,1024,768,8-29-2022,13-36-3,74,depth_duration_stimuli/002949_2014-06-26_15-57-42_094959634447_rgbf000079-resize_1/002949_2014-06-26_15-57-42_094959634447_rgbf000079-resize_1-target.png,125,1.8915,2,4467,126,feet,jsons/VE125_randls_42.json,1174603,2652112,33,Woman
74,679854,DepthScenes,duration_manipulation_targetAtFixation,jsons/VE125_randls_42.json,http://54.235.29.9/FacialAge/BNav_EC2/DepthDuration/v2_depth_duration_MTurk/v2_DepthDuration_HTML.html#28,28,1024,625,1024,768,8-29-2022,13-36-3,75,depth_duration_stimuli/002663_2014-06-13_15-50-26_094959634447_rgbf000075-resize_1/002663_2014-06-13_15-50-26_094959634447_rgbf000075-resize_1-target.png,125,4.7495,3,5547,123,feet,jsons/VE125_randls_42.json,1174603,2652112,33,Woman
75,679854,DepthScenes,duration_manipulation_targetAtFixation,jsons/VE125_randls_42.json,http://54.235.29.9/FacialAge/BNav_EC2/DepthDuration/v2_depth_duration_MTurk/v2_DepthDuration_HTML.html#28,28,1024,625,1024,768,8-29-2022,13-36-3,76,depth_duration_stimuli/000409_2014-06-04_19-23-33_260595134347_rgbf000067-resize_0/000409_2014-06-04_19-23-33_260595134347_rgbf000067-resize_0-target.png,125,3.7335,1,4498,122,feet,jsons/VE125_randls_42.json,1174603,2652112,33,Woman
76,679854,DepthScenes,duration_manipulation_targetAtFixation,jsons/VE125_randls_42.json,http://54.235.29.9/FacialAge/BNav_EC2/DepthDuration/v2_depth_duration_MTurk/v2_DepthDuration_HTML.html#28,28,1024,625,1024,768,8-29-2022,13-36-3,77,depth_duration_stimuli/000469_2014-06-09_19-42-10_260595134347_rgbf000081-resize_1/000469_2014-06-09_19-42-10_260595134347_rgbf000081-resize_1-target.png,125,1.652,2,4195,125,feet,jsons/VE125_randls_42.json,1174603,2652112,33,Woman
77,679854,DepthScenes,duration_manipulation_targetAtFixation,jsons/VE125_randls_42.json,http://54.235.29.9/FacialAge/BNav_EC2/DepthDuration/v2_depth_duration_MTurk/v2_DepthDuration_HTML.html#28,28,1024,625,1024,768,8-29-2022,13-36-3,78,depth_duration_stimuli/000483_2014-06-09_20-41-45_260595134347_rgbf000116-resize_4/000483_2014-06-09_20-41-45_260595134347_rgbf000116-resize_4-target.png,125,1.337,3,5156,125,feet,jsons/VE125_randls_42.json,1174603,2652112,33,Woman
78,679854,DepthScenes,duration_manipulation_targetAtFixation,jsons/VE125_randls_42.json,http://54.235.29.9/FacialAge/BNav_EC2/DepthDuration/v2_depth_duration_MTurk/v2_DepthDuration_HTML.html#28,28,1024,625,1024,768,8-29-2022,13-36-3,79,depth_duration_stimuli/001449_2014-06-19_17-01-27_260595134347_rgbf000116-resize_2/001449_2014-06-19_17-01-27_260595134347_rgbf000116-resize_2-target.png,125,3.452,2,6927,127,feet,jsons/VE125_randls_42.json,1174603,2652112,33,Woman
79,679854,DepthScenes,duration_manipulation_targetAtFixation,jsons/VE125_randls_42.json,http://54.235.29.9/FacialAge/BNav_EC2/DepthDuration/v2_depth_duration_MTurk/v2_DepthDuration_HTML.html#28,28,1024,625,1024,768,8-29-2022,13-36-3,80,depth_duration_stimuli/001450_2014-06-19_17-02-03_260595134347_rgbf000203-resize_4/001450_2014-06-19_17-02-03_260595134347_rgbf000203-resize_4-target.png,125,4.0106666666667,3,5370,124,feet,jsons/VE125_randls_42.json,1174603,2652112,33,Woman
80,679854,DepthScenes,duration_manipulation_targetAtFixation,jsons/VE125_randls_42.json,http://54.235.29.9/FacialAge/BNav_EC2/DepthDuration/v2_depth_duration_MTurk/v2_DepthDuration_HTML.html#28,28,1024,625,1024,768,8-29-2022,13-36-3,81,depth_duration_stimuli/002039_2014-06-24_20-22-38_260595134347_rgbf000084-resize_1/002039_2014-06-24_20-22-38_260595134347_rgbf000084-resize_1-target.png,125,4.408,4,6403,124,feet,jsons/VE125_randls_42.json,1174603,2652112,33,Woman
81,679854,DepthScenes,duration_manipulation_targetAtFixation,jsons/VE125_randls_42.json,http://54.235.29.9/FacialAge/BNav_EC2/DepthDuration/v2_depth_duration_MTurk/v2_DepthDuration_HTML.html#28,28,1024,625,1024,768,8-29-2022,13-36-3,82,depth_duration_stimuli/002103_2014-06-25_20-00-40_260595134347_rgbf000049-resize_0/002103_2014-06-25_20-00-40_260595134347_rgbf000049-resize_0-target.png,125,4.105,3,5451,125,feet,jsons/VE125_randls_42.json,1174603,2652112,33,Woman
82,679854,DepthScenes,duration_manipulation_targetAtFixation,jsons/VE125_randls_42.json,http://54.235.29.9/FacialAge/BNav_EC2/DepthDuration/v2_depth_duration_MTurk/v2_DepthDuration_HTML.html#28,28,1024,625,1024,768,8-29-2022,13-36-3,83,depth_duration_stimuli/001570_2014-06-20_17-21-09_260595134347_rgbf000135-resize_4/001570_2014-06-20_17-21-09_260595134347_rgbf000135-resize_4-target.png,125,4.467,2,4741,126,feet,jsons/VE125_randls_42.json,1174603,2652112,33,Woman
83,679854,DepthScenes,duration_manipulation_targetAtFixation,jsons/VE125_randls_42.json,http://54.235.29.9/FacialAge/BNav_EC2/DepthDuration/v2_depth_duration_MTurk/v2_DepthDuration_HTML.html#28,28,1024,625,1024,768,8-29-2022,13-36-3,84,depth_duration_stimuli/001392_2014-06-19_16-07-59_260595134347_rgbf000046-resize_1/001392_2014-06-19_16-07-59_260595134347_rgbf000046-resize_1-target.png,125,4.135,3,3970,124,feet,jsons/VE125_randls_42.json,1174603,2652112,33,Woman
84,679854,DepthScenes,duration_manipulation_targetAtFixation,jsons/VE125_randls_42.json,http://54.235.29.9/FacialAge/BNav_EC2/DepthDuration/v2_depth_duration_MTurk/v2_DepthDuration_HTML.html#28,28,1024,625,1024,768,8-29-2022,13-36-3,85,depth_duration_stimuli/003621_2014-05-23_18-06-08_094959634447_rgbf000101-resize_1/003621_2014-05-23_18-06-08_094959634447_rgbf000101-resize_1-target.png,125,3.9835,2,4728,125,feet,jsons/VE125_randls_42.json,1174603,2652112,33,Woman
85,679854,DepthScenes,duration_manipulation_targetAtFixation,jsons/VE125_randls_42.json,http://54.235.29.9/FacialAge/BNav_EC2/DepthDuration/v2_depth_duration_MTurk/v2_DepthDuration_HTML.html#28,28,1024,625,1024,768,8-29-2022,13-36-3,86,depth_duration_stimuli/001584_2014-06-20_11-07-43_260595134347_rgbf000002-resize_1/001584_2014-06-20_11-07-43_260595134347_rgbf000002-resize_1-target.png,125,3.53,2,9051,125,feet,jsons/VE125_randls_42.json,1174603,2652112,33,Woman
86,679854,DepthScenes,duration_manipulation_targetAtFixation,jsons/VE125_randls_42.json,http://54.235.29.9/FacialAge/BNav_EC2/DepthDuration/v2_depth_duration_MTurk/v2_DepthDuration_HTML.html#28,28,1024,625,1024,768,8-29-2022,13-36-3,87,depth_duration_stimuli/000436_2014-06-09_22-25-11_260595134347_rgbf000137-resize_1/000436_2014-06-09_22-25-11_260595134347_rgbf000137-resize_1-target.png,125,4.0705,3,8835,124,feet,jsons/VE125_randls_42.json,1174603,2652112,33,Woman
87,679854,DepthScenes,duration_manipulation_targetAtFixation,jsons/VE125_randls_42.json,http://54.235.29.9/FacialAge/BNav_EC2/DepthDuration/v2_depth_duration_MTurk/v2_DepthDuration_HTML.html#28,28,1024,625,1024,768,8-29-2022,13-36-3,88,depth_duration_stimuli/002444_2014-06-28_20-32-08_260595134347_rgbf000027-resize_0/002444_2014-06-28_20-32-08_260595134347_rgbf000027-resize_0-target.png,125,4.388999999999999,4,4314,125,feet,jsons/VE125_randls_42.json,1174603,2652112,33,Woman
88,679854,DepthScenes,duration_manipulation_targetAtFixation,jsons/VE125_randls_42.json,http://54.235.29.9/FacialAge/BNav_EC2/DepthDuration/v2_depth_duration_MTurk/v2_DepthDuration_HTML.html#28,28,1024,625,1024,768,8-29-2022,13-36-3,89,depth_duration_stimuli/003070_2014-06-15_14-58-27_094959634447_rgbf000150-resize_3/003070_2014-06-15_14-58-27_094959634447_rgbf000150-resize_3-target.png,125,2.9415,5,4457,124,feet,jsons/VE125_randls_42.json,1174603,2652112,33,Woman
89,679854,DepthScenes,duration_manipulation_targetAtFixation,jsons/VE125_randls_42.json,http://54.235.29.9/FacialAge/BNav_EC2/DepthDuration/v2_depth_duration_MTurk/v2_DepthDuration_HTML.html#28,28,1024,625,1024,768,8-29-2022,13-36-3,90,depth_duration_stimuli/000943_2014-06-09_19-31-07_260595134347_rgbf000128-resize_1/000943_2014-06-09_19-31-07_260595134347_rgbf000128-resize_1-target.png,125,1.9765,4,4437,125,feet,jsons/VE125_randls_42.json,1174603,2652112,33,Woman
90,679854,DepthScenes,duration_manipulation_targetAtFixation,jsons/VE125_randls_42.json,http://54.235.29.9/FacialAge/BNav_EC2/DepthDuration/v2_depth_duration_MTurk/v2_DepthDuration_HTML.html#28,28,1024,625,1024,768,8-29-2022,13-36-3,91,depth_duration_stimuli/000470_2014-06-09_19-42-40_260595134347_rgbf000094-resize_1/000470_2014-06-09_19-42-40_260595134347_rgbf000094-resize_1-target.png,125,1.831,4,5769,124,feet,jsons/VE125_randls_42.json,1174603,2652112,33,Woman
91,679854,DepthScenes,duration_manipulation_targetAtFixation,jsons/VE125_randls_42.json,http://54.235.29.9/FacialAge/BNav_EC2/DepthDuration/v2_depth_duration_MTurk/v2_DepthDuration_HTML.html#28,28,1024,625,1024,768,8-29-2022,13-36-3,92,depth_duration_stimuli/000109_2014-05-14_23-41-52_260595134347_rgbf000035-resize_9/000109_2014-05-14_23-41-52_260595134347_rgbf000035-resize_9-target.png,125,1.3545,3,5338,124,feet,jsons/VE125_randls_42.json,1174603,2652112,33,Woman
92,679854,DepthScenes,duration_manipulation_targetAtFixation,jsons/VE125_randls_42.json,http://54.235.29.9/FacialAge/BNav_EC2/DepthDuration/v2_depth_duration_MTurk/v2_DepthDuration_HTML.html#28,28,1024,625,1024,768,8-29-2022,13-36-3,93,depth_duration_stimuli/002549_2014-06-24_13-41-39_094959634447_rgbf000022-resize_3/002549_2014-06-24_13-41-39_094959634447_rgbf000022-resize_3-target.png,125,1.476,2,26617,123,feet,jsons/VE125_randls_42.json,1174603,2652112,33,Woman
93,679854,DepthScenes,duration_manipulation_targetAtFixation,jsons/VE125_randls_42.json,http://54.235.29.9/FacialAge/BNav_EC2/DepthDuration/v2_depth_duration_MTurk/v2_DepthDuration_HTML.html#28,28,1024,625,1024,768,8-29-2022,13-36-3,94,depth_duration_stimuli/002750_2014-06-22_19-08-03_094959634447_rgbf000094-resize_4/002750_2014-06-22_19-08-03_094959634447_rgbf000094-resize_4-target.png,125,2.354,3,5699,124,feet,jsons/VE125_randls_42.json,1174603,2652112,33,Woman
94,679854,DepthScenes,duration_manipulation_targetAtFixation,jsons/VE125_randls_42.json,http://54.235.29.9/FacialAge/BNav_EC2/DepthDuration/v2_depth_duration_MTurk/v2_DepthDuration_HTML.html#28,28,1024,625,1024,768,8-29-2022,13-36-3,95,depth_duration_stimuli/002905_2014-06-03_18-04-43_094959634447_rgbf000151-resize_2/002905_2014-06-03_18-04-43_094959634447_rgbf000151-resize_2-target.png,125,2.0295,3,5124,125,feet,jsons/VE125_randls_42.json,1174603,2652112,33,Woman
95,679854,DepthScenes,duration_manipulation_targetAtFixation,jsons/VE125_randls_42.json,http://54.235.29.9/FacialAge/BNav_EC2/DepthDuration/v2_depth_duration_MTurk/v2_DepthDuration_HTML.html#28,28,1024,625,1024,768,8-29-2022,13-36-3,96,depth_duration_stimuli/003423_2014-05-21_10-23-26_094959634447_rgbf002665-resize_2/003423_2014-05-21_10-23-26_094959634447_rgbf002665-resize_2-target.png,125,3.2575,2,5098,126,feet,jsons/VE125_randls_42.json,1174603,2652112,33,Woman
96,679854,DepthScenes,duration_manipulation_targetAtFixation,jsons/VE125_randls_42.json,http://54.235.29.9/FacialAge/BNav_EC2/DepthDuration/v2_depth_duration_MTurk/v2_DepthDuration_HTML.html#28,28,1024,625,1024,768,8-29-2022,13-36-3,97,depth_duration_stimuli/000773_2014-06-08_22-24-54_260595134347_rgbf000093-resize_1/000773_2014-06-08_22-24-54_260595134347_rgbf000093-resize_1-target.png,125,4.973,3,5451,124,feet,jsons/VE125_randls_42.json,1174603,2652112,33,Woman
97,679854,DepthScenes,duration_manipulation_targetAtFixation,jsons/VE125_randls_42.json,http://54.235.29.9/FacialAge/BNav_EC2/DepthDuration/v2_depth_duration_MTurk/v2_DepthDuration_HTML.html#28,28,1024,625,1024,768,8-29-2022,13-36-3,98,depth_duration_stimuli/002414_2014-06-28_20-24-58_260595134347_rgbf000067-resize_4/002414_2014-06-28_20-24-58_260595134347_rgbf000067-resize_4-target.png,125,4.363,3,5980,124,feet,jsons/VE125_randls_42.json,1174603,2652112,33,Woman
98,679854,DepthScenes,duration_manipulation_targetAtFixation,jsons/VE125_randls_42.json,http://54.235.29.9/FacialAge/BNav_EC2/DepthDuration/v2_depth_duration_MTurk/v2_DepthDuration_HTML.html#28,28,1024,625,1024,768,8-29-2022,13-36-3,99,depth_duration_stimuli/001540_2014-06-20_17-01-05_260595134347_rgbf000086-resize_2/001540_2014-06-20_17-01-05_260595134347_rgbf000086-resize-original.jpg,125,1.459,1,3963,125,feet,jsons/VE125_randls_42.json,1174603,2652112,33,Woman
99,679854,DepthScenes,duration_manipulation_targetAtFixation,jsons/VE125_randls_42.json,http://54.235.29.9/FacialAge/BNav_EC2/DepthDuration/v2_depth_duration_MTurk/v2_DepthDuration_HTML.html#28,28,1024,625,1024,768,8-29-2022,13-36-3,100,depth_duration_stimuli/002153_2014-06-25_21-27-18_260595134347_rgbf000038-resize_5/002153_2014-06-25_21-27-18_260595134347_rgbf000038-resize_5-target.png,125,2.505,2,4612,126,feet,jsons/VE125_randls_42.json,1174603,2652112,33,Woman
100,679854,DepthScenes,duration_manipulation_targetAtFixation,jsons/VE125_randls_42.json,http://54.235.29.9/FacialAge/BNav_EC2/DepthDuration/v2_depth_duration_MTurk/v2_DepthDuration_HTML.html#28,28,1024,625,1024,768,8-29-2022,13-36-3,101,depth_duration_stimuli/002660_2014-06-13_15-44-18_094959634447_rgbf001878-resize_2/002660_2014-06-13_15-44-18_094959634447_rgbf001878-resize_2-target.png,125,3.576,3,4815,125,feet,jsons/VE125_randls_42.json,1174603,2652112,33,Woman
101,679854,DepthScenes,duration_manipulation_targetAtFixation,jsons/VE125_randls_42.json,http://54.235.29.9/FacialAge/BNav_EC2/DepthDuration/v2_depth_duration_MTurk/v2_DepthDuration_HTML.html#28,28,1024,625,1024,768,8-29-2022,13-36-3,102,depth_duration_stimuli/001029_2014-06-08_13-17-57_260595134347_rgbf000065-resize_1/001029_2014-06-08_13-17-57_260595134347_rgbf000065-resize_1-target.png,125,3.0835,1,11101,124,feet,jsons/VE125_randls_42.json,1174603,2652112,33,Woman
102,679854,DepthScenes,duration_manipulation_targetAtFixation,jsons/VE125_randls_42.json,http://54.235.29.9/FacialAge/BNav_EC2/DepthDuration/v2_depth_duration_MTurk/v2_DepthDuration_HTML.html#28,28,1024,625,1024,768,8-29-2022,13-36-3,103,depth_duration_stimuli/000677_2014-06-08_23-10-32_260595134347_rgbf000158-resize_6/000677_2014-06-08_23-10-32_260595134347_rgbf000158-resize_6-target.png,125,3.556,2,3530,124,feet,jsons/VE125_randls_42.json,1174603,2652112,33,Woman
103,679854,DepthScenes,duration_manipulation_targetAtFixation,jsons/VE125_randls_42.json,http://54.235.29.9/FacialAge/BNav_EC2/DepthDuration/v2_depth_duration_MTurk/v2_DepthDuration_HTML.html#28,28,1024,625,1024,768,8-29-2022,13-36-3,104,depth_duration_stimuli/001133_2014-06-17_14-49-16_260595134347_rgbf000100-resize_0/001133_2014-06-17_14-49-16_260595134347_rgbf000100-resize_0-target.png,125,4.2115,3,5873,124,feet,jsons/VE125_randls_42.json,1174603,2652112,33,Woman
104,679854,DepthScenes,duration_manipulation_targetAtFixation,jsons/VE125_randls_42.json,http://54.235.29.9/FacialAge/BNav_EC2/DepthDuration/v2_depth_duration_MTurk/v2_DepthDuration_HTML.html#28,28,1024,625,1024,768,8-29-2022,13-36-3,105,depth_duration_stimuli/001132_2014-06-17_14-48-54_260595134347_rgbf000100-resize_2/001132_2014-06-17_14-48-54_260595134347_rgbf000100-resize_2-target.png,125,3.753,1,4038,125,feet,jsons/VE125_randls_42.json,1174603,2652112,33,Woman
105,679854,DepthScenes,duration_manipulation_targetAtFixation,jsons/VE125_randls_42.json,http://54.235.29.9/FacialAge/BNav_EC2/DepthDuration/v2_depth_duration_MTurk/v2_DepthDuration_HTML.html#28,28,1024,625,1024,768,8-29-2022,13-36-3,106,depth_duration_stimuli/002964_2014-06-08_17-46-11_094959634447_rgbf000091-resize_4/002964_2014-06-08_17-46-11_094959634447_rgbf000091-resize_4-target.png,125,1.6909999999999998,2,5024,124,feet,jsons/VE125_randls_42.json,1174603,2652112,33,Woman
106,679854,DepthScenes,duration_manipulation_targetAtFixation,jsons/VE125_randls_42.json,http://54.235.29.9/FacialAge/BNav_EC2/DepthDuration/v2_depth_duration_MTurk/v2_DepthDuration_HTML.html#28,28,1024,625,1024,768,8-29-2022,13-36-3,107,depth_duration_stimuli/002136_2014-06-25_21-18-03_260595134347_rgbf000109-resize_3/002136_2014-06-25_21-18-03_260595134347_rgbf000109-resize_3-target.png,125,1.9569999999999999,3,5495,126,feet,jsons/VE125_randls_42.json,1174603,2652112,33,Woman
107,679854,DepthScenes,duration_manipulation_targetAtFixation,jsons/VE125_randls_42.json,http://54.235.29.9/FacialAge/BNav_EC2/DepthDuration/v2_depth_duration_MTurk/v2_DepthDuration_HTML.html#28,28,1024,625,1024,768,8-29-2022,13-36-3,108,depth_duration_stimuli/001808_2014-06-26_20-50-58_260595134347_rgbf000029-resize_1/001808_2014-06-26_20-50-58_260595134347_rgbf000029-resize_1-target.png,125,4.249,1,9282,126,feet,jsons/VE125_randls_42.json,1174603,2652112,33,Woman
108,679854,DepthScenes,duration_manipulation_targetAtFixation,jsons/VE125_randls_42.json,http://54.235.29.9/FacialAge/BNav_EC2/DepthDuration/v2_depth_duration_MTurk/v2_DepthDuration_HTML.html#28,28,1024,625,1024,768,8-29-2022,13-36-3,109,depth_duration_stimuli/001815_2014-06-26_20-52-55_260595134347_rgbf000020-resize_0/001815_2014-06-26_20-52-55_260595134347_rgbf000020-resize_0-target.png,125,3.3865,2,4365,126,feet,jsons/VE125_randls_42.json,1174603,2652112,33,Woman
109,679854,DepthScenes,duration_manipulation_targetAtFixation,jsons/VE125_randls_42.json,http://54.235.29.9/FacialAge/BNav_EC2/DepthDuration/v2_depth_duration_MTurk/v2_DepthDuration_HTML.html#28,28,1024,625,1024,768,8-29-2022,13-36-3,110,depth_duration_stimuli/000929_2014-06-09_16-33-19_260595134347_rgbf000139-resize_0/000929_2014-06-09_16-33-19_260595134347_rgbf000139-resize_0-target.png,125,2.8680000000000003,3,4497,124,feet,jsons/VE125_randls_42.json,1174603,2652112,33,Woman
110,679854,DepthScenes,duration_manipulation_targetAtFixation,jsons/VE125_randls_42.json,http://54.235.29.9/FacialAge/BNav_EC2/DepthDuration/v2_depth_duration_MTurk/v2_DepthDuration_HTML.html#28,28,1024,625,1024,768,8-29-2022,13-36-3,111,depth_duration_stimuli/000457_2014-06-08_16-52-43_260595134347_rgbf000199-resize_1/000457_2014-06-08_16-52-43_260595134347_rgbf000199-resize_1-target.png,125,3.6489999999999996,1,4363,126,feet,jsons/VE125_randls_42.json,1174603,2652112,33,Woman
111,679854,DepthScenes,duration_manipulation_targetAtFixation,jsons/VE125_randls_42.json,http://54.235.29.9/FacialAge/BNav_EC2/DepthDuration/v2_depth_duration_MTurk/v2_DepthDuration_HTML.html#28,28,1024,625,1024,768,8-29-2022,13-36-3,112,depth_duration_stimuli/000447_2014-06-08_16-15-46_260595134347_rgbf000130-resize_1/000447_2014-06-08_16-15-46_260595134347_rgbf000130-resize_1-target.png,125,4.479,2,4631,124,feet,jsons/VE125_randls_42.json,1174603,2652112,33,Woman
112,679854,DepthScenes,duration_manipulation_targetAtFixation,jsons/VE125_randls_42.json,http://54.235.29.9/FacialAge/BNav_EC2/DepthDuration/v2_depth_duration_MTurk/v2_DepthDuration_HTML.html#28,28,1024,625,1024,768,8-29-2022,13-36-3,113,depth_duration_stimuli/001447_2014-06-19_17-00-32_260595134347_rgbf000082-resize_5/001447_2014-06-19_17-00-32_260595134347_rgbf000082-resize_5-target.png,125,4.13775,3,3889,126,feet,jsons/VE125_randls_42.json,1174603,2652112,33,Woman
113,679854,DepthScenes,duration_manipulation_targetAtFixation,jsons/VE125_randls_42.json,http://54.235.29.9/FacialAge/BNav_EC2/DepthDuration/v2_depth_duration_MTurk/v2_DepthDuration_HTML.html#28,28,1024,625,1024,768,8-29-2022,13-36-3,114,depth_duration_stimuli/000493_2014-06-09_21-01-18_260595134347_rgbf000196-resize_3/000493_2014-06-09_21-01-18_260595134347_rgbf000196-resize_3-target.png,125,3.44,1,4299,125,feet,jsons/VE125_randls_42.json,1174603,2652112,33,Woman
114,679854,DepthScenes,duration_manipulation_targetAtFixation,jsons/VE125_randls_42.json,http://54.235.29.9/FacialAge/BNav_EC2/DepthDuration/v2_depth_duration_MTurk/v2_DepthDuration_HTML.html#28,28,1024,625,1024,768,8-29-2022,13-36-3,115,depth_duration_stimuli/000191_2014-05-12_17-07-38_260595134347_rgbf000199-resize_0/000191_2014-05-12_17-07-38_260595134347_rgbf000199-resize_0-target.png,125,3.7995,2,3722,125,feet,jsons/VE125_randls_42.json,1174603,2652112,33,Woman
115,679854,DepthScenes,duration_manipulation_targetAtFixation,jsons/VE125_randls_42.json,http://54.235.29.9/FacialAge/BNav_EC2/DepthDuration/v2_depth_duration_MTurk/v2_DepthDuration_HTML.html#28,28,1024,625,1024,768,8-29-2022,13-36-3,116,depth_duration_stimuli/001170_2014-06-17_15-43-44_260595134347_rgbf000096-resize_6/001170_2014-06-17_15-43-44_260595134347_rgbf000096-resize-original.jpg,125,1.1909999999999998,3,5210,124,feet,jsons/VE125_randls_42.json,1174603,2652112,33,Woman
116,679854,DepthScenes,duration_manipulation_targetAtFixation,jsons/VE125_randls_42.json,http://54.235.29.9/FacialAge/BNav_EC2/DepthDuration/v2_depth_duration_MTurk/v2_DepthDuration_HTML.html#28,28,1024,625,1024,768,8-29-2022,13-36-3,117,depth_duration_stimuli/002279_2014-06-28_18-55-32_260595134347_rgbf000040-resize_5/002279_2014-06-28_18-55-32_260595134347_rgbf000040-resize_5-target.png,125,1.5043333333333,1,9593,125,feet,jsons/VE125_randls_42.json,1174603,2652112,33,Woman
117,679854,DepthScenes,duration_manipulation_targetAtFixation,jsons/VE125_randls_42.json,http://54.235.29.9/FacialAge/BNav_EC2/DepthDuration/v2_depth_duration_MTurk/v2_DepthDuration_HTML.html#28,28,1024,625,1024,768,8-29-2022,13-36-3,118,depth_duration_stimuli/000635_2014-06-08_16-38-42_260595134347_rgbf000106-resize_1/000635_2014-06-08_16-38-42_260595134347_rgbf000106-resize_1-target.png,125,2.074,2,6435,124,feet,jsons/VE125_randls_42.json,1174603,2652112,33,Woman
118,679854,DepthScenes,duration_manipulation_targetAtFixation,jsons/VE125_randls_42.json,http://54.235.29.9/FacialAge/BNav_EC2/DepthDuration/v2_depth_duration_MTurk/v2_DepthDuration_HTML.html#28,28,1024,625,1024,768,8-29-2022,13-36-3,119,depth_duration_stimuli/001175_2014-06-17_15-45-55_260595134347_rgbf000129-resize_4/001175_2014-06-17_15-45-55_260595134347_rgbf000129-resize_4-target.png,125,4.255,3,5228,128,feet,jsons/VE125_randls_42.json,1174603,2652112,33,Woman
119,679854,DepthScenes,duration_manipulation_targetAtFixation,jsons/VE125_randls_42.json,http://54.235.29.9/FacialAge/BNav_EC2/DepthDuration/v2_depth_duration_MTurk/v2_DepthDuration_HTML.html#28,28,1024,625,1024,768,8-29-2022,13-36-3,120,depth_duration_stimuli/003490_2014-05-21_15-50-11_094959634447_rgbf000101-resize_3/003490_2014-05-21_15-50-11_094959634447_rgbf000101-resize_3-target.png,125,3.6445,1,3818,124,feet,jsons/VE125_randls_42.json,1174603,2652112,33,Woman
120,679854,DepthScenes,duration_manipulation_targetAtFixation,jsons/VE125_randls_42.json,http://54.235.29.9/FacialAge/BNav_EC2/DepthDuration/v2_depth_duration_MTurk/v2_DepthDuration_HTML.html#28,28,1024,625,1024,768,8-29-2022,13-36-3,121,depth_duration_stimuli/001150_2014-06-17_15-27-34_260595134347_rgbf000108-resize_2/001150_2014-06-17_15-27-34_260595134347_rgbf000108-resize_2-target.png,125,4.0325,2,4889,124,feet,jsons/VE125_randls_42.json,1174603,2652112,33,Woman
121,679854,DepthScenes,duration_manipulation_targetAtFixation,jsons/VE125_randls_42.json,http://54.235.29.9/FacialAge/BNav_EC2/DepthDuration/v2_depth_duration_MTurk/v2_DepthDuration_HTML.html#28,28,1024,625,1024,768,8-29-2022,13-36-3,122,depth_duration_stimuli/000665_2014-06-09_20-42-35_260595134347_rgbf000110-resize_1/000665_2014-06-09_20-42-35_260595134347_rgbf000110-resize_1-target.png,125,3.057,3,4131,125,feet,jsons/VE125_randls_42.json,1174603,2652112,33,Woman
122,679854,DepthScenes,duration_manipulation_targetAtFixation,jsons/VE125_randls_42.json,http://54.235.29.9/FacialAge/BNav_EC2/DepthDuration/v2_depth_duration_MTurk/v2_DepthDuration_HTML.html#28,28,1024,625,1024,768,8-29-2022,13-36-3,123,depth_duration_stimuli/000810_2014-06-08_17-20-01_260595134347_rgbf000105-resize_0/000810_2014-06-08_17-20-01_260595134347_rgbf000105-resize_0-target.png,125,1.4865,2,6313,124,feet,jsons/VE125_randls_42.json,1174603,2652112,33,Woman
123,679854,DepthScenes,duration_manipulation_targetAtFixation,jsons/VE125_randls_42.json,http://54.235.29.9/FacialAge/BNav_EC2/DepthDuration/v2_depth_duration_MTurk/v2_DepthDuration_HTML.html#28,28,1024,625,1024,768,8-29-2022,13-36-3,124,depth_duration_stimuli/001214_2014-06-17_16-13-55_260595134347_rgbf000111-resize_0/001214_2014-06-17_16-13-55_260595134347_rgbf000111-resize_0-target.png,125,2.6505,1,4028,124,feet,jsons/VE125_randls_42.json,1174603,2652112,33,Woman
124,679854,DepthScenes,duration_manipulation_targetAtFixation,jsons/VE125_randls_42.json,http://54.235.29.9/FacialAge/BNav_EC2/DepthDuration/v2_depth_duration_MTurk/v2_DepthDuration_HTML.html#28,28,1024,625,1024,768,8-29-2022,13-36-3,125,depth_duration_stimuli/001092_2014-06-15_17-34-58_260595134347_rgbf000171-resize_3/001092_2014-06-15_17-34-58_260595134347_rgbf000171-resize_3-target.png,125,2.6935,5,10028,126,feet,jsons/VE125_randls_42.json,1174603,2652112,33,Woman
125,679854,DepthScenes,duration_manipulation_targetAtFixation,jsons/VE125_randls_42.json,http://54.235.29.9/FacialAge/BNav_EC2/DepthDuration/v2_depth_duration_MTurk/v2_DepthDuration_HTML.html#28,28,1024,625,1024,768,8-29-2022,13-36-3,126,depth_duration_stimuli/002545_2014-06-24_13-38-53_094959634447_rgbf000080-resize_4/002545_2014-06-24_13-38-53_094959634447_rgbf000080-resize_4-target.png,125,1.9205,1,9341,125,feet,jsons/VE125_randls_42.json,1174603,2652112,33,Woman
126,679854,DepthScenes,duration_manipulation_targetAtFixation,jsons/VE125_randls_42.json,http://54.235.29.9/FacialAge/BNav_EC2/DepthDuration/v2_depth_duration_MTurk/v2_DepthDuration_HTML.html#28,28,1024,625,1024,768,8-29-2022,13-36-3,127,depth_duration_stimuli/000414_2014-06-04_19-49-13_260595134347_rgbf000044-resize_0/000414_2014-06-04_19-49-13_260595134347_rgbf000044-resize_0-target.png,125,4.329,2,4449,126,feet,jsons/VE125_randls_42.json,1174603,2652112,33,Woman
127,679854,DepthScenes,duration_manipulation_targetAtFixation,jsons/VE125_randls_42.json,http://54.235.29.9/FacialAge/BNav_EC2/DepthDuration/v2_depth_duration_MTurk/v2_DepthDuration_HTML.html#28,28,1024,625,1024,768,8-29-2022,13-36-3,128,depth_duration_stimuli/003129_2014-05-12_10-48-10_094959634447_rgbf000100-resize_0/003129_2014-05-12_10-48-10_094959634447_rgbf000100-resize_0-target.png,125,4.9305,3,3827,125,feet,jsons/VE125_randls_42.json,1174603,2652112,33,Woman
128,679854,DepthScenes,duration_manipulation_targetAtFixation,jsons/VE125_randls_42.json,http://54.235.29.9/FacialAge/BNav_EC2/DepthDuration/v2_depth_duration_MTurk/v2_DepthDuration_HTML.html#28,28,1024,625,1024,768,8-29-2022,13-36-3,129,depth_duration_stimuli/002630_2014-06-24_14-47-50_094959634447_rgbf000055-resize_1/002630_2014-06-24_14-47-50_094959634447_rgbf000055-resize_1-target.png,125,3.0095,1,4979,125,feet,jsons/VE125_randls_42.json,1174603,2652112,33,Woman
129,679854,DepthScenes,duration_manipulation_targetAtFixation,jsons/VE125_randls_42.json,http://54.235.29.9/FacialAge/BNav_EC2/DepthDuration/v2_depth_duration_MTurk/v2_DepthDuration_HTML.html#28,28,1024,625,1024,768,8-29-2022,13-36-3,130,depth_duration_stimuli/002758_2014-06-22_19-11-20_094959634447_rgbf000128-resize_1/002758_2014-06-22_19-11-20_094959634447_rgbf000128-resize_1-target.png,125,2.555,4,8459,124,feet,jsons/VE125_randls_42.json,1174603,2652112,33,Woman
130,679854,DepthScenes,duration_manipulation_targetAtFixation,jsons/VE125_randls_42.json,http://54.235.29.9/FacialAge/BNav_EC2/DepthDuration/v2_depth_duration_MTurk/v2_DepthDuration_HTML.html#28,28,1024,625,1024,768,8-29-2022,13-36-3,131,depth_duration_stimuli/000917_2014-06-09_22-45-29_260595134347_rgbf000149-resize_3/000917_2014-06-09_22-45-29_260595134347_rgbf000149-resize_3-target.png,125,4.1865,3,22403,124,feet,jsons/VE125_randls_42.json,1174603,2652112,33,Woman
131,679854,DepthScenes,duration_manipulation_targetAtFixation,jsons/VE125_randls_42.json,http://54.235.29.9/FacialAge/BNav_EC2/DepthDuration/v2_depth_duration_MTurk/v2_DepthDuration_HTML.html#28,28,1024,625,1024,768,8-29-2022,13-36-3,132,depth_duration_stimuli/002323_2014-06-28_20-01-54_260595134347_rgbf000051-resize_4/002323_2014-06-28_20-01-54_260595134347_rgbf000051-resize_4-target.png,125,3.7310000000000003,2,5803,126,feet,jsons/VE125_randls_42.json,1174603,2652112,33,Woman
132,679854,DepthScenes,duration_manipulation_targetAtFixation,jsons/VE125_randls_42.json,http://54.235.29.9/FacialAge/BNav_EC2/DepthDuration/v2_depth_duration_MTurk/v2_DepthDuration_HTML.html#28,28,1024,625,1024,768,8-29-2022,13-36-3,133,depth_duration_stimuli/001806_2014-06-26_20-50-20_260595134347_rgbf000091-resize_1/001806_2014-06-26_20-50-20_260595134347_rgbf000091-resize_1-target.png,125,2.7305,4,5475,126,feet,jsons/VE125_randls_42.json,1174603,2652112,33,Woman
133,679854,DepthScenes,duration_manipulation_targetAtFixation,jsons/VE125_randls_42.json,http://54.235.29.9/FacialAge/BNav_EC2/DepthDuration/v2_depth_duration_MTurk/v2_DepthDuration_HTML.html#28,28,1024,625,1024,768,8-29-2022,13-36-3,134,depth_duration_stimuli/001617_2014-06-20_11-35-32_260595134347_rgbf000066-resize_1/001617_2014-06-20_11-35-32_260595134347_rgbf000066-resize_1-target.png,125,3.7910000000000004,3,5132,126,feet,jsons/VE125_randls_42.json,1174603,2652112,33,Woman
134,679854,DepthScenes,duration_manipulation_targetAtFixation,jsons/VE125_randls_42.json,http://54.235.29.9/FacialAge/BNav_EC2/DepthDuration/v2_depth_duration_MTurk/v2_DepthDuration_HTML.html#28,28,1024,625,1024,768,8-29-2022,13-36-3,135,depth_duration_stimuli/002072_2014-06-24_21-48-06_260595134347_rgbf000115-resize_0/002072_2014-06-24_21-48-06_260595134347_rgbf000115-resize-original.jpg,125,4.702,3,6988,125,feet,jsons/VE125_randls_42.json,1174603,2652112,33,Woman
135,679854,DepthScenes,duration_manipulation_targetAtFixation,jsons/VE125_randls_42.json,http://54.235.29.9/FacialAge/BNav_EC2/DepthDuration/v2_depth_duration_MTurk/v2_DepthDuration_HTML.html#28,28,1024,625,1024,768,8-29-2022,13-36-3,136,depth_duration_stimuli/001199_2014-06-17_16-03-48_260595134347_rgbf000077-resize_0/001199_2014-06-17_16-03-48_260595134347_rgbf000077-resize_0-target.png,125,3.4375,5,23508,125,feet,jsons/VE125_randls_42.json,1174603,2652112,33,Woman
136,679854,DepthScenes,duration_manipulation_targetAtFixation,jsons/VE125_randls_42.json,http://54.235.29.9/FacialAge/BNav_EC2/DepthDuration/v2_depth_duration_MTurk/v2_DepthDuration_HTML.html#28,28,1024,625,1024,768,8-29-2022,13-36-3,137,depth_duration_stimuli/000502_2014-06-08_23-02-32_260595134347_rgbf000063-resize_4/000502_2014-06-08_23-02-32_260595134347_rgbf000063-resize_4-target.png,125,2.431,1,6730,125,feet,jsons/VE125_randls_42.json,1174603,2652112,33,Woman
137,679854,DepthScenes,duration_manipulation_targetAtFixation,jsons/VE125_randls_42.json,http://54.235.29.9/FacialAge/BNav_EC2/DepthDuration/v2_depth_duration_MTurk/v2_DepthDuration_HTML.html#28,28,1024,625,1024,768,8-29-2022,13-36-3,138,depth_duration_stimuli/003492_2014-05-21_15-50-55_094959634447_rgbf000828-resize_1/003492_2014-05-21_15-50-55_094959634447_rgbf000828-resize_1-target.png,125,4.06875,2,3582,117,feet,jsons/VE125_randls_42.json,1174603,2652112,33,Woman
138,679854,DepthScenes,duration_manipulation_targetAtFixation,jsons/VE125_randls_42.json,http://54.235.29.9/FacialAge/BNav_EC2/DepthDuration/v2_depth_duration_MTurk/v2_DepthDuration_HTML.html#28,28,1024,625,1024,768,8-29-2022,13-36-3,139,depth_duration_stimuli/002568_2014-06-24_13-59-21_094959634447_rgbf000062-resize_4/002568_2014-06-24_13-59-21_094959634447_rgbf000062-resize_4-target.png,125,3.015,3,3345,121,feet,jsons/VE125_randls_42.json,1174603,2652112,33,Woman
139,679854,DepthScenes,duration_manipulation_targetAtFixation,jsons/VE125_randls_42.json,http://54.235.29.9/FacialAge/BNav_EC2/DepthDuration/v2_depth_duration_MTurk/v2_DepthDuration_HTML.html#28,28,1024,625,1024,768,8-29-2022,13-36-3,140,depth_duration_stimuli/001011_2014-06-08_23-18-54_260595134347_rgbf000044-resize_4/001011_2014-06-08_23-18-54_260595134347_rgbf000044-resize_4-target.png,125,2.4730000000000003,1,13234,125,feet,jsons/VE125_randls_42.json,1174603,2652112,33,Woman
140,679854,DepthScenes,duration_manipulation_targetAtFixation,jsons/VE125_randls_42.json,http://54.235.29.9/FacialAge/BNav_EC2/DepthDuration/v2_depth_duration_MTurk/v2_DepthDuration_HTML.html#28,28,1024,625,1024,768,8-29-2022,13-36-3,141,depth_duration_stimuli/002875_2014-06-01_15-19-00_094959634447_rgbf000151-resize_1/002875_2014-06-01_15-19-00_094959634447_rgbf000151-resize_1-target.png,125,1.9675,2,9658,125,feet,jsons/VE125_randls_42.json,1174603,2652112,33,Woman
141,679854,DepthScenes,duration_manipulation_targetAtFixation,jsons/VE125_randls_42.json,http://54.235.29.9/FacialAge/BNav_EC2/DepthDuration/v2_depth_duration_MTurk/v2_DepthDuration_HTML.html#28,28,1024,625,1024,768,8-29-2022,13-36-3,142,depth_duration_stimuli/002118_2014-06-25_20-32-08_260595134347_rgbf000078-resize_1/002118_2014-06-25_20-32-08_260595134347_rgbf000078-resize_1-target.png,125,2.6460000000000004,3,3879,112,feet,jsons/VE125_randls_42.json,1174603,2652112,33,Woman
142,679854,DepthScenes,duration_manipulation_targetAtFixation,jsons/VE125_randls_42.json,http://54.235.29.9/FacialAge/BNav_EC2/DepthDuration/v2_depth_duration_MTurk/v2_DepthDuration_HTML.html#28,28,1024,625,1024,768,8-29-2022,13-36-3,143,depth_duration_stimuli/001516_2014-06-20_16-25-09_260595134347_rgbf000076-resize_2/001516_2014-06-20_16-25-09_260595134347_rgbf000076-resize_2-target.png,125,1.7445,1,6621,125,feet,jsons/VE125_randls_42.json,1174603,2652112,33,Woman
143,679854,DepthScenes,duration_manipulation_targetAtFixation,jsons/VE125_randls_42.json,http://54.235.29.9/FacialAge/BNav_EC2/DepthDuration/v2_depth_duration_MTurk/v2_DepthDuration_HTML.html#28,28,1024,625,1024,768,8-29-2022,13-36-3,144,depth_duration_stimuli/000009_2014-05-26_14-32-05_260595134347_rgbf000034-resize_3/000009_2014-05-26_14-32-05_260595134347_rgbf000034-resize_3-target.png,125,3.8715,2,4716,125,feet,jsons/VE125_randls_42.json,1174603,2652112,33,Woman
144,679854,DepthScenes,duration_manipulation_targetAtFixation,jsons/VE125_randls_42.json,http://54.235.29.9/FacialAge/BNav_EC2/DepthDuration/v2_depth_duration_MTurk/v2_DepthDuration_HTML.html#28,28,1024,625,1024,768,8-29-2022,13-36-3,145,depth_duration_stimuli/001828_2014-06-26_21-40-03_260595134347_rgbf000024-resize_0/001828_2014-06-26_21-40-03_260595134347_rgbf000024-resize_0-target.png,125,4.8260000000000005,3,6095,124,feet,jsons/VE125_randls_42.json,1174603,2652112,33,Woman
145,679854,DepthScenes,duration_manipulation_targetAtFixation,jsons/VE125_randls_42.json,http://54.235.29.9/FacialAge/BNav_EC2/DepthDuration/v2_depth_duration_MTurk/v2_DepthDuration_HTML.html#28,28,1024,625,1024,768,8-29-2022,13-36-3,146,depth_duration_stimuli/001498_2014-06-19_17-45-14_260595134347_rgbf000129-resize_4/001498_2014-06-19_17-45-14_260595134347_rgbf000129-resize-original.jpg,125,1.4075,1,13486,113,feet,jsons/VE125_randls_42.json,1174603,2652112,33,Woman
146,679854,DepthScenes,duration_manipulation_targetAtFixation,jsons/VE125_randls_42.json,http://54.235.29.9/FacialAge/BNav_EC2/DepthDuration/v2_depth_duration_MTurk/v2_DepthDuration_HTML.html#28,28,1024,625,1024,768,8-29-2022,13-36-3,147,depth_duration_stimuli/000906_2014-06-08_13-35-43_260595134347_rgbf000155-resize_1/000906_2014-06-08_13-35-43_260595134347_rgbf000155-resize_1-target.png,125,2.8489999999999998,2,5430,113,feet,jsons/VE125_randls_42.json,1174603,2652112,33,Woman
147,679854,DepthScenes,duration_manipulation_targetAtFixation,jsons/VE125_randls_42.json,http://54.235.29.9/FacialAge/BNav_EC2/DepthDuration/v2_depth_duration_MTurk/v2_DepthDuration_HTML.html#28,28,1024,625,1024,768,8-29-2022,13-36-3,148,depth_duration_stimuli/002805_2014-06-22_19-54-03_094959634447_rgbf000079-resize_1/002805_2014-06-22_19-54-03_094959634447_rgbf000079-resize_1-target.png,125,3.1439999999999997,3,4189,125,feet,jsons/VE125_randls_42.json,1174603,2652112,33,Woman
148,679854,DepthScenes,duration_manipulation_targetAtFixation,jsons/VE125_randls_42.json,http://54.235.29.9/FacialAge/BNav_EC2/DepthDuration/v2_depth_duration_MTurk/v2_DepthDuration_HTML.html#28,28,1024,625,1024,768,8-29-2022,13-36-3,149,depth_duration_stimuli/000736_2014-06-08_18-24-15_260595134347_rgbf000206-resize_3/000736_2014-06-08_18-24-15_260595134347_rgbf000206-resize_3-target.png,125,3.515,2,8748,125,feet,jsons/VE125_randls_42.json,1174603,2652112,33,Woman
149,679854,DepthScenes,duration_manipulation_targetAtFixation,jsons/VE125_randls_42.json,http://54.235.29.9/FacialAge/BNav_EC2/DepthDuration/v2_depth_duration_MTurk/v2_DepthDuration_HTML.html#28,28,1024,625,1024,768,8-29-2022,13-36-3,150,depth_duration_stimuli/000137_2014-05-20_17-04-49_260595134347_rgbf000120-resize_1/000137_2014-05-20_17-04-49_260595134347_rgbf000120-resize_1-target.png,125,3.786,1,14740,125,feet,jsons/VE125_randls_42.json,1174603,2652112,33,Woman
150,679854,DepthScenes,duration_manipulation_targetAtFixation,jsons/VE125_randls_42.json,http://54.235.29.9/FacialAge/BNav_EC2/DepthDuration/v2_depth_duration_MTurk/v2_DepthDuration_HTML.html#28,28,1024,625,1024,768,8-29-2022,13-36-3,151,depth_duration_stimuli/002988_2014-06-15_12-24-20_094959634447_rgbf000150-resize_1/002988_2014-06-15_12-24-20_094959634447_rgbf000150-resize_1-target.png,125,4.7669999999999995,2,5255,125,feet,jsons/VE125_randls_42.json,1174603,2652112,33,Woman
151,679854,DepthScenes,duration_manipulation_targetAtFixation,jsons/VE125_randls_42.json,http://54.235.29.9/FacialAge/BNav_EC2/DepthDuration/v2_depth_duration_MTurk/v2_DepthDuration_HTML.html#28,28,1024,625,1024,768,8-29-2022,13-36-3,152,depth_duration_stimuli/001052_2014-06-08_18-24-54_260595134347_rgbf000130-resize_1/001052_2014-06-08_18-24-54_260595134347_rgbf000130-resize_1-target.png,125,4.1045,3,9742,124,feet,jsons/VE125_randls_42.json,1174603,2652112,33,Woman
152,679854,DepthScenes,duration_manipulation_targetAtFixation,jsons/VE125_randls_42.json,http://54.235.29.9/FacialAge/BNav_EC2/DepthDuration/v2_depth_duration_MTurk/v2_DepthDuration_HTML.html#28,28,1024,625,1024,768,8-29-2022,13-36-3,153,depth_duration_stimuli/003292_2014-05-14_21-53-49_094959634447_rgbf000100-resize_2/003292_2014-05-14_21-53-49_094959634447_rgbf000100-resize_2-target.png,125,3.4815,2,4300,123,feet,jsons/VE125_randls_42.json,1174603,2652112,33,Woman
153,679854,DepthScenes,duration_manipulation_targetAtFixation,jsons/VE125_randls_42.json,http://54.235.29.9/FacialAge/BNav_EC2/DepthDuration/v2_depth_duration_MTurk/v2_DepthDuration_HTML.html#28,28,1024,625,1024,768,8-29-2022,13-36-3,154,depth_duration_stimuli/002639_2014-06-24_14-51-37_094959634447_rgbf000074-resize_4/002639_2014-06-24_14-51-37_094959634447_rgbf000074-resize_4-target.png,125,4.0375,3,4062,126,feet,jsons/VE125_randls_42.json,1174603,2652112,33,Woman
154,679854,DepthScenes,duration_manipulation_targetAtFixation,jsons/VE125_randls_42.json,http://54.235.29.9/FacialAge/BNav_EC2/DepthDuration/v2_depth_duration_MTurk/v2_DepthDuration_HTML.html#28,28,1024,625,1024,768,8-29-2022,13-36-3,155,depth_duration_stimuli/000788_2014-06-08_22-34-36_260595134347_rgbf000131-resize_1/000788_2014-06-08_22-34-36_260595134347_rgbf000131-resize_1-target.png,125,3.359,1,6505,125,feet,jsons/VE125_randls_42.json,1174603,2652112,33,Woman
155,679854,DepthScenes,duration_manipulation_targetAtFixation,jsons/VE125_randls_42.json,http://54.235.29.9/FacialAge/BNav_EC2/DepthDuration/v2_depth_duration_MTurk/v2_DepthDuration_HTML.html#28,28,1024,625,1024,768,8-29-2022,13-36-3,156,depth_duration_stimuli/001235_2014-06-17_16-37-36_260595134347_rgbf000084-resize_4/001235_2014-06-17_16-37-36_260595134347_rgbf000084-resize_4-target.png,125,3.6605,2,3660,125,feet,jsons/VE125_randls_42.json,1174603,2652112,33,Woman
156,679854,DepthScenes,duration_manipulation_targetAtFixation,jsons/VE125_randls_42.json,http://54.235.29.9/FacialAge/BNav_EC2/DepthDuration/v2_depth_duration_MTurk/v2_DepthDuration_HTML.html#28,28,1024,625,1024,768,8-29-2022,13-36-3,157,depth_duration_stimuli/002784_2014-06-22_19-26-30_094959634447_rgbf000083-resize_3/002784_2014-06-22_19-26-30_094959634447_rgbf000083-resize_3-target.png,125,1.8046666666667,3,5458,125,feet,jsons/VE125_randls_42.json,1174603,2652112,33,Woman
157,679854,DepthScenes,duration_manipulation_targetAtFixation,jsons/VE125_randls_42.json,http://54.235.29.9/FacialAge/BNav_EC2/DepthDuration/v2_depth_duration_MTurk/v2_DepthDuration_HTML.html#28,28,1024,625,1024,768,8-29-2022,13-36-3,158,depth_duration_stimuli/001100_2014-06-15_17-46-26_260595134347_rgbf000225-resize_2/001100_2014-06-15_17-46-26_260595134347_rgbf000225-resize_2-target.png,125,2.24,1,4320,115,feet,jsons/VE125_randls_42.json,1174603,2652112,33,Woman
158,679854,DepthScenes,duration_manipulation_targetAtFixation,jsons/VE125_randls_42.json,http://54.235.29.9/FacialAge/BNav_EC2/DepthDuration/v2_depth_duration_MTurk/v2_DepthDuration_HTML.html#28,28,1024,625,1024,768,8-29-2022,13-36-3,159,depth_duration_stimuli/002445_2014-06-28_20-32-16_260595134347_rgbf000029-resize_4/002445_2014-06-28_20-32-16_260595134347_rgbf000029-resize_4-target.png,125,2.5315,2,4474,125,feet,jsons/VE125_randls_42.json,1174603,2652112,33,Woman
159,679854,DepthScenes,duration_manipulation_targetAtFixation,jsons/VE125_randls_42.json,http://54.235.29.9/FacialAge/BNav_EC2/DepthDuration/v2_depth_duration_MTurk/v2_DepthDuration_HTML.html#28,28,1024,625,1024,768,8-29-2022,13-36-3,160,depth_duration_stimuli/000780_2014-06-08_22-28-29_260595134347_rgbf000126-resize_1/000780_2014-06-08_22-28-29_260595134347_rgbf000126-resize_1-target.png,125,3.3825,3,4371,116,feet,jsons/VE125_randls_42.json,1174603,2652112,33,Woman
160,679854,DepthScenes,duration_manipulation_targetAtFixation,jsons/VE125_randls_42.json,http://54.235.29.9/FacialAge/BNav_EC2/DepthDuration/v2_depth_duration_MTurk/v2_DepthDuration_HTML.html#28,28,1024,625,1024,768,8-29-2022,13-36-3,161,depth_duration_stimuli/001810_2014-06-26_20-51-35_260595134347_rgbf000040-resize_3/001810_2014-06-26_20-51-35_260595134347_rgbf000040-resize_3-target.png,125,2.2525,4,5963,126,feet,jsons/VE125_randls_42.json,1174603,2652112,33,Woman
161,679854,DepthScenes,duration_manipulation_targetAtFixation,jsons/VE125_randls_42.json,http://54.235.29.9/FacialAge/BNav_EC2/DepthDuration/v2_depth_duration_MTurk/v2_DepthDuration_HTML.html#28,28,1024,625,1024,768,8-29-2022,13-36-3,162,depth_duration_stimuli/003010_2014-06-15_12-54-35_094959634447_rgbf000112-resize_0/003010_2014-06-15_12-54-35_094959634447_rgbf000112-resize_0-target.png,125,3.1185,1,4755,116,feet,jsons/VE125_randls_42.json,1174603,2652112,33,Woman
162,679854,DepthScenes,duration_manipulation_targetAtFixation,jsons/VE125_randls_42.json,http://54.235.29.9/FacialAge/BNav_EC2/DepthDuration/v2_depth_duration_MTurk/v2_DepthDuration_HTML.html#28,28,1024,625,1024,768,8-29-2022,13-36-3,163,depth_duration_stimuli/001056_2014-06-08_18-46-44_260595134347_rgbf000068-resize_0/001056_2014-06-08_18-46-44_260595134347_rgbf000068-resize_0-target.png,125,2.6625,1,22315,125,feet,jsons/VE125_randls_42.json,1174603,2652112,33,Woman
163,679854,DepthScenes,duration_manipulation_targetAtFixation,jsons/VE125_randls_42.json,http://54.235.29.9/FacialAge/BNav_EC2/DepthDuration/v2_depth_duration_MTurk/v2_DepthDuration_HTML.html#28,28,1024,625,1024,768,8-29-2022,13-36-3,164,depth_duration_stimuli/002199_2014-06-28_18-33-56_260595134347_rgbf000074-resize_0/002199_2014-06-28_18-33-56_260595134347_rgbf000074-resize_0-target.png,125,1.996,2,3984,125,feet,jsons/VE125_randls_42.json,1174603,2652112,33,Woman
