,subjID,experimentName,versionName,sequenceName,url,selected_row,windowWidth,windowHeight,screenWidth,screenHeight,startDate,startTime,trial,stimulus,duration,actual_depth,depth_estimate,trial_RT,log_sceneDuration,unitSelection,seq_filepath,experimentTime,totalTime,age,gender
0,680693,DepthScenes,duration_manipulation_targetAtFixation,jsons/VE125_randls_73_rotated.json,http://54.235.29.9/FacialAge/BNav_EC2/DepthDuration/v2_depth_duration_MTurk/v2_DepthDuration_HTML.html#278,278,1920,1007,1920,1080,8-30-2022,10-21-9,1,depth_duration_stimuli/000749_2014-06-08_21-55-06_260595134347_rgbf000070-resize_2/000749_2014-06-08_21-55-06_260595134347_rgbf000070-resize_2-target.png,125,2.331,3,7009,126,feet,jsons/VE125_randls_73_rotated.json,741213,1039121,34,Man
1,680693,DepthScenes,duration_manipulation_targetAtFixation,jsons/VE125_randls_73_rotated.json,http://54.235.29.9/FacialAge/BNav_EC2/DepthDuration/v2_depth_duration_MTurk/v2_DepthDuration_HTML.html#278,278,1920,1007,1920,1080,8-30-2022,10-21-9,2,depth_duration_stimuli/002788_2014-06-22_19-36-03_094959634447_rgbf000088-resize_2/002788_2014-06-22_19-36-03_094959634447_rgbf000088-resize_2-target.png,125,1.6465,5,3340,123,feet,jsons/VE125_randls_73_rotated.json,741213,1039121,34,Man
2,680693,DepthScenes,duration_manipulation_targetAtFixation,jsons/VE125_randls_73_rotated.json,http://54.235.29.9/FacialAge/BNav_EC2/DepthDuration/v2_depth_duration_MTurk/v2_DepthDuration_HTML.html#278,278,1920,1007,1920,1080,8-30-2022,10-21-9,3,depth_duration_stimuli/002758_2014-06-22_19-11-20_094959634447_rgbf000128-resize_1/002758_2014-06-22_19-11-20_094959634447_rgbf000128-resize_1-target.png,125,2.555,4,9285,125,feet,jsons/VE125_randls_73_rotated.json,741213,1039121,34,Man
3,680693,DepthScenes,duration_manipulation_targetAtFixation,jsons/VE125_randls_73_rotated.json,http://54.235.29.9/FacialAge/BNav_EC2/DepthDuration/v2_depth_duration_MTurk/v2_DepthDuration_HTML.html#278,278,1920,1007,1920,1080,8-30-2022,10-21-9,4,depth_duration_stimuli/002630_2014-06-24_14-47-50_094959634447_rgbf000055-resize_1/002630_2014-06-24_14-47-50_094959634447_rgbf000055-resize_1-target.png,125,3.0095,5,4057,125,feet,jsons/VE125_randls_73_rotated.json,741213,1039121,34,Man
4,680693,DepthScenes,duration_manipulation_targetAtFixation,jsons/VE125_randls_73_rotated.json,http://54.235.29.9/FacialAge/BNav_EC2/DepthDuration/v2_depth_duration_MTurk/v2_DepthDuration_HTML.html#278,278,1920,1007,1920,1080,8-30-2022,10-21-9,5,depth_duration_stimuli/002568_2014-06-24_13-59-21_094959634447_rgbf000062-resize_4/002568_2014-06-24_13-59-21_094959634447_rgbf000062-resize_4-target.png,125,3.015,4,3083,139,feet,jsons/VE125_randls_73_rotated.json,741213,1039121,34,Man
5,680693,DepthScenes,duration_manipulation_targetAtFixation,jsons/VE125_randls_73_rotated.json,http://54.235.29.9/FacialAge/BNav_EC2/DepthDuration/v2_depth_duration_MTurk/v2_DepthDuration_HTML.html#278,278,1920,1007,1920,1080,8-30-2022,10-21-9,6,depth_duration_stimuli/003492_2014-05-21_15-50-55_094959634447_rgbf000828-resize_1/003492_2014-05-21_15-50-55_094959634447_rgbf000828-resize_1-target.png,125,4.06875,6,3489,125,feet,jsons/VE125_randls_73_rotated.json,741213,1039121,34,Man
6,680693,DepthScenes,duration_manipulation_targetAtFixation,jsons/VE125_randls_73_rotated.json,http://54.235.29.9/FacialAge/BNav_EC2/DepthDuration/v2_depth_duration_MTurk/v2_DepthDuration_HTML.html#278,278,1920,1007,1920,1080,8-30-2022,10-21-9,7,depth_duration_stimuli/001132_2014-06-17_14-48-54_260595134347_rgbf000100-resize_2/001132_2014-06-17_14-48-54_260595134347_rgbf000100-resize_2-target.png,125,3.753,6,2524,135,feet,jsons/VE125_randls_73_rotated.json,741213,1039121,34,Man
7,680693,DepthScenes,duration_manipulation_targetAtFixation,jsons/VE125_randls_73_rotated.json,http://54.235.29.9/FacialAge/BNav_EC2/DepthDuration/v2_depth_duration_MTurk/v2_DepthDuration_HTML.html#278,278,1920,1007,1920,1080,8-30-2022,10-21-9,8,depth_duration_stimuli/001133_2014-06-17_14-49-16_260595134347_rgbf000100-resize_0/001133_2014-06-17_14-49-16_260595134347_rgbf000100-resize_0-target.png,125,4.2115,6,2824,125,feet,jsons/VE125_randls_73_rotated.json,741213,1039121,34,Man
8,680693,DepthScenes,duration_manipulation_targetAtFixation,jsons/VE125_randls_73_rotated.json,http://54.235.29.9/FacialAge/BNav_EC2/DepthDuration/v2_depth_duration_MTurk/v2_DepthDuration_HTML.html#278,278,1920,1007,1920,1080,8-30-2022,10-21-9,9,depth_duration_stimuli/000457_2014-06-08_16-52-43_260595134347_rgbf000199-resize_1/000457_2014-06-08_16-52-43_260595134347_rgbf000199-resize_1-target.png,125,3.6489999999999996,6,4547,118,feet,jsons/VE125_randls_73_rotated.json,741213,1039121,34,Man
9,680693,DepthScenes,duration_manipulation_targetAtFixation,jsons/VE125_randls_73_rotated.json,http://54.235.29.9/FacialAge/BNav_EC2/DepthDuration/v2_depth_duration_MTurk/v2_DepthDuration_HTML.html#278,278,1920,1007,1920,1080,8-30-2022,10-21-9,10,depth_duration_stimuli/000929_2014-06-09_16-33-19_260595134347_rgbf000139-resize_0/000929_2014-06-09_16-33-19_260595134347_rgbf000139-resize_0-target.png,125,2.8680000000000003,5,2872,125,feet,jsons/VE125_randls_73_rotated.json,741213,1039121,34,Man
10,680693,DepthScenes,duration_manipulation_targetAtFixation,jsons/VE125_randls_73_rotated.json,http://54.235.29.9/FacialAge/BNav_EC2/DepthDuration/v2_depth_duration_MTurk/v2_DepthDuration_HTML.html#278,278,1920,1007,1920,1080,8-30-2022,10-21-9,11,depth_duration_stimuli/001516_2014-06-20_16-25-09_260595134347_rgbf000076-resize_2/001516_2014-06-20_16-25-09_260595134347_rgbf000076-resize_2-target.png,125,1.7445,3,3547,124,feet,jsons/VE125_randls_73_rotated.json,741213,1039121,34,Man
11,680693,DepthScenes,duration_manipulation_targetAtFixation,jsons/VE125_randls_73_rotated.json,http://54.235.29.9/FacialAge/BNav_EC2/DepthDuration/v2_depth_duration_MTurk/v2_DepthDuration_HTML.html#278,278,1920,1007,1920,1080,8-30-2022,10-21-9,12,depth_duration_stimuli/002118_2014-06-25_20-32-08_260595134347_rgbf000078-resize_1/002118_2014-06-25_20-32-08_260595134347_rgbf000078-resize_1-target.png,125,2.6460000000000004,4,3002,124,feet,jsons/VE125_randls_73_rotated.json,741213,1039121,34,Man
12,680693,DepthScenes,duration_manipulation_targetAtFixation,jsons/VE125_randls_73_rotated.json,http://54.235.29.9/FacialAge/BNav_EC2/DepthDuration/v2_depth_duration_MTurk/v2_DepthDuration_HTML.html#278,278,1920,1007,1920,1080,8-30-2022,10-21-9,13,depth_duration_stimuli/002657_2014-06-13_15-29-54_094959634447_rgbf000150-resize_1/002657_2014-06-13_15-29-54_094959634447_rgbf000150-resize_1-target.png,125,4.919,6,3261,125,feet,jsons/VE125_randls_73_rotated.json,741213,1039121,34,Man
13,680693,DepthScenes,duration_manipulation_targetAtFixation,jsons/VE125_randls_73_rotated.json,http://54.235.29.9/FacialAge/BNav_EC2/DepthDuration/v2_depth_duration_MTurk/v2_DepthDuration_HTML.html#278,278,1920,1007,1920,1080,8-30-2022,10-21-9,14,depth_duration_stimuli/002375_2014-06-28_20-13-44_260595134347_rgbf000032-resize_1/002375_2014-06-28_20-13-44_260595134347_rgbf000032-resize_1-target.png,125,4.0175,5,2804,125,feet,jsons/VE125_randls_73_rotated.json,741213,1039121,34,Man
14,680693,DepthScenes,duration_manipulation_targetAtFixation,jsons/VE125_randls_73_rotated.json,http://54.235.29.9/FacialAge/BNav_EC2/DepthDuration/v2_depth_duration_MTurk/v2_DepthDuration_HTML.html#278,278,1920,1007,1920,1080,8-30-2022,10-21-9,15,depth_duration_stimuli/003490_2014-05-21_15-50-11_094959634447_rgbf000101-resize_3/003490_2014-05-21_15-50-11_094959634447_rgbf000101-resize_3-target.png,125,3.6445,6,3215,124,feet,jsons/VE125_randls_73_rotated.json,741213,1039121,34,Man
15,680693,DepthScenes,duration_manipulation_targetAtFixation,jsons/VE125_randls_73_rotated.json,http://54.235.29.9/FacialAge/BNav_EC2/DepthDuration/v2_depth_duration_MTurk/v2_DepthDuration_HTML.html#278,278,1920,1007,1920,1080,8-30-2022,10-21-9,16,depth_duration_stimuli/001175_2014-06-17_15-45-55_260595134347_rgbf000129-resize_4/001175_2014-06-17_15-45-55_260595134347_rgbf000129-resize_4-target.png,125,4.255,7,19137,126,feet,jsons/VE125_randls_73_rotated.json,741213,1039121,34,Man
16,680693,DepthScenes,duration_manipulation_targetAtFixation,jsons/VE125_randls_73_rotated.json,http://54.235.29.9/FacialAge/BNav_EC2/DepthDuration/v2_depth_duration_MTurk/v2_DepthDuration_HTML.html#278,278,1920,1007,1920,1080,8-30-2022,10-21-9,17,depth_duration_stimuli/002199_2014-06-28_18-33-56_260595134347_rgbf000074-resize_0/002199_2014-06-28_18-33-56_260595134347_rgbf000074-resize_0-target.png,125,1.996,1,6273,127,feet,jsons/VE125_randls_73_rotated.json,741213,1039121,34,Man
17,680693,DepthScenes,duration_manipulation_targetAtFixation,jsons/VE125_randls_73_rotated.json,http://54.235.29.9/FacialAge/BNav_EC2/DepthDuration/v2_depth_duration_MTurk/v2_DepthDuration_HTML.html#278,278,1920,1007,1920,1080,8-30-2022,10-21-9,18,depth_duration_stimuli/001056_2014-06-08_18-46-44_260595134347_rgbf000068-resize_0/001056_2014-06-08_18-46-44_260595134347_rgbf000068-resize_0-target.png,125,2.6625,3,3042,128,feet,jsons/VE125_randls_73_rotated.json,741213,1039121,34,Man
18,680693,DepthScenes,duration_manipulation_targetAtFixation,jsons/VE125_randls_73_rotated.json,http://54.235.29.9/FacialAge/BNav_EC2/DepthDuration/v2_depth_duration_MTurk/v2_DepthDuration_HTML.html#278,278,1920,1007,1920,1080,8-30-2022,10-21-9,19,depth_duration_stimuli/001498_2014-06-19_17-45-14_260595134347_rgbf000129-resize_4/001498_2014-06-19_17-45-14_260595134347_rgbf000129-resize-original.jpg,125,1.4075,0,3152,113,feet,jsons/VE125_randls_73_rotated.json,741213,1039121,34,Man
19,680693,DepthScenes,duration_manipulation_targetAtFixation,jsons/VE125_randls_73_rotated.json,http://54.235.29.9/FacialAge/BNav_EC2/DepthDuration/v2_depth_duration_MTurk/v2_DepthDuration_HTML.html#278,278,1920,1007,1920,1080,8-30-2022,10-21-9,20,depth_duration_stimuli/003081_2014-06-15_15-19-16_094959634447_rgbf000150-resize_1/003081_2014-06-15_15-19-16_094959634447_rgbf000150-resize_1-target.png,125,3.9125,5,3215,124,feet,jsons/VE125_randls_73_rotated.json,741213,1039121,34,Man
20,680693,DepthScenes,duration_manipulation_targetAtFixation,jsons/VE125_randls_73_rotated.json,http://54.235.29.9/FacialAge/BNav_EC2/DepthDuration/v2_depth_duration_MTurk/v2_DepthDuration_HTML.html#278,278,1920,1007,1920,1080,8-30-2022,10-21-9,21,depth_duration_stimuli/001417_2014-06-19_16-25-36_260595134347_rgbf000115-resize_5/001417_2014-06-19_16-25-36_260595134347_rgbf000115-resize_5-target.png,125,4.6255,6,6521,128,feet,jsons/VE125_randls_73_rotated.json,741213,1039121,34,Man
21,680693,DepthScenes,duration_manipulation_targetAtFixation,jsons/VE125_randls_73_rotated.json,http://54.235.29.9/FacialAge/BNav_EC2/DepthDuration/v2_depth_duration_MTurk/v2_DepthDuration_HTML.html#278,278,1920,1007,1920,1080,8-30-2022,10-21-9,22,depth_duration_stimuli/003587_2014-05-23_16-48-02_094959634447_rgbf002384-resize_2/003587_2014-05-23_16-48-02_094959634447_rgbf002384-resize_2-target.png,125,1.357,1,3414,124,feet,jsons/VE125_randls_73_rotated.json,741213,1039121,34,Man
22,680693,DepthScenes,duration_manipulation_targetAtFixation,jsons/VE125_randls_73_rotated.json,http://54.235.29.9/FacialAge/BNav_EC2/DepthDuration/v2_depth_duration_MTurk/v2_DepthDuration_HTML.html#278,278,1920,1007,1920,1080,8-30-2022,10-21-9,23,depth_duration_stimuli/001167_2014-06-17_15-38-07_260595134347_rgbf000108-resize_0/001167_2014-06-17_15-38-07_260595134347_rgbf000108-resize_0-target.png,125,1.8505,2,6013,124,feet,jsons/VE125_randls_73_rotated.json,741213,1039121,34,Man
23,680693,DepthScenes,duration_manipulation_targetAtFixation,jsons/VE125_randls_73_rotated.json,http://54.235.29.9/FacialAge/BNav_EC2/DepthDuration/v2_depth_duration_MTurk/v2_DepthDuration_HTML.html#278,278,1920,1007,1920,1080,8-30-2022,10-21-9,24,depth_duration_stimuli/002545_2014-06-24_13-38-53_094959634447_rgbf000080-resize_4/002545_2014-06-24_13-38-53_094959634447_rgbf000080-resize_4-target.png,125,1.9205,3,2895,127,feet,jsons/VE125_randls_73_rotated.json,741213,1039121,34,Man
24,680693,DepthScenes,duration_manipulation_targetAtFixation,jsons/VE125_randls_73_rotated.json,http://54.235.29.9/FacialAge/BNav_EC2/DepthDuration/v2_depth_duration_MTurk/v2_DepthDuration_HTML.html#278,278,1920,1007,1920,1080,8-30-2022,10-21-9,25,depth_duration_stimuli/001092_2014-06-15_17-34-58_260595134347_rgbf000171-resize_3/001092_2014-06-15_17-34-58_260595134347_rgbf000171-resize_3-target.png,125,2.6935,2,3977,111,feet,jsons/VE125_randls_73_rotated.json,741213,1039121,34,Man
25,680693,DepthScenes,duration_manipulation_targetAtFixation,jsons/VE125_randls_73_rotated.json,http://54.235.29.9/FacialAge/BNav_EC2/DepthDuration/v2_depth_duration_MTurk/v2_DepthDuration_HTML.html#278,278,1920,1007,1920,1080,8-30-2022,10-21-9,26,depth_duration_stimuli/002949_2014-06-26_15-57-42_094959634447_rgbf000079-resize_1/002949_2014-06-26_15-57-42_094959634447_rgbf000079-resize_1-target.png,125,1.8915,2,4047,133,feet,jsons/VE125_randls_73_rotated.json,741213,1039121,34,Man
26,680693,DepthScenes,duration_manipulation_targetAtFixation,jsons/VE125_randls_73_rotated.json,http://54.235.29.9/FacialAge/BNav_EC2/DepthDuration/v2_depth_duration_MTurk/v2_DepthDuration_HTML.html#278,278,1920,1007,1920,1080,8-30-2022,10-21-9,27,depth_duration_stimuli/000522_2014-06-08_13-35-06_260595134347_rgbf000244-resize_1/000522_2014-06-08_13-35-06_260595134347_rgbf000244-resize_1-target.png,125,2.3715,1,2398,124,feet,jsons/VE125_randls_73_rotated.json,741213,1039121,34,Man
27,680693,DepthScenes,duration_manipulation_targetAtFixation,jsons/VE125_randls_73_rotated.json,http://54.235.29.9/FacialAge/BNav_EC2/DepthDuration/v2_depth_duration_MTurk/v2_DepthDuration_HTML.html#278,278,1920,1007,1920,1080,8-30-2022,10-21-9,28,depth_duration_stimuli/001235_2014-06-17_16-37-36_260595134347_rgbf000084-resize_4/001235_2014-06-17_16-37-36_260595134347_rgbf000084-resize_4-target.png,125,3.6605,4,3665,126,feet,jsons/VE125_randls_73_rotated.json,741213,1039121,34,Man
28,680693,DepthScenes,duration_manipulation_targetAtFixation,jsons/VE125_randls_73_rotated.json,http://54.235.29.9/FacialAge/BNav_EC2/DepthDuration/v2_depth_duration_MTurk/v2_DepthDuration_HTML.html#278,278,1920,1007,1920,1080,8-30-2022,10-21-9,29,depth_duration_stimuli/000788_2014-06-08_22-34-36_260595134347_rgbf000131-resize_1/000788_2014-06-08_22-34-36_260595134347_rgbf000131-resize_1-target.png,125,3.359,4,2210,124,feet,jsons/VE125_randls_73_rotated.json,741213,1039121,34,Man
29,680693,DepthScenes,duration_manipulation_targetAtFixation,jsons/VE125_randls_73_rotated.json,http://54.235.29.9/FacialAge/BNav_EC2/DepthDuration/v2_depth_duration_MTurk/v2_DepthDuration_HTML.html#278,278,1920,1007,1920,1080,8-30-2022,10-21-9,30,depth_duration_stimuli/002072_2014-06-24_21-48-06_260595134347_rgbf000115-resize_0/002072_2014-06-24_21-48-06_260595134347_rgbf000115-resize-original.jpg,125,4.702,0,3171,124,feet,jsons/VE125_randls_73_rotated.json,741213,1039121,34,Man
30,680693,DepthScenes,duration_manipulation_targetAtFixation,jsons/VE125_randls_73_rotated.json,http://54.235.29.9/FacialAge/BNav_EC2/DepthDuration/v2_depth_duration_MTurk/v2_DepthDuration_HTML.html#278,278,1920,1007,1920,1080,8-30-2022,10-21-9,31,depth_duration_stimuli/001136_2014-06-17_15-19-41_260595134347_rgbf000076-resize_3/001136_2014-06-17_15-19-41_260595134347_rgbf000076-resize_3-target.png,125,1.8655,3,5214,127,feet,jsons/VE125_randls_73_rotated.json,741213,1039121,34,Man
31,680693,DepthScenes,duration_manipulation_targetAtFixation,jsons/VE125_randls_73_rotated.json,http://54.235.29.9/FacialAge/BNav_EC2/DepthDuration/v2_depth_duration_MTurk/v2_DepthDuration_HTML.html#278,278,1920,1007,1920,1080,8-30-2022,10-21-9,32,depth_duration_stimuli/001164_2014-06-17_15-35-46_260595134347_rgbf000085-resize_3/001164_2014-06-17_15-35-46_260595134347_rgbf000085-resize_3-target.png,125,2.354,3,3114,133,feet,jsons/VE125_randls_73_rotated.json,741213,1039121,34,Man
32,680693,DepthScenes,duration_manipulation_targetAtFixation,jsons/VE125_randls_73_rotated.json,http://54.235.29.9/FacialAge/BNav_EC2/DepthDuration/v2_depth_duration_MTurk/v2_DepthDuration_HTML.html#278,278,1920,1007,1920,1080,8-30-2022,10-21-9,33,depth_duration_stimuli/003079_2014-06-15_15-18-20_094959634447_rgbf000152-resize_8/003079_2014-06-15_15-18-20_094959634447_rgbf000152-resize_8-target.png,125,2.8775,6,2887,126,feet,jsons/VE125_randls_73_rotated.json,741213,1039121,34,Man
33,680693,DepthScenes,duration_manipulation_targetAtFixation,jsons/VE125_randls_73_rotated.json,http://54.235.29.9/FacialAge/BNav_EC2/DepthDuration/v2_depth_duration_MTurk/v2_DepthDuration_HTML.html#278,278,1920,1007,1920,1080,8-30-2022,10-21-9,34,depth_duration_stimuli/000506_2014-06-08_23-21-00_260595134347_rgbf000070-resize_7/000506_2014-06-08_23-21-00_260595134347_rgbf000070-resize_7-target.png,125,4.0585,5,4025,125,feet,jsons/VE125_randls_73_rotated.json,741213,1039121,34,Man
34,680693,DepthScenes,duration_manipulation_targetAtFixation,jsons/VE125_randls_73_rotated.json,http://54.235.29.9/FacialAge/BNav_EC2/DepthDuration/v2_depth_duration_MTurk/v2_DepthDuration_HTML.html#278,278,1920,1007,1920,1080,8-30-2022,10-21-9,35,depth_duration_stimuli/003338_2014-05-20_11-01-23_094959634447_rgbf000051-resize_6/003338_2014-05-20_11-01-23_094959634447_rgbf000051-resize_6-target.png,125,1.693,2,2805,126,feet,jsons/VE125_randls_73_rotated.json,741213,1039121,34,Man
35,680693,DepthScenes,duration_manipulation_targetAtFixation,jsons/VE125_randls_73_rotated.json,http://54.235.29.9/FacialAge/BNav_EC2/DepthDuration/v2_depth_duration_MTurk/v2_DepthDuration_HTML.html#278,278,1920,1007,1920,1080,8-30-2022,10-21-9,36,depth_duration_stimuli/002509_2014-06-24_13-19-22_094959634447_rgbf000077-resize_0/002509_2014-06-24_13-19-22_094959634447_rgbf000077-resize_0-target.png,125,1.3065,1,2264,133,feet,jsons/VE125_randls_73_rotated.json,741213,1039121,34,Man
36,680693,DepthScenes,duration_manipulation_targetAtFixation,jsons/VE125_randls_73_rotated.json,http://54.235.29.9/FacialAge/BNav_EC2/DepthDuration/v2_depth_duration_MTurk/v2_DepthDuration_HTML.html#278,278,1920,1007,1920,1080,8-30-2022,10-21-9,37,depth_duration_stimuli/001392_2014-06-19_16-07-59_260595134347_rgbf000046-resize_1/001392_2014-06-19_16-07-59_260595134347_rgbf000046-resize_1-target.png,125,4.135,4,4736,127,feet,jsons/VE125_randls_73_rotated.json,741213,1039121,34,Man
37,680693,DepthScenes,duration_manipulation_targetAtFixation,jsons/VE125_randls_73_rotated.json,http://54.235.29.9/FacialAge/BNav_EC2/DepthDuration/v2_depth_duration_MTurk/v2_DepthDuration_HTML.html#278,278,1920,1007,1920,1080,8-30-2022,10-21-9,38,depth_duration_stimuli/001570_2014-06-20_17-21-09_260595134347_rgbf000135-resize_4/001570_2014-06-20_17-21-09_260595134347_rgbf000135-resize_4-target.png,125,4.467,6,2473,111,feet,jsons/VE125_randls_73_rotated.json,741213,1039121,34,Man
38,680693,DepthScenes,duration_manipulation_targetAtFixation,jsons/VE125_randls_73_rotated.json,http://54.235.29.9/FacialAge/BNav_EC2/DepthDuration/v2_depth_duration_MTurk/v2_DepthDuration_HTML.html#278,278,1920,1007,1920,1080,8-30-2022,10-21-9,39,depth_duration_stimuli/003423_2014-05-21_10-23-26_094959634447_rgbf002665-resize_2/003423_2014-05-21_10-23-26_094959634447_rgbf002665-resize_2-target.png,125,3.2575,8,7339,126,feet,jsons/VE125_randls_73_rotated.json,741213,1039121,34,Man
39,680693,DepthScenes,duration_manipulation_targetAtFixation,jsons/VE125_randls_73_rotated.json,http://54.235.29.9/FacialAge/BNav_EC2/DepthDuration/v2_depth_duration_MTurk/v2_DepthDuration_HTML.html#278,278,1920,1007,1920,1080,8-30-2022,10-21-9,40,depth_duration_stimuli/002905_2014-06-03_18-04-43_094959634447_rgbf000151-resize_2/002905_2014-06-03_18-04-43_094959634447_rgbf000151-resize_2-target.png,125,2.0295,2,2943,126,feet,jsons/VE125_randls_73_rotated.json,741213,1039121,34,Man
40,680693,DepthScenes,duration_manipulation_targetAtFixation,jsons/VE125_randls_73_rotated.json,http://54.235.29.9/FacialAge/BNav_EC2/DepthDuration/v2_depth_duration_MTurk/v2_DepthDuration_HTML.html#278,278,1920,1007,1920,1080,8-30-2022,10-21-9,41,depth_duration_stimuli/000109_2014-05-14_23-41-52_260595134347_rgbf000035-resize_9/000109_2014-05-14_23-41-52_260595134347_rgbf000035-resize_9-target.png,125,1.3545,1,2121,125,feet,jsons/VE125_randls_73_rotated.json,741213,1039121,34,Man
41,680693,DepthScenes,duration_manipulation_targetAtFixation,jsons/VE125_randls_73_rotated.json,http://54.235.29.9/FacialAge/BNav_EC2/DepthDuration/v2_depth_duration_MTurk/v2_DepthDuration_HTML.html#278,278,1920,1007,1920,1080,8-30-2022,10-21-9,42,depth_duration_stimuli/000470_2014-06-09_19-42-40_260595134347_rgbf000094-resize_1/000470_2014-06-09_19-42-40_260595134347_rgbf000094-resize_1-target.png,125,1.831,1,2078,129,feet,jsons/VE125_randls_73_rotated.json,741213,1039121,34,Man
42,680693,DepthScenes,duration_manipulation_targetAtFixation,jsons/VE125_randls_73_rotated.json,http://54.235.29.9/FacialAge/BNav_EC2/DepthDuration/v2_depth_duration_MTurk/v2_DepthDuration_HTML.html#278,278,1920,1007,1920,1080,8-30-2022,10-21-9,43,depth_duration_stimuli/000734_2014-06-08_17-39-11_260595134347_rgbf000128-resize_2/000734_2014-06-08_17-39-11_260595134347_rgbf000128-resize_2-target.png,125,4.098,5,6249,125,feet,jsons/VE125_randls_73_rotated.json,741213,1039121,34,Man
43,680693,DepthScenes,duration_manipulation_targetAtFixation,jsons/VE125_randls_73_rotated.json,http://54.235.29.9/FacialAge/BNav_EC2/DepthDuration/v2_depth_duration_MTurk/v2_DepthDuration_HTML.html#278,278,1920,1007,1920,1080,8-30-2022,10-21-9,44,depth_duration_stimuli/000739_2014-06-08_18-45-58_260595134347_rgbf000068-resize_1/000739_2014-06-08_18-45-58_260595134347_rgbf000068-resize_1-target.png,125,3.534,4,8238,126,feet,jsons/VE125_randls_73_rotated.json,741213,1039121,34,Man
44,680693,DepthScenes,duration_manipulation_targetAtFixation,jsons/VE125_randls_73_rotated.json,http://54.235.29.9/FacialAge/BNav_EC2/DepthDuration/v2_depth_duration_MTurk/v2_DepthDuration_HTML.html#278,278,1920,1007,1920,1080,8-30-2022,10-21-9,45,depth_duration_stimuli/003010_2014-06-15_12-54-35_094959634447_rgbf000112-resize_0/003010_2014-06-15_12-54-35_094959634447_rgbf000112-resize_0-target.png,125,3.1185,6,3508,126,feet,jsons/VE125_randls_73_rotated.json,741213,1039121,34,Man
45,680693,DepthScenes,duration_manipulation_targetAtFixation,jsons/VE125_randls_73_rotated.json,http://54.235.29.9/FacialAge/BNav_EC2/DepthDuration/v2_depth_duration_MTurk/v2_DepthDuration_HTML.html#278,278,1920,1007,1920,1080,8-30-2022,10-21-9,46,depth_duration_stimuli/001810_2014-06-26_20-51-35_260595134347_rgbf000040-resize_3/001810_2014-06-26_20-51-35_260595134347_rgbf000040-resize_3-target.png,125,2.2525,2,2908,126,feet,jsons/VE125_randls_73_rotated.json,741213,1039121,34,Man
46,680693,DepthScenes,duration_manipulation_targetAtFixation,jsons/VE125_randls_73_rotated.json,http://54.235.29.9/FacialAge/BNav_EC2/DepthDuration/v2_depth_duration_MTurk/v2_DepthDuration_HTML.html#278,278,1920,1007,1920,1080,8-30-2022,10-21-9,47,depth_duration_stimuli/000866_2014-06-09_20-45-42_260595134347_rgbf000139-resize_1/000866_2014-06-09_20-45-42_260595134347_rgbf000139-resize_1-target.png,125,3.2155,4,3376,111,feet,jsons/VE125_randls_73_rotated.json,741213,1039121,34,Man
47,680693,DepthScenes,duration_manipulation_targetAtFixation,jsons/VE125_randls_73_rotated.json,http://54.235.29.9/FacialAge/BNav_EC2/DepthDuration/v2_depth_duration_MTurk/v2_DepthDuration_HTML.html#278,278,1920,1007,1920,1080,8-30-2022,10-21-9,48,depth_duration_stimuli/002989_2014-06-15_12-25-03_094959634447_rgbf000150-resize_3/002989_2014-06-15_12-25-03_094959634447_rgbf000150-resize_3-target.png,125,4.1975,6,3202,127,feet,jsons/VE125_randls_73_rotated.json,741213,1039121,34,Man
48,680693,DepthScenes,duration_manipulation_targetAtFixation,jsons/VE125_randls_73_rotated.json,http://54.235.29.9/FacialAge/BNav_EC2/DepthDuration/v2_depth_duration_MTurk/v2_DepthDuration_HTML.html#278,278,1920,1007,1920,1080,8-30-2022,10-21-9,49,depth_duration_stimuli/001170_2014-06-17_15-43-44_260595134347_rgbf000096-resize_6/001170_2014-06-17_15-43-44_260595134347_rgbf000096-resize-original.jpg,125,1.1909999999999998,0,2927,125,feet,jsons/VE125_randls_73_rotated.json,741213,1039121,34,Man
49,680693,DepthScenes,duration_manipulation_targetAtFixation,jsons/VE125_randls_73_rotated.json,http://54.235.29.9/FacialAge/BNav_EC2/DepthDuration/v2_depth_duration_MTurk/v2_DepthDuration_HTML.html#278,278,1920,1007,1920,1080,8-30-2022,10-21-9,50,depth_duration_stimuli/001571_2014-06-20_17-21-32_260595134347_rgbf000089-resize_1/001571_2014-06-20_17-21-32_260595134347_rgbf000089-resize_1-target.png,125,1.86,1,2812,112,feet,jsons/VE125_randls_73_rotated.json,741213,1039121,34,Man
50,680693,DepthScenes,duration_manipulation_targetAtFixation,jsons/VE125_randls_73_rotated.json,http://54.235.29.9/FacialAge/BNav_EC2/DepthDuration/v2_depth_duration_MTurk/v2_DepthDuration_HTML.html#278,278,1920,1007,1920,1080,8-30-2022,10-21-9,51,depth_duration_stimuli/002272_2014-06-28_18-53-56_260595134347_rgbf000067-resize_2/002272_2014-06-28_18-53-56_260595134347_rgbf000067-resize_2-target.png,125,1.138,1,2890,134,feet,jsons/VE125_randls_73_rotated.json,741213,1039121,34,Man
51,680693,DepthScenes,duration_manipulation_targetAtFixation,jsons/VE125_randls_73_rotated.json,http://54.235.29.9/FacialAge/BNav_EC2/DepthDuration/v2_depth_duration_MTurk/v2_DepthDuration_HTML.html#278,278,1920,1007,1920,1080,8-30-2022,10-21-9,52,depth_duration_stimuli/002637_2014-06-24_14-51-13_094959634447_rgbf000066-resize_4/002637_2014-06-24_14-51-13_094959634447_rgbf000066-resize_4-target.png,125,1.9955,3,3502,126,feet,jsons/VE125_randls_73_rotated.json,741213,1039121,34,Man
52,680693,DepthScenes,duration_manipulation_targetAtFixation,jsons/VE125_randls_73_rotated.json,http://54.235.29.9/FacialAge/BNav_EC2/DepthDuration/v2_depth_duration_MTurk/v2_DepthDuration_HTML.html#278,278,1920,1007,1920,1080,8-30-2022,10-21-9,53,depth_duration_stimuli/003534_2014-05-22_15-06-10_094959634447_rgbf000102-resize_4/003534_2014-05-22_15-06-10_094959634447_rgbf000102-resize_4-target.png,125,1.426,2,2308,124,feet,jsons/VE125_randls_73_rotated.json,741213,1039121,34,Man
53,680693,DepthScenes,duration_manipulation_targetAtFixation,jsons/VE125_randls_73_rotated.json,http://54.235.29.9/FacialAge/BNav_EC2/DepthDuration/v2_depth_duration_MTurk/v2_DepthDuration_HTML.html#278,278,1920,1007,1920,1080,8-30-2022,10-21-9,54,depth_duration_stimuli/002425_2014-06-28_20-27-29_260595134347_rgbf000031-resize_8/002425_2014-06-28_20-27-29_260595134347_rgbf000031-resize_8-target.png,125,3.8960000000000004,6,5186,128,feet,jsons/VE125_randls_73_rotated.json,741213,1039121,34,Man
54,680693,DepthScenes,duration_manipulation_targetAtFixation,jsons/VE125_randls_73_rotated.json,http://54.235.29.9/FacialAge/BNav_EC2/DepthDuration/v2_depth_duration_MTurk/v2_DepthDuration_HTML.html#278,278,1920,1007,1920,1080,8-30-2022,10-21-9,55,depth_duration_stimuli/000642_2014-06-08_16-59-25_260595134347_rgbf000098-resize_2/000642_2014-06-08_16-59-25_260595134347_rgbf000098-resize_2-target.png,125,2.8815,4,3574,125,feet,jsons/VE125_randls_73_rotated.json,741213,1039121,34,Man
55,680693,DepthScenes,duration_manipulation_targetAtFixation,jsons/VE125_randls_73_rotated.json,http://54.235.29.9/FacialAge/BNav_EC2/DepthDuration/v2_depth_duration_MTurk/v2_DepthDuration_HTML.html#278,278,1920,1007,1920,1080,8-30-2022,10-21-9,56,depth_duration_stimuli/001052_2014-06-08_18-24-54_260595134347_rgbf000130-resize_1/001052_2014-06-08_18-24-54_260595134347_rgbf000130-resize_1-target.png,125,4.1045,6,3595,125,feet,jsons/VE125_randls_73_rotated.json,741213,1039121,34,Man
56,680693,DepthScenes,duration_manipulation_targetAtFixation,jsons/VE125_randls_73_rotated.json,http://54.235.29.9/FacialAge/BNav_EC2/DepthDuration/v2_depth_duration_MTurk/v2_DepthDuration_HTML.html#278,278,1920,1007,1920,1080,8-30-2022,10-21-9,57,depth_duration_stimuli/002988_2014-06-15_12-24-20_094959634447_rgbf000150-resize_1/002988_2014-06-15_12-24-20_094959634447_rgbf000150-resize_1-target.png,125,4.7669999999999995,6,2580,125,feet,jsons/VE125_randls_73_rotated.json,741213,1039121,34,Man
57,680693,DepthScenes,duration_manipulation_targetAtFixation,jsons/VE125_randls_73_rotated.json,http://54.235.29.9/FacialAge/BNav_EC2/DepthDuration/v2_depth_duration_MTurk/v2_DepthDuration_HTML.html#278,278,1920,1007,1920,1080,8-30-2022,10-21-9,58,depth_duration_stimuli/003495_2014-05-21_16-01-51_094959634447_rgbf000100-resize_3/003495_2014-05-21_16-01-51_094959634447_rgbf000100-resize_3-target.png,125,1.6255,1,5029,130,feet,jsons/VE125_randls_73_rotated.json,741213,1039121,34,Man
58,680693,DepthScenes,duration_manipulation_targetAtFixation,jsons/VE125_randls_73_rotated.json,http://54.235.29.9/FacialAge/BNav_EC2/DepthDuration/v2_depth_duration_MTurk/v2_DepthDuration_HTML.html#278,278,1920,1007,1920,1080,8-30-2022,10-21-9,59,depth_duration_stimuli/001244_2014-06-17_16-47-45_260595134347_rgbf000030-resize_4/001244_2014-06-17_16-47-45_260595134347_rgbf000030-resize_4-target.png,125,2.0425,2,3028,125,feet,jsons/VE125_randls_73_rotated.json,741213,1039121,34,Man
59,680693,DepthScenes,duration_manipulation_targetAtFixation,jsons/VE125_randls_73_rotated.json,http://54.235.29.9/FacialAge/BNav_EC2/DepthDuration/v2_depth_duration_MTurk/v2_DepthDuration_HTML.html#278,278,1920,1007,1920,1080,8-30-2022,10-21-9,60,depth_duration_stimuli/003048_2014-06-15_13-49-43_094959634447_rgbf000150-resize_1/003048_2014-06-15_13-49-43_094959634447_rgbf000150-resize_1-target.png,125,4.0035,6,3310,128,feet,jsons/VE125_randls_73_rotated.json,741213,1039121,34,Man
60,680693,DepthScenes,duration_manipulation_targetAtFixation,jsons/VE125_randls_73_rotated.json,http://54.235.29.9/FacialAge/BNav_EC2/DepthDuration/v2_depth_duration_MTurk/v2_DepthDuration_HTML.html#278,278,1920,1007,1920,1080,8-30-2022,10-21-9,61,depth_duration_stimuli/002043_2014-06-24_20-29-38_260595134347_rgbf000039-resize_4/002043_2014-06-24_20-29-38_260595134347_rgbf000039-resize_4-target.png,125,2.8435,4,4359,125,feet,jsons/VE125_randls_73_rotated.json,741213,1039121,34,Man
61,680693,DepthScenes,duration_manipulation_targetAtFixation,jsons/VE125_randls_73_rotated.json,http://54.235.29.9/FacialAge/BNav_EC2/DepthDuration/v2_depth_duration_MTurk/v2_DepthDuration_HTML.html#278,278,1920,1007,1920,1080,8-30-2022,10-21-9,62,depth_duration_stimuli/001094_2014-06-15_17-36-00_260595134347_rgbf000205-resize_0/001094_2014-06-15_17-36-00_260595134347_rgbf000205-resize_0-target.png,125,4.2175,4,4349,130,feet,jsons/VE125_randls_73_rotated.json,741213,1039121,34,Man
62,680693,DepthScenes,duration_manipulation_targetAtFixation,jsons/VE125_randls_73_rotated.json,http://54.235.29.9/FacialAge/BNav_EC2/DepthDuration/v2_depth_duration_MTurk/v2_DepthDuration_HTML.html#278,278,1920,1007,1920,1080,8-30-2022,10-21-9,63,depth_duration_stimuli/000692_2014-06-08_13-09-42_260595134347_rgbf000199-resize_2/000692_2014-06-08_13-09-42_260595134347_rgbf000199-resize_2-target.png,125,3.661,8,4931,126,feet,jsons/VE125_randls_73_rotated.json,741213,1039121,34,Man
63,680693,DepthScenes,duration_manipulation_targetAtFixation,jsons/VE125_randls_73_rotated.json,http://54.235.29.9/FacialAge/BNav_EC2/DepthDuration/v2_depth_duration_MTurk/v2_DepthDuration_HTML.html#278,278,1920,1007,1920,1080,8-30-2022,10-21-9,64,depth_duration_stimuli/000780_2014-06-08_22-28-29_260595134347_rgbf000126-resize_1/000780_2014-06-08_22-28-29_260595134347_rgbf000126-resize_1-target.png,125,3.3825,6,5560,111,feet,jsons/VE125_randls_73_rotated.json,741213,1039121,34,Man
64,680693,DepthScenes,duration_manipulation_targetAtFixation,jsons/VE125_randls_73_rotated.json,http://54.235.29.9/FacialAge/BNav_EC2/DepthDuration/v2_depth_duration_MTurk/v2_DepthDuration_HTML.html#278,278,1920,1007,1920,1080,8-30-2022,10-21-9,65,depth_duration_stimuli/002445_2014-06-28_20-32-16_260595134347_rgbf000029-resize_4/002445_2014-06-28_20-32-16_260595134347_rgbf000029-resize_4-target.png,125,2.5315,3,3759,130,feet,jsons/VE125_randls_73_rotated.json,741213,1039121,34,Man
65,680693,DepthScenes,duration_manipulation_targetAtFixation,jsons/VE125_randls_73_rotated.json,http://54.235.29.9/FacialAge/BNav_EC2/DepthDuration/v2_depth_duration_MTurk/v2_DepthDuration_HTML.html#278,278,1920,1007,1920,1080,8-30-2022,10-21-9,66,depth_duration_stimuli/001540_2014-06-20_17-01-05_260595134347_rgbf000086-resize_2/001540_2014-06-20_17-01-05_260595134347_rgbf000086-resize-original.jpg,125,1.459,0,2698,125,feet,jsons/VE125_randls_73_rotated.json,741213,1039121,34,Man
66,680693,DepthScenes,duration_manipulation_targetAtFixation,jsons/VE125_randls_73_rotated.json,http://54.235.29.9/FacialAge/BNav_EC2/DepthDuration/v2_depth_duration_MTurk/v2_DepthDuration_HTML.html#278,278,1920,1007,1920,1080,8-30-2022,10-21-9,67,depth_duration_stimuli/002995_2014-06-15_12-31-26_094959634447_rgbf000150-resize_1/002995_2014-06-15_12-31-26_094959634447_rgbf000150-resize_1-target.png,125,3.8360000000000003,5,4035,125,feet,jsons/VE125_randls_73_rotated.json,741213,1039121,34,Man
67,680693,DepthScenes,duration_manipulation_targetAtFixation,jsons/VE125_randls_73_rotated.json,http://54.235.29.9/FacialAge/BNav_EC2/DepthDuration/v2_depth_duration_MTurk/v2_DepthDuration_HTML.html#278,278,1920,1007,1920,1080,8-30-2022,10-21-9,68,depth_duration_stimuli/002748_2014-06-22_19-07-22_094959634447_rgbf000078-resize_1/002748_2014-06-22_19-07-22_094959634447_rgbf000078-resize_1-target.png,125,4.6705,7,3644,125,feet,jsons/VE125_randls_73_rotated.json,741213,1039121,34,Man
68,680693,DepthScenes,duration_manipulation_targetAtFixation,jsons/VE125_randls_73_rotated.json,http://54.235.29.9/FacialAge/BNav_EC2/DepthDuration/v2_depth_duration_MTurk/v2_DepthDuration_HTML.html#278,278,1920,1007,1920,1080,8-30-2022,10-21-9,69,depth_duration_stimuli/001032_2014-06-08_13-23-17_260595134347_rgbf000021-resize_3/001032_2014-06-08_13-23-17_260595134347_rgbf000021-resize_3-target.png,125,3.2725,2,4508,127,feet,jsons/VE125_randls_73_rotated.json,741213,1039121,34,Man
69,680693,DepthScenes,duration_manipulation_targetAtFixation,jsons/VE125_randls_73_rotated.json,http://54.235.29.9/FacialAge/BNav_EC2/DepthDuration/v2_depth_duration_MTurk/v2_DepthDuration_HTML.html#278,278,1920,1007,1920,1080,8-30-2022,10-21-9,70,depth_duration_stimuli/001059_2014-06-08_21-53-27_260595134347_rgbf000061-resize_4/001059_2014-06-08_21-53-27_260595134347_rgbf000061-resize_4-target.png,125,2.4185,4,2973,130,feet,jsons/VE125_randls_73_rotated.json,741213,1039121,34,Man
70,680693,DepthScenes,duration_manipulation_targetAtFixation,jsons/VE125_randls_73_rotated.json,http://54.235.29.9/FacialAge/BNav_EC2/DepthDuration/v2_depth_duration_MTurk/v2_DepthDuration_HTML.html#278,278,1920,1007,1920,1080,8-30-2022,10-21-9,71,depth_duration_stimuli/000943_2014-06-09_19-31-07_260595134347_rgbf000128-resize_1/000943_2014-06-09_19-31-07_260595134347_rgbf000128-resize_1-target.png,125,1.9765,3,2828,125,feet,jsons/VE125_randls_73_rotated.json,741213,1039121,34,Man
71,680693,DepthScenes,duration_manipulation_targetAtFixation,jsons/VE125_randls_73_rotated.json,http://54.235.29.9/FacialAge/BNav_EC2/DepthDuration/v2_depth_duration_MTurk/v2_DepthDuration_HTML.html#278,278,1920,1007,1920,1080,8-30-2022,10-21-9,72,depth_duration_stimuli/003070_2014-06-15_14-58-27_094959634447_rgbf000150-resize_3/003070_2014-06-15_14-58-27_094959634447_rgbf000150-resize_3-target.png,125,2.9415,5,5238,128,feet,jsons/VE125_randls_73_rotated.json,741213,1039121,34,Man
72,680693,DepthScenes,duration_manipulation_targetAtFixation,jsons/VE125_randls_73_rotated.json,http://54.235.29.9/FacialAge/BNav_EC2/DepthDuration/v2_depth_duration_MTurk/v2_DepthDuration_HTML.html#278,278,1920,1007,1920,1080,8-30-2022,10-21-9,73,depth_duration_stimuli/000927_2014-06-09_16-32-30_260595134347_rgbf000123-resize_3/000927_2014-06-09_16-32-30_260595134347_rgbf000123-resize_3-target.png,125,2.6785,4,4282,126,feet,jsons/VE125_randls_73_rotated.json,741213,1039121,34,Man
73,680693,DepthScenes,duration_manipulation_targetAtFixation,jsons/VE125_randls_73_rotated.json,http://54.235.29.9/FacialAge/BNav_EC2/DepthDuration/v2_depth_duration_MTurk/v2_DepthDuration_HTML.html#278,278,1920,1007,1920,1080,8-30-2022,10-21-9,74,depth_duration_stimuli/001110_2014-06-15_17-25-28_260595134347_rgbf000150-resize_1/001110_2014-06-15_17-25-28_260595134347_rgbf000150-resize_1-target.png,125,1.7115,3,2381,137,feet,jsons/VE125_randls_73_rotated.json,741213,1039121,34,Man
74,680693,DepthScenes,duration_manipulation_targetAtFixation,jsons/VE125_randls_73_rotated.json,http://54.235.29.9/FacialAge/BNav_EC2/DepthDuration/v2_depth_duration_MTurk/v2_DepthDuration_HTML.html#278,278,1920,1007,1920,1080,8-30-2022,10-21-9,75,depth_duration_stimuli/003083_2014-06-15_15-21-03_094959634447_rgbf000063-resize_1/003083_2014-06-15_15-21-03_094959634447_rgbf000063-resize_1-target.png,125,4.1405,5,3566,126,feet,jsons/VE125_randls_73_rotated.json,741213,1039121,34,Man
75,680693,DepthScenes,duration_manipulation_targetAtFixation,jsons/VE125_randls_73_rotated.json,http://54.235.29.9/FacialAge/BNav_EC2/DepthDuration/v2_depth_duration_MTurk/v2_DepthDuration_HTML.html#278,278,1920,1007,1920,1080,8-30-2022,10-21-9,76,depth_duration_stimuli/000486_2014-06-09_20-47-20_260595134347_rgbf000143-resize_2/000486_2014-06-09_20-47-20_260595134347_rgbf000143-resize_2-target.png,125,4.8325,5,3508,126,feet,jsons/VE125_randls_73_rotated.json,741213,1039121,34,Man
76,680693,DepthScenes,duration_manipulation_targetAtFixation,jsons/VE125_randls_73_rotated.json,http://54.235.29.9/FacialAge/BNav_EC2/DepthDuration/v2_depth_duration_MTurk/v2_DepthDuration_HTML.html#278,278,1920,1007,1920,1080,8-30-2022,10-21-9,77,depth_duration_stimuli/002209_2014-06-28_18-36-10_260595134347_rgbf000051-resize_1/002209_2014-06-28_18-36-10_260595134347_rgbf000051-resize_1-target.png,125,2.057,2,3303,127,feet,jsons/VE125_randls_73_rotated.json,741213,1039121,34,Man
77,680693,DepthScenes,duration_manipulation_targetAtFixation,jsons/VE125_randls_73_rotated.json,http://54.235.29.9/FacialAge/BNav_EC2/DepthDuration/v2_depth_duration_MTurk/v2_DepthDuration_HTML.html#278,278,1920,1007,1920,1080,8-30-2022,10-21-9,78,depth_duration_stimuli/002763_2014-06-22_19-13-10_094959634447_rgbf000075-resize_4/002763_2014-06-22_19-13-10_094959634447_rgbf000075-resize_4-target.png,125,1.68375,3,2368,121,feet,jsons/VE125_randls_73_rotated.json,741213,1039121,34,Man
78,680693,DepthScenes,duration_manipulation_targetAtFixation,jsons/VE125_randls_73_rotated.json,http://54.235.29.9/FacialAge/BNav_EC2/DepthDuration/v2_depth_duration_MTurk/v2_DepthDuration_HTML.html#278,278,1920,1007,1920,1080,8-30-2022,10-21-9,79,depth_duration_stimuli/000691_2014-06-08_13-08-50_260595134347_rgbf000132-resize_3/000691_2014-06-08_13-08-50_260595134347_rgbf000132-resize_3-target.png,125,4.1530000000000005,6,6967,126,feet,jsons/VE125_randls_73_rotated.json,741213,1039121,34,Man
79,680693,DepthScenes,duration_manipulation_targetAtFixation,jsons/VE125_randls_73_rotated.json,http://54.235.29.9/FacialAge/BNav_EC2/DepthDuration/v2_depth_duration_MTurk/v2_DepthDuration_HTML.html#278,278,1920,1007,1920,1080,8-30-2022,10-21-9,80,depth_duration_stimuli/002213_2014-06-28_18-37-58_260595134347_rgbf000055-resize_1/002213_2014-06-28_18-37-58_260595134347_rgbf000055-resize_1-target.png,125,3.62,7,4117,132,feet,jsons/VE125_randls_73_rotated.json,741213,1039121,34,Man
80,680693,DepthScenes,duration_manipulation_targetAtFixation,jsons/VE125_randls_73_rotated.json,http://54.235.29.9/FacialAge/BNav_EC2/DepthDuration/v2_depth_duration_MTurk/v2_DepthDuration_HTML.html#278,278,1920,1007,1920,1080,8-30-2022,10-21-9,81,depth_duration_stimuli/003228_2014-05-14_13-42-35_094959634447_rgbf000101-resize_1/003228_2014-05-14_13-42-35_094959634447_rgbf000101-resize_1-target.png,125,1.9680000000000002,2,2592,125,feet,jsons/VE125_randls_73_rotated.json,741213,1039121,34,Man
81,680693,DepthScenes,duration_manipulation_targetAtFixation,jsons/VE125_randls_73_rotated.json,http://54.235.29.9/FacialAge/BNav_EC2/DepthDuration/v2_depth_duration_MTurk/v2_DepthDuration_HTML.html#278,278,1920,1007,1920,1080,8-30-2022,10-21-9,82,depth_duration_stimuli/002600_2014-06-24_14-27-04_094959634447_rgbf000074-resize_2/002600_2014-06-24_14-27-04_094959634447_rgbf000074-resize_2-target.png,125,2.7575,4,4662,126,feet,jsons/VE125_randls_73_rotated.json,741213,1039121,34,Man
82,680693,DepthScenes,duration_manipulation_targetAtFixation,jsons/VE125_randls_73_rotated.json,http://54.235.29.9/FacialAge/BNav_EC2/DepthDuration/v2_depth_duration_MTurk/v2_DepthDuration_HTML.html#278,278,1920,1007,1920,1080,8-30-2022,10-21-9,83,depth_duration_stimuli/000709_2014-06-08_13-51-55_260595134347_rgbf000068-resize_3/000709_2014-06-08_13-51-55_260595134347_rgbf000068-resize_3-target.png,125,1.8030000000000002,3,2899,130,feet,jsons/VE125_randls_73_rotated.json,741213,1039121,34,Man
83,680693,DepthScenes,duration_manipulation_targetAtFixation,jsons/VE125_randls_73_rotated.json,http://54.235.29.9/FacialAge/BNav_EC2/DepthDuration/v2_depth_duration_MTurk/v2_DepthDuration_HTML.html#278,278,1920,1007,1920,1080,8-30-2022,10-21-9,84,depth_duration_stimuli/002057_2014-06-24_21-00-13_260595134347_rgbf000120-resize_1/002057_2014-06-24_21-00-13_260595134347_rgbf000120-resize_1-target.png,125,2.967,7,3951,124,feet,jsons/VE125_randls_73_rotated.json,741213,1039121,34,Man
84,680693,DepthScenes,duration_manipulation_targetAtFixation,jsons/VE125_randls_73_rotated.json,http://54.235.29.9/FacialAge/BNav_EC2/DepthDuration/v2_depth_duration_MTurk/v2_DepthDuration_HTML.html#278,278,1920,1007,1920,1080,8-30-2022,10-21-9,85,depth_duration_stimuli/002414_2014-06-28_20-24-58_260595134347_rgbf000067-resize_4/002414_2014-06-28_20-24-58_260595134347_rgbf000067-resize_4-target.png,125,4.363,7,4293,125,feet,jsons/VE125_randls_73_rotated.json,741213,1039121,34,Man
85,680693,DepthScenes,duration_manipulation_targetAtFixation,jsons/VE125_randls_73_rotated.json,http://54.235.29.9/FacialAge/BNav_EC2/DepthDuration/v2_depth_duration_MTurk/v2_DepthDuration_HTML.html#278,278,1920,1007,1920,1080,8-30-2022,10-21-9,86,depth_duration_stimuli/000773_2014-06-08_22-24-54_260595134347_rgbf000093-resize_1/000773_2014-06-08_22-24-54_260595134347_rgbf000093-resize_1-target.png,125,4.973,6,5081,139,feet,jsons/VE125_randls_73_rotated.json,741213,1039121,34,Man
86,680693,DepthScenes,duration_manipulation_targetAtFixation,jsons/VE125_randls_73_rotated.json,http://54.235.29.9/FacialAge/BNav_EC2/DepthDuration/v2_depth_duration_MTurk/v2_DepthDuration_HTML.html#278,278,1920,1007,1920,1080,8-30-2022,10-21-9,87,depth_duration_stimuli/003129_2014-05-12_10-48-10_094959634447_rgbf000100-resize_0/003129_2014-05-12_10-48-10_094959634447_rgbf000100-resize_0-target.png,125,4.9305,6,9642,139,feet,jsons/VE125_randls_73_rotated.json,741213,1039121,34,Man
87,680693,DepthScenes,duration_manipulation_targetAtFixation,jsons/VE125_randls_73_rotated.json,http://54.235.29.9/FacialAge/BNav_EC2/DepthDuration/v2_depth_duration_MTurk/v2_DepthDuration_HTML.html#278,278,1920,1007,1920,1080,8-30-2022,10-21-9,88,depth_duration_stimuli/000414_2014-06-04_19-49-13_260595134347_rgbf000044-resize_0/000414_2014-06-04_19-49-13_260595134347_rgbf000044-resize_0-target.png,125,4.329,3,4723,110,feet,jsons/VE125_randls_73_rotated.json,741213,1039121,34,Man
88,680693,DepthScenes,duration_manipulation_targetAtFixation,jsons/VE125_randls_73_rotated.json,http://54.235.29.9/FacialAge/BNav_EC2/DepthDuration/v2_depth_duration_MTurk/v2_DepthDuration_HTML.html#278,278,1920,1007,1920,1080,8-30-2022,10-21-9,89,depth_duration_stimuli/000665_2014-06-09_20-42-35_260595134347_rgbf000110-resize_1/000665_2014-06-09_20-42-35_260595134347_rgbf000110-resize_1-target.png,125,3.057,4,3391,119,feet,jsons/VE125_randls_73_rotated.json,741213,1039121,34,Man
89,680693,DepthScenes,duration_manipulation_targetAtFixation,jsons/VE125_randls_73_rotated.json,http://54.235.29.9/FacialAge/BNav_EC2/DepthDuration/v2_depth_duration_MTurk/v2_DepthDuration_HTML.html#278,278,1920,1007,1920,1080,8-30-2022,10-21-9,90,depth_duration_stimuli/001150_2014-06-17_15-27-34_260595134347_rgbf000108-resize_2/001150_2014-06-17_15-27-34_260595134347_rgbf000108-resize_2-target.png,125,4.0325,5,3671,125,feet,jsons/VE125_randls_73_rotated.json,741213,1039121,34,Man
90,680693,DepthScenes,duration_manipulation_targetAtFixation,jsons/VE125_randls_73_rotated.json,http://54.235.29.9/FacialAge/BNav_EC2/DepthDuration/v2_depth_duration_MTurk/v2_DepthDuration_HTML.html#278,278,1920,1007,1920,1080,8-30-2022,10-21-9,91,depth_duration_stimuli/002136_2014-06-25_21-18-03_260595134347_rgbf000109-resize_3/002136_2014-06-25_21-18-03_260595134347_rgbf000109-resize_3-target.png,125,1.9569999999999999,2,2821,125,feet,jsons/VE125_randls_73_rotated.json,741213,1039121,34,Man
91,680693,DepthScenes,duration_manipulation_targetAtFixation,jsons/VE125_randls_73_rotated.json,http://54.235.29.9/FacialAge/BNav_EC2/DepthDuration/v2_depth_duration_MTurk/v2_DepthDuration_HTML.html#278,278,1920,1007,1920,1080,8-30-2022,10-21-9,92,depth_duration_stimuli/002964_2014-06-08_17-46-11_094959634447_rgbf000091-resize_4/002964_2014-06-08_17-46-11_094959634447_rgbf000091-resize_4-target.png,125,1.6909999999999998,2,3795,126,feet,jsons/VE125_randls_73_rotated.json,741213,1039121,34,Man
92,680693,DepthScenes,duration_manipulation_targetAtFixation,jsons/VE125_randls_73_rotated.json,http://54.235.29.9/FacialAge/BNav_EC2/DepthDuration/v2_depth_duration_MTurk/v2_DepthDuration_HTML.html#278,278,1920,1007,1920,1080,8-30-2022,10-21-9,93,depth_duration_stimuli/000483_2014-06-09_20-41-45_260595134347_rgbf000116-resize_4/000483_2014-06-09_20-41-45_260595134347_rgbf000116-resize_4-target.png,125,1.337,2,2436,126,feet,jsons/VE125_randls_73_rotated.json,741213,1039121,34,Man
93,680693,DepthScenes,duration_manipulation_targetAtFixation,jsons/VE125_randls_73_rotated.json,http://54.235.29.9/FacialAge/BNav_EC2/DepthDuration/v2_depth_duration_MTurk/v2_DepthDuration_HTML.html#278,278,1920,1007,1920,1080,8-30-2022,10-21-9,94,depth_duration_stimuli/000469_2014-06-09_19-42-10_260595134347_rgbf000081-resize_1/000469_2014-06-09_19-42-10_260595134347_rgbf000081-resize_1-target.png,125,1.652,3,3084,125,feet,jsons/VE125_randls_73_rotated.json,741213,1039121,34,Man
94,680693,DepthScenes,duration_manipulation_targetAtFixation,jsons/VE125_randls_73_rotated.json,http://54.235.29.9/FacialAge/BNav_EC2/DepthDuration/v2_depth_duration_MTurk/v2_DepthDuration_HTML.html#278,278,1920,1007,1920,1080,8-30-2022,10-21-9,95,depth_duration_stimuli/000502_2014-06-08_23-02-32_260595134347_rgbf000063-resize_4/000502_2014-06-08_23-02-32_260595134347_rgbf000063-resize_4-target.png,125,2.431,4,2810,124,feet,jsons/VE125_randls_73_rotated.json,741213,1039121,34,Man
95,680693,DepthScenes,duration_manipulation_targetAtFixation,jsons/VE125_randls_73_rotated.json,http://54.235.29.9/FacialAge/BNav_EC2/DepthDuration/v2_depth_duration_MTurk/v2_DepthDuration_HTML.html#278,278,1920,1007,1920,1080,8-30-2022,10-21-9,96,depth_duration_stimuli/001199_2014-06-17_16-03-48_260595134347_rgbf000077-resize_0/001199_2014-06-17_16-03-48_260595134347_rgbf000077-resize_0-target.png,125,3.4375,6,2516,125,feet,jsons/VE125_randls_73_rotated.json,741213,1039121,34,Man
96,680693,DepthScenes,duration_manipulation_targetAtFixation,jsons/VE125_randls_73_rotated.json,http://54.235.29.9/FacialAge/BNav_EC2/DepthDuration/v2_depth_duration_MTurk/v2_DepthDuration_HTML.html#278,278,1920,1007,1920,1080,8-30-2022,10-21-9,97,depth_duration_stimuli/001450_2014-06-19_17-02-03_260595134347_rgbf000203-resize_4/001450_2014-06-19_17-02-03_260595134347_rgbf000203-resize_4-target.png,125,4.0106666666667,7,3263,124,feet,jsons/VE125_randls_73_rotated.json,741213,1039121,34,Man
97,680693,DepthScenes,duration_manipulation_targetAtFixation,jsons/VE125_randls_73_rotated.json,http://54.235.29.9/FacialAge/BNav_EC2/DepthDuration/v2_depth_duration_MTurk/v2_DepthDuration_HTML.html#278,278,1920,1007,1920,1080,8-30-2022,10-21-9,98,depth_duration_stimuli/001449_2014-06-19_17-01-27_260595134347_rgbf000116-resize_2/001449_2014-06-19_17-01-27_260595134347_rgbf000116-resize_2-target.png,125,3.452,4,6024,127,feet,jsons/VE125_randls_73_rotated.json,741213,1039121,34,Man
98,680693,DepthScenes,duration_manipulation_targetAtFixation,jsons/VE125_randls_73_rotated.json,http://54.235.29.9/FacialAge/BNav_EC2/DepthDuration/v2_depth_duration_MTurk/v2_DepthDuration_HTML.html#278,278,1920,1007,1920,1080,8-30-2022,10-21-9,99,depth_duration_stimuli/001222_2014-06-17_16-24-06_260595134347_rgbf000073-resize_0/001222_2014-06-17_16-24-06_260595134347_rgbf000073-resize-original.jpg,125,1.4385,0,3288,119,feet,jsons/VE125_randls_73_rotated.json,741213,1039121,34,Man
99,680693,DepthScenes,duration_manipulation_targetAtFixation,jsons/VE125_randls_73_rotated.json,http://54.235.29.9/FacialAge/BNav_EC2/DepthDuration/v2_depth_duration_MTurk/v2_DepthDuration_HTML.html#278,278,1920,1007,1920,1080,8-30-2022,10-21-9,100,depth_duration_stimuli/002103_2014-06-25_20-00-40_260595134347_rgbf000049-resize_0/002103_2014-06-25_20-00-40_260595134347_rgbf000049-resize_0-target.png,125,4.105,4,3822,134,feet,jsons/VE125_randls_73_rotated.json,741213,1039121,34,Man
100,680693,DepthScenes,duration_manipulation_targetAtFixation,jsons/VE125_randls_73_rotated.json,http://54.235.29.9/FacialAge/BNav_EC2/DepthDuration/v2_depth_duration_MTurk/v2_DepthDuration_HTML.html#278,278,1920,1007,1920,1080,8-30-2022,10-21-9,101,depth_duration_stimuli/002039_2014-06-24_20-22-38_260595134347_rgbf000084-resize_1/002039_2014-06-24_20-22-38_260595134347_rgbf000084-resize_1-target.png,125,4.408,5,3860,128,feet,jsons/VE125_randls_73_rotated.json,741213,1039121,34,Man
101,680693,DepthScenes,duration_manipulation_targetAtFixation,jsons/VE125_randls_73_rotated.json,http://54.235.29.9/FacialAge/BNav_EC2/DepthDuration/v2_depth_duration_MTurk/v2_DepthDuration_HTML.html#278,278,1920,1007,1920,1080,8-30-2022,10-21-9,102,depth_duration_stimuli/000556_2014-06-09_22-42-56_260595134347_rgbf000214-resize_1/000556_2014-06-09_22-42-56_260595134347_rgbf000214-resize_1-target.png,125,4.8415,5,3263,134,feet,jsons/VE125_randls_73_rotated.json,741213,1039121,34,Man
102,680693,DepthScenes,duration_manipulation_targetAtFixation,jsons/VE125_randls_73_rotated.json,http://54.235.29.9/FacialAge/BNav_EC2/DepthDuration/v2_depth_duration_MTurk/v2_DepthDuration_HTML.html#278,278,1920,1007,1920,1080,8-30-2022,10-21-9,103,depth_duration_stimuli/001158_2014-06-17_15-32-16_260595134347_rgbf000138-resize_2/001158_2014-06-17_15-32-16_260595134347_rgbf000138-resize_2-target.png,125,4.5315,5,2599,124,feet,jsons/VE125_randls_73_rotated.json,741213,1039121,34,Man
103,680693,DepthScenes,duration_manipulation_targetAtFixation,jsons/VE125_randls_73_rotated.json,http://54.235.29.9/FacialAge/BNav_EC2/DepthDuration/v2_depth_duration_MTurk/v2_DepthDuration_HTML.html#278,278,1920,1007,1920,1080,8-30-2022,10-21-9,104,depth_duration_stimuli/001617_2014-06-20_11-35-32_260595134347_rgbf000066-resize_1/001617_2014-06-20_11-35-32_260595134347_rgbf000066-resize_1-target.png,125,3.7910000000000004,5,3174,128,feet,jsons/VE125_randls_73_rotated.json,741213,1039121,34,Man
104,680693,DepthScenes,duration_manipulation_targetAtFixation,jsons/VE125_randls_73_rotated.json,http://54.235.29.9/FacialAge/BNav_EC2/DepthDuration/v2_depth_duration_MTurk/v2_DepthDuration_HTML.html#278,278,1920,1007,1920,1080,8-30-2022,10-21-9,105,depth_duration_stimuli/001806_2014-06-26_20-50-20_260595134347_rgbf000091-resize_1/001806_2014-06-26_20-50-20_260595134347_rgbf000091-resize_1-target.png,125,2.7305,2,2663,129,feet,jsons/VE125_randls_73_rotated.json,741213,1039121,34,Man
105,680693,DepthScenes,duration_manipulation_targetAtFixation,jsons/VE125_randls_73_rotated.json,http://54.235.29.9/FacialAge/BNav_EC2/DepthDuration/v2_depth_duration_MTurk/v2_DepthDuration_HTML.html#278,278,1920,1007,1920,1080,8-30-2022,10-21-9,106,depth_duration_stimuli/001815_2014-06-26_20-52-55_260595134347_rgbf000020-resize_0/001815_2014-06-26_20-52-55_260595134347_rgbf000020-resize_0-target.png,125,3.3865,5,3231,140,feet,jsons/VE125_randls_73_rotated.json,741213,1039121,34,Man
106,680693,DepthScenes,duration_manipulation_targetAtFixation,jsons/VE125_randls_73_rotated.json,http://54.235.29.9/FacialAge/BNav_EC2/DepthDuration/v2_depth_duration_MTurk/v2_DepthDuration_HTML.html#278,278,1920,1007,1920,1080,8-30-2022,10-21-9,107,depth_duration_stimuli/001808_2014-06-26_20-50-58_260595134347_rgbf000029-resize_1/001808_2014-06-26_20-50-58_260595134347_rgbf000029-resize_1-target.png,125,4.249,5,2200,138,feet,jsons/VE125_randls_73_rotated.json,741213,1039121,34,Man
107,680693,DepthScenes,duration_manipulation_targetAtFixation,jsons/VE125_randls_73_rotated.json,http://54.235.29.9/FacialAge/BNav_EC2/DepthDuration/v2_depth_duration_MTurk/v2_DepthDuration_HTML.html#278,278,1920,1007,1920,1080,8-30-2022,10-21-9,108,depth_duration_stimuli/000677_2014-06-08_23-10-32_260595134347_rgbf000158-resize_6/000677_2014-06-08_23-10-32_260595134347_rgbf000158-resize_6-target.png,125,3.556,4,2436,124,feet,jsons/VE125_randls_73_rotated.json,741213,1039121,34,Man
108,680693,DepthScenes,duration_manipulation_targetAtFixation,jsons/VE125_randls_73_rotated.json,http://54.235.29.9/FacialAge/BNav_EC2/DepthDuration/v2_depth_duration_MTurk/v2_DepthDuration_HTML.html#278,278,1920,1007,1920,1080,8-30-2022,10-21-9,109,depth_duration_stimuli/001029_2014-06-08_13-17-57_260595134347_rgbf000065-resize_1/001029_2014-06-08_13-17-57_260595134347_rgbf000065-resize_1-target.png,125,3.0835,4,2555,123,feet,jsons/VE125_randls_73_rotated.json,741213,1039121,34,Man
109,680693,DepthScenes,duration_manipulation_targetAtFixation,jsons/VE125_randls_73_rotated.json,http://54.235.29.9/FacialAge/BNav_EC2/DepthDuration/v2_depth_duration_MTurk/v2_DepthDuration_HTML.html#278,278,1920,1007,1920,1080,8-30-2022,10-21-9,110,depth_duration_stimuli/002467_2014-06-28_20-38-07_260595134347_rgbf000026-resize_2/002467_2014-06-28_20-38-07_260595134347_rgbf000026-resize_2-target.png,125,4.742,6,2602,126,feet,jsons/VE125_randls_73_rotated.json,741213,1039121,34,Man
110,680693,DepthScenes,duration_manipulation_targetAtFixation,jsons/VE125_randls_73_rotated.json,http://54.235.29.9/FacialAge/BNav_EC2/DepthDuration/v2_depth_duration_MTurk/v2_DepthDuration_HTML.html#278,278,1920,1007,1920,1080,8-30-2022,10-21-9,111,depth_duration_stimuli/002570_2014-06-24_13-59-54_094959634447_rgbf000059-resize_0/002570_2014-06-24_13-59-54_094959634447_rgbf000059-resize_0-target.png,125,4.037,5,2818,130,feet,jsons/VE125_randls_73_rotated.json,741213,1039121,34,Man
111,680693,DepthScenes,duration_manipulation_targetAtFixation,jsons/VE125_randls_73_rotated.json,http://54.235.29.9/FacialAge/BNav_EC2/DepthDuration/v2_depth_duration_MTurk/v2_DepthDuration_HTML.html#278,278,1920,1007,1920,1080,8-30-2022,10-21-9,112,depth_duration_stimuli/002750_2014-06-22_19-08-03_094959634447_rgbf000094-resize_4/002750_2014-06-22_19-08-03_094959634447_rgbf000094-resize_4-target.png,125,2.354,3,2697,126,feet,jsons/VE125_randls_73_rotated.json,741213,1039121,34,Man
112,680693,DepthScenes,duration_manipulation_targetAtFixation,jsons/VE125_randls_73_rotated.json,http://54.235.29.9/FacialAge/BNav_EC2/DepthDuration/v2_depth_duration_MTurk/v2_DepthDuration_HTML.html#278,278,1920,1007,1920,1080,8-30-2022,10-21-9,113,depth_duration_stimuli/002549_2014-06-24_13-41-39_094959634447_rgbf000022-resize_3/002549_2014-06-24_13-41-39_094959634447_rgbf000022-resize_3-target.png,125,1.476,2,4099,136,feet,jsons/VE125_randls_73_rotated.json,741213,1039121,34,Man
113,680693,DepthScenes,duration_manipulation_targetAtFixation,jsons/VE125_randls_73_rotated.json,http://54.235.29.9/FacialAge/BNav_EC2/DepthDuration/v2_depth_duration_MTurk/v2_DepthDuration_HTML.html#278,278,1920,1007,1920,1080,8-30-2022,10-21-9,114,depth_duration_stimuli/001584_2014-06-20_11-07-43_260595134347_rgbf000002-resize_1/001584_2014-06-20_11-07-43_260595134347_rgbf000002-resize_1-target.png,125,3.53,4,2963,131,feet,jsons/VE125_randls_73_rotated.json,741213,1039121,34,Man
114,680693,DepthScenes,duration_manipulation_targetAtFixation,jsons/VE125_randls_73_rotated.json,http://54.235.29.9/FacialAge/BNav_EC2/DepthDuration/v2_depth_duration_MTurk/v2_DepthDuration_HTML.html#278,278,1920,1007,1920,1080,8-30-2022,10-21-9,115,depth_duration_stimuli/003621_2014-05-23_18-06-08_094959634447_rgbf000101-resize_1/003621_2014-05-23_18-06-08_094959634447_rgbf000101-resize_1-target.png,125,3.9835,5,2713,114,feet,jsons/VE125_randls_73_rotated.json,741213,1039121,34,Man
115,680693,DepthScenes,duration_manipulation_targetAtFixation,jsons/VE125_randls_73_rotated.json,http://54.235.29.9/FacialAge/BNav_EC2/DepthDuration/v2_depth_duration_MTurk/v2_DepthDuration_HTML.html#278,278,1920,1007,1920,1080,8-30-2022,10-21-9,116,depth_duration_stimuli/002340_2014-06-28_20-05-46_260595134347_rgbf000113-resize_0/002340_2014-06-28_20-05-46_260595134347_rgbf000113-resize_0-target.png,125,2.4735,6,2626,124,feet,jsons/VE125_randls_73_rotated.json,741213,1039121,34,Man
116,680693,DepthScenes,duration_manipulation_targetAtFixation,jsons/VE125_randls_73_rotated.json,http://54.235.29.9/FacialAge/BNav_EC2/DepthDuration/v2_depth_duration_MTurk/v2_DepthDuration_HTML.html#278,278,1920,1007,1920,1080,8-30-2022,10-21-9,117,depth_duration_stimuli/001016_2014-06-09_16-16-10_260595134347_rgbf000112-resize_5/001016_2014-06-09_16-16-10_260595134347_rgbf000112-resize_5-target.png,125,1.6565,3,2600,125,feet,jsons/VE125_randls_73_rotated.json,741213,1039121,34,Man
117,680693,DepthScenes,duration_manipulation_targetAtFixation,jsons/VE125_randls_73_rotated.json,http://54.235.29.9/FacialAge/BNav_EC2/DepthDuration/v2_depth_duration_MTurk/v2_DepthDuration_HTML.html#278,278,1920,1007,1920,1080,8-30-2022,10-21-9,118,depth_duration_stimuli/001100_2014-06-15_17-46-26_260595134347_rgbf000225-resize_2/001100_2014-06-15_17-46-26_260595134347_rgbf000225-resize_2-target.png,125,2.24,2,4378,125,feet,jsons/VE125_randls_73_rotated.json,741213,1039121,34,Man
118,680693,DepthScenes,duration_manipulation_targetAtFixation,jsons/VE125_randls_73_rotated.json,http://54.235.29.9/FacialAge/BNav_EC2/DepthDuration/v2_depth_duration_MTurk/v2_DepthDuration_HTML.html#278,278,1920,1007,1920,1080,8-30-2022,10-21-9,119,depth_duration_stimuli/002784_2014-06-22_19-26-30_094959634447_rgbf000083-resize_3/002784_2014-06-22_19-26-30_094959634447_rgbf000083-resize_3-target.png,125,1.8046666666667,3,2878,124,feet,jsons/VE125_randls_73_rotated.json,741213,1039121,34,Man
119,680693,DepthScenes,duration_manipulation_targetAtFixation,jsons/VE125_randls_73_rotated.json,http://54.235.29.9/FacialAge/BNav_EC2/DepthDuration/v2_depth_duration_MTurk/v2_DepthDuration_HTML.html#278,278,1920,1007,1920,1080,8-30-2022,10-21-9,120,depth_duration_stimuli/000787_2014-06-08_22-33-53_260595134347_rgbf000175-resize_1/000787_2014-06-08_22-33-53_260595134347_rgbf000175-resize-original.jpg,125,4.784,9,3092,126,feet,jsons/VE125_randls_73_rotated.json,741213,1039121,34,Man
120,680693,DepthScenes,duration_manipulation_targetAtFixation,jsons/VE125_randls_73_rotated.json,http://54.235.29.9/FacialAge/BNav_EC2/DepthDuration/v2_depth_duration_MTurk/v2_DepthDuration_HTML.html#278,278,1920,1007,1920,1080,8-30-2022,10-21-9,121,depth_duration_stimuli/002344_2014-06-28_20-06-29_260595134347_rgbf000030-resize_1/002344_2014-06-28_20-06-29_260595134347_rgbf000030-resize_1-target.png,125,1.5795,2,3294,123,feet,jsons/VE125_randls_73_rotated.json,741213,1039121,34,Man
121,680693,DepthScenes,duration_manipulation_targetAtFixation,jsons/VE125_randls_73_rotated.json,http://54.235.29.9/FacialAge/BNav_EC2/DepthDuration/v2_depth_duration_MTurk/v2_DepthDuration_HTML.html#278,278,1920,1007,1920,1080,8-30-2022,10-21-9,122,depth_duration_stimuli/002725_2014-06-22_11-47-51_094959634447_rgbf000070-resize_1/002725_2014-06-22_11-47-51_094959634447_rgbf000070-resize_1-target.png,125,2.195,5,3122,123,feet,jsons/VE125_randls_73_rotated.json,741213,1039121,34,Man
122,680693,DepthScenes,duration_manipulation_targetAtFixation,jsons/VE125_randls_73_rotated.json,http://54.235.29.9/FacialAge/BNav_EC2/DepthDuration/v2_depth_duration_MTurk/v2_DepthDuration_HTML.html#278,278,1920,1007,1920,1080,8-30-2022,10-21-9,123,depth_duration_stimuli/000549_2014-06-08_22-10-24_260595134347_rgbf000247-resize_3/000549_2014-06-08_22-10-24_260595134347_rgbf000247-resize_3-target.png,125,1.841,3,2688,130,feet,jsons/VE125_randls_73_rotated.json,741213,1039121,34,Man
123,680693,DepthScenes,duration_manipulation_targetAtFixation,jsons/VE125_randls_73_rotated.json,http://54.235.29.9/FacialAge/BNav_EC2/DepthDuration/v2_depth_duration_MTurk/v2_DepthDuration_HTML.html#278,278,1920,1007,1920,1080,8-30-2022,10-21-9,124,depth_duration_stimuli/001055_2014-06-08_18-45-35_260595134347_rgbf000111-resize_4/001055_2014-06-08_18-45-35_260595134347_rgbf000111-resize_4-target.png,125,2.4290000000000003,5,2893,124,feet,jsons/VE125_randls_73_rotated.json,741213,1039121,34,Man
124,680693,DepthScenes,duration_manipulation_targetAtFixation,jsons/VE125_randls_73_rotated.json,http://54.235.29.9/FacialAge/BNav_EC2/DepthDuration/v2_depth_duration_MTurk/v2_DepthDuration_HTML.html#278,278,1920,1007,1920,1080,8-30-2022,10-21-9,125,depth_duration_stimuli/002660_2014-06-13_15-44-18_094959634447_rgbf001878-resize_2/002660_2014-06-13_15-44-18_094959634447_rgbf001878-resize_2-target.png,125,3.576,5,3418,124,feet,jsons/VE125_randls_73_rotated.json,741213,1039121,34,Man
125,680693,DepthScenes,duration_manipulation_targetAtFixation,jsons/VE125_randls_73_rotated.json,http://54.235.29.9/FacialAge/BNav_EC2/DepthDuration/v2_depth_duration_MTurk/v2_DepthDuration_HTML.html#278,278,1920,1007,1920,1080,8-30-2022,10-21-9,126,depth_duration_stimuli/002153_2014-06-25_21-27-18_260595134347_rgbf000038-resize_5/002153_2014-06-25_21-27-18_260595134347_rgbf000038-resize_5-target.png,125,2.505,3,2992,126,feet,jsons/VE125_randls_73_rotated.json,741213,1039121,34,Man
126,680693,DepthScenes,duration_manipulation_targetAtFixation,jsons/VE125_randls_73_rotated.json,http://54.235.29.9/FacialAge/BNav_EC2/DepthDuration/v2_depth_duration_MTurk/v2_DepthDuration_HTML.html#278,278,1920,1007,1920,1080,8-30-2022,10-21-9,127,depth_duration_stimuli/000854_2014-06-09_19-43-13_260595134347_rgbf000066-resize_0/000854_2014-06-09_19-43-13_260595134347_rgbf000066-resize_0-target.png,125,3.068,3,4048,124,feet,jsons/VE125_randls_73_rotated.json,741213,1039121,34,Man
127,680693,DepthScenes,duration_manipulation_targetAtFixation,jsons/VE125_randls_73_rotated.json,http://54.235.29.9/FacialAge/BNav_EC2/DepthDuration/v2_depth_duration_MTurk/v2_DepthDuration_HTML.html#278,278,1920,1007,1920,1080,8-30-2022,10-21-9,128,depth_duration_stimuli/000758_2014-06-08_22-05-08_260595134347_rgbf000085-resize_0/000758_2014-06-08_22-05-08_260595134347_rgbf000085-resize_0-target.png,125,3.3810000000000002,0,3916,129,feet,jsons/VE125_randls_73_rotated.json,741213,1039121,34,Man
128,680693,DepthScenes,duration_manipulation_targetAtFixation,jsons/VE125_randls_73_rotated.json,http://54.235.29.9/FacialAge/BNav_EC2/DepthDuration/v2_depth_duration_MTurk/v2_DepthDuration_HTML.html#278,278,1920,1007,1920,1080,8-30-2022,10-21-9,129,depth_duration_stimuli/002953_2014-06-08_17-32-18_094959634447_rgbf000059-resize_5/002953_2014-06-08_17-32-18_094959634447_rgbf000059-resize_5-target.png,125,1.551,2,6159,126,feet,jsons/VE125_randls_73_rotated.json,741213,1039121,34,Man
129,680693,DepthScenes,duration_manipulation_targetAtFixation,jsons/VE125_randls_73_rotated.json,http://54.235.29.9/FacialAge/BNav_EC2/DepthDuration/v2_depth_duration_MTurk/v2_DepthDuration_HTML.html#278,278,1920,1007,1920,1080,8-30-2022,10-21-9,130,depth_duration_stimuli/000878_2014-06-08_22-52-45_260595134347_rgbf000045-resize_2/000878_2014-06-08_22-52-45_260595134347_rgbf000045-resize_2-target.png,125,2.092,3,5617,126,feet,jsons/VE125_randls_73_rotated.json,741213,1039121,34,Man
130,680693,DepthScenes,duration_manipulation_targetAtFixation,jsons/VE125_randls_73_rotated.json,http://54.235.29.9/FacialAge/BNav_EC2/DepthDuration/v2_depth_duration_MTurk/v2_DepthDuration_HTML.html#278,278,1920,1007,1920,1080,8-30-2022,10-21-9,131,depth_duration_stimuli/002323_2014-06-28_20-01-54_260595134347_rgbf000051-resize_4/002323_2014-06-28_20-01-54_260595134347_rgbf000051-resize_4-target.png,125,3.7310000000000003,4,3161,126,feet,jsons/VE125_randls_73_rotated.json,741213,1039121,34,Man
131,680693,DepthScenes,duration_manipulation_targetAtFixation,jsons/VE125_randls_73_rotated.json,http://54.235.29.9/FacialAge/BNav_EC2/DepthDuration/v2_depth_duration_MTurk/v2_DepthDuration_HTML.html#278,278,1920,1007,1920,1080,8-30-2022,10-21-9,132,depth_duration_stimuli/000917_2014-06-09_22-45-29_260595134347_rgbf000149-resize_3/000917_2014-06-09_22-45-29_260595134347_rgbf000149-resize_3-target.png,125,4.1865,5,2980,127,feet,jsons/VE125_randls_73_rotated.json,741213,1039121,34,Man
132,680693,DepthScenes,duration_manipulation_targetAtFixation,jsons/VE125_randls_73_rotated.json,http://54.235.29.9/FacialAge/BNav_EC2/DepthDuration/v2_depth_duration_MTurk/v2_DepthDuration_HTML.html#278,278,1920,1007,1920,1080,8-30-2022,10-21-9,133,depth_duration_stimuli/000191_2014-05-12_17-07-38_260595134347_rgbf000199-resize_0/000191_2014-05-12_17-07-38_260595134347_rgbf000199-resize_0-target.png,125,3.7995,7,4539,128,feet,jsons/VE125_randls_73_rotated.json,741213,1039121,34,Man
133,680693,DepthScenes,duration_manipulation_targetAtFixation,jsons/VE125_randls_73_rotated.json,http://54.235.29.9/FacialAge/BNav_EC2/DepthDuration/v2_depth_duration_MTurk/v2_DepthDuration_HTML.html#278,278,1920,1007,1920,1080,8-30-2022,10-21-9,134,depth_duration_stimuli/000493_2014-06-09_21-01-18_260595134347_rgbf000196-resize_3/000493_2014-06-09_21-01-18_260595134347_rgbf000196-resize_3-target.png,125,3.44,5,3951,132,feet,jsons/VE125_randls_73_rotated.json,741213,1039121,34,Man
134,680693,DepthScenes,duration_manipulation_targetAtFixation,jsons/VE125_randls_73_rotated.json,http://54.235.29.9/FacialAge/BNav_EC2/DepthDuration/v2_depth_duration_MTurk/v2_DepthDuration_HTML.html#278,278,1920,1007,1920,1080,8-30-2022,10-21-9,135,depth_duration_stimuli/000375_2014-06-08_11-17-29_260595134347_rgbf000133-resize_2/000375_2014-06-08_11-17-29_260595134347_rgbf000133-resize-original.jpg,125,4.718,0,2772,119,feet,jsons/VE125_randls_73_rotated.json,741213,1039121,34,Man
135,680693,DepthScenes,duration_manipulation_targetAtFixation,jsons/VE125_randls_73_rotated.json,http://54.235.29.9/FacialAge/BNav_EC2/DepthDuration/v2_depth_duration_MTurk/v2_DepthDuration_HTML.html#278,278,1920,1007,1920,1080,8-30-2022,10-21-9,136,depth_duration_stimuli/002444_2014-06-28_20-32-08_260595134347_rgbf000027-resize_0/002444_2014-06-28_20-32-08_260595134347_rgbf000027-resize_0-target.png,125,4.388999999999999,4,5058,131,feet,jsons/VE125_randls_73_rotated.json,741213,1039121,34,Man
136,680693,DepthScenes,duration_manipulation_targetAtFixation,jsons/VE125_randls_73_rotated.json,http://54.235.29.9/FacialAge/BNav_EC2/DepthDuration/v2_depth_duration_MTurk/v2_DepthDuration_HTML.html#278,278,1920,1007,1920,1080,8-30-2022,10-21-9,137,depth_duration_stimuli/000436_2014-06-09_22-25-11_260595134347_rgbf000137-resize_1/000436_2014-06-09_22-25-11_260595134347_rgbf000137-resize_1-target.png,125,4.0705,7,6900,124,feet,jsons/VE125_randls_73_rotated.json,741213,1039121,34,Man
137,680693,DepthScenes,duration_manipulation_targetAtFixation,jsons/VE125_randls_73_rotated.json,http://54.235.29.9/FacialAge/BNav_EC2/DepthDuration/v2_depth_duration_MTurk/v2_DepthDuration_HTML.html#278,278,1920,1007,1920,1080,8-30-2022,10-21-9,138,depth_duration_stimuli/002805_2014-06-22_19-54-03_094959634447_rgbf000079-resize_1/002805_2014-06-22_19-54-03_094959634447_rgbf000079-resize_1-target.png,125,3.1439999999999997,5,3262,125,feet,jsons/VE125_randls_73_rotated.json,741213,1039121,34,Man
138,680693,DepthScenes,duration_manipulation_targetAtFixation,jsons/VE125_randls_73_rotated.json,http://54.235.29.9/FacialAge/BNav_EC2/DepthDuration/v2_depth_duration_MTurk/v2_DepthDuration_HTML.html#278,278,1920,1007,1920,1080,8-30-2022,10-21-9,139,depth_duration_stimuli/000906_2014-06-08_13-35-43_260595134347_rgbf000155-resize_1/000906_2014-06-08_13-35-43_260595134347_rgbf000155-resize_1-target.png,125,2.8489999999999998,6,5200,125,feet,jsons/VE125_randls_73_rotated.json,741213,1039121,34,Man
139,680693,DepthScenes,duration_manipulation_targetAtFixation,jsons/VE125_randls_73_rotated.json,http://54.235.29.9/FacialAge/BNav_EC2/DepthDuration/v2_depth_duration_MTurk/v2_DepthDuration_HTML.html#278,278,1920,1007,1920,1080,8-30-2022,10-21-9,140,depth_duration_stimuli/000635_2014-06-08_16-38-42_260595134347_rgbf000106-resize_1/000635_2014-06-08_16-38-42_260595134347_rgbf000106-resize_1-target.png,125,2.074,4,8402,124,feet,jsons/VE125_randls_73_rotated.json,741213,1039121,34,Man
140,680693,DepthScenes,duration_manipulation_targetAtFixation,jsons/VE125_randls_73_rotated.json,http://54.235.29.9/FacialAge/BNav_EC2/DepthDuration/v2_depth_duration_MTurk/v2_DepthDuration_HTML.html#278,278,1920,1007,1920,1080,8-30-2022,10-21-9,141,depth_duration_stimuli/002279_2014-06-28_18-55-32_260595134347_rgbf000040-resize_5/002279_2014-06-28_18-55-32_260595134347_rgbf000040-resize_5-target.png,125,1.5043333333333,2,3146,127,feet,jsons/VE125_randls_73_rotated.json,741213,1039121,34,Man
141,680693,DepthScenes,duration_manipulation_targetAtFixation,jsons/VE125_randls_73_rotated.json,http://54.235.29.9/FacialAge/BNav_EC2/DepthDuration/v2_depth_duration_MTurk/v2_DepthDuration_HTML.html#278,278,1920,1007,1920,1080,8-30-2022,10-21-9,142,depth_duration_stimuli/001447_2014-06-19_17-00-32_260595134347_rgbf000082-resize_5/001447_2014-06-19_17-00-32_260595134347_rgbf000082-resize_5-target.png,125,4.13775,3,2874,131,feet,jsons/VE125_randls_73_rotated.json,741213,1039121,34,Man
142,680693,DepthScenes,duration_manipulation_targetAtFixation,jsons/VE125_randls_73_rotated.json,http://54.235.29.9/FacialAge/BNav_EC2/DepthDuration/v2_depth_duration_MTurk/v2_DepthDuration_HTML.html#278,278,1920,1007,1920,1080,8-30-2022,10-21-9,143,depth_duration_stimuli/000447_2014-06-08_16-15-46_260595134347_rgbf000130-resize_1/000447_2014-06-08_16-15-46_260595134347_rgbf000130-resize_1-target.png,125,4.479,5,3962,132,feet,jsons/VE125_randls_73_rotated.json,741213,1039121,34,Man
143,680693,DepthScenes,duration_manipulation_targetAtFixation,jsons/VE125_randls_73_rotated.json,http://54.235.29.9/FacialAge/BNav_EC2/DepthDuration/v2_depth_duration_MTurk/v2_DepthDuration_HTML.html#278,278,1920,1007,1920,1080,8-30-2022,10-21-9,144,depth_duration_stimuli/000137_2014-05-20_17-04-49_260595134347_rgbf000120-resize_1/000137_2014-05-20_17-04-49_260595134347_rgbf000120-resize_1-target.png,125,3.786,3,2794,125,feet,jsons/VE125_randls_73_rotated.json,741213,1039121,34,Man
144,680693,DepthScenes,duration_manipulation_targetAtFixation,jsons/VE125_randls_73_rotated.json,http://54.235.29.9/FacialAge/BNav_EC2/DepthDuration/v2_depth_duration_MTurk/v2_DepthDuration_HTML.html#278,278,1920,1007,1920,1080,8-30-2022,10-21-9,145,depth_duration_stimuli/000736_2014-06-08_18-24-15_260595134347_rgbf000206-resize_3/000736_2014-06-08_18-24-15_260595134347_rgbf000206-resize_3-target.png,125,3.515,2,2744,125,feet,jsons/VE125_randls_73_rotated.json,741213,1039121,34,Man
145,680693,DepthScenes,duration_manipulation_targetAtFixation,jsons/VE125_randls_73_rotated.json,http://54.235.29.9/FacialAge/BNav_EC2/DepthDuration/v2_depth_duration_MTurk/v2_DepthDuration_HTML.html#278,278,1920,1007,1920,1080,8-30-2022,10-21-9,146,depth_duration_stimuli/000409_2014-06-04_19-23-33_260595134347_rgbf000067-resize_0/000409_2014-06-04_19-23-33_260595134347_rgbf000067-resize_0-target.png,125,3.7335,3,6778,125,feet,jsons/VE125_randls_73_rotated.json,741213,1039121,34,Man
146,680693,DepthScenes,duration_manipulation_targetAtFixation,jsons/VE125_randls_73_rotated.json,http://54.235.29.9/FacialAge/BNav_EC2/DepthDuration/v2_depth_duration_MTurk/v2_DepthDuration_HTML.html#278,278,1920,1007,1920,1080,8-30-2022,10-21-9,147,depth_duration_stimuli/002663_2014-06-13_15-50-26_094959634447_rgbf000075-resize_1/002663_2014-06-13_15-50-26_094959634447_rgbf000075-resize_1-target.png,125,4.7495,5,3836,126,feet,jsons/VE125_randls_73_rotated.json,741213,1039121,34,Man
147,680693,DepthScenes,duration_manipulation_targetAtFixation,jsons/VE125_randls_73_rotated.json,http://54.235.29.9/FacialAge/BNav_EC2/DepthDuration/v2_depth_duration_MTurk/v2_DepthDuration_HTML.html#278,278,1920,1007,1920,1080,8-30-2022,10-21-9,148,depth_duration_stimuli/001828_2014-06-26_21-40-03_260595134347_rgbf000024-resize_0/001828_2014-06-26_21-40-03_260595134347_rgbf000024-resize_0-target.png,125,4.8260000000000005,5,4637,125,feet,jsons/VE125_randls_73_rotated.json,741213,1039121,34,Man
148,680693,DepthScenes,duration_manipulation_targetAtFixation,jsons/VE125_randls_73_rotated.json,http://54.235.29.9/FacialAge/BNav_EC2/DepthDuration/v2_depth_duration_MTurk/v2_DepthDuration_HTML.html#278,278,1920,1007,1920,1080,8-30-2022,10-21-9,149,depth_duration_stimuli/000009_2014-05-26_14-32-05_260595134347_rgbf000034-resize_3/000009_2014-05-26_14-32-05_260595134347_rgbf000034-resize_3-target.png,125,3.8715,5,7624,124,feet,jsons/VE125_randls_73_rotated.json,741213,1039121,34,Man
149,680693,DepthScenes,duration_manipulation_targetAtFixation,jsons/VE125_randls_73_rotated.json,http://54.235.29.9/FacialAge/BNav_EC2/DepthDuration/v2_depth_duration_MTurk/v2_DepthDuration_HTML.html#278,278,1920,1007,1920,1080,8-30-2022,10-21-9,150,depth_duration_stimuli/002678_2014-06-13_16-15-32_094959634447_rgbf000151-resize_6/002678_2014-06-13_16-15-32_094959634447_rgbf000151-resize_6-target.png,125,2.1830000000000003,0,9671,125,feet,jsons/VE125_randls_73_rotated.json,741213,1039121,34,Man
150,680693,DepthScenes,duration_manipulation_targetAtFixation,jsons/VE125_randls_73_rotated.json,http://54.235.29.9/FacialAge/BNav_EC2/DepthDuration/v2_depth_duration_MTurk/v2_DepthDuration_HTML.html#278,278,1920,1007,1920,1080,8-30-2022,10-21-9,151,depth_duration_stimuli/000368_2014-06-09_15-53-01_260595134347_rgbf000155-resize_2/000368_2014-06-09_15-53-01_260595134347_rgbf000155-resize_2-target.png,125,2.4859999999999998,2,3900,132,feet,jsons/VE125_randls_73_rotated.json,741213,1039121,34,Man
151,680693,DepthScenes,duration_manipulation_targetAtFixation,jsons/VE125_randls_73_rotated.json,http://54.235.29.9/FacialAge/BNav_EC2/DepthDuration/v2_depth_duration_MTurk/v2_DepthDuration_HTML.html#278,278,1920,1007,1920,1080,8-30-2022,10-21-9,152,depth_duration_stimuli/000569_2014-06-09_22-51-47_260595134347_rgbf000141-resize_3/000569_2014-06-09_22-51-47_260595134347_rgbf000141-resize-original.jpg,125,4.512,0,3444,125,feet,jsons/VE125_randls_73_rotated.json,741213,1039121,34,Man
152,680693,DepthScenes,duration_manipulation_targetAtFixation,jsons/VE125_randls_73_rotated.json,http://54.235.29.9/FacialAge/BNav_EC2/DepthDuration/v2_depth_duration_MTurk/v2_DepthDuration_HTML.html#278,278,1920,1007,1920,1080,8-30-2022,10-21-9,153,depth_duration_stimuli/001650_2014-06-20_12-09-00_260595134347_rgbf000087-resize_3/001650_2014-06-20_12-09-00_260595134347_rgbf000087-resize_3-target.png,125,1.9505,3,3839,124,feet,jsons/VE125_randls_73_rotated.json,741213,1039121,34,Man
153,680693,DepthScenes,duration_manipulation_targetAtFixation,jsons/VE125_randls_73_rotated.json,http://54.235.29.9/FacialAge/BNav_EC2/DepthDuration/v2_depth_duration_MTurk/v2_DepthDuration_HTML.html#278,278,1920,1007,1920,1080,8-30-2022,10-21-9,154,depth_duration_stimuli/000682_2014-06-08_23-14-58_260595134347_rgbf000041-resize_5/000682_2014-06-08_23-14-58_260595134347_rgbf000041-resize_5-target.png,125,2.7239999999999998,2,3543,131,feet,jsons/VE125_randls_73_rotated.json,741213,1039121,34,Man
154,680693,DepthScenes,duration_manipulation_targetAtFixation,jsons/VE125_randls_73_rotated.json,http://54.235.29.9/FacialAge/BNav_EC2/DepthDuration/v2_depth_duration_MTurk/v2_DepthDuration_HTML.html#278,278,1920,1007,1920,1080,8-30-2022,10-21-9,155,depth_duration_stimuli/000103_2014-05-14_22-01-17_260595134347_rgbf000152-resize_5/000103_2014-05-14_22-01-17_260595134347_rgbf000152-resize_5-target.png,125,1.993,5,9622,125,feet,jsons/VE125_randls_73_rotated.json,741213,1039121,34,Man
155,680693,DepthScenes,duration_manipulation_targetAtFixation,jsons/VE125_randls_73_rotated.json,http://54.235.29.9/FacialAge/BNav_EC2/DepthDuration/v2_depth_duration_MTurk/v2_DepthDuration_HTML.html#278,278,1920,1007,1920,1080,8-30-2022,10-21-9,156,depth_duration_stimuli/001555_2014-06-20_17-12-10_260595134347_rgbf000065-resize_4/001555_2014-06-20_17-12-10_260595134347_rgbf000065-resize_4-target.png,125,1.633,2,5783,128,feet,jsons/VE125_randls_73_rotated.json,741213,1039121,34,Man
156,680693,DepthScenes,duration_manipulation_targetAtFixation,jsons/VE125_randls_73_rotated.json,http://54.235.29.9/FacialAge/BNav_EC2/DepthDuration/v2_depth_duration_MTurk/v2_DepthDuration_HTML.html#278,278,1920,1007,1920,1080,8-30-2022,10-21-9,157,depth_duration_stimuli/000742_2014-06-08_18-48-09_260595134347_rgbf000164-resize_4/000742_2014-06-08_18-48-09_260595134347_rgbf000164-resize_4-target.png,125,4.632,6,2854,140,feet,jsons/VE125_randls_73_rotated.json,741213,1039121,34,Man
157,680693,DepthScenes,duration_manipulation_targetAtFixation,jsons/VE125_randls_73_rotated.json,http://54.235.29.9/FacialAge/BNav_EC2/DepthDuration/v2_depth_duration_MTurk/v2_DepthDuration_HTML.html#278,278,1920,1007,1920,1080,8-30-2022,10-21-9,158,depth_duration_stimuli/001066_2014-06-08_22-03-20_260595134347_rgbf000066-resize_4/001066_2014-06-08_22-03-20_260595134347_rgbf000066-resize_4-target.png,125,4.2330000000000005,6,3686,126,feet,jsons/VE125_randls_73_rotated.json,741213,1039121,34,Man
158,680693,DepthScenes,duration_manipulation_targetAtFixation,jsons/VE125_randls_73_rotated.json,http://54.235.29.9/FacialAge/BNav_EC2/DepthDuration/v2_depth_duration_MTurk/v2_DepthDuration_HTML.html#278,278,1920,1007,1920,1080,8-30-2022,10-21-9,159,depth_duration_stimuli/002639_2014-06-24_14-51-37_094959634447_rgbf000074-resize_4/002639_2014-06-24_14-51-37_094959634447_rgbf000074-resize_4-target.png,125,4.0375,7,6481,124,feet,jsons/VE125_randls_73_rotated.json,741213,1039121,34,Man
159,680693,DepthScenes,duration_manipulation_targetAtFixation,jsons/VE125_randls_73_rotated.json,http://54.235.29.9/FacialAge/BNav_EC2/DepthDuration/v2_depth_duration_MTurk/v2_DepthDuration_HTML.html#278,278,1920,1007,1920,1080,8-30-2022,10-21-9,160,depth_duration_stimuli/003292_2014-05-14_21-53-49_094959634447_rgbf000100-resize_2/003292_2014-05-14_21-53-49_094959634447_rgbf000100-resize_2-target.png,125,3.4815,3,6504,128,feet,jsons/VE125_randls_73_rotated.json,741213,1039121,34,Man
160,680693,DepthScenes,duration_manipulation_targetAtFixation,jsons/VE125_randls_73_rotated.json,http://54.235.29.9/FacialAge/BNav_EC2/DepthDuration/v2_depth_duration_MTurk/v2_DepthDuration_HTML.html#278,278,1920,1007,1920,1080,8-30-2022,10-21-9,161,depth_duration_stimuli/001214_2014-06-17_16-13-55_260595134347_rgbf000111-resize_0/001214_2014-06-17_16-13-55_260595134347_rgbf000111-resize_0-target.png,125,2.6505,3,3071,120,feet,jsons/VE125_randls_73_rotated.json,741213,1039121,34,Man
161,680693,DepthScenes,duration_manipulation_targetAtFixation,jsons/VE125_randls_73_rotated.json,http://54.235.29.9/FacialAge/BNav_EC2/DepthDuration/v2_depth_duration_MTurk/v2_DepthDuration_HTML.html#278,278,1920,1007,1920,1080,8-30-2022,10-21-9,162,depth_duration_stimuli/000810_2014-06-08_17-20-01_260595134347_rgbf000105-resize_0/000810_2014-06-08_17-20-01_260595134347_rgbf000105-resize_0-target.png,125,1.4865,4,7077,127,feet,jsons/VE125_randls_73_rotated.json,741213,1039121,34,Man
162,680693,DepthScenes,duration_manipulation_targetAtFixation,jsons/VE125_randls_73_rotated.json,http://54.235.29.9/FacialAge/BNav_EC2/DepthDuration/v2_depth_duration_MTurk/v2_DepthDuration_HTML.html#278,278,1920,1007,1920,1080,8-30-2022,10-21-9,163,depth_duration_stimuli/002875_2014-06-01_15-19-00_094959634447_rgbf000151-resize_1/002875_2014-06-01_15-19-00_094959634447_rgbf000151-resize_1-target.png,125,1.9675,2,3350,126,feet,jsons/VE125_randls_73_rotated.json,741213,1039121,34,Man
163,680693,DepthScenes,duration_manipulation_targetAtFixation,jsons/VE125_randls_73_rotated.json,http://54.235.29.9/FacialAge/BNav_EC2/DepthDuration/v2_depth_duration_MTurk/v2_DepthDuration_HTML.html#278,278,1920,1007,1920,1080,8-30-2022,10-21-9,164,depth_duration_stimuli/001011_2014-06-08_23-18-54_260595134347_rgbf000044-resize_4/001011_2014-06-08_23-18-54_260595134347_rgbf000044-resize_4-target.png,125,2.4730000000000003,3,3205,125,feet,jsons/VE125_randls_73_rotated.json,741213,1039121,34,Man
