,subjID,experimentName,versionName,sequenceName,url,selected_row,windowWidth,windowHeight,screenWidth,screenHeight,startDate,startTime,trial,stimulus,duration,actual_depth,depth_estimate,trial_RT,log_sceneDuration,unitSelection,seq_filepath,experimentTime,totalTime,age,gender
0,681743,DepthScenes,duration_manipulation_targetAtFixation,jsons/VE125_randls_45_rotated.json,http://54.235.29.9/FacialAge/BNav_EC2/DepthDuration/v2_depth_duration_MTurk/v2_DepthDuration_HTML.html#294,294,1366,657,1366,768,8-30-2022,19-48-5,1,depth_duration_stimuli/000943_2014-06-09_19-31-07_260595134347_rgbf000128-resize_1/000943_2014-06-09_19-31-07_260595134347_rgbf000128-resize_1-target.png,125,1.9765,3,5438,119,feet,jsons/VE125_randls_45_rotated.json,504767,1470157,30,Woman
1,681743,DepthScenes,duration_manipulation_targetAtFixation,jsons/VE125_randls_45_rotated.json,http://54.235.29.9/FacialAge/BNav_EC2/DepthDuration/v2_depth_duration_MTurk/v2_DepthDuration_HTML.html#294,294,1366,657,1366,768,8-30-2022,19-48-5,2,depth_duration_stimuli/003070_2014-06-15_14-58-27_094959634447_rgbf000150-resize_3/003070_2014-06-15_14-58-27_094959634447_rgbf000150-resize_3-target.png,125,2.9415,3,5624,129,feet,jsons/VE125_randls_45_rotated.json,504767,1470157,30,Woman
2,681743,DepthScenes,duration_manipulation_targetAtFixation,jsons/VE125_randls_45_rotated.json,http://54.235.29.9/FacialAge/BNav_EC2/DepthDuration/v2_depth_duration_MTurk/v2_DepthDuration_HTML.html#294,294,1366,657,1366,768,8-30-2022,19-48-5,3,depth_duration_stimuli/001571_2014-06-20_17-21-32_260595134347_rgbf000089-resize_1/001571_2014-06-20_17-21-32_260595134347_rgbf000089-resize_1-target.png,125,1.86,2,8205,128,feet,jsons/VE125_randls_45_rotated.json,504767,1470157,30,Woman
3,681743,DepthScenes,duration_manipulation_targetAtFixation,jsons/VE125_randls_45_rotated.json,http://54.235.29.9/FacialAge/BNav_EC2/DepthDuration/v2_depth_duration_MTurk/v2_DepthDuration_HTML.html#294,294,1366,657,1366,768,8-30-2022,19-48-5,4,depth_duration_stimuli/002272_2014-06-28_18-53-56_260595134347_rgbf000067-resize_2/002272_2014-06-28_18-53-56_260595134347_rgbf000067-resize_2-target.png,125,1.138,4,4661,123,feet,jsons/VE125_randls_45_rotated.json,504767,1470157,30,Woman
4,681743,DepthScenes,duration_manipulation_targetAtFixation,jsons/VE125_randls_45_rotated.json,http://54.235.29.9/FacialAge/BNav_EC2/DepthDuration/v2_depth_duration_MTurk/v2_DepthDuration_HTML.html#294,294,1366,657,1366,768,8-30-2022,19-48-5,5,depth_duration_stimuli/002995_2014-06-15_12-31-26_094959634447_rgbf000150-resize_1/002995_2014-06-15_12-31-26_094959634447_rgbf000150-resize_1-target.png,125,3.8360000000000003,4,3938,118,feet,jsons/VE125_randls_45_rotated.json,504767,1470157,30,Woman
5,681743,DepthScenes,duration_manipulation_targetAtFixation,jsons/VE125_randls_45_rotated.json,http://54.235.29.9/FacialAge/BNav_EC2/DepthDuration/v2_depth_duration_MTurk/v2_DepthDuration_HTML.html#294,294,1366,657,1366,768,8-30-2022,19-48-5,6,depth_duration_stimuli/002748_2014-06-22_19-07-22_094959634447_rgbf000078-resize_1/002748_2014-06-22_19-07-22_094959634447_rgbf000078-resize_1-target.png,125,4.6705,3,4123,119,feet,jsons/VE125_randls_45_rotated.json,504767,1470157,30,Woman
6,681743,DepthScenes,duration_manipulation_targetAtFixation,jsons/VE125_randls_45_rotated.json,http://54.235.29.9/FacialAge/BNav_EC2/DepthDuration/v2_depth_duration_MTurk/v2_DepthDuration_HTML.html#294,294,1366,657,1366,768,8-30-2022,19-48-5,7,depth_duration_stimuli/000780_2014-06-08_22-28-29_260595134347_rgbf000126-resize_1/000780_2014-06-08_22-28-29_260595134347_rgbf000126-resize_1-target.png,125,3.3825,2,5017,131,feet,jsons/VE125_randls_45_rotated.json,504767,1470157,30,Woman
7,681743,DepthScenes,duration_manipulation_targetAtFixation,jsons/VE125_randls_45_rotated.json,http://54.235.29.9/FacialAge/BNav_EC2/DepthDuration/v2_depth_duration_MTurk/v2_DepthDuration_HTML.html#294,294,1366,657,1366,768,8-30-2022,19-48-5,8,depth_duration_stimuli/002445_2014-06-28_20-32-16_260595134347_rgbf000029-resize_4/002445_2014-06-28_20-32-16_260595134347_rgbf000029-resize_4-target.png,125,2.5315,4,5622,113,feet,jsons/VE125_randls_45_rotated.json,504767,1470157,30,Woman
8,681743,DepthScenes,duration_manipulation_targetAtFixation,jsons/VE125_randls_45_rotated.json,http://54.235.29.9/FacialAge/BNav_EC2/DepthDuration/v2_depth_duration_MTurk/v2_DepthDuration_HTML.html#294,294,1366,657,1366,768,8-30-2022,19-48-5,9,depth_duration_stimuli/001828_2014-06-26_21-40-03_260595134347_rgbf000024-resize_0/001828_2014-06-26_21-40-03_260595134347_rgbf000024-resize_0-target.png,125,4.8260000000000005,3,4386,125,feet,jsons/VE125_randls_45_rotated.json,504767,1470157,30,Woman
9,681743,DepthScenes,duration_manipulation_targetAtFixation,jsons/VE125_randls_45_rotated.json,http://54.235.29.9/FacialAge/BNav_EC2/DepthDuration/v2_depth_duration_MTurk/v2_DepthDuration_HTML.html#294,294,1366,657,1366,768,8-30-2022,19-48-5,10,depth_duration_stimuli/000009_2014-05-26_14-32-05_260595134347_rgbf000034-resize_3/000009_2014-05-26_14-32-05_260595134347_rgbf000034-resize_3-target.png,125,3.8715,4,5090,118,feet,jsons/VE125_randls_45_rotated.json,504767,1470157,30,Woman
10,681743,DepthScenes,duration_manipulation_targetAtFixation,jsons/VE125_randls_45_rotated.json,http://54.235.29.9/FacialAge/BNav_EC2/DepthDuration/v2_depth_duration_MTurk/v2_DepthDuration_HTML.html#294,294,1366,657,1366,768,8-30-2022,19-48-5,11,depth_duration_stimuli/001584_2014-06-20_11-07-43_260595134347_rgbf000002-resize_1/001584_2014-06-20_11-07-43_260595134347_rgbf000002-resize_1-target.png,125,3.53,2,5248,134,feet,jsons/VE125_randls_45_rotated.json,504767,1470157,30,Woman
11,681743,DepthScenes,duration_manipulation_targetAtFixation,jsons/VE125_randls_45_rotated.json,http://54.235.29.9/FacialAge/BNav_EC2/DepthDuration/v2_depth_duration_MTurk/v2_DepthDuration_HTML.html#294,294,1366,657,1366,768,8-30-2022,19-48-5,12,depth_duration_stimuli/003621_2014-05-23_18-06-08_094959634447_rgbf000101-resize_1/003621_2014-05-23_18-06-08_094959634447_rgbf000101-resize_1-target.png,125,3.9835,3,5731,124,feet,jsons/VE125_randls_45_rotated.json,504767,1470157,30,Woman
12,681743,DepthScenes,duration_manipulation_targetAtFixation,jsons/VE125_randls_45_rotated.json,http://54.235.29.9/FacialAge/BNav_EC2/DepthDuration/v2_depth_duration_MTurk/v2_DepthDuration_HTML.html#294,294,1366,657,1366,768,8-30-2022,19-48-5,13,depth_duration_stimuli/002678_2014-06-13_16-15-32_094959634447_rgbf000151-resize_6/002678_2014-06-13_16-15-32_094959634447_rgbf000151-resize_6-target.png,125,2.1830000000000003,2,6231,127,feet,jsons/VE125_randls_45_rotated.json,504767,1470157,30,Woman
13,681743,DepthScenes,duration_manipulation_targetAtFixation,jsons/VE125_randls_45_rotated.json,http://54.235.29.9/FacialAge/BNav_EC2/DepthDuration/v2_depth_duration_MTurk/v2_DepthDuration_HTML.html#294,294,1366,657,1366,768,8-30-2022,19-48-5,14,depth_duration_stimuli/000368_2014-06-09_15-53-01_260595134347_rgbf000155-resize_2/000368_2014-06-09_15-53-01_260595134347_rgbf000155-resize_2-target.png,125,2.4859999999999998,4,3968,129,feet,jsons/VE125_randls_45_rotated.json,504767,1470157,30,Woman
14,681743,DepthScenes,duration_manipulation_targetAtFixation,jsons/VE125_randls_45_rotated.json,http://54.235.29.9/FacialAge/BNav_EC2/DepthDuration/v2_depth_duration_MTurk/v2_DepthDuration_HTML.html#294,294,1366,657,1366,768,8-30-2022,19-48-5,15,depth_duration_stimuli/001136_2014-06-17_15-19-41_260595134347_rgbf000076-resize_3/001136_2014-06-17_15-19-41_260595134347_rgbf000076-resize_3-target.png,125,1.8655,4,3248,128,feet,jsons/VE125_randls_45_rotated.json,504767,1470157,30,Woman
15,681743,DepthScenes,duration_manipulation_targetAtFixation,jsons/VE125_randls_45_rotated.json,http://54.235.29.9/FacialAge/BNav_EC2/DepthDuration/v2_depth_duration_MTurk/v2_DepthDuration_HTML.html#294,294,1366,657,1366,768,8-30-2022,19-48-5,16,depth_duration_stimuli/001164_2014-06-17_15-35-46_260595134347_rgbf000085-resize_3/001164_2014-06-17_15-35-46_260595134347_rgbf000085-resize_3-target.png,125,2.354,4,3459,128,feet,jsons/VE125_randls_45_rotated.json,504767,1470157,30,Woman
16,681743,DepthScenes,duration_manipulation_targetAtFixation,jsons/VE125_randls_45_rotated.json,http://54.235.29.9/FacialAge/BNav_EC2/DepthDuration/v2_depth_duration_MTurk/v2_DepthDuration_HTML.html#294,294,1366,657,1366,768,8-30-2022,19-48-5,17,depth_duration_stimuli/003079_2014-06-15_15-18-20_094959634447_rgbf000152-resize_8/003079_2014-06-15_15-18-20_094959634447_rgbf000152-resize_8-target.png,125,2.8775,3,3207,119,feet,jsons/VE125_randls_45_rotated.json,504767,1470157,30,Woman
17,681743,DepthScenes,duration_manipulation_targetAtFixation,jsons/VE125_randls_45_rotated.json,http://54.235.29.9/FacialAge/BNav_EC2/DepthDuration/v2_depth_duration_MTurk/v2_DepthDuration_HTML.html#294,294,1366,657,1366,768,8-30-2022,19-48-5,18,depth_duration_stimuli/000506_2014-06-08_23-21-00_260595134347_rgbf000070-resize_7/000506_2014-06-08_23-21-00_260595134347_rgbf000070-resize_7-target.png,125,4.0585,3,4269,128,feet,jsons/VE125_randls_45_rotated.json,504767,1470157,30,Woman
18,681743,DepthScenes,duration_manipulation_targetAtFixation,jsons/VE125_randls_45_rotated.json,http://54.235.29.9/FacialAge/BNav_EC2/DepthDuration/v2_depth_duration_MTurk/v2_DepthDuration_HTML.html#294,294,1366,657,1366,768,8-30-2022,19-48-5,19,depth_duration_stimuli/001498_2014-06-19_17-45-14_260595134347_rgbf000129-resize_4/001498_2014-06-19_17-45-14_260595134347_rgbf000129-resize-original.jpg,125,1.4075,2,3041,128,feet,jsons/VE125_randls_45_rotated.json,504767,1470157,30,Woman
19,681743,DepthScenes,duration_manipulation_targetAtFixation,jsons/VE125_randls_45_rotated.json,http://54.235.29.9/FacialAge/BNav_EC2/DepthDuration/v2_depth_duration_MTurk/v2_DepthDuration_HTML.html#294,294,1366,657,1366,768,8-30-2022,19-48-5,20,depth_duration_stimuli/000742_2014-06-08_18-48-09_260595134347_rgbf000164-resize_4/000742_2014-06-08_18-48-09_260595134347_rgbf000164-resize_4-target.png,125,4.632,3,3618,123,feet,jsons/VE125_randls_45_rotated.json,504767,1470157,30,Woman
20,681743,DepthScenes,duration_manipulation_targetAtFixation,jsons/VE125_randls_45_rotated.json,http://54.235.29.9/FacialAge/BNav_EC2/DepthDuration/v2_depth_duration_MTurk/v2_DepthDuration_HTML.html#294,294,1366,657,1366,768,8-30-2022,19-48-5,21,depth_duration_stimuli/001066_2014-06-08_22-03-20_260595134347_rgbf000066-resize_4/001066_2014-06-08_22-03-20_260595134347_rgbf000066-resize_4-target.png,125,4.2330000000000005,3,2860,122,feet,jsons/VE125_randls_45_rotated.json,504767,1470157,30,Woman
21,681743,DepthScenes,duration_manipulation_targetAtFixation,jsons/VE125_randls_45_rotated.json,http://54.235.29.9/FacialAge/BNav_EC2/DepthDuration/v2_depth_duration_MTurk/v2_DepthDuration_HTML.html#294,294,1366,657,1366,768,8-30-2022,19-48-5,22,depth_duration_stimuli/000665_2014-06-09_20-42-35_260595134347_rgbf000110-resize_1/000665_2014-06-09_20-42-35_260595134347_rgbf000110-resize_1-target.png,125,3.057,4,3270,120,feet,jsons/VE125_randls_45_rotated.json,504767,1470157,30,Woman
22,681743,DepthScenes,duration_manipulation_targetAtFixation,jsons/VE125_randls_45_rotated.json,http://54.235.29.9/FacialAge/BNav_EC2/DepthDuration/v2_depth_duration_MTurk/v2_DepthDuration_HTML.html#294,294,1366,657,1366,768,8-30-2022,19-48-5,23,depth_duration_stimuli/001150_2014-06-17_15-27-34_260595134347_rgbf000108-resize_2/001150_2014-06-17_15-27-34_260595134347_rgbf000108-resize_2-target.png,125,4.0325,3,2694,118,feet,jsons/VE125_randls_45_rotated.json,504767,1470157,30,Woman
23,681743,DepthScenes,duration_manipulation_targetAtFixation,jsons/VE125_randls_45_rotated.json,http://54.235.29.9/FacialAge/BNav_EC2/DepthDuration/v2_depth_duration_MTurk/v2_DepthDuration_HTML.html#294,294,1366,657,1366,768,8-30-2022,19-48-5,24,depth_duration_stimuli/000866_2014-06-09_20-45-42_260595134347_rgbf000139-resize_1/000866_2014-06-09_20-45-42_260595134347_rgbf000139-resize_1-target.png,125,3.2155,3,4593,129,feet,jsons/VE125_randls_45_rotated.json,504767,1470157,30,Woman
24,681743,DepthScenes,duration_manipulation_targetAtFixation,jsons/VE125_randls_45_rotated.json,http://54.235.29.9/FacialAge/BNav_EC2/DepthDuration/v2_depth_duration_MTurk/v2_DepthDuration_HTML.html#294,294,1366,657,1366,768,8-30-2022,19-48-5,25,depth_duration_stimuli/002989_2014-06-15_12-25-03_094959634447_rgbf000150-resize_3/002989_2014-06-15_12-25-03_094959634447_rgbf000150-resize_3-target.png,125,4.1975,3,3509,125,feet,jsons/VE125_randls_45_rotated.json,504767,1470157,30,Woman
25,681743,DepthScenes,duration_manipulation_targetAtFixation,jsons/VE125_randls_45_rotated.json,http://54.235.29.9/FacialAge/BNav_EC2/DepthDuration/v2_depth_duration_MTurk/v2_DepthDuration_HTML.html#294,294,1366,657,1366,768,8-30-2022,19-48-5,26,depth_duration_stimuli/000677_2014-06-08_23-10-32_260595134347_rgbf000158-resize_6/000677_2014-06-08_23-10-32_260595134347_rgbf000158-resize_6-target.png,125,3.556,3,2919,124,feet,jsons/VE125_randls_45_rotated.json,504767,1470157,30,Woman
26,681743,DepthScenes,duration_manipulation_targetAtFixation,jsons/VE125_randls_45_rotated.json,http://54.235.29.9/FacialAge/BNav_EC2/DepthDuration/v2_depth_duration_MTurk/v2_DepthDuration_HTML.html#294,294,1366,657,1366,768,8-30-2022,19-48-5,27,depth_duration_stimuli/001029_2014-06-08_13-17-57_260595134347_rgbf000065-resize_1/001029_2014-06-08_13-17-57_260595134347_rgbf000065-resize_1-target.png,125,3.0835,2,2993,125,feet,jsons/VE125_randls_45_rotated.json,504767,1470157,30,Woman
27,681743,DepthScenes,duration_manipulation_targetAtFixation,jsons/VE125_randls_45_rotated.json,http://54.235.29.9/FacialAge/BNav_EC2/DepthDuration/v2_depth_duration_MTurk/v2_DepthDuration_HTML.html#294,294,1366,657,1366,768,8-30-2022,19-48-5,28,depth_duration_stimuli/003423_2014-05-21_10-23-26_094959634447_rgbf002665-resize_2/003423_2014-05-21_10-23-26_094959634447_rgbf002665-resize_2-target.png,125,3.2575,3,23558,116,feet,jsons/VE125_randls_45_rotated.json,504767,1470157,30,Woman
28,681743,DepthScenes,duration_manipulation_targetAtFixation,jsons/VE125_randls_45_rotated.json,http://54.235.29.9/FacialAge/BNav_EC2/DepthDuration/v2_depth_duration_MTurk/v2_DepthDuration_HTML.html#294,294,1366,657,1366,768,8-30-2022,19-48-5,29,depth_duration_stimuli/002905_2014-06-03_18-04-43_094959634447_rgbf000151-resize_2/002905_2014-06-03_18-04-43_094959634447_rgbf000151-resize_2-target.png,125,2.0295,5,2258,119,feet,jsons/VE125_randls_45_rotated.json,504767,1470157,30,Woman
29,681743,DepthScenes,duration_manipulation_targetAtFixation,jsons/VE125_randls_45_rotated.json,http://54.235.29.9/FacialAge/BNav_EC2/DepthDuration/v2_depth_duration_MTurk/v2_DepthDuration_HTML.html#294,294,1366,657,1366,768,8-30-2022,19-48-5,30,depth_duration_stimuli/002072_2014-06-24_21-48-06_260595134347_rgbf000115-resize_0/002072_2014-06-24_21-48-06_260595134347_rgbf000115-resize-original.jpg,125,4.702,0,2575,118,feet,jsons/VE125_randls_45_rotated.json,504767,1470157,30,Woman
30,681743,DepthScenes,duration_manipulation_targetAtFixation,jsons/VE125_randls_45_rotated.json,http://54.235.29.9/FacialAge/BNav_EC2/DepthDuration/v2_depth_duration_MTurk/v2_DepthDuration_HTML.html#294,294,1366,657,1366,768,8-30-2022,19-48-5,31,depth_duration_stimuli/002953_2014-06-08_17-32-18_094959634447_rgbf000059-resize_5/002953_2014-06-08_17-32-18_094959634447_rgbf000059-resize_5-target.png,125,1.551,52,1967,128,feet,jsons/VE125_randls_45_rotated.json,504767,1470157,30,Woman
31,681743,DepthScenes,duration_manipulation_targetAtFixation,jsons/VE125_randls_45_rotated.json,http://54.235.29.9/FacialAge/BNav_EC2/DepthDuration/v2_depth_duration_MTurk/v2_DepthDuration_HTML.html#294,294,1366,657,1366,768,8-30-2022,19-48-5,32,depth_duration_stimuli/000878_2014-06-08_22-52-45_260595134347_rgbf000045-resize_2/000878_2014-06-08_22-52-45_260595134347_rgbf000045-resize_2-target.png,125,2.092,2,4761,128,feet,jsons/VE125_randls_45_rotated.json,504767,1470157,30,Woman
32,681743,DepthScenes,duration_manipulation_targetAtFixation,jsons/VE125_randls_45_rotated.json,http://54.235.29.9/FacialAge/BNav_EC2/DepthDuration/v2_depth_duration_MTurk/v2_DepthDuration_HTML.html#294,294,1366,657,1366,768,8-30-2022,19-48-5,33,depth_duration_stimuli/001094_2014-06-15_17-36-00_260595134347_rgbf000205-resize_0/001094_2014-06-15_17-36-00_260595134347_rgbf000205-resize_0-target.png,125,4.2175,3,2125,129,feet,jsons/VE125_randls_45_rotated.json,504767,1470157,30,Woman
33,681743,DepthScenes,duration_manipulation_targetAtFixation,jsons/VE125_randls_45_rotated.json,http://54.235.29.9/FacialAge/BNav_EC2/DepthDuration/v2_depth_duration_MTurk/v2_DepthDuration_HTML.html#294,294,1366,657,1366,768,8-30-2022,19-48-5,34,depth_duration_stimuli/000692_2014-06-08_13-09-42_260595134347_rgbf000199-resize_2/000692_2014-06-08_13-09-42_260595134347_rgbf000199-resize_2-target.png,125,3.661,5,2015,125,feet,jsons/VE125_randls_45_rotated.json,504767,1470157,30,Woman
34,681743,DepthScenes,duration_manipulation_targetAtFixation,jsons/VE125_randls_45_rotated.json,http://54.235.29.9/FacialAge/BNav_EC2/DepthDuration/v2_depth_duration_MTurk/v2_DepthDuration_HTML.html#294,294,1366,657,1366,768,8-30-2022,19-48-5,35,depth_duration_stimuli/002545_2014-06-24_13-38-53_094959634447_rgbf000080-resize_4/002545_2014-06-24_13-38-53_094959634447_rgbf000080-resize_4-target.png,125,1.9205,3,2024,132,feet,jsons/VE125_randls_45_rotated.json,504767,1470157,30,Woman
35,681743,DepthScenes,duration_manipulation_targetAtFixation,jsons/VE125_randls_45_rotated.json,http://54.235.29.9/FacialAge/BNav_EC2/DepthDuration/v2_depth_duration_MTurk/v2_DepthDuration_HTML.html#294,294,1366,657,1366,768,8-30-2022,19-48-5,36,depth_duration_stimuli/001092_2014-06-15_17-34-58_260595134347_rgbf000171-resize_3/001092_2014-06-15_17-34-58_260595134347_rgbf000171-resize_3-target.png,125,2.6935,4,2044,117,feet,jsons/VE125_randls_45_rotated.json,504767,1470157,30,Woman
36,681743,DepthScenes,duration_manipulation_targetAtFixation,jsons/VE125_randls_45_rotated.json,http://54.235.29.9/FacialAge/BNav_EC2/DepthDuration/v2_depth_duration_MTurk/v2_DepthDuration_HTML.html#294,294,1366,657,1366,768,8-30-2022,19-48-5,37,depth_duration_stimuli/001447_2014-06-19_17-00-32_260595134347_rgbf000082-resize_5/001447_2014-06-19_17-00-32_260595134347_rgbf000082-resize_5-target.png,125,4.13775,3,3111,129,feet,jsons/VE125_randls_45_rotated.json,504767,1470157,30,Woman
37,681743,DepthScenes,duration_manipulation_targetAtFixation,jsons/VE125_randls_45_rotated.json,http://54.235.29.9/FacialAge/BNav_EC2/DepthDuration/v2_depth_duration_MTurk/v2_DepthDuration_HTML.html#294,294,1366,657,1366,768,8-30-2022,19-48-5,38,depth_duration_stimuli/000447_2014-06-08_16-15-46_260595134347_rgbf000130-resize_1/000447_2014-06-08_16-15-46_260595134347_rgbf000130-resize_1-target.png,125,4.479,3,1863,120,feet,jsons/VE125_randls_45_rotated.json,504767,1470157,30,Woman
38,681743,DepthScenes,duration_manipulation_targetAtFixation,jsons/VE125_randls_45_rotated.json,http://54.235.29.9/FacialAge/BNav_EC2/DepthDuration/v2_depth_duration_MTurk/v2_DepthDuration_HTML.html#294,294,1366,657,1366,768,8-30-2022,19-48-5,39,depth_duration_stimuli/002660_2014-06-13_15-44-18_094959634447_rgbf001878-resize_2/002660_2014-06-13_15-44-18_094959634447_rgbf001878-resize_2-target.png,125,3.576,5,3960,131,feet,jsons/VE125_randls_45_rotated.json,504767,1470157,30,Woman
39,681743,DepthScenes,duration_manipulation_targetAtFixation,jsons/VE125_randls_45_rotated.json,http://54.235.29.9/FacialAge/BNav_EC2/DepthDuration/v2_depth_duration_MTurk/v2_DepthDuration_HTML.html#294,294,1366,657,1366,768,8-30-2022,19-48-5,40,depth_duration_stimuli/002153_2014-06-25_21-27-18_260595134347_rgbf000038-resize_5/002153_2014-06-25_21-27-18_260595134347_rgbf000038-resize_5-target.png,125,2.505,3,1940,118,feet,jsons/VE125_randls_45_rotated.json,504767,1470157,30,Woman
40,681743,DepthScenes,duration_manipulation_targetAtFixation,jsons/VE125_randls_45_rotated.json,http://54.235.29.9/FacialAge/BNav_EC2/DepthDuration/v2_depth_duration_MTurk/v2_DepthDuration_HTML.html#294,294,1366,657,1366,768,8-30-2022,19-48-5,41,depth_duration_stimuli/000635_2014-06-08_16-38-42_260595134347_rgbf000106-resize_1/000635_2014-06-08_16-38-42_260595134347_rgbf000106-resize_1-target.png,125,2.074,3,3890,125,feet,jsons/VE125_randls_45_rotated.json,504767,1470157,30,Woman
41,681743,DepthScenes,duration_manipulation_targetAtFixation,jsons/VE125_randls_45_rotated.json,http://54.235.29.9/FacialAge/BNav_EC2/DepthDuration/v2_depth_duration_MTurk/v2_DepthDuration_HTML.html#294,294,1366,657,1366,768,8-30-2022,19-48-5,42,depth_duration_stimuli/002279_2014-06-28_18-55-32_260595134347_rgbf000040-resize_5/002279_2014-06-28_18-55-32_260595134347_rgbf000040-resize_5-target.png,125,1.5043333333333,3,3175,124,feet,jsons/VE125_randls_45_rotated.json,504767,1470157,30,Woman
42,681743,DepthScenes,duration_manipulation_targetAtFixation,jsons/VE125_randls_45_rotated.json,http://54.235.29.9/FacialAge/BNav_EC2/DepthDuration/v2_depth_duration_MTurk/v2_DepthDuration_HTML.html#294,294,1366,657,1366,768,8-30-2022,19-48-5,43,depth_duration_stimuli/003587_2014-05-23_16-48-02_094959634447_rgbf002384-resize_2/003587_2014-05-23_16-48-02_094959634447_rgbf002384-resize_2-target.png,125,1.357,4,1986,127,feet,jsons/VE125_randls_45_rotated.json,504767,1470157,30,Woman
43,681743,DepthScenes,duration_manipulation_targetAtFixation,jsons/VE125_randls_45_rotated.json,http://54.235.29.9/FacialAge/BNav_EC2/DepthDuration/v2_depth_duration_MTurk/v2_DepthDuration_HTML.html#294,294,1366,657,1366,768,8-30-2022,19-48-5,44,depth_duration_stimuli/001167_2014-06-17_15-38-07_260595134347_rgbf000108-resize_0/001167_2014-06-17_15-38-07_260595134347_rgbf000108-resize_0-target.png,125,1.8505,2,1803,124,feet,jsons/VE125_randls_45_rotated.json,504767,1470157,30,Woman
44,681743,DepthScenes,duration_manipulation_targetAtFixation,jsons/VE125_randls_45_rotated.json,http://54.235.29.9/FacialAge/BNav_EC2/DepthDuration/v2_depth_duration_MTurk/v2_DepthDuration_HTML.html#294,294,1366,657,1366,768,8-30-2022,19-48-5,45,depth_duration_stimuli/002199_2014-06-28_18-33-56_260595134347_rgbf000074-resize_0/002199_2014-06-28_18-33-56_260595134347_rgbf000074-resize_0-target.png,125,1.996,1,1867,116,feet,jsons/VE125_randls_45_rotated.json,504767,1470157,30,Woman
45,681743,DepthScenes,duration_manipulation_targetAtFixation,jsons/VE125_randls_45_rotated.json,http://54.235.29.9/FacialAge/BNav_EC2/DepthDuration/v2_depth_duration_MTurk/v2_DepthDuration_HTML.html#294,294,1366,657,1366,768,8-30-2022,19-48-5,46,depth_duration_stimuli/001056_2014-06-08_18-46-44_260595134347_rgbf000068-resize_0/001056_2014-06-08_18-46-44_260595134347_rgbf000068-resize_0-target.png,125,2.6625,2,1811,130,feet,jsons/VE125_randls_45_rotated.json,504767,1470157,30,Woman
46,681743,DepthScenes,duration_manipulation_targetAtFixation,jsons/VE125_randls_45_rotated.json,http://54.235.29.9/FacialAge/BNav_EC2/DepthDuration/v2_depth_duration_MTurk/v2_DepthDuration_HTML.html#294,294,1366,657,1366,768,8-30-2022,19-48-5,47,depth_duration_stimuli/002136_2014-06-25_21-18-03_260595134347_rgbf000109-resize_3/002136_2014-06-25_21-18-03_260595134347_rgbf000109-resize_3-target.png,125,1.9569999999999999,3,2283,128,feet,jsons/VE125_randls_45_rotated.json,504767,1470157,30,Woman
47,681743,DepthScenes,duration_manipulation_targetAtFixation,jsons/VE125_randls_45_rotated.json,http://54.235.29.9/FacialAge/BNav_EC2/DepthDuration/v2_depth_duration_MTurk/v2_DepthDuration_HTML.html#294,294,1366,657,1366,768,8-30-2022,19-48-5,48,depth_duration_stimuli/002964_2014-06-08_17-46-11_094959634447_rgbf000091-resize_4/002964_2014-06-08_17-46-11_094959634447_rgbf000091-resize_4-target.png,125,1.6909999999999998,4,1917,115,feet,jsons/VE125_randls_45_rotated.json,504767,1470157,30,Woman
48,681743,DepthScenes,duration_manipulation_targetAtFixation,jsons/VE125_randls_45_rotated.json,http://54.235.29.9/FacialAge/BNav_EC2/DepthDuration/v2_depth_duration_MTurk/v2_DepthDuration_HTML.html#294,294,1366,657,1366,768,8-30-2022,19-48-5,49,depth_duration_stimuli/001170_2014-06-17_15-43-44_260595134347_rgbf000096-resize_6/001170_2014-06-17_15-43-44_260595134347_rgbf000096-resize-original.jpg,125,1.1909999999999998,3,1842,116,feet,jsons/VE125_randls_45_rotated.json,504767,1470157,30,Woman
49,681743,DepthScenes,duration_manipulation_targetAtFixation,jsons/VE125_randls_45_rotated.json,http://54.235.29.9/FacialAge/BNav_EC2/DepthDuration/v2_depth_duration_MTurk/v2_DepthDuration_HTML.html#294,294,1366,657,1366,768,8-30-2022,19-48-5,50,depth_duration_stimuli/000483_2014-06-09_20-41-45_260595134347_rgbf000116-resize_4/000483_2014-06-09_20-41-45_260595134347_rgbf000116-resize_4-target.png,125,1.337,5,2019,116,feet,jsons/VE125_randls_45_rotated.json,504767,1470157,30,Woman
50,681743,DepthScenes,duration_manipulation_targetAtFixation,jsons/VE125_randls_45_rotated.json,http://54.235.29.9/FacialAge/BNav_EC2/DepthDuration/v2_depth_duration_MTurk/v2_DepthDuration_HTML.html#294,294,1366,657,1366,768,8-30-2022,19-48-5,51,depth_duration_stimuli/000469_2014-06-09_19-42-10_260595134347_rgbf000081-resize_1/000469_2014-06-09_19-42-10_260595134347_rgbf000081-resize_1-target.png,125,1.652,3,1848,119,feet,jsons/VE125_randls_45_rotated.json,504767,1470157,30,Woman
51,681743,DepthScenes,duration_manipulation_targetAtFixation,jsons/VE125_randls_45_rotated.json,http://54.235.29.9/FacialAge/BNav_EC2/DepthDuration/v2_depth_duration_MTurk/v2_DepthDuration_HTML.html#294,294,1366,657,1366,768,8-30-2022,19-48-5,52,depth_duration_stimuli/000549_2014-06-08_22-10-24_260595134347_rgbf000247-resize_3/000549_2014-06-08_22-10-24_260595134347_rgbf000247-resize_3-target.png,125,1.841,3,2628,109,feet,jsons/VE125_randls_45_rotated.json,504767,1470157,30,Woman
52,681743,DepthScenes,duration_manipulation_targetAtFixation,jsons/VE125_randls_45_rotated.json,http://54.235.29.9/FacialAge/BNav_EC2/DepthDuration/v2_depth_duration_MTurk/v2_DepthDuration_HTML.html#294,294,1366,657,1366,768,8-30-2022,19-48-5,53,depth_duration_stimuli/001055_2014-06-08_18-45-35_260595134347_rgbf000111-resize_4/001055_2014-06-08_18-45-35_260595134347_rgbf000111-resize_4-target.png,125,2.4290000000000003,5,2028,121,feet,jsons/VE125_randls_45_rotated.json,504767,1470157,30,Woman
53,681743,DepthScenes,duration_manipulation_targetAtFixation,jsons/VE125_randls_45_rotated.json,http://54.235.29.9/FacialAge/BNav_EC2/DepthDuration/v2_depth_duration_MTurk/v2_DepthDuration_HTML.html#294,294,1366,657,1366,768,8-30-2022,19-48-5,54,depth_duration_stimuli/002323_2014-06-28_20-01-54_260595134347_rgbf000051-resize_4/002323_2014-06-28_20-01-54_260595134347_rgbf000051-resize_4-target.png,125,3.7310000000000003,2,1732,129,feet,jsons/VE125_randls_45_rotated.json,504767,1470157,30,Woman
54,681743,DepthScenes,duration_manipulation_targetAtFixation,jsons/VE125_randls_45_rotated.json,http://54.235.29.9/FacialAge/BNav_EC2/DepthDuration/v2_depth_duration_MTurk/v2_DepthDuration_HTML.html#294,294,1366,657,1366,768,8-30-2022,19-48-5,55,depth_duration_stimuli/000917_2014-06-09_22-45-29_260595134347_rgbf000149-resize_3/000917_2014-06-09_22-45-29_260595134347_rgbf000149-resize_3-target.png,125,4.1865,5,1931,124,feet,jsons/VE125_randls_45_rotated.json,504767,1470157,30,Woman
55,681743,DepthScenes,duration_manipulation_targetAtFixation,jsons/VE125_randls_45_rotated.json,http://54.235.29.9/FacialAge/BNav_EC2/DepthDuration/v2_depth_duration_MTurk/v2_DepthDuration_HTML.html#294,294,1366,657,1366,768,8-30-2022,19-48-5,56,depth_duration_stimuli/002758_2014-06-22_19-11-20_094959634447_rgbf000128-resize_1/002758_2014-06-22_19-11-20_094959634447_rgbf000128-resize_1-target.png,125,2.555,5,1674,123,feet,jsons/VE125_randls_45_rotated.json,504767,1470157,30,Woman
56,681743,DepthScenes,duration_manipulation_targetAtFixation,jsons/VE125_randls_45_rotated.json,http://54.235.29.9/FacialAge/BNav_EC2/DepthDuration/v2_depth_duration_MTurk/v2_DepthDuration_HTML.html#294,294,1366,657,1366,768,8-30-2022,19-48-5,57,depth_duration_stimuli/002630_2014-06-24_14-47-50_094959634447_rgbf000055-resize_1/002630_2014-06-24_14-47-50_094959634447_rgbf000055-resize_1-target.png,125,3.0095,6,1813,126,feet,jsons/VE125_randls_45_rotated.json,504767,1470157,30,Woman
57,681743,DepthScenes,duration_manipulation_targetAtFixation,jsons/VE125_randls_45_rotated.json,http://54.235.29.9/FacialAge/BNav_EC2/DepthDuration/v2_depth_duration_MTurk/v2_DepthDuration_HTML.html#294,294,1366,657,1366,768,8-30-2022,19-48-5,58,depth_duration_stimuli/002340_2014-06-28_20-05-46_260595134347_rgbf000113-resize_0/002340_2014-06-28_20-05-46_260595134347_rgbf000113-resize_0-target.png,125,2.4735,6,1836,125,feet,jsons/VE125_randls_45_rotated.json,504767,1470157,30,Woman
58,681743,DepthScenes,duration_manipulation_targetAtFixation,jsons/VE125_randls_45_rotated.json,http://54.235.29.9/FacialAge/BNav_EC2/DepthDuration/v2_depth_duration_MTurk/v2_DepthDuration_HTML.html#294,294,1366,657,1366,768,8-30-2022,19-48-5,59,depth_duration_stimuli/001016_2014-06-09_16-16-10_260595134347_rgbf000112-resize_5/001016_2014-06-09_16-16-10_260595134347_rgbf000112-resize_5-target.png,125,1.6565,5,1717,131,feet,jsons/VE125_randls_45_rotated.json,504767,1470157,30,Woman
59,681743,DepthScenes,duration_manipulation_targetAtFixation,jsons/VE125_randls_45_rotated.json,http://54.235.29.9/FacialAge/BNav_EC2/DepthDuration/v2_depth_duration_MTurk/v2_DepthDuration_HTML.html#294,294,1366,657,1366,768,8-30-2022,19-48-5,60,depth_duration_stimuli/000502_2014-06-08_23-02-32_260595134347_rgbf000063-resize_4/000502_2014-06-08_23-02-32_260595134347_rgbf000063-resize_4-target.png,125,2.431,5,1571,116,feet,jsons/VE125_randls_45_rotated.json,504767,1470157,30,Woman
60,681743,DepthScenes,duration_manipulation_targetAtFixation,jsons/VE125_randls_45_rotated.json,http://54.235.29.9/FacialAge/BNav_EC2/DepthDuration/v2_depth_duration_MTurk/v2_DepthDuration_HTML.html#294,294,1366,657,1366,768,8-30-2022,19-48-5,61,depth_duration_stimuli/001199_2014-06-17_16-03-48_260595134347_rgbf000077-resize_0/001199_2014-06-17_16-03-48_260595134347_rgbf000077-resize_0-target.png,125,3.4375,6,2383,136,feet,jsons/VE125_randls_45_rotated.json,504767,1470157,30,Woman
61,681743,DepthScenes,duration_manipulation_targetAtFixation,jsons/VE125_randls_45_rotated.json,http://54.235.29.9/FacialAge/BNav_EC2/DepthDuration/v2_depth_duration_MTurk/v2_DepthDuration_HTML.html#294,294,1366,657,1366,768,8-30-2022,19-48-5,62,depth_duration_stimuli/003490_2014-05-21_15-50-11_094959634447_rgbf000101-resize_3/003490_2014-05-21_15-50-11_094959634447_rgbf000101-resize_3-target.png,125,3.6445,7,2473,129,feet,jsons/VE125_randls_45_rotated.json,504767,1470157,30,Woman
62,681743,DepthScenes,duration_manipulation_targetAtFixation,jsons/VE125_randls_45_rotated.json,http://54.235.29.9/FacialAge/BNav_EC2/DepthDuration/v2_depth_duration_MTurk/v2_DepthDuration_HTML.html#294,294,1366,657,1366,768,8-30-2022,19-48-5,63,depth_duration_stimuli/001175_2014-06-17_15-45-55_260595134347_rgbf000129-resize_4/001175_2014-06-17_15-45-55_260595134347_rgbf000129-resize_4-target.png,125,4.255,3,2119,129,feet,jsons/VE125_randls_45_rotated.json,504767,1470157,30,Woman
63,681743,DepthScenes,duration_manipulation_targetAtFixation,jsons/VE125_randls_45_rotated.json,http://54.235.29.9/FacialAge/BNav_EC2/DepthDuration/v2_depth_duration_MTurk/v2_DepthDuration_HTML.html#294,294,1366,657,1366,768,8-30-2022,19-48-5,64,depth_duration_stimuli/000191_2014-05-12_17-07-38_260595134347_rgbf000199-resize_0/000191_2014-05-12_17-07-38_260595134347_rgbf000199-resize_0-target.png,125,3.7995,7,1858,119,feet,jsons/VE125_randls_45_rotated.json,504767,1470157,30,Woman
64,681743,DepthScenes,duration_manipulation_targetAtFixation,jsons/VE125_randls_45_rotated.json,http://54.235.29.9/FacialAge/BNav_EC2/DepthDuration/v2_depth_duration_MTurk/v2_DepthDuration_HTML.html#294,294,1366,657,1366,768,8-30-2022,19-48-5,65,depth_duration_stimuli/000493_2014-06-09_21-01-18_260595134347_rgbf000196-resize_3/000493_2014-06-09_21-01-18_260595134347_rgbf000196-resize_3-target.png,125,3.44,6,2183,129,feet,jsons/VE125_randls_45_rotated.json,504767,1470157,30,Woman
65,681743,DepthScenes,duration_manipulation_targetAtFixation,jsons/VE125_randls_45_rotated.json,http://54.235.29.9/FacialAge/BNav_EC2/DepthDuration/v2_depth_duration_MTurk/v2_DepthDuration_HTML.html#294,294,1366,657,1366,768,8-30-2022,19-48-5,66,depth_duration_stimuli/001540_2014-06-20_17-01-05_260595134347_rgbf000086-resize_2/001540_2014-06-20_17-01-05_260595134347_rgbf000086-resize-original.jpg,125,1.459,0,2389,109,feet,jsons/VE125_randls_45_rotated.json,504767,1470157,30,Woman
66,681743,DepthScenes,duration_manipulation_targetAtFixation,jsons/VE125_randls_45_rotated.json,http://54.235.29.9/FacialAge/BNav_EC2/DepthDuration/v2_depth_duration_MTurk/v2_DepthDuration_HTML.html#294,294,1366,657,1366,768,8-30-2022,19-48-5,67,depth_duration_stimuli/001392_2014-06-19_16-07-59_260595134347_rgbf000046-resize_1/001392_2014-06-19_16-07-59_260595134347_rgbf000046-resize_1-target.png,125,4.135,6,2212,129,feet,jsons/VE125_randls_45_rotated.json,504767,1470157,30,Woman
67,681743,DepthScenes,duration_manipulation_targetAtFixation,jsons/VE125_randls_45_rotated.json,http://54.235.29.9/FacialAge/BNav_EC2/DepthDuration/v2_depth_duration_MTurk/v2_DepthDuration_HTML.html#294,294,1366,657,1366,768,8-30-2022,19-48-5,68,depth_duration_stimuli/001570_2014-06-20_17-21-09_260595134347_rgbf000135-resize_4/001570_2014-06-20_17-21-09_260595134347_rgbf000135-resize_4-target.png,125,4.467,5,1832,125,feet,jsons/VE125_randls_45_rotated.json,504767,1470157,30,Woman
68,681743,DepthScenes,duration_manipulation_targetAtFixation,jsons/VE125_randls_45_rotated.json,http://54.235.29.9/FacialAge/BNav_EC2/DepthDuration/v2_depth_duration_MTurk/v2_DepthDuration_HTML.html#294,294,1366,657,1366,768,8-30-2022,19-48-5,69,depth_duration_stimuli/000734_2014-06-08_17-39-11_260595134347_rgbf000128-resize_2/000734_2014-06-08_17-39-11_260595134347_rgbf000128-resize_2-target.png,125,4.098,6,1988,120,feet,jsons/VE125_randls_45_rotated.json,504767,1470157,30,Woman
69,681743,DepthScenes,duration_manipulation_targetAtFixation,jsons/VE125_randls_45_rotated.json,http://54.235.29.9/FacialAge/BNav_EC2/DepthDuration/v2_depth_duration_MTurk/v2_DepthDuration_HTML.html#294,294,1366,657,1366,768,8-30-2022,19-48-5,70,depth_duration_stimuli/000739_2014-06-08_18-45-58_260595134347_rgbf000068-resize_1/000739_2014-06-08_18-45-58_260595134347_rgbf000068-resize_1-target.png,125,3.534,5,2193,118,feet,jsons/VE125_randls_45_rotated.json,504767,1470157,30,Woman
70,681743,DepthScenes,duration_manipulation_targetAtFixation,jsons/VE125_randls_45_rotated.json,http://54.235.29.9/FacialAge/BNav_EC2/DepthDuration/v2_depth_duration_MTurk/v2_DepthDuration_HTML.html#294,294,1366,657,1366,768,8-30-2022,19-48-5,71,depth_duration_stimuli/003338_2014-05-20_11-01-23_094959634447_rgbf000051-resize_6/003338_2014-05-20_11-01-23_094959634447_rgbf000051-resize_6-target.png,125,1.693,3,2270,126,feet,jsons/VE125_randls_45_rotated.json,504767,1470157,30,Woman
71,681743,DepthScenes,duration_manipulation_targetAtFixation,jsons/VE125_randls_45_rotated.json,http://54.235.29.9/FacialAge/BNav_EC2/DepthDuration/v2_depth_duration_MTurk/v2_DepthDuration_HTML.html#294,294,1366,657,1366,768,8-30-2022,19-48-5,72,depth_duration_stimuli/002509_2014-06-24_13-19-22_094959634447_rgbf000077-resize_0/002509_2014-06-24_13-19-22_094959634447_rgbf000077-resize_0-target.png,125,1.3065,3,2294,130,feet,jsons/VE125_randls_45_rotated.json,504767,1470157,30,Woman
72,681743,DepthScenes,duration_manipulation_targetAtFixation,jsons/VE125_randls_45_rotated.json,http://54.235.29.9/FacialAge/BNav_EC2/DepthDuration/v2_depth_duration_MTurk/v2_DepthDuration_HTML.html#294,294,1366,657,1366,768,8-30-2022,19-48-5,73,depth_duration_stimuli/001100_2014-06-15_17-46-26_260595134347_rgbf000225-resize_2/001100_2014-06-15_17-46-26_260595134347_rgbf000225-resize_2-target.png,125,2.24,5,1798,119,feet,jsons/VE125_randls_45_rotated.json,504767,1470157,30,Woman
73,681743,DepthScenes,duration_manipulation_targetAtFixation,jsons/VE125_randls_45_rotated.json,http://54.235.29.9/FacialAge/BNav_EC2/DepthDuration/v2_depth_duration_MTurk/v2_DepthDuration_HTML.html#294,294,1366,657,1366,768,8-30-2022,19-48-5,74,depth_duration_stimuli/002784_2014-06-22_19-26-30_094959634447_rgbf000083-resize_3/002784_2014-06-22_19-26-30_094959634447_rgbf000083-resize_3-target.png,125,1.8046666666667,2,1776,118,feet,jsons/VE125_randls_45_rotated.json,504767,1470157,30,Woman
74,681743,DepthScenes,duration_manipulation_targetAtFixation,jsons/VE125_randls_45_rotated.json,http://54.235.29.9/FacialAge/BNav_EC2/DepthDuration/v2_depth_duration_MTurk/v2_DepthDuration_HTML.html#294,294,1366,657,1366,768,8-30-2022,19-48-5,75,depth_duration_stimuli/003010_2014-06-15_12-54-35_094959634447_rgbf000112-resize_0/003010_2014-06-15_12-54-35_094959634447_rgbf000112-resize_0-target.png,125,3.1185,8,2482,133,feet,jsons/VE125_randls_45_rotated.json,504767,1470157,30,Woman
75,681743,DepthScenes,duration_manipulation_targetAtFixation,jsons/VE125_randls_45_rotated.json,http://54.235.29.9/FacialAge/BNav_EC2/DepthDuration/v2_depth_duration_MTurk/v2_DepthDuration_HTML.html#294,294,1366,657,1366,768,8-30-2022,19-48-5,76,depth_duration_stimuli/001810_2014-06-26_20-51-35_260595134347_rgbf000040-resize_3/001810_2014-06-26_20-51-35_260595134347_rgbf000040-resize_3-target.png,125,2.2525,2,1914,128,feet,jsons/VE125_randls_45_rotated.json,504767,1470157,30,Woman
76,681743,DepthScenes,duration_manipulation_targetAtFixation,jsons/VE125_randls_45_rotated.json,http://54.235.29.9/FacialAge/BNav_EC2/DepthDuration/v2_depth_duration_MTurk/v2_DepthDuration_HTML.html#294,294,1366,657,1366,768,8-30-2022,19-48-5,77,depth_duration_stimuli/002657_2014-06-13_15-29-54_094959634447_rgbf000150-resize_1/002657_2014-06-13_15-29-54_094959634447_rgbf000150-resize_1-target.png,125,4.919,3,1853,129,feet,jsons/VE125_randls_45_rotated.json,504767,1470157,30,Woman
77,681743,DepthScenes,duration_manipulation_targetAtFixation,jsons/VE125_randls_45_rotated.json,http://54.235.29.9/FacialAge/BNav_EC2/DepthDuration/v2_depth_duration_MTurk/v2_DepthDuration_HTML.html#294,294,1366,657,1366,768,8-30-2022,19-48-5,78,depth_duration_stimuli/002375_2014-06-28_20-13-44_260595134347_rgbf000032-resize_1/002375_2014-06-28_20-13-44_260595134347_rgbf000032-resize_1-target.png,125,4.0175,4,1905,126,feet,jsons/VE125_randls_45_rotated.json,504767,1470157,30,Woman
78,681743,DepthScenes,duration_manipulation_targetAtFixation,jsons/VE125_randls_45_rotated.json,http://54.235.29.9/FacialAge/BNav_EC2/DepthDuration/v2_depth_duration_MTurk/v2_DepthDuration_HTML.html#294,294,1366,657,1366,768,8-30-2022,19-48-5,79,depth_duration_stimuli/003081_2014-06-15_15-19-16_094959634447_rgbf000150-resize_1/003081_2014-06-15_15-19-16_094959634447_rgbf000150-resize_1-target.png,125,3.9125,6,2533,130,feet,jsons/VE125_randls_45_rotated.json,504767,1470157,30,Woman
79,681743,DepthScenes,duration_manipulation_targetAtFixation,jsons/VE125_randls_45_rotated.json,http://54.235.29.9/FacialAge/BNav_EC2/DepthDuration/v2_depth_duration_MTurk/v2_DepthDuration_HTML.html#294,294,1366,657,1366,768,8-30-2022,19-48-5,80,depth_duration_stimuli/001417_2014-06-19_16-25-36_260595134347_rgbf000115-resize_5/001417_2014-06-19_16-25-36_260595134347_rgbf000115-resize_5-target.png,125,4.6255,5,3074,126,feet,jsons/VE125_randls_45_rotated.json,504767,1470157,30,Woman
80,681743,DepthScenes,duration_manipulation_targetAtFixation,jsons/VE125_randls_45_rotated.json,http://54.235.29.9/FacialAge/BNav_EC2/DepthDuration/v2_depth_duration_MTurk/v2_DepthDuration_HTML.html#294,294,1366,657,1366,768,8-30-2022,19-48-5,81,depth_duration_stimuli/000409_2014-06-04_19-23-33_260595134347_rgbf000067-resize_0/000409_2014-06-04_19-23-33_260595134347_rgbf000067-resize_0-target.png,125,3.7335,6,1933,129,feet,jsons/VE125_randls_45_rotated.json,504767,1470157,30,Woman
81,681743,DepthScenes,duration_manipulation_targetAtFixation,jsons/VE125_randls_45_rotated.json,http://54.235.29.9/FacialAge/BNav_EC2/DepthDuration/v2_depth_duration_MTurk/v2_DepthDuration_HTML.html#294,294,1366,657,1366,768,8-30-2022,19-48-5,82,depth_duration_stimuli/002663_2014-06-13_15-50-26_094959634447_rgbf000075-resize_1/002663_2014-06-13_15-50-26_094959634447_rgbf000075-resize_1-target.png,125,4.7495,4,2037,128,feet,jsons/VE125_randls_45_rotated.json,504767,1470157,30,Woman
82,681743,DepthScenes,duration_manipulation_targetAtFixation,jsons/VE125_randls_45_rotated.json,http://54.235.29.9/FacialAge/BNav_EC2/DepthDuration/v2_depth_duration_MTurk/v2_DepthDuration_HTML.html#294,294,1366,657,1366,768,8-30-2022,19-48-5,83,depth_duration_stimuli/000109_2014-05-14_23-41-52_260595134347_rgbf000035-resize_9/000109_2014-05-14_23-41-52_260595134347_rgbf000035-resize_9-target.png,125,1.3545,5,2142,121,feet,jsons/VE125_randls_45_rotated.json,504767,1470157,30,Woman
83,681743,DepthScenes,duration_manipulation_targetAtFixation,jsons/VE125_randls_45_rotated.json,http://54.235.29.9/FacialAge/BNav_EC2/DepthDuration/v2_depth_duration_MTurk/v2_DepthDuration_HTML.html#294,294,1366,657,1366,768,8-30-2022,19-48-5,84,depth_duration_stimuli/000470_2014-06-09_19-42-40_260595134347_rgbf000094-resize_1/000470_2014-06-09_19-42-40_260595134347_rgbf000094-resize_1-target.png,125,1.831,4,1837,127,feet,jsons/VE125_randls_45_rotated.json,504767,1470157,30,Woman
84,681743,DepthScenes,duration_manipulation_targetAtFixation,jsons/VE125_randls_45_rotated.json,http://54.235.29.9/FacialAge/BNav_EC2/DepthDuration/v2_depth_duration_MTurk/v2_DepthDuration_HTML.html#294,294,1366,657,1366,768,8-30-2022,19-48-5,85,depth_duration_stimuli/000854_2014-06-09_19-43-13_260595134347_rgbf000066-resize_0/000854_2014-06-09_19-43-13_260595134347_rgbf000066-resize_0-target.png,125,3.068,5,1903,128,feet,jsons/VE125_randls_45_rotated.json,504767,1470157,30,Woman
85,681743,DepthScenes,duration_manipulation_targetAtFixation,jsons/VE125_randls_45_rotated.json,http://54.235.29.9/FacialAge/BNav_EC2/DepthDuration/v2_depth_duration_MTurk/v2_DepthDuration_HTML.html#294,294,1366,657,1366,768,8-30-2022,19-48-5,86,depth_duration_stimuli/000758_2014-06-08_22-05-08_260595134347_rgbf000085-resize_0/000758_2014-06-08_22-05-08_260595134347_rgbf000085-resize_0-target.png,125,3.3810000000000002,6,1677,129,feet,jsons/VE125_randls_45_rotated.json,504767,1470157,30,Woman
86,681743,DepthScenes,duration_manipulation_targetAtFixation,jsons/VE125_randls_45_rotated.json,http://54.235.29.9/FacialAge/BNav_EC2/DepthDuration/v2_depth_duration_MTurk/v2_DepthDuration_HTML.html#294,294,1366,657,1366,768,8-30-2022,19-48-5,87,depth_duration_stimuli/002750_2014-06-22_19-08-03_094959634447_rgbf000094-resize_4/002750_2014-06-22_19-08-03_094959634447_rgbf000094-resize_4-target.png,125,2.354,5,2031,127,feet,jsons/VE125_randls_45_rotated.json,504767,1470157,30,Woman
87,681743,DepthScenes,duration_manipulation_targetAtFixation,jsons/VE125_randls_45_rotated.json,http://54.235.29.9/FacialAge/BNav_EC2/DepthDuration/v2_depth_duration_MTurk/v2_DepthDuration_HTML.html#294,294,1366,657,1366,768,8-30-2022,19-48-5,88,depth_duration_stimuli/002549_2014-06-24_13-41-39_094959634447_rgbf000022-resize_3/002549_2014-06-24_13-41-39_094959634447_rgbf000022-resize_3-target.png,125,1.476,6,2234,124,feet,jsons/VE125_randls_45_rotated.json,504767,1470157,30,Woman
88,681743,DepthScenes,duration_manipulation_targetAtFixation,jsons/VE125_randls_45_rotated.json,http://54.235.29.9/FacialAge/BNav_EC2/DepthDuration/v2_depth_duration_MTurk/v2_DepthDuration_HTML.html#294,294,1366,657,1366,768,8-30-2022,19-48-5,89,depth_duration_stimuli/002103_2014-06-25_20-00-40_260595134347_rgbf000049-resize_0/002103_2014-06-25_20-00-40_260595134347_rgbf000049-resize_0-target.png,125,4.105,5,2762,124,feet,jsons/VE125_randls_45_rotated.json,504767,1470157,30,Woman
89,681743,DepthScenes,duration_manipulation_targetAtFixation,jsons/VE125_randls_45_rotated.json,http://54.235.29.9/FacialAge/BNav_EC2/DepthDuration/v2_depth_duration_MTurk/v2_DepthDuration_HTML.html#294,294,1366,657,1366,768,8-30-2022,19-48-5,90,depth_duration_stimuli/002039_2014-06-24_20-22-38_260595134347_rgbf000084-resize_1/002039_2014-06-24_20-22-38_260595134347_rgbf000084-resize_1-target.png,125,4.408,5,1788,125,feet,jsons/VE125_randls_45_rotated.json,504767,1470157,30,Woman
90,681743,DepthScenes,duration_manipulation_targetAtFixation,jsons/VE125_randls_45_rotated.json,http://54.235.29.9/FacialAge/BNav_EC2/DepthDuration/v2_depth_duration_MTurk/v2_DepthDuration_HTML.html#294,294,1366,657,1366,768,8-30-2022,19-48-5,91,depth_duration_stimuli/002875_2014-06-01_15-19-00_094959634447_rgbf000151-resize_1/002875_2014-06-01_15-19-00_094959634447_rgbf000151-resize_1-target.png,125,1.9675,5,1777,124,feet,jsons/VE125_randls_45_rotated.json,504767,1470157,30,Woman
91,681743,DepthScenes,duration_manipulation_targetAtFixation,jsons/VE125_randls_45_rotated.json,http://54.235.29.9/FacialAge/BNav_EC2/DepthDuration/v2_depth_duration_MTurk/v2_DepthDuration_HTML.html#294,294,1366,657,1366,768,8-30-2022,19-48-5,92,depth_duration_stimuli/001011_2014-06-08_23-18-54_260595134347_rgbf000044-resize_4/001011_2014-06-08_23-18-54_260595134347_rgbf000044-resize_4-target.png,125,2.4730000000000003,3,3048,117,feet,jsons/VE125_randls_45_rotated.json,504767,1470157,30,Woman
92,681743,DepthScenes,duration_manipulation_targetAtFixation,jsons/VE125_randls_45_rotated.json,http://54.235.29.9/FacialAge/BNav_EC2/DepthDuration/v2_depth_duration_MTurk/v2_DepthDuration_HTML.html#294,294,1366,657,1366,768,8-30-2022,19-48-5,93,depth_duration_stimuli/001235_2014-06-17_16-37-36_260595134347_rgbf000084-resize_4/001235_2014-06-17_16-37-36_260595134347_rgbf000084-resize_4-target.png,125,3.6605,4,3349,117,feet,jsons/VE125_randls_45_rotated.json,504767,1470157,30,Woman
93,681743,DepthScenes,duration_manipulation_targetAtFixation,jsons/VE125_randls_45_rotated.json,http://54.235.29.9/FacialAge/BNav_EC2/DepthDuration/v2_depth_duration_MTurk/v2_DepthDuration_HTML.html#294,294,1366,657,1366,768,8-30-2022,19-48-5,94,depth_duration_stimuli/000788_2014-06-08_22-34-36_260595134347_rgbf000131-resize_1/000788_2014-06-08_22-34-36_260595134347_rgbf000131-resize_1-target.png,125,3.359,8,1908,115,feet,jsons/VE125_randls_45_rotated.json,504767,1470157,30,Woman
94,681743,DepthScenes,duration_manipulation_targetAtFixation,jsons/VE125_randls_45_rotated.json,http://54.235.29.9/FacialAge/BNav_EC2/DepthDuration/v2_depth_duration_MTurk/v2_DepthDuration_HTML.html#294,294,1366,657,1366,768,8-30-2022,19-48-5,95,depth_duration_stimuli/000457_2014-06-08_16-52-43_260595134347_rgbf000199-resize_1/000457_2014-06-08_16-52-43_260595134347_rgbf000199-resize_1-target.png,125,3.6489999999999996,4,1765,113,feet,jsons/VE125_randls_45_rotated.json,504767,1470157,30,Woman
95,681743,DepthScenes,duration_manipulation_targetAtFixation,jsons/VE125_randls_45_rotated.json,http://54.235.29.9/FacialAge/BNav_EC2/DepthDuration/v2_depth_duration_MTurk/v2_DepthDuration_HTML.html#294,294,1366,657,1366,768,8-30-2022,19-48-5,96,depth_duration_stimuli/000929_2014-06-09_16-33-19_260595134347_rgbf000139-resize_0/000929_2014-06-09_16-33-19_260595134347_rgbf000139-resize_0-target.png,125,2.8680000000000003,5,2135,120,feet,jsons/VE125_randls_45_rotated.json,504767,1470157,30,Woman
96,681743,DepthScenes,duration_manipulation_targetAtFixation,jsons/VE125_randls_45_rotated.json,http://54.235.29.9/FacialAge/BNav_EC2/DepthDuration/v2_depth_duration_MTurk/v2_DepthDuration_HTML.html#294,294,1366,657,1366,768,8-30-2022,19-48-5,97,depth_duration_stimuli/000691_2014-06-08_13-08-50_260595134347_rgbf000132-resize_3/000691_2014-06-08_13-08-50_260595134347_rgbf000132-resize_3-target.png,125,4.1530000000000005,5,1631,127,feet,jsons/VE125_randls_45_rotated.json,504767,1470157,30,Woman
97,681743,DepthScenes,duration_manipulation_targetAtFixation,jsons/VE125_randls_45_rotated.json,http://54.235.29.9/FacialAge/BNav_EC2/DepthDuration/v2_depth_duration_MTurk/v2_DepthDuration_HTML.html#294,294,1366,657,1366,768,8-30-2022,19-48-5,98,depth_duration_stimuli/002213_2014-06-28_18-37-58_260595134347_rgbf000055-resize_1/002213_2014-06-28_18-37-58_260595134347_rgbf000055-resize_1-target.png,125,3.62,8,1932,127,feet,jsons/VE125_randls_45_rotated.json,504767,1470157,30,Woman
98,681743,DepthScenes,duration_manipulation_targetAtFixation,jsons/VE125_randls_45_rotated.json,http://54.235.29.9/FacialAge/BNav_EC2/DepthDuration/v2_depth_duration_MTurk/v2_DepthDuration_HTML.html#294,294,1366,657,1366,768,8-30-2022,19-48-5,99,depth_duration_stimuli/001222_2014-06-17_16-24-06_260595134347_rgbf000073-resize_0/001222_2014-06-17_16-24-06_260595134347_rgbf000073-resize-original.jpg,125,1.4385,0,2093,122,feet,jsons/VE125_randls_45_rotated.json,504767,1470157,30,Woman
99,681743,DepthScenes,duration_manipulation_targetAtFixation,jsons/VE125_randls_45_rotated.json,http://54.235.29.9/FacialAge/BNav_EC2/DepthDuration/v2_depth_duration_MTurk/v2_DepthDuration_HTML.html#294,294,1366,657,1366,768,8-30-2022,19-48-5,100,depth_duration_stimuli/003048_2014-06-15_13-49-43_094959634447_rgbf000150-resize_1/003048_2014-06-15_13-49-43_094959634447_rgbf000150-resize_1-target.png,125,4.0035,5,1796,125,feet,jsons/VE125_randls_45_rotated.json,504767,1470157,30,Woman
100,681743,DepthScenes,duration_manipulation_targetAtFixation,jsons/VE125_randls_45_rotated.json,http://54.235.29.9/FacialAge/BNav_EC2/DepthDuration/v2_depth_duration_MTurk/v2_DepthDuration_HTML.html#294,294,1366,657,1366,768,8-30-2022,19-48-5,101,depth_duration_stimuli/002043_2014-06-24_20-29-38_260595134347_rgbf000039-resize_4/002043_2014-06-24_20-29-38_260595134347_rgbf000039-resize_4-target.png,125,2.8435,5,2253,118,feet,jsons/VE125_randls_45_rotated.json,504767,1470157,30,Woman
101,681743,DepthScenes,duration_manipulation_targetAtFixation,jsons/VE125_randls_45_rotated.json,http://54.235.29.9/FacialAge/BNav_EC2/DepthDuration/v2_depth_duration_MTurk/v2_DepthDuration_HTML.html#294,294,1366,657,1366,768,8-30-2022,19-48-5,102,depth_duration_stimuli/001132_2014-06-17_14-48-54_260595134347_rgbf000100-resize_2/001132_2014-06-17_14-48-54_260595134347_rgbf000100-resize_2-target.png,125,3.753,6,1550,126,feet,jsons/VE125_randls_45_rotated.json,504767,1470157,30,Woman
102,681743,DepthScenes,duration_manipulation_targetAtFixation,jsons/VE125_randls_45_rotated.json,http://54.235.29.9/FacialAge/BNav_EC2/DepthDuration/v2_depth_duration_MTurk/v2_DepthDuration_HTML.html#294,294,1366,657,1366,768,8-30-2022,19-48-5,103,depth_duration_stimuli/001133_2014-06-17_14-49-16_260595134347_rgbf000100-resize_0/001133_2014-06-17_14-49-16_260595134347_rgbf000100-resize_0-target.png,125,4.2115,6,1738,129,feet,jsons/VE125_randls_45_rotated.json,504767,1470157,30,Woman
103,681743,DepthScenes,duration_manipulation_targetAtFixation,jsons/VE125_randls_45_rotated.json,http://54.235.29.9/FacialAge/BNav_EC2/DepthDuration/v2_depth_duration_MTurk/v2_DepthDuration_HTML.html#294,294,1366,657,1366,768,8-30-2022,19-48-5,104,depth_duration_stimuli/001650_2014-06-20_12-09-00_260595134347_rgbf000087-resize_3/001650_2014-06-20_12-09-00_260595134347_rgbf000087-resize_3-target.png,125,1.9505,6,2324,124,feet,jsons/VE125_randls_45_rotated.json,504767,1470157,30,Woman
104,681743,DepthScenes,duration_manipulation_targetAtFixation,jsons/VE125_randls_45_rotated.json,http://54.235.29.9/FacialAge/BNav_EC2/DepthDuration/v2_depth_duration_MTurk/v2_DepthDuration_HTML.html#294,294,1366,657,1366,768,8-30-2022,19-48-5,105,depth_duration_stimuli/000682_2014-06-08_23-14-58_260595134347_rgbf000041-resize_5/000682_2014-06-08_23-14-58_260595134347_rgbf000041-resize_5-target.png,125,2.7239999999999998,5,1803,129,feet,jsons/VE125_randls_45_rotated.json,504767,1470157,30,Woman
105,681743,DepthScenes,duration_manipulation_targetAtFixation,jsons/VE125_randls_45_rotated.json,http://54.235.29.9/FacialAge/BNav_EC2/DepthDuration/v2_depth_duration_MTurk/v2_DepthDuration_HTML.html#294,294,1366,657,1366,768,8-30-2022,19-48-5,106,depth_duration_stimuli/001214_2014-06-17_16-13-55_260595134347_rgbf000111-resize_0/001214_2014-06-17_16-13-55_260595134347_rgbf000111-resize_0-target.png,125,2.6505,5,1877,129,feet,jsons/VE125_randls_45_rotated.json,504767,1470157,30,Woman
106,681743,DepthScenes,duration_manipulation_targetAtFixation,jsons/VE125_randls_45_rotated.json,http://54.235.29.9/FacialAge/BNav_EC2/DepthDuration/v2_depth_duration_MTurk/v2_DepthDuration_HTML.html#294,294,1366,657,1366,768,8-30-2022,19-48-5,107,depth_duration_stimuli/000810_2014-06-08_17-20-01_260595134347_rgbf000105-resize_0/000810_2014-06-08_17-20-01_260595134347_rgbf000105-resize_0-target.png,125,1.4865,3,1754,140,feet,jsons/VE125_randls_45_rotated.json,504767,1470157,30,Woman
107,681743,DepthScenes,duration_manipulation_targetAtFixation,jsons/VE125_randls_45_rotated.json,http://54.235.29.9/FacialAge/BNav_EC2/DepthDuration/v2_depth_duration_MTurk/v2_DepthDuration_HTML.html#294,294,1366,657,1366,768,8-30-2022,19-48-5,108,depth_duration_stimuli/002444_2014-06-28_20-32-08_260595134347_rgbf000027-resize_0/002444_2014-06-28_20-32-08_260595134347_rgbf000027-resize_0-target.png,125,4.388999999999999,6,2244,116,feet,jsons/VE125_randls_45_rotated.json,504767,1470157,30,Woman
108,681743,DepthScenes,duration_manipulation_targetAtFixation,jsons/VE125_randls_45_rotated.json,http://54.235.29.9/FacialAge/BNav_EC2/DepthDuration/v2_depth_duration_MTurk/v2_DepthDuration_HTML.html#294,294,1366,657,1366,768,8-30-2022,19-48-5,109,depth_duration_stimuli/000436_2014-06-09_22-25-11_260595134347_rgbf000137-resize_1/000436_2014-06-09_22-25-11_260595134347_rgbf000137-resize_1-target.png,125,4.0705,5,2120,115,feet,jsons/VE125_randls_45_rotated.json,504767,1470157,30,Woman
109,681743,DepthScenes,duration_manipulation_targetAtFixation,jsons/VE125_randls_45_rotated.json,http://54.235.29.9/FacialAge/BNav_EC2/DepthDuration/v2_depth_duration_MTurk/v2_DepthDuration_HTML.html#294,294,1366,657,1366,768,8-30-2022,19-48-5,110,depth_duration_stimuli/002209_2014-06-28_18-36-10_260595134347_rgbf000051-resize_1/002209_2014-06-28_18-36-10_260595134347_rgbf000051-resize_1-target.png,125,2.057,5,1777,123,feet,jsons/VE125_randls_45_rotated.json,504767,1470157,30,Woman
110,681743,DepthScenes,duration_manipulation_targetAtFixation,jsons/VE125_randls_45_rotated.json,http://54.235.29.9/FacialAge/BNav_EC2/DepthDuration/v2_depth_duration_MTurk/v2_DepthDuration_HTML.html#294,294,1366,657,1366,768,8-30-2022,19-48-5,111,depth_duration_stimuli/002763_2014-06-22_19-13-10_094959634447_rgbf000075-resize_4/002763_2014-06-22_19-13-10_094959634447_rgbf000075-resize_4-target.png,125,1.68375,5,1805,120,feet,jsons/VE125_randls_45_rotated.json,504767,1470157,30,Woman
111,681743,DepthScenes,duration_manipulation_targetAtFixation,jsons/VE125_randls_45_rotated.json,http://54.235.29.9/FacialAge/BNav_EC2/DepthDuration/v2_depth_duration_MTurk/v2_DepthDuration_HTML.html#294,294,1366,657,1366,768,8-30-2022,19-48-5,112,depth_duration_stimuli/000749_2014-06-08_21-55-06_260595134347_rgbf000070-resize_2/000749_2014-06-08_21-55-06_260595134347_rgbf000070-resize_2-target.png,125,2.331,6,2061,119,feet,jsons/VE125_randls_45_rotated.json,504767,1470157,30,Woman
112,681743,DepthScenes,duration_manipulation_targetAtFixation,jsons/VE125_randls_45_rotated.json,http://54.235.29.9/FacialAge/BNav_EC2/DepthDuration/v2_depth_duration_MTurk/v2_DepthDuration_HTML.html#294,294,1366,657,1366,768,8-30-2022,19-48-5,113,depth_duration_stimuli/002788_2014-06-22_19-36-03_094959634447_rgbf000088-resize_2/002788_2014-06-22_19-36-03_094959634447_rgbf000088-resize_2-target.png,125,1.6465,4,1945,125,feet,jsons/VE125_randls_45_rotated.json,504767,1470157,30,Woman
113,681743,DepthScenes,duration_manipulation_targetAtFixation,jsons/VE125_randls_45_rotated.json,http://54.235.29.9/FacialAge/BNav_EC2/DepthDuration/v2_depth_duration_MTurk/v2_DepthDuration_HTML.html#294,294,1366,657,1366,768,8-30-2022,19-48-5,114,depth_duration_stimuli/003495_2014-05-21_16-01-51_094959634447_rgbf000100-resize_3/003495_2014-05-21_16-01-51_094959634447_rgbf000100-resize_3-target.png,125,1.6255,5,1523,125,feet,jsons/VE125_randls_45_rotated.json,504767,1470157,30,Woman
114,681743,DepthScenes,duration_manipulation_targetAtFixation,jsons/VE125_randls_45_rotated.json,http://54.235.29.9/FacialAge/BNav_EC2/DepthDuration/v2_depth_duration_MTurk/v2_DepthDuration_HTML.html#294,294,1366,657,1366,768,8-30-2022,19-48-5,115,depth_duration_stimuli/001244_2014-06-17_16-47-45_260595134347_rgbf000030-resize_4/001244_2014-06-17_16-47-45_260595134347_rgbf000030-resize_4-target.png,125,2.0425,7,1940,124,feet,jsons/VE125_randls_45_rotated.json,504767,1470157,30,Woman
115,681743,DepthScenes,duration_manipulation_targetAtFixation,jsons/VE125_randls_45_rotated.json,http://54.235.29.9/FacialAge/BNav_EC2/DepthDuration/v2_depth_duration_MTurk/v2_DepthDuration_HTML.html#294,294,1366,657,1366,768,8-30-2022,19-48-5,116,depth_duration_stimuli/003083_2014-06-15_15-21-03_094959634447_rgbf000063-resize_1/003083_2014-06-15_15-21-03_094959634447_rgbf000063-resize_1-target.png,125,4.1405,6,2270,128,feet,jsons/VE125_randls_45_rotated.json,504767,1470157,30,Woman
116,681743,DepthScenes,duration_manipulation_targetAtFixation,jsons/VE125_randls_45_rotated.json,http://54.235.29.9/FacialAge/BNav_EC2/DepthDuration/v2_depth_duration_MTurk/v2_DepthDuration_HTML.html#294,294,1366,657,1366,768,8-30-2022,19-48-5,117,depth_duration_stimuli/000486_2014-06-09_20-47-20_260595134347_rgbf000143-resize_2/000486_2014-06-09_20-47-20_260595134347_rgbf000143-resize_2-target.png,125,4.8325,3,1786,118,feet,jsons/VE125_randls_45_rotated.json,504767,1470157,30,Woman
117,681743,DepthScenes,duration_manipulation_targetAtFixation,jsons/VE125_randls_45_rotated.json,http://54.235.29.9/FacialAge/BNav_EC2/DepthDuration/v2_depth_duration_MTurk/v2_DepthDuration_HTML.html#294,294,1366,657,1366,768,8-30-2022,19-48-5,118,depth_duration_stimuli/002344_2014-06-28_20-06-29_260595134347_rgbf000030-resize_1/002344_2014-06-28_20-06-29_260595134347_rgbf000030-resize_1-target.png,125,1.5795,3,1656,130,feet,jsons/VE125_randls_45_rotated.json,504767,1470157,30,Woman
118,681743,DepthScenes,duration_manipulation_targetAtFixation,jsons/VE125_randls_45_rotated.json,http://54.235.29.9/FacialAge/BNav_EC2/DepthDuration/v2_depth_duration_MTurk/v2_DepthDuration_HTML.html#294,294,1366,657,1366,768,8-30-2022,19-48-5,119,depth_duration_stimuli/002725_2014-06-22_11-47-51_094959634447_rgbf000070-resize_1/002725_2014-06-22_11-47-51_094959634447_rgbf000070-resize_1-target.png,125,2.195,5,1808,124,feet,jsons/VE125_randls_45_rotated.json,504767,1470157,30,Woman
119,681743,DepthScenes,duration_manipulation_targetAtFixation,jsons/VE125_randls_45_rotated.json,http://54.235.29.9/FacialAge/BNav_EC2/DepthDuration/v2_depth_duration_MTurk/v2_DepthDuration_HTML.html#294,294,1366,657,1366,768,8-30-2022,19-48-5,120,depth_duration_stimuli/000787_2014-06-08_22-33-53_260595134347_rgbf000175-resize_1/000787_2014-06-08_22-33-53_260595134347_rgbf000175-resize-original.jpg,125,4.784,0,2092,135,feet,jsons/VE125_randls_45_rotated.json,504767,1470157,30,Woman
120,681743,DepthScenes,duration_manipulation_targetAtFixation,jsons/VE125_randls_45_rotated.json,http://54.235.29.9/FacialAge/BNav_EC2/DepthDuration/v2_depth_duration_MTurk/v2_DepthDuration_HTML.html#294,294,1366,657,1366,768,8-30-2022,19-48-5,121,depth_duration_stimuli/001617_2014-06-20_11-35-32_260595134347_rgbf000066-resize_1/001617_2014-06-20_11-35-32_260595134347_rgbf000066-resize_1-target.png,125,3.7910000000000004,5,1695,128,feet,jsons/VE125_randls_45_rotated.json,504767,1470157,30,Woman
121,681743,DepthScenes,duration_manipulation_targetAtFixation,jsons/VE125_randls_45_rotated.json,http://54.235.29.9/FacialAge/BNav_EC2/DepthDuration/v2_depth_duration_MTurk/v2_DepthDuration_HTML.html#294,294,1366,657,1366,768,8-30-2022,19-48-5,122,depth_duration_stimuli/001806_2014-06-26_20-50-20_260595134347_rgbf000091-resize_1/001806_2014-06-26_20-50-20_260595134347_rgbf000091-resize_1-target.png,125,2.7305,3,2044,114,feet,jsons/VE125_randls_45_rotated.json,504767,1470157,30,Woman
122,681743,DepthScenes,duration_manipulation_targetAtFixation,jsons/VE125_randls_45_rotated.json,http://54.235.29.9/FacialAge/BNav_EC2/DepthDuration/v2_depth_duration_MTurk/v2_DepthDuration_HTML.html#294,294,1366,657,1366,768,8-30-2022,19-48-5,123,depth_duration_stimuli/001032_2014-06-08_13-23-17_260595134347_rgbf000021-resize_3/001032_2014-06-08_13-23-17_260595134347_rgbf000021-resize_3-target.png,125,3.2725,3,3631,131,feet,jsons/VE125_randls_45_rotated.json,504767,1470157,30,Woman
123,681743,DepthScenes,duration_manipulation_targetAtFixation,jsons/VE125_randls_45_rotated.json,http://54.235.29.9/FacialAge/BNav_EC2/DepthDuration/v2_depth_duration_MTurk/v2_DepthDuration_HTML.html#294,294,1366,657,1366,768,8-30-2022,19-48-5,124,depth_duration_stimuli/001059_2014-06-08_21-53-27_260595134347_rgbf000061-resize_4/001059_2014-06-08_21-53-27_260595134347_rgbf000061-resize_4-target.png,125,2.4185,3,2238,115,feet,jsons/VE125_randls_45_rotated.json,504767,1470157,30,Woman
124,681743,DepthScenes,duration_manipulation_targetAtFixation,jsons/VE125_randls_45_rotated.json,http://54.235.29.9/FacialAge/BNav_EC2/DepthDuration/v2_depth_duration_MTurk/v2_DepthDuration_HTML.html#294,294,1366,657,1366,768,8-30-2022,19-48-5,125,depth_duration_stimuli/002949_2014-06-26_15-57-42_094959634447_rgbf000079-resize_1/002949_2014-06-26_15-57-42_094959634447_rgbf000079-resize_1-target.png,125,1.8915,4,2091,125,feet,jsons/VE125_randls_45_rotated.json,504767,1470157,30,Woman
125,681743,DepthScenes,duration_manipulation_targetAtFixation,jsons/VE125_randls_45_rotated.json,http://54.235.29.9/FacialAge/BNav_EC2/DepthDuration/v2_depth_duration_MTurk/v2_DepthDuration_HTML.html#294,294,1366,657,1366,768,8-30-2022,19-48-5,126,depth_duration_stimuli/000522_2014-06-08_13-35-06_260595134347_rgbf000244-resize_1/000522_2014-06-08_13-35-06_260595134347_rgbf000244-resize_1-target.png,125,2.3715,2,1948,116,feet,jsons/VE125_randls_45_rotated.json,504767,1470157,30,Woman
126,681743,DepthScenes,duration_manipulation_targetAtFixation,jsons/VE125_randls_45_rotated.json,http://54.235.29.9/FacialAge/BNav_EC2/DepthDuration/v2_depth_duration_MTurk/v2_DepthDuration_HTML.html#294,294,1366,657,1366,768,8-30-2022,19-48-5,127,depth_duration_stimuli/000103_2014-05-14_22-01-17_260595134347_rgbf000152-resize_5/000103_2014-05-14_22-01-17_260595134347_rgbf000152-resize_5-target.png,125,1.993,3,2170,122,feet,jsons/VE125_randls_45_rotated.json,504767,1470157,30,Woman
127,681743,DepthScenes,duration_manipulation_targetAtFixation,jsons/VE125_randls_45_rotated.json,http://54.235.29.9/FacialAge/BNav_EC2/DepthDuration/v2_depth_duration_MTurk/v2_DepthDuration_HTML.html#294,294,1366,657,1366,768,8-30-2022,19-48-5,128,depth_duration_stimuli/001555_2014-06-20_17-12-10_260595134347_rgbf000065-resize_4/001555_2014-06-20_17-12-10_260595134347_rgbf000065-resize_4-target.png,125,1.633,2,1716,125,feet,jsons/VE125_randls_45_rotated.json,504767,1470157,30,Woman
128,681743,DepthScenes,duration_manipulation_targetAtFixation,jsons/VE125_randls_45_rotated.json,http://54.235.29.9/FacialAge/BNav_EC2/DepthDuration/v2_depth_duration_MTurk/v2_DepthDuration_HTML.html#294,294,1366,657,1366,768,8-30-2022,19-48-5,129,depth_duration_stimuli/000137_2014-05-20_17-04-49_260595134347_rgbf000120-resize_1/000137_2014-05-20_17-04-49_260595134347_rgbf000120-resize_1-target.png,125,3.786,3,1780,109,feet,jsons/VE125_randls_45_rotated.json,504767,1470157,30,Woman
129,681743,DepthScenes,duration_manipulation_targetAtFixation,jsons/VE125_randls_45_rotated.json,http://54.235.29.9/FacialAge/BNav_EC2/DepthDuration/v2_depth_duration_MTurk/v2_DepthDuration_HTML.html#294,294,1366,657,1366,768,8-30-2022,19-48-5,130,depth_duration_stimuli/000736_2014-06-08_18-24-15_260595134347_rgbf000206-resize_3/000736_2014-06-08_18-24-15_260595134347_rgbf000206-resize_3-target.png,125,3.515,3,1706,129,feet,jsons/VE125_randls_45_rotated.json,504767,1470157,30,Woman
130,681743,DepthScenes,duration_manipulation_targetAtFixation,jsons/VE125_randls_45_rotated.json,http://54.235.29.9/FacialAge/BNav_EC2/DepthDuration/v2_depth_duration_MTurk/v2_DepthDuration_HTML.html#294,294,1366,657,1366,768,8-30-2022,19-48-5,131,depth_duration_stimuli/003228_2014-05-14_13-42-35_094959634447_rgbf000101-resize_1/003228_2014-05-14_13-42-35_094959634447_rgbf000101-resize_1-target.png,125,1.9680000000000002,2,2184,128,feet,jsons/VE125_randls_45_rotated.json,504767,1470157,30,Woman
131,681743,DepthScenes,duration_manipulation_targetAtFixation,jsons/VE125_randls_45_rotated.json,http://54.235.29.9/FacialAge/BNav_EC2/DepthDuration/v2_depth_duration_MTurk/v2_DepthDuration_HTML.html#294,294,1366,657,1366,768,8-30-2022,19-48-5,132,depth_duration_stimuli/002600_2014-06-24_14-27-04_094959634447_rgbf000074-resize_2/002600_2014-06-24_14-27-04_094959634447_rgbf000074-resize_2-target.png,125,2.7575,4,2062,128,feet,jsons/VE125_randls_45_rotated.json,504767,1470157,30,Woman
132,681743,DepthScenes,duration_manipulation_targetAtFixation,jsons/VE125_randls_45_rotated.json,http://54.235.29.9/FacialAge/BNav_EC2/DepthDuration/v2_depth_duration_MTurk/v2_DepthDuration_HTML.html#294,294,1366,657,1366,768,8-30-2022,19-48-5,133,depth_duration_stimuli/002637_2014-06-24_14-51-13_094959634447_rgbf000066-resize_4/002637_2014-06-24_14-51-13_094959634447_rgbf000066-resize_4-target.png,125,1.9955,4,3996,127,feet,jsons/VE125_randls_45_rotated.json,504767,1470157,30,Woman
133,681743,DepthScenes,duration_manipulation_targetAtFixation,jsons/VE125_randls_45_rotated.json,http://54.235.29.9/FacialAge/BNav_EC2/DepthDuration/v2_depth_duration_MTurk/v2_DepthDuration_HTML.html#294,294,1366,657,1366,768,8-30-2022,19-48-5,134,depth_duration_stimuli/003534_2014-05-22_15-06-10_094959634447_rgbf000102-resize_4/003534_2014-05-22_15-06-10_094959634447_rgbf000102-resize_4-target.png,125,1.426,3,2256,125,feet,jsons/VE125_randls_45_rotated.json,504767,1470157,30,Woman
134,681743,DepthScenes,duration_manipulation_targetAtFixation,jsons/VE125_randls_45_rotated.json,http://54.235.29.9/FacialAge/BNav_EC2/DepthDuration/v2_depth_duration_MTurk/v2_DepthDuration_HTML.html#294,294,1366,657,1366,768,8-30-2022,19-48-5,135,depth_duration_stimuli/000375_2014-06-08_11-17-29_260595134347_rgbf000133-resize_2/000375_2014-06-08_11-17-29_260595134347_rgbf000133-resize-original.jpg,125,4.718,5,2509,119,feet,jsons/VE125_randls_45_rotated.json,504767,1470157,30,Woman
135,681743,DepthScenes,duration_manipulation_targetAtFixation,jsons/VE125_randls_45_rotated.json,http://54.235.29.9/FacialAge/BNav_EC2/DepthDuration/v2_depth_duration_MTurk/v2_DepthDuration_HTML.html#294,294,1366,657,1366,768,8-30-2022,19-48-5,136,depth_duration_stimuli/001516_2014-06-20_16-25-09_260595134347_rgbf000076-resize_2/001516_2014-06-20_16-25-09_260595134347_rgbf000076-resize_2-target.png,125,1.7445,4,1773,124,feet,jsons/VE125_randls_45_rotated.json,504767,1470157,30,Woman
136,681743,DepthScenes,duration_manipulation_targetAtFixation,jsons/VE125_randls_45_rotated.json,http://54.235.29.9/FacialAge/BNav_EC2/DepthDuration/v2_depth_duration_MTurk/v2_DepthDuration_HTML.html#294,294,1366,657,1366,768,8-30-2022,19-48-5,137,depth_duration_stimuli/002118_2014-06-25_20-32-08_260595134347_rgbf000078-resize_1/002118_2014-06-25_20-32-08_260595134347_rgbf000078-resize_1-target.png,125,2.6460000000000004,5,2188,129,feet,jsons/VE125_randls_45_rotated.json,504767,1470157,30,Woman
137,681743,DepthScenes,duration_manipulation_targetAtFixation,jsons/VE125_randls_45_rotated.json,http://54.235.29.9/FacialAge/BNav_EC2/DepthDuration/v2_depth_duration_MTurk/v2_DepthDuration_HTML.html#294,294,1366,657,1366,768,8-30-2022,19-48-5,138,depth_duration_stimuli/002568_2014-06-24_13-59-21_094959634447_rgbf000062-resize_4/002568_2014-06-24_13-59-21_094959634447_rgbf000062-resize_4-target.png,125,3.015,8,1925,125,feet,jsons/VE125_randls_45_rotated.json,504767,1470157,30,Woman
138,681743,DepthScenes,duration_manipulation_targetAtFixation,jsons/VE125_randls_45_rotated.json,http://54.235.29.9/FacialAge/BNav_EC2/DepthDuration/v2_depth_duration_MTurk/v2_DepthDuration_HTML.html#294,294,1366,657,1366,768,8-30-2022,19-48-5,139,depth_duration_stimuli/003492_2014-05-21_15-50-55_094959634447_rgbf000828-resize_1/003492_2014-05-21_15-50-55_094959634447_rgbf000828-resize_1-target.png,125,4.06875,8,1700,123,feet,jsons/VE125_randls_45_rotated.json,504767,1470157,30,Woman
139,681743,DepthScenes,duration_manipulation_targetAtFixation,jsons/VE125_randls_45_rotated.json,http://54.235.29.9/FacialAge/BNav_EC2/DepthDuration/v2_depth_duration_MTurk/v2_DepthDuration_HTML.html#294,294,1366,657,1366,768,8-30-2022,19-48-5,140,depth_duration_stimuli/001052_2014-06-08_18-24-54_260595134347_rgbf000130-resize_1/001052_2014-06-08_18-24-54_260595134347_rgbf000130-resize_1-target.png,125,4.1045,8,1469,126,feet,jsons/VE125_randls_45_rotated.json,504767,1470157,30,Woman
140,681743,DepthScenes,duration_manipulation_targetAtFixation,jsons/VE125_randls_45_rotated.json,http://54.235.29.9/FacialAge/BNav_EC2/DepthDuration/v2_depth_duration_MTurk/v2_DepthDuration_HTML.html#294,294,1366,657,1366,768,8-30-2022,19-48-5,141,depth_duration_stimuli/002988_2014-06-15_12-24-20_094959634447_rgbf000150-resize_1/002988_2014-06-15_12-24-20_094959634447_rgbf000150-resize_1-target.png,125,4.7669999999999995,9,1759,129,feet,jsons/VE125_randls_45_rotated.json,504767,1470157,30,Woman
141,681743,DepthScenes,duration_manipulation_targetAtFixation,jsons/VE125_randls_45_rotated.json,http://54.235.29.9/FacialAge/BNav_EC2/DepthDuration/v2_depth_duration_MTurk/v2_DepthDuration_HTML.html#294,294,1366,657,1366,768,8-30-2022,19-48-5,142,depth_duration_stimuli/003129_2014-05-12_10-48-10_094959634447_rgbf000100-resize_0/003129_2014-05-12_10-48-10_094959634447_rgbf000100-resize_0-target.png,125,4.9305,9,1718,123,feet,jsons/VE125_randls_45_rotated.json,504767,1470157,30,Woman
142,681743,DepthScenes,duration_manipulation_targetAtFixation,jsons/VE125_randls_45_rotated.json,http://54.235.29.9/FacialAge/BNav_EC2/DepthDuration/v2_depth_duration_MTurk/v2_DepthDuration_HTML.html#294,294,1366,657,1366,768,8-30-2022,19-48-5,143,depth_duration_stimuli/000414_2014-06-04_19-49-13_260595134347_rgbf000044-resize_0/000414_2014-06-04_19-49-13_260595134347_rgbf000044-resize_0-target.png,125,4.329,9,1766,123,feet,jsons/VE125_randls_45_rotated.json,504767,1470157,30,Woman
143,681743,DepthScenes,duration_manipulation_targetAtFixation,jsons/VE125_randls_45_rotated.json,http://54.235.29.9/FacialAge/BNav_EC2/DepthDuration/v2_depth_duration_MTurk/v2_DepthDuration_HTML.html#294,294,1366,657,1366,768,8-30-2022,19-48-5,144,depth_duration_stimuli/002414_2014-06-28_20-24-58_260595134347_rgbf000067-resize_4/002414_2014-06-28_20-24-58_260595134347_rgbf000067-resize_4-target.png,125,4.363,8,1524,111,feet,jsons/VE125_randls_45_rotated.json,504767,1470157,30,Woman
144,681743,DepthScenes,duration_manipulation_targetAtFixation,jsons/VE125_randls_45_rotated.json,http://54.235.29.9/FacialAge/BNav_EC2/DepthDuration/v2_depth_duration_MTurk/v2_DepthDuration_HTML.html#294,294,1366,657,1366,768,8-30-2022,19-48-5,145,depth_duration_stimuli/000773_2014-06-08_22-24-54_260595134347_rgbf000093-resize_1/000773_2014-06-08_22-24-54_260595134347_rgbf000093-resize_1-target.png,125,4.973,8,1755,122,feet,jsons/VE125_randls_45_rotated.json,504767,1470157,30,Woman
145,681743,DepthScenes,duration_manipulation_targetAtFixation,jsons/VE125_randls_45_rotated.json,http://54.235.29.9/FacialAge/BNav_EC2/DepthDuration/v2_depth_duration_MTurk/v2_DepthDuration_HTML.html#294,294,1366,657,1366,768,8-30-2022,19-48-5,146,depth_duration_stimuli/000709_2014-06-08_13-51-55_260595134347_rgbf000068-resize_3/000709_2014-06-08_13-51-55_260595134347_rgbf000068-resize_3-target.png,125,1.8030000000000002,4,2190,119,feet,jsons/VE125_randls_45_rotated.json,504767,1470157,30,Woman
146,681743,DepthScenes,duration_manipulation_targetAtFixation,jsons/VE125_randls_45_rotated.json,http://54.235.29.9/FacialAge/BNav_EC2/DepthDuration/v2_depth_duration_MTurk/v2_DepthDuration_HTML.html#294,294,1366,657,1366,768,8-30-2022,19-48-5,147,depth_duration_stimuli/002057_2014-06-24_21-00-13_260595134347_rgbf000120-resize_1/002057_2014-06-24_21-00-13_260595134347_rgbf000120-resize_1-target.png,125,2.967,8,1701,129,feet,jsons/VE125_randls_45_rotated.json,504767,1470157,30,Woman
147,681743,DepthScenes,duration_manipulation_targetAtFixation,jsons/VE125_randls_45_rotated.json,http://54.235.29.9/FacialAge/BNav_EC2/DepthDuration/v2_depth_duration_MTurk/v2_DepthDuration_HTML.html#294,294,1366,657,1366,768,8-30-2022,19-48-5,148,depth_duration_stimuli/002467_2014-06-28_20-38-07_260595134347_rgbf000026-resize_2/002467_2014-06-28_20-38-07_260595134347_rgbf000026-resize_2-target.png,125,4.742,5,1660,118,feet,jsons/VE125_randls_45_rotated.json,504767,1470157,30,Woman
148,681743,DepthScenes,duration_manipulation_targetAtFixation,jsons/VE125_randls_45_rotated.json,http://54.235.29.9/FacialAge/BNav_EC2/DepthDuration/v2_depth_duration_MTurk/v2_DepthDuration_HTML.html#294,294,1366,657,1366,768,8-30-2022,19-48-5,149,depth_duration_stimuli/002570_2014-06-24_13-59-54_094959634447_rgbf000059-resize_0/002570_2014-06-24_13-59-54_094959634447_rgbf000059-resize_0-target.png,125,4.037,5,1542,134,feet,jsons/VE125_randls_45_rotated.json,504767,1470157,30,Woman
149,681743,DepthScenes,duration_manipulation_targetAtFixation,jsons/VE125_randls_45_rotated.json,http://54.235.29.9/FacialAge/BNav_EC2/DepthDuration/v2_depth_duration_MTurk/v2_DepthDuration_HTML.html#294,294,1366,657,1366,768,8-30-2022,19-48-5,150,depth_duration_stimuli/002639_2014-06-24_14-51-37_094959634447_rgbf000074-resize_4/002639_2014-06-24_14-51-37_094959634447_rgbf000074-resize_4-target.png,125,4.0375,6,1843,111,feet,jsons/VE125_randls_45_rotated.json,504767,1470157,30,Woman
150,681743,DepthScenes,duration_manipulation_targetAtFixation,jsons/VE125_randls_45_rotated.json,http://54.235.29.9/FacialAge/BNav_EC2/DepthDuration/v2_depth_duration_MTurk/v2_DepthDuration_HTML.html#294,294,1366,657,1366,768,8-30-2022,19-48-5,151,depth_duration_stimuli/003292_2014-05-14_21-53-49_094959634447_rgbf000100-resize_2/003292_2014-05-14_21-53-49_094959634447_rgbf000100-resize_2-target.png,125,3.4815,5,2010,124,feet,jsons/VE125_randls_45_rotated.json,504767,1470157,30,Woman
151,681743,DepthScenes,duration_manipulation_targetAtFixation,jsons/VE125_randls_45_rotated.json,http://54.235.29.9/FacialAge/BNav_EC2/DepthDuration/v2_depth_duration_MTurk/v2_DepthDuration_HTML.html#294,294,1366,657,1366,768,8-30-2022,19-48-5,152,depth_duration_stimuli/000569_2014-06-09_22-51-47_260595134347_rgbf000141-resize_3/000569_2014-06-09_22-51-47_260595134347_rgbf000141-resize-original.jpg,125,4.512,0,2436,113,feet,jsons/VE125_randls_45_rotated.json,504767,1470157,30,Woman
152,681743,DepthScenes,duration_manipulation_targetAtFixation,jsons/VE125_randls_45_rotated.json,http://54.235.29.9/FacialAge/BNav_EC2/DepthDuration/v2_depth_duration_MTurk/v2_DepthDuration_HTML.html#294,294,1366,657,1366,768,8-30-2022,19-48-5,153,depth_duration_stimuli/002425_2014-06-28_20-27-29_260595134347_rgbf000031-resize_8/002425_2014-06-28_20-27-29_260595134347_rgbf000031-resize_8-target.png,125,3.8960000000000004,5,1916,125,feet,jsons/VE125_randls_45_rotated.json,504767,1470157,30,Woman
153,681743,DepthScenes,duration_manipulation_targetAtFixation,jsons/VE125_randls_45_rotated.json,http://54.235.29.9/FacialAge/BNav_EC2/DepthDuration/v2_depth_duration_MTurk/v2_DepthDuration_HTML.html#294,294,1366,657,1366,768,8-30-2022,19-48-5,154,depth_duration_stimuli/000642_2014-06-08_16-59-25_260595134347_rgbf000098-resize_2/000642_2014-06-08_16-59-25_260595134347_rgbf000098-resize_2-target.png,125,2.8815,4,1696,131,feet,jsons/VE125_randls_45_rotated.json,504767,1470157,30,Woman
154,681743,DepthScenes,duration_manipulation_targetAtFixation,jsons/VE125_randls_45_rotated.json,http://54.235.29.9/FacialAge/BNav_EC2/DepthDuration/v2_depth_duration_MTurk/v2_DepthDuration_HTML.html#294,294,1366,657,1366,768,8-30-2022,19-48-5,155,depth_duration_stimuli/001450_2014-06-19_17-02-03_260595134347_rgbf000203-resize_4/001450_2014-06-19_17-02-03_260595134347_rgbf000203-resize_4-target.png,125,4.0106666666667,5,1694,134,feet,jsons/VE125_randls_45_rotated.json,504767,1470157,30,Woman
155,681743,DepthScenes,duration_manipulation_targetAtFixation,jsons/VE125_randls_45_rotated.json,http://54.235.29.9/FacialAge/BNav_EC2/DepthDuration/v2_depth_duration_MTurk/v2_DepthDuration_HTML.html#294,294,1366,657,1366,768,8-30-2022,19-48-5,156,depth_duration_stimuli/001449_2014-06-19_17-01-27_260595134347_rgbf000116-resize_2/001449_2014-06-19_17-01-27_260595134347_rgbf000116-resize_2-target.png,125,3.452,6,1793,125,feet,jsons/VE125_randls_45_rotated.json,504767,1470157,30,Woman
156,681743,DepthScenes,duration_manipulation_targetAtFixation,jsons/VE125_randls_45_rotated.json,http://54.235.29.9/FacialAge/BNav_EC2/DepthDuration/v2_depth_duration_MTurk/v2_DepthDuration_HTML.html#294,294,1366,657,1366,768,8-30-2022,19-48-5,157,depth_duration_stimuli/001815_2014-06-26_20-52-55_260595134347_rgbf000020-resize_0/001815_2014-06-26_20-52-55_260595134347_rgbf000020-resize_0-target.png,125,3.3865,6,1528,135,feet,jsons/VE125_randls_45_rotated.json,504767,1470157,30,Woman
157,681743,DepthScenes,duration_manipulation_targetAtFixation,jsons/VE125_randls_45_rotated.json,http://54.235.29.9/FacialAge/BNav_EC2/DepthDuration/v2_depth_duration_MTurk/v2_DepthDuration_HTML.html#294,294,1366,657,1366,768,8-30-2022,19-48-5,158,depth_duration_stimuli/001808_2014-06-26_20-50-58_260595134347_rgbf000029-resize_1/001808_2014-06-26_20-50-58_260595134347_rgbf000029-resize_1-target.png,125,4.249,6,1637,119,feet,jsons/VE125_randls_45_rotated.json,504767,1470157,30,Woman
158,681743,DepthScenes,duration_manipulation_targetAtFixation,jsons/VE125_randls_45_rotated.json,http://54.235.29.9/FacialAge/BNav_EC2/DepthDuration/v2_depth_duration_MTurk/v2_DepthDuration_HTML.html#294,294,1366,657,1366,768,8-30-2022,19-48-5,159,depth_duration_stimuli/002805_2014-06-22_19-54-03_094959634447_rgbf000079-resize_1/002805_2014-06-22_19-54-03_094959634447_rgbf000079-resize_1-target.png,125,3.1439999999999997,5,1681,124,feet,jsons/VE125_randls_45_rotated.json,504767,1470157,30,Woman
159,681743,DepthScenes,duration_manipulation_targetAtFixation,jsons/VE125_randls_45_rotated.json,http://54.235.29.9/FacialAge/BNav_EC2/DepthDuration/v2_depth_duration_MTurk/v2_DepthDuration_HTML.html#294,294,1366,657,1366,768,8-30-2022,19-48-5,160,depth_duration_stimuli/000906_2014-06-08_13-35-43_260595134347_rgbf000155-resize_1/000906_2014-06-08_13-35-43_260595134347_rgbf000155-resize_1-target.png,125,2.8489999999999998,6,1645,124,feet,jsons/VE125_randls_45_rotated.json,504767,1470157,30,Woman
160,681743,DepthScenes,duration_manipulation_targetAtFixation,jsons/VE125_randls_45_rotated.json,http://54.235.29.9/FacialAge/BNav_EC2/DepthDuration/v2_depth_duration_MTurk/v2_DepthDuration_HTML.html#294,294,1366,657,1366,768,8-30-2022,19-48-5,161,depth_duration_stimuli/000927_2014-06-09_16-32-30_260595134347_rgbf000123-resize_3/000927_2014-06-09_16-32-30_260595134347_rgbf000123-resize_3-target.png,125,2.6785,6,1634,128,feet,jsons/VE125_randls_45_rotated.json,504767,1470157,30,Woman
161,681743,DepthScenes,duration_manipulation_targetAtFixation,jsons/VE125_randls_45_rotated.json,http://54.235.29.9/FacialAge/BNav_EC2/DepthDuration/v2_depth_duration_MTurk/v2_DepthDuration_HTML.html#294,294,1366,657,1366,768,8-30-2022,19-48-5,162,depth_duration_stimuli/001110_2014-06-15_17-25-28_260595134347_rgbf000150-resize_1/001110_2014-06-15_17-25-28_260595134347_rgbf000150-resize_1-target.png,125,1.7115,5,1574,118,feet,jsons/VE125_randls_45_rotated.json,504767,1470157,30,Woman
162,681743,DepthScenes,duration_manipulation_targetAtFixation,jsons/VE125_randls_45_rotated.json,http://54.235.29.9/FacialAge/BNav_EC2/DepthDuration/v2_depth_duration_MTurk/v2_DepthDuration_HTML.html#294,294,1366,657,1366,768,8-30-2022,19-48-5,163,depth_duration_stimuli/000556_2014-06-09_22-42-56_260595134347_rgbf000214-resize_1/000556_2014-06-09_22-42-56_260595134347_rgbf000214-resize_1-target.png,125,4.8415,5,1569,116,feet,jsons/VE125_randls_45_rotated.json,504767,1470157,30,Woman
163,681743,DepthScenes,duration_manipulation_targetAtFixation,jsons/VE125_randls_45_rotated.json,http://54.235.29.9/FacialAge/BNav_EC2/DepthDuration/v2_depth_duration_MTurk/v2_DepthDuration_HTML.html#294,294,1366,657,1366,768,8-30-2022,19-48-5,164,depth_duration_stimuli/001158_2014-06-17_15-32-16_260595134347_rgbf000138-resize_2/001158_2014-06-17_15-32-16_260595134347_rgbf000138-resize_2-target.png,125,4.5315,6,1819,120,feet,jsons/VE125_randls_45_rotated.json,504767,1470157,30,Woman
