,subjID,experimentName,versionName,sequenceName,url,selected_row,windowWidth,windowHeight,screenWidth,screenHeight,startDate,startTime,trial,stimulus,duration,actual_depth,depth_estimate,trial_RT,log_sceneDuration,unitSelection,seq_filepath,experimentTime,totalTime,age,gender
0,682639,DepthScenes,duration_manipulation_targetAtFixation,jsons/VE125_randls_15_rotated.json,http://54.235.29.9/FacialAge/BNav_EC2/DepthDuration/v2_depth_duration_MTurk/v2_DepthDuration_HTML.html#77,77,1536,722,1536,864,8-21-2022,9-36-59,1,depth_duration_stimuli/000409_2014-06-04_19-23-33_260595134347_rgbf000067-resize_0/000409_2014-06-04_19-23-33_260595134347_rgbf000067-resize_0-target.png,125,3.7335,2.0,7204,130,feet,jsons/VE125_randls_15_rotated.json,1591055,1919080,35,Woman
1,682639,DepthScenes,duration_manipulation_targetAtFixation,jsons/VE125_randls_15_rotated.json,http://54.235.29.9/FacialAge/BNav_EC2/DepthDuration/v2_depth_duration_MTurk/v2_DepthDuration_HTML.html#77,77,1536,722,1536,864,8-21-2022,9-36-59,2,depth_duration_stimuli/002663_2014-06-13_15-50-26_094959634447_rgbf000075-resize_1/002663_2014-06-13_15-50-26_094959634447_rgbf000075-resize_1-target.png,125,4.7495,4.0,7996,124,feet,jsons/VE125_randls_15_rotated.json,1591055,1919080,35,Woman
2,682639,DepthScenes,duration_manipulation_targetAtFixation,jsons/VE125_randls_15_rotated.json,http://54.235.29.9/FacialAge/BNav_EC2/DepthDuration/v2_depth_duration_MTurk/v2_DepthDuration_HTML.html#77,77,1536,722,1536,864,8-21-2022,9-36-59,3,depth_duration_stimuli/000709_2014-06-08_13-51-55_260595134347_rgbf000068-resize_3/000709_2014-06-08_13-51-55_260595134347_rgbf000068-resize_3-target.png,125,1.8030000000000002,3.0,14964,138,feet,jsons/VE125_randls_15_rotated.json,1591055,1919080,35,Woman
3,682639,DepthScenes,duration_manipulation_targetAtFixation,jsons/VE125_randls_15_rotated.json,http://54.235.29.9/FacialAge/BNav_EC2/DepthDuration/v2_depth_duration_MTurk/v2_DepthDuration_HTML.html#77,77,1536,722,1536,864,8-21-2022,9-36-59,4,depth_duration_stimuli/002057_2014-06-24_21-00-13_260595134347_rgbf000120-resize_1/002057_2014-06-24_21-00-13_260595134347_rgbf000120-resize_1-target.png,125,2.967,1.0,8492,125,feet,jsons/VE125_randls_15_rotated.json,1591055,1919080,35,Woman
4,682639,DepthScenes,duration_manipulation_targetAtFixation,jsons/VE125_randls_15_rotated.json,http://54.235.29.9/FacialAge/BNav_EC2/DepthDuration/v2_depth_duration_MTurk/v2_DepthDuration_HTML.html#77,77,1536,722,1536,864,8-21-2022,9-36-59,5,depth_duration_stimuli/003490_2014-05-21_15-50-11_094959634447_rgbf000101-resize_3/003490_2014-05-21_15-50-11_094959634447_rgbf000101-resize_3-target.png,125,3.6445,2.0,8852,124,feet,jsons/VE125_randls_15_rotated.json,1591055,1919080,35,Woman
5,682639,DepthScenes,duration_manipulation_targetAtFixation,jsons/VE125_randls_15_rotated.json,http://54.235.29.9/FacialAge/BNav_EC2/DepthDuration/v2_depth_duration_MTurk/v2_DepthDuration_HTML.html#77,77,1536,722,1536,864,8-21-2022,9-36-59,6,depth_duration_stimuli/001175_2014-06-17_15-45-55_260595134347_rgbf000129-resize_4/001175_2014-06-17_15-45-55_260595134347_rgbf000129-resize_4-target.png,125,4.255,3.0,7131,117,feet,jsons/VE125_randls_15_rotated.json,1591055,1919080,35,Woman
6,682639,DepthScenes,duration_manipulation_targetAtFixation,jsons/VE125_randls_15_rotated.json,http://54.235.29.9/FacialAge/BNav_EC2/DepthDuration/v2_depth_duration_MTurk/v2_DepthDuration_HTML.html#77,77,1536,722,1536,864,8-21-2022,9-36-59,7,depth_duration_stimuli/002805_2014-06-22_19-54-03_094959634447_rgbf000079-resize_1/002805_2014-06-22_19-54-03_094959634447_rgbf000079-resize_1-target.png,125,3.1439999999999997,1.0,6520,132,feet,jsons/VE125_randls_15_rotated.json,1591055,1919080,35,Woman
7,682639,DepthScenes,duration_manipulation_targetAtFixation,jsons/VE125_randls_15_rotated.json,http://54.235.29.9/FacialAge/BNav_EC2/DepthDuration/v2_depth_duration_MTurk/v2_DepthDuration_HTML.html#77,77,1536,722,1536,864,8-21-2022,9-36-59,8,depth_duration_stimuli/000906_2014-06-08_13-35-43_260595134347_rgbf000155-resize_1/000906_2014-06-08_13-35-43_260595134347_rgbf000155-resize_1-target.png,125,2.8489999999999998,5.0,5673,123,feet,jsons/VE125_randls_15_rotated.json,1591055,1919080,35,Woman
8,682639,DepthScenes,duration_manipulation_targetAtFixation,jsons/VE125_randls_15_rotated.json,http://54.235.29.9/FacialAge/BNav_EC2/DepthDuration/v2_depth_duration_MTurk/v2_DepthDuration_HTML.html#77,77,1536,722,1536,864,8-21-2022,9-36-59,9,depth_duration_stimuli/001392_2014-06-19_16-07-59_260595134347_rgbf000046-resize_1/001392_2014-06-19_16-07-59_260595134347_rgbf000046-resize_1-target.png,125,4.135,6.0,7767,124,feet,jsons/VE125_randls_15_rotated.json,1591055,1919080,35,Woman
9,682639,DepthScenes,duration_manipulation_targetAtFixation,jsons/VE125_randls_15_rotated.json,http://54.235.29.9/FacialAge/BNav_EC2/DepthDuration/v2_depth_duration_MTurk/v2_DepthDuration_HTML.html#77,77,1536,722,1536,864,8-21-2022,9-36-59,10,depth_duration_stimuli/001570_2014-06-20_17-21-09_260595134347_rgbf000135-resize_4/001570_2014-06-20_17-21-09_260595134347_rgbf000135-resize_4-target.png,125,4.467,4.0,7943,128,feet,jsons/VE125_randls_15_rotated.json,1591055,1919080,35,Woman
10,682639,DepthScenes,duration_manipulation_targetAtFixation,jsons/VE125_randls_15_rotated.json,http://54.235.29.9/FacialAge/BNav_EC2/DepthDuration/v2_depth_duration_MTurk/v2_DepthDuration_HTML.html#77,77,1536,722,1536,864,8-21-2022,9-36-59,11,depth_duration_stimuli/001100_2014-06-15_17-46-26_260595134347_rgbf000225-resize_2/001100_2014-06-15_17-46-26_260595134347_rgbf000225-resize_2-target.png,125,2.24,5.0,7054,132,feet,jsons/VE125_randls_15_rotated.json,1591055,1919080,35,Woman
11,682639,DepthScenes,duration_manipulation_targetAtFixation,jsons/VE125_randls_15_rotated.json,http://54.235.29.9/FacialAge/BNav_EC2/DepthDuration/v2_depth_duration_MTurk/v2_DepthDuration_HTML.html#77,77,1536,722,1536,864,8-21-2022,9-36-59,12,depth_duration_stimuli/002784_2014-06-22_19-26-30_094959634447_rgbf000083-resize_3/002784_2014-06-22_19-26-30_094959634447_rgbf000083-resize_3-target.png,125,1.8046666666667,2.0,4057,125,feet,jsons/VE125_randls_15_rotated.json,1591055,1919080,35,Woman
12,682639,DepthScenes,duration_manipulation_targetAtFixation,jsons/VE125_randls_15_rotated.json,http://54.235.29.9/FacialAge/BNav_EC2/DepthDuration/v2_depth_duration_MTurk/v2_DepthDuration_HTML.html#77,77,1536,722,1536,864,8-21-2022,9-36-59,13,depth_duration_stimuli/000734_2014-06-08_17-39-11_260595134347_rgbf000128-resize_2/000734_2014-06-08_17-39-11_260595134347_rgbf000128-resize_2-target.png,125,4.098,4.0,85937,124,feet,jsons/VE125_randls_15_rotated.json,1591055,1919080,35,Woman
13,682639,DepthScenes,duration_manipulation_targetAtFixation,jsons/VE125_randls_15_rotated.json,http://54.235.29.9/FacialAge/BNav_EC2/DepthDuration/v2_depth_duration_MTurk/v2_DepthDuration_HTML.html#77,77,1536,722,1536,864,8-21-2022,9-36-59,14,depth_duration_stimuli/000739_2014-06-08_18-45-58_260595134347_rgbf000068-resize_1/000739_2014-06-08_18-45-58_260595134347_rgbf000068-resize_1-target.png,125,3.534,5.0,5468,123,feet,jsons/VE125_randls_15_rotated.json,1591055,1919080,35,Woman
14,682639,DepthScenes,duration_manipulation_targetAtFixation,jsons/VE125_randls_15_rotated.json,http://54.235.29.9/FacialAge/BNav_EC2/DepthDuration/v2_depth_duration_MTurk/v2_DepthDuration_HTML.html#77,77,1536,722,1536,864,8-21-2022,9-36-59,15,depth_duration_stimuli/000749_2014-06-08_21-55-06_260595134347_rgbf000070-resize_2/000749_2014-06-08_21-55-06_260595134347_rgbf000070-resize_2-target.png,125,2.331,2.0,8238,124,feet,jsons/VE125_randls_15_rotated.json,1591055,1919080,35,Woman
15,682639,DepthScenes,duration_manipulation_targetAtFixation,jsons/VE125_randls_15_rotated.json,http://54.235.29.9/FacialAge/BNav_EC2/DepthDuration/v2_depth_duration_MTurk/v2_DepthDuration_HTML.html#77,77,1536,722,1536,864,8-21-2022,9-36-59,16,depth_duration_stimuli/002788_2014-06-22_19-36-03_094959634447_rgbf000088-resize_2/002788_2014-06-22_19-36-03_094959634447_rgbf000088-resize_2-target.png,125,1.6465,3.0,5527,126,feet,jsons/VE125_randls_15_rotated.json,1591055,1919080,35,Woman
16,682639,DepthScenes,duration_manipulation_targetAtFixation,jsons/VE125_randls_15_rotated.json,http://54.235.29.9/FacialAge/BNav_EC2/DepthDuration/v2_depth_duration_MTurk/v2_DepthDuration_HTML.html#77,77,1536,722,1536,864,8-21-2022,9-36-59,17,depth_duration_stimuli/000677_2014-06-08_23-10-32_260595134347_rgbf000158-resize_6/000677_2014-06-08_23-10-32_260595134347_rgbf000158-resize_6-target.png,125,3.556,5.0,9336,125,feet,jsons/VE125_randls_15_rotated.json,1591055,1919080,35,Woman
17,682639,DepthScenes,duration_manipulation_targetAtFixation,jsons/VE125_randls_15_rotated.json,http://54.235.29.9/FacialAge/BNav_EC2/DepthDuration/v2_depth_duration_MTurk/v2_DepthDuration_HTML.html#77,77,1536,722,1536,864,8-21-2022,9-36-59,18,depth_duration_stimuli/001029_2014-06-08_13-17-57_260595134347_rgbf000065-resize_1/001029_2014-06-08_13-17-57_260595134347_rgbf000065-resize_1-target.png,125,3.0835,2.0,7398,123,feet,jsons/VE125_randls_15_rotated.json,1591055,1919080,35,Woman
18,682639,DepthScenes,duration_manipulation_targetAtFixation,jsons/VE125_randls_15_rotated.json,http://54.235.29.9/FacialAge/BNav_EC2/DepthDuration/v2_depth_duration_MTurk/v2_DepthDuration_HTML.html#77,77,1536,722,1536,864,8-21-2022,9-36-59,19,depth_duration_stimuli/001498_2014-06-19_17-45-14_260595134347_rgbf000129-resize_4/001498_2014-06-19_17-45-14_260595134347_rgbf000129-resize-original.jpg,125,1.4075,0.0,7984,124,feet,jsons/VE125_randls_15_rotated.json,1591055,1919080,35,Woman
19,682639,DepthScenes,duration_manipulation_targetAtFixation,jsons/VE125_randls_15_rotated.json,http://54.235.29.9/FacialAge/BNav_EC2/DepthDuration/v2_depth_duration_MTurk/v2_DepthDuration_HTML.html#77,77,1536,722,1536,864,8-21-2022,9-36-59,20,depth_duration_stimuli/000457_2014-06-08_16-52-43_260595134347_rgbf000199-resize_1/000457_2014-06-08_16-52-43_260595134347_rgbf000199-resize_1-target.png,125,3.6489999999999996,2.0,6922,123,feet,jsons/VE125_randls_15_rotated.json,1591055,1919080,35,Woman
20,682639,DepthScenes,duration_manipulation_targetAtFixation,jsons/VE125_randls_15_rotated.json,http://54.235.29.9/FacialAge/BNav_EC2/DepthDuration/v2_depth_duration_MTurk/v2_DepthDuration_HTML.html#77,77,1536,722,1536,864,8-21-2022,9-36-59,21,depth_duration_stimuli/000929_2014-06-09_16-33-19_260595134347_rgbf000139-resize_0/000929_2014-06-09_16-33-19_260595134347_rgbf000139-resize_0-target.png,125,2.8680000000000003,3.6,8034,140,feet,jsons/VE125_randls_15_rotated.json,1591055,1919080,35,Woman
21,682639,DepthScenes,duration_manipulation_targetAtFixation,jsons/VE125_randls_15_rotated.json,http://54.235.29.9/FacialAge/BNav_EC2/DepthDuration/v2_depth_duration_MTurk/v2_DepthDuration_HTML.html#77,77,1536,722,1536,864,8-21-2022,9-36-59,22,depth_duration_stimuli/002467_2014-06-28_20-38-07_260595134347_rgbf000026-resize_2/002467_2014-06-28_20-38-07_260595134347_rgbf000026-resize_2-target.png,125,4.742,4.0,5309,121,feet,jsons/VE125_randls_15_rotated.json,1591055,1919080,35,Woman
22,682639,DepthScenes,duration_manipulation_targetAtFixation,jsons/VE125_randls_15_rotated.json,http://54.235.29.9/FacialAge/BNav_EC2/DepthDuration/v2_depth_duration_MTurk/v2_DepthDuration_HTML.html#77,77,1536,722,1536,864,8-21-2022,9-36-59,23,depth_duration_stimuli/002570_2014-06-24_13-59-54_094959634447_rgbf000059-resize_0/002570_2014-06-24_13-59-54_094959634447_rgbf000059-resize_0-target.png,125,4.037,7.0,6747,126,feet,jsons/VE125_randls_15_rotated.json,1591055,1919080,35,Woman
23,682639,DepthScenes,duration_manipulation_targetAtFixation,jsons/VE125_randls_15_rotated.json,http://54.235.29.9/FacialAge/BNav_EC2/DepthDuration/v2_depth_duration_MTurk/v2_DepthDuration_HTML.html#77,77,1536,722,1536,864,8-21-2022,9-36-59,24,depth_duration_stimuli/001450_2014-06-19_17-02-03_260595134347_rgbf000203-resize_4/001450_2014-06-19_17-02-03_260595134347_rgbf000203-resize_4-target.png,125,4.0106666666667,5.0,6186,125,feet,jsons/VE125_randls_15_rotated.json,1591055,1919080,35,Woman
24,682639,DepthScenes,duration_manipulation_targetAtFixation,jsons/VE125_randls_15_rotated.json,http://54.235.29.9/FacialAge/BNav_EC2/DepthDuration/v2_depth_duration_MTurk/v2_DepthDuration_HTML.html#77,77,1536,722,1536,864,8-21-2022,9-36-59,25,depth_duration_stimuli/001449_2014-06-19_17-01-27_260595134347_rgbf000116-resize_2/001449_2014-06-19_17-01-27_260595134347_rgbf000116-resize_2-target.png,125,3.452,2.2,7769,120,feet,jsons/VE125_randls_15_rotated.json,1591055,1919080,35,Woman
25,682639,DepthScenes,duration_manipulation_targetAtFixation,jsons/VE125_randls_15_rotated.json,http://54.235.29.9/FacialAge/BNav_EC2/DepthDuration/v2_depth_duration_MTurk/v2_DepthDuration_HTML.html#77,77,1536,722,1536,864,8-21-2022,9-36-59,26,depth_duration_stimuli/002953_2014-06-08_17-32-18_094959634447_rgbf000059-resize_5/002953_2014-06-08_17-32-18_094959634447_rgbf000059-resize_5-target.png,125,1.551,5.3,8194,126,feet,jsons/VE125_randls_15_rotated.json,1591055,1919080,35,Woman
26,682639,DepthScenes,duration_manipulation_targetAtFixation,jsons/VE125_randls_15_rotated.json,http://54.235.29.9/FacialAge/BNav_EC2/DepthDuration/v2_depth_duration_MTurk/v2_DepthDuration_HTML.html#77,77,1536,722,1536,864,8-21-2022,9-36-59,27,depth_duration_stimuli/000878_2014-06-08_22-52-45_260595134347_rgbf000045-resize_2/000878_2014-06-08_22-52-45_260595134347_rgbf000045-resize_2-target.png,125,2.092,2.0,4571,115,feet,jsons/VE125_randls_15_rotated.json,1591055,1919080,35,Woman
27,682639,DepthScenes,duration_manipulation_targetAtFixation,jsons/VE125_randls_15_rotated.json,http://54.235.29.9/FacialAge/BNav_EC2/DepthDuration/v2_depth_duration_MTurk/v2_DepthDuration_HTML.html#77,77,1536,722,1536,864,8-21-2022,9-36-59,28,depth_duration_stimuli/000854_2014-06-09_19-43-13_260595134347_rgbf000066-resize_0/000854_2014-06-09_19-43-13_260595134347_rgbf000066-resize_0-target.png,125,3.068,2.0,7255,122,feet,jsons/VE125_randls_15_rotated.json,1591055,1919080,35,Woman
28,682639,DepthScenes,duration_manipulation_targetAtFixation,jsons/VE125_randls_15_rotated.json,http://54.235.29.9/FacialAge/BNav_EC2/DepthDuration/v2_depth_duration_MTurk/v2_DepthDuration_HTML.html#77,77,1536,722,1536,864,8-21-2022,9-36-59,29,depth_duration_stimuli/000758_2014-06-08_22-05-08_260595134347_rgbf000085-resize_0/000758_2014-06-08_22-05-08_260595134347_rgbf000085-resize_0-target.png,125,3.3810000000000002,5.0,4147,123,feet,jsons/VE125_randls_15_rotated.json,1591055,1919080,35,Woman
29,682639,DepthScenes,duration_manipulation_targetAtFixation,jsons/VE125_randls_15_rotated.json,http://54.235.29.9/FacialAge/BNav_EC2/DepthDuration/v2_depth_duration_MTurk/v2_DepthDuration_HTML.html#77,77,1536,722,1536,864,8-21-2022,9-36-59,30,depth_duration_stimuli/002072_2014-06-24_21-48-06_260595134347_rgbf000115-resize_0/002072_2014-06-24_21-48-06_260595134347_rgbf000115-resize-original.jpg,125,4.702,0.0,6205,121,feet,jsons/VE125_randls_15_rotated.json,1591055,1919080,35,Woman
30,682639,DepthScenes,duration_manipulation_targetAtFixation,jsons/VE125_randls_15_rotated.json,http://54.235.29.9/FacialAge/BNav_EC2/DepthDuration/v2_depth_duration_MTurk/v2_DepthDuration_HTML.html#77,77,1536,722,1536,864,8-21-2022,9-36-59,31,depth_duration_stimuli/001132_2014-06-17_14-48-54_260595134347_rgbf000100-resize_2/001132_2014-06-17_14-48-54_260595134347_rgbf000100-resize_2-target.png,125,3.753,1.0,68744,125,feet,jsons/VE125_randls_15_rotated.json,1591055,1919080,35,Woman
31,682639,DepthScenes,duration_manipulation_targetAtFixation,jsons/VE125_randls_15_rotated.json,http://54.235.29.9/FacialAge/BNav_EC2/DepthDuration/v2_depth_duration_MTurk/v2_DepthDuration_HTML.html#77,77,1536,722,1536,864,8-21-2022,9-36-59,32,depth_duration_stimuli/001133_2014-06-17_14-49-16_260595134347_rgbf000100-resize_0/001133_2014-06-17_14-49-16_260595134347_rgbf000100-resize_0-target.png,125,4.2115,2.0,6475,125,feet,jsons/VE125_randls_15_rotated.json,1591055,1919080,35,Woman
32,682639,DepthScenes,duration_manipulation_targetAtFixation,jsons/VE125_randls_15_rotated.json,http://54.235.29.9/FacialAge/BNav_EC2/DepthDuration/v2_depth_duration_MTurk/v2_DepthDuration_HTML.html#77,77,1536,722,1536,864,8-21-2022,9-36-59,33,depth_duration_stimuli/001447_2014-06-19_17-00-32_260595134347_rgbf000082-resize_5/001447_2014-06-19_17-00-32_260595134347_rgbf000082-resize_5-target.png,125,4.13775,2.8,8940,126,feet,jsons/VE125_randls_15_rotated.json,1591055,1919080,35,Woman
33,682639,DepthScenes,duration_manipulation_targetAtFixation,jsons/VE125_randls_15_rotated.json,http://54.235.29.9/FacialAge/BNav_EC2/DepthDuration/v2_depth_duration_MTurk/v2_DepthDuration_HTML.html#77,77,1536,722,1536,864,8-21-2022,9-36-59,34,depth_duration_stimuli/000447_2014-06-08_16-15-46_260595134347_rgbf000130-resize_1/000447_2014-06-08_16-15-46_260595134347_rgbf000130-resize_1-target.png,125,4.479,4.0,5871,125,feet,jsons/VE125_randls_15_rotated.json,1591055,1919080,35,Woman
34,682639,DepthScenes,duration_manipulation_targetAtFixation,jsons/VE125_randls_15_rotated.json,http://54.235.29.9/FacialAge/BNav_EC2/DepthDuration/v2_depth_duration_MTurk/v2_DepthDuration_HTML.html#77,77,1536,722,1536,864,8-21-2022,9-36-59,35,depth_duration_stimuli/000191_2014-05-12_17-07-38_260595134347_rgbf000199-resize_0/000191_2014-05-12_17-07-38_260595134347_rgbf000199-resize_0-target.png,125,3.7995,6.0,5713,124,feet,jsons/VE125_randls_15_rotated.json,1591055,1919080,35,Woman
35,682639,DepthScenes,duration_manipulation_targetAtFixation,jsons/VE125_randls_15_rotated.json,http://54.235.29.9/FacialAge/BNav_EC2/DepthDuration/v2_depth_duration_MTurk/v2_DepthDuration_HTML.html#77,77,1536,722,1536,864,8-21-2022,9-36-59,36,depth_duration_stimuli/000493_2014-06-09_21-01-18_260595134347_rgbf000196-resize_3/000493_2014-06-09_21-01-18_260595134347_rgbf000196-resize_3-target.png,125,3.44,1.0,8529,125,feet,jsons/VE125_randls_15_rotated.json,1591055,1919080,35,Woman
36,682639,DepthScenes,duration_manipulation_targetAtFixation,jsons/VE125_randls_15_rotated.json,http://54.235.29.9/FacialAge/BNav_EC2/DepthDuration/v2_depth_duration_MTurk/v2_DepthDuration_HTML.html#77,77,1536,722,1536,864,8-21-2022,9-36-59,37,depth_duration_stimuli/000691_2014-06-08_13-08-50_260595134347_rgbf000132-resize_3/000691_2014-06-08_13-08-50_260595134347_rgbf000132-resize_3-target.png,125,4.1530000000000005,5.0,8414,124,feet,jsons/VE125_randls_15_rotated.json,1591055,1919080,35,Woman
37,682639,DepthScenes,duration_manipulation_targetAtFixation,jsons/VE125_randls_15_rotated.json,http://54.235.29.9/FacialAge/BNav_EC2/DepthDuration/v2_depth_duration_MTurk/v2_DepthDuration_HTML.html#77,77,1536,722,1536,864,8-21-2022,9-36-59,38,depth_duration_stimuli/002213_2014-06-28_18-37-58_260595134347_rgbf000055-resize_1/002213_2014-06-28_18-37-58_260595134347_rgbf000055-resize_1-target.png,125,3.62,4.0,6196,124,feet,jsons/VE125_randls_15_rotated.json,1591055,1919080,35,Woman
38,682639,DepthScenes,duration_manipulation_targetAtFixation,jsons/VE125_randls_15_rotated.json,http://54.235.29.9/FacialAge/BNav_EC2/DepthDuration/v2_depth_duration_MTurk/v2_DepthDuration_HTML.html#77,77,1536,722,1536,864,8-21-2022,9-36-59,39,depth_duration_stimuli/002103_2014-06-25_20-00-40_260595134347_rgbf000049-resize_0/002103_2014-06-25_20-00-40_260595134347_rgbf000049-resize_0-target.png,125,4.105,2.0,6973,115,feet,jsons/VE125_randls_15_rotated.json,1591055,1919080,35,Woman
39,682639,DepthScenes,duration_manipulation_targetAtFixation,jsons/VE125_randls_15_rotated.json,http://54.235.29.9/FacialAge/BNav_EC2/DepthDuration/v2_depth_duration_MTurk/v2_DepthDuration_HTML.html#77,77,1536,722,1536,864,8-21-2022,9-36-59,40,depth_duration_stimuli/002039_2014-06-24_20-22-38_260595134347_rgbf000084-resize_1/002039_2014-06-24_20-22-38_260595134347_rgbf000084-resize_1-target.png,125,4.408,3.0,9610,125,feet,jsons/VE125_randls_15_rotated.json,1591055,1919080,35,Woman
40,682639,DepthScenes,duration_manipulation_targetAtFixation,jsons/VE125_randls_15_rotated.json,http://54.235.29.9/FacialAge/BNav_EC2/DepthDuration/v2_depth_duration_MTurk/v2_DepthDuration_HTML.html#77,77,1536,722,1536,864,8-21-2022,9-36-59,41,depth_duration_stimuli/003048_2014-06-15_13-49-43_094959634447_rgbf000150-resize_1/003048_2014-06-15_13-49-43_094959634447_rgbf000150-resize_1-target.png,125,4.0035,7.0,6091,121,feet,jsons/VE125_randls_15_rotated.json,1591055,1919080,35,Woman
41,682639,DepthScenes,duration_manipulation_targetAtFixation,jsons/VE125_randls_15_rotated.json,http://54.235.29.9/FacialAge/BNav_EC2/DepthDuration/v2_depth_duration_MTurk/v2_DepthDuration_HTML.html#77,77,1536,722,1536,864,8-21-2022,9-36-59,42,depth_duration_stimuli/002043_2014-06-24_20-29-38_260595134347_rgbf000039-resize_4/002043_2014-06-24_20-29-38_260595134347_rgbf000039-resize_4-target.png,125,2.8435,2.0,7014,125,feet,jsons/VE125_randls_15_rotated.json,1591055,1919080,35,Woman
42,682639,DepthScenes,duration_manipulation_targetAtFixation,jsons/VE125_randls_15_rotated.json,http://54.235.29.9/FacialAge/BNav_EC2/DepthDuration/v2_depth_duration_MTurk/v2_DepthDuration_HTML.html#77,77,1536,722,1536,864,8-21-2022,9-36-59,43,depth_duration_stimuli/001136_2014-06-17_15-19-41_260595134347_rgbf000076-resize_3/001136_2014-06-17_15-19-41_260595134347_rgbf000076-resize_3-target.png,125,1.8655,7.5,9056,124,feet,jsons/VE125_randls_15_rotated.json,1591055,1919080,35,Woman
43,682639,DepthScenes,duration_manipulation_targetAtFixation,jsons/VE125_randls_15_rotated.json,http://54.235.29.9/FacialAge/BNav_EC2/DepthDuration/v2_depth_duration_MTurk/v2_DepthDuration_HTML.html#77,77,1536,722,1536,864,8-21-2022,9-36-59,44,depth_duration_stimuli/001164_2014-06-17_15-35-46_260595134347_rgbf000085-resize_3/001164_2014-06-17_15-35-46_260595134347_rgbf000085-resize_3-target.png,125,2.354,5.0,6357,113,feet,jsons/VE125_randls_15_rotated.json,1591055,1919080,35,Woman
44,682639,DepthScenes,duration_manipulation_targetAtFixation,jsons/VE125_randls_15_rotated.json,http://54.235.29.9/FacialAge/BNav_EC2/DepthDuration/v2_depth_duration_MTurk/v2_DepthDuration_HTML.html#77,77,1536,722,1536,864,8-21-2022,9-36-59,45,depth_duration_stimuli/002545_2014-06-24_13-38-53_094959634447_rgbf000080-resize_4/002545_2014-06-24_13-38-53_094959634447_rgbf000080-resize_4-target.png,125,1.9205,2.0,10712,125,feet,jsons/VE125_randls_15_rotated.json,1591055,1919080,35,Woman
45,682639,DepthScenes,duration_manipulation_targetAtFixation,jsons/VE125_randls_15_rotated.json,http://54.235.29.9/FacialAge/BNav_EC2/DepthDuration/v2_depth_duration_MTurk/v2_DepthDuration_HTML.html#77,77,1536,722,1536,864,8-21-2022,9-36-59,46,depth_duration_stimuli/001092_2014-06-15_17-34-58_260595134347_rgbf000171-resize_3/001092_2014-06-15_17-34-58_260595134347_rgbf000171-resize_3-target.png,125,2.6935,3.0,6207,123,feet,jsons/VE125_randls_15_rotated.json,1591055,1919080,35,Woman
46,682639,DepthScenes,duration_manipulation_targetAtFixation,jsons/VE125_randls_15_rotated.json,http://54.235.29.9/FacialAge/BNav_EC2/DepthDuration/v2_depth_duration_MTurk/v2_DepthDuration_HTML.html#77,77,1536,722,1536,864,8-21-2022,9-36-59,47,depth_duration_stimuli/002750_2014-06-22_19-08-03_094959634447_rgbf000094-resize_4/002750_2014-06-22_19-08-03_094959634447_rgbf000094-resize_4-target.png,125,2.354,4.0,5824,121,feet,jsons/VE125_randls_15_rotated.json,1591055,1919080,35,Woman
47,682639,DepthScenes,duration_manipulation_targetAtFixation,jsons/VE125_randls_15_rotated.json,http://54.235.29.9/FacialAge/BNav_EC2/DepthDuration/v2_depth_duration_MTurk/v2_DepthDuration_HTML.html#77,77,1536,722,1536,864,8-21-2022,9-36-59,48,depth_duration_stimuli/002549_2014-06-24_13-41-39_094959634447_rgbf000022-resize_3/002549_2014-06-24_13-41-39_094959634447_rgbf000022-resize_3-target.png,125,1.476,4.0,5371,116,feet,jsons/VE125_randls_15_rotated.json,1591055,1919080,35,Woman
48,682639,DepthScenes,duration_manipulation_targetAtFixation,jsons/VE125_randls_15_rotated.json,http://54.235.29.9/FacialAge/BNav_EC2/DepthDuration/v2_depth_duration_MTurk/v2_DepthDuration_HTML.html#77,77,1536,722,1536,864,8-21-2022,9-36-59,49,depth_duration_stimuli/001170_2014-06-17_15-43-44_260595134347_rgbf000096-resize_6/001170_2014-06-17_15-43-44_260595134347_rgbf000096-resize-original.jpg,125,1.1909999999999998,0.0,7042,125,feet,jsons/VE125_randls_15_rotated.json,1591055,1919080,35,Woman
49,682639,DepthScenes,duration_manipulation_targetAtFixation,jsons/VE125_randls_15_rotated.json,http://54.235.29.9/FacialAge/BNav_EC2/DepthDuration/v2_depth_duration_MTurk/v2_DepthDuration_HTML.html#77,77,1536,722,1536,864,8-21-2022,9-36-59,50,depth_duration_stimuli/001032_2014-06-08_13-23-17_260595134347_rgbf000021-resize_3/001032_2014-06-08_13-23-17_260595134347_rgbf000021-resize_3-target.png,125,3.2725,2.0,3424,137,feet,jsons/VE125_randls_15_rotated.json,1591055,1919080,35,Woman
50,682639,DepthScenes,duration_manipulation_targetAtFixation,jsons/VE125_randls_15_rotated.json,http://54.235.29.9/FacialAge/BNav_EC2/DepthDuration/v2_depth_duration_MTurk/v2_DepthDuration_HTML.html#77,77,1536,722,1536,864,8-21-2022,9-36-59,51,depth_duration_stimuli/001059_2014-06-08_21-53-27_260595134347_rgbf000061-resize_4/001059_2014-06-08_21-53-27_260595134347_rgbf000061-resize_4-target.png,125,2.4185,2.0,65485,124,feet,jsons/VE125_randls_15_rotated.json,1591055,1919080,35,Woman
51,682639,DepthScenes,duration_manipulation_targetAtFixation,jsons/VE125_randls_15_rotated.json,http://54.235.29.9/FacialAge/BNav_EC2/DepthDuration/v2_depth_duration_MTurk/v2_DepthDuration_HTML.html#77,77,1536,722,1536,864,8-21-2022,9-36-59,52,depth_duration_stimuli/000109_2014-05-14_23-41-52_260595134347_rgbf000035-resize_9/000109_2014-05-14_23-41-52_260595134347_rgbf000035-resize_9-target.png,125,1.3545,1.0,6474,123,feet,jsons/VE125_randls_15_rotated.json,1591055,1919080,35,Woman
52,682639,DepthScenes,duration_manipulation_targetAtFixation,jsons/VE125_randls_15_rotated.json,http://54.235.29.9/FacialAge/BNav_EC2/DepthDuration/v2_depth_duration_MTurk/v2_DepthDuration_HTML.html#77,77,1536,722,1536,864,8-21-2022,9-36-59,53,depth_duration_stimuli/000470_2014-06-09_19-42-40_260595134347_rgbf000094-resize_1/000470_2014-06-09_19-42-40_260595134347_rgbf000094-resize_1-target.png,125,1.831,2.0,4142,125,feet,jsons/VE125_randls_15_rotated.json,1591055,1919080,35,Woman
53,682639,DepthScenes,duration_manipulation_targetAtFixation,jsons/VE125_randls_15_rotated.json,http://54.235.29.9/FacialAge/BNav_EC2/DepthDuration/v2_depth_duration_MTurk/v2_DepthDuration_HTML.html#77,77,1536,722,1536,864,8-21-2022,9-36-59,54,depth_duration_stimuli/002199_2014-06-28_18-33-56_260595134347_rgbf000074-resize_0/002199_2014-06-28_18-33-56_260595134347_rgbf000074-resize_0-target.png,125,1.996,3.2,6818,137,feet,jsons/VE125_randls_15_rotated.json,1591055,1919080,35,Woman
54,682639,DepthScenes,duration_manipulation_targetAtFixation,jsons/VE125_randls_15_rotated.json,http://54.235.29.9/FacialAge/BNav_EC2/DepthDuration/v2_depth_duration_MTurk/v2_DepthDuration_HTML.html#77,77,1536,722,1536,864,8-21-2022,9-36-59,55,depth_duration_stimuli/001056_2014-06-08_18-46-44_260595134347_rgbf000068-resize_0/001056_2014-06-08_18-46-44_260595134347_rgbf000068-resize_0-target.png,125,2.6625,1.0,7106,126,feet,jsons/VE125_randls_15_rotated.json,1591055,1919080,35,Woman
55,682639,DepthScenes,duration_manipulation_targetAtFixation,jsons/VE125_randls_15_rotated.json,http://54.235.29.9/FacialAge/BNav_EC2/DepthDuration/v2_depth_duration_MTurk/v2_DepthDuration_HTML.html#77,77,1536,722,1536,864,8-21-2022,9-36-59,56,depth_duration_stimuli/000483_2014-06-09_20-41-45_260595134347_rgbf000116-resize_4/000483_2014-06-09_20-41-45_260595134347_rgbf000116-resize_4-target.png,125,1.337,2.0,9633,125,feet,jsons/VE125_randls_15_rotated.json,1591055,1919080,35,Woman
56,682639,DepthScenes,duration_manipulation_targetAtFixation,jsons/VE125_randls_15_rotated.json,http://54.235.29.9/FacialAge/BNav_EC2/DepthDuration/v2_depth_duration_MTurk/v2_DepthDuration_HTML.html#77,77,1536,722,1536,864,8-21-2022,9-36-59,57,depth_duration_stimuli/000469_2014-06-09_19-42-10_260595134347_rgbf000081-resize_1/000469_2014-06-09_19-42-10_260595134347_rgbf000081-resize_1-target.png,125,1.652,5.5,5537,124,feet,jsons/VE125_randls_15_rotated.json,1591055,1919080,35,Woman
57,682639,DepthScenes,duration_manipulation_targetAtFixation,jsons/VE125_randls_15_rotated.json,http://54.235.29.9/FacialAge/BNav_EC2/DepthDuration/v2_depth_duration_MTurk/v2_DepthDuration_HTML.html#77,77,1536,722,1536,864,8-21-2022,9-36-59,58,depth_duration_stimuli/001516_2014-06-20_16-25-09_260595134347_rgbf000076-resize_2/001516_2014-06-20_16-25-09_260595134347_rgbf000076-resize_2-target.png,125,1.7445,1.0,6124,112,feet,jsons/VE125_randls_15_rotated.json,1591055,1919080,35,Woman
58,682639,DepthScenes,duration_manipulation_targetAtFixation,jsons/VE125_randls_15_rotated.json,http://54.235.29.9/FacialAge/BNav_EC2/DepthDuration/v2_depth_duration_MTurk/v2_DepthDuration_HTML.html#77,77,1536,722,1536,864,8-21-2022,9-36-59,59,depth_duration_stimuli/002118_2014-06-25_20-32-08_260595134347_rgbf000078-resize_1/002118_2014-06-25_20-32-08_260595134347_rgbf000078-resize_1-target.png,125,2.6460000000000004,1.0,5158,125,feet,jsons/VE125_randls_15_rotated.json,1591055,1919080,35,Woman
59,682639,DepthScenes,duration_manipulation_targetAtFixation,jsons/VE125_randls_15_rotated.json,http://54.235.29.9/FacialAge/BNav_EC2/DepthDuration/v2_depth_duration_MTurk/v2_DepthDuration_HTML.html#77,77,1536,722,1536,864,8-21-2022,9-36-59,60,depth_duration_stimuli/002639_2014-06-24_14-51-37_094959634447_rgbf000074-resize_4/002639_2014-06-24_14-51-37_094959634447_rgbf000074-resize_4-target.png,125,4.0375,2.2,7337,127,feet,jsons/VE125_randls_15_rotated.json,1591055,1919080,35,Woman
60,682639,DepthScenes,duration_manipulation_targetAtFixation,jsons/VE125_randls_15_rotated.json,http://54.235.29.9/FacialAge/BNav_EC2/DepthDuration/v2_depth_duration_MTurk/v2_DepthDuration_HTML.html#77,77,1536,722,1536,864,8-21-2022,9-36-59,61,depth_duration_stimuli/003292_2014-05-14_21-53-49_094959634447_rgbf000100-resize_2/003292_2014-05-14_21-53-49_094959634447_rgbf000100-resize_2-target.png,125,3.4815,1.0,6864,118,feet,jsons/VE125_randls_15_rotated.json,1591055,1919080,35,Woman
61,682639,DepthScenes,duration_manipulation_targetAtFixation,jsons/VE125_randls_15_rotated.json,http://54.235.29.9/FacialAge/BNav_EC2/DepthDuration/v2_depth_duration_MTurk/v2_DepthDuration_HTML.html#77,77,1536,722,1536,864,8-21-2022,9-36-59,62,depth_duration_stimuli/001214_2014-06-17_16-13-55_260595134347_rgbf000111-resize_0/001214_2014-06-17_16-13-55_260595134347_rgbf000111-resize_0-target.png,125,2.6505,1.0,4489,125,feet,jsons/VE125_randls_15_rotated.json,1591055,1919080,35,Woman
62,682639,DepthScenes,duration_manipulation_targetAtFixation,jsons/VE125_randls_15_rotated.json,http://54.235.29.9/FacialAge/BNav_EC2/DepthDuration/v2_depth_duration_MTurk/v2_DepthDuration_HTML.html#77,77,1536,722,1536,864,8-21-2022,9-36-59,63,depth_duration_stimuli/000810_2014-06-08_17-20-01_260595134347_rgbf000105-resize_0/000810_2014-06-08_17-20-01_260595134347_rgbf000105-resize_0-target.png,125,1.4865,2.0,5564,128,feet,jsons/VE125_randls_15_rotated.json,1591055,1919080,35,Woman
63,682639,DepthScenes,duration_manipulation_targetAtFixation,jsons/VE125_randls_15_rotated.json,http://54.235.29.9/FacialAge/BNav_EC2/DepthDuration/v2_depth_duration_MTurk/v2_DepthDuration_HTML.html#77,77,1536,722,1536,864,8-21-2022,9-36-59,64,depth_duration_stimuli/001094_2014-06-15_17-36-00_260595134347_rgbf000205-resize_0/001094_2014-06-15_17-36-00_260595134347_rgbf000205-resize_0-target.png,125,4.2175,3.0,6068,124,feet,jsons/VE125_randls_15_rotated.json,1591055,1919080,35,Woman
64,682639,DepthScenes,duration_manipulation_targetAtFixation,jsons/VE125_randls_15_rotated.json,http://54.235.29.9/FacialAge/BNav_EC2/DepthDuration/v2_depth_duration_MTurk/v2_DepthDuration_HTML.html#77,77,1536,722,1536,864,8-21-2022,9-36-59,65,depth_duration_stimuli/000692_2014-06-08_13-09-42_260595134347_rgbf000199-resize_2/000692_2014-06-08_13-09-42_260595134347_rgbf000199-resize_2-target.png,125,3.661,5.0,7139,125,feet,jsons/VE125_randls_15_rotated.json,1591055,1919080,35,Woman
65,682639,DepthScenes,duration_manipulation_targetAtFixation,jsons/VE125_randls_15_rotated.json,http://54.235.29.9/FacialAge/BNav_EC2/DepthDuration/v2_depth_duration_MTurk/v2_DepthDuration_HTML.html#77,77,1536,722,1536,864,8-21-2022,9-36-59,66,depth_duration_stimuli/001540_2014-06-20_17-01-05_260595134347_rgbf000086-resize_2/001540_2014-06-20_17-01-05_260595134347_rgbf000086-resize-original.jpg,125,1.459,0.0,8889,124,feet,jsons/VE125_randls_15_rotated.json,1591055,1919080,35,Woman
66,682639,DepthScenes,duration_manipulation_targetAtFixation,jsons/VE125_randls_15_rotated.json,http://54.235.29.9/FacialAge/BNav_EC2/DepthDuration/v2_depth_duration_MTurk/v2_DepthDuration_HTML.html#77,77,1536,722,1536,864,8-21-2022,9-36-59,67,depth_duration_stimuli/001235_2014-06-17_16-37-36_260595134347_rgbf000084-resize_4/001235_2014-06-17_16-37-36_260595134347_rgbf000084-resize_4-target.png,125,3.6605,5.7,7911,124,feet,jsons/VE125_randls_15_rotated.json,1591055,1919080,35,Woman
67,682639,DepthScenes,duration_manipulation_targetAtFixation,jsons/VE125_randls_15_rotated.json,http://54.235.29.9/FacialAge/BNav_EC2/DepthDuration/v2_depth_duration_MTurk/v2_DepthDuration_HTML.html#77,77,1536,722,1536,864,8-21-2022,9-36-59,68,depth_duration_stimuli/000788_2014-06-08_22-34-36_260595134347_rgbf000131-resize_1/000788_2014-06-08_22-34-36_260595134347_rgbf000131-resize_1-target.png,125,3.359,4.0,6887,125,feet,jsons/VE125_randls_15_rotated.json,1591055,1919080,35,Woman
68,682639,DepthScenes,duration_manipulation_targetAtFixation,jsons/VE125_randls_15_rotated.json,http://54.235.29.9/FacialAge/BNav_EC2/DepthDuration/v2_depth_duration_MTurk/v2_DepthDuration_HTML.html#77,77,1536,722,1536,864,8-21-2022,9-36-59,69,depth_duration_stimuli/000780_2014-06-08_22-28-29_260595134347_rgbf000126-resize_1/000780_2014-06-08_22-28-29_260595134347_rgbf000126-resize_1-target.png,125,3.3825,6.0,7520,117,feet,jsons/VE125_randls_15_rotated.json,1591055,1919080,35,Woman
69,682639,DepthScenes,duration_manipulation_targetAtFixation,jsons/VE125_randls_15_rotated.json,http://54.235.29.9/FacialAge/BNav_EC2/DepthDuration/v2_depth_duration_MTurk/v2_DepthDuration_HTML.html#77,77,1536,722,1536,864,8-21-2022,9-36-59,70,depth_duration_stimuli/002445_2014-06-28_20-32-16_260595134347_rgbf000029-resize_4/002445_2014-06-28_20-32-16_260595134347_rgbf000029-resize_4-target.png,125,2.5315,1.0,4788,125,feet,jsons/VE125_randls_15_rotated.json,1591055,1919080,35,Woman
70,682639,DepthScenes,duration_manipulation_targetAtFixation,jsons/VE125_randls_15_rotated.json,http://54.235.29.9/FacialAge/BNav_EC2/DepthDuration/v2_depth_duration_MTurk/v2_DepthDuration_HTML.html#77,77,1536,722,1536,864,8-21-2022,9-36-59,71,depth_duration_stimuli/001650_2014-06-20_12-09-00_260595134347_rgbf000087-resize_3/001650_2014-06-20_12-09-00_260595134347_rgbf000087-resize_3-target.png,125,1.9505,3.0,6838,122,feet,jsons/VE125_randls_15_rotated.json,1591055,1919080,35,Woman
71,682639,DepthScenes,duration_manipulation_targetAtFixation,jsons/VE125_randls_15_rotated.json,http://54.235.29.9/FacialAge/BNav_EC2/DepthDuration/v2_depth_duration_MTurk/v2_DepthDuration_HTML.html#77,77,1536,722,1536,864,8-21-2022,9-36-59,72,depth_duration_stimuli/000682_2014-06-08_23-14-58_260595134347_rgbf000041-resize_5/000682_2014-06-08_23-14-58_260595134347_rgbf000041-resize_5-target.png,125,2.7239999999999998,2.0,5286,124,feet,jsons/VE125_randls_15_rotated.json,1591055,1919080,35,Woman
72,682639,DepthScenes,duration_manipulation_targetAtFixation,jsons/VE125_randls_15_rotated.json,http://54.235.29.9/FacialAge/BNav_EC2/DepthDuration/v2_depth_duration_MTurk/v2_DepthDuration_HTML.html#77,77,1536,722,1536,864,8-21-2022,9-36-59,73,depth_duration_stimuli/003228_2014-05-14_13-42-35_094959634447_rgbf000101-resize_1/003228_2014-05-14_13-42-35_094959634447_rgbf000101-resize_1-target.png,125,1.9680000000000002,6.0,6635,137,feet,jsons/VE125_randls_15_rotated.json,1591055,1919080,35,Woman
73,682639,DepthScenes,duration_manipulation_targetAtFixation,jsons/VE125_randls_15_rotated.json,http://54.235.29.9/FacialAge/BNav_EC2/DepthDuration/v2_depth_duration_MTurk/v2_DepthDuration_HTML.html#77,77,1536,722,1536,864,8-21-2022,9-36-59,74,depth_duration_stimuli/002600_2014-06-24_14-27-04_094959634447_rgbf000074-resize_2/002600_2014-06-24_14-27-04_094959634447_rgbf000074-resize_2-target.png,125,2.7575,1.0,3828,124,feet,jsons/VE125_randls_15_rotated.json,1591055,1919080,35,Woman
74,682639,DepthScenes,duration_manipulation_targetAtFixation,jsons/VE125_randls_15_rotated.json,http://54.235.29.9/FacialAge/BNav_EC2/DepthDuration/v2_depth_duration_MTurk/v2_DepthDuration_HTML.html#77,77,1536,722,1536,864,8-21-2022,9-36-59,75,depth_duration_stimuli/002444_2014-06-28_20-32-08_260595134347_rgbf000027-resize_0/002444_2014-06-28_20-32-08_260595134347_rgbf000027-resize_0-target.png,125,4.388999999999999,6.5,10082,117,feet,jsons/VE125_randls_15_rotated.json,1591055,1919080,35,Woman
75,682639,DepthScenes,duration_manipulation_targetAtFixation,jsons/VE125_randls_15_rotated.json,http://54.235.29.9/FacialAge/BNav_EC2/DepthDuration/v2_depth_duration_MTurk/v2_DepthDuration_HTML.html#77,77,1536,722,1536,864,8-21-2022,9-36-59,76,depth_duration_stimuli/000436_2014-06-09_22-25-11_260595134347_rgbf000137-resize_1/000436_2014-06-09_22-25-11_260595134347_rgbf000137-resize_1-target.png,125,4.0705,8.0,5464,123,feet,jsons/VE125_randls_15_rotated.json,1591055,1919080,35,Woman
76,682639,DepthScenes,duration_manipulation_targetAtFixation,jsons/VE125_randls_15_rotated.json,http://54.235.29.9/FacialAge/BNav_EC2/DepthDuration/v2_depth_duration_MTurk/v2_DepthDuration_HTML.html#77,77,1536,722,1536,864,8-21-2022,9-36-59,77,depth_duration_stimuli/000137_2014-05-20_17-04-49_260595134347_rgbf000120-resize_1/000137_2014-05-20_17-04-49_260595134347_rgbf000120-resize_1-target.png,125,3.786,3.0,7264,118,feet,jsons/VE125_randls_15_rotated.json,1591055,1919080,35,Woman
77,682639,DepthScenes,duration_manipulation_targetAtFixation,jsons/VE125_randls_15_rotated.json,http://54.235.29.9/FacialAge/BNav_EC2/DepthDuration/v2_depth_duration_MTurk/v2_DepthDuration_HTML.html#77,77,1536,722,1536,864,8-21-2022,9-36-59,78,depth_duration_stimuli/000736_2014-06-08_18-24-15_260595134347_rgbf000206-resize_3/000736_2014-06-08_18-24-15_260595134347_rgbf000206-resize_3-target.png,125,3.515,3.0,4168,120,feet,jsons/VE125_randls_15_rotated.json,1591055,1919080,35,Woman
78,682639,DepthScenes,duration_manipulation_targetAtFixation,jsons/VE125_randls_15_rotated.json,http://54.235.29.9/FacialAge/BNav_EC2/DepthDuration/v2_depth_duration_MTurk/v2_DepthDuration_HTML.html#77,77,1536,722,1536,864,8-21-2022,9-36-59,79,depth_duration_stimuli/002344_2014-06-28_20-06-29_260595134347_rgbf000030-resize_1/002344_2014-06-28_20-06-29_260595134347_rgbf000030-resize_1-target.png,125,1.5795,5.0,5919,124,feet,jsons/VE125_randls_15_rotated.json,1591055,1919080,35,Woman
79,682639,DepthScenes,duration_manipulation_targetAtFixation,jsons/VE125_randls_15_rotated.json,http://54.235.29.9/FacialAge/BNav_EC2/DepthDuration/v2_depth_duration_MTurk/v2_DepthDuration_HTML.html#77,77,1536,722,1536,864,8-21-2022,9-36-59,80,depth_duration_stimuli/002725_2014-06-22_11-47-51_094959634447_rgbf000070-resize_1/002725_2014-06-22_11-47-51_094959634447_rgbf000070-resize_1-target.png,125,2.195,1.0,6538,136,feet,jsons/VE125_randls_15_rotated.json,1591055,1919080,35,Woman
80,682639,DepthScenes,duration_manipulation_targetAtFixation,jsons/VE125_randls_15_rotated.json,http://54.235.29.9/FacialAge/BNav_EC2/DepthDuration/v2_depth_duration_MTurk/v2_DepthDuration_HTML.html#77,77,1536,722,1536,864,8-21-2022,9-36-59,81,depth_duration_stimuli/003587_2014-05-23_16-48-02_094959634447_rgbf002384-resize_2/003587_2014-05-23_16-48-02_094959634447_rgbf002384-resize_2-target.png,125,1.357,1.0,7469,120,feet,jsons/VE125_randls_15_rotated.json,1591055,1919080,35,Woman
81,682639,DepthScenes,duration_manipulation_targetAtFixation,jsons/VE125_randls_15_rotated.json,http://54.235.29.9/FacialAge/BNav_EC2/DepthDuration/v2_depth_duration_MTurk/v2_DepthDuration_HTML.html#77,77,1536,722,1536,864,8-21-2022,9-36-59,82,depth_duration_stimuli/001167_2014-06-17_15-38-07_260595134347_rgbf000108-resize_0/001167_2014-06-17_15-38-07_260595134347_rgbf000108-resize_0-target.png,125,1.8505,1.1,6509,125,feet,jsons/VE125_randls_15_rotated.json,1591055,1919080,35,Woman
82,682639,DepthScenes,duration_manipulation_targetAtFixation,jsons/VE125_randls_15_rotated.json,http://54.235.29.9/FacialAge/BNav_EC2/DepthDuration/v2_depth_duration_MTurk/v2_DepthDuration_HTML.html#77,77,1536,722,1536,864,8-21-2022,9-36-59,83,depth_duration_stimuli/000556_2014-06-09_22-42-56_260595134347_rgbf000214-resize_1/000556_2014-06-09_22-42-56_260595134347_rgbf000214-resize_1-target.png,125,4.8415,6.0,8681,122,feet,jsons/VE125_randls_15_rotated.json,1591055,1919080,35,Woman
83,682639,DepthScenes,duration_manipulation_targetAtFixation,jsons/VE125_randls_15_rotated.json,http://54.235.29.9/FacialAge/BNav_EC2/DepthDuration/v2_depth_duration_MTurk/v2_DepthDuration_HTML.html#77,77,1536,722,1536,864,8-21-2022,9-36-59,84,depth_duration_stimuli/001158_2014-06-17_15-32-16_260595134347_rgbf000138-resize_2/001158_2014-06-17_15-32-16_260595134347_rgbf000138-resize_2-target.png,125,4.5315,3.0,5519,125,feet,jsons/VE125_randls_15_rotated.json,1591055,1919080,35,Woman
84,682639,DepthScenes,duration_manipulation_targetAtFixation,jsons/VE125_randls_15_rotated.json,http://54.235.29.9/FacialAge/BNav_EC2/DepthDuration/v2_depth_duration_MTurk/v2_DepthDuration_HTML.html#77,77,1536,722,1536,864,8-21-2022,9-36-59,85,depth_duration_stimuli/002758_2014-06-22_19-11-20_094959634447_rgbf000128-resize_1/002758_2014-06-22_19-11-20_094959634447_rgbf000128-resize_1-target.png,125,2.555,1.0,5905,119,feet,jsons/VE125_randls_15_rotated.json,1591055,1919080,35,Woman
85,682639,DepthScenes,duration_manipulation_targetAtFixation,jsons/VE125_randls_15_rotated.json,http://54.235.29.9/FacialAge/BNav_EC2/DepthDuration/v2_depth_duration_MTurk/v2_DepthDuration_HTML.html#77,77,1536,722,1536,864,8-21-2022,9-36-59,86,depth_duration_stimuli/002630_2014-06-24_14-47-50_094959634447_rgbf000055-resize_1/002630_2014-06-24_14-47-50_094959634447_rgbf000055-resize_1-target.png,125,3.0095,6.0,5555,116,feet,jsons/VE125_randls_15_rotated.json,1591055,1919080,35,Woman
86,682639,DepthScenes,duration_manipulation_targetAtFixation,jsons/VE125_randls_15_rotated.json,http://54.235.29.9/FacialAge/BNav_EC2/DepthDuration/v2_depth_duration_MTurk/v2_DepthDuration_HTML.html#77,77,1536,722,1536,864,8-21-2022,9-36-59,87,depth_duration_stimuli/002425_2014-06-28_20-27-29_260595134347_rgbf000031-resize_8/002425_2014-06-28_20-27-29_260595134347_rgbf000031-resize_8-target.png,125,3.8960000000000004,3.0,5296,109,feet,jsons/VE125_randls_15_rotated.json,1591055,1919080,35,Woman
87,682639,DepthScenes,duration_manipulation_targetAtFixation,jsons/VE125_randls_15_rotated.json,http://54.235.29.9/FacialAge/BNav_EC2/DepthDuration/v2_depth_duration_MTurk/v2_DepthDuration_HTML.html#77,77,1536,722,1536,864,8-21-2022,9-36-59,88,depth_duration_stimuli/000642_2014-06-08_16-59-25_260595134347_rgbf000098-resize_2/000642_2014-06-08_16-59-25_260595134347_rgbf000098-resize_2-target.png,125,2.8815,2.0,27441,124,feet,jsons/VE125_randls_15_rotated.json,1591055,1919080,35,Woman
88,682639,DepthScenes,duration_manipulation_targetAtFixation,jsons/VE125_randls_15_rotated.json,http://54.235.29.9/FacialAge/BNav_EC2/DepthDuration/v2_depth_duration_MTurk/v2_DepthDuration_HTML.html#77,77,1536,722,1536,864,8-21-2022,9-36-59,89,depth_duration_stimuli/001828_2014-06-26_21-40-03_260595134347_rgbf000024-resize_0/001828_2014-06-26_21-40-03_260595134347_rgbf000024-resize_0-target.png,125,4.8260000000000005,0.0,4305,124,feet,jsons/VE125_randls_15_rotated.json,1591055,1919080,35,Woman
89,682639,DepthScenes,duration_manipulation_targetAtFixation,jsons/VE125_randls_15_rotated.json,http://54.235.29.9/FacialAge/BNav_EC2/DepthDuration/v2_depth_duration_MTurk/v2_DepthDuration_HTML.html#77,77,1536,722,1536,864,8-21-2022,9-36-59,90,depth_duration_stimuli/000009_2014-05-26_14-32-05_260595134347_rgbf000034-resize_3/000009_2014-05-26_14-32-05_260595134347_rgbf000034-resize_3-target.png,125,3.8715,7.0,5576,124,feet,jsons/VE125_randls_15_rotated.json,1591055,1919080,35,Woman
90,682639,DepthScenes,duration_manipulation_targetAtFixation,jsons/VE125_randls_15_rotated.json,http://54.235.29.9/FacialAge/BNav_EC2/DepthDuration/v2_depth_duration_MTurk/v2_DepthDuration_HTML.html#77,77,1536,722,1536,864,8-21-2022,9-36-59,91,depth_duration_stimuli/000103_2014-05-14_22-01-17_260595134347_rgbf000152-resize_5/000103_2014-05-14_22-01-17_260595134347_rgbf000152-resize_5-target.png,125,1.993,4.0,5901,119,feet,jsons/VE125_randls_15_rotated.json,1591055,1919080,35,Woman
91,682639,DepthScenes,duration_manipulation_targetAtFixation,jsons/VE125_randls_15_rotated.json,http://54.235.29.9/FacialAge/BNav_EC2/DepthDuration/v2_depth_duration_MTurk/v2_DepthDuration_HTML.html#77,77,1536,722,1536,864,8-21-2022,9-36-59,92,depth_duration_stimuli/001555_2014-06-20_17-12-10_260595134347_rgbf000065-resize_4/001555_2014-06-20_17-12-10_260595134347_rgbf000065-resize_4-target.png,125,1.633,1.0,4524,124,feet,jsons/VE125_randls_15_rotated.json,1591055,1919080,35,Woman
92,682639,DepthScenes,duration_manipulation_targetAtFixation,jsons/VE125_randls_15_rotated.json,http://54.235.29.9/FacialAge/BNav_EC2/DepthDuration/v2_depth_duration_MTurk/v2_DepthDuration_HTML.html#77,77,1536,722,1536,864,8-21-2022,9-36-59,93,depth_duration_stimuli/000943_2014-06-09_19-31-07_260595134347_rgbf000128-resize_1/000943_2014-06-09_19-31-07_260595134347_rgbf000128-resize_1-target.png,125,1.9765,3.0,19847,124,feet,jsons/VE125_randls_15_rotated.json,1591055,1919080,35,Woman
93,682639,DepthScenes,duration_manipulation_targetAtFixation,jsons/VE125_randls_15_rotated.json,http://54.235.29.9/FacialAge/BNav_EC2/DepthDuration/v2_depth_duration_MTurk/v2_DepthDuration_HTML.html#77,77,1536,722,1536,864,8-21-2022,9-36-59,94,depth_duration_stimuli/003070_2014-06-15_14-58-27_094959634447_rgbf000150-resize_3/003070_2014-06-15_14-58-27_094959634447_rgbf000150-resize_3-target.png,125,2.9415,1.0,29212,126,feet,jsons/VE125_randls_15_rotated.json,1591055,1919080,35,Woman
94,682639,DepthScenes,duration_manipulation_targetAtFixation,jsons/VE125_randls_15_rotated.json,http://54.235.29.9/FacialAge/BNav_EC2/DepthDuration/v2_depth_duration_MTurk/v2_DepthDuration_HTML.html#77,77,1536,722,1536,864,8-21-2022,9-36-59,95,depth_duration_stimuli/003338_2014-05-20_11-01-23_094959634447_rgbf000051-resize_6/003338_2014-05-20_11-01-23_094959634447_rgbf000051-resize_6-target.png,125,1.693,1.0,5598,126,feet,jsons/VE125_randls_15_rotated.json,1591055,1919080,35,Woman
95,682639,DepthScenes,duration_manipulation_targetAtFixation,jsons/VE125_randls_15_rotated.json,http://54.235.29.9/FacialAge/BNav_EC2/DepthDuration/v2_depth_duration_MTurk/v2_DepthDuration_HTML.html#77,77,1536,722,1536,864,8-21-2022,9-36-59,96,depth_duration_stimuli/002509_2014-06-24_13-19-22_094959634447_rgbf000077-resize_0/002509_2014-06-24_13-19-22_094959634447_rgbf000077-resize_0-target.png,125,1.3065,2.0,3566,124,feet,jsons/VE125_randls_15_rotated.json,1591055,1919080,35,Woman
96,682639,DepthScenes,duration_manipulation_targetAtFixation,jsons/VE125_randls_15_rotated.json,http://54.235.29.9/FacialAge/BNav_EC2/DepthDuration/v2_depth_duration_MTurk/v2_DepthDuration_HTML.html#77,77,1536,722,1536,864,8-21-2022,9-36-59,97,depth_duration_stimuli/002660_2014-06-13_15-44-18_094959634447_rgbf001878-resize_2/002660_2014-06-13_15-44-18_094959634447_rgbf001878-resize_2-target.png,125,3.576,1.0,6994,125,feet,jsons/VE125_randls_15_rotated.json,1591055,1919080,35,Woman
97,682639,DepthScenes,duration_manipulation_targetAtFixation,jsons/VE125_randls_15_rotated.json,http://54.235.29.9/FacialAge/BNav_EC2/DepthDuration/v2_depth_duration_MTurk/v2_DepthDuration_HTML.html#77,77,1536,722,1536,864,8-21-2022,9-36-59,98,depth_duration_stimuli/002153_2014-06-25_21-27-18_260595134347_rgbf000038-resize_5/002153_2014-06-25_21-27-18_260595134347_rgbf000038-resize_5-target.png,125,2.505,4.0,3788,111,feet,jsons/VE125_randls_15_rotated.json,1591055,1919080,35,Woman
98,682639,DepthScenes,duration_manipulation_targetAtFixation,jsons/VE125_randls_15_rotated.json,http://54.235.29.9/FacialAge/BNav_EC2/DepthDuration/v2_depth_duration_MTurk/v2_DepthDuration_HTML.html#77,77,1536,722,1536,864,8-21-2022,9-36-59,99,depth_duration_stimuli/001222_2014-06-17_16-24-06_260595134347_rgbf000073-resize_0/001222_2014-06-17_16-24-06_260595134347_rgbf000073-resize-original.jpg,125,1.4385,0.0,6246,122,feet,jsons/VE125_randls_15_rotated.json,1591055,1919080,35,Woman
99,682639,DepthScenes,duration_manipulation_targetAtFixation,jsons/VE125_randls_15_rotated.json,http://54.235.29.9/FacialAge/BNav_EC2/DepthDuration/v2_depth_duration_MTurk/v2_DepthDuration_HTML.html#77,77,1536,722,1536,864,8-21-2022,9-36-59,100,depth_duration_stimuli/001815_2014-06-26_20-52-55_260595134347_rgbf000020-resize_0/001815_2014-06-26_20-52-55_260595134347_rgbf000020-resize_0-target.png,125,3.3865,5.6,8779,124,feet,jsons/VE125_randls_15_rotated.json,1591055,1919080,35,Woman
100,682639,DepthScenes,duration_manipulation_targetAtFixation,jsons/VE125_randls_15_rotated.json,http://54.235.29.9/FacialAge/BNav_EC2/DepthDuration/v2_depth_duration_MTurk/v2_DepthDuration_HTML.html#77,77,1536,722,1536,864,8-21-2022,9-36-59,101,depth_duration_stimuli/001808_2014-06-26_20-50-58_260595134347_rgbf000029-resize_1/001808_2014-06-26_20-50-58_260595134347_rgbf000029-resize_1-target.png,125,4.249,1.0,20076,115,feet,jsons/VE125_randls_15_rotated.json,1591055,1919080,35,Woman
101,682639,DepthScenes,duration_manipulation_targetAtFixation,jsons/VE125_randls_15_rotated.json,http://54.235.29.9/FacialAge/BNav_EC2/DepthDuration/v2_depth_duration_MTurk/v2_DepthDuration_HTML.html#77,77,1536,722,1536,864,8-21-2022,9-36-59,102,depth_duration_stimuli/000549_2014-06-08_22-10-24_260595134347_rgbf000247-resize_3/000549_2014-06-08_22-10-24_260595134347_rgbf000247-resize_3-target.png,125,1.841,5.0,5190,111,feet,jsons/VE125_randls_15_rotated.json,1591055,1919080,35,Woman
102,682639,DepthScenes,duration_manipulation_targetAtFixation,jsons/VE125_randls_15_rotated.json,http://54.235.29.9/FacialAge/BNav_EC2/DepthDuration/v2_depth_duration_MTurk/v2_DepthDuration_HTML.html#77,77,1536,722,1536,864,8-21-2022,9-36-59,103,depth_duration_stimuli/001055_2014-06-08_18-45-35_260595134347_rgbf000111-resize_4/001055_2014-06-08_18-45-35_260595134347_rgbf000111-resize_4-target.png,125,2.4290000000000003,7.0,5523,137,feet,jsons/VE125_randls_15_rotated.json,1591055,1919080,35,Woman
103,682639,DepthScenes,duration_manipulation_targetAtFixation,jsons/VE125_randls_15_rotated.json,http://54.235.29.9/FacialAge/BNav_EC2/DepthDuration/v2_depth_duration_MTurk/v2_DepthDuration_HTML.html#77,77,1536,722,1536,864,8-21-2022,9-36-59,104,depth_duration_stimuli/002949_2014-06-26_15-57-42_094959634447_rgbf000079-resize_1/002949_2014-06-26_15-57-42_094959634447_rgbf000079-resize_1-target.png,125,1.8915,2.0,6417,124,feet,jsons/VE125_randls_15_rotated.json,1591055,1919080,35,Woman
104,682639,DepthScenes,duration_manipulation_targetAtFixation,jsons/VE125_randls_15_rotated.json,http://54.235.29.9/FacialAge/BNav_EC2/DepthDuration/v2_depth_duration_MTurk/v2_DepthDuration_HTML.html#77,77,1536,722,1536,864,8-21-2022,9-36-59,105,depth_duration_stimuli/000522_2014-06-08_13-35-06_260595134347_rgbf000244-resize_1/000522_2014-06-08_13-35-06_260595134347_rgbf000244-resize_1-target.png,125,2.3715,3.0,121471,125,feet,jsons/VE125_randls_15_rotated.json,1591055,1919080,35,Woman
105,682639,DepthScenes,duration_manipulation_targetAtFixation,jsons/VE125_randls_15_rotated.json,http://54.235.29.9/FacialAge/BNav_EC2/DepthDuration/v2_depth_duration_MTurk/v2_DepthDuration_HTML.html#77,77,1536,722,1536,864,8-21-2022,9-36-59,106,depth_duration_stimuli/001584_2014-06-20_11-07-43_260595134347_rgbf000002-resize_1/001584_2014-06-20_11-07-43_260595134347_rgbf000002-resize_1-target.png,125,3.53,2.0,5288,125,feet,jsons/VE125_randls_15_rotated.json,1591055,1919080,35,Woman
106,682639,DepthScenes,duration_manipulation_targetAtFixation,jsons/VE125_randls_15_rotated.json,http://54.235.29.9/FacialAge/BNav_EC2/DepthDuration/v2_depth_duration_MTurk/v2_DepthDuration_HTML.html#77,77,1536,722,1536,864,8-21-2022,9-36-59,107,depth_duration_stimuli/003621_2014-05-23_18-06-08_094959634447_rgbf000101-resize_1/003621_2014-05-23_18-06-08_094959634447_rgbf000101-resize_1-target.png,125,3.9835,2.0,5069,125,feet,jsons/VE125_randls_15_rotated.json,1591055,1919080,35,Woman
107,682639,DepthScenes,duration_manipulation_targetAtFixation,jsons/VE125_randls_15_rotated.json,http://54.235.29.9/FacialAge/BNav_EC2/DepthDuration/v2_depth_duration_MTurk/v2_DepthDuration_HTML.html#77,77,1536,722,1536,864,8-21-2022,9-36-59,108,depth_duration_stimuli/002637_2014-06-24_14-51-13_094959634447_rgbf000066-resize_4/002637_2014-06-24_14-51-13_094959634447_rgbf000066-resize_4-target.png,125,1.9955,1.0,5222,123,feet,jsons/VE125_randls_15_rotated.json,1591055,1919080,35,Woman
108,682639,DepthScenes,duration_manipulation_targetAtFixation,jsons/VE125_randls_15_rotated.json,http://54.235.29.9/FacialAge/BNav_EC2/DepthDuration/v2_depth_duration_MTurk/v2_DepthDuration_HTML.html#77,77,1536,722,1536,864,8-21-2022,9-36-59,109,depth_duration_stimuli/003534_2014-05-22_15-06-10_094959634447_rgbf000102-resize_4/003534_2014-05-22_15-06-10_094959634447_rgbf000102-resize_4-target.png,125,1.426,4.0,3497,125,feet,jsons/VE125_randls_15_rotated.json,1591055,1919080,35,Woman
109,682639,DepthScenes,duration_manipulation_targetAtFixation,jsons/VE125_randls_15_rotated.json,http://54.235.29.9/FacialAge/BNav_EC2/DepthDuration/v2_depth_duration_MTurk/v2_DepthDuration_HTML.html#77,77,1536,722,1536,864,8-21-2022,9-36-59,110,depth_duration_stimuli/003495_2014-05-21_16-01-51_094959634447_rgbf000100-resize_3/003495_2014-05-21_16-01-51_094959634447_rgbf000100-resize_3-target.png,125,1.6255,1.0,4742,124,feet,jsons/VE125_randls_15_rotated.json,1591055,1919080,35,Woman
110,682639,DepthScenes,duration_manipulation_targetAtFixation,jsons/VE125_randls_15_rotated.json,http://54.235.29.9/FacialAge/BNav_EC2/DepthDuration/v2_depth_duration_MTurk/v2_DepthDuration_HTML.html#77,77,1536,722,1536,864,8-21-2022,9-36-59,111,depth_duration_stimuli/001244_2014-06-17_16-47-45_260595134347_rgbf000030-resize_4/001244_2014-06-17_16-47-45_260595134347_rgbf000030-resize_4-target.png,125,2.0425,4.5,7909,124,feet,jsons/VE125_randls_15_rotated.json,1591055,1919080,35,Woman
111,682639,DepthScenes,duration_manipulation_targetAtFixation,jsons/VE125_randls_15_rotated.json,http://54.235.29.9/FacialAge/BNav_EC2/DepthDuration/v2_depth_duration_MTurk/v2_DepthDuration_HTML.html#77,77,1536,722,1536,864,8-21-2022,9-36-59,112,depth_duration_stimuli/000665_2014-06-09_20-42-35_260595134347_rgbf000110-resize_1/000665_2014-06-09_20-42-35_260595134347_rgbf000110-resize_1-target.png,125,3.057,6.0,6765,128,feet,jsons/VE125_randls_15_rotated.json,1591055,1919080,35,Woman
112,682639,DepthScenes,duration_manipulation_targetAtFixation,jsons/VE125_randls_15_rotated.json,http://54.235.29.9/FacialAge/BNav_EC2/DepthDuration/v2_depth_duration_MTurk/v2_DepthDuration_HTML.html#77,77,1536,722,1536,864,8-21-2022,9-36-59,113,depth_duration_stimuli/001150_2014-06-17_15-27-34_260595134347_rgbf000108-resize_2/001150_2014-06-17_15-27-34_260595134347_rgbf000108-resize_2-target.png,125,4.0325,3.0,5796,127,feet,jsons/VE125_randls_15_rotated.json,1591055,1919080,35,Woman
113,682639,DepthScenes,duration_manipulation_targetAtFixation,jsons/VE125_randls_15_rotated.json,http://54.235.29.9/FacialAge/BNav_EC2/DepthDuration/v2_depth_duration_MTurk/v2_DepthDuration_HTML.html#77,77,1536,722,1536,864,8-21-2022,9-36-59,114,depth_duration_stimuli/002323_2014-06-28_20-01-54_260595134347_rgbf000051-resize_4/002323_2014-06-28_20-01-54_260595134347_rgbf000051-resize_4-target.png,125,3.7310000000000003,6.0,7161,127,feet,jsons/VE125_randls_15_rotated.json,1591055,1919080,35,Woman
114,682639,DepthScenes,duration_manipulation_targetAtFixation,jsons/VE125_randls_15_rotated.json,http://54.235.29.9/FacialAge/BNav_EC2/DepthDuration/v2_depth_duration_MTurk/v2_DepthDuration_HTML.html#77,77,1536,722,1536,864,8-21-2022,9-36-59,115,depth_duration_stimuli/000917_2014-06-09_22-45-29_260595134347_rgbf000149-resize_3/000917_2014-06-09_22-45-29_260595134347_rgbf000149-resize_3-target.png,125,4.1865,4.0,5559,115,feet,jsons/VE125_randls_15_rotated.json,1591055,1919080,35,Woman
115,682639,DepthScenes,duration_manipulation_targetAtFixation,jsons/VE125_randls_15_rotated.json,http://54.235.29.9/FacialAge/BNav_EC2/DepthDuration/v2_depth_duration_MTurk/v2_DepthDuration_HTML.html#77,77,1536,722,1536,864,8-21-2022,9-36-59,116,depth_duration_stimuli/002678_2014-06-13_16-15-32_094959634447_rgbf000151-resize_6/002678_2014-06-13_16-15-32_094959634447_rgbf000151-resize_6-target.png,125,2.1830000000000003,5.5,7657,138,feet,jsons/VE125_randls_15_rotated.json,1591055,1919080,35,Woman
116,682639,DepthScenes,duration_manipulation_targetAtFixation,jsons/VE125_randls_15_rotated.json,http://54.235.29.9/FacialAge/BNav_EC2/DepthDuration/v2_depth_duration_MTurk/v2_DepthDuration_HTML.html#77,77,1536,722,1536,864,8-21-2022,9-36-59,117,depth_duration_stimuli/000368_2014-06-09_15-53-01_260595134347_rgbf000155-resize_2/000368_2014-06-09_15-53-01_260595134347_rgbf000155-resize_2-target.png,125,2.4859999999999998,1.0,3803,120,feet,jsons/VE125_randls_15_rotated.json,1591055,1919080,35,Woman
117,682639,DepthScenes,duration_manipulation_targetAtFixation,jsons/VE125_randls_15_rotated.json,http://54.235.29.9/FacialAge/BNav_EC2/DepthDuration/v2_depth_duration_MTurk/v2_DepthDuration_HTML.html#77,77,1536,722,1536,864,8-21-2022,9-36-59,118,depth_duration_stimuli/002340_2014-06-28_20-05-46_260595134347_rgbf000113-resize_0/002340_2014-06-28_20-05-46_260595134347_rgbf000113-resize_0-target.png,125,2.4735,8.0,7186,118,feet,jsons/VE125_randls_15_rotated.json,1591055,1919080,35,Woman
118,682639,DepthScenes,duration_manipulation_targetAtFixation,jsons/VE125_randls_15_rotated.json,http://54.235.29.9/FacialAge/BNav_EC2/DepthDuration/v2_depth_duration_MTurk/v2_DepthDuration_HTML.html#77,77,1536,722,1536,864,8-21-2022,9-36-59,119,depth_duration_stimuli/001016_2014-06-09_16-16-10_260595134347_rgbf000112-resize_5/001016_2014-06-09_16-16-10_260595134347_rgbf000112-resize_5-target.png,125,1.6565,1.0,4488,125,feet,jsons/VE125_randls_15_rotated.json,1591055,1919080,35,Woman
119,682639,DepthScenes,duration_manipulation_targetAtFixation,jsons/VE125_randls_15_rotated.json,http://54.235.29.9/FacialAge/BNav_EC2/DepthDuration/v2_depth_duration_MTurk/v2_DepthDuration_HTML.html#77,77,1536,722,1536,864,8-21-2022,9-36-59,120,depth_duration_stimuli/000787_2014-06-08_22-33-53_260595134347_rgbf000175-resize_1/000787_2014-06-08_22-33-53_260595134347_rgbf000175-resize-original.jpg,125,4.784,0.0,6422,125,feet,jsons/VE125_randls_15_rotated.json,1591055,1919080,35,Woman
120,682639,DepthScenes,duration_manipulation_targetAtFixation,jsons/VE125_randls_15_rotated.json,http://54.235.29.9/FacialAge/BNav_EC2/DepthDuration/v2_depth_duration_MTurk/v2_DepthDuration_HTML.html#77,77,1536,722,1536,864,8-21-2022,9-36-59,121,depth_duration_stimuli/003079_2014-06-15_15-18-20_094959634447_rgbf000152-resize_8/003079_2014-06-15_15-18-20_094959634447_rgbf000152-resize_8-target.png,125,2.8775,7.0,4237,120,feet,jsons/VE125_randls_15_rotated.json,1591055,1919080,35,Woman
121,682639,DepthScenes,duration_manipulation_targetAtFixation,jsons/VE125_randls_15_rotated.json,http://54.235.29.9/FacialAge/BNav_EC2/DepthDuration/v2_depth_duration_MTurk/v2_DepthDuration_HTML.html#77,77,1536,722,1536,864,8-21-2022,9-36-59,122,depth_duration_stimuli/000506_2014-06-08_23-21-00_260595134347_rgbf000070-resize_7/000506_2014-06-08_23-21-00_260595134347_rgbf000070-resize_7-target.png,125,4.0585,6.0,4566,122,feet,jsons/VE125_randls_15_rotated.json,1591055,1919080,35,Woman
122,682639,DepthScenes,duration_manipulation_targetAtFixation,jsons/VE125_randls_15_rotated.json,http://54.235.29.9/FacialAge/BNav_EC2/DepthDuration/v2_depth_duration_MTurk/v2_DepthDuration_HTML.html#77,77,1536,722,1536,864,8-21-2022,9-36-59,123,depth_duration_stimuli/003129_2014-05-12_10-48-10_094959634447_rgbf000100-resize_0/003129_2014-05-12_10-48-10_094959634447_rgbf000100-resize_0-target.png,125,4.9305,4.5,6186,132,feet,jsons/VE125_randls_15_rotated.json,1591055,1919080,35,Woman
123,682639,DepthScenes,duration_manipulation_targetAtFixation,jsons/VE125_randls_15_rotated.json,http://54.235.29.9/FacialAge/BNav_EC2/DepthDuration/v2_depth_duration_MTurk/v2_DepthDuration_HTML.html#77,77,1536,722,1536,864,8-21-2022,9-36-59,124,depth_duration_stimuli/000414_2014-06-04_19-49-13_260595134347_rgbf000044-resize_0/000414_2014-06-04_19-49-13_260595134347_rgbf000044-resize_0-target.png,125,4.329,7.0,5894,114,feet,jsons/VE125_randls_15_rotated.json,1591055,1919080,35,Woman
124,682639,DepthScenes,duration_manipulation_targetAtFixation,jsons/VE125_randls_15_rotated.json,http://54.235.29.9/FacialAge/BNav_EC2/DepthDuration/v2_depth_duration_MTurk/v2_DepthDuration_HTML.html#77,77,1536,722,1536,864,8-21-2022,9-36-59,125,depth_duration_stimuli/002875_2014-06-01_15-19-00_094959634447_rgbf000151-resize_1/002875_2014-06-01_15-19-00_094959634447_rgbf000151-resize_1-target.png,125,1.9675,7.0,6834,124,feet,jsons/VE125_randls_15_rotated.json,1591055,1919080,35,Woman
125,682639,DepthScenes,duration_manipulation_targetAtFixation,jsons/VE125_randls_15_rotated.json,http://54.235.29.9/FacialAge/BNav_EC2/DepthDuration/v2_depth_duration_MTurk/v2_DepthDuration_HTML.html#77,77,1536,722,1536,864,8-21-2022,9-36-59,126,depth_duration_stimuli/001011_2014-06-08_23-18-54_260595134347_rgbf000044-resize_4/001011_2014-06-08_23-18-54_260595134347_rgbf000044-resize_4-target.png,125,2.4730000000000003,5.0,3853,123,feet,jsons/VE125_randls_15_rotated.json,1591055,1919080,35,Woman
126,682639,DepthScenes,duration_manipulation_targetAtFixation,jsons/VE125_randls_15_rotated.json,http://54.235.29.9/FacialAge/BNav_EC2/DepthDuration/v2_depth_duration_MTurk/v2_DepthDuration_HTML.html#77,77,1536,722,1536,864,8-21-2022,9-36-59,127,depth_duration_stimuli/003423_2014-05-21_10-23-26_094959634447_rgbf002665-resize_2/003423_2014-05-21_10-23-26_094959634447_rgbf002665-resize_2-target.png,125,3.2575,2.0,98120,123,feet,jsons/VE125_randls_15_rotated.json,1591055,1919080,35,Woman
127,682639,DepthScenes,duration_manipulation_targetAtFixation,jsons/VE125_randls_15_rotated.json,http://54.235.29.9/FacialAge/BNav_EC2/DepthDuration/v2_depth_duration_MTurk/v2_DepthDuration_HTML.html#77,77,1536,722,1536,864,8-21-2022,9-36-59,128,depth_duration_stimuli/002905_2014-06-03_18-04-43_094959634447_rgbf000151-resize_2/002905_2014-06-03_18-04-43_094959634447_rgbf000151-resize_2-target.png,125,2.0295,1.0,3987,114,feet,jsons/VE125_randls_15_rotated.json,1591055,1919080,35,Woman
128,682639,DepthScenes,duration_manipulation_targetAtFixation,jsons/VE125_randls_15_rotated.json,http://54.235.29.9/FacialAge/BNav_EC2/DepthDuration/v2_depth_duration_MTurk/v2_DepthDuration_HTML.html#77,77,1536,722,1536,864,8-21-2022,9-36-59,129,depth_duration_stimuli/002209_2014-06-28_18-36-10_260595134347_rgbf000051-resize_1/002209_2014-06-28_18-36-10_260595134347_rgbf000051-resize_1-target.png,125,2.057,4.0,5234,132,feet,jsons/VE125_randls_15_rotated.json,1591055,1919080,35,Woman
129,682639,DepthScenes,duration_manipulation_targetAtFixation,jsons/VE125_randls_15_rotated.json,http://54.235.29.9/FacialAge/BNav_EC2/DepthDuration/v2_depth_duration_MTurk/v2_DepthDuration_HTML.html#77,77,1536,722,1536,864,8-21-2022,9-36-59,130,depth_duration_stimuli/002763_2014-06-22_19-13-10_094959634447_rgbf000075-resize_4/002763_2014-06-22_19-13-10_094959634447_rgbf000075-resize_4-target.png,125,1.68375,2.0,4740,127,feet,jsons/VE125_randls_15_rotated.json,1591055,1919080,35,Woman
130,682639,DepthScenes,duration_manipulation_targetAtFixation,jsons/VE125_randls_15_rotated.json,http://54.235.29.9/FacialAge/BNav_EC2/DepthDuration/v2_depth_duration_MTurk/v2_DepthDuration_HTML.html#77,77,1536,722,1536,864,8-21-2022,9-36-59,131,depth_duration_stimuli/001617_2014-06-20_11-35-32_260595134347_rgbf000066-resize_1/001617_2014-06-20_11-35-32_260595134347_rgbf000066-resize_1-target.png,125,3.7910000000000004,3.0,6229,113,feet,jsons/VE125_randls_15_rotated.json,1591055,1919080,35,Woman
131,682639,DepthScenes,duration_manipulation_targetAtFixation,jsons/VE125_randls_15_rotated.json,http://54.235.29.9/FacialAge/BNav_EC2/DepthDuration/v2_depth_duration_MTurk/v2_DepthDuration_HTML.html#77,77,1536,722,1536,864,8-21-2022,9-36-59,132,depth_duration_stimuli/001806_2014-06-26_20-50-20_260595134347_rgbf000091-resize_1/001806_2014-06-26_20-50-20_260595134347_rgbf000091-resize_1-target.png,125,2.7305,1.0,3097,129,feet,jsons/VE125_randls_15_rotated.json,1591055,1919080,35,Woman
132,682639,DepthScenes,duration_manipulation_targetAtFixation,jsons/VE125_randls_15_rotated.json,http://54.235.29.9/FacialAge/BNav_EC2/DepthDuration/v2_depth_duration_MTurk/v2_DepthDuration_HTML.html#77,77,1536,722,1536,864,8-21-2022,9-36-59,133,depth_duration_stimuli/000742_2014-06-08_18-48-09_260595134347_rgbf000164-resize_4/000742_2014-06-08_18-48-09_260595134347_rgbf000164-resize_4-target.png,125,4.632,2.0,5890,117,feet,jsons/VE125_randls_15_rotated.json,1591055,1919080,35,Woman
133,682639,DepthScenes,duration_manipulation_targetAtFixation,jsons/VE125_randls_15_rotated.json,http://54.235.29.9/FacialAge/BNav_EC2/DepthDuration/v2_depth_duration_MTurk/v2_DepthDuration_HTML.html#77,77,1536,722,1536,864,8-21-2022,9-36-59,134,depth_duration_stimuli/001066_2014-06-08_22-03-20_260595134347_rgbf000066-resize_4/001066_2014-06-08_22-03-20_260595134347_rgbf000066-resize_4-target.png,125,4.2330000000000005,5.0,3784,115,feet,jsons/VE125_randls_15_rotated.json,1591055,1919080,35,Woman
134,682639,DepthScenes,duration_manipulation_targetAtFixation,jsons/VE125_randls_15_rotated.json,http://54.235.29.9/FacialAge/BNav_EC2/DepthDuration/v2_depth_duration_MTurk/v2_DepthDuration_HTML.html#77,77,1536,722,1536,864,8-21-2022,9-36-59,135,depth_duration_stimuli/000375_2014-06-08_11-17-29_260595134347_rgbf000133-resize_2/000375_2014-06-08_11-17-29_260595134347_rgbf000133-resize-original.jpg,125,4.718,0.0,6579,134,feet,jsons/VE125_randls_15_rotated.json,1591055,1919080,35,Woman
135,682639,DepthScenes,duration_manipulation_targetAtFixation,jsons/VE125_randls_15_rotated.json,http://54.235.29.9/FacialAge/BNav_EC2/DepthDuration/v2_depth_duration_MTurk/v2_DepthDuration_HTML.html#77,77,1536,722,1536,864,8-21-2022,9-36-59,136,depth_duration_stimuli/000502_2014-06-08_23-02-32_260595134347_rgbf000063-resize_4/000502_2014-06-08_23-02-32_260595134347_rgbf000063-resize_4-target.png,125,2.431,0.0,6075,126,feet,jsons/VE125_randls_15_rotated.json,1591055,1919080,35,Woman
136,682639,DepthScenes,duration_manipulation_targetAtFixation,jsons/VE125_randls_15_rotated.json,http://54.235.29.9/FacialAge/BNav_EC2/DepthDuration/v2_depth_duration_MTurk/v2_DepthDuration_HTML.html#77,77,1536,722,1536,864,8-21-2022,9-36-59,137,depth_duration_stimuli/001199_2014-06-17_16-03-48_260595134347_rgbf000077-resize_0/001199_2014-06-17_16-03-48_260595134347_rgbf000077-resize_0-target.png,125,3.4375,3.0,9219,125,feet,jsons/VE125_randls_15_rotated.json,1591055,1919080,35,Woman
137,682639,DepthScenes,duration_manipulation_targetAtFixation,jsons/VE125_randls_15_rotated.json,http://54.235.29.9/FacialAge/BNav_EC2/DepthDuration/v2_depth_duration_MTurk/v2_DepthDuration_HTML.html#77,77,1536,722,1536,864,8-21-2022,9-36-59,138,depth_duration_stimuli/002657_2014-06-13_15-29-54_094959634447_rgbf000150-resize_1/002657_2014-06-13_15-29-54_094959634447_rgbf000150-resize_1-target.png,125,4.919,2.0,5088,119,feet,jsons/VE125_randls_15_rotated.json,1591055,1919080,35,Woman
138,682639,DepthScenes,duration_manipulation_targetAtFixation,jsons/VE125_randls_15_rotated.json,http://54.235.29.9/FacialAge/BNav_EC2/DepthDuration/v2_depth_duration_MTurk/v2_DepthDuration_HTML.html#77,77,1536,722,1536,864,8-21-2022,9-36-59,139,depth_duration_stimuli/002375_2014-06-28_20-13-44_260595134347_rgbf000032-resize_1/002375_2014-06-28_20-13-44_260595134347_rgbf000032-resize_1-target.png,125,4.0175,1.0,4008,124,feet,jsons/VE125_randls_15_rotated.json,1591055,1919080,35,Woman
139,682639,DepthScenes,duration_manipulation_targetAtFixation,jsons/VE125_randls_15_rotated.json,http://54.235.29.9/FacialAge/BNav_EC2/DepthDuration/v2_depth_duration_MTurk/v2_DepthDuration_HTML.html#77,77,1536,722,1536,864,8-21-2022,9-36-59,140,depth_duration_stimuli/003083_2014-06-15_15-21-03_094959634447_rgbf000063-resize_1/003083_2014-06-15_15-21-03_094959634447_rgbf000063-resize_1-target.png,125,4.1405,5.5,10652,124,feet,jsons/VE125_randls_15_rotated.json,1591055,1919080,35,Woman
140,682639,DepthScenes,duration_manipulation_targetAtFixation,jsons/VE125_randls_15_rotated.json,http://54.235.29.9/FacialAge/BNav_EC2/DepthDuration/v2_depth_duration_MTurk/v2_DepthDuration_HTML.html#77,77,1536,722,1536,864,8-21-2022,9-36-59,141,depth_duration_stimuli/000486_2014-06-09_20-47-20_260595134347_rgbf000143-resize_2/000486_2014-06-09_20-47-20_260595134347_rgbf000143-resize_2-target.png,125,4.8325,0.0,4636,125,feet,jsons/VE125_randls_15_rotated.json,1591055,1919080,35,Woman
141,682639,DepthScenes,duration_manipulation_targetAtFixation,jsons/VE125_randls_15_rotated.json,http://54.235.29.9/FacialAge/BNav_EC2/DepthDuration/v2_depth_duration_MTurk/v2_DepthDuration_HTML.html#77,77,1536,722,1536,864,8-21-2022,9-36-59,142,depth_duration_stimuli/003010_2014-06-15_12-54-35_094959634447_rgbf000112-resize_0/003010_2014-06-15_12-54-35_094959634447_rgbf000112-resize_0-target.png,125,3.1185,0.0,2969,124,feet,jsons/VE125_randls_15_rotated.json,1591055,1919080,35,Woman
142,682639,DepthScenes,duration_manipulation_targetAtFixation,jsons/VE125_randls_15_rotated.json,http://54.235.29.9/FacialAge/BNav_EC2/DepthDuration/v2_depth_duration_MTurk/v2_DepthDuration_HTML.html#77,77,1536,722,1536,864,8-21-2022,9-36-59,143,depth_duration_stimuli/001810_2014-06-26_20-51-35_260595134347_rgbf000040-resize_3/001810_2014-06-26_20-51-35_260595134347_rgbf000040-resize_3-target.png,125,2.2525,3.0,5740,124,feet,jsons/VE125_randls_15_rotated.json,1591055,1919080,35,Woman
143,682639,DepthScenes,duration_manipulation_targetAtFixation,jsons/VE125_randls_15_rotated.json,http://54.235.29.9/FacialAge/BNav_EC2/DepthDuration/v2_depth_duration_MTurk/v2_DepthDuration_HTML.html#77,77,1536,722,1536,864,8-21-2022,9-36-59,144,depth_duration_stimuli/000866_2014-06-09_20-45-42_260595134347_rgbf000139-resize_1/000866_2014-06-09_20-45-42_260595134347_rgbf000139-resize_1-target.png,125,3.2155,5.0,4417,121,feet,jsons/VE125_randls_15_rotated.json,1591055,1919080,35,Woman
144,682639,DepthScenes,duration_manipulation_targetAtFixation,jsons/VE125_randls_15_rotated.json,http://54.235.29.9/FacialAge/BNav_EC2/DepthDuration/v2_depth_duration_MTurk/v2_DepthDuration_HTML.html#77,77,1536,722,1536,864,8-21-2022,9-36-59,145,depth_duration_stimuli/002989_2014-06-15_12-25-03_094959634447_rgbf000150-resize_3/002989_2014-06-15_12-25-03_094959634447_rgbf000150-resize_3-target.png,125,4.1975,6.0,5833,121,feet,jsons/VE125_randls_15_rotated.json,1591055,1919080,35,Woman
145,682639,DepthScenes,duration_manipulation_targetAtFixation,jsons/VE125_randls_15_rotated.json,http://54.235.29.9/FacialAge/BNav_EC2/DepthDuration/v2_depth_duration_MTurk/v2_DepthDuration_HTML.html#77,77,1536,722,1536,864,8-21-2022,9-36-59,146,depth_duration_stimuli/002568_2014-06-24_13-59-21_094959634447_rgbf000062-resize_4/002568_2014-06-24_13-59-21_094959634447_rgbf000062-resize_4-target.png,125,3.015,1.0,5652,124,feet,jsons/VE125_randls_15_rotated.json,1591055,1919080,35,Woman
146,682639,DepthScenes,duration_manipulation_targetAtFixation,jsons/VE125_randls_15_rotated.json,http://54.235.29.9/FacialAge/BNav_EC2/DepthDuration/v2_depth_duration_MTurk/v2_DepthDuration_HTML.html#77,77,1536,722,1536,864,8-21-2022,9-36-59,147,depth_duration_stimuli/003492_2014-05-21_15-50-55_094959634447_rgbf000828-resize_1/003492_2014-05-21_15-50-55_094959634447_rgbf000828-resize_1-target.png,125,4.06875,3.0,4640,122,feet,jsons/VE125_randls_15_rotated.json,1591055,1919080,35,Woman
147,682639,DepthScenes,duration_manipulation_targetAtFixation,jsons/VE125_randls_15_rotated.json,http://54.235.29.9/FacialAge/BNav_EC2/DepthDuration/v2_depth_duration_MTurk/v2_DepthDuration_HTML.html#77,77,1536,722,1536,864,8-21-2022,9-36-59,148,depth_duration_stimuli/003081_2014-06-15_15-19-16_094959634447_rgbf000150-resize_1/003081_2014-06-15_15-19-16_094959634447_rgbf000150-resize_1-target.png,125,3.9125,1.0,5697,120,feet,jsons/VE125_randls_15_rotated.json,1591055,1919080,35,Woman
148,682639,DepthScenes,duration_manipulation_targetAtFixation,jsons/VE125_randls_15_rotated.json,http://54.235.29.9/FacialAge/BNav_EC2/DepthDuration/v2_depth_duration_MTurk/v2_DepthDuration_HTML.html#77,77,1536,722,1536,864,8-21-2022,9-36-59,149,depth_duration_stimuli/001417_2014-06-19_16-25-36_260595134347_rgbf000115-resize_5/001417_2014-06-19_16-25-36_260595134347_rgbf000115-resize_5-target.png,125,4.6255,0.0,4005,126,feet,jsons/VE125_randls_15_rotated.json,1591055,1919080,35,Woman
149,682639,DepthScenes,duration_manipulation_targetAtFixation,jsons/VE125_randls_15_rotated.json,http://54.235.29.9/FacialAge/BNav_EC2/DepthDuration/v2_depth_duration_MTurk/v2_DepthDuration_HTML.html#77,77,1536,722,1536,864,8-21-2022,9-36-59,150,depth_duration_stimuli/000635_2014-06-08_16-38-42_260595134347_rgbf000106-resize_1/000635_2014-06-08_16-38-42_260595134347_rgbf000106-resize_1-target.png,125,2.074,2.0,6263,126,feet,jsons/VE125_randls_15_rotated.json,1591055,1919080,35,Woman
150,682639,DepthScenes,duration_manipulation_targetAtFixation,jsons/VE125_randls_15_rotated.json,http://54.235.29.9/FacialAge/BNav_EC2/DepthDuration/v2_depth_duration_MTurk/v2_DepthDuration_HTML.html#77,77,1536,722,1536,864,8-21-2022,9-36-59,151,depth_duration_stimuli/002279_2014-06-28_18-55-32_260595134347_rgbf000040-resize_5/002279_2014-06-28_18-55-32_260595134347_rgbf000040-resize_5-target.png,125,1.5043333333333,4.0,4221,128,feet,jsons/VE125_randls_15_rotated.json,1591055,1919080,35,Woman
151,682639,DepthScenes,duration_manipulation_targetAtFixation,jsons/VE125_randls_15_rotated.json,http://54.235.29.9/FacialAge/BNav_EC2/DepthDuration/v2_depth_duration_MTurk/v2_DepthDuration_HTML.html#77,77,1536,722,1536,864,8-21-2022,9-36-59,152,depth_duration_stimuli/000569_2014-06-09_22-51-47_260595134347_rgbf000141-resize_3/000569_2014-06-09_22-51-47_260595134347_rgbf000141-resize-original.jpg,125,4.512,0.0,6617,124,feet,jsons/VE125_randls_15_rotated.json,1591055,1919080,35,Woman
152,682639,DepthScenes,duration_manipulation_targetAtFixation,jsons/VE125_randls_15_rotated.json,http://54.235.29.9/FacialAge/BNav_EC2/DepthDuration/v2_depth_duration_MTurk/v2_DepthDuration_HTML.html#77,77,1536,722,1536,864,8-21-2022,9-36-59,153,depth_duration_stimuli/002414_2014-06-28_20-24-58_260595134347_rgbf000067-resize_4/002414_2014-06-28_20-24-58_260595134347_rgbf000067-resize_4-target.png,125,4.363,4.0,6384,124,feet,jsons/VE125_randls_15_rotated.json,1591055,1919080,35,Woman
153,682639,DepthScenes,duration_manipulation_targetAtFixation,jsons/VE125_randls_15_rotated.json,http://54.235.29.9/FacialAge/BNav_EC2/DepthDuration/v2_depth_duration_MTurk/v2_DepthDuration_HTML.html#77,77,1536,722,1536,864,8-21-2022,9-36-59,154,depth_duration_stimuli/000773_2014-06-08_22-24-54_260595134347_rgbf000093-resize_1/000773_2014-06-08_22-24-54_260595134347_rgbf000093-resize_1-target.png,125,4.973,2.0,5772,125,feet,jsons/VE125_randls_15_rotated.json,1591055,1919080,35,Woman
154,682639,DepthScenes,duration_manipulation_targetAtFixation,jsons/VE125_randls_15_rotated.json,http://54.235.29.9/FacialAge/BNav_EC2/DepthDuration/v2_depth_duration_MTurk/v2_DepthDuration_HTML.html#77,77,1536,722,1536,864,8-21-2022,9-36-59,155,depth_duration_stimuli/002995_2014-06-15_12-31-26_094959634447_rgbf000150-resize_1/002995_2014-06-15_12-31-26_094959634447_rgbf000150-resize_1-target.png,125,3.8360000000000003,5.0,5656,128,feet,jsons/VE125_randls_15_rotated.json,1591055,1919080,35,Woman
155,682639,DepthScenes,duration_manipulation_targetAtFixation,jsons/VE125_randls_15_rotated.json,http://54.235.29.9/FacialAge/BNav_EC2/DepthDuration/v2_depth_duration_MTurk/v2_DepthDuration_HTML.html#77,77,1536,722,1536,864,8-21-2022,9-36-59,156,depth_duration_stimuli/002748_2014-06-22_19-07-22_094959634447_rgbf000078-resize_1/002748_2014-06-22_19-07-22_094959634447_rgbf000078-resize_1-target.png,125,4.6705,7.5,7195,125,feet,jsons/VE125_randls_15_rotated.json,1591055,1919080,35,Woman
156,682639,DepthScenes,duration_manipulation_targetAtFixation,jsons/VE125_randls_15_rotated.json,http://54.235.29.9/FacialAge/BNav_EC2/DepthDuration/v2_depth_duration_MTurk/v2_DepthDuration_HTML.html#77,77,1536,722,1536,864,8-21-2022,9-36-59,157,depth_duration_stimuli/000927_2014-06-09_16-32-30_260595134347_rgbf000123-resize_3/000927_2014-06-09_16-32-30_260595134347_rgbf000123-resize_3-target.png,125,2.6785,4.0,5923,125,feet,jsons/VE125_randls_15_rotated.json,1591055,1919080,35,Woman
157,682639,DepthScenes,duration_manipulation_targetAtFixation,jsons/VE125_randls_15_rotated.json,http://54.235.29.9/FacialAge/BNav_EC2/DepthDuration/v2_depth_duration_MTurk/v2_DepthDuration_HTML.html#77,77,1536,722,1536,864,8-21-2022,9-36-59,158,depth_duration_stimuli/001110_2014-06-15_17-25-28_260595134347_rgbf000150-resize_1/001110_2014-06-15_17-25-28_260595134347_rgbf000150-resize_1-target.png,125,1.7115,2.0,8108,123,feet,jsons/VE125_randls_15_rotated.json,1591055,1919080,35,Woman
158,682639,DepthScenes,duration_manipulation_targetAtFixation,jsons/VE125_randls_15_rotated.json,http://54.235.29.9/FacialAge/BNav_EC2/DepthDuration/v2_depth_duration_MTurk/v2_DepthDuration_HTML.html#77,77,1536,722,1536,864,8-21-2022,9-36-59,159,depth_duration_stimuli/001052_2014-06-08_18-24-54_260595134347_rgbf000130-resize_1/001052_2014-06-08_18-24-54_260595134347_rgbf000130-resize_1-target.png,125,4.1045,5.0,5804,126,feet,jsons/VE125_randls_15_rotated.json,1591055,1919080,35,Woman
159,682639,DepthScenes,duration_manipulation_targetAtFixation,jsons/VE125_randls_15_rotated.json,http://54.235.29.9/FacialAge/BNav_EC2/DepthDuration/v2_depth_duration_MTurk/v2_DepthDuration_HTML.html#77,77,1536,722,1536,864,8-21-2022,9-36-59,160,depth_duration_stimuli/002988_2014-06-15_12-24-20_094959634447_rgbf000150-resize_1/002988_2014-06-15_12-24-20_094959634447_rgbf000150-resize_1-target.png,125,4.7669999999999995,1.0,4036,113,feet,jsons/VE125_randls_15_rotated.json,1591055,1919080,35,Woman
160,682639,DepthScenes,duration_manipulation_targetAtFixation,jsons/VE125_randls_15_rotated.json,http://54.235.29.9/FacialAge/BNav_EC2/DepthDuration/v2_depth_duration_MTurk/v2_DepthDuration_HTML.html#77,77,1536,722,1536,864,8-21-2022,9-36-59,161,depth_duration_stimuli/001571_2014-06-20_17-21-32_260595134347_rgbf000089-resize_1/001571_2014-06-20_17-21-32_260595134347_rgbf000089-resize_1-target.png,125,1.86,5.0,7705,125,feet,jsons/VE125_randls_15_rotated.json,1591055,1919080,35,Woman
161,682639,DepthScenes,duration_manipulation_targetAtFixation,jsons/VE125_randls_15_rotated.json,http://54.235.29.9/FacialAge/BNav_EC2/DepthDuration/v2_depth_duration_MTurk/v2_DepthDuration_HTML.html#77,77,1536,722,1536,864,8-21-2022,9-36-59,162,depth_duration_stimuli/002272_2014-06-28_18-53-56_260595134347_rgbf000067-resize_2/002272_2014-06-28_18-53-56_260595134347_rgbf000067-resize_2-target.png,125,1.138,4.0,3683,125,feet,jsons/VE125_randls_15_rotated.json,1591055,1919080,35,Woman
162,682639,DepthScenes,duration_manipulation_targetAtFixation,jsons/VE125_randls_15_rotated.json,http://54.235.29.9/FacialAge/BNav_EC2/DepthDuration/v2_depth_duration_MTurk/v2_DepthDuration_HTML.html#77,77,1536,722,1536,864,8-21-2022,9-36-59,163,depth_duration_stimuli/002136_2014-06-25_21-18-03_260595134347_rgbf000109-resize_3/002136_2014-06-25_21-18-03_260595134347_rgbf000109-resize_3-target.png,125,1.9569999999999999,3.4,7633,124,feet,jsons/VE125_randls_15_rotated.json,1591055,1919080,35,Woman
163,682639,DepthScenes,duration_manipulation_targetAtFixation,jsons/VE125_randls_15_rotated.json,http://54.235.29.9/FacialAge/BNav_EC2/DepthDuration/v2_depth_duration_MTurk/v2_DepthDuration_HTML.html#77,77,1536,722,1536,864,8-21-2022,9-36-59,164,depth_duration_stimuli/002964_2014-06-08_17-46-11_094959634447_rgbf000091-resize_4/002964_2014-06-08_17-46-11_094959634447_rgbf000091-resize_4-target.png,125,1.6909999999999998,5.0,3837,125,feet,jsons/VE125_randls_15_rotated.json,1591055,1919080,35,Woman
