,subjID,experimentName,versionName,sequenceName,url,selected_row,windowWidth,windowHeight,screenWidth,screenHeight,startDate,startTime,trial,stimulus,duration,actual_depth,depth_estimate,trial_RT,log_sceneDuration,unitSelection,seq_filepath,experimentTime,totalTime,age,gender
0,685556,DepthScenes,duration_manipulation_targetAtFixation,jsons/VE125_randls_22.json,http://54.235.29.9/FacialAge/BNav_EC2/DepthDuration/v2_depth_duration_MTurk/v2_DepthDuration_HTML.html#21,21,1366,657,1366,768,8-21-2022,9-45-1,1,depth_duration_stimuli/001806_2014-06-26_20-50-20_260595134347_rgbf000091-resize_1/001806_2014-06-26_20-50-20_260595134347_rgbf000091-resize_1-target.png,125,2.7305,5,49920,125,feet,jsons/VE125_randls_22.json,665249,2204263,53,Man
1,685556,DepthScenes,duration_manipulation_targetAtFixation,jsons/VE125_randls_22.json,http://54.235.29.9/FacialAge/BNav_EC2/DepthDuration/v2_depth_duration_MTurk/v2_DepthDuration_HTML.html#21,21,1366,657,1366,768,8-21-2022,9-45-1,2,depth_duration_stimuli/001617_2014-06-20_11-35-32_260595134347_rgbf000066-resize_1/001617_2014-06-20_11-35-32_260595134347_rgbf000066-resize_1-target.png,125,3.7910000000000004,15,4090,126,feet,jsons/VE125_randls_22.json,665249,2204263,53,Man
2,685556,DepthScenes,duration_manipulation_targetAtFixation,jsons/VE125_randls_22.json,http://54.235.29.9/FacialAge/BNav_EC2/DepthDuration/v2_depth_duration_MTurk/v2_DepthDuration_HTML.html#21,21,1366,657,1366,768,8-21-2022,9-45-1,3,depth_duration_stimuli/003492_2014-05-21_15-50-55_094959634447_rgbf000828-resize_1/003492_2014-05-21_15-50-55_094959634447_rgbf000828-resize_1-target.png,125,4.06875,16,3131,125,feet,jsons/VE125_randls_22.json,665249,2204263,53,Man
3,685556,DepthScenes,duration_manipulation_targetAtFixation,jsons/VE125_randls_22.json,http://54.235.29.9/FacialAge/BNav_EC2/DepthDuration/v2_depth_duration_MTurk/v2_DepthDuration_HTML.html#21,21,1366,657,1366,768,8-21-2022,9-45-1,4,depth_duration_stimuli/002568_2014-06-24_13-59-21_094959634447_rgbf000062-resize_4/002568_2014-06-24_13-59-21_094959634447_rgbf000062-resize_4-target.png,125,3.015,7,2482,124,feet,jsons/VE125_randls_22.json,665249,2204263,53,Man
4,685556,DepthScenes,duration_manipulation_targetAtFixation,jsons/VE125_randls_22.json,http://54.235.29.9/FacialAge/BNav_EC2/DepthDuration/v2_depth_duration_MTurk/v2_DepthDuration_HTML.html#21,21,1366,657,1366,768,8-21-2022,9-45-1,5,depth_duration_stimuli/002279_2014-06-28_18-55-32_260595134347_rgbf000040-resize_5/002279_2014-06-28_18-55-32_260595134347_rgbf000040-resize_5-target.png,125,1.5043333333333,6,5532,125,feet,jsons/VE125_randls_22.json,665249,2204263,53,Man
5,685556,DepthScenes,duration_manipulation_targetAtFixation,jsons/VE125_randls_22.json,http://54.235.29.9/FacialAge/BNav_EC2/DepthDuration/v2_depth_duration_MTurk/v2_DepthDuration_HTML.html#21,21,1366,657,1366,768,8-21-2022,9-45-1,6,depth_duration_stimuli/000635_2014-06-08_16-38-42_260595134347_rgbf000106-resize_1/000635_2014-06-08_16-38-42_260595134347_rgbf000106-resize_1-target.png,125,2.074,7,2610,125,feet,jsons/VE125_randls_22.json,665249,2204263,53,Man
6,685556,DepthScenes,duration_manipulation_targetAtFixation,jsons/VE125_randls_22.json,http://54.235.29.9/FacialAge/BNav_EC2/DepthDuration/v2_depth_duration_MTurk/v2_DepthDuration_HTML.html#21,21,1366,657,1366,768,8-21-2022,9-45-1,7,depth_duration_stimuli/002549_2014-06-24_13-41-39_094959634447_rgbf000022-resize_3/002549_2014-06-24_13-41-39_094959634447_rgbf000022-resize_3-target.png,125,1.476,10,7146,125,feet,jsons/VE125_randls_22.json,665249,2204263,53,Man
7,685556,DepthScenes,duration_manipulation_targetAtFixation,jsons/VE125_randls_22.json,http://54.235.29.9/FacialAge/BNav_EC2/DepthDuration/v2_depth_duration_MTurk/v2_DepthDuration_HTML.html#21,21,1366,657,1366,768,8-21-2022,9-45-1,8,depth_duration_stimuli/002750_2014-06-22_19-08-03_094959634447_rgbf000094-resize_4/002750_2014-06-22_19-08-03_094959634447_rgbf000094-resize_4-target.png,125,2.354,9,3882,124,feet,jsons/VE125_randls_22.json,665249,2204263,53,Man
8,685556,DepthScenes,duration_manipulation_targetAtFixation,jsons/VE125_randls_22.json,http://54.235.29.9/FacialAge/BNav_EC2/DepthDuration/v2_depth_duration_MTurk/v2_DepthDuration_HTML.html#21,21,1366,657,1366,768,8-21-2022,9-45-1,9,depth_duration_stimuli/001011_2014-06-08_23-18-54_260595134347_rgbf000044-resize_4/001011_2014-06-08_23-18-54_260595134347_rgbf000044-resize_4-target.png,125,2.4730000000000003,8,6586,125,feet,jsons/VE125_randls_22.json,665249,2204263,53,Man
9,685556,DepthScenes,duration_manipulation_targetAtFixation,jsons/VE125_randls_22.json,http://54.235.29.9/FacialAge/BNav_EC2/DepthDuration/v2_depth_duration_MTurk/v2_DepthDuration_HTML.html#21,21,1366,657,1366,768,8-21-2022,9-45-1,10,depth_duration_stimuli/002875_2014-06-01_15-19-00_094959634447_rgbf000151-resize_1/002875_2014-06-01_15-19-00_094959634447_rgbf000151-resize_1-target.png,125,1.9675,10,3642,124,feet,jsons/VE125_randls_22.json,665249,2204263,53,Man
10,685556,DepthScenes,duration_manipulation_targetAtFixation,jsons/VE125_randls_22.json,http://54.235.29.9/FacialAge/BNav_EC2/DepthDuration/v2_depth_duration_MTurk/v2_DepthDuration_HTML.html#21,21,1366,657,1366,768,8-21-2022,9-45-1,11,depth_duration_stimuli/000414_2014-06-04_19-49-13_260595134347_rgbf000044-resize_0/000414_2014-06-04_19-49-13_260595134347_rgbf000044-resize_0-target.png,125,4.329,13,2834,125,feet,jsons/VE125_randls_22.json,665249,2204263,53,Man
11,685556,DepthScenes,duration_manipulation_targetAtFixation,jsons/VE125_randls_22.json,http://54.235.29.9/FacialAge/BNav_EC2/DepthDuration/v2_depth_duration_MTurk/v2_DepthDuration_HTML.html#21,21,1366,657,1366,768,8-21-2022,9-45-1,12,depth_duration_stimuli/003129_2014-05-12_10-48-10_094959634447_rgbf000100-resize_0/003129_2014-05-12_10-48-10_094959634447_rgbf000100-resize_0-target.png,125,4.9305,12,3450,124,feet,jsons/VE125_randls_22.json,665249,2204263,53,Man
12,685556,DepthScenes,duration_manipulation_targetAtFixation,jsons/VE125_randls_22.json,http://54.235.29.9/FacialAge/BNav_EC2/DepthDuration/v2_depth_duration_MTurk/v2_DepthDuration_HTML.html#21,21,1366,657,1366,768,8-21-2022,9-45-1,13,depth_duration_stimuli/000569_2014-06-09_22-51-47_260595134347_rgbf000141-resize_3/000569_2014-06-09_22-51-47_260595134347_rgbf000141-resize-original.jpg,125,4.512,0,1675,124,feet,jsons/VE125_randls_22.json,665249,2204263,53,Man
13,685556,DepthScenes,duration_manipulation_targetAtFixation,jsons/VE125_randls_22.json,http://54.235.29.9/FacialAge/BNav_EC2/DepthDuration/v2_depth_duration_MTurk/v2_DepthDuration_HTML.html#21,21,1366,657,1366,768,8-21-2022,9-45-1,14,depth_duration_stimuli/002570_2014-06-24_13-59-54_094959634447_rgbf000059-resize_0/002570_2014-06-24_13-59-54_094959634447_rgbf000059-resize_0-target.png,125,4.037,14,4915,125,feet,jsons/VE125_randls_22.json,665249,2204263,53,Man
14,685556,DepthScenes,duration_manipulation_targetAtFixation,jsons/VE125_randls_22.json,http://54.235.29.9/FacialAge/BNav_EC2/DepthDuration/v2_depth_duration_MTurk/v2_DepthDuration_HTML.html#21,21,1366,657,1366,768,8-21-2022,9-45-1,15,depth_duration_stimuli/002467_2014-06-28_20-38-07_260595134347_rgbf000026-resize_2/002467_2014-06-28_20-38-07_260595134347_rgbf000026-resize_2-target.png,125,4.742,15,3010,125,feet,jsons/VE125_randls_22.json,665249,2204263,53,Man
15,685556,DepthScenes,duration_manipulation_targetAtFixation,jsons/VE125_randls_22.json,http://54.235.29.9/FacialAge/BNav_EC2/DepthDuration/v2_depth_duration_MTurk/v2_DepthDuration_HTML.html#21,21,1366,657,1366,768,8-21-2022,9-45-1,16,depth_duration_stimuli/002213_2014-06-28_18-37-58_260595134347_rgbf000055-resize_1/002213_2014-06-28_18-37-58_260595134347_rgbf000055-resize_1-target.png,125,3.62,16,2108,125,feet,jsons/VE125_randls_22.json,665249,2204263,53,Man
16,685556,DepthScenes,duration_manipulation_targetAtFixation,jsons/VE125_randls_22.json,http://54.235.29.9/FacialAge/BNav_EC2/DepthDuration/v2_depth_duration_MTurk/v2_DepthDuration_HTML.html#21,21,1366,657,1366,768,8-21-2022,9-45-1,17,depth_duration_stimuli/000691_2014-06-08_13-08-50_260595134347_rgbf000132-resize_3/000691_2014-06-08_13-08-50_260595134347_rgbf000132-resize_3-target.png,125,4.1530000000000005,17,2843,125,feet,jsons/VE125_randls_22.json,665249,2204263,53,Man
17,685556,DepthScenes,duration_manipulation_targetAtFixation,jsons/VE125_randls_22.json,http://54.235.29.9/FacialAge/BNav_EC2/DepthDuration/v2_depth_duration_MTurk/v2_DepthDuration_HTML.html#21,21,1366,657,1366,768,8-21-2022,9-45-1,18,depth_duration_stimuli/003292_2014-05-14_21-53-49_094959634447_rgbf000100-resize_2/003292_2014-05-14_21-53-49_094959634447_rgbf000100-resize_2-target.png,125,3.4815,12,3379,125,feet,jsons/VE125_randls_22.json,665249,2204263,53,Man
18,685556,DepthScenes,duration_manipulation_targetAtFixation,jsons/VE125_randls_22.json,http://54.235.29.9/FacialAge/BNav_EC2/DepthDuration/v2_depth_duration_MTurk/v2_DepthDuration_HTML.html#21,21,1366,657,1366,768,8-21-2022,9-45-1,19,depth_duration_stimuli/002639_2014-06-24_14-51-37_094959634447_rgbf000074-resize_4/002639_2014-06-24_14-51-37_094959634447_rgbf000074-resize_4-target.png,125,4.0375,16,5307,125,feet,jsons/VE125_randls_22.json,665249,2204263,53,Man
19,685556,DepthScenes,duration_manipulation_targetAtFixation,jsons/VE125_randls_22.json,http://54.235.29.9/FacialAge/BNav_EC2/DepthDuration/v2_depth_duration_MTurk/v2_DepthDuration_HTML.html#21,21,1366,657,1366,768,8-21-2022,9-45-1,20,depth_duration_stimuli/000009_2014-05-26_14-32-05_260595134347_rgbf000034-resize_3/000009_2014-05-26_14-32-05_260595134347_rgbf000034-resize_3-target.png,125,3.8715,17,2162,124,feet,jsons/VE125_randls_22.json,665249,2204263,53,Man
20,685556,DepthScenes,duration_manipulation_targetAtFixation,jsons/VE125_randls_22.json,http://54.235.29.9/FacialAge/BNav_EC2/DepthDuration/v2_depth_duration_MTurk/v2_DepthDuration_HTML.html#21,21,1366,657,1366,768,8-21-2022,9-45-1,21,depth_duration_stimuli/001828_2014-06-26_21-40-03_260595134347_rgbf000024-resize_0/001828_2014-06-26_21-40-03_260595134347_rgbf000024-resize_0-target.png,125,4.8260000000000005,18,3978,124,feet,jsons/VE125_randls_22.json,665249,2204263,53,Man
21,685556,DepthScenes,duration_manipulation_targetAtFixation,jsons/VE125_randls_22.json,http://54.235.29.9/FacialAge/BNav_EC2/DepthDuration/v2_depth_duration_MTurk/v2_DepthDuration_HTML.html#21,21,1366,657,1366,768,8-21-2022,9-45-1,22,depth_duration_stimuli/000929_2014-06-09_16-33-19_260595134347_rgbf000139-resize_0/000929_2014-06-09_16-33-19_260595134347_rgbf000139-resize_0-target.png,125,2.8680000000000003,10,4891,124,feet,jsons/VE125_randls_22.json,665249,2204263,53,Man
22,685556,DepthScenes,duration_manipulation_targetAtFixation,jsons/VE125_randls_22.json,http://54.235.29.9/FacialAge/BNav_EC2/DepthDuration/v2_depth_duration_MTurk/v2_DepthDuration_HTML.html#21,21,1366,657,1366,768,8-21-2022,9-45-1,23,depth_duration_stimuli/000457_2014-06-08_16-52-43_260595134347_rgbf000199-resize_1/000457_2014-06-08_16-52-43_260595134347_rgbf000199-resize_1-target.png,125,3.6489999999999996,5,2075,124,feet,jsons/VE125_randls_22.json,665249,2204263,53,Man
23,685556,DepthScenes,duration_manipulation_targetAtFixation,jsons/VE125_randls_22.json,http://54.235.29.9/FacialAge/BNav_EC2/DepthDuration/v2_depth_duration_MTurk/v2_DepthDuration_HTML.html#21,21,1366,657,1366,768,8-21-2022,9-45-1,24,depth_duration_stimuli/000447_2014-06-08_16-15-46_260595134347_rgbf000130-resize_1/000447_2014-06-08_16-15-46_260595134347_rgbf000130-resize_1-target.png,125,4.479,6,1906,124,feet,jsons/VE125_randls_22.json,665249,2204263,53,Man
24,685556,DepthScenes,duration_manipulation_targetAtFixation,jsons/VE125_randls_22.json,http://54.235.29.9/FacialAge/BNav_EC2/DepthDuration/v2_depth_duration_MTurk/v2_DepthDuration_HTML.html#21,21,1366,657,1366,768,8-21-2022,9-45-1,25,depth_duration_stimuli/001447_2014-06-19_17-00-32_260595134347_rgbf000082-resize_5/001447_2014-06-19_17-00-32_260595134347_rgbf000082-resize_5-target.png,125,4.13775,4,3187,124,feet,jsons/VE125_randls_22.json,665249,2204263,53,Man
25,685556,DepthScenes,duration_manipulation_targetAtFixation,jsons/VE125_randls_22.json,http://54.235.29.9/FacialAge/BNav_EC2/DepthDuration/v2_depth_duration_MTurk/v2_DepthDuration_HTML.html#21,21,1366,657,1366,768,8-21-2022,9-45-1,26,depth_duration_stimuli/000522_2014-06-08_13-35-06_260595134347_rgbf000244-resize_1/000522_2014-06-08_13-35-06_260595134347_rgbf000244-resize_1-target.png,125,2.3715,3,2010,124,feet,jsons/VE125_randls_22.json,665249,2204263,53,Man
26,685556,DepthScenes,duration_manipulation_targetAtFixation,jsons/VE125_randls_22.json,http://54.235.29.9/FacialAge/BNav_EC2/DepthDuration/v2_depth_duration_MTurk/v2_DepthDuration_HTML.html#21,21,1366,657,1366,768,8-21-2022,9-45-1,27,depth_duration_stimuli/002949_2014-06-26_15-57-42_094959634447_rgbf000079-resize_1/002949_2014-06-26_15-57-42_094959634447_rgbf000079-resize_1-target.png,125,1.8915,4,1851,125,feet,jsons/VE125_randls_22.json,665249,2204263,53,Man
27,685556,DepthScenes,duration_manipulation_targetAtFixation,jsons/VE125_randls_22.json,http://54.235.29.9/FacialAge/BNav_EC2/DepthDuration/v2_depth_duration_MTurk/v2_DepthDuration_HTML.html#21,21,1366,657,1366,768,8-21-2022,9-45-1,28,depth_duration_stimuli/000486_2014-06-09_20-47-20_260595134347_rgbf000143-resize_2/000486_2014-06-09_20-47-20_260595134347_rgbf000143-resize_2-target.png,125,4.8325,5,2660,124,feet,jsons/VE125_randls_22.json,665249,2204263,53,Man
28,685556,DepthScenes,duration_manipulation_targetAtFixation,jsons/VE125_randls_22.json,http://54.235.29.9/FacialAge/BNav_EC2/DepthDuration/v2_depth_duration_MTurk/v2_DepthDuration_HTML.html#21,21,1366,657,1366,768,8-21-2022,9-45-1,29,depth_duration_stimuli/003083_2014-06-15_15-21-03_094959634447_rgbf000063-resize_1/003083_2014-06-15_15-21-03_094959634447_rgbf000063-resize_1-target.png,125,4.1405,6,1875,125,feet,jsons/VE125_randls_22.json,665249,2204263,53,Man
29,685556,DepthScenes,duration_manipulation_targetAtFixation,jsons/VE125_randls_22.json,http://54.235.29.9/FacialAge/BNav_EC2/DepthDuration/v2_depth_duration_MTurk/v2_DepthDuration_HTML.html#21,21,1366,657,1366,768,8-21-2022,9-45-1,30,depth_duration_stimuli/000375_2014-06-08_11-17-29_260595134347_rgbf000133-resize_2/000375_2014-06-08_11-17-29_260595134347_rgbf000133-resize-original.jpg,125,4.718,0,2739,125,feet,jsons/VE125_randls_22.json,665249,2204263,53,Man
30,685556,DepthScenes,duration_manipulation_targetAtFixation,jsons/VE125_randls_22.json,http://54.235.29.9/FacialAge/BNav_EC2/DepthDuration/v2_depth_duration_MTurk/v2_DepthDuration_HTML.html#21,21,1366,657,1366,768,8-21-2022,9-45-1,31,depth_duration_stimuli/000906_2014-06-08_13-35-43_260595134347_rgbf000155-resize_1/000906_2014-06-08_13-35-43_260595134347_rgbf000155-resize_1-target.png,125,2.8489999999999998,16,4220,125,feet,jsons/VE125_randls_22.json,665249,2204263,53,Man
31,685556,DepthScenes,duration_manipulation_targetAtFixation,jsons/VE125_randls_22.json,http://54.235.29.9/FacialAge/BNav_EC2/DepthDuration/v2_depth_duration_MTurk/v2_DepthDuration_HTML.html#21,21,1366,657,1366,768,8-21-2022,9-45-1,32,depth_duration_stimuli/002805_2014-06-22_19-54-03_094959634447_rgbf000079-resize_1/002805_2014-06-22_19-54-03_094959634447_rgbf000079-resize_1-target.png,125,3.1439999999999997,15,2251,125,feet,jsons/VE125_randls_22.json,665249,2204263,53,Man
32,685556,DepthScenes,duration_manipulation_targetAtFixation,jsons/VE125_randls_22.json,http://54.235.29.9/FacialAge/BNav_EC2/DepthDuration/v2_depth_duration_MTurk/v2_DepthDuration_HTML.html#21,21,1366,657,1366,768,8-21-2022,9-45-1,33,depth_duration_stimuli/002725_2014-06-22_11-47-51_094959634447_rgbf000070-resize_1/002725_2014-06-22_11-47-51_094959634447_rgbf000070-resize_1-target.png,125,2.195,7,4395,124,feet,jsons/VE125_randls_22.json,665249,2204263,53,Man
33,685556,DepthScenes,duration_manipulation_targetAtFixation,jsons/VE125_randls_22.json,http://54.235.29.9/FacialAge/BNav_EC2/DepthDuration/v2_depth_duration_MTurk/v2_DepthDuration_HTML.html#21,21,1366,657,1366,768,8-21-2022,9-45-1,34,depth_duration_stimuli/002344_2014-06-28_20-06-29_260595134347_rgbf000030-resize_1/002344_2014-06-28_20-06-29_260595134347_rgbf000030-resize_1-target.png,125,1.5795,16,2860,125,feet,jsons/VE125_randls_22.json,665249,2204263,53,Man
34,685556,DepthScenes,duration_manipulation_targetAtFixation,jsons/VE125_randls_22.json,http://54.235.29.9/FacialAge/BNav_EC2/DepthDuration/v2_depth_duration_MTurk/v2_DepthDuration_HTML.html#21,21,1366,657,1366,768,8-21-2022,9-45-1,35,depth_duration_stimuli/003534_2014-05-22_15-06-10_094959634447_rgbf000102-resize_4/003534_2014-05-22_15-06-10_094959634447_rgbf000102-resize_4-target.png,125,1.426,15,2507,125,feet,jsons/VE125_randls_22.json,665249,2204263,53,Man
35,685556,DepthScenes,duration_manipulation_targetAtFixation,jsons/VE125_randls_22.json,http://54.235.29.9/FacialAge/BNav_EC2/DepthDuration/v2_depth_duration_MTurk/v2_DepthDuration_HTML.html#21,21,1366,657,1366,768,8-21-2022,9-45-1,36,depth_duration_stimuli/002637_2014-06-24_14-51-13_094959634447_rgbf000066-resize_4/002637_2014-06-24_14-51-13_094959634447_rgbf000066-resize_4-target.png,125,1.9955,17,3643,124,feet,jsons/VE125_randls_22.json,665249,2204263,53,Man
36,685556,DepthScenes,duration_manipulation_targetAtFixation,jsons/VE125_randls_22.json,http://54.235.29.9/FacialAge/BNav_EC2/DepthDuration/v2_depth_duration_MTurk/v2_DepthDuration_HTML.html#21,21,1366,657,1366,768,8-21-2022,9-45-1,37,depth_duration_stimuli/002057_2014-06-24_21-00-13_260595134347_rgbf000120-resize_1/002057_2014-06-24_21-00-13_260595134347_rgbf000120-resize_1-target.png,125,2.967,16,3354,125,feet,jsons/VE125_randls_22.json,665249,2204263,53,Man
37,685556,DepthScenes,duration_manipulation_targetAtFixation,jsons/VE125_randls_22.json,http://54.235.29.9/FacialAge/BNav_EC2/DepthDuration/v2_depth_duration_MTurk/v2_DepthDuration_HTML.html#21,21,1366,657,1366,768,8-21-2022,9-45-1,38,depth_duration_stimuli/000709_2014-06-08_13-51-55_260595134347_rgbf000068-resize_3/000709_2014-06-08_13-51-55_260595134347_rgbf000068-resize_3-target.png,125,1.8030000000000002,17,3226,124,feet,jsons/VE125_randls_22.json,665249,2204263,53,Man
38,685556,DepthScenes,duration_manipulation_targetAtFixation,jsons/VE125_randls_22.json,http://54.235.29.9/FacialAge/BNav_EC2/DepthDuration/v2_depth_duration_MTurk/v2_DepthDuration_HTML.html#21,21,1366,657,1366,768,8-21-2022,9-45-1,39,depth_duration_stimuli/002509_2014-06-24_13-19-22_094959634447_rgbf000077-resize_0/002509_2014-06-24_13-19-22_094959634447_rgbf000077-resize_0-target.png,125,1.3065,15,2546,124,feet,jsons/VE125_randls_22.json,665249,2204263,53,Man
39,685556,DepthScenes,duration_manipulation_targetAtFixation,jsons/VE125_randls_22.json,http://54.235.29.9/FacialAge/BNav_EC2/DepthDuration/v2_depth_duration_MTurk/v2_DepthDuration_HTML.html#21,21,1366,657,1366,768,8-21-2022,9-45-1,40,depth_duration_stimuli/003338_2014-05-20_11-01-23_094959634447_rgbf000051-resize_6/003338_2014-05-20_11-01-23_094959634447_rgbf000051-resize_6-target.png,125,1.693,4,2971,125,feet,jsons/VE125_randls_22.json,665249,2204263,53,Man
40,685556,DepthScenes,duration_manipulation_targetAtFixation,jsons/VE125_randls_22.json,http://54.235.29.9/FacialAge/BNav_EC2/DepthDuration/v2_depth_duration_MTurk/v2_DepthDuration_HTML.html#21,21,1366,657,1366,768,8-21-2022,9-45-1,41,depth_duration_stimuli/000470_2014-06-09_19-42-40_260595134347_rgbf000094-resize_1/000470_2014-06-09_19-42-40_260595134347_rgbf000094-resize_1-target.png,125,1.831,4,3666,124,feet,jsons/VE125_randls_22.json,665249,2204263,53,Man
41,685556,DepthScenes,duration_manipulation_targetAtFixation,jsons/VE125_randls_22.json,http://54.235.29.9/FacialAge/BNav_EC2/DepthDuration/v2_depth_duration_MTurk/v2_DepthDuration_HTML.html#21,21,1366,657,1366,768,8-21-2022,9-45-1,42,depth_duration_stimuli/000109_2014-05-14_23-41-52_260595134347_rgbf000035-resize_9/000109_2014-05-14_23-41-52_260595134347_rgbf000035-resize_9-target.png,125,1.3545,3,6666,125,feet,jsons/VE125_randls_22.json,665249,2204263,53,Man
42,685556,DepthScenes,duration_manipulation_targetAtFixation,jsons/VE125_randls_22.json,http://54.235.29.9/FacialAge/BNav_EC2/DepthDuration/v2_depth_duration_MTurk/v2_DepthDuration_HTML.html#21,21,1366,657,1366,768,8-21-2022,9-45-1,43,depth_duration_stimuli/000788_2014-06-08_22-34-36_260595134347_rgbf000131-resize_1/000788_2014-06-08_22-34-36_260595134347_rgbf000131-resize_1-target.png,125,3.359,7,4907,124,feet,jsons/VE125_randls_22.json,665249,2204263,53,Man
43,685556,DepthScenes,duration_manipulation_targetAtFixation,jsons/VE125_randls_22.json,http://54.235.29.9/FacialAge/BNav_EC2/DepthDuration/v2_depth_duration_MTurk/v2_DepthDuration_HTML.html#21,21,1366,657,1366,768,8-21-2022,9-45-1,44,depth_duration_stimuli/001235_2014-06-17_16-37-36_260595134347_rgbf000084-resize_4/001235_2014-06-17_16-37-36_260595134347_rgbf000084-resize_4-target.png,125,3.6605,5,2923,126,feet,jsons/VE125_randls_22.json,665249,2204263,53,Man
44,685556,DepthScenes,duration_manipulation_targetAtFixation,jsons/VE125_randls_22.json,http://54.235.29.9/FacialAge/BNav_EC2/DepthDuration/v2_depth_duration_MTurk/v2_DepthDuration_HTML.html#21,21,1366,657,1366,768,8-21-2022,9-45-1,45,depth_duration_stimuli/000787_2014-06-08_22-33-53_260595134347_rgbf000175-resize_1/000787_2014-06-08_22-33-53_260595134347_rgbf000175-resize-original.jpg,125,4.784,0,1707,124,feet,jsons/VE125_randls_22.json,665249,2204263,53,Man
45,685556,DepthScenes,duration_manipulation_targetAtFixation,jsons/VE125_randls_22.json,http://54.235.29.9/FacialAge/BNav_EC2/DepthDuration/v2_depth_duration_MTurk/v2_DepthDuration_HTML.html#21,21,1366,657,1366,768,8-21-2022,9-45-1,46,depth_duration_stimuli/000469_2014-06-09_19-42-10_260595134347_rgbf000081-resize_1/000469_2014-06-09_19-42-10_260595134347_rgbf000081-resize_1-target.png,125,1.652,3,3531,124,feet,jsons/VE125_randls_22.json,665249,2204263,53,Man
46,685556,DepthScenes,duration_manipulation_targetAtFixation,jsons/VE125_randls_22.json,http://54.235.29.9/FacialAge/BNav_EC2/DepthDuration/v2_depth_duration_MTurk/v2_DepthDuration_HTML.html#21,21,1366,657,1366,768,8-21-2022,9-45-1,47,depth_duration_stimuli/000483_2014-06-09_20-41-45_260595134347_rgbf000116-resize_4/000483_2014-06-09_20-41-45_260595134347_rgbf000116-resize_4-target.png,125,1.337,4,1819,124,feet,jsons/VE125_randls_22.json,665249,2204263,53,Man
47,685556,DepthScenes,duration_manipulation_targetAtFixation,jsons/VE125_randls_22.json,http://54.235.29.9/FacialAge/BNav_EC2/DepthDuration/v2_depth_duration_MTurk/v2_DepthDuration_HTML.html#21,21,1366,657,1366,768,8-21-2022,9-45-1,48,depth_duration_stimuli/003621_2014-05-23_18-06-08_094959634447_rgbf000101-resize_1/003621_2014-05-23_18-06-08_094959634447_rgbf000101-resize_1-target.png,125,3.9835,7,2571,124,feet,jsons/VE125_randls_22.json,665249,2204263,53,Man
48,685556,DepthScenes,duration_manipulation_targetAtFixation,jsons/VE125_randls_22.json,http://54.235.29.9/FacialAge/BNav_EC2/DepthDuration/v2_depth_duration_MTurk/v2_DepthDuration_HTML.html#21,21,1366,657,1366,768,8-21-2022,9-45-1,49,depth_duration_stimuli/001584_2014-06-20_11-07-43_260595134347_rgbf000002-resize_1/001584_2014-06-20_11-07-43_260595134347_rgbf000002-resize_1-target.png,125,3.53,6,2627,125,feet,jsons/VE125_randls_22.json,665249,2204263,53,Man
49,685556,DepthScenes,duration_manipulation_targetAtFixation,jsons/VE125_randls_22.json,http://54.235.29.9/FacialAge/BNav_EC2/DepthDuration/v2_depth_duration_MTurk/v2_DepthDuration_HTML.html#21,21,1366,657,1366,768,8-21-2022,9-45-1,50,depth_duration_stimuli/002788_2014-06-22_19-36-03_094959634447_rgbf000088-resize_2/002788_2014-06-22_19-36-03_094959634447_rgbf000088-resize_2-target.png,125,1.6465,8,2522,124,feet,jsons/VE125_randls_22.json,665249,2204263,53,Man
50,685556,DepthScenes,duration_manipulation_targetAtFixation,jsons/VE125_randls_22.json,http://54.235.29.9/FacialAge/BNav_EC2/DepthDuration/v2_depth_duration_MTurk/v2_DepthDuration_HTML.html#21,21,1366,657,1366,768,8-21-2022,9-45-1,51,depth_duration_stimuli/000749_2014-06-08_21-55-06_260595134347_rgbf000070-resize_2/000749_2014-06-08_21-55-06_260595134347_rgbf000070-resize_2-target.png,125,2.331,8,4347,124,feet,jsons/VE125_randls_22.json,665249,2204263,53,Man
51,685556,DepthScenes,duration_manipulation_targetAtFixation,jsons/VE125_randls_22.json,http://54.235.29.9/FacialAge/BNav_EC2/DepthDuration/v2_depth_duration_MTurk/v2_DepthDuration_HTML.html#21,21,1366,657,1366,768,8-21-2022,9-45-1,52,depth_duration_stimuli/000810_2014-06-08_17-20-01_260595134347_rgbf000105-resize_0/000810_2014-06-08_17-20-01_260595134347_rgbf000105-resize_0-target.png,125,1.4865,5,2450,123,feet,jsons/VE125_randls_22.json,665249,2204263,53,Man
52,685556,DepthScenes,duration_manipulation_targetAtFixation,jsons/VE125_randls_22.json,http://54.235.29.9/FacialAge/BNav_EC2/DepthDuration/v2_depth_duration_MTurk/v2_DepthDuration_HTML.html#21,21,1366,657,1366,768,8-21-2022,9-45-1,53,depth_duration_stimuli/001214_2014-06-17_16-13-55_260595134347_rgbf000111-resize_0/001214_2014-06-17_16-13-55_260595134347_rgbf000111-resize_0-target.png,125,2.6505,4,2034,124,feet,jsons/VE125_randls_22.json,665249,2204263,53,Man
53,685556,DepthScenes,duration_manipulation_targetAtFixation,jsons/VE125_randls_22.json,http://54.235.29.9/FacialAge/BNav_EC2/DepthDuration/v2_depth_duration_MTurk/v2_DepthDuration_HTML.html#21,21,1366,657,1366,768,8-21-2022,9-45-1,54,depth_duration_stimuli/000917_2014-06-09_22-45-29_260595134347_rgbf000149-resize_3/000917_2014-06-09_22-45-29_260595134347_rgbf000149-resize_3-target.png,125,4.1865,10,4490,125,feet,jsons/VE125_randls_22.json,665249,2204263,53,Man
54,685556,DepthScenes,duration_manipulation_targetAtFixation,jsons/VE125_randls_22.json,http://54.235.29.9/FacialAge/BNav_EC2/DepthDuration/v2_depth_duration_MTurk/v2_DepthDuration_HTML.html#21,21,1366,657,1366,768,8-21-2022,9-45-1,55,depth_duration_stimuli/002323_2014-06-28_20-01-54_260595134347_rgbf000051-resize_4/002323_2014-06-28_20-01-54_260595134347_rgbf000051-resize_4-target.png,125,3.7310000000000003,7,4323,125,feet,jsons/VE125_randls_22.json,665249,2204263,53,Man
55,685556,DepthScenes,duration_manipulation_targetAtFixation,jsons/VE125_randls_22.json,http://54.235.29.9/FacialAge/BNav_EC2/DepthDuration/v2_depth_duration_MTurk/v2_DepthDuration_HTML.html#21,21,1366,657,1366,768,8-21-2022,9-45-1,56,depth_duration_stimuli/002153_2014-06-25_21-27-18_260595134347_rgbf000038-resize_5/002153_2014-06-25_21-27-18_260595134347_rgbf000038-resize_5-target.png,125,2.505,4,2082,124,feet,jsons/VE125_randls_22.json,665249,2204263,53,Man
56,685556,DepthScenes,duration_manipulation_targetAtFixation,jsons/VE125_randls_22.json,http://54.235.29.9/FacialAge/BNav_EC2/DepthDuration/v2_depth_duration_MTurk/v2_DepthDuration_HTML.html#21,21,1366,657,1366,768,8-21-2022,9-45-1,57,depth_duration_stimuli/002660_2014-06-13_15-44-18_094959634447_rgbf001878-resize_2/002660_2014-06-13_15-44-18_094959634447_rgbf001878-resize_2-target.png,125,3.576,6,2339,125,feet,jsons/VE125_randls_22.json,665249,2204263,53,Man
57,685556,DepthScenes,duration_manipulation_targetAtFixation,jsons/VE125_randls_22.json,http://54.235.29.9/FacialAge/BNav_EC2/DepthDuration/v2_depth_duration_MTurk/v2_DepthDuration_HTML.html#21,21,1366,657,1366,768,8-21-2022,9-45-1,58,depth_duration_stimuli/001244_2014-06-17_16-47-45_260595134347_rgbf000030-resize_4/001244_2014-06-17_16-47-45_260595134347_rgbf000030-resize_4-target.png,125,2.0425,7,2020,125,feet,jsons/VE125_randls_22.json,665249,2204263,53,Man
58,685556,DepthScenes,duration_manipulation_targetAtFixation,jsons/VE125_randls_22.json,http://54.235.29.9/FacialAge/BNav_EC2/DepthDuration/v2_depth_duration_MTurk/v2_DepthDuration_HTML.html#21,21,1366,657,1366,768,8-21-2022,9-45-1,59,depth_duration_stimuli/003495_2014-05-21_16-01-51_094959634447_rgbf000100-resize_3/003495_2014-05-21_16-01-51_094959634447_rgbf000100-resize_3-target.png,125,1.6255,5,2228,125,feet,jsons/VE125_randls_22.json,665249,2204263,53,Man
59,685556,DepthScenes,duration_manipulation_targetAtFixation,jsons/VE125_randls_22.json,http://54.235.29.9/FacialAge/BNav_EC2/DepthDuration/v2_depth_duration_MTurk/v2_DepthDuration_HTML.html#21,21,1366,657,1366,768,8-21-2022,9-45-1,60,depth_duration_stimuli/002905_2014-06-03_18-04-43_094959634447_rgbf000151-resize_2/002905_2014-06-03_18-04-43_094959634447_rgbf000151-resize_2-target.png,125,2.0295,5,1843,125,feet,jsons/VE125_randls_22.json,665249,2204263,53,Man
60,685556,DepthScenes,duration_manipulation_targetAtFixation,jsons/VE125_randls_22.json,http://54.235.29.9/FacialAge/BNav_EC2/DepthDuration/v2_depth_duration_MTurk/v2_DepthDuration_HTML.html#21,21,1366,657,1366,768,8-21-2022,9-45-1,61,depth_duration_stimuli/003423_2014-05-21_10-23-26_094959634447_rgbf002665-resize_2/003423_2014-05-21_10-23-26_094959634447_rgbf002665-resize_2-target.png,125,3.2575,13,2763,124,feet,jsons/VE125_randls_22.json,665249,2204263,53,Man
61,685556,DepthScenes,duration_manipulation_targetAtFixation,jsons/VE125_randls_22.json,http://54.235.29.9/FacialAge/BNav_EC2/DepthDuration/v2_depth_duration_MTurk/v2_DepthDuration_HTML.html#21,21,1366,657,1366,768,8-21-2022,9-45-1,62,depth_duration_stimuli/002630_2014-06-24_14-47-50_094959634447_rgbf000055-resize_1/002630_2014-06-24_14-47-50_094959634447_rgbf000055-resize_1-target.png,125,3.0095,10,2338,125,feet,jsons/VE125_randls_22.json,665249,2204263,53,Man
62,685556,DepthScenes,duration_manipulation_targetAtFixation,jsons/VE125_randls_22.json,http://54.235.29.9/FacialAge/BNav_EC2/DepthDuration/v2_depth_duration_MTurk/v2_DepthDuration_HTML.html#21,21,1366,657,1366,768,8-21-2022,9-45-1,63,depth_duration_stimuli/002758_2014-06-22_19-11-20_094959634447_rgbf000128-resize_1/002758_2014-06-22_19-11-20_094959634447_rgbf000128-resize_1-target.png,125,2.555,5,4177,122,feet,jsons/VE125_randls_22.json,665249,2204263,53,Man
63,685556,DepthScenes,duration_manipulation_targetAtFixation,jsons/VE125_randls_22.json,http://54.235.29.9/FacialAge/BNav_EC2/DepthDuration/v2_depth_duration_MTurk/v2_DepthDuration_HTML.html#21,21,1366,657,1366,768,8-21-2022,9-45-1,64,depth_duration_stimuli/000642_2014-06-08_16-59-25_260595134347_rgbf000098-resize_2/000642_2014-06-08_16-59-25_260595134347_rgbf000098-resize_2-target.png,125,2.8815,6,1939,125,feet,jsons/VE125_randls_22.json,665249,2204263,53,Man
64,685556,DepthScenes,duration_manipulation_targetAtFixation,jsons/VE125_randls_22.json,http://54.235.29.9/FacialAge/BNav_EC2/DepthDuration/v2_depth_duration_MTurk/v2_DepthDuration_HTML.html#21,21,1366,657,1366,768,8-21-2022,9-45-1,65,depth_duration_stimuli/002425_2014-06-28_20-27-29_260595134347_rgbf000031-resize_8/002425_2014-06-28_20-27-29_260595134347_rgbf000031-resize_8-target.png,125,3.8960000000000004,12,2147,125,feet,jsons/VE125_randls_22.json,665249,2204263,53,Man
65,685556,DepthScenes,duration_manipulation_targetAtFixation,jsons/VE125_randls_22.json,http://54.235.29.9/FacialAge/BNav_EC2/DepthDuration/v2_depth_duration_MTurk/v2_DepthDuration_HTML.html#21,21,1366,657,1366,768,8-21-2022,9-45-1,66,depth_duration_stimuli/001222_2014-06-17_16-24-06_260595134347_rgbf000073-resize_0/001222_2014-06-17_16-24-06_260595134347_rgbf000073-resize-original.jpg,125,1.4385,0,1811,125,feet,jsons/VE125_randls_22.json,665249,2204263,53,Man
66,685556,DepthScenes,duration_manipulation_targetAtFixation,jsons/VE125_randls_22.json,http://54.235.29.9/FacialAge/BNav_EC2/DepthDuration/v2_depth_duration_MTurk/v2_DepthDuration_HTML.html#21,21,1366,657,1366,768,8-21-2022,9-45-1,67,depth_duration_stimuli/001808_2014-06-26_20-50-58_260595134347_rgbf000029-resize_1/001808_2014-06-26_20-50-58_260595134347_rgbf000029-resize_1-target.png,125,4.249,17,2738,125,feet,jsons/VE125_randls_22.json,665249,2204263,53,Man
67,685556,DepthScenes,duration_manipulation_targetAtFixation,jsons/VE125_randls_22.json,http://54.235.29.9/FacialAge/BNav_EC2/DepthDuration/v2_depth_duration_MTurk/v2_DepthDuration_HTML.html#21,21,1366,657,1366,768,8-21-2022,9-45-1,68,depth_duration_stimuli/001815_2014-06-26_20-52-55_260595134347_rgbf000020-resize_0/001815_2014-06-26_20-52-55_260595134347_rgbf000020-resize_0-target.png,125,3.3865,12,2250,125,feet,jsons/VE125_randls_22.json,665249,2204263,53,Man
68,685556,DepthScenes,duration_manipulation_targetAtFixation,jsons/VE125_randls_22.json,http://54.235.29.9/FacialAge/BNav_EC2/DepthDuration/v2_depth_duration_MTurk/v2_DepthDuration_HTML.html#21,21,1366,657,1366,768,8-21-2022,9-45-1,69,depth_duration_stimuli/002445_2014-06-28_20-32-16_260595134347_rgbf000029-resize_4/002445_2014-06-28_20-32-16_260595134347_rgbf000029-resize_4-target.png,125,2.5315,10,2027,125,feet,jsons/VE125_randls_22.json,665249,2204263,53,Man
69,685556,DepthScenes,duration_manipulation_targetAtFixation,jsons/VE125_randls_22.json,http://54.235.29.9/FacialAge/BNav_EC2/DepthDuration/v2_depth_duration_MTurk/v2_DepthDuration_HTML.html#21,21,1366,657,1366,768,8-21-2022,9-45-1,70,depth_duration_stimuli/000780_2014-06-08_22-28-29_260595134347_rgbf000126-resize_1/000780_2014-06-08_22-28-29_260595134347_rgbf000126-resize_1-target.png,125,3.3825,12,4539,125,feet,jsons/VE125_randls_22.json,665249,2204263,53,Man
70,685556,DepthScenes,duration_manipulation_targetAtFixation,jsons/VE125_randls_22.json,http://54.235.29.9/FacialAge/BNav_EC2/DepthDuration/v2_depth_duration_MTurk/v2_DepthDuration_HTML.html#21,21,1366,657,1366,768,8-21-2022,9-45-1,71,depth_duration_stimuli/001199_2014-06-17_16-03-48_260595134347_rgbf000077-resize_0/001199_2014-06-17_16-03-48_260595134347_rgbf000077-resize_0-target.png,125,3.4375,15,2225,124,feet,jsons/VE125_randls_22.json,665249,2204263,53,Man
71,685556,DepthScenes,duration_manipulation_targetAtFixation,jsons/VE125_randls_22.json,http://54.235.29.9/FacialAge/BNav_EC2/DepthDuration/v2_depth_duration_MTurk/v2_DepthDuration_HTML.html#21,21,1366,657,1366,768,8-21-2022,9-45-1,72,depth_duration_stimuli/000502_2014-06-08_23-02-32_260595134347_rgbf000063-resize_4/000502_2014-06-08_23-02-32_260595134347_rgbf000063-resize_4-target.png,125,2.431,11,3483,125,feet,jsons/VE125_randls_22.json,665249,2204263,53,Man
72,685556,DepthScenes,duration_manipulation_targetAtFixation,jsons/VE125_randls_22.json,http://54.235.29.9/FacialAge/BNav_EC2/DepthDuration/v2_depth_duration_MTurk/v2_DepthDuration_HTML.html#21,21,1366,657,1366,768,8-21-2022,9-45-1,73,depth_duration_stimuli/000506_2014-06-08_23-21-00_260595134347_rgbf000070-resize_7/000506_2014-06-08_23-21-00_260595134347_rgbf000070-resize_7-target.png,125,4.0585,16,2187,125,feet,jsons/VE125_randls_22.json,665249,2204263,53,Man
73,685556,DepthScenes,duration_manipulation_targetAtFixation,jsons/VE125_randls_22.json,http://54.235.29.9/FacialAge/BNav_EC2/DepthDuration/v2_depth_duration_MTurk/v2_DepthDuration_HTML.html#21,21,1366,657,1366,768,8-21-2022,9-45-1,74,depth_duration_stimuli/003079_2014-06-15_15-18-20_094959634447_rgbf000152-resize_8/003079_2014-06-15_15-18-20_094959634447_rgbf000152-resize_8-target.png,125,2.8775,7,3370,125,feet,jsons/VE125_randls_22.json,665249,2204263,53,Man
74,685556,DepthScenes,duration_manipulation_targetAtFixation,jsons/VE125_randls_22.json,http://54.235.29.9/FacialAge/BNav_EC2/DepthDuration/v2_depth_duration_MTurk/v2_DepthDuration_HTML.html#21,21,1366,657,1366,768,8-21-2022,9-45-1,75,depth_duration_stimuli/000436_2014-06-09_22-25-11_260595134347_rgbf000137-resize_1/000436_2014-06-09_22-25-11_260595134347_rgbf000137-resize_1-target.png,125,4.0705,16,2570,125,feet,jsons/VE125_randls_22.json,665249,2204263,53,Man
75,685556,DepthScenes,duration_manipulation_targetAtFixation,jsons/VE125_randls_22.json,http://54.235.29.9/FacialAge/BNav_EC2/DepthDuration/v2_depth_duration_MTurk/v2_DepthDuration_HTML.html#21,21,1366,657,1366,768,8-21-2022,9-45-1,76,depth_duration_stimuli/002444_2014-06-28_20-32-08_260595134347_rgbf000027-resize_0/002444_2014-06-28_20-32-08_260595134347_rgbf000027-resize_0-target.png,125,4.388999999999999,17,1835,124,feet,jsons/VE125_randls_22.json,665249,2204263,53,Man
76,685556,DepthScenes,duration_manipulation_targetAtFixation,jsons/VE125_randls_22.json,http://54.235.29.9/FacialAge/BNav_EC2/DepthDuration/v2_depth_duration_MTurk/v2_DepthDuration_HTML.html#21,21,1366,657,1366,768,8-21-2022,9-45-1,77,depth_duration_stimuli/002375_2014-06-28_20-13-44_260595134347_rgbf000032-resize_1/002375_2014-06-28_20-13-44_260595134347_rgbf000032-resize_1-target.png,125,4.0175,7,3162,124,feet,jsons/VE125_randls_22.json,665249,2204263,53,Man
77,685556,DepthScenes,duration_manipulation_targetAtFixation,jsons/VE125_randls_22.json,http://54.235.29.9/FacialAge/BNav_EC2/DepthDuration/v2_depth_duration_MTurk/v2_DepthDuration_HTML.html#21,21,1366,657,1366,768,8-21-2022,9-45-1,78,depth_duration_stimuli/002657_2014-06-13_15-29-54_094959634447_rgbf000150-resize_1/002657_2014-06-13_15-29-54_094959634447_rgbf000150-resize_1-target.png,125,4.919,8,2194,125,feet,jsons/VE125_randls_22.json,665249,2204263,53,Man
78,685556,DepthScenes,duration_manipulation_targetAtFixation,jsons/VE125_randls_22.json,http://54.235.29.9/FacialAge/BNav_EC2/DepthDuration/v2_depth_duration_MTurk/v2_DepthDuration_HTML.html#21,21,1366,657,1366,768,8-21-2022,9-45-1,79,depth_duration_stimuli/001164_2014-06-17_15-35-46_260595134347_rgbf000085-resize_3/001164_2014-06-17_15-35-46_260595134347_rgbf000085-resize_3-target.png,125,2.354,9,1787,125,feet,jsons/VE125_randls_22.json,665249,2204263,53,Man
79,685556,DepthScenes,duration_manipulation_targetAtFixation,jsons/VE125_randls_22.json,http://54.235.29.9/FacialAge/BNav_EC2/DepthDuration/v2_depth_duration_MTurk/v2_DepthDuration_HTML.html#21,21,1366,657,1366,768,8-21-2022,9-45-1,80,depth_duration_stimuli/001136_2014-06-17_15-19-41_260595134347_rgbf000076-resize_3/001136_2014-06-17_15-19-41_260595134347_rgbf000076-resize_3-target.png,125,1.8655,6,3035,125,feet,jsons/VE125_randls_22.json,665249,2204263,53,Man
80,685556,DepthScenes,duration_manipulation_targetAtFixation,jsons/VE125_randls_22.json,http://54.235.29.9/FacialAge/BNav_EC2/DepthDuration/v2_depth_duration_MTurk/v2_DepthDuration_HTML.html#21,21,1366,657,1366,768,8-21-2022,9-45-1,81,depth_duration_stimuli/000692_2014-06-08_13-09-42_260595134347_rgbf000199-resize_2/000692_2014-06-08_13-09-42_260595134347_rgbf000199-resize_2-target.png,125,3.661,13,2354,124,feet,jsons/VE125_randls_22.json,665249,2204263,53,Man
81,685556,DepthScenes,duration_manipulation_targetAtFixation,jsons/VE125_randls_22.json,http://54.235.29.9/FacialAge/BNav_EC2/DepthDuration/v2_depth_duration_MTurk/v2_DepthDuration_HTML.html#21,21,1366,657,1366,768,8-21-2022,9-45-1,82,depth_duration_stimuli/001094_2014-06-15_17-36-00_260595134347_rgbf000205-resize_0/001094_2014-06-15_17-36-00_260595134347_rgbf000205-resize_0-target.png,125,4.2175,15,1866,124,feet,jsons/VE125_randls_22.json,665249,2204263,53,Man
82,685556,DepthScenes,duration_manipulation_targetAtFixation,jsons/VE125_randls_22.json,http://54.235.29.9/FacialAge/BNav_EC2/DepthDuration/v2_depth_duration_MTurk/v2_DepthDuration_HTML.html#21,21,1366,657,1366,768,8-21-2022,9-45-1,83,depth_duration_stimuli/000878_2014-06-08_22-52-45_260595134347_rgbf000045-resize_2/000878_2014-06-08_22-52-45_260595134347_rgbf000045-resize_2-target.png,125,2.092,10,3635,125,feet,jsons/VE125_randls_22.json,665249,2204263,53,Man
83,685556,DepthScenes,duration_manipulation_targetAtFixation,jsons/VE125_randls_22.json,http://54.235.29.9/FacialAge/BNav_EC2/DepthDuration/v2_depth_duration_MTurk/v2_DepthDuration_HTML.html#21,21,1366,657,1366,768,8-21-2022,9-45-1,84,depth_duration_stimuli/002953_2014-06-08_17-32-18_094959634447_rgbf000059-resize_5/002953_2014-06-08_17-32-18_094959634447_rgbf000059-resize_5-target.png,125,1.551,3,2042,125,feet,jsons/VE125_randls_22.json,665249,2204263,53,Man
84,685556,DepthScenes,duration_manipulation_targetAtFixation,jsons/VE125_randls_22.json,http://54.235.29.9/FacialAge/BNav_EC2/DepthDuration/v2_depth_duration_MTurk/v2_DepthDuration_HTML.html#21,21,1366,657,1366,768,8-21-2022,9-45-1,85,depth_duration_stimuli/002663_2014-06-13_15-50-26_094959634447_rgbf000075-resize_1/002663_2014-06-13_15-50-26_094959634447_rgbf000075-resize_1-target.png,125,4.7495,5,2354,124,feet,jsons/VE125_randls_22.json,665249,2204263,53,Man
85,685556,DepthScenes,duration_manipulation_targetAtFixation,jsons/VE125_randls_22.json,http://54.235.29.9/FacialAge/BNav_EC2/DepthDuration/v2_depth_duration_MTurk/v2_DepthDuration_HTML.html#21,21,1366,657,1366,768,8-21-2022,9-45-1,86,depth_duration_stimuli/000409_2014-06-04_19-23-33_260595134347_rgbf000067-resize_0/000409_2014-06-04_19-23-33_260595134347_rgbf000067-resize_0-target.png,125,3.7335,16,3530,124,feet,jsons/VE125_randls_22.json,665249,2204263,53,Man
86,685556,DepthScenes,duration_manipulation_targetAtFixation,jsons/VE125_randls_22.json,http://54.235.29.9/FacialAge/BNav_EC2/DepthDuration/v2_depth_duration_MTurk/v2_DepthDuration_HTML.html#21,21,1366,657,1366,768,8-21-2022,9-45-1,87,depth_duration_stimuli/002989_2014-06-15_12-25-03_094959634447_rgbf000150-resize_3/002989_2014-06-15_12-25-03_094959634447_rgbf000150-resize_3-target.png,125,4.1975,13,2370,125,feet,jsons/VE125_randls_22.json,665249,2204263,53,Man
87,685556,DepthScenes,duration_manipulation_targetAtFixation,jsons/VE125_randls_22.json,http://54.235.29.9/FacialAge/BNav_EC2/DepthDuration/v2_depth_duration_MTurk/v2_DepthDuration_HTML.html#21,21,1366,657,1366,768,8-21-2022,9-45-1,88,depth_duration_stimuli/000866_2014-06-09_20-45-42_260595134347_rgbf000139-resize_1/000866_2014-06-09_20-45-42_260595134347_rgbf000139-resize_1-target.png,125,3.2155,10,3011,125,feet,jsons/VE125_randls_22.json,665249,2204263,53,Man
88,685556,DepthScenes,duration_manipulation_targetAtFixation,jsons/VE125_randls_22.json,http://54.235.29.9/FacialAge/BNav_EC2/DepthDuration/v2_depth_duration_MTurk/v2_DepthDuration_HTML.html#21,21,1366,657,1366,768,8-21-2022,9-45-1,89,depth_duration_stimuli/001167_2014-06-17_15-38-07_260595134347_rgbf000108-resize_0/001167_2014-06-17_15-38-07_260595134347_rgbf000108-resize_0-target.png,125,1.8505,7,2435,124,feet,jsons/VE125_randls_22.json,665249,2204263,53,Man
89,685556,DepthScenes,duration_manipulation_targetAtFixation,jsons/VE125_randls_22.json,http://54.235.29.9/FacialAge/BNav_EC2/DepthDuration/v2_depth_duration_MTurk/v2_DepthDuration_HTML.html#21,21,1366,657,1366,768,8-21-2022,9-45-1,90,depth_duration_stimuli/003587_2014-05-23_16-48-02_094959634447_rgbf002384-resize_2/003587_2014-05-23_16-48-02_094959634447_rgbf002384-resize_2-target.png,125,1.357,5,3219,124,feet,jsons/VE125_randls_22.json,665249,2204263,53,Man
90,685556,DepthScenes,duration_manipulation_targetAtFixation,jsons/VE125_randls_22.json,http://54.235.29.9/FacialAge/BNav_EC2/DepthDuration/v2_depth_duration_MTurk/v2_DepthDuration_HTML.html#21,21,1366,657,1366,768,8-21-2022,9-45-1,91,depth_duration_stimuli/001029_2014-06-08_13-17-57_260595134347_rgbf000065-resize_1/001029_2014-06-08_13-17-57_260595134347_rgbf000065-resize_1-target.png,125,3.0835,17,4739,124,feet,jsons/VE125_randls_22.json,665249,2204263,53,Man
91,685556,DepthScenes,duration_manipulation_targetAtFixation,jsons/VE125_randls_22.json,http://54.235.29.9/FacialAge/BNav_EC2/DepthDuration/v2_depth_duration_MTurk/v2_DepthDuration_HTML.html#21,21,1366,657,1366,768,8-21-2022,9-45-1,92,depth_duration_stimuli/000677_2014-06-08_23-10-32_260595134347_rgbf000158-resize_6/000677_2014-06-08_23-10-32_260595134347_rgbf000158-resize_6-target.png,125,3.556,16,2754,125,feet,jsons/VE125_randls_22.json,665249,2204263,53,Man
92,685556,DepthScenes,duration_manipulation_targetAtFixation,jsons/VE125_randls_22.json,http://54.235.29.9/FacialAge/BNav_EC2/DepthDuration/v2_depth_duration_MTurk/v2_DepthDuration_HTML.html#21,21,1366,657,1366,768,8-21-2022,9-45-1,93,depth_duration_stimuli/002964_2014-06-08_17-46-11_094959634447_rgbf000091-resize_4/002964_2014-06-08_17-46-11_094959634447_rgbf000091-resize_4-target.png,125,1.6909999999999998,6,2259,125,feet,jsons/VE125_randls_22.json,665249,2204263,53,Man
93,685556,DepthScenes,duration_manipulation_targetAtFixation,jsons/VE125_randls_22.json,http://54.235.29.9/FacialAge/BNav_EC2/DepthDuration/v2_depth_duration_MTurk/v2_DepthDuration_HTML.html#21,21,1366,657,1366,768,8-21-2022,9-45-1,94,depth_duration_stimuli/002136_2014-06-25_21-18-03_260595134347_rgbf000109-resize_3/002136_2014-06-25_21-18-03_260595134347_rgbf000109-resize_3-target.png,125,1.9569999999999999,4,3507,124,feet,jsons/VE125_randls_22.json,665249,2204263,53,Man
94,685556,DepthScenes,duration_manipulation_targetAtFixation,jsons/VE125_randls_22.json,http://54.235.29.9/FacialAge/BNav_EC2/DepthDuration/v2_depth_duration_MTurk/v2_DepthDuration_HTML.html#21,21,1366,657,1366,768,8-21-2022,9-45-1,95,depth_duration_stimuli/001570_2014-06-20_17-21-09_260595134347_rgbf000135-resize_4/001570_2014-06-20_17-21-09_260595134347_rgbf000135-resize_4-target.png,125,4.467,16,3986,124,feet,jsons/VE125_randls_22.json,665249,2204263,53,Man
95,685556,DepthScenes,duration_manipulation_targetAtFixation,jsons/VE125_randls_22.json,http://54.235.29.9/FacialAge/BNav_EC2/DepthDuration/v2_depth_duration_MTurk/v2_DepthDuration_HTML.html#21,21,1366,657,1366,768,8-21-2022,9-45-1,96,depth_duration_stimuli/001392_2014-06-19_16-07-59_260595134347_rgbf000046-resize_1/001392_2014-06-19_16-07-59_260595134347_rgbf000046-resize_1-target.png,125,4.135,14,5618,125,feet,jsons/VE125_randls_22.json,665249,2204263,53,Man
96,685556,DepthScenes,duration_manipulation_targetAtFixation,jsons/VE125_randls_22.json,http://54.235.29.9/FacialAge/BNav_EC2/DepthDuration/v2_depth_duration_MTurk/v2_DepthDuration_HTML.html#21,21,1366,657,1366,768,8-21-2022,9-45-1,97,depth_duration_stimuli/002039_2014-06-24_20-22-38_260595134347_rgbf000084-resize_1/002039_2014-06-24_20-22-38_260595134347_rgbf000084-resize_1-target.png,125,4.408,16,2211,125,feet,jsons/VE125_randls_22.json,665249,2204263,53,Man
97,685556,DepthScenes,duration_manipulation_targetAtFixation,jsons/VE125_randls_22.json,http://54.235.29.9/FacialAge/BNav_EC2/DepthDuration/v2_depth_duration_MTurk/v2_DepthDuration_HTML.html#21,21,1366,657,1366,768,8-21-2022,9-45-1,98,depth_duration_stimuli/002103_2014-06-25_20-00-40_260595134347_rgbf000049-resize_0/002103_2014-06-25_20-00-40_260595134347_rgbf000049-resize_0-target.png,125,4.105,17,2427,123,feet,jsons/VE125_randls_22.json,665249,2204263,53,Man
98,685556,DepthScenes,duration_manipulation_targetAtFixation,jsons/VE125_randls_22.json,http://54.235.29.9/FacialAge/BNav_EC2/DepthDuration/v2_depth_duration_MTurk/v2_DepthDuration_HTML.html#21,21,1366,657,1366,768,8-21-2022,9-45-1,99,depth_duration_stimuli/001540_2014-06-20_17-01-05_260595134347_rgbf000086-resize_2/001540_2014-06-20_17-01-05_260595134347_rgbf000086-resize-original.jpg,125,1.459,0,3251,125,feet,jsons/VE125_randls_22.json,665249,2204263,53,Man
99,685556,DepthScenes,duration_manipulation_targetAtFixation,jsons/VE125_randls_22.json,http://54.235.29.9/FacialAge/BNav_EC2/DepthDuration/v2_depth_duration_MTurk/v2_DepthDuration_HTML.html#21,21,1366,657,1366,768,8-21-2022,9-45-1,100,depth_duration_stimuli/001059_2014-06-08_21-53-27_260595134347_rgbf000061-resize_4/001059_2014-06-08_21-53-27_260595134347_rgbf000061-resize_4-target.png,125,2.4185,8,2699,125,feet,jsons/VE125_randls_22.json,665249,2204263,53,Man
100,685556,DepthScenes,duration_manipulation_targetAtFixation,jsons/VE125_randls_22.json,http://54.235.29.9/FacialAge/BNav_EC2/DepthDuration/v2_depth_duration_MTurk/v2_DepthDuration_HTML.html#21,21,1366,657,1366,768,8-21-2022,9-45-1,101,depth_duration_stimuli/001032_2014-06-08_13-23-17_260595134347_rgbf000021-resize_3/001032_2014-06-08_13-23-17_260595134347_rgbf000021-resize_3-target.png,125,3.2725,8,2515,123,feet,jsons/VE125_randls_22.json,665249,2204263,53,Man
101,685556,DepthScenes,duration_manipulation_targetAtFixation,jsons/VE125_randls_22.json,http://54.235.29.9/FacialAge/BNav_EC2/DepthDuration/v2_depth_duration_MTurk/v2_DepthDuration_HTML.html#21,21,1366,657,1366,768,8-21-2022,9-45-1,102,depth_duration_stimuli/001449_2014-06-19_17-01-27_260595134347_rgbf000116-resize_2/001449_2014-06-19_17-01-27_260595134347_rgbf000116-resize_2-target.png,125,3.452,7,2027,125,feet,jsons/VE125_randls_22.json,665249,2204263,53,Man
102,685556,DepthScenes,duration_manipulation_targetAtFixation,jsons/VE125_randls_22.json,http://54.235.29.9/FacialAge/BNav_EC2/DepthDuration/v2_depth_duration_MTurk/v2_DepthDuration_HTML.html#21,21,1366,657,1366,768,8-21-2022,9-45-1,103,depth_duration_stimuli/001450_2014-06-19_17-02-03_260595134347_rgbf000203-resize_4/001450_2014-06-19_17-02-03_260595134347_rgbf000203-resize_4-target.png,125,4.0106666666667,6,2084,125,feet,jsons/VE125_randls_22.json,665249,2204263,53,Man
103,685556,DepthScenes,duration_manipulation_targetAtFixation,jsons/VE125_randls_22.json,http://54.235.29.9/FacialAge/BNav_EC2/DepthDuration/v2_depth_duration_MTurk/v2_DepthDuration_HTML.html#21,21,1366,657,1366,768,8-21-2022,9-45-1,104,depth_duration_stimuli/000493_2014-06-09_21-01-18_260595134347_rgbf000196-resize_3/000493_2014-06-09_21-01-18_260595134347_rgbf000196-resize_3-target.png,125,3.44,6,2098,124,feet,jsons/VE125_randls_22.json,665249,2204263,53,Man
104,685556,DepthScenes,duration_manipulation_targetAtFixation,jsons/VE125_randls_22.json,http://54.235.29.9/FacialAge/BNav_EC2/DepthDuration/v2_depth_duration_MTurk/v2_DepthDuration_HTML.html#21,21,1366,657,1366,768,8-21-2022,9-45-1,105,depth_duration_stimuli/000191_2014-05-12_17-07-38_260595134347_rgbf000199-resize_0/000191_2014-05-12_17-07-38_260595134347_rgbf000199-resize_0-target.png,125,3.7995,13,2378,125,feet,jsons/VE125_randls_22.json,665249,2204263,53,Man
105,685556,DepthScenes,duration_manipulation_targetAtFixation,jsons/VE125_randls_22.json,http://54.235.29.9/FacialAge/BNav_EC2/DepthDuration/v2_depth_duration_MTurk/v2_DepthDuration_HTML.html#21,21,1366,657,1366,768,8-21-2022,9-45-1,106,depth_duration_stimuli/001175_2014-06-17_15-45-55_260595134347_rgbf000129-resize_4/001175_2014-06-17_15-45-55_260595134347_rgbf000129-resize_4-target.png,125,4.255,16,15277,124,feet,jsons/VE125_randls_22.json,665249,2204263,53,Man
106,685556,DepthScenes,duration_manipulation_targetAtFixation,jsons/VE125_randls_22.json,http://54.235.29.9/FacialAge/BNav_EC2/DepthDuration/v2_depth_duration_MTurk/v2_DepthDuration_HTML.html#21,21,1366,657,1366,768,8-21-2022,9-45-1,107,depth_duration_stimuli/003490_2014-05-21_15-50-11_094959634447_rgbf000101-resize_3/003490_2014-05-21_15-50-11_094959634447_rgbf000101-resize_3-target.png,125,3.6445,14,2664,125,feet,jsons/VE125_randls_22.json,665249,2204263,53,Man
107,685556,DepthScenes,duration_manipulation_targetAtFixation,jsons/VE125_randls_22.json,http://54.235.29.9/FacialAge/BNav_EC2/DepthDuration/v2_depth_duration_MTurk/v2_DepthDuration_HTML.html#21,21,1366,657,1366,768,8-21-2022,9-45-1,108,depth_duration_stimuli/003070_2014-06-15_14-58-27_094959634447_rgbf000150-resize_3/003070_2014-06-15_14-58-27_094959634447_rgbf000150-resize_3-target.png,125,2.9415,15,2939,124,feet,jsons/VE125_randls_22.json,665249,2204263,53,Man
108,685556,DepthScenes,duration_manipulation_targetAtFixation,jsons/VE125_randls_22.json,http://54.235.29.9/FacialAge/BNav_EC2/DepthDuration/v2_depth_duration_MTurk/v2_DepthDuration_HTML.html#21,21,1366,657,1366,768,8-21-2022,9-45-1,109,depth_duration_stimuli/000943_2014-06-09_19-31-07_260595134347_rgbf000128-resize_1/000943_2014-06-09_19-31-07_260595134347_rgbf000128-resize_1-target.png,125,1.9765,14,2258,124,feet,jsons/VE125_randls_22.json,665249,2204263,53,Man
109,685556,DepthScenes,duration_manipulation_targetAtFixation,jsons/VE125_randls_22.json,http://54.235.29.9/FacialAge/BNav_EC2/DepthDuration/v2_depth_duration_MTurk/v2_DepthDuration_HTML.html#21,21,1366,657,1366,768,8-21-2022,9-45-1,110,depth_duration_stimuli/002043_2014-06-24_20-29-38_260595134347_rgbf000039-resize_4/002043_2014-06-24_20-29-38_260595134347_rgbf000039-resize_4-target.png,125,2.8435,18,2515,124,feet,jsons/VE125_randls_22.json,665249,2204263,53,Man
110,685556,DepthScenes,duration_manipulation_targetAtFixation,jsons/VE125_randls_22.json,http://54.235.29.9/FacialAge/BNav_EC2/DepthDuration/v2_depth_duration_MTurk/v2_DepthDuration_HTML.html#21,21,1366,657,1366,768,8-21-2022,9-45-1,111,depth_duration_stimuli/003048_2014-06-15_13-49-43_094959634447_rgbf000150-resize_1/003048_2014-06-15_13-49-43_094959634447_rgbf000150-resize_1-target.png,125,4.0035,17,2403,125,feet,jsons/VE125_randls_22.json,665249,2204263,53,Man
111,685556,DepthScenes,duration_manipulation_targetAtFixation,jsons/VE125_randls_22.json,http://54.235.29.9/FacialAge/BNav_EC2/DepthDuration/v2_depth_duration_MTurk/v2_DepthDuration_HTML.html#21,21,1366,657,1366,768,8-21-2022,9-45-1,112,depth_duration_stimuli/002748_2014-06-22_19-07-22_094959634447_rgbf000078-resize_1/002748_2014-06-22_19-07-22_094959634447_rgbf000078-resize_1-target.png,125,4.6705,21,3548,124,feet,jsons/VE125_randls_22.json,665249,2204263,53,Man
112,685556,DepthScenes,duration_manipulation_targetAtFixation,jsons/VE125_randls_22.json,http://54.235.29.9/FacialAge/BNav_EC2/DepthDuration/v2_depth_duration_MTurk/v2_DepthDuration_HTML.html#21,21,1366,657,1366,768,8-21-2022,9-45-1,113,depth_duration_stimuli/002995_2014-06-15_12-31-26_094959634447_rgbf000150-resize_1/002995_2014-06-15_12-31-26_094959634447_rgbf000150-resize_1-target.png,125,3.8360000000000003,16,5187,125,feet,jsons/VE125_randls_22.json,665249,2204263,53,Man
113,685556,DepthScenes,duration_manipulation_targetAtFixation,jsons/VE125_randls_22.json,http://54.235.29.9/FacialAge/BNav_EC2/DepthDuration/v2_depth_duration_MTurk/v2_DepthDuration_HTML.html#21,21,1366,657,1366,768,8-21-2022,9-45-1,114,depth_duration_stimuli/002118_2014-06-25_20-32-08_260595134347_rgbf000078-resize_1/002118_2014-06-25_20-32-08_260595134347_rgbf000078-resize_1-target.png,125,2.6460000000000004,8,1946,124,feet,jsons/VE125_randls_22.json,665249,2204263,53,Man
114,685556,DepthScenes,duration_manipulation_targetAtFixation,jsons/VE125_randls_22.json,http://54.235.29.9/FacialAge/BNav_EC2/DepthDuration/v2_depth_duration_MTurk/v2_DepthDuration_HTML.html#21,21,1366,657,1366,768,8-21-2022,9-45-1,115,depth_duration_stimuli/001516_2014-06-20_16-25-09_260595134347_rgbf000076-resize_2/001516_2014-06-20_16-25-09_260595134347_rgbf000076-resize_2-target.png,125,1.7445,6,1979,125,feet,jsons/VE125_randls_22.json,665249,2204263,53,Man
115,685556,DepthScenes,duration_manipulation_targetAtFixation,jsons/VE125_randls_22.json,http://54.235.29.9/FacialAge/BNav_EC2/DepthDuration/v2_depth_duration_MTurk/v2_DepthDuration_HTML.html#21,21,1366,657,1366,768,8-21-2022,9-45-1,116,depth_duration_stimuli/001170_2014-06-17_15-43-44_260595134347_rgbf000096-resize_6/001170_2014-06-17_15-43-44_260595134347_rgbf000096-resize-original.jpg,125,1.1909999999999998,0,1563,124,feet,jsons/VE125_randls_22.json,665249,2204263,53,Man
116,685556,DepthScenes,duration_manipulation_targetAtFixation,jsons/VE125_randls_22.json,http://54.235.29.9/FacialAge/BNav_EC2/DepthDuration/v2_depth_duration_MTurk/v2_DepthDuration_HTML.html#21,21,1366,657,1366,768,8-21-2022,9-45-1,117,depth_duration_stimuli/000758_2014-06-08_22-05-08_260595134347_rgbf000085-resize_0/000758_2014-06-08_22-05-08_260595134347_rgbf000085-resize_0-target.png,125,3.3810000000000002,14,5138,124,feet,jsons/VE125_randls_22.json,665249,2204263,53,Man
117,685556,DepthScenes,duration_manipulation_targetAtFixation,jsons/VE125_randls_22.json,http://54.235.29.9/FacialAge/BNav_EC2/DepthDuration/v2_depth_duration_MTurk/v2_DepthDuration_HTML.html#21,21,1366,657,1366,768,8-21-2022,9-45-1,118,depth_duration_stimuli/000854_2014-06-09_19-43-13_260595134347_rgbf000066-resize_0/000854_2014-06-09_19-43-13_260595134347_rgbf000066-resize_0-target.png,125,3.068,13,5162,125,feet,jsons/VE125_randls_22.json,665249,2204263,53,Man
118,685556,DepthScenes,duration_manipulation_targetAtFixation,jsons/VE125_randls_22.json,http://54.235.29.9/FacialAge/BNav_EC2/DepthDuration/v2_depth_duration_MTurk/v2_DepthDuration_HTML.html#21,21,1366,657,1366,768,8-21-2022,9-45-1,119,depth_duration_stimuli/001150_2014-06-17_15-27-34_260595134347_rgbf000108-resize_2/001150_2014-06-17_15-27-34_260595134347_rgbf000108-resize_2-target.png,125,4.0325,0,1682,125,feet,jsons/VE125_randls_22.json,665249,2204263,53,Man
119,685556,DepthScenes,duration_manipulation_targetAtFixation,jsons/VE125_randls_22.json,http://54.235.29.9/FacialAge/BNav_EC2/DepthDuration/v2_depth_duration_MTurk/v2_DepthDuration_HTML.html#21,21,1366,657,1366,768,8-21-2022,9-45-1,120,depth_duration_stimuli/000665_2014-06-09_20-42-35_260595134347_rgbf000110-resize_1/000665_2014-06-09_20-42-35_260595134347_rgbf000110-resize_1-target.png,125,3.057,8,1810,125,feet,jsons/VE125_randls_22.json,665249,2204263,53,Man
120,685556,DepthScenes,duration_manipulation_targetAtFixation,jsons/VE125_randls_22.json,http://54.235.29.9/FacialAge/BNav_EC2/DepthDuration/v2_depth_duration_MTurk/v2_DepthDuration_HTML.html#21,21,1366,657,1366,768,8-21-2022,9-45-1,121,depth_duration_stimuli/001417_2014-06-19_16-25-36_260595134347_rgbf000115-resize_5/001417_2014-06-19_16-25-36_260595134347_rgbf000115-resize_5-target.png,125,4.6255,7,3106,125,feet,jsons/VE125_randls_22.json,665249,2204263,53,Man
121,685556,DepthScenes,duration_manipulation_targetAtFixation,jsons/VE125_randls_22.json,http://54.235.29.9/FacialAge/BNav_EC2/DepthDuration/v2_depth_duration_MTurk/v2_DepthDuration_HTML.html#21,21,1366,657,1366,768,8-21-2022,9-45-1,122,depth_duration_stimuli/003081_2014-06-15_15-19-16_094959634447_rgbf000150-resize_1/003081_2014-06-15_15-19-16_094959634447_rgbf000150-resize_1-target.png,125,3.9125,8,3275,124,feet,jsons/VE125_randls_22.json,665249,2204263,53,Man
122,685556,DepthScenes,duration_manipulation_targetAtFixation,jsons/VE125_randls_22.json,http://54.235.29.9/FacialAge/BNav_EC2/DepthDuration/v2_depth_duration_MTurk/v2_DepthDuration_HTML.html#21,21,1366,657,1366,768,8-21-2022,9-45-1,123,depth_duration_stimuli/001555_2014-06-20_17-12-10_260595134347_rgbf000065-resize_4/001555_2014-06-20_17-12-10_260595134347_rgbf000065-resize_4-target.png,125,1.633,4,3339,125,feet,jsons/VE125_randls_22.json,665249,2204263,53,Man
123,685556,DepthScenes,duration_manipulation_targetAtFixation,jsons/VE125_randls_22.json,http://54.235.29.9/FacialAge/BNav_EC2/DepthDuration/v2_depth_duration_MTurk/v2_DepthDuration_HTML.html#21,21,1366,657,1366,768,8-21-2022,9-45-1,124,depth_duration_stimuli/000103_2014-05-14_22-01-17_260595134347_rgbf000152-resize_5/000103_2014-05-14_22-01-17_260595134347_rgbf000152-resize_5-target.png,125,1.993,14,5074,124,feet,jsons/VE125_randls_22.json,665249,2204263,53,Man
124,685556,DepthScenes,duration_manipulation_targetAtFixation,jsons/VE125_randls_22.json,http://54.235.29.9/FacialAge/BNav_EC2/DepthDuration/v2_depth_duration_MTurk/v2_DepthDuration_HTML.html#21,21,1366,657,1366,768,8-21-2022,9-45-1,125,depth_duration_stimuli/000736_2014-06-08_18-24-15_260595134347_rgbf000206-resize_3/000736_2014-06-08_18-24-15_260595134347_rgbf000206-resize_3-target.png,125,3.515,6,6866,124,feet,jsons/VE125_randls_22.json,665249,2204263,53,Man
125,685556,DepthScenes,duration_manipulation_targetAtFixation,jsons/VE125_randls_22.json,http://54.235.29.9/FacialAge/BNav_EC2/DepthDuration/v2_depth_duration_MTurk/v2_DepthDuration_HTML.html#21,21,1366,657,1366,768,8-21-2022,9-45-1,126,depth_duration_stimuli/000137_2014-05-20_17-04-49_260595134347_rgbf000120-resize_1/000137_2014-05-20_17-04-49_260595134347_rgbf000120-resize_1-target.png,125,3.786,13,12298,124,feet,jsons/VE125_randls_22.json,665249,2204263,53,Man
126,685556,DepthScenes,duration_manipulation_targetAtFixation,jsons/VE125_randls_22.json,http://54.235.29.9/FacialAge/BNav_EC2/DepthDuration/v2_depth_duration_MTurk/v2_DepthDuration_HTML.html#21,21,1366,657,1366,768,8-21-2022,9-45-1,127,depth_duration_stimuli/002600_2014-06-24_14-27-04_094959634447_rgbf000074-resize_2/002600_2014-06-24_14-27-04_094959634447_rgbf000074-resize_2-target.png,125,2.7575,11,4842,124,feet,jsons/VE125_randls_22.json,665249,2204263,53,Man
127,685556,DepthScenes,duration_manipulation_targetAtFixation,jsons/VE125_randls_22.json,http://54.235.29.9/FacialAge/BNav_EC2/DepthDuration/v2_depth_duration_MTurk/v2_DepthDuration_HTML.html#21,21,1366,657,1366,768,8-21-2022,9-45-1,128,depth_duration_stimuli/003228_2014-05-14_13-42-35_094959634447_rgbf000101-resize_1/003228_2014-05-14_13-42-35_094959634447_rgbf000101-resize_1-target.png,125,1.9680000000000002,12,3035,124,feet,jsons/VE125_randls_22.json,665249,2204263,53,Man
128,685556,DepthScenes,duration_manipulation_targetAtFixation,jsons/VE125_randls_22.json,http://54.235.29.9/FacialAge/BNav_EC2/DepthDuration/v2_depth_duration_MTurk/v2_DepthDuration_HTML.html#21,21,1366,657,1366,768,8-21-2022,9-45-1,129,depth_duration_stimuli/001056_2014-06-08_18-46-44_260595134347_rgbf000068-resize_0/001056_2014-06-08_18-46-44_260595134347_rgbf000068-resize_0-target.png,125,2.6625,16,4139,124,feet,jsons/VE125_randls_22.json,665249,2204263,53,Man
129,685556,DepthScenes,duration_manipulation_targetAtFixation,jsons/VE125_randls_22.json,http://54.235.29.9/FacialAge/BNav_EC2/DepthDuration/v2_depth_duration_MTurk/v2_DepthDuration_HTML.html#21,21,1366,657,1366,768,8-21-2022,9-45-1,130,depth_duration_stimuli/002199_2014-06-28_18-33-56_260595134347_rgbf000074-resize_0/002199_2014-06-28_18-33-56_260595134347_rgbf000074-resize_0-target.png,125,1.996,11,3899,124,feet,jsons/VE125_randls_22.json,665249,2204263,53,Man
130,685556,DepthScenes,duration_manipulation_targetAtFixation,jsons/VE125_randls_22.json,http://54.235.29.9/FacialAge/BNav_EC2/DepthDuration/v2_depth_duration_MTurk/v2_DepthDuration_HTML.html#21,21,1366,657,1366,768,8-21-2022,9-45-1,131,depth_duration_stimuli/002763_2014-06-22_19-13-10_094959634447_rgbf000075-resize_4/002763_2014-06-22_19-13-10_094959634447_rgbf000075-resize_4-target.png,125,1.68375,12,2491,125,feet,jsons/VE125_randls_22.json,665249,2204263,53,Man
131,685556,DepthScenes,duration_manipulation_targetAtFixation,jsons/VE125_randls_22.json,http://54.235.29.9/FacialAge/BNav_EC2/DepthDuration/v2_depth_duration_MTurk/v2_DepthDuration_HTML.html#21,21,1366,657,1366,768,8-21-2022,9-45-1,132,depth_duration_stimuli/002209_2014-06-28_18-36-10_260595134347_rgbf000051-resize_1/002209_2014-06-28_18-36-10_260595134347_rgbf000051-resize_1-target.png,125,2.057,12,2259,125,feet,jsons/VE125_randls_22.json,665249,2204263,53,Man
132,685556,DepthScenes,duration_manipulation_targetAtFixation,jsons/VE125_randls_22.json,http://54.235.29.9/FacialAge/BNav_EC2/DepthDuration/v2_depth_duration_MTurk/v2_DepthDuration_HTML.html#21,21,1366,657,1366,768,8-21-2022,9-45-1,133,depth_duration_stimuli/001016_2014-06-09_16-16-10_260595134347_rgbf000112-resize_5/001016_2014-06-09_16-16-10_260595134347_rgbf000112-resize_5-target.png,125,1.6565,7,2027,125,feet,jsons/VE125_randls_22.json,665249,2204263,53,Man
133,685556,DepthScenes,duration_manipulation_targetAtFixation,jsons/VE125_randls_22.json,http://54.235.29.9/FacialAge/BNav_EC2/DepthDuration/v2_depth_duration_MTurk/v2_DepthDuration_HTML.html#21,21,1366,657,1366,768,8-21-2022,9-45-1,134,depth_duration_stimuli/002340_2014-06-28_20-05-46_260595134347_rgbf000113-resize_0/002340_2014-06-28_20-05-46_260595134347_rgbf000113-resize_0-target.png,125,2.4735,8,1947,123,feet,jsons/VE125_randls_22.json,665249,2204263,53,Man
134,685556,DepthScenes,duration_manipulation_targetAtFixation,jsons/VE125_randls_22.json,http://54.235.29.9/FacialAge/BNav_EC2/DepthDuration/v2_depth_duration_MTurk/v2_DepthDuration_HTML.html#21,21,1366,657,1366,768,8-21-2022,9-45-1,135,depth_duration_stimuli/002072_2014-06-24_21-48-06_260595134347_rgbf000115-resize_0/002072_2014-06-24_21-48-06_260595134347_rgbf000115-resize-original.jpg,125,4.702,0,1579,125,feet,jsons/VE125_randls_22.json,665249,2204263,53,Man
135,685556,DepthScenes,duration_manipulation_targetAtFixation,jsons/VE125_randls_22.json,http://54.235.29.9/FacialAge/BNav_EC2/DepthDuration/v2_depth_duration_MTurk/v2_DepthDuration_HTML.html#21,21,1366,657,1366,768,8-21-2022,9-45-1,136,depth_duration_stimuli/001810_2014-06-26_20-51-35_260595134347_rgbf000040-resize_3/001810_2014-06-26_20-51-35_260595134347_rgbf000040-resize_3-target.png,125,2.2525,8,1763,125,feet,jsons/VE125_randls_22.json,665249,2204263,53,Man
136,685556,DepthScenes,duration_manipulation_targetAtFixation,jsons/VE125_randls_22.json,http://54.235.29.9/FacialAge/BNav_EC2/DepthDuration/v2_depth_duration_MTurk/v2_DepthDuration_HTML.html#21,21,1366,657,1366,768,8-21-2022,9-45-1,137,depth_duration_stimuli/003010_2014-06-15_12-54-35_094959634447_rgbf000112-resize_0/003010_2014-06-15_12-54-35_094959634447_rgbf000112-resize_0-target.png,125,3.1185,11,2027,125,feet,jsons/VE125_randls_22.json,665249,2204263,53,Man
137,685556,DepthScenes,duration_manipulation_targetAtFixation,jsons/VE125_randls_22.json,http://54.235.29.9/FacialAge/BNav_EC2/DepthDuration/v2_depth_duration_MTurk/v2_DepthDuration_HTML.html#21,21,1366,657,1366,768,8-21-2022,9-45-1,138,depth_duration_stimuli/000739_2014-06-08_18-45-58_260595134347_rgbf000068-resize_1/000739_2014-06-08_18-45-58_260595134347_rgbf000068-resize_1-target.png,125,3.534,13,2059,124,feet,jsons/VE125_randls_22.json,665249,2204263,53,Man
138,685556,DepthScenes,duration_manipulation_targetAtFixation,jsons/VE125_randls_22.json,http://54.235.29.9/FacialAge/BNav_EC2/DepthDuration/v2_depth_duration_MTurk/v2_DepthDuration_HTML.html#21,21,1366,657,1366,768,8-21-2022,9-45-1,139,depth_duration_stimuli/000734_2014-06-08_17-39-11_260595134347_rgbf000128-resize_2/000734_2014-06-08_17-39-11_260595134347_rgbf000128-resize_2-target.png,125,4.098,13,1931,124,feet,jsons/VE125_randls_22.json,665249,2204263,53,Man
139,685556,DepthScenes,duration_manipulation_targetAtFixation,jsons/VE125_randls_22.json,http://54.235.29.9/FacialAge/BNav_EC2/DepthDuration/v2_depth_duration_MTurk/v2_DepthDuration_HTML.html#21,21,1366,657,1366,768,8-21-2022,9-45-1,140,depth_duration_stimuli/001055_2014-06-08_18-45-35_260595134347_rgbf000111-resize_4/001055_2014-06-08_18-45-35_260595134347_rgbf000111-resize_4-target.png,125,2.4290000000000003,16,2043,124,feet,jsons/VE125_randls_22.json,665249,2204263,53,Man
140,685556,DepthScenes,duration_manipulation_targetAtFixation,jsons/VE125_randls_22.json,http://54.235.29.9/FacialAge/BNav_EC2/DepthDuration/v2_depth_duration_MTurk/v2_DepthDuration_HTML.html#21,21,1366,657,1366,768,8-21-2022,9-45-1,141,depth_duration_stimuli/000549_2014-06-08_22-10-24_260595134347_rgbf000247-resize_3/000549_2014-06-08_22-10-24_260595134347_rgbf000247-resize_3-target.png,125,1.841,7,3131,124,feet,jsons/VE125_randls_22.json,665249,2204263,53,Man
141,685556,DepthScenes,duration_manipulation_targetAtFixation,jsons/VE125_randls_22.json,http://54.235.29.9/FacialAge/BNav_EC2/DepthDuration/v2_depth_duration_MTurk/v2_DepthDuration_HTML.html#21,21,1366,657,1366,768,8-21-2022,9-45-1,142,depth_duration_stimuli/001066_2014-06-08_22-03-20_260595134347_rgbf000066-resize_4/001066_2014-06-08_22-03-20_260595134347_rgbf000066-resize_4-target.png,125,4.2330000000000005,9,7876,126,feet,jsons/VE125_randls_22.json,665249,2204263,53,Man
142,685556,DepthScenes,duration_manipulation_targetAtFixation,jsons/VE125_randls_22.json,http://54.235.29.9/FacialAge/BNav_EC2/DepthDuration/v2_depth_duration_MTurk/v2_DepthDuration_HTML.html#21,21,1366,657,1366,768,8-21-2022,9-45-1,143,depth_duration_stimuli/000742_2014-06-08_18-48-09_260595134347_rgbf000164-resize_4/000742_2014-06-08_18-48-09_260595134347_rgbf000164-resize_4-target.png,125,4.632,15,3122,124,feet,jsons/VE125_randls_22.json,665249,2204263,53,Man
143,685556,DepthScenes,duration_manipulation_targetAtFixation,jsons/VE125_randls_22.json,http://54.235.29.9/FacialAge/BNav_EC2/DepthDuration/v2_depth_duration_MTurk/v2_DepthDuration_HTML.html#21,21,1366,657,1366,768,8-21-2022,9-45-1,144,depth_duration_stimuli/000682_2014-06-08_23-14-58_260595134347_rgbf000041-resize_5/000682_2014-06-08_23-14-58_260595134347_rgbf000041-resize_5-target.png,125,2.7239999999999998,12,2634,125,feet,jsons/VE125_randls_22.json,665249,2204263,53,Man
144,685556,DepthScenes,duration_manipulation_targetAtFixation,jsons/VE125_randls_22.json,http://54.235.29.9/FacialAge/BNav_EC2/DepthDuration/v2_depth_duration_MTurk/v2_DepthDuration_HTML.html#21,21,1366,657,1366,768,8-21-2022,9-45-1,145,depth_duration_stimuli/001650_2014-06-20_12-09-00_260595134347_rgbf000087-resize_3/001650_2014-06-20_12-09-00_260595134347_rgbf000087-resize_3-target.png,125,1.9505,8,3034,124,feet,jsons/VE125_randls_22.json,665249,2204263,53,Man
145,685556,DepthScenes,duration_manipulation_targetAtFixation,jsons/VE125_randls_22.json,http://54.235.29.9/FacialAge/BNav_EC2/DepthDuration/v2_depth_duration_MTurk/v2_DepthDuration_HTML.html#21,21,1366,657,1366,768,8-21-2022,9-45-1,146,depth_duration_stimuli/001498_2014-06-19_17-45-14_260595134347_rgbf000129-resize_4/001498_2014-06-19_17-45-14_260595134347_rgbf000129-resize-original.jpg,125,1.4075,0,2323,124,feet,jsons/VE125_randls_22.json,665249,2204263,53,Man
146,685556,DepthScenes,duration_manipulation_targetAtFixation,jsons/VE125_randls_22.json,http://54.235.29.9/FacialAge/BNav_EC2/DepthDuration/v2_depth_duration_MTurk/v2_DepthDuration_HTML.html#21,21,1366,657,1366,768,8-21-2022,9-45-1,147,depth_duration_stimuli/002988_2014-06-15_12-24-20_094959634447_rgbf000150-resize_1/002988_2014-06-15_12-24-20_094959634447_rgbf000150-resize_1-target.png,125,4.7669999999999995,16,3314,124,feet,jsons/VE125_randls_22.json,665249,2204263,53,Man
147,685556,DepthScenes,duration_manipulation_targetAtFixation,jsons/VE125_randls_22.json,http://54.235.29.9/FacialAge/BNav_EC2/DepthDuration/v2_depth_duration_MTurk/v2_DepthDuration_HTML.html#21,21,1366,657,1366,768,8-21-2022,9-45-1,148,depth_duration_stimuli/001052_2014-06-08_18-24-54_260595134347_rgbf000130-resize_1/001052_2014-06-08_18-24-54_260595134347_rgbf000130-resize_1-target.png,125,4.1045,12,5083,124,feet,jsons/VE125_randls_22.json,665249,2204263,53,Man
148,685556,DepthScenes,duration_manipulation_targetAtFixation,jsons/VE125_randls_22.json,http://54.235.29.9/FacialAge/BNav_EC2/DepthDuration/v2_depth_duration_MTurk/v2_DepthDuration_HTML.html#21,21,1366,657,1366,768,8-21-2022,9-45-1,149,depth_duration_stimuli/001110_2014-06-15_17-25-28_260595134347_rgbf000150-resize_1/001110_2014-06-15_17-25-28_260595134347_rgbf000150-resize_1-target.png,125,1.7115,16,2907,125,feet,jsons/VE125_randls_22.json,665249,2204263,53,Man
149,685556,DepthScenes,duration_manipulation_targetAtFixation,jsons/VE125_randls_22.json,http://54.235.29.9/FacialAge/BNav_EC2/DepthDuration/v2_depth_duration_MTurk/v2_DepthDuration_HTML.html#21,21,1366,657,1366,768,8-21-2022,9-45-1,150,depth_duration_stimuli/000927_2014-06-09_16-32-30_260595134347_rgbf000123-resize_3/000927_2014-06-09_16-32-30_260595134347_rgbf000123-resize_3-target.png,125,2.6785,17,3938,125,feet,jsons/VE125_randls_22.json,665249,2204263,53,Man
150,685556,DepthScenes,duration_manipulation_targetAtFixation,jsons/VE125_randls_22.json,http://54.235.29.9/FacialAge/BNav_EC2/DepthDuration/v2_depth_duration_MTurk/v2_DepthDuration_HTML.html#21,21,1366,657,1366,768,8-21-2022,9-45-1,151,depth_duration_stimuli/002784_2014-06-22_19-26-30_094959634447_rgbf000083-resize_3/002784_2014-06-22_19-26-30_094959634447_rgbf000083-resize_3-target.png,125,1.8046666666667,0,1947,125,feet,jsons/VE125_randls_22.json,665249,2204263,53,Man
151,685556,DepthScenes,duration_manipulation_targetAtFixation,jsons/VE125_randls_22.json,http://54.235.29.9/FacialAge/BNav_EC2/DepthDuration/v2_depth_duration_MTurk/v2_DepthDuration_HTML.html#21,21,1366,657,1366,768,8-21-2022,9-45-1,152,depth_duration_stimuli/001100_2014-06-15_17-46-26_260595134347_rgbf000225-resize_2/001100_2014-06-15_17-46-26_260595134347_rgbf000225-resize_2-target.png,125,2.24,5,2554,124,feet,jsons/VE125_randls_22.json,665249,2204263,53,Man
152,685556,DepthScenes,duration_manipulation_targetAtFixation,jsons/VE125_randls_22.json,http://54.235.29.9/FacialAge/BNav_EC2/DepthDuration/v2_depth_duration_MTurk/v2_DepthDuration_HTML.html#21,21,1366,657,1366,768,8-21-2022,9-45-1,153,depth_duration_stimuli/001133_2014-06-17_14-49-16_260595134347_rgbf000100-resize_0/001133_2014-06-17_14-49-16_260595134347_rgbf000100-resize_0-target.png,125,4.2115,14,6026,124,feet,jsons/VE125_randls_22.json,665249,2204263,53,Man
153,685556,DepthScenes,duration_manipulation_targetAtFixation,jsons/VE125_randls_22.json,http://54.235.29.9/FacialAge/BNav_EC2/DepthDuration/v2_depth_duration_MTurk/v2_DepthDuration_HTML.html#21,21,1366,657,1366,768,8-21-2022,9-45-1,154,depth_duration_stimuli/001132_2014-06-17_14-48-54_260595134347_rgbf000100-resize_2/001132_2014-06-17_14-48-54_260595134347_rgbf000100-resize_2-target.png,125,3.753,12,10083,124,feet,jsons/VE125_randls_22.json,665249,2204263,53,Man
154,685556,DepthScenes,duration_manipulation_targetAtFixation,jsons/VE125_randls_22.json,http://54.235.29.9/FacialAge/BNav_EC2/DepthDuration/v2_depth_duration_MTurk/v2_DepthDuration_HTML.html#21,21,1366,657,1366,768,8-21-2022,9-45-1,155,depth_duration_stimuli/001158_2014-06-17_15-32-16_260595134347_rgbf000138-resize_2/001158_2014-06-17_15-32-16_260595134347_rgbf000138-resize_2-target.png,125,4.5315,17,2979,124,feet,jsons/VE125_randls_22.json,665249,2204263,53,Man
155,685556,DepthScenes,duration_manipulation_targetAtFixation,jsons/VE125_randls_22.json,http://54.235.29.9/FacialAge/BNav_EC2/DepthDuration/v2_depth_duration_MTurk/v2_DepthDuration_HTML.html#21,21,1366,657,1366,768,8-21-2022,9-45-1,156,depth_duration_stimuli/000556_2014-06-09_22-42-56_260595134347_rgbf000214-resize_1/000556_2014-06-09_22-42-56_260595134347_rgbf000214-resize_1-target.png,125,4.8415,16,2203,125,feet,jsons/VE125_randls_22.json,665249,2204263,53,Man
156,685556,DepthScenes,duration_manipulation_targetAtFixation,jsons/VE125_randls_22.json,http://54.235.29.9/FacialAge/BNav_EC2/DepthDuration/v2_depth_duration_MTurk/v2_DepthDuration_HTML.html#21,21,1366,657,1366,768,8-21-2022,9-45-1,157,depth_duration_stimuli/000773_2014-06-08_22-24-54_260595134347_rgbf000093-resize_1/000773_2014-06-08_22-24-54_260595134347_rgbf000093-resize_1-target.png,125,4.973,18,2099,124,feet,jsons/VE125_randls_22.json,665249,2204263,53,Man
157,685556,DepthScenes,duration_manipulation_targetAtFixation,jsons/VE125_randls_22.json,http://54.235.29.9/FacialAge/BNav_EC2/DepthDuration/v2_depth_duration_MTurk/v2_DepthDuration_HTML.html#21,21,1366,657,1366,768,8-21-2022,9-45-1,158,depth_duration_stimuli/002414_2014-06-28_20-24-58_260595134347_rgbf000067-resize_4/002414_2014-06-28_20-24-58_260595134347_rgbf000067-resize_4-target.png,125,4.363,17,3115,124,feet,jsons/VE125_randls_22.json,665249,2204263,53,Man
158,685556,DepthScenes,duration_manipulation_targetAtFixation,jsons/VE125_randls_22.json,http://54.235.29.9/FacialAge/BNav_EC2/DepthDuration/v2_depth_duration_MTurk/v2_DepthDuration_HTML.html#21,21,1366,657,1366,768,8-21-2022,9-45-1,159,depth_duration_stimuli/002272_2014-06-28_18-53-56_260595134347_rgbf000067-resize_2/002272_2014-06-28_18-53-56_260595134347_rgbf000067-resize_2-target.png,125,1.138,4,4123,125,feet,jsons/VE125_randls_22.json,665249,2204263,53,Man
159,685556,DepthScenes,duration_manipulation_targetAtFixation,jsons/VE125_randls_22.json,http://54.235.29.9/FacialAge/BNav_EC2/DepthDuration/v2_depth_duration_MTurk/v2_DepthDuration_HTML.html#21,21,1366,657,1366,768,8-21-2022,9-45-1,160,depth_duration_stimuli/001571_2014-06-20_17-21-32_260595134347_rgbf000089-resize_1/001571_2014-06-20_17-21-32_260595134347_rgbf000089-resize_1-target.png,125,1.86,5,4315,125,feet,jsons/VE125_randls_22.json,665249,2204263,53,Man
160,685556,DepthScenes,duration_manipulation_targetAtFixation,jsons/VE125_randls_22.json,http://54.235.29.9/FacialAge/BNav_EC2/DepthDuration/v2_depth_duration_MTurk/v2_DepthDuration_HTML.html#21,21,1366,657,1366,768,8-21-2022,9-45-1,161,depth_duration_stimuli/000368_2014-06-09_15-53-01_260595134347_rgbf000155-resize_2/000368_2014-06-09_15-53-01_260595134347_rgbf000155-resize_2-target.png,125,2.4859999999999998,5,5619,125,feet,jsons/VE125_randls_22.json,665249,2204263,53,Man
161,685556,DepthScenes,duration_manipulation_targetAtFixation,jsons/VE125_randls_22.json,http://54.235.29.9/FacialAge/BNav_EC2/DepthDuration/v2_depth_duration_MTurk/v2_DepthDuration_HTML.html#21,21,1366,657,1366,768,8-21-2022,9-45-1,162,depth_duration_stimuli/002678_2014-06-13_16-15-32_094959634447_rgbf000151-resize_6/002678_2014-06-13_16-15-32_094959634447_rgbf000151-resize_6-target.png,125,2.1830000000000003,17,2355,124,feet,jsons/VE125_randls_22.json,665249,2204263,53,Man
162,685556,DepthScenes,duration_manipulation_targetAtFixation,jsons/VE125_randls_22.json,http://54.235.29.9/FacialAge/BNav_EC2/DepthDuration/v2_depth_duration_MTurk/v2_DepthDuration_HTML.html#21,21,1366,657,1366,768,8-21-2022,9-45-1,163,depth_duration_stimuli/001092_2014-06-15_17-34-58_260595134347_rgbf000171-resize_3/001092_2014-06-15_17-34-58_260595134347_rgbf000171-resize_3-target.png,125,2.6935,6,3658,123,feet,jsons/VE125_randls_22.json,665249,2204263,53,Man
163,685556,DepthScenes,duration_manipulation_targetAtFixation,jsons/VE125_randls_22.json,http://54.235.29.9/FacialAge/BNav_EC2/DepthDuration/v2_depth_duration_MTurk/v2_DepthDuration_HTML.html#21,21,1366,657,1366,768,8-21-2022,9-45-1,164,depth_duration_stimuli/002545_2014-06-24_13-38-53_094959634447_rgbf000080-resize_4/002545_2014-06-24_13-38-53_094959634447_rgbf000080-resize_4-target.png,125,1.9205,7,3635,124,feet,jsons/VE125_randls_22.json,665249,2204263,53,Man
