,subjID,experimentName,versionName,sequenceName,url,selected_row,windowWidth,windowHeight,screenWidth,screenHeight,startDate,startTime,trial,stimulus,duration,actual_depth,depth_estimate,trial_RT,log_sceneDuration,unitSelection,seq_filepath,experimentTime,totalTime,age,gender
0,686124,DepthScenes,duration_manipulation_targetAtFixation,jsons/v1_VE250_randls_52_rotated.json,http://54.235.29.9/FacialAge/BNav_EC2/DepthDuration/v2_depth_duration_MTurk/v2_DepthDuration_HTML.html#56,56,1366,768,1366,768,8-29-2022,14-32-32,1,depth_duration_stimuli/003495_2014-05-21_16-01-51_094959634447_rgbf000100-resize_3/003495_2014-05-21_16-01-51_094959634447_rgbf000100-resize_3-target.png,250,1.6255,33.0,3828,246,meters,jsons/v1_VE250_randls_52_rotated.json,709771,934904,22,Man
1,686124,DepthScenes,duration_manipulation_targetAtFixation,jsons/v1_VE250_randls_52_rotated.json,http://54.235.29.9/FacialAge/BNav_EC2/DepthDuration/v2_depth_duration_MTurk/v2_DepthDuration_HTML.html#56,56,1366,768,1366,768,8-29-2022,14-32-32,2,depth_duration_stimuli/001244_2014-06-17_16-47-45_260595134347_rgbf000030-resize_4/001244_2014-06-17_16-47-45_260595134347_rgbf000030-resize_4-target.png,250,2.0425,33.0,3504,255,meters,jsons/v1_VE250_randls_52_rotated.json,709771,934904,22,Man
2,686124,DepthScenes,duration_manipulation_targetAtFixation,jsons/v1_VE250_randls_52_rotated.json,http://54.235.29.9/FacialAge/BNav_EC2/DepthDuration/v2_depth_duration_MTurk/v2_DepthDuration_HTML.html#56,56,1366,768,1366,768,8-29-2022,14-32-32,3,depth_duration_stimuli/002425_2014-06-28_20-27-29_260595134347_rgbf000031-resize_8/002425_2014-06-28_20-27-29_260595134347_rgbf000031-resize_8-target.png,250,3.8960000000000004,33.0,4834,254,meters,jsons/v1_VE250_randls_52_rotated.json,709771,934904,22,Man
3,686124,DepthScenes,duration_manipulation_targetAtFixation,jsons/v1_VE250_randls_52_rotated.json,http://54.235.29.9/FacialAge/BNav_EC2/DepthDuration/v2_depth_duration_MTurk/v2_DepthDuration_HTML.html#56,56,1366,768,1366,768,8-29-2022,14-32-32,4,depth_duration_stimuli/000642_2014-06-08_16-59-25_260595134347_rgbf000098-resize_2/000642_2014-06-08_16-59-25_260595134347_rgbf000098-resize_2-target.png,250,2.8815,33.0,2971,236,meters,jsons/v1_VE250_randls_52_rotated.json,709771,934904,22,Man
4,686124,DepthScenes,duration_manipulation_targetAtFixation,jsons/v1_VE250_randls_52_rotated.json,http://54.235.29.9/FacialAge/BNav_EC2/DepthDuration/v2_depth_duration_MTurk/v2_DepthDuration_HTML.html#56,56,1366,768,1366,768,8-29-2022,14-32-32,5,depth_duration_stimuli/001650_2014-06-20_12-09-00_260595134347_rgbf000087-resize_3/001650_2014-06-20_12-09-00_260595134347_rgbf000087-resize_3-target.png,250,1.9505,33.0,2068,247,meters,jsons/v1_VE250_randls_52_rotated.json,709771,934904,22,Man
5,686124,DepthScenes,duration_manipulation_targetAtFixation,jsons/v1_VE250_randls_52_rotated.json,http://54.235.29.9/FacialAge/BNav_EC2/DepthDuration/v2_depth_duration_MTurk/v2_DepthDuration_HTML.html#56,56,1366,768,1366,768,8-29-2022,14-32-32,6,depth_duration_stimuli/000682_2014-06-08_23-14-58_260595134347_rgbf000041-resize_5/000682_2014-06-08_23-14-58_260595134347_rgbf000041-resize_5-target.png,250,2.7239999999999998,33.0,2003,241,meters,jsons/v1_VE250_randls_52_rotated.json,709771,934904,22,Man
6,686124,DepthScenes,duration_manipulation_targetAtFixation,jsons/v1_VE250_randls_52_rotated.json,http://54.235.29.9/FacialAge/BNav_EC2/DepthDuration/v2_depth_duration_MTurk/v2_DepthDuration_HTML.html#56,56,1366,768,1366,768,8-29-2022,14-32-32,7,depth_duration_stimuli/002467_2014-06-28_20-38-07_260595134347_rgbf000026-resize_2/002467_2014-06-28_20-38-07_260595134347_rgbf000026-resize_2-target.png,250,4.742,33.0,1918,243,meters,jsons/v1_VE250_randls_52_rotated.json,709771,934904,22,Man
7,686124,DepthScenes,duration_manipulation_targetAtFixation,jsons/v1_VE250_randls_52_rotated.json,http://54.235.29.9/FacialAge/BNav_EC2/DepthDuration/v2_depth_duration_MTurk/v2_DepthDuration_HTML.html#56,56,1366,768,1366,768,8-29-2022,14-32-32,8,depth_duration_stimuli/002570_2014-06-24_13-59-54_094959634447_rgbf000059-resize_0/002570_2014-06-24_13-59-54_094959634447_rgbf000059-resize_0-target.png,250,4.037,33.0,1857,242,meters,jsons/v1_VE250_randls_52_rotated.json,709771,934904,22,Man
8,686124,DepthScenes,duration_manipulation_targetAtFixation,jsons/v1_VE250_randls_52_rotated.json,http://54.235.29.9/FacialAge/BNav_EC2/DepthDuration/v2_depth_duration_MTurk/v2_DepthDuration_HTML.html#56,56,1366,768,1366,768,8-29-2022,14-32-32,9,depth_duration_stimuli/000709_2014-06-08_13-51-55_260595134347_rgbf000068-resize_3/000709_2014-06-08_13-51-55_260595134347_rgbf000068-resize_3-target.png,250,1.8030000000000002,33.0,1860,246,meters,jsons/v1_VE250_randls_52_rotated.json,709771,934904,22,Man
9,686124,DepthScenes,duration_manipulation_targetAtFixation,jsons/v1_VE250_randls_52_rotated.json,http://54.235.29.9/FacialAge/BNav_EC2/DepthDuration/v2_depth_duration_MTurk/v2_DepthDuration_HTML.html#56,56,1366,768,1366,768,8-29-2022,14-32-32,10,depth_duration_stimuli/002057_2014-06-24_21-00-13_260595134347_rgbf000120-resize_1/002057_2014-06-24_21-00-13_260595134347_rgbf000120-resize_1-target.png,250,2.967,33.0,1895,254,meters,jsons/v1_VE250_randls_52_rotated.json,709771,934904,22,Man
10,686124,DepthScenes,duration_manipulation_targetAtFixation,jsons/v1_VE250_randls_52_rotated.json,http://54.235.29.9/FacialAge/BNav_EC2/DepthDuration/v2_depth_duration_MTurk/v2_DepthDuration_HTML.html#56,56,1366,768,1366,768,8-29-2022,14-32-32,11,depth_duration_stimuli/001094_2014-06-15_17-36-00_260595134347_rgbf000205-resize_0/001094_2014-06-15_17-36-00_260595134347_rgbf000205-resize_0-target.png,250,4.2175,22.0,1914,239,meters,jsons/v1_VE250_randls_52_rotated.json,709771,934904,22,Man
11,686124,DepthScenes,duration_manipulation_targetAtFixation,jsons/v1_VE250_randls_52_rotated.json,http://54.235.29.9/FacialAge/BNav_EC2/DepthDuration/v2_depth_duration_MTurk/v2_DepthDuration_HTML.html#56,56,1366,768,1366,768,8-29-2022,14-32-32,12,depth_duration_stimuli/000692_2014-06-08_13-09-42_260595134347_rgbf000199-resize_2/000692_2014-06-08_13-09-42_260595134347_rgbf000199-resize_2-target.png,250,3.661,44.0,2420,257,meters,jsons/v1_VE250_randls_52_rotated.json,709771,934904,22,Man
12,686124,DepthScenes,duration_manipulation_targetAtFixation,jsons/v1_VE250_randls_52_rotated.json,http://54.235.29.9/FacialAge/BNav_EC2/DepthDuration/v2_depth_duration_MTurk/v2_DepthDuration_HTML.html#56,56,1366,768,1366,768,8-29-2022,14-32-32,13,depth_duration_stimuli/002103_2014-06-25_20-00-40_260595134347_rgbf000049-resize_0/002103_2014-06-25_20-00-40_260595134347_rgbf000049-resize_0-target.png,250,4.105,33.0,2275,247,meters,jsons/v1_VE250_randls_52_rotated.json,709771,934904,22,Man
13,686124,DepthScenes,duration_manipulation_targetAtFixation,jsons/v1_VE250_randls_52_rotated.json,http://54.235.29.9/FacialAge/BNav_EC2/DepthDuration/v2_depth_duration_MTurk/v2_DepthDuration_HTML.html#56,56,1366,768,1366,768,8-29-2022,14-32-32,14,depth_duration_stimuli/002039_2014-06-24_20-22-38_260595134347_rgbf000084-resize_1/002039_2014-06-24_20-22-38_260595134347_rgbf000084-resize_1-target.png,250,4.408,44.0,2135,259,meters,jsons/v1_VE250_randls_52_rotated.json,709771,934904,22,Man
14,686124,DepthScenes,duration_manipulation_targetAtFixation,jsons/v1_VE250_randls_52_rotated.json,http://54.235.29.9/FacialAge/BNav_EC2/DepthDuration/v2_depth_duration_MTurk/v2_DepthDuration_HTML.html#56,56,1366,768,1366,768,8-29-2022,14-32-32,15,depth_duration_stimuli/001450_2014-06-19_17-02-03_260595134347_rgbf000203-resize_4/001450_2014-06-19_17-02-03_260595134347_rgbf000203-resize_4-target.png,250,4.0106666666667,33.0,2669,248,meters,jsons/v1_VE250_randls_52_rotated.json,709771,934904,22,Man
15,686124,DepthScenes,duration_manipulation_targetAtFixation,jsons/v1_VE250_randls_52_rotated.json,http://54.235.29.9/FacialAge/BNav_EC2/DepthDuration/v2_depth_duration_MTurk/v2_DepthDuration_HTML.html#56,56,1366,768,1366,768,8-29-2022,14-32-32,16,depth_duration_stimuli/001449_2014-06-19_17-01-27_260595134347_rgbf000116-resize_2/001449_2014-06-19_17-01-27_260595134347_rgbf000116-resize_2-target.png,250,3.452,33.0,2025,236,meters,jsons/v1_VE250_randls_52_rotated.json,709771,934904,22,Man
16,686124,DepthScenes,duration_manipulation_targetAtFixation,jsons/v1_VE250_randls_52_rotated.json,http://54.235.29.9/FacialAge/BNav_EC2/DepthDuration/v2_depth_duration_MTurk/v2_DepthDuration_HTML.html#56,56,1366,768,1366,768,8-29-2022,14-32-32,17,depth_duration_stimuli/002639_2014-06-24_14-51-37_094959634447_rgbf000074-resize_4/002639_2014-06-24_14-51-37_094959634447_rgbf000074-resize_4-target.png,250,4.0375,33.0,1922,249,meters,jsons/v1_VE250_randls_52_rotated.json,709771,934904,22,Man
17,686124,DepthScenes,duration_manipulation_targetAtFixation,jsons/v1_VE250_randls_52_rotated.json,http://54.235.29.9/FacialAge/BNav_EC2/DepthDuration/v2_depth_duration_MTurk/v2_DepthDuration_HTML.html#56,56,1366,768,1366,768,8-29-2022,14-32-32,18,depth_duration_stimuli/003292_2014-05-14_21-53-49_094959634447_rgbf000100-resize_2/003292_2014-05-14_21-53-49_094959634447_rgbf000100-resize_2-target.png,250,3.4815,333.0,3102,246,meters,jsons/v1_VE250_randls_52_rotated.json,709771,934904,22,Man
18,686124,DepthScenes,duration_manipulation_targetAtFixation,jsons/v1_VE250_randls_52_rotated.json,http://54.235.29.9/FacialAge/BNav_EC2/DepthDuration/v2_depth_duration_MTurk/v2_DepthDuration_HTML.html#56,56,1366,768,1366,768,8-29-2022,14-32-32,19,depth_duration_stimuli/001498_2014-06-19_17-45-14_260595134347_rgbf000129-resize_4/001498_2014-06-19_17-45-14_260595134347_rgbf000129-resize-original.jpg,250,1.4075,33.0,2092,251,meters,jsons/v1_VE250_randls_52_rotated.json,709771,934904,22,Man
19,686124,DepthScenes,duration_manipulation_targetAtFixation,jsons/v1_VE250_randls_52_rotated.json,http://54.235.29.9/FacialAge/BNav_EC2/DepthDuration/v2_depth_duration_MTurk/v2_DepthDuration_HTML.html#56,56,1366,768,1366,768,8-29-2022,14-32-32,20,depth_duration_stimuli/000734_2014-06-08_17-39-11_260595134347_rgbf000128-resize_2/000734_2014-06-08_17-39-11_260595134347_rgbf000128-resize_2-target.png,250,4.098,555.0,2718,262,meters,jsons/v1_VE250_randls_52_rotated.json,709771,934904,22,Man
20,686124,DepthScenes,duration_manipulation_targetAtFixation,jsons/v1_VE250_randls_52_rotated.json,http://54.235.29.9/FacialAge/BNav_EC2/DepthDuration/v2_depth_duration_MTurk/v2_DepthDuration_HTML.html#56,56,1366,768,1366,768,8-29-2022,14-32-32,21,depth_duration_stimuli/000739_2014-06-08_18-45-58_260595134347_rgbf000068-resize_1/000739_2014-06-08_18-45-58_260595134347_rgbf000068-resize_1-target.png,250,3.534,55.0,2307,254,meters,jsons/v1_VE250_randls_52_rotated.json,709771,934904,22,Man
21,686124,DepthScenes,duration_manipulation_targetAtFixation,jsons/v1_VE250_randls_52_rotated.json,http://54.235.29.9/FacialAge/BNav_EC2/DepthDuration/v2_depth_duration_MTurk/v2_DepthDuration_HTML.html#56,56,1366,768,1366,768,8-29-2022,14-32-32,22,depth_duration_stimuli/000109_2014-05-14_23-41-52_260595134347_rgbf000035-resize_9/000109_2014-05-14_23-41-52_260595134347_rgbf000035-resize_9-target.png,250,1.3545,55.0,2282,264,meters,jsons/v1_VE250_randls_52_rotated.json,709771,934904,22,Man
22,686124,DepthScenes,duration_manipulation_targetAtFixation,jsons/v1_VE250_randls_52_rotated.json,http://54.235.29.9/FacialAge/BNav_EC2/DepthDuration/v2_depth_duration_MTurk/v2_DepthDuration_HTML.html#56,56,1366,768,1366,768,8-29-2022,14-32-32,23,depth_duration_stimuli/000470_2014-06-09_19-42-40_260595134347_rgbf000094-resize_1/000470_2014-06-09_19-42-40_260595134347_rgbf000094-resize_1-target.png,250,1.831,55.0,1929,245,meters,jsons/v1_VE250_randls_52_rotated.json,709771,934904,22,Man
23,686124,DepthScenes,duration_manipulation_targetAtFixation,jsons/v1_VE250_randls_52_rotated.json,http://54.235.29.9/FacialAge/BNav_EC2/DepthDuration/v2_depth_duration_MTurk/v2_DepthDuration_HTML.html#56,56,1366,768,1366,768,8-29-2022,14-32-32,24,depth_duration_stimuli/000749_2014-06-08_21-55-06_260595134347_rgbf000070-resize_2/000749_2014-06-08_21-55-06_260595134347_rgbf000070-resize_2-target.png,250,2.331,55.0,6516,242,meters,jsons/v1_VE250_randls_52_rotated.json,709771,934904,22,Man
24,686124,DepthScenes,duration_manipulation_targetAtFixation,jsons/v1_VE250_randls_52_rotated.json,http://54.235.29.9/FacialAge/BNav_EC2/DepthDuration/v2_depth_duration_MTurk/v2_DepthDuration_HTML.html#56,56,1366,768,1366,768,8-29-2022,14-32-32,25,depth_duration_stimuli/002788_2014-06-22_19-36-03_094959634447_rgbf000088-resize_2/002788_2014-06-22_19-36-03_094959634447_rgbf000088-resize_2-target.png,250,1.6465,55.0,2347,245,meters,jsons/v1_VE250_randls_52_rotated.json,709771,934904,22,Man
25,686124,DepthScenes,duration_manipulation_targetAtFixation,jsons/v1_VE250_randls_52_rotated.json,http://54.235.29.9/FacialAge/BNav_EC2/DepthDuration/v2_depth_duration_MTurk/v2_DepthDuration_HTML.html#56,56,1366,768,1366,768,8-29-2022,14-32-32,26,depth_duration_stimuli/002136_2014-06-25_21-18-03_260595134347_rgbf000109-resize_3/002136_2014-06-25_21-18-03_260595134347_rgbf000109-resize_3-target.png,250,1.9569999999999999,55.0,2632,258,meters,jsons/v1_VE250_randls_52_rotated.json,709771,934904,22,Man
26,686124,DepthScenes,duration_manipulation_targetAtFixation,jsons/v1_VE250_randls_52_rotated.json,http://54.235.29.9/FacialAge/BNav_EC2/DepthDuration/v2_depth_duration_MTurk/v2_DepthDuration_HTML.html#56,56,1366,768,1366,768,8-29-2022,14-32-32,27,depth_duration_stimuli/002964_2014-06-08_17-46-11_094959634447_rgbf000091-resize_4/002964_2014-06-08_17-46-11_094959634447_rgbf000091-resize_4-target.png,250,1.6909999999999998,55.0,4267,250,meters,jsons/v1_VE250_randls_52_rotated.json,709771,934904,22,Man
27,686124,DepthScenes,duration_manipulation_targetAtFixation,jsons/v1_VE250_randls_52_rotated.json,http://54.235.29.9/FacialAge/BNav_EC2/DepthDuration/v2_depth_duration_MTurk/v2_DepthDuration_HTML.html#56,56,1366,768,1366,768,8-29-2022,14-32-32,28,depth_duration_stimuli/000137_2014-05-20_17-04-49_260595134347_rgbf000120-resize_1/000137_2014-05-20_17-04-49_260595134347_rgbf000120-resize_1-target.png,250,3.786,55.0,2605,248,meters,jsons/v1_VE250_randls_52_rotated.json,709771,934904,22,Man
28,686124,DepthScenes,duration_manipulation_targetAtFixation,jsons/v1_VE250_randls_52_rotated.json,http://54.235.29.9/FacialAge/BNav_EC2/DepthDuration/v2_depth_duration_MTurk/v2_DepthDuration_HTML.html#56,56,1366,768,1366,768,8-29-2022,14-32-32,29,depth_duration_stimuli/000736_2014-06-08_18-24-15_260595134347_rgbf000206-resize_3/000736_2014-06-08_18-24-15_260595134347_rgbf000206-resize_3-target.png,250,3.515,66.0,6427,242,meters,jsons/v1_VE250_randls_52_rotated.json,709771,934904,22,Man
29,686124,DepthScenes,duration_manipulation_targetAtFixation,jsons/v1_VE250_randls_52_rotated.json,http://54.235.29.9/FacialAge/BNav_EC2/DepthDuration/v2_depth_duration_MTurk/v2_DepthDuration_HTML.html#56,56,1366,768,1366,768,8-29-2022,14-32-32,30,depth_duration_stimuli/002072_2014-06-24_21-48-06_260595134347_rgbf000115-resize_0/002072_2014-06-24_21-48-06_260595134347_rgbf000115-resize-original.jpg,250,4.702,66.0,1919,234,meters,jsons/v1_VE250_randls_52_rotated.json,709771,934904,22,Man
30,686124,DepthScenes,duration_manipulation_targetAtFixation,jsons/v1_VE250_randls_52_rotated.json,http://54.235.29.9/FacialAge/BNav_EC2/DepthDuration/v2_depth_duration_MTurk/v2_DepthDuration_HTML.html#56,56,1366,768,1366,768,8-29-2022,14-32-32,31,depth_duration_stimuli/002758_2014-06-22_19-11-20_094959634447_rgbf000128-resize_1/002758_2014-06-22_19-11-20_094959634447_rgbf000128-resize_1-target.png,250,2.555,66.0,1868,260,meters,jsons/v1_VE250_randls_52_rotated.json,709771,934904,22,Man
31,686124,DepthScenes,duration_manipulation_targetAtFixation,jsons/v1_VE250_randls_52_rotated.json,http://54.235.29.9/FacialAge/BNav_EC2/DepthDuration/v2_depth_duration_MTurk/v2_DepthDuration_HTML.html#56,56,1366,768,1366,768,8-29-2022,14-32-32,32,depth_duration_stimuli/002630_2014-06-24_14-47-50_094959634447_rgbf000055-resize_1/002630_2014-06-24_14-47-50_094959634447_rgbf000055-resize_1-target.png,250,3.0095,22.0,6714,251,meters,jsons/v1_VE250_randls_52_rotated.json,709771,934904,22,Man
32,686124,DepthScenes,duration_manipulation_targetAtFixation,jsons/v1_VE250_randls_52_rotated.json,http://54.235.29.9/FacialAge/BNav_EC2/DepthDuration/v2_depth_duration_MTurk/v2_DepthDuration_HTML.html#56,56,1366,768,1366,768,8-29-2022,14-32-32,33,depth_duration_stimuli/001815_2014-06-26_20-52-55_260595134347_rgbf000020-resize_0/001815_2014-06-26_20-52-55_260595134347_rgbf000020-resize_0-target.png,250,3.3865,55.0,3059,249,meters,jsons/v1_VE250_randls_52_rotated.json,709771,934904,22,Man
33,686124,DepthScenes,duration_manipulation_targetAtFixation,jsons/v1_VE250_randls_52_rotated.json,http://54.235.29.9/FacialAge/BNav_EC2/DepthDuration/v2_depth_duration_MTurk/v2_DepthDuration_HTML.html#56,56,1366,768,1366,768,8-29-2022,14-32-32,34,depth_duration_stimuli/001808_2014-06-26_20-50-58_260595134347_rgbf000029-resize_1/001808_2014-06-26_20-50-58_260595134347_rgbf000029-resize_1-target.png,250,4.249,66.0,2494,240,meters,jsons/v1_VE250_randls_52_rotated.json,709771,934904,22,Man
34,686124,DepthScenes,duration_manipulation_targetAtFixation,jsons/v1_VE250_randls_52_rotated.json,http://54.235.29.9/FacialAge/BNav_EC2/DepthDuration/v2_depth_duration_MTurk/v2_DepthDuration_HTML.html#56,56,1366,768,1366,768,8-29-2022,14-32-32,35,depth_duration_stimuli/003423_2014-05-21_10-23-26_094959634447_rgbf002665-resize_2/003423_2014-05-21_10-23-26_094959634447_rgbf002665-resize_2-target.png,250,3.2575,585.0,3596,252,meters,jsons/v1_VE250_randls_52_rotated.json,709771,934904,22,Man
35,686124,DepthScenes,duration_manipulation_targetAtFixation,jsons/v1_VE250_randls_52_rotated.json,http://54.235.29.9/FacialAge/BNav_EC2/DepthDuration/v2_depth_duration_MTurk/v2_DepthDuration_HTML.html#56,56,1366,768,1366,768,8-29-2022,14-32-32,36,depth_duration_stimuli/002905_2014-06-03_18-04-43_094959634447_rgbf000151-resize_2/002905_2014-06-03_18-04-43_094959634447_rgbf000151-resize_2-target.png,250,2.0295,55.0,1786,248,meters,jsons/v1_VE250_randls_52_rotated.json,709771,934904,22,Man
36,686124,DepthScenes,duration_manipulation_targetAtFixation,jsons/v1_VE250_randls_52_rotated.json,http://54.235.29.9/FacialAge/BNav_EC2/DepthDuration/v2_depth_duration_MTurk/v2_DepthDuration_HTML.html#56,56,1366,768,1366,768,8-29-2022,14-32-32,37,depth_duration_stimuli/002657_2014-06-13_15-29-54_094959634447_rgbf000150-resize_1/002657_2014-06-13_15-29-54_094959634447_rgbf000150-resize_1-target.png,250,4.919,55.0,1807,254,meters,jsons/v1_VE250_randls_52_rotated.json,709771,934904,22,Man
37,686124,DepthScenes,duration_manipulation_targetAtFixation,jsons/v1_VE250_randls_52_rotated.json,http://54.235.29.9/FacialAge/BNav_EC2/DepthDuration/v2_depth_duration_MTurk/v2_DepthDuration_HTML.html#56,56,1366,768,1366,768,8-29-2022,14-32-32,38,depth_duration_stimuli/002375_2014-06-28_20-13-44_260595134347_rgbf000032-resize_1/002375_2014-06-28_20-13-44_260595134347_rgbf000032-resize_1-target.png,250,4.0175,55.0,1735,234,meters,jsons/v1_VE250_randls_52_rotated.json,709771,934904,22,Man
38,686124,DepthScenes,duration_manipulation_targetAtFixation,jsons/v1_VE250_randls_52_rotated.json,http://54.235.29.9/FacialAge/BNav_EC2/DepthDuration/v2_depth_duration_MTurk/v2_DepthDuration_HTML.html#56,56,1366,768,1366,768,8-29-2022,14-32-32,39,depth_duration_stimuli/001447_2014-06-19_17-00-32_260595134347_rgbf000082-resize_5/001447_2014-06-19_17-00-32_260595134347_rgbf000082-resize_5-target.png,250,4.13775,55.0,2113,262,meters,jsons/v1_VE250_randls_52_rotated.json,709771,934904,22,Man
39,686124,DepthScenes,duration_manipulation_targetAtFixation,jsons/v1_VE250_randls_52_rotated.json,http://54.235.29.9/FacialAge/BNav_EC2/DepthDuration/v2_depth_duration_MTurk/v2_DepthDuration_HTML.html#56,56,1366,657,1366,768,8-29-2022,14-32-32,40,depth_duration_stimuli/000447_2014-06-08_16-15-46_260595134347_rgbf000130-resize_1/000447_2014-06-08_16-15-46_260595134347_rgbf000130-resize_1-target.png,250,4.479,55.0,2797,253,meters,jsons/v1_VE250_randls_52_rotated.json,709771,934904,22,Man
40,686124,DepthScenes,duration_manipulation_targetAtFixation,jsons/v1_VE250_randls_52_rotated.json,http://54.235.29.9/FacialAge/BNav_EC2/DepthDuration/v2_depth_duration_MTurk/v2_DepthDuration_HTML.html#56,56,1366,657,1366,768,8-29-2022,14-32-32,41,depth_duration_stimuli/001392_2014-06-19_16-07-59_260595134347_rgbf000046-resize_1/001392_2014-06-19_16-07-59_260595134347_rgbf000046-resize_1-target.png,250,4.135,55.0,2143,255,meters,jsons/v1_VE250_randls_52_rotated.json,709771,934904,22,Man
41,686124,DepthScenes,duration_manipulation_targetAtFixation,jsons/v1_VE250_randls_52_rotated.json,http://54.235.29.9/FacialAge/BNav_EC2/DepthDuration/v2_depth_duration_MTurk/v2_DepthDuration_HTML.html#56,56,1366,657,1366,768,8-29-2022,14-32-32,42,depth_duration_stimuli/001570_2014-06-20_17-21-09_260595134347_rgbf000135-resize_4/001570_2014-06-20_17-21-09_260595134347_rgbf000135-resize_4-target.png,250,4.467,452.0,2160,254,meters,jsons/v1_VE250_randls_52_rotated.json,709771,934904,22,Man
42,686124,DepthScenes,duration_manipulation_targetAtFixation,jsons/v1_VE250_randls_52_rotated.json,http://54.235.29.9/FacialAge/BNav_EC2/DepthDuration/v2_depth_duration_MTurk/v2_DepthDuration_HTML.html#56,56,1366,657,1366,768,8-29-2022,14-32-32,43,depth_duration_stimuli/003010_2014-06-15_12-54-35_094959634447_rgbf000112-resize_0/003010_2014-06-15_12-54-35_094959634447_rgbf000112-resize_0-target.png,250,3.1185,23.0,3961,250,meters,jsons/v1_VE250_randls_52_rotated.json,709771,934904,22,Man
43,686124,DepthScenes,duration_manipulation_targetAtFixation,jsons/v1_VE250_randls_52_rotated.json,http://54.235.29.9/FacialAge/BNav_EC2/DepthDuration/v2_depth_duration_MTurk/v2_DepthDuration_HTML.html#56,56,1366,657,1366,768,8-29-2022,14-32-32,44,depth_duration_stimuli/001810_2014-06-26_20-51-35_260595134347_rgbf000040-resize_3/001810_2014-06-26_20-51-35_260595134347_rgbf000040-resize_3-target.png,250,2.2525,55.0,13435,247,meters,jsons/v1_VE250_randls_52_rotated.json,709771,934904,22,Man
44,686124,DepthScenes,duration_manipulation_targetAtFixation,jsons/v1_VE250_randls_52_rotated.json,http://54.235.29.9/FacialAge/BNav_EC2/DepthDuration/v2_depth_duration_MTurk/v2_DepthDuration_HTML.html#56,56,1366,657,1366,768,8-29-2022,14-32-32,45,depth_duration_stimuli/001052_2014-06-08_18-24-54_260595134347_rgbf000130-resize_1/001052_2014-06-08_18-24-54_260595134347_rgbf000130-resize_1-target.png,250,4.1045,55.0,12965,251,meters,jsons/v1_VE250_randls_52_rotated.json,709771,934904,22,Man
45,686124,DepthScenes,duration_manipulation_targetAtFixation,jsons/v1_VE250_randls_52_rotated.json,http://54.235.29.9/FacialAge/BNav_EC2/DepthDuration/v2_depth_duration_MTurk/v2_DepthDuration_HTML.html#56,56,1366,657,1366,768,8-29-2022,14-32-32,46,depth_duration_stimuli/002988_2014-06-15_12-24-20_094959634447_rgbf000150-resize_1/002988_2014-06-15_12-24-20_094959634447_rgbf000150-resize_1-target.png,250,4.7669999999999995,22.0,2475,253,meters,jsons/v1_VE250_randls_52_rotated.json,709771,934904,22,Man
46,686124,DepthScenes,duration_manipulation_targetAtFixation,jsons/v1_VE250_randls_52_rotated.json,http://54.235.29.9/FacialAge/BNav_EC2/DepthDuration/v2_depth_duration_MTurk/v2_DepthDuration_HTML.html#56,56,1366,657,1366,768,8-29-2022,14-32-32,47,depth_duration_stimuli/000103_2014-05-14_22-01-17_260595134347_rgbf000152-resize_5/000103_2014-05-14_22-01-17_260595134347_rgbf000152-resize_5-target.png,250,1.993,55.0,2473,249,meters,jsons/v1_VE250_randls_52_rotated.json,709771,934904,22,Man
47,686124,DepthScenes,duration_manipulation_targetAtFixation,jsons/v1_VE250_randls_52_rotated.json,http://54.235.29.9/FacialAge/BNav_EC2/DepthDuration/v2_depth_duration_MTurk/v2_DepthDuration_HTML.html#56,56,1366,657,1366,768,8-29-2022,14-32-32,48,depth_duration_stimuli/001555_2014-06-20_17-12-10_260595134347_rgbf000065-resize_4/001555_2014-06-20_17-12-10_260595134347_rgbf000065-resize_4-target.png,250,1.633,55.0,2156,235,meters,jsons/v1_VE250_randls_52_rotated.json,709771,934904,22,Man
48,686124,DepthScenes,duration_manipulation_targetAtFixation,jsons/v1_VE250_randls_52_rotated.json,http://54.235.29.9/FacialAge/BNav_EC2/DepthDuration/v2_depth_duration_MTurk/v2_DepthDuration_HTML.html#56,56,1366,657,1366,768,8-29-2022,14-32-32,49,depth_duration_stimuli/001170_2014-06-17_15-43-44_260595134347_rgbf000096-resize_6/001170_2014-06-17_15-43-44_260595134347_rgbf000096-resize-original.jpg,250,1.1909999999999998,22.0,2325,249,meters,jsons/v1_VE250_randls_52_rotated.json,709771,934904,22,Man
49,686124,DepthScenes,duration_manipulation_targetAtFixation,jsons/v1_VE250_randls_52_rotated.json,http://54.235.29.9/FacialAge/BNav_EC2/DepthDuration/v2_depth_duration_MTurk/v2_DepthDuration_HTML.html#56,56,1366,657,1366,768,8-29-2022,14-32-32,50,depth_duration_stimuli/000866_2014-06-09_20-45-42_260595134347_rgbf000139-resize_1/000866_2014-06-09_20-45-42_260595134347_rgbf000139-resize_1-target.png,250,3.2155,58.0,1913,241,meters,jsons/v1_VE250_randls_52_rotated.json,709771,934904,22,Man
50,686124,DepthScenes,duration_manipulation_targetAtFixation,jsons/v1_VE250_randls_52_rotated.json,http://54.235.29.9/FacialAge/BNav_EC2/DepthDuration/v2_depth_duration_MTurk/v2_DepthDuration_HTML.html#56,56,1366,657,1366,768,8-29-2022,14-32-32,51,depth_duration_stimuli/002989_2014-06-15_12-25-03_094959634447_rgbf000150-resize_3/002989_2014-06-15_12-25-03_094959634447_rgbf000150-resize_3-target.png,250,4.1975,582.0,2018,237,meters,jsons/v1_VE250_randls_52_rotated.json,709771,934904,22,Man
51,686124,DepthScenes,duration_manipulation_targetAtFixation,jsons/v1_VE250_randls_52_rotated.json,http://54.235.29.9/FacialAge/BNav_EC2/DepthDuration/v2_depth_duration_MTurk/v2_DepthDuration_HTML.html#56,56,1366,657,1366,768,8-29-2022,14-32-32,52,depth_duration_stimuli/000943_2014-06-09_19-31-07_260595134347_rgbf000128-resize_1/000943_2014-06-09_19-31-07_260595134347_rgbf000128-resize_1-target.png,250,1.9765,52.0,2471,242,meters,jsons/v1_VE250_randls_52_rotated.json,709771,934904,22,Man
52,686124,DepthScenes,duration_manipulation_targetAtFixation,jsons/v1_VE250_randls_52_rotated.json,http://54.235.29.9/FacialAge/BNav_EC2/DepthDuration/v2_depth_duration_MTurk/v2_DepthDuration_HTML.html#56,56,1366,657,1366,768,8-29-2022,14-32-32,53,depth_duration_stimuli/003070_2014-06-15_14-58-27_094959634447_rgbf000150-resize_3/003070_2014-06-15_14-58-27_094959634447_rgbf000150-resize_3-target.png,250,2.9415,52.0,2318,234,meters,jsons/v1_VE250_randls_52_rotated.json,709771,934904,22,Man
53,686124,DepthScenes,duration_manipulation_targetAtFixation,jsons/v1_VE250_randls_52_rotated.json,http://54.235.29.9/FacialAge/BNav_EC2/DepthDuration/v2_depth_duration_MTurk/v2_DepthDuration_HTML.html#56,56,1366,657,1366,768,8-29-2022,14-32-32,54,depth_duration_stimuli/002545_2014-06-24_13-38-53_094959634447_rgbf000080-resize_4/002545_2014-06-24_13-38-53_094959634447_rgbf000080-resize_4-target.png,250,1.9205,52.0,1983,239,meters,jsons/v1_VE250_randls_52_rotated.json,709771,934904,22,Man
54,686124,DepthScenes,duration_manipulation_targetAtFixation,jsons/v1_VE250_randls_52_rotated.json,http://54.235.29.9/FacialAge/BNav_EC2/DepthDuration/v2_depth_duration_MTurk/v2_DepthDuration_HTML.html#56,56,1366,657,1366,768,8-29-2022,14-32-32,55,depth_duration_stimuli/001092_2014-06-15_17-34-58_260595134347_rgbf000171-resize_3/001092_2014-06-15_17-34-58_260595134347_rgbf000171-resize_3-target.png,250,2.6935,52.0,1974,259,meters,jsons/v1_VE250_randls_52_rotated.json,709771,934904,22,Man
55,686124,DepthScenes,duration_manipulation_targetAtFixation,jsons/v1_VE250_randls_52_rotated.json,http://54.235.29.9/FacialAge/BNav_EC2/DepthDuration/v2_depth_duration_MTurk/v2_DepthDuration_HTML.html#56,56,1366,657,1366,768,8-29-2022,14-32-32,56,depth_duration_stimuli/000665_2014-06-09_20-42-35_260595134347_rgbf000110-resize_1/000665_2014-06-09_20-42-35_260595134347_rgbf000110-resize_1-target.png,250,3.057,52.0,2273,249,meters,jsons/v1_VE250_randls_52_rotated.json,709771,934904,22,Man
56,686124,DepthScenes,duration_manipulation_targetAtFixation,jsons/v1_VE250_randls_52_rotated.json,http://54.235.29.9/FacialAge/BNav_EC2/DepthDuration/v2_depth_duration_MTurk/v2_DepthDuration_HTML.html#56,56,1366,657,1366,768,8-29-2022,14-32-32,57,depth_duration_stimuli/001150_2014-06-17_15-27-34_260595134347_rgbf000108-resize_2/001150_2014-06-17_15-27-34_260595134347_rgbf000108-resize_2-target.png,250,4.0325,523.0,2422,248,meters,jsons/v1_VE250_randls_52_rotated.json,709771,934904,22,Man
57,686124,DepthScenes,duration_manipulation_targetAtFixation,jsons/v1_VE250_randls_52_rotated.json,http://54.235.29.9/FacialAge/BNav_EC2/DepthDuration/v2_depth_duration_MTurk/v2_DepthDuration_HTML.html#56,56,1366,657,1366,768,8-29-2022,14-32-32,58,depth_duration_stimuli/000409_2014-06-04_19-23-33_260595134347_rgbf000067-resize_0/000409_2014-06-04_19-23-33_260595134347_rgbf000067-resize_0-target.png,250,3.7335,63.0,2551,252,meters,jsons/v1_VE250_randls_52_rotated.json,709771,934904,22,Man
58,686124,DepthScenes,duration_manipulation_targetAtFixation,jsons/v1_VE250_randls_52_rotated.json,http://54.235.29.9/FacialAge/BNav_EC2/DepthDuration/v2_depth_duration_MTurk/v2_DepthDuration_HTML.html#56,56,1366,657,1366,768,8-29-2022,14-32-32,59,depth_duration_stimuli/002663_2014-06-13_15-50-26_094959634447_rgbf000075-resize_1/002663_2014-06-13_15-50-26_094959634447_rgbf000075-resize_1-target.png,250,4.7495,63.0,1905,245,meters,jsons/v1_VE250_randls_52_rotated.json,709771,934904,22,Man
59,686124,DepthScenes,duration_manipulation_targetAtFixation,jsons/v1_VE250_randls_52_rotated.json,http://54.235.29.9/FacialAge/BNav_EC2/DepthDuration/v2_depth_duration_MTurk/v2_DepthDuration_HTML.html#56,56,1366,657,1366,768,8-29-2022,14-32-32,60,depth_duration_stimuli/000927_2014-06-09_16-32-30_260595134347_rgbf000123-resize_3/000927_2014-06-09_16-32-30_260595134347_rgbf000123-resize_3-target.png,250,2.6785,36.0,2329,259,meters,jsons/v1_VE250_randls_52_rotated.json,709771,934904,22,Man
60,686124,DepthScenes,duration_manipulation_targetAtFixation,jsons/v1_VE250_randls_52_rotated.json,http://54.235.29.9/FacialAge/BNav_EC2/DepthDuration/v2_depth_duration_MTurk/v2_DepthDuration_HTML.html#56,56,1366,657,1366,768,8-29-2022,14-32-32,61,depth_duration_stimuli/001110_2014-06-15_17-25-28_260595134347_rgbf000150-resize_1/001110_2014-06-15_17-25-28_260595134347_rgbf000150-resize_1-target.png,250,1.7115,63.0,1908,256,meters,jsons/v1_VE250_randls_52_rotated.json,709771,934904,22,Man
61,686124,DepthScenes,duration_manipulation_targetAtFixation,jsons/v1_VE250_randls_52_rotated.json,http://54.235.29.9/FacialAge/BNav_EC2/DepthDuration/v2_depth_duration_MTurk/v2_DepthDuration_HTML.html#56,56,1366,657,1366,768,8-29-2022,14-32-32,62,depth_duration_stimuli/001132_2014-06-17_14-48-54_260595134347_rgbf000100-resize_2/001132_2014-06-17_14-48-54_260595134347_rgbf000100-resize_2-target.png,250,3.753,336.0,2478,244,meters,jsons/v1_VE250_randls_52_rotated.json,709771,934904,22,Man
62,686124,DepthScenes,duration_manipulation_targetAtFixation,jsons/v1_VE250_randls_52_rotated.json,http://54.235.29.9/FacialAge/BNav_EC2/DepthDuration/v2_depth_duration_MTurk/v2_DepthDuration_HTML.html#56,56,1366,657,1366,768,8-29-2022,14-32-32,63,depth_duration_stimuli/001133_2014-06-17_14-49-16_260595134347_rgbf000100-resize_0/001133_2014-06-17_14-49-16_260595134347_rgbf000100-resize_0-target.png,250,4.2115,63.0,4441,238,meters,jsons/v1_VE250_randls_52_rotated.json,709771,934904,22,Man
63,686124,DepthScenes,duration_manipulation_targetAtFixation,jsons/v1_VE250_randls_52_rotated.json,http://54.235.29.9/FacialAge/BNav_EC2/DepthDuration/v2_depth_duration_MTurk/v2_DepthDuration_HTML.html#56,56,1366,657,1366,768,8-29-2022,14-32-32,64,depth_duration_stimuli/002344_2014-06-28_20-06-29_260595134347_rgbf000030-resize_1/002344_2014-06-28_20-06-29_260595134347_rgbf000030-resize_1-target.png,250,1.5795,63.0,5410,233,meters,jsons/v1_VE250_randls_52_rotated.json,709771,934904,22,Man
64,686124,DepthScenes,duration_manipulation_targetAtFixation,jsons/v1_VE250_randls_52_rotated.json,http://54.235.29.9/FacialAge/BNav_EC2/DepthDuration/v2_depth_duration_MTurk/v2_DepthDuration_HTML.html#56,56,1366,657,1366,768,8-29-2022,14-32-32,65,depth_duration_stimuli/002725_2014-06-22_11-47-51_094959634447_rgbf000070-resize_1/002725_2014-06-22_11-47-51_094959634447_rgbf000070-resize_1-target.png,250,2.195,63.0,7542,505,meters,jsons/v1_VE250_randls_52_rotated.json,709771,934904,22,Man
65,686124,DepthScenes,duration_manipulation_targetAtFixation,jsons/v1_VE250_randls_52_rotated.json,http://54.235.29.9/FacialAge/BNav_EC2/DepthDuration/v2_depth_duration_MTurk/v2_DepthDuration_HTML.html#56,56,1366,657,1366,768,8-29-2022,14-32-32,66,depth_duration_stimuli/001540_2014-06-20_17-01-05_260595134347_rgbf000086-resize_2/001540_2014-06-20_17-01-05_260595134347_rgbf000086-resize-original.jpg,250,1.459,100.0,2352,239,meters,jsons/v1_VE250_randls_52_rotated.json,709771,934904,22,Man
66,686124,DepthScenes,duration_manipulation_targetAtFixation,jsons/v1_VE250_randls_52_rotated.json,http://54.235.29.9/FacialAge/BNav_EC2/DepthDuration/v2_depth_duration_MTurk/v2_DepthDuration_HTML.html#56,56,1366,657,1366,768,8-29-2022,14-32-32,67,depth_duration_stimuli/002678_2014-06-13_16-15-32_094959634447_rgbf000151-resize_6/002678_2014-06-13_16-15-32_094959634447_rgbf000151-resize_6-target.png,250,2.1830000000000003,10.0,3276,242,meters,jsons/v1_VE250_randls_52_rotated.json,709771,934904,22,Man
67,686124,DepthScenes,duration_manipulation_targetAtFixation,jsons/v1_VE250_randls_52_rotated.json,http://54.235.29.9/FacialAge/BNav_EC2/DepthDuration/v2_depth_duration_MTurk/v2_DepthDuration_HTML.html#56,56,1366,657,1366,768,8-29-2022,14-32-32,68,depth_duration_stimuli/000368_2014-06-09_15-53-01_260595134347_rgbf000155-resize_2/000368_2014-06-09_15-53-01_260595134347_rgbf000155-resize_2-target.png,250,2.4859999999999998,22.0,2825,262,meters,jsons/v1_VE250_randls_52_rotated.json,709771,934904,22,Man
68,686124,DepthScenes,duration_manipulation_targetAtFixation,jsons/v1_VE250_randls_52_rotated.json,http://54.235.29.9/FacialAge/BNav_EC2/DepthDuration/v2_depth_duration_MTurk/v2_DepthDuration_HTML.html#56,56,1366,657,1366,768,8-29-2022,14-32-32,69,depth_duration_stimuli/002949_2014-06-26_15-57-42_094959634447_rgbf000079-resize_1/002949_2014-06-26_15-57-42_094959634447_rgbf000079-resize_1-target.png,250,1.8915,12.0,2631,241,meters,jsons/v1_VE250_randls_52_rotated.json,709771,934904,22,Man
69,686124,DepthScenes,duration_manipulation_targetAtFixation,jsons/v1_VE250_randls_52_rotated.json,http://54.235.29.9/FacialAge/BNav_EC2/DepthDuration/v2_depth_duration_MTurk/v2_DepthDuration_HTML.html#56,56,1366,657,1366,768,8-29-2022,14-32-32,70,depth_duration_stimuli/000522_2014-06-08_13-35-06_260595134347_rgbf000244-resize_1/000522_2014-06-08_13-35-06_260595134347_rgbf000244-resize_1-target.png,250,2.3715,12.0,5521,257,meters,jsons/v1_VE250_randls_52_rotated.json,709771,934904,22,Man
70,686124,DepthScenes,duration_manipulation_targetAtFixation,jsons/v1_VE250_randls_52_rotated.json,http://54.235.29.9/FacialAge/BNav_EC2/DepthDuration/v2_depth_duration_MTurk/v2_DepthDuration_HTML.html#56,56,1366,657,1366,768,8-29-2022,14-32-32,71,depth_duration_stimuli/001571_2014-06-20_17-21-32_260595134347_rgbf000089-resize_1/001571_2014-06-20_17-21-32_260595134347_rgbf000089-resize_1-target.png,250,1.86,11.0,2717,254,meters,jsons/v1_VE250_randls_52_rotated.json,709771,934904,22,Man
71,686124,DepthScenes,duration_manipulation_targetAtFixation,jsons/v1_VE250_randls_52_rotated.json,http://54.235.29.9/FacialAge/BNav_EC2/DepthDuration/v2_depth_duration_MTurk/v2_DepthDuration_HTML.html#56,56,1366,657,1366,768,8-29-2022,14-32-32,72,depth_duration_stimuli/002272_2014-06-28_18-53-56_260595134347_rgbf000067-resize_2/002272_2014-06-28_18-53-56_260595134347_rgbf000067-resize_2-target.png,250,1.138,11.0,2013,255,meters,jsons/v1_VE250_randls_52_rotated.json,709771,934904,22,Man
72,686124,DepthScenes,duration_manipulation_targetAtFixation,jsons/v1_VE250_randls_52_rotated.json,http://54.235.29.9/FacialAge/BNav_EC2/DepthDuration/v2_depth_duration_MTurk/v2_DepthDuration_HTML.html#56,56,1366,657,1366,768,8-29-2022,14-32-32,73,depth_duration_stimuli/001032_2014-06-08_13-23-17_260595134347_rgbf000021-resize_3/001032_2014-06-08_13-23-17_260595134347_rgbf000021-resize_3-target.png,250,3.2725,22.0,2375,249,meters,jsons/v1_VE250_randls_52_rotated.json,709771,934904,22,Man
73,686124,DepthScenes,duration_manipulation_targetAtFixation,jsons/v1_VE250_randls_52_rotated.json,http://54.235.29.9/FacialAge/BNav_EC2/DepthDuration/v2_depth_duration_MTurk/v2_DepthDuration_HTML.html#56,56,1366,657,1366,768,8-29-2022,14-32-32,74,depth_duration_stimuli/001059_2014-06-08_21-53-27_260595134347_rgbf000061-resize_4/001059_2014-06-08_21-53-27_260595134347_rgbf000061-resize_4-target.png,250,2.4185,22.0,9354,259,meters,jsons/v1_VE250_randls_52_rotated.json,709771,934904,22,Man
74,686124,DepthScenes,duration_manipulation_targetAtFixation,jsons/v1_VE250_randls_52_rotated.json,http://54.235.29.9/FacialAge/BNav_EC2/DepthDuration/v2_depth_duration_MTurk/v2_DepthDuration_HTML.html#56,56,1366,657,1366,768,8-29-2022,14-32-32,75,depth_duration_stimuli/001828_2014-06-26_21-40-03_260595134347_rgbf000024-resize_0/001828_2014-06-26_21-40-03_260595134347_rgbf000024-resize_0-target.png,250,4.8260000000000005,22.0,2046,250,meters,jsons/v1_VE250_randls_52_rotated.json,709771,934904,22,Man
75,686124,DepthScenes,duration_manipulation_targetAtFixation,jsons/v1_VE250_randls_52_rotated.json,http://54.235.29.9/FacialAge/BNav_EC2/DepthDuration/v2_depth_duration_MTurk/v2_DepthDuration_HTML.html#56,56,1366,657,1366,768,8-29-2022,14-32-32,76,depth_duration_stimuli/000009_2014-05-26_14-32-05_260595134347_rgbf000034-resize_3/000009_2014-05-26_14-32-05_260595134347_rgbf000034-resize_3-target.png,250,3.8715,222.0,2588,230,meters,jsons/v1_VE250_randls_52_rotated.json,709771,934904,22,Man
76,686124,DepthScenes,duration_manipulation_targetAtFixation,jsons/v1_VE250_randls_52_rotated.json,http://54.235.29.9/FacialAge/BNav_EC2/DepthDuration/v2_depth_duration_MTurk/v2_DepthDuration_HTML.html#56,56,1366,657,1366,768,8-29-2022,14-32-32,77,depth_duration_stimuli/002995_2014-06-15_12-31-26_094959634447_rgbf000150-resize_1/002995_2014-06-15_12-31-26_094959634447_rgbf000150-resize_1-target.png,250,3.8360000000000003,22.0,3905,255,meters,jsons/v1_VE250_randls_52_rotated.json,709771,934904,22,Man
77,686124,DepthScenes,duration_manipulation_targetAtFixation,jsons/v1_VE250_randls_52_rotated.json,http://54.235.29.9/FacialAge/BNav_EC2/DepthDuration/v2_depth_duration_MTurk/v2_DepthDuration_HTML.html#56,56,1366,657,1366,768,8-29-2022,14-32-32,78,depth_duration_stimuli/002748_2014-06-22_19-07-22_094959634447_rgbf000078-resize_1/002748_2014-06-22_19-07-22_094959634447_rgbf000078-resize_1-target.png,250,4.6705,321.0,2906,263,meters,jsons/v1_VE250_randls_52_rotated.json,709771,934904,22,Man
78,686124,DepthScenes,duration_manipulation_targetAtFixation,jsons/v1_VE250_randls_52_rotated.json,http://54.235.29.9/FacialAge/BNav_EC2/DepthDuration/v2_depth_duration_MTurk/v2_DepthDuration_HTML.html#56,56,1366,657,1366,768,8-29-2022,14-32-32,79,depth_duration_stimuli/000191_2014-05-12_17-07-38_260595134347_rgbf000199-resize_0/000191_2014-05-12_17-07-38_260595134347_rgbf000199-resize_0-target.png,250,3.7995,2021.0,2564,231,meters,jsons/v1_VE250_randls_52_rotated.json,709771,934904,22,Man
79,686124,DepthScenes,duration_manipulation_targetAtFixation,jsons/v1_VE250_randls_52_rotated.json,http://54.235.29.9/FacialAge/BNav_EC2/DepthDuration/v2_depth_duration_MTurk/v2_DepthDuration_HTML.html#56,56,1366,657,1366,768,8-29-2022,14-32-32,80,depth_duration_stimuli/000493_2014-06-09_21-01-18_260595134347_rgbf000196-resize_3/000493_2014-06-09_21-01-18_260595134347_rgbf000196-resize_3-target.png,250,3.44,52.0,8018,231,meters,jsons/v1_VE250_randls_52_rotated.json,709771,934904,22,Man
80,686124,DepthScenes,duration_manipulation_targetAtFixation,jsons/v1_VE250_randls_52_rotated.json,http://54.235.29.9/FacialAge/BNav_EC2/DepthDuration/v2_depth_duration_MTurk/v2_DepthDuration_HTML.html#56,56,1366,657,1366,768,8-29-2022,14-32-32,81,depth_duration_stimuli/002209_2014-06-28_18-36-10_260595134347_rgbf000051-resize_1/002209_2014-06-28_18-36-10_260595134347_rgbf000051-resize_1-target.png,250,2.057,525.0,6399,253,meters,jsons/v1_VE250_randls_52_rotated.json,709771,934904,22,Man
81,686124,DepthScenes,duration_manipulation_targetAtFixation,jsons/v1_VE250_randls_52_rotated.json,http://54.235.29.9/FacialAge/BNav_EC2/DepthDuration/v2_depth_duration_MTurk/v2_DepthDuration_HTML.html#56,56,1366,657,1366,768,8-29-2022,14-32-32,82,depth_duration_stimuli/002763_2014-06-22_19-13-10_094959634447_rgbf000075-resize_4/002763_2014-06-22_19-13-10_094959634447_rgbf000075-resize_4-target.png,250,1.68375,53.0,1953,248,meters,jsons/v1_VE250_randls_52_rotated.json,709771,934904,22,Man
82,686124,DepthScenes,duration_manipulation_targetAtFixation,jsons/v1_VE250_randls_52_rotated.json,http://54.235.29.9/FacialAge/BNav_EC2/DepthDuration/v2_depth_duration_MTurk/v2_DepthDuration_HTML.html#56,56,1366,657,1366,768,8-29-2022,14-32-32,83,depth_duration_stimuli/003490_2014-05-21_15-50-11_094959634447_rgbf000101-resize_3/003490_2014-05-21_15-50-11_094959634447_rgbf000101-resize_3-target.png,250,3.6445,535.0,2025,238,meters,jsons/v1_VE250_randls_52_rotated.json,709771,934904,22,Man
83,686124,DepthScenes,duration_manipulation_targetAtFixation,jsons/v1_VE250_randls_52_rotated.json,http://54.235.29.9/FacialAge/BNav_EC2/DepthDuration/v2_depth_duration_MTurk/v2_DepthDuration_HTML.html#56,56,1366,657,1366,768,8-29-2022,14-32-32,84,depth_duration_stimuli/001175_2014-06-17_15-45-55_260595134347_rgbf000129-resize_4/001175_2014-06-17_15-45-55_260595134347_rgbf000129-resize_4-target.png,250,4.255,53.0,2325,248,meters,jsons/v1_VE250_randls_52_rotated.json,709771,934904,22,Man
84,686124,DepthScenes,duration_manipulation_targetAtFixation,jsons/v1_VE250_randls_52_rotated.json,http://54.235.29.9/FacialAge/BNav_EC2/DepthDuration/v2_depth_duration_MTurk/v2_DepthDuration_HTML.html#56,56,1366,657,1366,768,8-29-2022,14-32-32,85,depth_duration_stimuli/003587_2014-05-23_16-48-02_094959634447_rgbf002384-resize_2/003587_2014-05-23_16-48-02_094959634447_rgbf002384-resize_2-target.png,250,1.357,53.0,4564,240,meters,jsons/v1_VE250_randls_52_rotated.json,709771,934904,22,Man
85,686124,DepthScenes,duration_manipulation_targetAtFixation,jsons/v1_VE250_randls_52_rotated.json,http://54.235.29.9/FacialAge/BNav_EC2/DepthDuration/v2_depth_duration_MTurk/v2_DepthDuration_HTML.html#56,56,1366,657,1366,768,8-29-2022,14-32-32,86,depth_duration_stimuli/001167_2014-06-17_15-38-07_260595134347_rgbf000108-resize_0/001167_2014-06-17_15-38-07_260595134347_rgbf000108-resize_0-target.png,250,1.8505,85285.0,6556,248,meters,jsons/v1_VE250_randls_52_rotated.json,709771,934904,22,Man
86,686124,DepthScenes,duration_manipulation_targetAtFixation,jsons/v1_VE250_randls_52_rotated.json,http://54.235.29.9/FacialAge/BNav_EC2/DepthDuration/v2_depth_duration_MTurk/v2_DepthDuration_HTML.html#56,56,1366,657,1366,768,8-29-2022,14-32-32,87,depth_duration_stimuli/001516_2014-06-20_16-25-09_260595134347_rgbf000076-resize_2/001516_2014-06-20_16-25-09_260595134347_rgbf000076-resize_2-target.png,250,1.7445,5325.0,2260,257,meters,jsons/v1_VE250_randls_52_rotated.json,709771,934904,22,Man
87,686124,DepthScenes,duration_manipulation_targetAtFixation,jsons/v1_VE250_randls_52_rotated.json,http://54.235.29.9/FacialAge/BNav_EC2/DepthDuration/v2_depth_duration_MTurk/v2_DepthDuration_HTML.html#56,56,1366,657,1366,768,8-29-2022,14-32-32,88,depth_duration_stimuli/002118_2014-06-25_20-32-08_260595134347_rgbf000078-resize_1/002118_2014-06-25_20-32-08_260595134347_rgbf000078-resize_1-target.png,250,2.6460000000000004,5235.0,2033,248,meters,jsons/v1_VE250_randls_52_rotated.json,709771,934904,22,Man
88,686124,DepthScenes,duration_manipulation_targetAtFixation,jsons/v1_VE250_randls_52_rotated.json,http://54.235.29.9/FacialAge/BNav_EC2/DepthDuration/v2_depth_duration_MTurk/v2_DepthDuration_HTML.html#56,56,1366,657,1366,768,8-29-2022,14-32-32,89,depth_duration_stimuli/000635_2014-06-08_16-38-42_260595134347_rgbf000106-resize_1/000635_2014-06-08_16-38-42_260595134347_rgbf000106-resize_1-target.png,250,2.074,53.0,1870,258,meters,jsons/v1_VE250_randls_52_rotated.json,709771,934904,22,Man
89,686124,DepthScenes,duration_manipulation_targetAtFixation,jsons/v1_VE250_randls_52_rotated.json,http://54.235.29.9/FacialAge/BNav_EC2/DepthDuration/v2_depth_duration_MTurk/v2_DepthDuration_HTML.html#56,56,1366,657,1366,768,8-29-2022,14-32-32,90,depth_duration_stimuli/002279_2014-06-28_18-55-32_260595134347_rgbf000040-resize_5/002279_2014-06-28_18-55-32_260595134347_rgbf000040-resize_5-target.png,250,1.5043333333333,535.0,2798,237,meters,jsons/v1_VE250_randls_52_rotated.json,709771,934904,22,Man
90,686124,DepthScenes,duration_manipulation_targetAtFixation,jsons/v1_VE250_randls_52_rotated.json,http://54.235.29.9/FacialAge/BNav_EC2/DepthDuration/v2_depth_duration_MTurk/v2_DepthDuration_HTML.html#56,56,1366,657,1366,768,8-29-2022,14-32-32,91,depth_duration_stimuli/000556_2014-06-09_22-42-56_260595134347_rgbf000214-resize_1/000556_2014-06-09_22-42-56_260595134347_rgbf000214-resize_1-target.png,250,4.8415,525.0,33004,260,meters,jsons/v1_VE250_randls_52_rotated.json,709771,934904,22,Man
91,686124,DepthScenes,duration_manipulation_targetAtFixation,jsons/v1_VE250_randls_52_rotated.json,http://54.235.29.9/FacialAge/BNav_EC2/DepthDuration/v2_depth_duration_MTurk/v2_DepthDuration_HTML.html#56,56,1366,657,1366,768,8-29-2022,14-32-32,92,depth_duration_stimuli/001158_2014-06-17_15-32-16_260595134347_rgbf000138-resize_2/001158_2014-06-17_15-32-16_260595134347_rgbf000138-resize_2-target.png,250,4.5315,5235.0,2149,247,meters,jsons/v1_VE250_randls_52_rotated.json,709771,934904,22,Man
92,686124,DepthScenes,duration_manipulation_targetAtFixation,jsons/v1_VE250_randls_52_rotated.json,http://54.235.29.9/FacialAge/BNav_EC2/DepthDuration/v2_depth_duration_MTurk/v2_DepthDuration_HTML.html#56,56,1366,657,1366,768,8-29-2022,14-32-32,93,depth_duration_stimuli/000549_2014-06-08_22-10-24_260595134347_rgbf000247-resize_3/000549_2014-06-08_22-10-24_260595134347_rgbf000247-resize_3-target.png,250,1.841,525.0,8008,239,meters,jsons/v1_VE250_randls_52_rotated.json,709771,934904,22,Man
93,686124,DepthScenes,duration_manipulation_targetAtFixation,jsons/v1_VE250_randls_52_rotated.json,http://54.235.29.9/FacialAge/BNav_EC2/DepthDuration/v2_depth_duration_MTurk/v2_DepthDuration_HTML.html#56,56,1366,657,1366,768,8-29-2022,14-32-32,94,depth_duration_stimuli/001055_2014-06-08_18-45-35_260595134347_rgbf000111-resize_4/001055_2014-06-08_18-45-35_260595134347_rgbf000111-resize_4-target.png,250,2.4290000000000003,5252.0,2087,246,meters,jsons/v1_VE250_randls_52_rotated.json,709771,934904,22,Man
94,686124,DepthScenes,duration_manipulation_targetAtFixation,jsons/v1_VE250_randls_52_rotated.json,http://54.235.29.9/FacialAge/BNav_EC2/DepthDuration/v2_depth_duration_MTurk/v2_DepthDuration_HTML.html#56,56,1366,657,1366,768,8-29-2022,14-32-32,95,depth_duration_stimuli/000483_2014-06-09_20-41-45_260595134347_rgbf000116-resize_4/000483_2014-06-09_20-41-45_260595134347_rgbf000116-resize_4-target.png,250,1.337,52.0,2055,245,meters,jsons/v1_VE250_randls_52_rotated.json,709771,934904,22,Man
95,686124,DepthScenes,duration_manipulation_targetAtFixation,jsons/v1_VE250_randls_52_rotated.json,http://54.235.29.9/FacialAge/BNav_EC2/DepthDuration/v2_depth_duration_MTurk/v2_DepthDuration_HTML.html#56,56,1366,657,1366,768,8-29-2022,14-32-32,96,depth_duration_stimuli/000469_2014-06-09_19-42-10_260595134347_rgbf000081-resize_1/000469_2014-06-09_19-42-10_260595134347_rgbf000081-resize_1-target.png,250,1.652,52.0,2262,259,meters,jsons/v1_VE250_randls_52_rotated.json,709771,934904,22,Man
96,686124,DepthScenes,duration_manipulation_targetAtFixation,jsons/v1_VE250_randls_52_rotated.json,http://54.235.29.9/FacialAge/BNav_EC2/DepthDuration/v2_depth_duration_MTurk/v2_DepthDuration_HTML.html#56,56,1366,657,1366,768,8-29-2022,14-32-32,97,depth_duration_stimuli/003079_2014-06-15_15-18-20_094959634447_rgbf000152-resize_8/003079_2014-06-15_15-18-20_094959634447_rgbf000152-resize_8-target.png,250,2.8775,52.0,1789,239,meters,jsons/v1_VE250_randls_52_rotated.json,709771,934904,22,Man
97,686124,DepthScenes,duration_manipulation_targetAtFixation,jsons/v1_VE250_randls_52_rotated.json,http://54.235.29.9/FacialAge/BNav_EC2/DepthDuration/v2_depth_duration_MTurk/v2_DepthDuration_HTML.html#56,56,1366,657,1366,768,8-29-2022,14-32-32,98,depth_duration_stimuli/000506_2014-06-08_23-21-00_260595134347_rgbf000070-resize_7/000506_2014-06-08_23-21-00_260595134347_rgbf000070-resize_7-target.png,250,4.0585,52.0,1768,250,meters,jsons/v1_VE250_randls_52_rotated.json,709771,934904,22,Man
98,686124,DepthScenes,duration_manipulation_targetAtFixation,jsons/v1_VE250_randls_52_rotated.json,http://54.235.29.9/FacialAge/BNav_EC2/DepthDuration/v2_depth_duration_MTurk/v2_DepthDuration_HTML.html#56,56,1366,657,1366,768,8-29-2022,14-32-32,99,depth_duration_stimuli/001222_2014-06-17_16-24-06_260595134347_rgbf000073-resize_0/001222_2014-06-17_16-24-06_260595134347_rgbf000073-resize-original.jpg,250,1.4385,85.0,2092,258,meters,jsons/v1_VE250_randls_52_rotated.json,709771,934904,22,Man
99,686124,DepthScenes,duration_manipulation_targetAtFixation,jsons/v1_VE250_randls_52_rotated.json,http://54.235.29.9/FacialAge/BNav_EC2/DepthDuration/v2_depth_duration_MTurk/v2_DepthDuration_HTML.html#56,56,1366,657,1366,768,8-29-2022,14-32-32,100,depth_duration_stimuli/002875_2014-06-01_15-19-00_094959634447_rgbf000151-resize_1/002875_2014-06-01_15-19-00_094959634447_rgbf000151-resize_1-target.png,250,1.9675,85.0,11615,265,meters,jsons/v1_VE250_randls_52_rotated.json,709771,934904,22,Man
100,686124,DepthScenes,duration_manipulation_targetAtFixation,jsons/v1_VE250_randls_52_rotated.json,http://54.235.29.9/FacialAge/BNav_EC2/DepthDuration/v2_depth_duration_MTurk/v2_DepthDuration_HTML.html#56,56,1366,657,1366,768,8-29-2022,14-32-32,101,depth_duration_stimuli/001011_2014-06-08_23-18-54_260595134347_rgbf000044-resize_4/001011_2014-06-08_23-18-54_260595134347_rgbf000044-resize_4-target.png,250,2.4730000000000003,85.0,1790,242,meters,jsons/v1_VE250_randls_52_rotated.json,709771,934904,22,Man
101,686124,DepthScenes,duration_manipulation_targetAtFixation,jsons/v1_VE250_randls_52_rotated.json,http://54.235.29.9/FacialAge/BNav_EC2/DepthDuration/v2_depth_duration_MTurk/v2_DepthDuration_HTML.html#56,56,1366,657,1366,768,8-29-2022,14-32-32,102,depth_duration_stimuli/002637_2014-06-24_14-51-13_094959634447_rgbf000066-resize_4/002637_2014-06-24_14-51-13_094959634447_rgbf000066-resize_4-target.png,250,1.9955,85.0,1759,231,meters,jsons/v1_VE250_randls_52_rotated.json,709771,934904,22,Man
102,686124,DepthScenes,duration_manipulation_targetAtFixation,jsons/v1_VE250_randls_52_rotated.json,http://54.235.29.9/FacialAge/BNav_EC2/DepthDuration/v2_depth_duration_MTurk/v2_DepthDuration_HTML.html#56,56,1366,657,1366,768,8-29-2022,14-32-32,103,depth_duration_stimuli/003534_2014-05-22_15-06-10_094959634447_rgbf000102-resize_4/003534_2014-05-22_15-06-10_094959634447_rgbf000102-resize_4-target.png,250,1.426,85.0,2779,239,meters,jsons/v1_VE250_randls_52_rotated.json,709771,934904,22,Man
103,686124,DepthScenes,duration_manipulation_targetAtFixation,jsons/v1_VE250_randls_52_rotated.json,http://54.235.29.9/FacialAge/BNav_EC2/DepthDuration/v2_depth_duration_MTurk/v2_DepthDuration_HTML.html#56,56,1366,657,1366,768,8-29-2022,14-32-32,104,depth_duration_stimuli/000502_2014-06-08_23-02-32_260595134347_rgbf000063-resize_4/000502_2014-06-08_23-02-32_260595134347_rgbf000063-resize_4-target.png,250,2.431,858.0,2082,237,meters,jsons/v1_VE250_randls_52_rotated.json,709771,934904,22,Man
104,686124,DepthScenes,duration_manipulation_targetAtFixation,jsons/v1_VE250_randls_52_rotated.json,http://54.235.29.9/FacialAge/BNav_EC2/DepthDuration/v2_depth_duration_MTurk/v2_DepthDuration_HTML.html#56,56,1366,657,1366,768,8-29-2022,14-32-32,105,depth_duration_stimuli/001199_2014-06-17_16-03-48_260595134347_rgbf000077-resize_0/001199_2014-06-17_16-03-48_260595134347_rgbf000077-resize_0-target.png,250,3.4375,85.0,1804,258,meters,jsons/v1_VE250_randls_52_rotated.json,709771,934904,22,Man
105,686124,DepthScenes,duration_manipulation_targetAtFixation,jsons/v1_VE250_randls_52_rotated.json,http://54.235.29.9/FacialAge/BNav_EC2/DepthDuration/v2_depth_duration_MTurk/v2_DepthDuration_HTML.html#56,56,1366,657,1366,768,8-29-2022,14-32-32,106,depth_duration_stimuli/003083_2014-06-15_15-21-03_094959634447_rgbf000063-resize_1/003083_2014-06-15_15-21-03_094959634447_rgbf000063-resize_1-target.png,250,4.1405,85.0,1775,249,meters,jsons/v1_VE250_randls_52_rotated.json,709771,934904,22,Man
106,686124,DepthScenes,duration_manipulation_targetAtFixation,jsons/v1_VE250_randls_52_rotated.json,http://54.235.29.9/FacialAge/BNav_EC2/DepthDuration/v2_depth_duration_MTurk/v2_DepthDuration_HTML.html#56,56,1366,657,1366,768,8-29-2022,14-32-32,107,depth_duration_stimuli/000486_2014-06-09_20-47-20_260595134347_rgbf000143-resize_2/000486_2014-06-09_20-47-20_260595134347_rgbf000143-resize_2-target.png,250,4.8325,4245.0,13551,254,meters,jsons/v1_VE250_randls_52_rotated.json,709771,934904,22,Man
107,686124,DepthScenes,duration_manipulation_targetAtFixation,jsons/v1_VE250_randls_52_rotated.json,http://54.235.29.9/FacialAge/BNav_EC2/DepthDuration/v2_depth_duration_MTurk/v2_DepthDuration_HTML.html#56,56,1366,657,1366,768,8-29-2022,14-32-32,108,depth_duration_stimuli/002805_2014-06-22_19-54-03_094959634447_rgbf000079-resize_1/002805_2014-06-22_19-54-03_094959634447_rgbf000079-resize_1-target.png,250,3.1439999999999997,52.0,26832,249,meters,jsons/v1_VE250_randls_52_rotated.json,709771,934904,22,Man
108,686124,DepthScenes,duration_manipulation_targetAtFixation,jsons/v1_VE250_randls_52_rotated.json,http://54.235.29.9/FacialAge/BNav_EC2/DepthDuration/v2_depth_duration_MTurk/v2_DepthDuration_HTML.html#56,56,1366,657,1366,768,8-29-2022,14-32-32,109,depth_duration_stimuli/000906_2014-06-08_13-35-43_260595134347_rgbf000155-resize_1/000906_2014-06-08_13-35-43_260595134347_rgbf000155-resize_1-target.png,250,2.8489999999999998,82.0,1760,251,meters,jsons/v1_VE250_randls_52_rotated.json,709771,934904,22,Man
109,686124,DepthScenes,duration_manipulation_targetAtFixation,jsons/v1_VE250_randls_52_rotated.json,http://54.235.29.9/FacialAge/BNav_EC2/DepthDuration/v2_depth_duration_MTurk/v2_DepthDuration_HTML.html#56,56,1366,657,1366,768,8-29-2022,14-32-32,110,depth_duration_stimuli/003338_2014-05-20_11-01-23_094959634447_rgbf000051-resize_6/003338_2014-05-20_11-01-23_094959634447_rgbf000051-resize_6-target.png,250,1.693,52.0,2009,248,meters,jsons/v1_VE250_randls_52_rotated.json,709771,934904,22,Man
110,686124,DepthScenes,duration_manipulation_targetAtFixation,jsons/v1_VE250_randls_52_rotated.json,http://54.235.29.9/FacialAge/BNav_EC2/DepthDuration/v2_depth_duration_MTurk/v2_DepthDuration_HTML.html#56,56,1366,657,1366,768,8-29-2022,14-32-32,111,depth_duration_stimuli/002509_2014-06-24_13-19-22_094959634447_rgbf000077-resize_0/002509_2014-06-24_13-19-22_094959634447_rgbf000077-resize_0-target.png,250,1.3065,52.0,1878,250,meters,jsons/v1_VE250_randls_52_rotated.json,709771,934904,22,Man
111,686124,DepthScenes,duration_manipulation_targetAtFixation,jsons/v1_VE250_randls_52_rotated.json,http://54.235.29.9/FacialAge/BNav_EC2/DepthDuration/v2_depth_duration_MTurk/v2_DepthDuration_HTML.html#56,56,1366,657,1366,768,8-29-2022,14-32-32,112,depth_duration_stimuli/002199_2014-06-28_18-33-56_260595134347_rgbf000074-resize_0/002199_2014-06-28_18-33-56_260595134347_rgbf000074-resize_0-target.png,250,1.996,858.0,2809,250,meters,jsons/v1_VE250_randls_52_rotated.json,709771,934904,22,Man
112,686124,DepthScenes,duration_manipulation_targetAtFixation,jsons/v1_VE250_randls_52_rotated.json,http://54.235.29.9/FacialAge/BNav_EC2/DepthDuration/v2_depth_duration_MTurk/v2_DepthDuration_HTML.html#56,56,1366,657,1366,768,8-29-2022,14-32-32,113,depth_duration_stimuli/001056_2014-06-08_18-46-44_260595134347_rgbf000068-resize_0/001056_2014-06-08_18-46-44_260595134347_rgbf000068-resize_0-target.png,250,2.6625,852.0,3415,250,meters,jsons/v1_VE250_randls_52_rotated.json,709771,934904,22,Man
113,686124,DepthScenes,duration_manipulation_targetAtFixation,jsons/v1_VE250_randls_52_rotated.json,http://54.235.29.9/FacialAge/BNav_EC2/DepthDuration/v2_depth_duration_MTurk/v2_DepthDuration_HTML.html#56,56,1366,657,1366,768,8-29-2022,14-32-32,114,depth_duration_stimuli/002444_2014-06-28_20-32-08_260595134347_rgbf000027-resize_0/002444_2014-06-28_20-32-08_260595134347_rgbf000027-resize_0-target.png,250,4.388999999999999,852.0,2335,249,meters,jsons/v1_VE250_randls_52_rotated.json,709771,934904,22,Man
114,686124,DepthScenes,duration_manipulation_targetAtFixation,jsons/v1_VE250_randls_52_rotated.json,http://54.235.29.9/FacialAge/BNav_EC2/DepthDuration/v2_depth_duration_MTurk/v2_DepthDuration_HTML.html#56,56,1366,657,1366,768,8-29-2022,14-32-32,115,depth_duration_stimuli/000436_2014-06-09_22-25-11_260595134347_rgbf000137-resize_1/000436_2014-06-09_22-25-11_260595134347_rgbf000137-resize_1-target.png,250,4.0705,863.0,16306,249,meters,jsons/v1_VE250_randls_52_rotated.json,709771,934904,22,Man
115,686124,DepthScenes,duration_manipulation_targetAtFixation,jsons/v1_VE250_randls_52_rotated.json,http://54.235.29.9/FacialAge/BNav_EC2/DepthDuration/v2_depth_duration_MTurk/v2_DepthDuration_HTML.html#56,56,1366,657,1366,768,8-29-2022,14-32-32,116,depth_duration_stimuli/000742_2014-06-08_18-48-09_260595134347_rgbf000164-resize_4/000742_2014-06-08_18-48-09_260595134347_rgbf000164-resize_4-target.png,250,4.632,683.0,1965,249,meters,jsons/v1_VE250_randls_52_rotated.json,709771,934904,22,Man
116,686124,DepthScenes,duration_manipulation_targetAtFixation,jsons/v1_VE250_randls_52_rotated.json,http://54.235.29.9/FacialAge/BNav_EC2/DepthDuration/v2_depth_duration_MTurk/v2_DepthDuration_HTML.html#56,56,1366,657,1366,768,8-29-2022,14-32-32,117,depth_duration_stimuli/001066_2014-06-08_22-03-20_260595134347_rgbf000066-resize_4/001066_2014-06-08_22-03-20_260595134347_rgbf000066-resize_4-target.png,250,4.2330000000000005,65.0,27221,248,meters,jsons/v1_VE250_randls_52_rotated.json,709771,934904,22,Man
117,686124,DepthScenes,duration_manipulation_targetAtFixation,jsons/v1_VE250_randls_52_rotated.json,http://54.235.29.9/FacialAge/BNav_EC2/DepthDuration/v2_depth_duration_MTurk/v2_DepthDuration_HTML.html#56,56,1366,657,1366,768,8-29-2022,14-32-32,118,depth_duration_stimuli/002414_2014-06-28_20-24-58_260595134347_rgbf000067-resize_4/002414_2014-06-28_20-24-58_260595134347_rgbf000067-resize_4-target.png,250,4.363,563.0,2336,248,meters,jsons/v1_VE250_randls_52_rotated.json,709771,934904,22,Man
118,686124,DepthScenes,duration_manipulation_targetAtFixation,jsons/v1_VE250_randls_52_rotated.json,http://54.235.29.9/FacialAge/BNav_EC2/DepthDuration/v2_depth_duration_MTurk/v2_DepthDuration_HTML.html#56,56,1366,657,1366,768,8-29-2022,14-32-32,119,depth_duration_stimuli/000773_2014-06-08_22-24-54_260595134347_rgbf000093-resize_1/000773_2014-06-08_22-24-54_260595134347_rgbf000093-resize_1-target.png,250,4.973,63.0,2140,250,meters,jsons/v1_VE250_randls_52_rotated.json,709771,934904,22,Man
119,686124,DepthScenes,duration_manipulation_targetAtFixation,jsons/v1_VE250_randls_52_rotated.json,http://54.235.29.9/FacialAge/BNav_EC2/DepthDuration/v2_depth_duration_MTurk/v2_DepthDuration_HTML.html#56,56,1366,657,1366,768,8-29-2022,14-32-32,120,depth_duration_stimuli/000787_2014-06-08_22-33-53_260595134347_rgbf000175-resize_1/000787_2014-06-08_22-33-53_260595134347_rgbf000175-resize-original.jpg,250,4.784,63.0,6115,258,meters,jsons/v1_VE250_randls_52_rotated.json,709771,934904,22,Man
120,686124,DepthScenes,duration_manipulation_targetAtFixation,jsons/v1_VE250_randls_52_rotated.json,http://54.235.29.9/FacialAge/BNav_EC2/DepthDuration/v2_depth_duration_MTurk/v2_DepthDuration_HTML.html#56,56,1366,657,1366,768,8-29-2022,14-32-32,121,depth_duration_stimuli/003081_2014-06-15_15-19-16_094959634447_rgbf000150-resize_1/003081_2014-06-15_15-19-16_094959634447_rgbf000150-resize_1-target.png,250,3.9125,63.0,4482,263,meters,jsons/v1_VE250_randls_52_rotated.json,709771,934904,22,Man
121,686124,DepthScenes,duration_manipulation_targetAtFixation,jsons/v1_VE250_randls_52_rotated.json,http://54.235.29.9/FacialAge/BNav_EC2/DepthDuration/v2_depth_duration_MTurk/v2_DepthDuration_HTML.html#56,56,1366,657,1366,768,8-29-2022,14-32-32,122,depth_duration_stimuli/001417_2014-06-19_16-25-36_260595134347_rgbf000115-resize_5/001417_2014-06-19_16-25-36_260595134347_rgbf000115-resize_5-target.png,250,4.6255,252.0,5355,240,meters,jsons/v1_VE250_randls_52_rotated.json,709771,934904,22,Man
122,686124,DepthScenes,duration_manipulation_targetAtFixation,jsons/v1_VE250_randls_52_rotated.json,http://54.235.29.9/FacialAge/BNav_EC2/DepthDuration/v2_depth_duration_MTurk/v2_DepthDuration_HTML.html#56,56,1366,657,1366,768,8-29-2022,14-32-32,123,depth_duration_stimuli/002568_2014-06-24_13-59-21_094959634447_rgbf000062-resize_4/002568_2014-06-24_13-59-21_094959634447_rgbf000062-resize_4-target.png,250,3.015,523.0,2865,246,meters,jsons/v1_VE250_randls_52_rotated.json,709771,934904,22,Man
123,686124,DepthScenes,duration_manipulation_targetAtFixation,jsons/v1_VE250_randls_52_rotated.json,http://54.235.29.9/FacialAge/BNav_EC2/DepthDuration/v2_depth_duration_MTurk/v2_DepthDuration_HTML.html#56,56,1366,657,1366,768,8-29-2022,14-32-32,124,depth_duration_stimuli/003492_2014-05-21_15-50-55_094959634447_rgbf000828-resize_1/003492_2014-05-21_15-50-55_094959634447_rgbf000828-resize_1-target.png,250,4.06875,23.0,2850,248,meters,jsons/v1_VE250_randls_52_rotated.json,709771,934904,22,Man
124,686124,DepthScenes,duration_manipulation_targetAtFixation,jsons/v1_VE250_randls_52_rotated.json,http://54.235.29.9/FacialAge/BNav_EC2/DepthDuration/v2_depth_duration_MTurk/v2_DepthDuration_HTML.html#56,56,1366,657,1366,768,8-29-2022,14-32-32,125,depth_duration_stimuli/002323_2014-06-28_20-01-54_260595134347_rgbf000051-resize_4/002323_2014-06-28_20-01-54_260595134347_rgbf000051-resize_4-target.png,250,3.7310000000000003,23.0,2030,250,meters,jsons/v1_VE250_randls_52_rotated.json,709771,934904,22,Man
125,686124,DepthScenes,duration_manipulation_targetAtFixation,jsons/v1_VE250_randls_52_rotated.json,http://54.235.29.9/FacialAge/BNav_EC2/DepthDuration/v2_depth_duration_MTurk/v2_DepthDuration_HTML.html#56,56,1366,657,1366,768,8-29-2022,14-32-32,126,depth_duration_stimuli/000917_2014-06-09_22-45-29_260595134347_rgbf000149-resize_3/000917_2014-06-09_22-45-29_260595134347_rgbf000149-resize_3-target.png,250,4.1865,23.0,1793,246,meters,jsons/v1_VE250_randls_52_rotated.json,709771,934904,22,Man
126,686124,DepthScenes,duration_manipulation_targetAtFixation,jsons/v1_VE250_randls_52_rotated.json,http://54.235.29.9/FacialAge/BNav_EC2/DepthDuration/v2_depth_duration_MTurk/v2_DepthDuration_HTML.html#56,56,1366,657,1366,768,8-29-2022,14-32-32,127,depth_duration_stimuli/001214_2014-06-17_16-13-55_260595134347_rgbf000111-resize_0/001214_2014-06-17_16-13-55_260595134347_rgbf000111-resize_0-target.png,250,2.6505,7.0,2786,250,meters,jsons/v1_VE250_randls_52_rotated.json,709771,934904,22,Man
127,686124,DepthScenes,duration_manipulation_targetAtFixation,jsons/v1_VE250_randls_52_rotated.json,http://54.235.29.9/FacialAge/BNav_EC2/DepthDuration/v2_depth_duration_MTurk/v2_DepthDuration_HTML.html#56,56,1366,657,1366,768,8-29-2022,14-32-32,128,depth_duration_stimuli/000810_2014-06-08_17-20-01_260595134347_rgbf000105-resize_0/000810_2014-06-08_17-20-01_260595134347_rgbf000105-resize_0-target.png,250,1.4865,7.0,2414,250,meters,jsons/v1_VE250_randls_52_rotated.json,709771,934904,22,Man
128,686124,DepthScenes,duration_manipulation_targetAtFixation,jsons/v1_VE250_randls_52_rotated.json,http://54.235.29.9/FacialAge/BNav_EC2/DepthDuration/v2_depth_duration_MTurk/v2_DepthDuration_HTML.html#56,56,1366,657,1366,768,8-29-2022,14-32-32,129,depth_duration_stimuli/000677_2014-06-08_23-10-32_260595134347_rgbf000158-resize_6/000677_2014-06-08_23-10-32_260595134347_rgbf000158-resize_6-target.png,250,3.556,7852.0,2010,262,meters,jsons/v1_VE250_randls_52_rotated.json,709771,934904,22,Man
129,686124,DepthScenes,duration_manipulation_targetAtFixation,jsons/v1_VE250_randls_52_rotated.json,http://54.235.29.9/FacialAge/BNav_EC2/DepthDuration/v2_depth_duration_MTurk/v2_DepthDuration_HTML.html#56,56,1366,657,1366,768,8-29-2022,14-32-32,130,depth_duration_stimuli/001029_2014-06-08_13-17-57_260595134347_rgbf000065-resize_1/001029_2014-06-08_13-17-57_260595134347_rgbf000065-resize_1-target.png,250,3.0835,87.0,2245,241,meters,jsons/v1_VE250_randls_52_rotated.json,709771,934904,22,Man
130,686124,DepthScenes,duration_manipulation_targetAtFixation,jsons/v1_VE250_randls_52_rotated.json,http://54.235.29.9/FacialAge/BNav_EC2/DepthDuration/v2_depth_duration_MTurk/v2_DepthDuration_HTML.html#56,56,1366,657,1366,768,8-29-2022,14-32-32,131,depth_duration_stimuli/001584_2014-06-20_11-07-43_260595134347_rgbf000002-resize_1/001584_2014-06-20_11-07-43_260595134347_rgbf000002-resize_1-target.png,250,3.53,87.0,1914,249,meters,jsons/v1_VE250_randls_52_rotated.json,709771,934904,22,Man
131,686124,DepthScenes,duration_manipulation_targetAtFixation,jsons/v1_VE250_randls_52_rotated.json,http://54.235.29.9/FacialAge/BNav_EC2/DepthDuration/v2_depth_duration_MTurk/v2_DepthDuration_HTML.html#56,56,1366,657,1366,768,8-29-2022,14-32-32,132,depth_duration_stimuli/003621_2014-05-23_18-06-08_094959634447_rgbf000101-resize_1/003621_2014-05-23_18-06-08_094959634447_rgbf000101-resize_1-target.png,250,3.9835,78.0,6870,249,meters,jsons/v1_VE250_randls_52_rotated.json,709771,934904,22,Man
132,686124,DepthScenes,duration_manipulation_targetAtFixation,jsons/v1_VE250_randls_52_rotated.json,http://54.235.29.9/FacialAge/BNav_EC2/DepthDuration/v2_depth_duration_MTurk/v2_DepthDuration_HTML.html#56,56,1366,657,1366,768,8-29-2022,14-32-32,133,depth_duration_stimuli/002340_2014-06-28_20-05-46_260595134347_rgbf000113-resize_0/002340_2014-06-28_20-05-46_260595134347_rgbf000113-resize_0-target.png,250,2.4735,87.0,2637,250,meters,jsons/v1_VE250_randls_52_rotated.json,709771,934904,22,Man
133,686124,DepthScenes,duration_manipulation_targetAtFixation,jsons/v1_VE250_randls_52_rotated.json,http://54.235.29.9/FacialAge/BNav_EC2/DepthDuration/v2_depth_duration_MTurk/v2_DepthDuration_HTML.html#56,56,1366,657,1366,768,8-29-2022,14-32-32,134,depth_duration_stimuli/001016_2014-06-09_16-16-10_260595134347_rgbf000112-resize_5/001016_2014-06-09_16-16-10_260595134347_rgbf000112-resize_5-target.png,250,1.6565,87.0,1780,246,meters,jsons/v1_VE250_randls_52_rotated.json,709771,934904,22,Man
134,686124,DepthScenes,duration_manipulation_targetAtFixation,jsons/v1_VE250_randls_52_rotated.json,http://54.235.29.9/FacialAge/BNav_EC2/DepthDuration/v2_depth_duration_MTurk/v2_DepthDuration_HTML.html#56,56,1366,657,1366,768,8-29-2022,14-32-32,135,depth_duration_stimuli/000375_2014-06-08_11-17-29_260595134347_rgbf000133-resize_2/000375_2014-06-08_11-17-29_260595134347_rgbf000133-resize-original.jpg,250,4.718,87.0,2276,251,meters,jsons/v1_VE250_randls_52_rotated.json,709771,934904,22,Man
135,686124,DepthScenes,duration_manipulation_targetAtFixation,jsons/v1_VE250_randls_52_rotated.json,http://54.235.29.9/FacialAge/BNav_EC2/DepthDuration/v2_depth_duration_MTurk/v2_DepthDuration_HTML.html#56,56,1366,657,1366,768,8-29-2022,14-32-32,136,depth_duration_stimuli/003048_2014-06-15_13-49-43_094959634447_rgbf000150-resize_1/003048_2014-06-15_13-49-43_094959634447_rgbf000150-resize_1-target.png,250,4.0035,87.0,1833,248,meters,jsons/v1_VE250_randls_52_rotated.json,709771,934904,22,Man
136,686124,DepthScenes,duration_manipulation_targetAtFixation,jsons/v1_VE250_randls_52_rotated.json,http://54.235.29.9/FacialAge/BNav_EC2/DepthDuration/v2_depth_duration_MTurk/v2_DepthDuration_HTML.html#56,56,1366,657,1366,768,8-29-2022,14-32-32,137,depth_duration_stimuli/002043_2014-06-24_20-29-38_260595134347_rgbf000039-resize_4/002043_2014-06-24_20-29-38_260595134347_rgbf000039-resize_4-target.png,250,2.8435,45.0,1864,247,meters,jsons/v1_VE250_randls_52_rotated.json,709771,934904,22,Man
137,686124,DepthScenes,duration_manipulation_targetAtFixation,jsons/v1_VE250_randls_52_rotated.json,http://54.235.29.9/FacialAge/BNav_EC2/DepthDuration/v2_depth_duration_MTurk/v2_DepthDuration_HTML.html#56,56,1366,657,1366,768,8-29-2022,14-32-32,138,depth_duration_stimuli/003129_2014-05-12_10-48-10_094959634447_rgbf000100-resize_0/003129_2014-05-12_10-48-10_094959634447_rgbf000100-resize_0-target.png,250,4.9305,45.0,2174,236,meters,jsons/v1_VE250_randls_52_rotated.json,709771,934904,22,Man
138,686124,DepthScenes,duration_manipulation_targetAtFixation,jsons/v1_VE250_randls_52_rotated.json,http://54.235.29.9/FacialAge/BNav_EC2/DepthDuration/v2_depth_duration_MTurk/v2_DepthDuration_HTML.html#56,56,1366,657,1366,768,8-29-2022,14-32-32,139,depth_duration_stimuli/000414_2014-06-04_19-49-13_260595134347_rgbf000044-resize_0/000414_2014-06-04_19-49-13_260595134347_rgbf000044-resize_0-target.png,250,4.329,78.0,3676,237,meters,jsons/v1_VE250_randls_52_rotated.json,709771,934904,22,Man
139,686124,DepthScenes,duration_manipulation_targetAtFixation,jsons/v1_VE250_randls_52_rotated.json,http://54.235.29.9/FacialAge/BNav_EC2/DepthDuration/v2_depth_duration_MTurk/v2_DepthDuration_HTML.html#56,56,1366,657,1366,768,8-29-2022,14-32-32,140,depth_duration_stimuli/000691_2014-06-08_13-08-50_260595134347_rgbf000132-resize_3/000691_2014-06-08_13-08-50_260595134347_rgbf000132-resize_3-target.png,250,4.1530000000000005,45.0,2136,242,meters,jsons/v1_VE250_randls_52_rotated.json,709771,934904,22,Man
140,686124,DepthScenes,duration_manipulation_targetAtFixation,jsons/v1_VE250_randls_52_rotated.json,http://54.235.29.9/FacialAge/BNav_EC2/DepthDuration/v2_depth_duration_MTurk/v2_DepthDuration_HTML.html#56,56,1366,657,1366,768,8-29-2022,14-32-32,141,depth_duration_stimuli/002213_2014-06-28_18-37-58_260595134347_rgbf000055-resize_1/002213_2014-06-28_18-37-58_260595134347_rgbf000055-resize_1-target.png,250,3.62,54.0,1715,252,meters,jsons/v1_VE250_randls_52_rotated.json,709771,934904,22,Man
141,686124,DepthScenes,duration_manipulation_targetAtFixation,jsons/v1_VE250_randls_52_rotated.json,http://54.235.29.9/FacialAge/BNav_EC2/DepthDuration/v2_depth_duration_MTurk/v2_DepthDuration_HTML.html#56,56,1366,657,1366,768,8-29-2022,14-32-32,142,depth_duration_stimuli/000780_2014-06-08_22-28-29_260595134347_rgbf000126-resize_1/000780_2014-06-08_22-28-29_260595134347_rgbf000126-resize_1-target.png,250,3.3825,54.0,1665,263,meters,jsons/v1_VE250_randls_52_rotated.json,709771,934904,22,Man
142,686124,DepthScenes,duration_manipulation_targetAtFixation,jsons/v1_VE250_randls_52_rotated.json,http://54.235.29.9/FacialAge/BNav_EC2/DepthDuration/v2_depth_duration_MTurk/v2_DepthDuration_HTML.html#56,56,1366,657,1366,768,8-29-2022,14-32-32,143,depth_duration_stimuli/002445_2014-06-28_20-32-16_260595134347_rgbf000029-resize_4/002445_2014-06-28_20-32-16_260595134347_rgbf000029-resize_4-target.png,250,2.5315,45.0,2261,249,meters,jsons/v1_VE250_randls_52_rotated.json,709771,934904,22,Man
143,686124,DepthScenes,duration_manipulation_targetAtFixation,jsons/v1_VE250_randls_52_rotated.json,http://54.235.29.9/FacialAge/BNav_EC2/DepthDuration/v2_depth_duration_MTurk/v2_DepthDuration_HTML.html#56,56,1366,657,1366,768,8-29-2022,14-32-32,144,depth_duration_stimuli/001136_2014-06-17_15-19-41_260595134347_rgbf000076-resize_3/001136_2014-06-17_15-19-41_260595134347_rgbf000076-resize_3-target.png,250,1.8655,532.0,20364,248,meters,jsons/v1_VE250_randls_52_rotated.json,709771,934904,22,Man
144,686124,DepthScenes,duration_manipulation_targetAtFixation,jsons/v1_VE250_randls_52_rotated.json,http://54.235.29.9/FacialAge/BNav_EC2/DepthDuration/v2_depth_duration_MTurk/v2_DepthDuration_HTML.html#56,56,1366,657,1366,768,8-29-2022,14-32-32,145,depth_duration_stimuli/001164_2014-06-17_15-35-46_260595134347_rgbf000085-resize_3/001164_2014-06-17_15-35-46_260595134347_rgbf000085-resize_3-target.png,250,2.354,45.0,2287,250,meters,jsons/v1_VE250_randls_52_rotated.json,709771,934904,22,Man
145,686124,DepthScenes,duration_manipulation_targetAtFixation,jsons/v1_VE250_randls_52_rotated.json,http://54.235.29.9/FacialAge/BNav_EC2/DepthDuration/v2_depth_duration_MTurk/v2_DepthDuration_HTML.html#56,56,1366,657,1366,768,8-29-2022,14-32-32,146,depth_duration_stimuli/003228_2014-05-14_13-42-35_094959634447_rgbf000101-resize_1/003228_2014-05-14_13-42-35_094959634447_rgbf000101-resize_1-target.png,250,1.9680000000000002,45.0,20803,242,meters,jsons/v1_VE250_randls_52_rotated.json,709771,934904,22,Man
146,686124,DepthScenes,duration_manipulation_targetAtFixation,jsons/v1_VE250_randls_52_rotated.json,http://54.235.29.9/FacialAge/BNav_EC2/DepthDuration/v2_depth_duration_MTurk/v2_DepthDuration_HTML.html#56,56,1366,657,1366,768,8-29-2022,14-32-32,147,depth_duration_stimuli/002600_2014-06-24_14-27-04_094959634447_rgbf000074-resize_2/002600_2014-06-24_14-27-04_094959634447_rgbf000074-resize_2-target.png,250,2.7575,54.0,2105,251,meters,jsons/v1_VE250_randls_52_rotated.json,709771,934904,22,Man
147,686124,DepthScenes,duration_manipulation_targetAtFixation,jsons/v1_VE250_randls_52_rotated.json,http://54.235.29.9/FacialAge/BNav_EC2/DepthDuration/v2_depth_duration_MTurk/v2_DepthDuration_HTML.html#56,56,1366,657,1366,768,8-29-2022,14-32-32,148,depth_duration_stimuli/002660_2014-06-13_15-44-18_094959634447_rgbf001878-resize_2/002660_2014-06-13_15-44-18_094959634447_rgbf001878-resize_2-target.png,250,3.576,56.0,2369,249,meters,jsons/v1_VE250_randls_52_rotated.json,709771,934904,22,Man
148,686124,DepthScenes,duration_manipulation_targetAtFixation,jsons/v1_VE250_randls_52_rotated.json,http://54.235.29.9/FacialAge/BNav_EC2/DepthDuration/v2_depth_duration_MTurk/v2_DepthDuration_HTML.html#56,56,1366,657,1366,768,8-29-2022,14-32-32,149,depth_duration_stimuli/002153_2014-06-25_21-27-18_260595134347_rgbf000038-resize_5/002153_2014-06-25_21-27-18_260595134347_rgbf000038-resize_5-target.png,250,2.505,56.0,1718,237,meters,jsons/v1_VE250_randls_52_rotated.json,709771,934904,22,Man
149,686124,DepthScenes,duration_manipulation_targetAtFixation,jsons/v1_VE250_randls_52_rotated.json,http://54.235.29.9/FacialAge/BNav_EC2/DepthDuration/v2_depth_duration_MTurk/v2_DepthDuration_HTML.html#56,56,1366,657,1366,768,8-29-2022,14-32-32,150,depth_duration_stimuli/001235_2014-06-17_16-37-36_260595134347_rgbf000084-resize_4/001235_2014-06-17_16-37-36_260595134347_rgbf000084-resize_4-target.png,250,3.6605,56.0,2362,239,meters,jsons/v1_VE250_randls_52_rotated.json,709771,934904,22,Man
150,686124,DepthScenes,duration_manipulation_targetAtFixation,jsons/v1_VE250_randls_52_rotated.json,http://54.235.29.9/FacialAge/BNav_EC2/DepthDuration/v2_depth_duration_MTurk/v2_DepthDuration_HTML.html#56,56,1366,657,1366,768,8-29-2022,14-32-32,151,depth_duration_stimuli/000788_2014-06-08_22-34-36_260595134347_rgbf000131-resize_1/000788_2014-06-08_22-34-36_260595134347_rgbf000131-resize_1-target.png,250,3.359,524.0,2263,244,meters,jsons/v1_VE250_randls_52_rotated.json,709771,934904,22,Man
151,686124,DepthScenes,duration_manipulation_targetAtFixation,jsons/v1_VE250_randls_52_rotated.json,http://54.235.29.9/FacialAge/BNav_EC2/DepthDuration/v2_depth_duration_MTurk/v2_DepthDuration_HTML.html#56,56,1366,657,1366,768,8-29-2022,14-32-32,152,depth_duration_stimuli/000569_2014-06-09_22-51-47_260595134347_rgbf000141-resize_3/000569_2014-06-09_22-51-47_260595134347_rgbf000141-resize-original.jpg,250,4.512,78.0,2648,264,meters,jsons/v1_VE250_randls_52_rotated.json,709771,934904,22,Man
152,686124,DepthScenes,duration_manipulation_targetAtFixation,jsons/v1_VE250_randls_52_rotated.json,http://54.235.29.9/FacialAge/BNav_EC2/DepthDuration/v2_depth_duration_MTurk/v2_DepthDuration_HTML.html#56,56,1366,657,1366,768,8-29-2022,14-32-32,153,depth_duration_stimuli/001617_2014-06-20_11-35-32_260595134347_rgbf000066-resize_1/001617_2014-06-20_11-35-32_260595134347_rgbf000066-resize_1-target.png,250,3.7910000000000004,87.0,1941,251,meters,jsons/v1_VE250_randls_52_rotated.json,709771,934904,22,Man
153,686124,DepthScenes,duration_manipulation_targetAtFixation,jsons/v1_VE250_randls_52_rotated.json,http://54.235.29.9/FacialAge/BNav_EC2/DepthDuration/v2_depth_duration_MTurk/v2_DepthDuration_HTML.html#56,56,1366,657,1366,768,8-29-2022,14-32-32,154,depth_duration_stimuli/001806_2014-06-26_20-50-20_260595134347_rgbf000091-resize_1/001806_2014-06-26_20-50-20_260595134347_rgbf000091-resize_1-target.png,250,2.7305,78.0,2443,239,meters,jsons/v1_VE250_randls_52_rotated.json,709771,934904,22,Man
154,686124,DepthScenes,duration_manipulation_targetAtFixation,jsons/v1_VE250_randls_52_rotated.json,http://54.235.29.9/FacialAge/BNav_EC2/DepthDuration/v2_depth_duration_MTurk/v2_DepthDuration_HTML.html#56,56,1366,657,1366,768,8-29-2022,14-32-32,155,depth_duration_stimuli/002953_2014-06-08_17-32-18_094959634447_rgbf000059-resize_5/002953_2014-06-08_17-32-18_094959634447_rgbf000059-resize_5-target.png,250,1.551,78.0,1860,249,meters,jsons/v1_VE250_randls_52_rotated.json,709771,934904,22,Man
155,686124,DepthScenes,duration_manipulation_targetAtFixation,jsons/v1_VE250_randls_52_rotated.json,http://54.235.29.9/FacialAge/BNav_EC2/DepthDuration/v2_depth_duration_MTurk/v2_DepthDuration_HTML.html#56,56,1366,657,1366,768,8-29-2022,14-32-32,156,depth_duration_stimuli/000878_2014-06-08_22-52-45_260595134347_rgbf000045-resize_2/000878_2014-06-08_22-52-45_260595134347_rgbf000045-resize_2-target.png,250,2.092,78.0,5836,250,meters,jsons/v1_VE250_randls_52_rotated.json,709771,934904,22,Man
156,686124,DepthScenes,duration_manipulation_targetAtFixation,jsons/v1_VE250_randls_52_rotated.json,http://54.235.29.9/FacialAge/BNav_EC2/DepthDuration/v2_depth_duration_MTurk/v2_DepthDuration_HTML.html#56,56,1366,657,1366,768,8-29-2022,14-32-32,157,depth_duration_stimuli/000854_2014-06-09_19-43-13_260595134347_rgbf000066-resize_0/000854_2014-06-09_19-43-13_260595134347_rgbf000066-resize_0-target.png,250,3.068,45.0,1650,250,meters,jsons/v1_VE250_randls_52_rotated.json,709771,934904,22,Man
157,686124,DepthScenes,duration_manipulation_targetAtFixation,jsons/v1_VE250_randls_52_rotated.json,http://54.235.29.9/FacialAge/BNav_EC2/DepthDuration/v2_depth_duration_MTurk/v2_DepthDuration_HTML.html#56,56,1366,657,1366,768,8-29-2022,14-32-32,158,depth_duration_stimuli/000758_2014-06-08_22-05-08_260595134347_rgbf000085-resize_0/000758_2014-06-08_22-05-08_260595134347_rgbf000085-resize_0-target.png,250,3.3810000000000002,78.0,1532,230,meters,jsons/v1_VE250_randls_52_rotated.json,709771,934904,22,Man
158,686124,DepthScenes,duration_manipulation_targetAtFixation,jsons/v1_VE250_randls_52_rotated.json,http://54.235.29.9/FacialAge/BNav_EC2/DepthDuration/v2_depth_duration_MTurk/v2_DepthDuration_HTML.html#56,56,1366,657,1366,768,8-29-2022,14-32-32,159,depth_duration_stimuli/002750_2014-06-22_19-08-03_094959634447_rgbf000094-resize_4/002750_2014-06-22_19-08-03_094959634447_rgbf000094-resize_4-target.png,250,2.354,12.0,2259,260,meters,jsons/v1_VE250_randls_52_rotated.json,709771,934904,22,Man
159,686124,DepthScenes,duration_manipulation_targetAtFixation,jsons/v1_VE250_randls_52_rotated.json,http://54.235.29.9/FacialAge/BNav_EC2/DepthDuration/v2_depth_duration_MTurk/v2_DepthDuration_HTML.html#56,56,1366,657,1366,768,8-29-2022,14-32-32,160,depth_duration_stimuli/002549_2014-06-24_13-41-39_094959634447_rgbf000022-resize_3/002549_2014-06-24_13-41-39_094959634447_rgbf000022-resize_3-target.png,250,1.476,45.0,2270,250,meters,jsons/v1_VE250_randls_52_rotated.json,709771,934904,22,Man
160,686124,DepthScenes,duration_manipulation_targetAtFixation,jsons/v1_VE250_randls_52_rotated.json,http://54.235.29.9/FacialAge/BNav_EC2/DepthDuration/v2_depth_duration_MTurk/v2_DepthDuration_HTML.html#56,56,1366,657,1366,768,8-29-2022,14-32-32,161,depth_duration_stimuli/000457_2014-06-08_16-52-43_260595134347_rgbf000199-resize_1/000457_2014-06-08_16-52-43_260595134347_rgbf000199-resize_1-target.png,250,3.6489999999999996,86.0,3173,240,meters,jsons/v1_VE250_randls_52_rotated.json,709771,934904,22,Man
161,686124,DepthScenes,duration_manipulation_targetAtFixation,jsons/v1_VE250_randls_52_rotated.json,http://54.235.29.9/FacialAge/BNav_EC2/DepthDuration/v2_depth_duration_MTurk/v2_DepthDuration_HTML.html#56,56,1366,657,1366,768,8-29-2022,14-32-32,162,depth_duration_stimuli/000929_2014-06-09_16-33-19_260595134347_rgbf000139-resize_0/000929_2014-06-09_16-33-19_260595134347_rgbf000139-resize_0-target.png,250,2.8680000000000003,86.0,1989,234,meters,jsons/v1_VE250_randls_52_rotated.json,709771,934904,22,Man
162,686124,DepthScenes,duration_manipulation_targetAtFixation,jsons/v1_VE250_randls_52_rotated.json,http://54.235.29.9/FacialAge/BNav_EC2/DepthDuration/v2_depth_duration_MTurk/v2_DepthDuration_HTML.html#56,56,1366,657,1366,768,8-29-2022,14-32-32,163,depth_duration_stimuli/001100_2014-06-15_17-46-26_260595134347_rgbf000225-resize_2/001100_2014-06-15_17-46-26_260595134347_rgbf000225-resize_2-target.png,250,2.24,75.0,2035,247,meters,jsons/v1_VE250_randls_52_rotated.json,709771,934904,22,Man
163,686124,DepthScenes,duration_manipulation_targetAtFixation,jsons/v1_VE250_randls_52_rotated.json,http://54.235.29.9/FacialAge/BNav_EC2/DepthDuration/v2_depth_duration_MTurk/v2_DepthDuration_HTML.html#56,56,1366,657,1366,768,8-29-2022,14-32-32,164,depth_duration_stimuli/002784_2014-06-22_19-26-30_094959634447_rgbf000083-resize_3/002784_2014-06-22_19-26-30_094959634447_rgbf000083-resize_3-target.png,250,1.8046666666667,75.0,2435,259,meters,jsons/v1_VE250_randls_52_rotated.json,709771,934904,22,Man
