,subjID,experimentName,versionName,sequenceName,url,selected_row,windowWidth,windowHeight,screenWidth,screenHeight,startDate,startTime,trial,stimulus,duration,actual_depth,depth_estimate,trial_RT,log_sceneDuration,unitSelection,seq_filepath,experimentTime,totalTime,age,gender
0,686833,DepthScenes,duration_manipulation_targetAtFixation,jsons/v1_VE250_randls_53.json,http://54.235.29.9/FacialAge/BNav_EC2/DepthDuration/v2_depth_duration_MTurk/v2_DepthDuration_HTML.html#121,121,1920,1080,1920,1080,8-29-2022,13-48-2,1,depth_duration_stimuli/001244_2014-06-17_16-47-45_260595134347_rgbf000030-resize_4/001244_2014-06-17_16-47-45_260595134347_rgbf000030-resize_4-target.png,250,2.0425,3,3245,248,feet,jsons/v1_VE250_randls_53.json,641438,898598,40,Man
1,686833,DepthScenes,duration_manipulation_targetAtFixation,jsons/v1_VE250_randls_53.json,http://54.235.29.9/FacialAge/BNav_EC2/DepthDuration/v2_depth_duration_MTurk/v2_DepthDuration_HTML.html#121,121,1920,1080,1920,1080,8-29-2022,13-48-2,2,depth_duration_stimuli/003495_2014-05-21_16-01-51_094959634447_rgbf000100-resize_3/003495_2014-05-21_16-01-51_094959634447_rgbf000100-resize_3-target.png,250,1.6255,2,2986,250,feet,jsons/v1_VE250_randls_53.json,641438,898598,40,Man
2,686833,DepthScenes,duration_manipulation_targetAtFixation,jsons/v1_VE250_randls_53.json,http://54.235.29.9/FacialAge/BNav_EC2/DepthDuration/v2_depth_duration_MTurk/v2_DepthDuration_HTML.html#121,121,1920,1080,1920,1080,8-29-2022,13-48-2,3,depth_duration_stimuli/000878_2014-06-08_22-52-45_260595134347_rgbf000045-resize_2/000878_2014-06-08_22-52-45_260595134347_rgbf000045-resize_2-target.png,250,2.092,4,3382,249,feet,jsons/v1_VE250_randls_53.json,641438,898598,40,Man
3,686833,DepthScenes,duration_manipulation_targetAtFixation,jsons/v1_VE250_randls_53.json,http://54.235.29.9/FacialAge/BNav_EC2/DepthDuration/v2_depth_duration_MTurk/v2_DepthDuration_HTML.html#121,121,1920,1080,1920,1080,8-29-2022,13-48-2,4,depth_duration_stimuli/002953_2014-06-08_17-32-18_094959634447_rgbf000059-resize_5/002953_2014-06-08_17-32-18_094959634447_rgbf000059-resize_5-target.png,250,1.551,2,5368,249,feet,jsons/v1_VE250_randls_53.json,641438,898598,40,Man
4,686833,DepthScenes,duration_manipulation_targetAtFixation,jsons/v1_VE250_randls_53.json,http://54.235.29.9/FacialAge/BNav_EC2/DepthDuration/v2_depth_duration_MTurk/v2_DepthDuration_HTML.html#121,121,1920,1080,1920,1080,8-29-2022,13-48-2,5,depth_duration_stimuli/000692_2014-06-08_13-09-42_260595134347_rgbf000199-resize_2/000692_2014-06-08_13-09-42_260595134347_rgbf000199-resize_2-target.png,250,3.661,20,3143,249,feet,jsons/v1_VE250_randls_53.json,641438,898598,40,Man
5,686833,DepthScenes,duration_manipulation_targetAtFixation,jsons/v1_VE250_randls_53.json,http://54.235.29.9/FacialAge/BNav_EC2/DepthDuration/v2_depth_duration_MTurk/v2_DepthDuration_HTML.html#121,121,1920,1080,1920,1080,8-29-2022,13-48-2,6,depth_duration_stimuli/001094_2014-06-15_17-36-00_260595134347_rgbf000205-resize_0/001094_2014-06-15_17-36-00_260595134347_rgbf000205-resize_0-target.png,250,4.2175,10,3389,250,feet,jsons/v1_VE250_randls_53.json,641438,898598,40,Man
6,686833,DepthScenes,duration_manipulation_targetAtFixation,jsons/v1_VE250_randls_53.json,http://54.235.29.9/FacialAge/BNav_EC2/DepthDuration/v2_depth_duration_MTurk/v2_DepthDuration_HTML.html#121,121,1920,1080,1920,1080,8-29-2022,13-48-2,7,depth_duration_stimuli/002039_2014-06-24_20-22-38_260595134347_rgbf000084-resize_1/002039_2014-06-24_20-22-38_260595134347_rgbf000084-resize_1-target.png,250,4.408,8,2894,249,feet,jsons/v1_VE250_randls_53.json,641438,898598,40,Man
7,686833,DepthScenes,duration_manipulation_targetAtFixation,jsons/v1_VE250_randls_53.json,http://54.235.29.9/FacialAge/BNav_EC2/DepthDuration/v2_depth_duration_MTurk/v2_DepthDuration_HTML.html#121,121,1920,1080,1920,1080,8-29-2022,13-48-2,8,depth_duration_stimuli/002103_2014-06-25_20-00-40_260595134347_rgbf000049-resize_0/002103_2014-06-25_20-00-40_260595134347_rgbf000049-resize_0-target.png,250,4.105,7,3235,249,feet,jsons/v1_VE250_randls_53.json,641438,898598,40,Man
8,686833,DepthScenes,duration_manipulation_targetAtFixation,jsons/v1_VE250_randls_53.json,http://54.235.29.9/FacialAge/BNav_EC2/DepthDuration/v2_depth_duration_MTurk/v2_DepthDuration_HTML.html#121,121,1920,1080,1920,1080,8-29-2022,13-48-2,9,depth_duration_stimuli/000929_2014-06-09_16-33-19_260595134347_rgbf000139-resize_0/000929_2014-06-09_16-33-19_260595134347_rgbf000139-resize_0-target.png,250,2.8680000000000003,6,3326,249,feet,jsons/v1_VE250_randls_53.json,641438,898598,40,Man
9,686833,DepthScenes,duration_manipulation_targetAtFixation,jsons/v1_VE250_randls_53.json,http://54.235.29.9/FacialAge/BNav_EC2/DepthDuration/v2_depth_duration_MTurk/v2_DepthDuration_HTML.html#121,121,1920,1080,1920,1080,8-29-2022,13-48-2,10,depth_duration_stimuli/000457_2014-06-08_16-52-43_260595134347_rgbf000199-resize_1/000457_2014-06-08_16-52-43_260595134347_rgbf000199-resize_1-target.png,250,3.6489999999999996,5,3275,249,feet,jsons/v1_VE250_randls_53.json,641438,898598,40,Man
10,686833,DepthScenes,duration_manipulation_targetAtFixation,jsons/v1_VE250_randls_53.json,http://54.235.29.9/FacialAge/BNav_EC2/DepthDuration/v2_depth_duration_MTurk/v2_DepthDuration_HTML.html#121,121,1920,1080,1920,1080,8-29-2022,13-48-2,11,depth_duration_stimuli/002213_2014-06-28_18-37-58_260595134347_rgbf000055-resize_1/002213_2014-06-28_18-37-58_260595134347_rgbf000055-resize_1-target.png,250,3.62,9,2904,249,feet,jsons/v1_VE250_randls_53.json,641438,898598,40,Man
11,686833,DepthScenes,duration_manipulation_targetAtFixation,jsons/v1_VE250_randls_53.json,http://54.235.29.9/FacialAge/BNav_EC2/DepthDuration/v2_depth_duration_MTurk/v2_DepthDuration_HTML.html#121,121,1920,1080,1920,1080,8-29-2022,13-48-2,12,depth_duration_stimuli/000691_2014-06-08_13-08-50_260595134347_rgbf000132-resize_3/000691_2014-06-08_13-08-50_260595134347_rgbf000132-resize_3-target.png,250,4.1530000000000005,10,3050,249,feet,jsons/v1_VE250_randls_53.json,641438,898598,40,Man
12,686833,DepthScenes,duration_manipulation_targetAtFixation,jsons/v1_VE250_randls_53.json,http://54.235.29.9/FacialAge/BNav_EC2/DepthDuration/v2_depth_duration_MTurk/v2_DepthDuration_HTML.html#121,121,1920,1080,1920,1080,8-29-2022,13-48-2,13,depth_duration_stimuli/000569_2014-06-09_22-51-47_260595134347_rgbf000141-resize_3/000569_2014-06-09_22-51-47_260595134347_rgbf000141-resize-original.jpg,250,4.512,0,2675,249,feet,jsons/v1_VE250_randls_53.json,641438,898598,40,Man
13,686833,DepthScenes,duration_manipulation_targetAtFixation,jsons/v1_VE250_randls_53.json,http://54.235.29.9/FacialAge/BNav_EC2/DepthDuration/v2_depth_duration_MTurk/v2_DepthDuration_HTML.html#121,121,1920,1080,1920,1080,8-29-2022,13-48-2,14,depth_duration_stimuli/001133_2014-06-17_14-49-16_260595134347_rgbf000100-resize_0/001133_2014-06-17_14-49-16_260595134347_rgbf000100-resize_0-target.png,250,4.2115,10,4284,250,feet,jsons/v1_VE250_randls_53.json,641438,898598,40,Man
14,686833,DepthScenes,duration_manipulation_targetAtFixation,jsons/v1_VE250_randls_53.json,http://54.235.29.9/FacialAge/BNav_EC2/DepthDuration/v2_depth_duration_MTurk/v2_DepthDuration_HTML.html#121,121,1920,1080,1920,1080,8-29-2022,13-48-2,15,depth_duration_stimuli/001132_2014-06-17_14-48-54_260595134347_rgbf000100-resize_2/001132_2014-06-17_14-48-54_260595134347_rgbf000100-resize_2-target.png,250,3.753,8,3486,247,feet,jsons/v1_VE250_randls_53.json,641438,898598,40,Man
15,686833,DepthScenes,duration_manipulation_targetAtFixation,jsons/v1_VE250_randls_53.json,http://54.235.29.9/FacialAge/BNav_EC2/DepthDuration/v2_depth_duration_MTurk/v2_DepthDuration_HTML.html#121,121,1920,1080,1920,1080,8-29-2022,13-48-2,16,depth_duration_stimuli/001011_2014-06-08_23-18-54_260595134347_rgbf000044-resize_4/001011_2014-06-08_23-18-54_260595134347_rgbf000044-resize_4-target.png,250,2.4730000000000003,4,3210,249,feet,jsons/v1_VE250_randls_53.json,641438,898598,40,Man
16,686833,DepthScenes,duration_manipulation_targetAtFixation,jsons/v1_VE250_randls_53.json,http://54.235.29.9/FacialAge/BNav_EC2/DepthDuration/v2_depth_duration_MTurk/v2_DepthDuration_HTML.html#121,121,1920,1080,1920,1080,8-29-2022,13-48-2,17,depth_duration_stimuli/002875_2014-06-01_15-19-00_094959634447_rgbf000151-resize_1/002875_2014-06-01_15-19-00_094959634447_rgbf000151-resize_1-target.png,250,1.9675,3,3062,249,feet,jsons/v1_VE250_randls_53.json,641438,898598,40,Man
17,686833,DepthScenes,duration_manipulation_targetAtFixation,jsons/v1_VE250_randls_53.json,http://54.235.29.9/FacialAge/BNav_EC2/DepthDuration/v2_depth_duration_MTurk/v2_DepthDuration_HTML.html#121,121,1920,1080,1920,1080,8-29-2022,13-48-2,18,depth_duration_stimuli/001110_2014-06-15_17-25-28_260595134347_rgbf000150-resize_1/001110_2014-06-15_17-25-28_260595134347_rgbf000150-resize_1-target.png,250,1.7115,3,2858,249,feet,jsons/v1_VE250_randls_53.json,641438,898598,40,Man
18,686833,DepthScenes,duration_manipulation_targetAtFixation,jsons/v1_VE250_randls_53.json,http://54.235.29.9/FacialAge/BNav_EC2/DepthDuration/v2_depth_duration_MTurk/v2_DepthDuration_HTML.html#121,121,1920,1080,1920,1080,8-29-2022,13-48-2,19,depth_duration_stimuli/000927_2014-06-09_16-32-30_260595134347_rgbf000123-resize_3/000927_2014-06-09_16-32-30_260595134347_rgbf000123-resize_3-target.png,250,2.6785,6,2725,249,feet,jsons/v1_VE250_randls_53.json,641438,898598,40,Man
19,686833,DepthScenes,duration_manipulation_targetAtFixation,jsons/v1_VE250_randls_53.json,http://54.235.29.9/FacialAge/BNav_EC2/DepthDuration/v2_depth_duration_MTurk/v2_DepthDuration_HTML.html#121,121,1920,1080,1920,1080,8-29-2022,13-48-2,20,depth_duration_stimuli/002043_2014-06-24_20-29-38_260595134347_rgbf000039-resize_4/002043_2014-06-24_20-29-38_260595134347_rgbf000039-resize_4-target.png,250,2.8435,5,2989,249,feet,jsons/v1_VE250_randls_53.json,641438,898598,40,Man
20,686833,DepthScenes,duration_manipulation_targetAtFixation,jsons/v1_VE250_randls_53.json,http://54.235.29.9/FacialAge/BNav_EC2/DepthDuration/v2_depth_duration_MTurk/v2_DepthDuration_HTML.html#121,121,1920,1080,1920,1080,8-29-2022,13-48-2,21,depth_duration_stimuli/003048_2014-06-15_13-49-43_094959634447_rgbf000150-resize_1/003048_2014-06-15_13-49-43_094959634447_rgbf000150-resize_1-target.png,250,4.0035,8,4219,249,feet,jsons/v1_VE250_randls_53.json,641438,898598,40,Man
21,686833,DepthScenes,duration_manipulation_targetAtFixation,jsons/v1_VE250_randls_53.json,http://54.235.29.9/FacialAge/BNav_EC2/DepthDuration/v2_depth_duration_MTurk/v2_DepthDuration_HTML.html#121,121,1920,1080,1920,1080,8-29-2022,13-48-2,22,depth_duration_stimuli/001164_2014-06-17_15-35-46_260595134347_rgbf000085-resize_3/001164_2014-06-17_15-35-46_260595134347_rgbf000085-resize_3-target.png,250,2.354,4,2923,249,feet,jsons/v1_VE250_randls_53.json,641438,898598,40,Man
22,686833,DepthScenes,duration_manipulation_targetAtFixation,jsons/v1_VE250_randls_53.json,http://54.235.29.9/FacialAge/BNav_EC2/DepthDuration/v2_depth_duration_MTurk/v2_DepthDuration_HTML.html#121,121,1920,1080,1920,1080,8-29-2022,13-48-2,23,depth_duration_stimuli/001136_2014-06-17_15-19-41_260595134347_rgbf000076-resize_3/001136_2014-06-17_15-19-41_260595134347_rgbf000076-resize_3-target.png,250,1.8655,4,3145,249,feet,jsons/v1_VE250_randls_53.json,641438,898598,40,Man
23,686833,DepthScenes,duration_manipulation_targetAtFixation,jsons/v1_VE250_randls_53.json,http://54.235.29.9/FacialAge/BNav_EC2/DepthDuration/v2_depth_duration_MTurk/v2_DepthDuration_HTML.html#121,121,1920,1080,1920,1080,8-29-2022,13-48-2,24,depth_duration_stimuli/001059_2014-06-08_21-53-27_260595134347_rgbf000061-resize_4/001059_2014-06-08_21-53-27_260595134347_rgbf000061-resize_4-target.png,250,2.4185,5,2891,249,feet,jsons/v1_VE250_randls_53.json,641438,898598,40,Man
24,686833,DepthScenes,duration_manipulation_targetAtFixation,jsons/v1_VE250_randls_53.json,http://54.235.29.9/FacialAge/BNav_EC2/DepthDuration/v2_depth_duration_MTurk/v2_DepthDuration_HTML.html#121,121,1920,1080,1920,1080,8-29-2022,13-48-2,25,depth_duration_stimuli/001032_2014-06-08_13-23-17_260595134347_rgbf000021-resize_3/001032_2014-06-08_13-23-17_260595134347_rgbf000021-resize_3-target.png,250,3.2725,6,2895,249,feet,jsons/v1_VE250_randls_53.json,641438,898598,40,Man
25,686833,DepthScenes,duration_manipulation_targetAtFixation,jsons/v1_VE250_randls_53.json,http://54.235.29.9/FacialAge/BNav_EC2/DepthDuration/v2_depth_duration_MTurk/v2_DepthDuration_HTML.html#121,121,1920,1080,1920,1080,8-29-2022,13-48-2,26,depth_duration_stimuli/002600_2014-06-24_14-27-04_094959634447_rgbf000074-resize_2/002600_2014-06-24_14-27-04_094959634447_rgbf000074-resize_2-target.png,250,2.7575,6,3722,249,feet,jsons/v1_VE250_randls_53.json,641438,898598,40,Man
26,686833,DepthScenes,duration_manipulation_targetAtFixation,jsons/v1_VE250_randls_53.json,http://54.235.29.9/FacialAge/BNav_EC2/DepthDuration/v2_depth_duration_MTurk/v2_DepthDuration_HTML.html#121,121,1920,1080,1920,1080,8-29-2022,13-48-2,27,depth_duration_stimuli/003228_2014-05-14_13-42-35_094959634447_rgbf000101-resize_1/003228_2014-05-14_13-42-35_094959634447_rgbf000101-resize_1-target.png,250,1.9680000000000002,4,2957,250,feet,jsons/v1_VE250_randls_53.json,641438,898598,40,Man
27,686833,DepthScenes,duration_manipulation_targetAtFixation,jsons/v1_VE250_randls_53.json,http://54.235.29.9/FacialAge/BNav_EC2/DepthDuration/v2_depth_duration_MTurk/v2_DepthDuration_HTML.html#121,121,1920,1080,1920,1080,8-29-2022,13-48-2,28,depth_duration_stimuli/002509_2014-06-24_13-19-22_094959634447_rgbf000077-resize_0/002509_2014-06-24_13-19-22_094959634447_rgbf000077-resize_0-target.png,250,1.3065,4,3065,250,feet,jsons/v1_VE250_randls_53.json,641438,898598,40,Man
28,686833,DepthScenes,duration_manipulation_targetAtFixation,jsons/v1_VE250_randls_53.json,http://54.235.29.9/FacialAge/BNav_EC2/DepthDuration/v2_depth_duration_MTurk/v2_DepthDuration_HTML.html#121,121,1920,1080,1920,1080,8-29-2022,13-48-2,29,depth_duration_stimuli/003338_2014-05-20_11-01-23_094959634447_rgbf000051-resize_6/003338_2014-05-20_11-01-23_094959634447_rgbf000051-resize_6-target.png,250,1.693,3,3171,250,feet,jsons/v1_VE250_randls_53.json,641438,898598,40,Man
29,686833,DepthScenes,duration_manipulation_targetAtFixation,jsons/v1_VE250_randls_53.json,http://54.235.29.9/FacialAge/BNav_EC2/DepthDuration/v2_depth_duration_MTurk/v2_DepthDuration_HTML.html#121,121,1920,1080,1920,1080,8-29-2022,13-48-2,30,depth_duration_stimuli/000375_2014-06-08_11-17-29_260595134347_rgbf000133-resize_2/000375_2014-06-08_11-17-29_260595134347_rgbf000133-resize-original.jpg,250,4.718,0,2860,249,feet,jsons/v1_VE250_randls_53.json,641438,898598,40,Man
30,686833,DepthScenes,duration_manipulation_targetAtFixation,jsons/v1_VE250_randls_53.json,http://54.235.29.9/FacialAge/BNav_EC2/DepthDuration/v2_depth_duration_MTurk/v2_DepthDuration_HTML.html#121,121,1920,1080,1920,1080,8-29-2022,13-48-2,31,depth_duration_stimuli/002153_2014-06-25_21-27-18_260595134347_rgbf000038-resize_5/002153_2014-06-25_21-27-18_260595134347_rgbf000038-resize_5-target.png,250,2.505,3,3066,250,feet,jsons/v1_VE250_randls_53.json,641438,898598,40,Man
31,686833,DepthScenes,duration_manipulation_targetAtFixation,jsons/v1_VE250_randls_53.json,http://54.235.29.9/FacialAge/BNav_EC2/DepthDuration/v2_depth_duration_MTurk/v2_DepthDuration_HTML.html#121,121,1920,1080,1920,1080,8-29-2022,13-48-2,32,depth_duration_stimuli/002660_2014-06-13_15-44-18_094959634447_rgbf001878-resize_2/002660_2014-06-13_15-44-18_094959634447_rgbf001878-resize_2-target.png,250,3.576,10,3279,250,feet,jsons/v1_VE250_randls_53.json,641438,898598,40,Man
32,686833,DepthScenes,duration_manipulation_targetAtFixation,jsons/v1_VE250_randls_53.json,http://54.235.29.9/FacialAge/BNav_EC2/DepthDuration/v2_depth_duration_MTurk/v2_DepthDuration_HTML.html#121,121,1920,1080,1920,1080,8-29-2022,13-48-2,33,depth_duration_stimuli/002989_2014-06-15_12-25-03_094959634447_rgbf000150-resize_3/002989_2014-06-15_12-25-03_094959634447_rgbf000150-resize_3-target.png,250,4.1975,12,3429,249,feet,jsons/v1_VE250_randls_53.json,641438,898598,40,Man
33,686833,DepthScenes,duration_manipulation_targetAtFixation,jsons/v1_VE250_randls_53.json,http://54.235.29.9/FacialAge/BNav_EC2/DepthDuration/v2_depth_duration_MTurk/v2_DepthDuration_HTML.html#121,121,1920,1080,1920,1080,8-29-2022,13-48-2,34,depth_duration_stimuli/000866_2014-06-09_20-45-42_260595134347_rgbf000139-resize_1/000866_2014-06-09_20-45-42_260595134347_rgbf000139-resize_1-target.png,250,3.2155,5,3262,250,feet,jsons/v1_VE250_randls_53.json,641438,898598,40,Man
34,686833,DepthScenes,duration_manipulation_targetAtFixation,jsons/v1_VE250_randls_53.json,http://54.235.29.9/FacialAge/BNav_EC2/DepthDuration/v2_depth_duration_MTurk/v2_DepthDuration_HTML.html#121,121,1920,1080,1920,1080,8-29-2022,13-48-2,35,depth_duration_stimuli/000788_2014-06-08_22-34-36_260595134347_rgbf000131-resize_1/000788_2014-06-08_22-34-36_260595134347_rgbf000131-resize_1-target.png,250,3.359,6,2948,249,feet,jsons/v1_VE250_randls_53.json,641438,898598,40,Man
35,686833,DepthScenes,duration_manipulation_targetAtFixation,jsons/v1_VE250_randls_53.json,http://54.235.29.9/FacialAge/BNav_EC2/DepthDuration/v2_depth_duration_MTurk/v2_DepthDuration_HTML.html#121,121,1920,1080,1920,1080,8-29-2022,13-48-2,36,depth_duration_stimuli/001235_2014-06-17_16-37-36_260595134347_rgbf000084-resize_4/001235_2014-06-17_16-37-36_260595134347_rgbf000084-resize_4-target.png,250,3.6605,6,3048,249,feet,jsons/v1_VE250_randls_53.json,641438,898598,40,Man
36,686833,DepthScenes,duration_manipulation_targetAtFixation,jsons/v1_VE250_randls_53.json,http://54.235.29.9/FacialAge/BNav_EC2/DepthDuration/v2_depth_duration_MTurk/v2_DepthDuration_HTML.html#121,121,1920,1080,1920,1080,8-29-2022,13-48-2,37,depth_duration_stimuli/003492_2014-05-21_15-50-55_094959634447_rgbf000828-resize_1/003492_2014-05-21_15-50-55_094959634447_rgbf000828-resize_1-target.png,250,4.06875,8,3476,249,feet,jsons/v1_VE250_randls_53.json,641438,898598,40,Man
37,686833,DepthScenes,duration_manipulation_targetAtFixation,jsons/v1_VE250_randls_53.json,http://54.235.29.9/FacialAge/BNav_EC2/DepthDuration/v2_depth_duration_MTurk/v2_DepthDuration_HTML.html#121,121,1920,1080,1920,1080,8-29-2022,13-48-2,38,depth_duration_stimuli/002568_2014-06-24_13-59-21_094959634447_rgbf000062-resize_4/002568_2014-06-24_13-59-21_094959634447_rgbf000062-resize_4-target.png,250,3.015,5,3115,250,feet,jsons/v1_VE250_randls_53.json,641438,898598,40,Man
38,686833,DepthScenes,duration_manipulation_targetAtFixation,jsons/v1_VE250_randls_53.json,http://54.235.29.9/FacialAge/BNav_EC2/DepthDuration/v2_depth_duration_MTurk/v2_DepthDuration_HTML.html#121,121,1920,1080,1920,1080,8-29-2022,13-48-2,39,depth_duration_stimuli/000736_2014-06-08_18-24-15_260595134347_rgbf000206-resize_3/000736_2014-06-08_18-24-15_260595134347_rgbf000206-resize_3-target.png,250,3.515,6,3436,249,feet,jsons/v1_VE250_randls_53.json,641438,898598,40,Man
39,686833,DepthScenes,duration_manipulation_targetAtFixation,jsons/v1_VE250_randls_53.json,http://54.235.29.9/FacialAge/BNav_EC2/DepthDuration/v2_depth_duration_MTurk/v2_DepthDuration_HTML.html#121,121,1920,1080,1920,1080,8-29-2022,13-48-2,40,depth_duration_stimuli/000137_2014-05-20_17-04-49_260595134347_rgbf000120-resize_1/000137_2014-05-20_17-04-49_260595134347_rgbf000120-resize_1-target.png,250,3.786,8,3511,249,feet,jsons/v1_VE250_randls_53.json,641438,898598,40,Man
40,686833,DepthScenes,duration_manipulation_targetAtFixation,jsons/v1_VE250_randls_53.json,http://54.235.29.9/FacialAge/BNav_EC2/DepthDuration/v2_depth_duration_MTurk/v2_DepthDuration_HTML.html#121,121,1920,1080,1920,1080,8-29-2022,13-48-2,41,depth_duration_stimuli/000469_2014-06-09_19-42-10_260595134347_rgbf000081-resize_1/000469_2014-06-09_19-42-10_260595134347_rgbf000081-resize_1-target.png,250,1.652,3,3115,249,feet,jsons/v1_VE250_randls_53.json,641438,898598,40,Man
41,686833,DepthScenes,duration_manipulation_targetAtFixation,jsons/v1_VE250_randls_53.json,http://54.235.29.9/FacialAge/BNav_EC2/DepthDuration/v2_depth_duration_MTurk/v2_DepthDuration_HTML.html#121,121,1920,1080,1920,1080,8-29-2022,13-48-2,42,depth_duration_stimuli/000483_2014-06-09_20-41-45_260595134347_rgbf000116-resize_4/000483_2014-06-09_20-41-45_260595134347_rgbf000116-resize_4-target.png,250,1.337,3,2970,249,feet,jsons/v1_VE250_randls_53.json,641438,898598,40,Man
42,686833,DepthScenes,duration_manipulation_targetAtFixation,jsons/v1_VE250_randls_53.json,http://54.235.29.9/FacialAge/BNav_EC2/DepthDuration/v2_depth_duration_MTurk/v2_DepthDuration_HTML.html#121,121,1920,1080,1920,1080,8-29-2022,13-48-2,43,depth_duration_stimuli/001570_2014-06-20_17-21-09_260595134347_rgbf000135-resize_4/001570_2014-06-20_17-21-09_260595134347_rgbf000135-resize_4-target.png,250,4.467,12,3277,250,feet,jsons/v1_VE250_randls_53.json,641438,898598,40,Man
43,686833,DepthScenes,duration_manipulation_targetAtFixation,jsons/v1_VE250_randls_53.json,http://54.235.29.9/FacialAge/BNav_EC2/DepthDuration/v2_depth_duration_MTurk/v2_DepthDuration_HTML.html#121,121,1920,1080,1920,1080,8-29-2022,13-48-2,44,depth_duration_stimuli/001392_2014-06-19_16-07-59_260595134347_rgbf000046-resize_1/001392_2014-06-19_16-07-59_260595134347_rgbf000046-resize_1-target.png,250,4.135,8,2864,249,feet,jsons/v1_VE250_randls_53.json,641438,898598,40,Man
44,686833,DepthScenes,duration_manipulation_targetAtFixation,jsons/v1_VE250_randls_53.json,http://54.235.29.9/FacialAge/BNav_EC2/DepthDuration/v2_depth_duration_MTurk/v2_DepthDuration_HTML.html#121,121,1920,1080,1920,1080,8-29-2022,13-48-2,45,depth_duration_stimuli/000787_2014-06-08_22-33-53_260595134347_rgbf000175-resize_1/000787_2014-06-08_22-33-53_260595134347_rgbf000175-resize-original.jpg,250,4.784,0,2739,247,feet,jsons/v1_VE250_randls_53.json,641438,898598,40,Man
45,686833,DepthScenes,duration_manipulation_targetAtFixation,jsons/v1_VE250_randls_53.json,http://54.235.29.9/FacialAge/BNav_EC2/DepthDuration/v2_depth_duration_MTurk/v2_DepthDuration_HTML.html#121,121,1920,1080,1920,1080,8-29-2022,13-48-2,46,depth_duration_stimuli/001810_2014-06-26_20-51-35_260595134347_rgbf000040-resize_3/001810_2014-06-26_20-51-35_260595134347_rgbf000040-resize_3-target.png,250,2.2525,6,2886,250,feet,jsons/v1_VE250_randls_53.json,641438,898598,40,Man
46,686833,DepthScenes,duration_manipulation_targetAtFixation,jsons/v1_VE250_randls_53.json,http://54.235.29.9/FacialAge/BNav_EC2/DepthDuration/v2_depth_duration_MTurk/v2_DepthDuration_HTML.html#121,121,1920,1080,1920,1080,8-29-2022,13-48-2,47,depth_duration_stimuli/003010_2014-06-15_12-54-35_094959634447_rgbf000112-resize_0/003010_2014-06-15_12-54-35_094959634447_rgbf000112-resize_0-target.png,250,3.1185,9,2945,250,feet,jsons/v1_VE250_randls_53.json,641438,898598,40,Man
47,686833,DepthScenes,duration_manipulation_targetAtFixation,jsons/v1_VE250_randls_53.json,http://54.235.29.9/FacialAge/BNav_EC2/DepthDuration/v2_depth_duration_MTurk/v2_DepthDuration_HTML.html#121,121,1920,1080,1920,1080,8-29-2022,13-48-2,48,depth_duration_stimuli/002549_2014-06-24_13-41-39_094959634447_rgbf000022-resize_3/002549_2014-06-24_13-41-39_094959634447_rgbf000022-resize_3-target.png,250,1.476,2,2904,249,feet,jsons/v1_VE250_randls_53.json,641438,898598,40,Man
48,686833,DepthScenes,duration_manipulation_targetAtFixation,jsons/v1_VE250_randls_53.json,http://54.235.29.9/FacialAge/BNav_EC2/DepthDuration/v2_depth_duration_MTurk/v2_DepthDuration_HTML.html#121,121,1920,1080,1920,1080,8-29-2022,13-48-2,49,depth_duration_stimuli/002750_2014-06-22_19-08-03_094959634447_rgbf000094-resize_4/002750_2014-06-22_19-08-03_094959634447_rgbf000094-resize_4-target.png,250,2.354,4,2816,249,feet,jsons/v1_VE250_randls_53.json,641438,898598,40,Man
49,686833,DepthScenes,duration_manipulation_targetAtFixation,jsons/v1_VE250_randls_53.json,http://54.235.29.9/FacialAge/BNav_EC2/DepthDuration/v2_depth_duration_MTurk/v2_DepthDuration_HTML.html#121,121,1920,1080,1920,1080,8-29-2022,13-48-2,50,depth_duration_stimuli/003070_2014-06-15_14-58-27_094959634447_rgbf000150-resize_3/003070_2014-06-15_14-58-27_094959634447_rgbf000150-resize_3-target.png,250,2.9415,6,2716,249,feet,jsons/v1_VE250_randls_53.json,641438,898598,40,Man
50,686833,DepthScenes,duration_manipulation_targetAtFixation,jsons/v1_VE250_randls_53.json,http://54.235.29.9/FacialAge/BNav_EC2/DepthDuration/v2_depth_duration_MTurk/v2_DepthDuration_HTML.html#121,121,1920,1080,1920,1080,8-29-2022,13-48-2,51,depth_duration_stimuli/000943_2014-06-09_19-31-07_260595134347_rgbf000128-resize_1/000943_2014-06-09_19-31-07_260595134347_rgbf000128-resize_1-target.png,250,1.9765,4,3106,249,feet,jsons/v1_VE250_randls_53.json,641438,898598,40,Man
51,686833,DepthScenes,duration_manipulation_targetAtFixation,jsons/v1_VE250_randls_53.json,http://54.235.29.9/FacialAge/BNav_EC2/DepthDuration/v2_depth_duration_MTurk/v2_DepthDuration_HTML.html#121,121,1920,1080,1920,1080,8-29-2022,13-48-2,52,depth_duration_stimuli/003292_2014-05-14_21-53-49_094959634447_rgbf000100-resize_2/003292_2014-05-14_21-53-49_094959634447_rgbf000100-resize_2-target.png,250,3.4815,5,3244,249,feet,jsons/v1_VE250_randls_53.json,641438,898598,40,Man
52,686833,DepthScenes,duration_manipulation_targetAtFixation,jsons/v1_VE250_randls_53.json,http://54.235.29.9/FacialAge/BNav_EC2/DepthDuration/v2_depth_duration_MTurk/v2_DepthDuration_HTML.html#121,121,1920,1080,1920,1080,8-29-2022,13-48-2,53,depth_duration_stimuli/002639_2014-06-24_14-51-37_094959634447_rgbf000074-resize_4/002639_2014-06-24_14-51-37_094959634447_rgbf000074-resize_4-target.png,250,4.0375,15,3961,249,feet,jsons/v1_VE250_randls_53.json,641438,898598,40,Man
53,686833,DepthScenes,duration_manipulation_targetAtFixation,jsons/v1_VE250_randls_53.json,http://54.235.29.9/FacialAge/BNav_EC2/DepthDuration/v2_depth_duration_MTurk/v2_DepthDuration_HTML.html#121,121,1920,1080,1920,1080,8-29-2022,13-48-2,54,depth_duration_stimuli/002905_2014-06-03_18-04-43_094959634447_rgbf000151-resize_2/002905_2014-06-03_18-04-43_094959634447_rgbf000151-resize_2-target.png,250,2.0295,4,3225,249,feet,jsons/v1_VE250_randls_53.json,641438,898598,40,Man
54,686833,DepthScenes,duration_manipulation_targetAtFixation,jsons/v1_VE250_randls_53.json,http://54.235.29.9/FacialAge/BNav_EC2/DepthDuration/v2_depth_duration_MTurk/v2_DepthDuration_HTML.html#121,121,1920,1080,1920,1080,8-29-2022,13-48-2,55,depth_duration_stimuli/003423_2014-05-21_10-23-26_094959634447_rgbf002665-resize_2/003423_2014-05-21_10-23-26_094959634447_rgbf002665-resize_2-target.png,250,3.2575,10,4005,249,feet,jsons/v1_VE250_randls_53.json,641438,898598,40,Man
55,686833,DepthScenes,duration_manipulation_targetAtFixation,jsons/v1_VE250_randls_53.json,http://54.235.29.9/FacialAge/BNav_EC2/DepthDuration/v2_depth_duration_MTurk/v2_DepthDuration_HTML.html#121,121,1920,1080,1920,1080,8-29-2022,13-48-2,56,depth_duration_stimuli/002663_2014-06-13_15-50-26_094959634447_rgbf000075-resize_1/002663_2014-06-13_15-50-26_094959634447_rgbf000075-resize_1-target.png,250,4.7495,12,3212,249,feet,jsons/v1_VE250_randls_53.json,641438,898598,40,Man
56,686833,DepthScenes,duration_manipulation_targetAtFixation,jsons/v1_VE250_randls_53.json,http://54.235.29.9/FacialAge/BNav_EC2/DepthDuration/v2_depth_duration_MTurk/v2_DepthDuration_HTML.html#121,121,1920,1080,1920,1080,8-29-2022,13-48-2,57,depth_duration_stimuli/000409_2014-06-04_19-23-33_260595134347_rgbf000067-resize_0/000409_2014-06-04_19-23-33_260595134347_rgbf000067-resize_0-target.png,250,3.7335,7,3702,249,feet,jsons/v1_VE250_randls_53.json,641438,898598,40,Man
57,686833,DepthScenes,duration_manipulation_targetAtFixation,jsons/v1_VE250_randls_53.json,http://54.235.29.9/FacialAge/BNav_EC2/DepthDuration/v2_depth_duration_MTurk/v2_DepthDuration_HTML.html#121,121,1920,1080,1920,1080,8-29-2022,13-48-2,58,depth_duration_stimuli/000906_2014-06-08_13-35-43_260595134347_rgbf000155-resize_1/000906_2014-06-08_13-35-43_260595134347_rgbf000155-resize_1-target.png,250,2.8489999999999998,9,3097,249,feet,jsons/v1_VE250_randls_53.json,641438,898598,40,Man
58,686833,DepthScenes,duration_manipulation_targetAtFixation,jsons/v1_VE250_randls_53.json,http://54.235.29.9/FacialAge/BNav_EC2/DepthDuration/v2_depth_duration_MTurk/v2_DepthDuration_HTML.html#121,121,1920,1080,1920,1080,8-29-2022,13-48-2,59,depth_duration_stimuli/002805_2014-06-22_19-54-03_094959634447_rgbf000079-resize_1/002805_2014-06-22_19-54-03_094959634447_rgbf000079-resize_1-target.png,250,3.1439999999999997,8,2953,249,feet,jsons/v1_VE250_randls_53.json,641438,898598,40,Man
59,686833,DepthScenes,duration_manipulation_targetAtFixation,jsons/v1_VE250_randls_53.json,http://54.235.29.9/FacialAge/BNav_EC2/DepthDuration/v2_depth_duration_MTurk/v2_DepthDuration_HTML.html#121,121,1920,1080,1920,1080,8-29-2022,13-48-2,60,depth_duration_stimuli/000773_2014-06-08_22-24-54_260595134347_rgbf000093-resize_1/000773_2014-06-08_22-24-54_260595134347_rgbf000093-resize_1-target.png,250,4.973,10,3626,249,feet,jsons/v1_VE250_randls_53.json,641438,898598,40,Man
60,686833,DepthScenes,duration_manipulation_targetAtFixation,jsons/v1_VE250_randls_53.json,http://54.235.29.9/FacialAge/BNav_EC2/DepthDuration/v2_depth_duration_MTurk/v2_DepthDuration_HTML.html#121,121,1920,1080,1920,1080,8-29-2022,13-48-2,61,depth_duration_stimuli/002414_2014-06-28_20-24-58_260595134347_rgbf000067-resize_4/002414_2014-06-28_20-24-58_260595134347_rgbf000067-resize_4-target.png,250,4.363,10,3145,249,feet,jsons/v1_VE250_randls_53.json,641438,898598,40,Man
61,686833,DepthScenes,duration_manipulation_targetAtFixation,jsons/v1_VE250_randls_53.json,http://54.235.29.9/FacialAge/BNav_EC2/DepthDuration/v2_depth_duration_MTurk/v2_DepthDuration_HTML.html#121,121,1920,1080,1920,1080,8-29-2022,13-48-2,62,depth_duration_stimuli/002725_2014-06-22_11-47-51_094959634447_rgbf000070-resize_1/002725_2014-06-22_11-47-51_094959634447_rgbf000070-resize_1-target.png,250,2.195,6,3700,249,feet,jsons/v1_VE250_randls_53.json,641438,898598,40,Man
62,686833,DepthScenes,duration_manipulation_targetAtFixation,jsons/v1_VE250_randls_53.json,http://54.235.29.9/FacialAge/BNav_EC2/DepthDuration/v2_depth_duration_MTurk/v2_DepthDuration_HTML.html#121,121,1920,1080,1920,1080,8-29-2022,13-48-2,63,depth_duration_stimuli/002344_2014-06-28_20-06-29_260595134347_rgbf000030-resize_1/002344_2014-06-28_20-06-29_260595134347_rgbf000030-resize_1-target.png,250,1.5795,2,2875,249,feet,jsons/v1_VE250_randls_53.json,641438,898598,40,Man
63,686833,DepthScenes,duration_manipulation_targetAtFixation,jsons/v1_VE250_randls_53.json,http://54.235.29.9/FacialAge/BNav_EC2/DepthDuration/v2_depth_duration_MTurk/v2_DepthDuration_HTML.html#121,121,1920,1080,1920,1080,8-29-2022,13-48-2,64,depth_duration_stimuli/002445_2014-06-28_20-32-16_260595134347_rgbf000029-resize_4/002445_2014-06-28_20-32-16_260595134347_rgbf000029-resize_4-target.png,250,2.5315,5,2899,249,feet,jsons/v1_VE250_randls_53.json,641438,898598,40,Man
64,686833,DepthScenes,duration_manipulation_targetAtFixation,jsons/v1_VE250_randls_53.json,http://54.235.29.9/FacialAge/BNav_EC2/DepthDuration/v2_depth_duration_MTurk/v2_DepthDuration_HTML.html#121,121,1920,1080,1920,1080,8-29-2022,13-48-2,65,depth_duration_stimuli/000780_2014-06-08_22-28-29_260595134347_rgbf000126-resize_1/000780_2014-06-08_22-28-29_260595134347_rgbf000126-resize_1-target.png,250,3.3825,10,3264,250,feet,jsons/v1_VE250_randls_53.json,641438,898598,40,Man
65,686833,DepthScenes,duration_manipulation_targetAtFixation,jsons/v1_VE250_randls_53.json,http://54.235.29.9/FacialAge/BNav_EC2/DepthDuration/v2_depth_duration_MTurk/v2_DepthDuration_HTML.html#121,121,1920,1080,1920,1080,8-29-2022,13-48-2,66,depth_duration_stimuli/001222_2014-06-17_16-24-06_260595134347_rgbf000073-resize_0/001222_2014-06-17_16-24-06_260595134347_rgbf000073-resize-original.jpg,250,1.4385,0,3396,248,feet,jsons/v1_VE250_randls_53.json,641438,898598,40,Man
66,686833,DepthScenes,duration_manipulation_targetAtFixation,jsons/v1_VE250_randls_53.json,http://54.235.29.9/FacialAge/BNav_EC2/DepthDuration/v2_depth_duration_MTurk/v2_DepthDuration_HTML.html#121,121,1920,1080,1920,1080,8-29-2022,13-48-2,67,depth_duration_stimuli/002964_2014-06-08_17-46-11_094959634447_rgbf000091-resize_4/002964_2014-06-08_17-46-11_094959634447_rgbf000091-resize_4-target.png,250,1.6909999999999998,2,2920,250,feet,jsons/v1_VE250_randls_53.json,641438,898598,40,Man
67,686833,DepthScenes,duration_manipulation_targetAtFixation,jsons/v1_VE250_randls_53.json,http://54.235.29.9/FacialAge/BNav_EC2/DepthDuration/v2_depth_duration_MTurk/v2_DepthDuration_HTML.html#121,121,1920,1080,1920,1080,8-29-2022,13-48-2,68,depth_duration_stimuli/002136_2014-06-25_21-18-03_260595134347_rgbf000109-resize_3/002136_2014-06-25_21-18-03_260595134347_rgbf000109-resize_3-target.png,250,1.9569999999999999,3,3181,249,feet,jsons/v1_VE250_randls_53.json,641438,898598,40,Man
68,686833,DepthScenes,duration_manipulation_targetAtFixation,jsons/v1_VE250_randls_53.json,http://54.235.29.9/FacialAge/BNav_EC2/DepthDuration/v2_depth_duration_MTurk/v2_DepthDuration_HTML.html#121,121,1920,1080,1920,1080,8-29-2022,13-48-2,69,depth_duration_stimuli/001449_2014-06-19_17-01-27_260595134347_rgbf000116-resize_2/001449_2014-06-19_17-01-27_260595134347_rgbf000116-resize_2-target.png,250,3.452,6,3012,249,feet,jsons/v1_VE250_randls_53.json,641438,898598,40,Man
69,686833,DepthScenes,duration_manipulation_targetAtFixation,jsons/v1_VE250_randls_53.json,http://54.235.29.9/FacialAge/BNav_EC2/DepthDuration/v2_depth_duration_MTurk/v2_DepthDuration_HTML.html#121,121,1920,1080,1920,1080,8-29-2022,13-48-2,70,depth_duration_stimuli/001450_2014-06-19_17-02-03_260595134347_rgbf000203-resize_4/001450_2014-06-19_17-02-03_260595134347_rgbf000203-resize_4-target.png,250,4.0106666666667,8,3051,249,feet,jsons/v1_VE250_randls_53.json,641438,898598,40,Man
70,686833,DepthScenes,duration_manipulation_targetAtFixation,jsons/v1_VE250_randls_53.json,http://54.235.29.9/FacialAge/BNav_EC2/DepthDuration/v2_depth_duration_MTurk/v2_DepthDuration_HTML.html#121,121,1920,1080,1920,1080,8-29-2022,13-48-2,71,depth_duration_stimuli/002570_2014-06-24_13-59-54_094959634447_rgbf000059-resize_0/002570_2014-06-24_13-59-54_094959634447_rgbf000059-resize_0-target.png,250,4.037,8,3436,249,feet,jsons/v1_VE250_randls_53.json,641438,898598,40,Man
71,686833,DepthScenes,duration_manipulation_targetAtFixation,jsons/v1_VE250_randls_53.json,http://54.235.29.9/FacialAge/BNav_EC2/DepthDuration/v2_depth_duration_MTurk/v2_DepthDuration_HTML.html#121,121,1920,1080,1920,1080,8-29-2022,13-48-2,72,depth_duration_stimuli/002467_2014-06-28_20-38-07_260595134347_rgbf000026-resize_2/002467_2014-06-28_20-38-07_260595134347_rgbf000026-resize_2-target.png,250,4.742,12,3453,250,feet,jsons/v1_VE250_randls_53.json,641438,898598,40,Man
72,686833,DepthScenes,duration_manipulation_targetAtFixation,jsons/v1_VE250_randls_53.json,http://54.235.29.9/FacialAge/BNav_EC2/DepthDuration/v2_depth_duration_MTurk/v2_DepthDuration_HTML.html#121,121,1920,1080,1920,1080,8-29-2022,13-48-2,73,depth_duration_stimuli/003621_2014-05-23_18-06-08_094959634447_rgbf000101-resize_1/003621_2014-05-23_18-06-08_094959634447_rgbf000101-resize_1-target.png,250,3.9835,10,5957,249,feet,jsons/v1_VE250_randls_53.json,641438,898598,40,Man
73,686833,DepthScenes,duration_manipulation_targetAtFixation,jsons/v1_VE250_randls_53.json,http://54.235.29.9/FacialAge/BNav_EC2/DepthDuration/v2_depth_duration_MTurk/v2_DepthDuration_HTML.html#121,121,1920,1080,1920,1080,8-29-2022,13-48-2,74,depth_duration_stimuli/001584_2014-06-20_11-07-43_260595134347_rgbf000002-resize_1/001584_2014-06-20_11-07-43_260595134347_rgbf000002-resize_1-target.png,250,3.53,8,3309,253,feet,jsons/v1_VE250_randls_53.json,641438,898598,40,Man
74,686833,DepthScenes,duration_manipulation_targetAtFixation,jsons/v1_VE250_randls_53.json,http://54.235.29.9/FacialAge/BNav_EC2/DepthDuration/v2_depth_duration_MTurk/v2_DepthDuration_HTML.html#121,121,1920,1080,1920,1080,8-29-2022,13-48-2,75,depth_duration_stimuli/000758_2014-06-08_22-05-08_260595134347_rgbf000085-resize_0/000758_2014-06-08_22-05-08_260595134347_rgbf000085-resize_0-target.png,250,3.3810000000000002,10,3359,249,feet,jsons/v1_VE250_randls_53.json,641438,898598,40,Man
75,686833,DepthScenes,duration_manipulation_targetAtFixation,jsons/v1_VE250_randls_53.json,http://54.235.29.9/FacialAge/BNav_EC2/DepthDuration/v2_depth_duration_MTurk/v2_DepthDuration_HTML.html#121,121,1920,1080,1920,1080,8-29-2022,13-48-2,76,depth_duration_stimuli/000854_2014-06-09_19-43-13_260595134347_rgbf000066-resize_0/000854_2014-06-09_19-43-13_260595134347_rgbf000066-resize_0-target.png,250,3.068,4,2963,249,feet,jsons/v1_VE250_randls_53.json,641438,898598,40,Man
76,686833,DepthScenes,duration_manipulation_targetAtFixation,jsons/v1_VE250_randls_53.json,http://54.235.29.9/FacialAge/BNav_EC2/DepthDuration/v2_depth_duration_MTurk/v2_DepthDuration_HTML.html#121,121,1920,1080,1920,1080,8-29-2022,13-48-2,77,depth_duration_stimuli/002784_2014-06-22_19-26-30_094959634447_rgbf000083-resize_3/002784_2014-06-22_19-26-30_094959634447_rgbf000083-resize_3-target.png,250,1.8046666666667,3,3029,249,feet,jsons/v1_VE250_randls_53.json,641438,898598,40,Man
77,686833,DepthScenes,duration_manipulation_targetAtFixation,jsons/v1_VE250_randls_53.json,http://54.235.29.9/FacialAge/BNav_EC2/DepthDuration/v2_depth_duration_MTurk/v2_DepthDuration_HTML.html#121,121,1920,1080,1920,1080,8-29-2022,13-48-2,78,depth_duration_stimuli/001100_2014-06-15_17-46-26_260595134347_rgbf000225-resize_2/001100_2014-06-15_17-46-26_260595134347_rgbf000225-resize_2-target.png,250,2.24,3,3038,249,feet,jsons/v1_VE250_randls_53.json,641438,898598,40,Man
78,686833,DepthScenes,duration_manipulation_targetAtFixation,jsons/v1_VE250_randls_53.json,http://54.235.29.9/FacialAge/BNav_EC2/DepthDuration/v2_depth_duration_MTurk/v2_DepthDuration_HTML.html#121,121,1920,1080,1920,1080,8-29-2022,13-48-2,79,depth_duration_stimuli/001158_2014-06-17_15-32-16_260595134347_rgbf000138-resize_2/001158_2014-06-17_15-32-16_260595134347_rgbf000138-resize_2-target.png,250,4.5315,10,3275,250,feet,jsons/v1_VE250_randls_53.json,641438,898598,40,Man
79,686833,DepthScenes,duration_manipulation_targetAtFixation,jsons/v1_VE250_randls_53.json,http://54.235.29.9/FacialAge/BNav_EC2/DepthDuration/v2_depth_duration_MTurk/v2_DepthDuration_HTML.html#121,121,1920,1080,1920,1080,8-29-2022,13-48-2,80,depth_duration_stimuli/000556_2014-06-09_22-42-56_260595134347_rgbf000214-resize_1/000556_2014-06-09_22-42-56_260595134347_rgbf000214-resize_1-target.png,250,4.8415,9,3782,249,feet,jsons/v1_VE250_randls_53.json,641438,898598,40,Man
80,686833,DepthScenes,duration_manipulation_targetAtFixation,jsons/v1_VE250_randls_53.json,http://54.235.29.9/FacialAge/BNav_EC2/DepthDuration/v2_depth_duration_MTurk/v2_DepthDuration_HTML.html#121,121,1920,1080,1920,1080,8-29-2022,13-48-2,81,depth_duration_stimuli/002272_2014-06-28_18-53-56_260595134347_rgbf000067-resize_2/002272_2014-06-28_18-53-56_260595134347_rgbf000067-resize_2-target.png,250,1.138,2,3564,250,feet,jsons/v1_VE250_randls_53.json,641438,898598,40,Man
81,686833,DepthScenes,duration_manipulation_targetAtFixation,jsons/v1_VE250_randls_53.json,http://54.235.29.9/FacialAge/BNav_EC2/DepthDuration/v2_depth_duration_MTurk/v2_DepthDuration_HTML.html#121,121,1920,1080,1920,1080,8-29-2022,13-48-2,82,depth_duration_stimuli/001571_2014-06-20_17-21-32_260595134347_rgbf000089-resize_1/001571_2014-06-20_17-21-32_260595134347_rgbf000089-resize_1-target.png,250,1.86,3,2971,249,feet,jsons/v1_VE250_randls_53.json,641438,898598,40,Man
82,686833,DepthScenes,duration_manipulation_targetAtFixation,jsons/v1_VE250_randls_53.json,http://54.235.29.9/FacialAge/BNav_EC2/DepthDuration/v2_depth_duration_MTurk/v2_DepthDuration_HTML.html#121,121,1920,1080,1920,1080,8-29-2022,13-48-2,83,depth_duration_stimuli/000470_2014-06-09_19-42-40_260595134347_rgbf000094-resize_1/000470_2014-06-09_19-42-40_260595134347_rgbf000094-resize_1-target.png,250,1.831,3,3080,249,feet,jsons/v1_VE250_randls_53.json,641438,898598,40,Man
83,686833,DepthScenes,duration_manipulation_targetAtFixation,jsons/v1_VE250_randls_53.json,http://54.235.29.9/FacialAge/BNav_EC2/DepthDuration/v2_depth_duration_MTurk/v2_DepthDuration_HTML.html#121,121,1920,1080,1920,1080,8-29-2022,13-48-2,84,depth_duration_stimuli/000109_2014-05-14_23-41-52_260595134347_rgbf000035-resize_9/000109_2014-05-14_23-41-52_260595134347_rgbf000035-resize_9-target.png,250,1.3545,2,2798,249,feet,jsons/v1_VE250_randls_53.json,641438,898598,40,Man
84,686833,DepthScenes,duration_manipulation_targetAtFixation,jsons/v1_VE250_randls_53.json,http://54.235.29.9/FacialAge/BNav_EC2/DepthDuration/v2_depth_duration_MTurk/v2_DepthDuration_HTML.html#121,121,1920,1080,1920,1080,8-29-2022,13-48-2,85,depth_duration_stimuli/002375_2014-06-28_20-13-44_260595134347_rgbf000032-resize_1/002375_2014-06-28_20-13-44_260595134347_rgbf000032-resize_1-target.png,250,4.0175,4,3435,250,feet,jsons/v1_VE250_randls_53.json,641438,898598,40,Man
85,686833,DepthScenes,duration_manipulation_targetAtFixation,jsons/v1_VE250_randls_53.json,http://54.235.29.9/FacialAge/BNav_EC2/DepthDuration/v2_depth_duration_MTurk/v2_DepthDuration_HTML.html#121,121,1920,1080,1920,1080,8-29-2022,13-48-2,86,depth_duration_stimuli/002657_2014-06-13_15-29-54_094959634447_rgbf000150-resize_1/002657_2014-06-13_15-29-54_094959634447_rgbf000150-resize_1-target.png,250,4.919,8,4400,249,feet,jsons/v1_VE250_randls_53.json,641438,898598,40,Man
86,686833,DepthScenes,duration_manipulation_targetAtFixation,jsons/v1_VE250_randls_53.json,http://54.235.29.9/FacialAge/BNav_EC2/DepthDuration/v2_depth_duration_MTurk/v2_DepthDuration_HTML.html#121,121,1920,1080,1920,1080,8-29-2022,13-48-2,87,depth_duration_stimuli/002118_2014-06-25_20-32-08_260595134347_rgbf000078-resize_1/002118_2014-06-25_20-32-08_260595134347_rgbf000078-resize_1-target.png,250,2.6460000000000004,8,4638,249,feet,jsons/v1_VE250_randls_53.json,641438,898598,40,Man
87,686833,DepthScenes,duration_manipulation_targetAtFixation,jsons/v1_VE250_randls_53.json,http://54.235.29.9/FacialAge/BNav_EC2/DepthDuration/v2_depth_duration_MTurk/v2_DepthDuration_HTML.html#121,121,1920,1080,1920,1080,8-29-2022,13-48-2,88,depth_duration_stimuli/001516_2014-06-20_16-25-09_260595134347_rgbf000076-resize_2/001516_2014-06-20_16-25-09_260595134347_rgbf000076-resize_2-target.png,250,1.7445,4,7893,250,feet,jsons/v1_VE250_randls_53.json,641438,898598,40,Man
88,686833,DepthScenes,duration_manipulation_targetAtFixation,jsons/v1_VE250_randls_53.json,http://54.235.29.9/FacialAge/BNav_EC2/DepthDuration/v2_depth_duration_MTurk/v2_DepthDuration_HTML.html#121,121,1920,1080,1920,1080,8-29-2022,13-48-2,89,depth_duration_stimuli/001066_2014-06-08_22-03-20_260595134347_rgbf000066-resize_4/001066_2014-06-08_22-03-20_260595134347_rgbf000066-resize_4-target.png,250,4.2330000000000005,10,3962,249,feet,jsons/v1_VE250_randls_53.json,641438,898598,40,Man
89,686833,DepthScenes,duration_manipulation_targetAtFixation,jsons/v1_VE250_randls_53.json,http://54.235.29.9/FacialAge/BNav_EC2/DepthDuration/v2_depth_duration_MTurk/v2_DepthDuration_HTML.html#121,121,1920,1080,1920,1080,8-29-2022,13-48-2,90,depth_duration_stimuli/000742_2014-06-08_18-48-09_260595134347_rgbf000164-resize_4/000742_2014-06-08_18-48-09_260595134347_rgbf000164-resize_4-target.png,250,4.632,8,5142,249,feet,jsons/v1_VE250_randls_53.json,641438,898598,40,Man
90,686833,DepthScenes,duration_manipulation_targetAtFixation,jsons/v1_VE250_randls_53.json,http://54.235.29.9/FacialAge/BNav_EC2/DepthDuration/v2_depth_duration_MTurk/v2_DepthDuration_HTML.html#121,121,1920,1080,1920,1080,8-29-2022,13-48-2,91,depth_duration_stimuli/002057_2014-06-24_21-00-13_260595134347_rgbf000120-resize_1/002057_2014-06-24_21-00-13_260595134347_rgbf000120-resize_1-target.png,250,2.967,12,3332,249,feet,jsons/v1_VE250_randls_53.json,641438,898598,40,Man
91,686833,DepthScenes,duration_manipulation_targetAtFixation,jsons/v1_VE250_randls_53.json,http://54.235.29.9/FacialAge/BNav_EC2/DepthDuration/v2_depth_duration_MTurk/v2_DepthDuration_HTML.html#121,121,1920,1080,1920,1080,8-29-2022,13-48-2,92,depth_duration_stimuli/000709_2014-06-08_13-51-55_260595134347_rgbf000068-resize_3/000709_2014-06-08_13-51-55_260595134347_rgbf000068-resize_3-target.png,250,1.8030000000000002,5,2962,249,feet,jsons/v1_VE250_randls_53.json,641438,898598,40,Man
92,686833,DepthScenes,duration_manipulation_targetAtFixation,jsons/v1_VE250_randls_53.json,http://54.235.29.9/FacialAge/BNav_EC2/DepthDuration/v2_depth_duration_MTurk/v2_DepthDuration_HTML.html#121,121,1920,1080,1920,1080,8-29-2022,13-48-2,93,depth_duration_stimuli/002748_2014-06-22_19-07-22_094959634447_rgbf000078-resize_1/002748_2014-06-22_19-07-22_094959634447_rgbf000078-resize_1-target.png,250,4.6705,12,3186,250,feet,jsons/v1_VE250_randls_53.json,641438,898598,40,Man
93,686833,DepthScenes,duration_manipulation_targetAtFixation,jsons/v1_VE250_randls_53.json,http://54.235.29.9/FacialAge/BNav_EC2/DepthDuration/v2_depth_duration_MTurk/v2_DepthDuration_HTML.html#121,121,1920,1080,1920,1080,8-29-2022,13-48-2,94,depth_duration_stimuli/002995_2014-06-15_12-31-26_094959634447_rgbf000150-resize_1/002995_2014-06-15_12-31-26_094959634447_rgbf000150-resize_1-target.png,250,3.8360000000000003,10,3708,250,feet,jsons/v1_VE250_randls_53.json,641438,898598,40,Man
94,686833,DepthScenes,duration_manipulation_targetAtFixation,jsons/v1_VE250_randls_53.json,http://54.235.29.9/FacialAge/BNav_EC2/DepthDuration/v2_depth_duration_MTurk/v2_DepthDuration_HTML.html#121,121,1920,1080,1920,1080,8-29-2022,13-48-2,95,depth_duration_stimuli/002788_2014-06-22_19-36-03_094959634447_rgbf000088-resize_2/002788_2014-06-22_19-36-03_094959634447_rgbf000088-resize_2-target.png,250,1.6465,6,2949,249,feet,jsons/v1_VE250_randls_53.json,641438,898598,40,Man
95,686833,DepthScenes,duration_manipulation_targetAtFixation,jsons/v1_VE250_randls_53.json,http://54.235.29.9/FacialAge/BNav_EC2/DepthDuration/v2_depth_duration_MTurk/v2_DepthDuration_HTML.html#121,121,1920,1080,1920,1080,8-29-2022,13-48-2,96,depth_duration_stimuli/000749_2014-06-08_21-55-06_260595134347_rgbf000070-resize_2/000749_2014-06-08_21-55-06_260595134347_rgbf000070-resize_2-target.png,250,2.331,5,2826,249,feet,jsons/v1_VE250_randls_53.json,641438,898598,40,Man
96,686833,DepthScenes,duration_manipulation_targetAtFixation,jsons/v1_VE250_randls_53.json,http://54.235.29.9/FacialAge/BNav_EC2/DepthDuration/v2_depth_duration_MTurk/v2_DepthDuration_HTML.html#121,121,1920,1080,1920,1080,8-29-2022,13-48-2,97,depth_duration_stimuli/001199_2014-06-17_16-03-48_260595134347_rgbf000077-resize_0/001199_2014-06-17_16-03-48_260595134347_rgbf000077-resize_0-target.png,250,3.4375,10,3234,249,feet,jsons/v1_VE250_randls_53.json,641438,898598,40,Man
97,686833,DepthScenes,duration_manipulation_targetAtFixation,jsons/v1_VE250_randls_53.json,http://54.235.29.9/FacialAge/BNav_EC2/DepthDuration/v2_depth_duration_MTurk/v2_DepthDuration_HTML.html#121,121,1920,1080,1920,1080,8-29-2022,13-48-2,98,depth_duration_stimuli/000502_2014-06-08_23-02-32_260595134347_rgbf000063-resize_4/000502_2014-06-08_23-02-32_260595134347_rgbf000063-resize_4-target.png,250,2.431,5,3275,249,feet,jsons/v1_VE250_randls_53.json,641438,898598,40,Man
98,686833,DepthScenes,duration_manipulation_targetAtFixation,jsons/v1_VE250_randls_53.json,http://54.235.29.9/FacialAge/BNav_EC2/DepthDuration/v2_depth_duration_MTurk/v2_DepthDuration_HTML.html#121,121,1920,1080,1920,1080,8-29-2022,13-48-2,99,depth_duration_stimuli/001540_2014-06-20_17-01-05_260595134347_rgbf000086-resize_2/001540_2014-06-20_17-01-05_260595134347_rgbf000086-resize-original.jpg,250,1.459,0,2971,249,feet,jsons/v1_VE250_randls_53.json,641438,898598,40,Man
99,686833,DepthScenes,duration_manipulation_targetAtFixation,jsons/v1_VE250_randls_53.json,http://54.235.29.9/FacialAge/BNav_EC2/DepthDuration/v2_depth_duration_MTurk/v2_DepthDuration_HTML.html#121,121,1920,1080,1920,1080,8-29-2022,13-48-2,100,depth_duration_stimuli/000739_2014-06-08_18-45-58_260595134347_rgbf000068-resize_1/000739_2014-06-08_18-45-58_260595134347_rgbf000068-resize_1-target.png,250,3.534,8,3070,249,feet,jsons/v1_VE250_randls_53.json,641438,898598,40,Man
100,686833,DepthScenes,duration_manipulation_targetAtFixation,jsons/v1_VE250_randls_53.json,http://54.235.29.9/FacialAge/BNav_EC2/DepthDuration/v2_depth_duration_MTurk/v2_DepthDuration_HTML.html#121,121,1920,1080,1920,1080,8-29-2022,13-48-2,101,depth_duration_stimuli/000734_2014-06-08_17-39-11_260595134347_rgbf000128-resize_2/000734_2014-06-08_17-39-11_260595134347_rgbf000128-resize_2-target.png,250,4.098,6,2868,249,feet,jsons/v1_VE250_randls_53.json,641438,898598,40,Man
101,686833,DepthScenes,duration_manipulation_targetAtFixation,jsons/v1_VE250_randls_53.json,http://54.235.29.9/FacialAge/BNav_EC2/DepthDuration/v2_depth_duration_MTurk/v2_DepthDuration_HTML.html#121,121,1920,1080,1920,1080,8-29-2022,13-48-2,102,depth_duration_stimuli/001016_2014-06-09_16-16-10_260595134347_rgbf000112-resize_5/001016_2014-06-09_16-16-10_260595134347_rgbf000112-resize_5-target.png,250,1.6565,5,2996,249,feet,jsons/v1_VE250_randls_53.json,641438,898598,40,Man
102,686833,DepthScenes,duration_manipulation_targetAtFixation,jsons/v1_VE250_randls_53.json,http://54.235.29.9/FacialAge/BNav_EC2/DepthDuration/v2_depth_duration_MTurk/v2_DepthDuration_HTML.html#121,121,1920,1080,1920,1080,8-29-2022,13-48-2,103,depth_duration_stimuli/002340_2014-06-28_20-05-46_260595134347_rgbf000113-resize_0/002340_2014-06-28_20-05-46_260595134347_rgbf000113-resize_0-target.png,250,2.4735,12,3187,249,feet,jsons/v1_VE250_randls_53.json,641438,898598,40,Man
103,686833,DepthScenes,duration_manipulation_targetAtFixation,jsons/v1_VE250_randls_53.json,http://54.235.29.9/FacialAge/BNav_EC2/DepthDuration/v2_depth_duration_MTurk/v2_DepthDuration_HTML.html#121,121,1920,1080,1920,1080,8-29-2022,13-48-2,104,depth_duration_stimuli/000506_2014-06-08_23-21-00_260595134347_rgbf000070-resize_7/000506_2014-06-08_23-21-00_260595134347_rgbf000070-resize_7-target.png,250,4.0585,10,2922,249,feet,jsons/v1_VE250_randls_53.json,641438,898598,40,Man
104,686833,DepthScenes,duration_manipulation_targetAtFixation,jsons/v1_VE250_randls_53.json,http://54.235.29.9/FacialAge/BNav_EC2/DepthDuration/v2_depth_duration_MTurk/v2_DepthDuration_HTML.html#121,121,1920,1080,1920,1080,8-29-2022,13-48-2,105,depth_duration_stimuli/003079_2014-06-15_15-18-20_094959634447_rgbf000152-resize_8/003079_2014-06-15_15-18-20_094959634447_rgbf000152-resize_8-target.png,250,2.8775,8,2998,248,feet,jsons/v1_VE250_randls_53.json,641438,898598,40,Man
105,686833,DepthScenes,duration_manipulation_targetAtFixation,jsons/v1_VE250_randls_53.json,http://54.235.29.9/FacialAge/BNav_EC2/DepthDuration/v2_depth_duration_MTurk/v2_DepthDuration_HTML.html#121,121,1920,1080,1920,1080,8-29-2022,13-48-2,106,depth_duration_stimuli/000447_2014-06-08_16-15-46_260595134347_rgbf000130-resize_1/000447_2014-06-08_16-15-46_260595134347_rgbf000130-resize_1-target.png,250,4.479,13,5776,249,feet,jsons/v1_VE250_randls_53.json,641438,898598,40,Man
106,686833,DepthScenes,duration_manipulation_targetAtFixation,jsons/v1_VE250_randls_53.json,http://54.235.29.9/FacialAge/BNav_EC2/DepthDuration/v2_depth_duration_MTurk/v2_DepthDuration_HTML.html#121,121,1920,1080,1920,1080,8-29-2022,13-48-2,107,depth_duration_stimuli/001447_2014-06-19_17-00-32_260595134347_rgbf000082-resize_5/001447_2014-06-19_17-00-32_260595134347_rgbf000082-resize_5-target.png,250,4.13775,6,3074,249,feet,jsons/v1_VE250_randls_53.json,641438,898598,40,Man
107,686833,DepthScenes,duration_manipulation_targetAtFixation,jsons/v1_VE250_randls_53.json,http://54.235.29.9/FacialAge/BNav_EC2/DepthDuration/v2_depth_duration_MTurk/v2_DepthDuration_HTML.html#121,121,1920,1080,1920,1080,8-29-2022,13-48-2,108,depth_duration_stimuli/000368_2014-06-09_15-53-01_260595134347_rgbf000155-resize_2/000368_2014-06-09_15-53-01_260595134347_rgbf000155-resize_2-target.png,250,2.4859999999999998,6,5030,250,feet,jsons/v1_VE250_randls_53.json,641438,898598,40,Man
108,686833,DepthScenes,duration_manipulation_targetAtFixation,jsons/v1_VE250_randls_53.json,http://54.235.29.9/FacialAge/BNav_EC2/DepthDuration/v2_depth_duration_MTurk/v2_DepthDuration_HTML.html#121,121,1920,1080,1920,1080,8-29-2022,13-48-2,109,depth_duration_stimuli/002678_2014-06-13_16-15-32_094959634447_rgbf000151-resize_6/002678_2014-06-13_16-15-32_094959634447_rgbf000151-resize_6-target.png,250,2.1830000000000003,10,10634,249,feet,jsons/v1_VE250_randls_53.json,641438,898598,40,Man
109,686833,DepthScenes,duration_manipulation_targetAtFixation,jsons/v1_VE250_randls_53.json,http://54.235.29.9/FacialAge/BNav_EC2/DepthDuration/v2_depth_duration_MTurk/v2_DepthDuration_HTML.html#121,121,1920,1080,1920,1080,8-29-2022,13-48-2,110,depth_duration_stimuli/001555_2014-06-20_17-12-10_260595134347_rgbf000065-resize_4/001555_2014-06-20_17-12-10_260595134347_rgbf000065-resize_4-target.png,250,1.633,2,3060,249,feet,jsons/v1_VE250_randls_53.json,641438,898598,40,Man
110,686833,DepthScenes,duration_manipulation_targetAtFixation,jsons/v1_VE250_randls_53.json,http://54.235.29.9/FacialAge/BNav_EC2/DepthDuration/v2_depth_duration_MTurk/v2_DepthDuration_HTML.html#121,121,1920,1080,1920,1080,8-29-2022,13-48-2,111,depth_duration_stimuli/000103_2014-05-14_22-01-17_260595134347_rgbf000152-resize_5/000103_2014-05-14_22-01-17_260595134347_rgbf000152-resize_5-target.png,250,1.993,5,3010,249,feet,jsons/v1_VE250_randls_53.json,641438,898598,40,Man
111,686833,DepthScenes,duration_manipulation_targetAtFixation,jsons/v1_VE250_randls_53.json,http://54.235.29.9/FacialAge/BNav_EC2/DepthDuration/v2_depth_duration_MTurk/v2_DepthDuration_HTML.html#121,121,1920,1080,1920,1080,8-29-2022,13-48-2,112,depth_duration_stimuli/002763_2014-06-22_19-13-10_094959634447_rgbf000075-resize_4/002763_2014-06-22_19-13-10_094959634447_rgbf000075-resize_4-target.png,250,1.68375,3,2862,249,feet,jsons/v1_VE250_randls_53.json,641438,898598,40,Man
112,686833,DepthScenes,duration_manipulation_targetAtFixation,jsons/v1_VE250_randls_53.json,http://54.235.29.9/FacialAge/BNav_EC2/DepthDuration/v2_depth_duration_MTurk/v2_DepthDuration_HTML.html#121,121,1920,1080,1920,1080,8-29-2022,13-48-2,113,depth_duration_stimuli/002209_2014-06-28_18-36-10_260595134347_rgbf000051-resize_1/002209_2014-06-28_18-36-10_260595134347_rgbf000051-resize_1-target.png,250,2.057,4,3117,250,feet,jsons/v1_VE250_randls_53.json,641438,898598,40,Man
113,686833,DepthScenes,duration_manipulation_targetAtFixation,jsons/v1_VE250_randls_53.json,http://54.235.29.9/FacialAge/BNav_EC2/DepthDuration/v2_depth_duration_MTurk/v2_DepthDuration_HTML.html#121,121,1920,1080,1920,1080,8-29-2022,13-48-2,114,depth_duration_stimuli/000436_2014-06-09_22-25-11_260595134347_rgbf000137-resize_1/000436_2014-06-09_22-25-11_260595134347_rgbf000137-resize_1-target.png,250,4.0705,12,3068,249,feet,jsons/v1_VE250_randls_53.json,641438,898598,40,Man
114,686833,DepthScenes,duration_manipulation_targetAtFixation,jsons/v1_VE250_randls_53.json,http://54.235.29.9/FacialAge/BNav_EC2/DepthDuration/v2_depth_duration_MTurk/v2_DepthDuration_HTML.html#121,121,1920,1080,1920,1080,8-29-2022,13-48-2,115,depth_duration_stimuli/002444_2014-06-28_20-32-08_260595134347_rgbf000027-resize_0/002444_2014-06-28_20-32-08_260595134347_rgbf000027-resize_0-target.png,250,4.388999999999999,10,3325,250,feet,jsons/v1_VE250_randls_53.json,641438,898598,40,Man
115,686833,DepthScenes,duration_manipulation_targetAtFixation,jsons/v1_VE250_randls_53.json,http://54.235.29.9/FacialAge/BNav_EC2/DepthDuration/v2_depth_duration_MTurk/v2_DepthDuration_HTML.html#121,121,1920,1080,1920,1080,8-29-2022,13-48-2,116,depth_duration_stimuli/001170_2014-06-17_15-43-44_260595134347_rgbf000096-resize_6/001170_2014-06-17_15-43-44_260595134347_rgbf000096-resize-original.jpg,250,1.1909999999999998,0,3028,250,feet,jsons/v1_VE250_randls_53.json,641438,898598,40,Man
116,686833,DepthScenes,duration_manipulation_targetAtFixation,jsons/v1_VE250_randls_53.json,http://54.235.29.9/FacialAge/BNav_EC2/DepthDuration/v2_depth_duration_MTurk/v2_DepthDuration_HTML.html#121,121,1920,1080,1920,1080,8-29-2022,13-48-2,117,depth_duration_stimuli/002630_2014-06-24_14-47-50_094959634447_rgbf000055-resize_1/002630_2014-06-24_14-47-50_094959634447_rgbf000055-resize_1-target.png,250,3.0095,12,3093,249,feet,jsons/v1_VE250_randls_53.json,641438,898598,40,Man
117,686833,DepthScenes,duration_manipulation_targetAtFixation,jsons/v1_VE250_randls_53.json,http://54.235.29.9/FacialAge/BNav_EC2/DepthDuration/v2_depth_duration_MTurk/v2_DepthDuration_HTML.html#121,121,1920,1080,1920,1080,8-29-2022,13-48-2,118,depth_duration_stimuli/002758_2014-06-22_19-11-20_094959634447_rgbf000128-resize_1/002758_2014-06-22_19-11-20_094959634447_rgbf000128-resize_1-target.png,250,2.555,6,2868,249,feet,jsons/v1_VE250_randls_53.json,641438,898598,40,Man
118,686833,DepthScenes,duration_manipulation_targetAtFixation,jsons/v1_VE250_randls_53.json,http://54.235.29.9/FacialAge/BNav_EC2/DepthDuration/v2_depth_duration_MTurk/v2_DepthDuration_HTML.html#121,121,1920,1080,1920,1080,8-29-2022,13-48-2,119,depth_duration_stimuli/001808_2014-06-26_20-50-58_260595134347_rgbf000029-resize_1/001808_2014-06-26_20-50-58_260595134347_rgbf000029-resize_1-target.png,250,4.249,10,3486,249,feet,jsons/v1_VE250_randls_53.json,641438,898598,40,Man
119,686833,DepthScenes,duration_manipulation_targetAtFixation,jsons/v1_VE250_randls_53.json,http://54.235.29.9/FacialAge/BNav_EC2/DepthDuration/v2_depth_duration_MTurk/v2_DepthDuration_HTML.html#121,121,1920,1080,1920,1080,8-29-2022,13-48-2,120,depth_duration_stimuli/001815_2014-06-26_20-52-55_260595134347_rgbf000020-resize_0/001815_2014-06-26_20-52-55_260595134347_rgbf000020-resize_0-target.png,250,3.3865,8,2794,249,feet,jsons/v1_VE250_randls_53.json,641438,898598,40,Man
120,686833,DepthScenes,duration_manipulation_targetAtFixation,jsons/v1_VE250_randls_53.json,http://54.235.29.9/FacialAge/BNav_EC2/DepthDuration/v2_depth_duration_MTurk/v2_DepthDuration_HTML.html#121,121,1920,1080,1920,1080,8-29-2022,13-48-2,121,depth_duration_stimuli/000486_2014-06-09_20-47-20_260595134347_rgbf000143-resize_2/000486_2014-06-09_20-47-20_260595134347_rgbf000143-resize_2-target.png,250,4.8325,8,3071,250,feet,jsons/v1_VE250_randls_53.json,641438,898598,40,Man
121,686833,DepthScenes,duration_manipulation_targetAtFixation,jsons/v1_VE250_randls_53.json,http://54.235.29.9/FacialAge/BNav_EC2/DepthDuration/v2_depth_duration_MTurk/v2_DepthDuration_HTML.html#121,121,1920,1080,1920,1080,8-29-2022,13-48-2,122,depth_duration_stimuli/003083_2014-06-15_15-21-03_094959634447_rgbf000063-resize_1/003083_2014-06-15_15-21-03_094959634447_rgbf000063-resize_1-target.png,250,4.1405,10,3236,249,feet,jsons/v1_VE250_randls_53.json,641438,898598,40,Man
122,686833,DepthScenes,duration_manipulation_targetAtFixation,jsons/v1_VE250_randls_53.json,http://54.235.29.9/FacialAge/BNav_EC2/DepthDuration/v2_depth_duration_MTurk/v2_DepthDuration_HTML.html#121,121,1920,1080,1920,1080,8-29-2022,13-48-2,123,depth_duration_stimuli/001806_2014-06-26_20-50-20_260595134347_rgbf000091-resize_1/001806_2014-06-26_20-50-20_260595134347_rgbf000091-resize_1-target.png,250,2.7305,4,2955,250,feet,jsons/v1_VE250_randls_53.json,641438,898598,40,Man
123,686833,DepthScenes,duration_manipulation_targetAtFixation,jsons/v1_VE250_randls_53.json,http://54.235.29.9/FacialAge/BNav_EC2/DepthDuration/v2_depth_duration_MTurk/v2_DepthDuration_HTML.html#121,121,1920,1080,1920,1080,8-29-2022,13-48-2,124,depth_duration_stimuli/001617_2014-06-20_11-35-32_260595134347_rgbf000066-resize_1/001617_2014-06-20_11-35-32_260595134347_rgbf000066-resize_1-target.png,250,3.7910000000000004,10,3137,249,feet,jsons/v1_VE250_randls_53.json,641438,898598,40,Man
124,686833,DepthScenes,duration_manipulation_targetAtFixation,jsons/v1_VE250_randls_53.json,http://54.235.29.9/FacialAge/BNav_EC2/DepthDuration/v2_depth_duration_MTurk/v2_DepthDuration_HTML.html#121,121,1920,1080,1920,1080,8-29-2022,13-48-2,125,depth_duration_stimuli/001150_2014-06-17_15-27-34_260595134347_rgbf000108-resize_2/001150_2014-06-17_15-27-34_260595134347_rgbf000108-resize_2-target.png,250,4.0325,8,2890,249,feet,jsons/v1_VE250_randls_53.json,641438,898598,40,Man
125,686833,DepthScenes,duration_manipulation_targetAtFixation,jsons/v1_VE250_randls_53.json,http://54.235.29.9/FacialAge/BNav_EC2/DepthDuration/v2_depth_duration_MTurk/v2_DepthDuration_HTML.html#121,121,1920,1080,1920,1080,8-29-2022,13-48-2,126,depth_duration_stimuli/000665_2014-06-09_20-42-35_260595134347_rgbf000110-resize_1/000665_2014-06-09_20-42-35_260595134347_rgbf000110-resize_1-target.png,250,3.057,8,3194,249,feet,jsons/v1_VE250_randls_53.json,641438,898598,40,Man
126,686833,DepthScenes,duration_manipulation_targetAtFixation,jsons/v1_VE250_randls_53.json,http://54.235.29.9/FacialAge/BNav_EC2/DepthDuration/v2_depth_duration_MTurk/v2_DepthDuration_HTML.html#121,121,1920,1080,1920,1080,8-29-2022,13-48-2,127,depth_duration_stimuli/003534_2014-05-22_15-06-10_094959634447_rgbf000102-resize_4/003534_2014-05-22_15-06-10_094959634447_rgbf000102-resize_4-target.png,250,1.426,2,2814,249,feet,jsons/v1_VE250_randls_53.json,641438,898598,40,Man
127,686833,DepthScenes,duration_manipulation_targetAtFixation,jsons/v1_VE250_randls_53.json,http://54.235.29.9/FacialAge/BNav_EC2/DepthDuration/v2_depth_duration_MTurk/v2_DepthDuration_HTML.html#121,121,1920,1080,1920,1080,8-29-2022,13-48-2,128,depth_duration_stimuli/002637_2014-06-24_14-51-13_094959634447_rgbf000066-resize_4/002637_2014-06-24_14-51-13_094959634447_rgbf000066-resize_4-target.png,250,1.9955,4,5547,249,feet,jsons/v1_VE250_randls_53.json,641438,898598,40,Man
128,686833,DepthScenes,duration_manipulation_targetAtFixation,jsons/v1_VE250_randls_53.json,http://54.235.29.9/FacialAge/BNav_EC2/DepthDuration/v2_depth_duration_MTurk/v2_DepthDuration_HTML.html#121,121,1920,1080,1920,1080,8-29-2022,13-48-2,129,depth_duration_stimuli/002988_2014-06-15_12-24-20_094959634447_rgbf000150-resize_1/002988_2014-06-15_12-24-20_094959634447_rgbf000150-resize_1-target.png,250,4.7669999999999995,12,3142,249,feet,jsons/v1_VE250_randls_53.json,641438,898598,40,Man
129,686833,DepthScenes,duration_manipulation_targetAtFixation,jsons/v1_VE250_randls_53.json,http://54.235.29.9/FacialAge/BNav_EC2/DepthDuration/v2_depth_duration_MTurk/v2_DepthDuration_HTML.html#121,121,1920,1080,1920,1080,8-29-2022,13-48-2,130,depth_duration_stimuli/001052_2014-06-08_18-24-54_260595134347_rgbf000130-resize_1/001052_2014-06-08_18-24-54_260595134347_rgbf000130-resize_1-target.png,250,4.1045,8,2932,249,feet,jsons/v1_VE250_randls_53.json,641438,898598,40,Man
130,686833,DepthScenes,duration_manipulation_targetAtFixation,jsons/v1_VE250_randls_53.json,http://54.235.29.9/FacialAge/BNav_EC2/DepthDuration/v2_depth_duration_MTurk/v2_DepthDuration_HTML.html#121,121,1920,1080,1920,1080,8-29-2022,13-48-2,131,depth_duration_stimuli/000810_2014-06-08_17-20-01_260595134347_rgbf000105-resize_0/000810_2014-06-08_17-20-01_260595134347_rgbf000105-resize_0-target.png,250,1.4865,4,3657,249,feet,jsons/v1_VE250_randls_53.json,641438,898598,40,Man
131,686833,DepthScenes,duration_manipulation_targetAtFixation,jsons/v1_VE250_randls_53.json,http://54.235.29.9/FacialAge/BNav_EC2/DepthDuration/v2_depth_duration_MTurk/v2_DepthDuration_HTML.html#121,121,1920,1080,1920,1080,8-29-2022,13-48-2,132,depth_duration_stimuli/001214_2014-06-17_16-13-55_260595134347_rgbf000111-resize_0/001214_2014-06-17_16-13-55_260595134347_rgbf000111-resize_0-target.png,250,2.6505,5,2807,250,feet,jsons/v1_VE250_randls_53.json,641438,898598,40,Man
132,686833,DepthScenes,duration_manipulation_targetAtFixation,jsons/v1_VE250_randls_53.json,http://54.235.29.9/FacialAge/BNav_EC2/DepthDuration/v2_depth_duration_MTurk/v2_DepthDuration_HTML.html#121,121,1920,1080,1920,1080,8-29-2022,13-48-2,133,depth_duration_stimuli/001092_2014-06-15_17-34-58_260595134347_rgbf000171-resize_3/001092_2014-06-15_17-34-58_260595134347_rgbf000171-resize_3-target.png,250,2.6935,8,3197,249,feet,jsons/v1_VE250_randls_53.json,641438,898598,40,Man
133,686833,DepthScenes,duration_manipulation_targetAtFixation,jsons/v1_VE250_randls_53.json,http://54.235.29.9/FacialAge/BNav_EC2/DepthDuration/v2_depth_duration_MTurk/v2_DepthDuration_HTML.html#121,121,1920,1080,1920,1080,8-29-2022,13-48-2,134,depth_duration_stimuli/002545_2014-06-24_13-38-53_094959634447_rgbf000080-resize_4/002545_2014-06-24_13-38-53_094959634447_rgbf000080-resize_4-target.png,250,1.9205,8,3456,250,feet,jsons/v1_VE250_randls_53.json,641438,898598,40,Man
134,686833,DepthScenes,duration_manipulation_targetAtFixation,jsons/v1_VE250_randls_53.json,http://54.235.29.9/FacialAge/BNav_EC2/DepthDuration/v2_depth_duration_MTurk/v2_DepthDuration_HTML.html#121,121,1920,1080,1920,1080,8-29-2022,13-48-2,135,depth_duration_stimuli/002072_2014-06-24_21-48-06_260595134347_rgbf000115-resize_0/002072_2014-06-24_21-48-06_260595134347_rgbf000115-resize-original.jpg,250,4.702,0,2754,248,feet,jsons/v1_VE250_randls_53.json,641438,898598,40,Man
135,686833,DepthScenes,duration_manipulation_targetAtFixation,jsons/v1_VE250_randls_53.json,http://54.235.29.9/FacialAge/BNav_EC2/DepthDuration/v2_depth_duration_MTurk/v2_DepthDuration_HTML.html#121,121,1920,1080,1920,1080,8-29-2022,13-48-2,136,depth_duration_stimuli/001167_2014-06-17_15-38-07_260595134347_rgbf000108-resize_0/001167_2014-06-17_15-38-07_260595134347_rgbf000108-resize_0-target.png,250,1.8505,4,2898,250,feet,jsons/v1_VE250_randls_53.json,641438,898598,40,Man
136,686833,DepthScenes,duration_manipulation_targetAtFixation,jsons/v1_VE250_randls_53.json,http://54.235.29.9/FacialAge/BNav_EC2/DepthDuration/v2_depth_duration_MTurk/v2_DepthDuration_HTML.html#121,121,1920,1080,1920,1080,8-29-2022,13-48-2,137,depth_duration_stimuli/003587_2014-05-23_16-48-02_094959634447_rgbf002384-resize_2/003587_2014-05-23_16-48-02_094959634447_rgbf002384-resize_2-target.png,250,1.357,2,3083,249,feet,jsons/v1_VE250_randls_53.json,641438,898598,40,Man
137,686833,DepthScenes,duration_manipulation_targetAtFixation,jsons/v1_VE250_randls_53.json,http://54.235.29.9/FacialAge/BNav_EC2/DepthDuration/v2_depth_duration_MTurk/v2_DepthDuration_HTML.html#121,121,1920,1080,1920,1080,8-29-2022,13-48-2,138,depth_duration_stimuli/000642_2014-06-08_16-59-25_260595134347_rgbf000098-resize_2/000642_2014-06-08_16-59-25_260595134347_rgbf000098-resize_2-target.png,250,2.8815,4,2964,249,feet,jsons/v1_VE250_randls_53.json,641438,898598,40,Man
138,686833,DepthScenes,duration_manipulation_targetAtFixation,jsons/v1_VE250_randls_53.json,http://54.235.29.9/FacialAge/BNav_EC2/DepthDuration/v2_depth_duration_MTurk/v2_DepthDuration_HTML.html#121,121,1920,1080,1920,1080,8-29-2022,13-48-2,139,depth_duration_stimuli/002425_2014-06-28_20-27-29_260595134347_rgbf000031-resize_8/002425_2014-06-28_20-27-29_260595134347_rgbf000031-resize_8-target.png,250,3.8960000000000004,10,3343,249,feet,jsons/v1_VE250_randls_53.json,641438,898598,40,Man
139,686833,DepthScenes,duration_manipulation_targetAtFixation,jsons/v1_VE250_randls_53.json,http://54.235.29.9/FacialAge/BNav_EC2/DepthDuration/v2_depth_duration_MTurk/v2_DepthDuration_HTML.html#121,121,1920,1080,1920,1080,8-29-2022,13-48-2,140,depth_duration_stimuli/000917_2014-06-09_22-45-29_260595134347_rgbf000149-resize_3/000917_2014-06-09_22-45-29_260595134347_rgbf000149-resize_3-target.png,250,4.1865,8,4271,249,feet,jsons/v1_VE250_randls_53.json,641438,898598,40,Man
140,686833,DepthScenes,duration_manipulation_targetAtFixation,jsons/v1_VE250_randls_53.json,http://54.235.29.9/FacialAge/BNav_EC2/DepthDuration/v2_depth_duration_MTurk/v2_DepthDuration_HTML.html#121,121,1920,1080,1920,1080,8-29-2022,13-48-2,141,depth_duration_stimuli/002323_2014-06-28_20-01-54_260595134347_rgbf000051-resize_4/002323_2014-06-28_20-01-54_260595134347_rgbf000051-resize_4-target.png,250,3.7310000000000003,10,3319,249,feet,jsons/v1_VE250_randls_53.json,641438,898598,40,Man
141,686833,DepthScenes,duration_manipulation_targetAtFixation,jsons/v1_VE250_randls_53.json,http://54.235.29.9/FacialAge/BNav_EC2/DepthDuration/v2_depth_duration_MTurk/v2_DepthDuration_HTML.html#121,121,1920,1080,1920,1080,8-29-2022,13-48-2,142,depth_duration_stimuli/000493_2014-06-09_21-01-18_260595134347_rgbf000196-resize_3/000493_2014-06-09_21-01-18_260595134347_rgbf000196-resize_3-target.png,250,3.44,6,3862,250,feet,jsons/v1_VE250_randls_53.json,641438,898598,40,Man
142,686833,DepthScenes,duration_manipulation_targetAtFixation,jsons/v1_VE250_randls_53.json,http://54.235.29.9/FacialAge/BNav_EC2/DepthDuration/v2_depth_duration_MTurk/v2_DepthDuration_HTML.html#121,121,1920,1080,1920,1080,8-29-2022,13-48-2,143,depth_duration_stimuli/000191_2014-05-12_17-07-38_260595134347_rgbf000199-resize_0/000191_2014-05-12_17-07-38_260595134347_rgbf000199-resize_0-target.png,250,3.7995,10,3428,249,feet,jsons/v1_VE250_randls_53.json,641438,898598,40,Man
143,686833,DepthScenes,duration_manipulation_targetAtFixation,jsons/v1_VE250_randls_53.json,http://54.235.29.9/FacialAge/BNav_EC2/DepthDuration/v2_depth_duration_MTurk/v2_DepthDuration_HTML.html#121,121,1920,1080,1920,1080,8-29-2022,13-48-2,144,depth_duration_stimuli/001056_2014-06-08_18-46-44_260595134347_rgbf000068-resize_0/001056_2014-06-08_18-46-44_260595134347_rgbf000068-resize_0-target.png,250,2.6625,7,4942,249,feet,jsons/v1_VE250_randls_53.json,641438,898598,40,Man
144,686833,DepthScenes,duration_manipulation_targetAtFixation,jsons/v1_VE250_randls_53.json,http://54.235.29.9/FacialAge/BNav_EC2/DepthDuration/v2_depth_duration_MTurk/v2_DepthDuration_HTML.html#121,121,1920,1080,1920,1080,8-29-2022,13-48-2,145,depth_duration_stimuli/002199_2014-06-28_18-33-56_260595134347_rgbf000074-resize_0/002199_2014-06-28_18-33-56_260595134347_rgbf000074-resize_0-target.png,250,1.996,3,2688,249,feet,jsons/v1_VE250_randls_53.json,641438,898598,40,Man
145,686833,DepthScenes,duration_manipulation_targetAtFixation,jsons/v1_VE250_randls_53.json,http://54.235.29.9/FacialAge/BNav_EC2/DepthDuration/v2_depth_duration_MTurk/v2_DepthDuration_HTML.html#121,121,1920,1080,1920,1080,8-29-2022,13-48-2,146,depth_duration_stimuli/001498_2014-06-19_17-45-14_260595134347_rgbf000129-resize_4/001498_2014-06-19_17-45-14_260595134347_rgbf000129-resize-original.jpg,250,1.4075,0,3179,249,feet,jsons/v1_VE250_randls_53.json,641438,898598,40,Man
146,686833,DepthScenes,duration_manipulation_targetAtFixation,jsons/v1_VE250_randls_53.json,http://54.235.29.9/FacialAge/BNav_EC2/DepthDuration/v2_depth_duration_MTurk/v2_DepthDuration_HTML.html#121,121,1920,1080,1920,1080,8-29-2022,13-48-2,147,depth_duration_stimuli/000414_2014-06-04_19-49-13_260595134347_rgbf000044-resize_0/000414_2014-06-04_19-49-13_260595134347_rgbf000044-resize_0-target.png,250,4.329,7,4983,249,feet,jsons/v1_VE250_randls_53.json,641438,898598,40,Man
147,686833,DepthScenes,duration_manipulation_targetAtFixation,jsons/v1_VE250_randls_53.json,http://54.235.29.9/FacialAge/BNav_EC2/DepthDuration/v2_depth_duration_MTurk/v2_DepthDuration_HTML.html#121,121,1920,1080,1920,1080,8-29-2022,13-48-2,148,depth_duration_stimuli/003129_2014-05-12_10-48-10_094959634447_rgbf000100-resize_0/003129_2014-05-12_10-48-10_094959634447_rgbf000100-resize_0-target.png,250,4.9305,10,3654,249,feet,jsons/v1_VE250_randls_53.json,641438,898598,40,Man
148,686833,DepthScenes,duration_manipulation_targetAtFixation,jsons/v1_VE250_randls_53.json,http://54.235.29.9/FacialAge/BNav_EC2/DepthDuration/v2_depth_duration_MTurk/v2_DepthDuration_HTML.html#121,121,1920,1080,1920,1080,8-29-2022,13-48-2,149,depth_duration_stimuli/000522_2014-06-08_13-35-06_260595134347_rgbf000244-resize_1/000522_2014-06-08_13-35-06_260595134347_rgbf000244-resize_1-target.png,250,2.3715,2,2718,249,feet,jsons/v1_VE250_randls_53.json,641438,898598,40,Man
149,686833,DepthScenes,duration_manipulation_targetAtFixation,jsons/v1_VE250_randls_53.json,http://54.235.29.9/FacialAge/BNav_EC2/DepthDuration/v2_depth_duration_MTurk/v2_DepthDuration_HTML.html#121,121,1920,1080,1920,1080,8-29-2022,13-48-2,150,depth_duration_stimuli/002949_2014-06-26_15-57-42_094959634447_rgbf000079-resize_1/002949_2014-06-26_15-57-42_094959634447_rgbf000079-resize_1-target.png,250,1.8915,5,2891,249,feet,jsons/v1_VE250_randls_53.json,641438,898598,40,Man
150,686833,DepthScenes,duration_manipulation_targetAtFixation,jsons/v1_VE250_randls_53.json,http://54.235.29.9/FacialAge/BNav_EC2/DepthDuration/v2_depth_duration_MTurk/v2_DepthDuration_HTML.html#121,121,1920,1080,1920,1080,8-29-2022,13-48-2,151,depth_duration_stimuli/000009_2014-05-26_14-32-05_260595134347_rgbf000034-resize_3/000009_2014-05-26_14-32-05_260595134347_rgbf000034-resize_3-target.png,250,3.8715,12,3142,249,feet,jsons/v1_VE250_randls_53.json,641438,898598,40,Man
151,686833,DepthScenes,duration_manipulation_targetAtFixation,jsons/v1_VE250_randls_53.json,http://54.235.29.9/FacialAge/BNav_EC2/DepthDuration/v2_depth_duration_MTurk/v2_DepthDuration_HTML.html#121,121,1920,1080,1920,1080,8-29-2022,13-48-2,152,depth_duration_stimuli/001828_2014-06-26_21-40-03_260595134347_rgbf000024-resize_0/001828_2014-06-26_21-40-03_260595134347_rgbf000024-resize_0-target.png,250,4.8260000000000005,8,4829,250,feet,jsons/v1_VE250_randls_53.json,641438,898598,40,Man
152,686833,DepthScenes,duration_manipulation_targetAtFixation,jsons/v1_VE250_randls_53.json,http://54.235.29.9/FacialAge/BNav_EC2/DepthDuration/v2_depth_duration_MTurk/v2_DepthDuration_HTML.html#121,121,1920,1080,1920,1080,8-29-2022,13-48-2,153,depth_duration_stimuli/001175_2014-06-17_15-45-55_260595134347_rgbf000129-resize_4/001175_2014-06-17_15-45-55_260595134347_rgbf000129-resize_4-target.png,250,4.255,14,3461,249,feet,jsons/v1_VE250_randls_53.json,641438,898598,40,Man
153,686833,DepthScenes,duration_manipulation_targetAtFixation,jsons/v1_VE250_randls_53.json,http://54.235.29.9/FacialAge/BNav_EC2/DepthDuration/v2_depth_duration_MTurk/v2_DepthDuration_HTML.html#121,121,1920,1080,1920,1080,8-29-2022,13-48-2,154,depth_duration_stimuli/003490_2014-05-21_15-50-11_094959634447_rgbf000101-resize_3/003490_2014-05-21_15-50-11_094959634447_rgbf000101-resize_3-target.png,250,3.6445,10,4870,248,feet,jsons/v1_VE250_randls_53.json,641438,898598,40,Man
154,686833,DepthScenes,duration_manipulation_targetAtFixation,jsons/v1_VE250_randls_53.json,http://54.235.29.9/FacialAge/BNav_EC2/DepthDuration/v2_depth_duration_MTurk/v2_DepthDuration_HTML.html#121,121,1920,1080,1920,1080,8-29-2022,13-48-2,155,depth_duration_stimuli/000682_2014-06-08_23-14-58_260595134347_rgbf000041-resize_5/000682_2014-06-08_23-14-58_260595134347_rgbf000041-resize_5-target.png,250,2.7239999999999998,4,3051,249,feet,jsons/v1_VE250_randls_53.json,641438,898598,40,Man
155,686833,DepthScenes,duration_manipulation_targetAtFixation,jsons/v1_VE250_randls_53.json,http://54.235.29.9/FacialAge/BNav_EC2/DepthDuration/v2_depth_duration_MTurk/v2_DepthDuration_HTML.html#121,121,1920,1080,1920,1080,8-29-2022,13-48-2,156,depth_duration_stimuli/001650_2014-06-20_12-09-00_260595134347_rgbf000087-resize_3/001650_2014-06-20_12-09-00_260595134347_rgbf000087-resize_3-target.png,250,1.9505,4,4837,249,feet,jsons/v1_VE250_randls_53.json,641438,898598,40,Man
156,686833,DepthScenes,duration_manipulation_targetAtFixation,jsons/v1_VE250_randls_53.json,http://54.235.29.9/FacialAge/BNav_EC2/DepthDuration/v2_depth_duration_MTurk/v2_DepthDuration_HTML.html#121,121,1920,1080,1920,1080,8-29-2022,13-48-2,157,depth_duration_stimuli/001055_2014-06-08_18-45-35_260595134347_rgbf000111-resize_4/001055_2014-06-08_18-45-35_260595134347_rgbf000111-resize_4-target.png,250,2.4290000000000003,9,2958,250,feet,jsons/v1_VE250_randls_53.json,641438,898598,40,Man
157,686833,DepthScenes,duration_manipulation_targetAtFixation,jsons/v1_VE250_randls_53.json,http://54.235.29.9/FacialAge/BNav_EC2/DepthDuration/v2_depth_duration_MTurk/v2_DepthDuration_HTML.html#121,121,1920,1080,1920,1080,8-29-2022,13-48-2,158,depth_duration_stimuli/000549_2014-06-08_22-10-24_260595134347_rgbf000247-resize_3/000549_2014-06-08_22-10-24_260595134347_rgbf000247-resize_3-target.png,250,1.841,2,2929,250,feet,jsons/v1_VE250_randls_53.json,641438,898598,40,Man
158,686833,DepthScenes,duration_manipulation_targetAtFixation,jsons/v1_VE250_randls_53.json,http://54.235.29.9/FacialAge/BNav_EC2/DepthDuration/v2_depth_duration_MTurk/v2_DepthDuration_HTML.html#121,121,1920,1080,1920,1080,8-29-2022,13-48-2,159,depth_duration_stimuli/001417_2014-06-19_16-25-36_260595134347_rgbf000115-resize_5/001417_2014-06-19_16-25-36_260595134347_rgbf000115-resize_5-target.png,250,4.6255,10,3144,249,feet,jsons/v1_VE250_randls_53.json,641438,898598,40,Man
159,686833,DepthScenes,duration_manipulation_targetAtFixation,jsons/v1_VE250_randls_53.json,http://54.235.29.9/FacialAge/BNav_EC2/DepthDuration/v2_depth_duration_MTurk/v2_DepthDuration_HTML.html#121,121,1920,1080,1920,1080,8-29-2022,13-48-2,160,depth_duration_stimuli/003081_2014-06-15_15-19-16_094959634447_rgbf000150-resize_1/003081_2014-06-15_15-19-16_094959634447_rgbf000150-resize_1-target.png,250,3.9125,7,3111,249,feet,jsons/v1_VE250_randls_53.json,641438,898598,40,Man
160,686833,DepthScenes,duration_manipulation_targetAtFixation,jsons/v1_VE250_randls_53.json,http://54.235.29.9/FacialAge/BNav_EC2/DepthDuration/v2_depth_duration_MTurk/v2_DepthDuration_HTML.html#121,121,1920,1080,1920,1080,8-29-2022,13-48-2,161,depth_duration_stimuli/001029_2014-06-08_13-17-57_260595134347_rgbf000065-resize_1/001029_2014-06-08_13-17-57_260595134347_rgbf000065-resize_1-target.png,250,3.0835,7,6629,250,feet,jsons/v1_VE250_randls_53.json,641438,898598,40,Man
161,686833,DepthScenes,duration_manipulation_targetAtFixation,jsons/v1_VE250_randls_53.json,http://54.235.29.9/FacialAge/BNav_EC2/DepthDuration/v2_depth_duration_MTurk/v2_DepthDuration_HTML.html#121,121,1920,1080,1920,1080,8-29-2022,13-48-2,162,depth_duration_stimuli/000677_2014-06-08_23-10-32_260595134347_rgbf000158-resize_6/000677_2014-06-08_23-10-32_260595134347_rgbf000158-resize_6-target.png,250,3.556,6,2882,249,feet,jsons/v1_VE250_randls_53.json,641438,898598,40,Man
162,686833,DepthScenes,duration_manipulation_targetAtFixation,jsons/v1_VE250_randls_53.json,http://54.235.29.9/FacialAge/BNav_EC2/DepthDuration/v2_depth_duration_MTurk/v2_DepthDuration_HTML.html#121,121,1920,1080,1920,1080,8-29-2022,13-48-2,163,depth_duration_stimuli/002279_2014-06-28_18-55-32_260595134347_rgbf000040-resize_5/002279_2014-06-28_18-55-32_260595134347_rgbf000040-resize_5-target.png,250,1.5043333333333,2,2839,249,feet,jsons/v1_VE250_randls_53.json,641438,898598,40,Man
163,686833,DepthScenes,duration_manipulation_targetAtFixation,jsons/v1_VE250_randls_53.json,http://54.235.29.9/FacialAge/BNav_EC2/DepthDuration/v2_depth_duration_MTurk/v2_DepthDuration_HTML.html#121,121,1920,1080,1920,1080,8-29-2022,13-48-2,164,depth_duration_stimuli/000635_2014-06-08_16-38-42_260595134347_rgbf000106-resize_1/000635_2014-06-08_16-38-42_260595134347_rgbf000106-resize_1-target.png,250,2.074,5,2706,249,feet,jsons/v1_VE250_randls_53.json,641438,898598,40,Man
