,subjID,experimentName,versionName,sequenceName,url,selected_row,windowWidth,windowHeight,screenWidth,screenHeight,startDate,startTime,trial,stimulus,duration,actual_depth,depth_estimate,trial_RT,log_sceneDuration,unitSelection,seq_filepath,experimentTime,totalTime,age,gender
0,687829,DepthScenes,duration_manipulation_targetAtFixation,jsons/v1_VE1000_randls_42.json,http://54.235.29.9/FacialAge/BNav_EC2/DepthDuration/v2_depth_duration_MTurk/v2_DepthDuration_HTML.html#383,383,1517,694,1366,768,9-3-2022,9-21-10,1,depth_duration_stimuli/000758_2014-06-08_22-05-08_260595134347_rgbf000085-resize_0/000758_2014-06-08_22-05-08_260595134347_rgbf000085-resize_0-target.png,1000,3.3810000000000002,23.0,78732,998,feet,jsons/v1_VE1000_randls_42.json,1450845,2054685,25,Man
1,687829,DepthScenes,duration_manipulation_targetAtFixation,jsons/v1_VE1000_randls_42.json,http://54.235.29.9/FacialAge/BNav_EC2/DepthDuration/v2_depth_duration_MTurk/v2_DepthDuration_HTML.html#383,383,1517,694,1366,768,9-3-2022,9-21-10,2,depth_duration_stimuli/000854_2014-06-09_19-43-13_260595134347_rgbf000066-resize_0/000854_2014-06-09_19-43-13_260595134347_rgbf000066-resize_0-target.png,1000,3.068,23.0,170313,999,feet,jsons/v1_VE1000_randls_42.json,1450845,2054685,25,Man
2,687829,DepthScenes,duration_manipulation_targetAtFixation,jsons/v1_VE1000_randls_42.json,http://54.235.29.9/FacialAge/BNav_EC2/DepthDuration/v2_depth_duration_MTurk/v2_DepthDuration_HTML.html#383,383,1517,694,1366,768,9-3-2022,9-21-10,3,depth_duration_stimuli/002600_2014-06-24_14-27-04_094959634447_rgbf000074-resize_2/002600_2014-06-24_14-27-04_094959634447_rgbf000074-resize_2-target.png,1000,2.7575,25.0,3466,998,feet,jsons/v1_VE1000_randls_42.json,1450845,2054685,25,Man
3,687829,DepthScenes,duration_manipulation_targetAtFixation,jsons/v1_VE1000_randls_42.json,http://54.235.29.9/FacialAge/BNav_EC2/DepthDuration/v2_depth_duration_MTurk/v2_DepthDuration_HTML.html#383,383,1517,694,1366,768,9-3-2022,9-21-10,4,depth_duration_stimuli/003228_2014-05-14_13-42-35_094959634447_rgbf000101-resize_1/003228_2014-05-14_13-42-35_094959634447_rgbf000101-resize_1-target.png,1000,1.9680000000000002,26.0,3235,1000,feet,jsons/v1_VE1000_randls_42.json,1450845,2054685,25,Man
4,687829,DepthScenes,duration_manipulation_targetAtFixation,jsons/v1_VE1000_randls_42.json,http://54.235.29.9/FacialAge/BNav_EC2/DepthDuration/v2_depth_duration_MTurk/v2_DepthDuration_HTML.html#383,383,1517,694,1366,768,9-3-2022,9-21-10,5,depth_duration_stimuli/000682_2014-06-08_23-14-58_260595134347_rgbf000041-resize_5/000682_2014-06-08_23-14-58_260595134347_rgbf000041-resize_5-target.png,1000,2.7239999999999998,52.0,3106,1000,feet,jsons/v1_VE1000_randls_42.json,1450845,2054685,25,Man
5,687829,DepthScenes,duration_manipulation_targetAtFixation,jsons/v1_VE1000_randls_42.json,http://54.235.29.9/FacialAge/BNav_EC2/DepthDuration/v2_depth_duration_MTurk/v2_DepthDuration_HTML.html#383,383,1517,694,1366,768,9-3-2022,9-21-10,6,depth_duration_stimuli/001650_2014-06-20_12-09-00_260595134347_rgbf000087-resize_3/001650_2014-06-20_12-09-00_260595134347_rgbf000087-resize_3-target.png,1000,1.9505,12.0,3123,998,feet,jsons/v1_VE1000_randls_42.json,1450845,2054685,25,Man
6,687829,DepthScenes,duration_manipulation_targetAtFixation,jsons/v1_VE1000_randls_42.json,http://54.235.29.9/FacialAge/BNav_EC2/DepthDuration/v2_depth_duration_MTurk/v2_DepthDuration_HTML.html#383,383,1517,694,1366,768,9-3-2022,9-21-10,7,depth_duration_stimuli/002272_2014-06-28_18-53-56_260595134347_rgbf000067-resize_2/002272_2014-06-28_18-53-56_260595134347_rgbf000067-resize_2-target.png,1000,1.138,1.0,3058,1000,feet,jsons/v1_VE1000_randls_42.json,1450845,2054685,25,Man
7,687829,DepthScenes,duration_manipulation_targetAtFixation,jsons/v1_VE1000_randls_42.json,http://54.235.29.9/FacialAge/BNav_EC2/DepthDuration/v2_depth_duration_MTurk/v2_DepthDuration_HTML.html#383,383,1517,694,1366,768,9-3-2022,9-21-10,8,depth_duration_stimuli/001571_2014-06-20_17-21-32_260595134347_rgbf000089-resize_1/001571_2014-06-20_17-21-32_260595134347_rgbf000089-resize_1-target.png,1000,1.86,25.0,3130,1000,feet,jsons/v1_VE1000_randls_42.json,1450845,2054685,25,Man
8,687829,DepthScenes,duration_manipulation_targetAtFixation,jsons/v1_VE1000_randls_42.json,http://54.235.29.9/FacialAge/BNav_EC2/DepthDuration/v2_depth_duration_MTurk/v2_DepthDuration_HTML.html#383,383,1517,694,1366,768,9-3-2022,9-21-10,9,depth_duration_stimuli/002375_2014-06-28_20-13-44_260595134347_rgbf000032-resize_1/002375_2014-06-28_20-13-44_260595134347_rgbf000032-resize_1-target.png,1000,4.0175,23.0,3114,1000,feet,jsons/v1_VE1000_randls_42.json,1450845,2054685,25,Man
9,687829,DepthScenes,duration_manipulation_targetAtFixation,jsons/v1_VE1000_randls_42.json,http://54.235.29.9/FacialAge/BNav_EC2/DepthDuration/v2_depth_duration_MTurk/v2_DepthDuration_HTML.html#383,383,1517,694,1366,768,9-3-2022,9-21-10,10,depth_duration_stimuli/002657_2014-06-13_15-29-54_094959634447_rgbf000150-resize_1/002657_2014-06-13_15-29-54_094959634447_rgbf000150-resize_1-target.png,1000,4.919,23.0,2922,999,feet,jsons/v1_VE1000_randls_42.json,1450845,2054685,25,Man
10,687829,DepthScenes,duration_manipulation_targetAtFixation,jsons/v1_VE1000_randls_42.json,http://54.235.29.9/FacialAge/BNav_EC2/DepthDuration/v2_depth_duration_MTurk/v2_DepthDuration_HTML.html#383,383,1517,694,1366,768,9-3-2022,9-21-10,11,depth_duration_stimuli/002989_2014-06-15_12-25-03_094959634447_rgbf000150-resize_3/002989_2014-06-15_12-25-03_094959634447_rgbf000150-resize_3-target.png,1000,4.1975,12.0,2354,999,feet,jsons/v1_VE1000_randls_42.json,1450845,2054685,25,Man
11,687829,DepthScenes,duration_manipulation_targetAtFixation,jsons/v1_VE1000_randls_42.json,http://54.235.29.9/FacialAge/BNav_EC2/DepthDuration/v2_depth_duration_MTurk/v2_DepthDuration_HTML.html#383,383,1517,694,1366,768,9-3-2022,9-21-10,12,depth_duration_stimuli/000866_2014-06-09_20-45-42_260595134347_rgbf000139-resize_1/000866_2014-06-09_20-45-42_260595134347_rgbf000139-resize_1-target.png,1000,3.2155,15.0,2937,999,feet,jsons/v1_VE1000_randls_42.json,1450845,2054685,25,Man
12,687829,DepthScenes,duration_manipulation_targetAtFixation,jsons/v1_VE1000_randls_42.json,http://54.235.29.9/FacialAge/BNav_EC2/DepthDuration/v2_depth_duration_MTurk/v2_DepthDuration_HTML.html#383,383,1517,694,1366,768,9-3-2022,9-21-10,13,depth_duration_stimuli/000569_2014-06-09_22-51-47_260595134347_rgbf000141-resize_3/000569_2014-06-09_22-51-47_260595134347_rgbf000141-resize-original.jpg,1000,4.512,25.2,3402,1000,feet,jsons/v1_VE1000_randls_42.json,1450845,2054685,25,Man
13,687829,DepthScenes,duration_manipulation_targetAtFixation,jsons/v1_VE1000_randls_42.json,http://54.235.29.9/FacialAge/BNav_EC2/DepthDuration/v2_depth_duration_MTurk/v2_DepthDuration_HTML.html#383,383,1517,694,1366,768,9-3-2022,9-21-10,14,depth_duration_stimuli/002057_2014-06-24_21-00-13_260595134347_rgbf000120-resize_1/002057_2014-06-24_21-00-13_260595134347_rgbf000120-resize_1-target.png,1000,2.967,12.0,3722,999,feet,jsons/v1_VE1000_randls_42.json,1450845,2054685,25,Man
14,687829,DepthScenes,duration_manipulation_targetAtFixation,jsons/v1_VE1000_randls_42.json,http://54.235.29.9/FacialAge/BNav_EC2/DepthDuration/v2_depth_duration_MTurk/v2_DepthDuration_HTML.html#383,383,1517,694,1366,768,9-3-2022,9-21-10,15,depth_duration_stimuli/000709_2014-06-08_13-51-55_260595134347_rgbf000068-resize_3/000709_2014-06-08_13-51-55_260595134347_rgbf000068-resize_3-target.png,1000,1.8030000000000002,12.0,3442,1000,feet,jsons/v1_VE1000_randls_42.json,1450845,2054685,25,Man
15,687829,DepthScenes,duration_manipulation_targetAtFixation,jsons/v1_VE1000_randls_42.json,http://54.235.29.9/FacialAge/BNav_EC2/DepthDuration/v2_depth_duration_MTurk/v2_DepthDuration_HTML.html#383,383,1517,694,1366,768,9-3-2022,9-21-10,16,depth_duration_stimuli/001555_2014-06-20_17-12-10_260595134347_rgbf000065-resize_4/001555_2014-06-20_17-12-10_260595134347_rgbf000065-resize_4-target.png,1000,1.633,15.0,2994,999,feet,jsons/v1_VE1000_randls_42.json,1450845,2054685,25,Man
16,687829,DepthScenes,duration_manipulation_targetAtFixation,jsons/v1_VE1000_randls_42.json,http://54.235.29.9/FacialAge/BNav_EC2/DepthDuration/v2_depth_duration_MTurk/v2_DepthDuration_HTML.html#383,383,1517,694,1366,768,9-3-2022,9-21-10,17,depth_duration_stimuli/000103_2014-05-14_22-01-17_260595134347_rgbf000152-resize_5/000103_2014-05-14_22-01-17_260595134347_rgbf000152-resize_5-target.png,1000,1.993,15.0,2978,999,feet,jsons/v1_VE1000_randls_42.json,1450845,2054685,25,Man
17,687829,DepthScenes,duration_manipulation_targetAtFixation,jsons/v1_VE1000_randls_42.json,http://54.235.29.9/FacialAge/BNav_EC2/DepthDuration/v2_depth_duration_MTurk/v2_DepthDuration_HTML.html#383,383,1517,694,1366,768,9-3-2022,9-21-10,18,depth_duration_stimuli/001164_2014-06-17_15-35-46_260595134347_rgbf000085-resize_3/001164_2014-06-17_15-35-46_260595134347_rgbf000085-resize_3-target.png,1000,2.354,15.0,7533,1000,feet,jsons/v1_VE1000_randls_42.json,1450845,2054685,25,Man
18,687829,DepthScenes,duration_manipulation_targetAtFixation,jsons/v1_VE1000_randls_42.json,http://54.235.29.9/FacialAge/BNav_EC2/DepthDuration/v2_depth_duration_MTurk/v2_DepthDuration_HTML.html#383,383,1517,694,1366,768,9-3-2022,9-21-10,19,depth_duration_stimuli/001136_2014-06-17_15-19-41_260595134347_rgbf000076-resize_3/001136_2014-06-17_15-19-41_260595134347_rgbf000076-resize_3-target.png,1000,1.8655,25.0,3226,999,feet,jsons/v1_VE1000_randls_42.json,1450845,2054685,25,Man
19,687829,DepthScenes,duration_manipulation_targetAtFixation,jsons/v1_VE1000_randls_42.json,http://54.235.29.9/FacialAge/BNav_EC2/DepthDuration/v2_depth_duration_MTurk/v2_DepthDuration_HTML.html#383,383,1517,694,1366,768,9-3-2022,9-21-10,20,depth_duration_stimuli/001158_2014-06-17_15-32-16_260595134347_rgbf000138-resize_2/001158_2014-06-17_15-32-16_260595134347_rgbf000138-resize_2-target.png,1000,4.5315,52.0,3082,999,feet,jsons/v1_VE1000_randls_42.json,1450845,2054685,25,Man
20,687829,DepthScenes,duration_manipulation_targetAtFixation,jsons/v1_VE1000_randls_42.json,http://54.235.29.9/FacialAge/BNav_EC2/DepthDuration/v2_depth_duration_MTurk/v2_DepthDuration_HTML.html#383,383,1517,694,1366,768,9-3-2022,9-21-10,21,depth_duration_stimuli/000556_2014-06-09_22-42-56_260595134347_rgbf000214-resize_1/000556_2014-06-09_22-42-56_260595134347_rgbf000214-resize_1-target.png,1000,4.8415,12.0,3161,999,feet,jsons/v1_VE1000_randls_42.json,1450845,2054685,25,Man
21,687829,DepthScenes,duration_manipulation_targetAtFixation,jsons/v1_VE1000_randls_42.json,http://54.235.29.9/FacialAge/BNav_EC2/DepthDuration/v2_depth_duration_MTurk/v2_DepthDuration_HTML.html#383,383,1517,694,1366,768,9-3-2022,9-21-10,22,depth_duration_stimuli/002509_2014-06-24_13-19-22_094959634447_rgbf000077-resize_0/002509_2014-06-24_13-19-22_094959634447_rgbf000077-resize_0-target.png,1000,1.3065,2.0,3028,1002,feet,jsons/v1_VE1000_randls_42.json,1450845,2054685,25,Man
22,687829,DepthScenes,duration_manipulation_targetAtFixation,jsons/v1_VE1000_randls_42.json,http://54.235.29.9/FacialAge/BNav_EC2/DepthDuration/v2_depth_duration_MTurk/v2_DepthDuration_HTML.html#383,383,1517,694,1366,768,9-3-2022,9-21-10,23,depth_duration_stimuli/003338_2014-05-20_11-01-23_094959634447_rgbf000051-resize_6/003338_2014-05-20_11-01-23_094959634447_rgbf000051-resize_6-target.png,1000,1.693,12.0,3314,999,feet,jsons/v1_VE1000_randls_42.json,1450845,2054685,25,Man
23,687829,DepthScenes,duration_manipulation_targetAtFixation,jsons/v1_VE1000_randls_42.json,http://54.235.29.9/FacialAge/BNav_EC2/DepthDuration/v2_depth_duration_MTurk/v2_DepthDuration_HTML.html#383,383,1517,694,1366,768,9-3-2022,9-21-10,24,depth_duration_stimuli/001244_2014-06-17_16-47-45_260595134347_rgbf000030-resize_4/001244_2014-06-17_16-47-45_260595134347_rgbf000030-resize_4-target.png,1000,2.0425,23.0,3266,1000,feet,jsons/v1_VE1000_randls_42.json,1450845,2054685,25,Man
24,687829,DepthScenes,duration_manipulation_targetAtFixation,jsons/v1_VE1000_randls_42.json,http://54.235.29.9/FacialAge/BNav_EC2/DepthDuration/v2_depth_duration_MTurk/v2_DepthDuration_HTML.html#383,383,1517,694,1366,768,9-3-2022,9-21-10,25,depth_duration_stimuli/003495_2014-05-21_16-01-51_094959634447_rgbf000100-resize_3/003495_2014-05-21_16-01-51_094959634447_rgbf000100-resize_3-target.png,1000,1.6255,52.0,3354,999,feet,jsons/v1_VE1000_randls_42.json,1450845,2054685,25,Man
25,687829,DepthScenes,duration_manipulation_targetAtFixation,jsons/v1_VE1000_randls_42.json,http://54.235.29.9/FacialAge/BNav_EC2/DepthDuration/v2_depth_duration_MTurk/v2_DepthDuration_HTML.html#383,383,1517,694,1366,768,9-3-2022,9-21-10,26,depth_duration_stimuli/001066_2014-06-08_22-03-20_260595134347_rgbf000066-resize_4/001066_2014-06-08_22-03-20_260595134347_rgbf000066-resize_4-target.png,1000,4.2330000000000005,12.0,3299,999,feet,jsons/v1_VE1000_randls_42.json,1450845,2054685,25,Man
26,687829,DepthScenes,duration_manipulation_targetAtFixation,jsons/v1_VE1000_randls_42.json,http://54.235.29.9/FacialAge/BNav_EC2/DepthDuration/v2_depth_duration_MTurk/v2_DepthDuration_HTML.html#383,383,1517,694,1366,768,9-3-2022,9-21-10,27,depth_duration_stimuli/000742_2014-06-08_18-48-09_260595134347_rgbf000164-resize_4/000742_2014-06-08_18-48-09_260595134347_rgbf000164-resize_4-target.png,1000,4.632,26.0,5675,1001,feet,jsons/v1_VE1000_randls_42.json,1450845,2054685,25,Man
27,687829,DepthScenes,duration_manipulation_targetAtFixation,jsons/v1_VE1000_randls_42.json,http://54.235.29.9/FacialAge/BNav_EC2/DepthDuration/v2_depth_duration_MTurk/v2_DepthDuration_HTML.html#383,383,1517,694,1366,768,9-3-2022,9-21-10,28,depth_duration_stimuli/002725_2014-06-22_11-47-51_094959634447_rgbf000070-resize_1/002725_2014-06-22_11-47-51_094959634447_rgbf000070-resize_1-target.png,1000,2.195,15.0,3211,1000,feet,jsons/v1_VE1000_randls_42.json,1450845,2054685,25,Man
28,687829,DepthScenes,duration_manipulation_targetAtFixation,jsons/v1_VE1000_randls_42.json,http://54.235.29.9/FacialAge/BNav_EC2/DepthDuration/v2_depth_duration_MTurk/v2_DepthDuration_HTML.html#383,383,1517,694,1366,768,9-3-2022,9-21-10,29,depth_duration_stimuli/002344_2014-06-28_20-06-29_260595134347_rgbf000030-resize_1/002344_2014-06-28_20-06-29_260595134347_rgbf000030-resize_1-target.png,1000,1.5795,53.0,5210,1000,feet,jsons/v1_VE1000_randls_42.json,1450845,2054685,25,Man
29,687829,DepthScenes,duration_manipulation_targetAtFixation,jsons/v1_VE1000_randls_42.json,http://54.235.29.9/FacialAge/BNav_EC2/DepthDuration/v2_depth_duration_MTurk/v2_DepthDuration_HTML.html#383,383,1517,694,1366,768,9-3-2022,9-21-10,30,depth_duration_stimuli/000375_2014-06-08_11-17-29_260595134347_rgbf000133-resize_2/000375_2014-06-08_11-17-29_260595134347_rgbf000133-resize-original.jpg,1000,4.718,12.0,3346,999,feet,jsons/v1_VE1000_randls_42.json,1450845,2054685,25,Man
30,687829,DepthScenes,duration_manipulation_targetAtFixation,jsons/v1_VE1000_randls_42.json,http://54.235.29.9/FacialAge/BNav_EC2/DepthDuration/v2_depth_duration_MTurk/v2_DepthDuration_HTML.html#383,383,1517,694,1366,768,9-3-2022,9-21-10,31,depth_duration_stimuli/000486_2014-06-09_20-47-20_260595134347_rgbf000143-resize_2/000486_2014-06-09_20-47-20_260595134347_rgbf000143-resize_2-target.png,1000,4.8325,63.0,5298,1000,feet,jsons/v1_VE1000_randls_42.json,1450845,2054685,25,Man
31,687829,DepthScenes,duration_manipulation_targetAtFixation,jsons/v1_VE1000_randls_42.json,http://54.235.29.9/FacialAge/BNav_EC2/DepthDuration/v2_depth_duration_MTurk/v2_DepthDuration_HTML.html#383,383,1517,694,1366,768,9-3-2022,9-21-10,32,depth_duration_stimuli/003083_2014-06-15_15-21-03_094959634447_rgbf000063-resize_1/003083_2014-06-15_15-21-03_094959634447_rgbf000063-resize_1-target.png,1000,4.1405,12.0,3315,1001,feet,jsons/v1_VE1000_randls_42.json,1450845,2054685,25,Man
32,687829,DepthScenes,duration_manipulation_targetAtFixation,jsons/v1_VE1000_randls_42.json,http://54.235.29.9/FacialAge/BNav_EC2/DepthDuration/v2_depth_duration_MTurk/v2_DepthDuration_HTML.html#383,383,1517,694,1366,768,9-3-2022,9-21-10,33,depth_duration_stimuli/001417_2014-06-19_16-25-36_260595134347_rgbf000115-resize_5/001417_2014-06-19_16-25-36_260595134347_rgbf000115-resize_5-target.png,1000,4.6255,25.0,4558,999,feet,jsons/v1_VE1000_randls_42.json,1450845,2054685,25,Man
33,687829,DepthScenes,duration_manipulation_targetAtFixation,jsons/v1_VE1000_randls_42.json,http://54.235.29.9/FacialAge/BNav_EC2/DepthDuration/v2_depth_duration_MTurk/v2_DepthDuration_HTML.html#383,383,1517,694,1366,768,9-3-2022,9-21-10,34,depth_duration_stimuli/003081_2014-06-15_15-19-16_094959634447_rgbf000150-resize_1/003081_2014-06-15_15-19-16_094959634447_rgbf000150-resize_1-target.png,1000,3.9125,12.0,3108,999,feet,jsons/v1_VE1000_randls_42.json,1450845,2054685,25,Man
34,687829,DepthScenes,duration_manipulation_targetAtFixation,jsons/v1_VE1000_randls_42.json,http://54.235.29.9/FacialAge/BNav_EC2/DepthDuration/v2_depth_duration_MTurk/v2_DepthDuration_HTML.html#383,383,1517,694,1366,768,9-3-2022,9-21-10,35,depth_duration_stimuli/000368_2014-06-09_15-53-01_260595134347_rgbf000155-resize_2/000368_2014-06-09_15-53-01_260595134347_rgbf000155-resize_2-target.png,1000,2.4859999999999998,32.0,3394,999,feet,jsons/v1_VE1000_randls_42.json,1450845,2054685,25,Man
35,687829,DepthScenes,duration_manipulation_targetAtFixation,jsons/v1_VE1000_randls_42.json,http://54.235.29.9/FacialAge/BNav_EC2/DepthDuration/v2_depth_duration_MTurk/v2_DepthDuration_HTML.html#383,383,1517,694,1366,768,9-3-2022,9-21-10,36,depth_duration_stimuli/002678_2014-06-13_16-15-32_094959634447_rgbf000151-resize_6/002678_2014-06-13_16-15-32_094959634447_rgbf000151-resize_6-target.png,1000,2.1830000000000003,1.0,2834,1000,feet,jsons/v1_VE1000_randls_42.json,1450845,2054685,25,Man
36,687829,DepthScenes,duration_manipulation_targetAtFixation,jsons/v1_VE1000_randls_42.json,http://54.235.29.9/FacialAge/BNav_EC2/DepthDuration/v2_depth_duration_MTurk/v2_DepthDuration_HTML.html#383,383,1517,694,1366,768,9-3-2022,9-21-10,37,depth_duration_stimuli/002763_2014-06-22_19-13-10_094959634447_rgbf000075-resize_4/002763_2014-06-22_19-13-10_094959634447_rgbf000075-resize_4-target.png,1000,1.68375,25.0,3042,999,feet,jsons/v1_VE1000_randls_42.json,1450845,2054685,25,Man
37,687829,DepthScenes,duration_manipulation_targetAtFixation,jsons/v1_VE1000_randls_42.json,http://54.235.29.9/FacialAge/BNav_EC2/DepthDuration/v2_depth_duration_MTurk/v2_DepthDuration_HTML.html#383,383,1517,694,1366,768,9-3-2022,9-21-10,38,depth_duration_stimuli/002209_2014-06-28_18-36-10_260595134347_rgbf000051-resize_1/002209_2014-06-28_18-36-10_260595134347_rgbf000051-resize_1-target.png,1000,2.057,23.0,3161,999,feet,jsons/v1_VE1000_randls_42.json,1450845,2054685,25,Man
38,687829,DepthScenes,duration_manipulation_targetAtFixation,jsons/v1_VE1000_randls_42.json,http://54.235.29.9/FacialAge/BNav_EC2/DepthDuration/v2_depth_duration_MTurk/v2_DepthDuration_HTML.html#383,383,1517,694,1366,768,9-3-2022,9-21-10,39,depth_duration_stimuli/001055_2014-06-08_18-45-35_260595134347_rgbf000111-resize_4/001055_2014-06-08_18-45-35_260595134347_rgbf000111-resize_4-target.png,1000,2.4290000000000003,12.0,3195,1000,feet,jsons/v1_VE1000_randls_42.json,1450845,2054685,25,Man
39,687829,DepthScenes,duration_manipulation_targetAtFixation,jsons/v1_VE1000_randls_42.json,http://54.235.29.9/FacialAge/BNav_EC2/DepthDuration/v2_depth_duration_MTurk/v2_DepthDuration_HTML.html#383,383,1517,694,1366,768,9-3-2022,9-21-10,40,depth_duration_stimuli/000549_2014-06-08_22-10-24_260595134347_rgbf000247-resize_3/000549_2014-06-08_22-10-24_260595134347_rgbf000247-resize_3-target.png,1000,1.841,23.0,3283,1000,feet,jsons/v1_VE1000_randls_42.json,1450845,2054685,25,Man
40,687829,DepthScenes,duration_manipulation_targetAtFixation,jsons/v1_VE1000_randls_42.json,http://54.235.29.9/FacialAge/BNav_EC2/DepthDuration/v2_depth_duration_MTurk/v2_DepthDuration_HTML.html#383,383,1517,694,1366,768,9-3-2022,9-21-10,41,depth_duration_stimuli/002748_2014-06-22_19-07-22_094959634447_rgbf000078-resize_1/002748_2014-06-22_19-07-22_094959634447_rgbf000078-resize_1-target.png,1000,4.6705,12.0,4448,999,feet,jsons/v1_VE1000_randls_42.json,1450845,2054685,25,Man
41,687829,DepthScenes,duration_manipulation_targetAtFixation,jsons/v1_VE1000_randls_42.json,http://54.235.29.9/FacialAge/BNav_EC2/DepthDuration/v2_depth_duration_MTurk/v2_DepthDuration_HTML.html#383,383,1517,694,1366,768,9-3-2022,9-21-10,42,depth_duration_stimuli/002995_2014-06-15_12-31-26_094959634447_rgbf000150-resize_1/002995_2014-06-15_12-31-26_094959634447_rgbf000150-resize_1-target.png,1000,3.8360000000000003,23.0,3619,1000,feet,jsons/v1_VE1000_randls_42.json,1450845,2054685,25,Man
42,687829,DepthScenes,duration_manipulation_targetAtFixation,jsons/v1_VE1000_randls_42.json,http://54.235.29.9/FacialAge/BNav_EC2/DepthDuration/v2_depth_duration_MTurk/v2_DepthDuration_HTML.html#383,383,1517,694,1366,768,9-3-2022,9-21-10,43,depth_duration_stimuli/003534_2014-05-22_15-06-10_094959634447_rgbf000102-resize_4/003534_2014-05-22_15-06-10_094959634447_rgbf000102-resize_4-target.png,1000,1.426,25.0,3058,1000,feet,jsons/v1_VE1000_randls_42.json,1450845,2054685,25,Man
43,687829,DepthScenes,duration_manipulation_targetAtFixation,jsons/v1_VE1000_randls_42.json,http://54.235.29.9/FacialAge/BNav_EC2/DepthDuration/v2_depth_duration_MTurk/v2_DepthDuration_HTML.html#383,383,1517,694,1366,768,9-3-2022,9-21-10,44,depth_duration_stimuli/002637_2014-06-24_14-51-13_094959634447_rgbf000066-resize_4/002637_2014-06-24_14-51-13_094959634447_rgbf000066-resize_4-target.png,1000,1.9955,12.0,3098,999,feet,jsons/v1_VE1000_randls_42.json,1450845,2054685,25,Man
44,687829,DepthScenes,duration_manipulation_targetAtFixation,jsons/v1_VE1000_randls_42.json,http://54.235.29.9/FacialAge/BNav_EC2/DepthDuration/v2_depth_duration_MTurk/v2_DepthDuration_HTML.html#383,383,1517,694,1366,768,9-3-2022,9-21-10,45,depth_duration_stimuli/000787_2014-06-08_22-33-53_260595134347_rgbf000175-resize_1/000787_2014-06-08_22-33-53_260595134347_rgbf000175-resize-original.jpg,1000,4.784,52.0,3267,999,feet,jsons/v1_VE1000_randls_42.json,1450845,2054685,25,Man
45,687829,DepthScenes,duration_manipulation_targetAtFixation,jsons/v1_VE1000_randls_42.json,http://54.235.29.9/FacialAge/BNav_EC2/DepthDuration/v2_depth_duration_MTurk/v2_DepthDuration_HTML.html#383,383,1517,694,1366,768,9-3-2022,9-21-10,46,depth_duration_stimuli/000506_2014-06-08_23-21-00_260595134347_rgbf000070-resize_7/000506_2014-06-08_23-21-00_260595134347_rgbf000070-resize_7-target.png,1000,4.0585,12.0,4194,998,feet,jsons/v1_VE1000_randls_42.json,1450845,2054685,25,Man
46,687829,DepthScenes,duration_manipulation_targetAtFixation,jsons/v1_VE1000_randls_42.json,http://54.235.29.9/FacialAge/BNav_EC2/DepthDuration/v2_depth_duration_MTurk/v2_DepthDuration_HTML.html#383,383,1517,694,1366,768,9-3-2022,9-21-10,47,depth_duration_stimuli/003079_2014-06-15_15-18-20_094959634447_rgbf000152-resize_8/003079_2014-06-15_15-18-20_094959634447_rgbf000152-resize_8-target.png,1000,2.8775,23.0,4324,998,feet,jsons/v1_VE1000_randls_42.json,1450845,2054685,25,Man
47,687829,DepthScenes,duration_manipulation_targetAtFixation,jsons/v1_VE1000_randls_42.json,http://54.235.29.9/FacialAge/BNav_EC2/DepthDuration/v2_depth_duration_MTurk/v2_DepthDuration_HTML.html#383,383,1517,694,1366,768,9-3-2022,9-21-10,48,depth_duration_stimuli/001110_2014-06-15_17-25-28_260595134347_rgbf000150-resize_1/001110_2014-06-15_17-25-28_260595134347_rgbf000150-resize_1-target.png,1000,1.7115,23.0,3698,1000,feet,jsons/v1_VE1000_randls_42.json,1450845,2054685,25,Man
48,687829,DepthScenes,duration_manipulation_targetAtFixation,jsons/v1_VE1000_randls_42.json,http://54.235.29.9/FacialAge/BNav_EC2/DepthDuration/v2_depth_duration_MTurk/v2_DepthDuration_HTML.html#383,383,1517,694,1366,768,9-3-2022,9-21-10,49,depth_duration_stimuli/000927_2014-06-09_16-32-30_260595134347_rgbf000123-resize_3/000927_2014-06-09_16-32-30_260595134347_rgbf000123-resize_3-target.png,1000,2.6785,2.0,2859,1001,feet,jsons/v1_VE1000_randls_42.json,1450845,2054685,25,Man
49,687829,DepthScenes,duration_manipulation_targetAtFixation,jsons/v1_VE1000_randls_42.json,http://54.235.29.9/FacialAge/BNav_EC2/DepthDuration/v2_depth_duration_MTurk/v2_DepthDuration_HTML.html#383,383,1517,694,1366,768,9-3-2022,9-21-10,50,depth_duration_stimuli/000739_2014-06-08_18-45-58_260595134347_rgbf000068-resize_1/000739_2014-06-08_18-45-58_260595134347_rgbf000068-resize_1-target.png,1000,3.534,3.0,2715,1000,feet,jsons/v1_VE1000_randls_42.json,1450845,2054685,25,Man
50,687829,DepthScenes,duration_manipulation_targetAtFixation,jsons/v1_VE1000_randls_42.json,http://54.235.29.9/FacialAge/BNav_EC2/DepthDuration/v2_depth_duration_MTurk/v2_DepthDuration_HTML.html#383,383,1517,694,1366,768,9-3-2022,9-21-10,51,depth_duration_stimuli/000734_2014-06-08_17-39-11_260595134347_rgbf000128-resize_2/000734_2014-06-08_17-39-11_260595134347_rgbf000128-resize_2-target.png,1000,4.098,3.0,2593,1000,feet,jsons/v1_VE1000_randls_42.json,1450845,2054685,25,Man
51,687829,DepthScenes,duration_manipulation_targetAtFixation,jsons/v1_VE1000_randls_42.json,http://54.235.29.9/FacialAge/BNav_EC2/DepthDuration/v2_depth_duration_MTurk/v2_DepthDuration_HTML.html#383,383,1517,694,1366,768,9-3-2022,9-21-10,52,depth_duration_stimuli/000642_2014-06-08_16-59-25_260595134347_rgbf000098-resize_2/000642_2014-06-08_16-59-25_260595134347_rgbf000098-resize_2-target.png,1000,2.8815,3.0,4545,1000,feet,jsons/v1_VE1000_randls_42.json,1450845,2054685,25,Man
52,687829,DepthScenes,duration_manipulation_targetAtFixation,jsons/v1_VE1000_randls_42.json,http://54.235.29.9/FacialAge/BNav_EC2/DepthDuration/v2_depth_duration_MTurk/v2_DepthDuration_HTML.html#383,383,1517,694,1366,768,9-3-2022,9-21-10,53,depth_duration_stimuli/002425_2014-06-28_20-27-29_260595134347_rgbf000031-resize_8/002425_2014-06-28_20-27-29_260595134347_rgbf000031-resize_8-target.png,1000,3.8960000000000004,6.0,3899,999,feet,jsons/v1_VE1000_randls_42.json,1450845,2054685,25,Man
53,687829,DepthScenes,duration_manipulation_targetAtFixation,jsons/v1_VE1000_randls_42.json,http://54.235.29.9/FacialAge/BNav_EC2/DepthDuration/v2_depth_duration_MTurk/v2_DepthDuration_HTML.html#383,383,1517,694,1366,768,9-3-2022,9-21-10,54,depth_duration_stimuli/000878_2014-06-08_22-52-45_260595134347_rgbf000045-resize_2/000878_2014-06-08_22-52-45_260595134347_rgbf000045-resize_2-target.png,1000,2.092,23.0,3313,1000,feet,jsons/v1_VE1000_randls_42.json,1450845,2054685,25,Man
54,687829,DepthScenes,duration_manipulation_targetAtFixation,jsons/v1_VE1000_randls_42.json,http://54.235.29.9/FacialAge/BNav_EC2/DepthDuration/v2_depth_duration_MTurk/v2_DepthDuration_HTML.html#383,383,1517,694,1366,768,9-3-2022,9-21-10,55,depth_duration_stimuli/002953_2014-06-08_17-32-18_094959634447_rgbf000059-resize_5/002953_2014-06-08_17-32-18_094959634447_rgbf000059-resize_5-target.png,1000,1.551,23.0,3139,1000,feet,jsons/v1_VE1000_randls_42.json,1450845,2054685,25,Man
55,687829,DepthScenes,duration_manipulation_targetAtFixation,jsons/v1_VE1000_randls_42.json,http://54.235.29.9/FacialAge/BNav_EC2/DepthDuration/v2_depth_duration_MTurk/v2_DepthDuration_HTML.html#383,383,1517,694,1366,768,9-3-2022,9-21-10,56,depth_duration_stimuli/000692_2014-06-08_13-09-42_260595134347_rgbf000199-resize_2/000692_2014-06-08_13-09-42_260595134347_rgbf000199-resize_2-target.png,1000,3.661,25.0,2777,999,feet,jsons/v1_VE1000_randls_42.json,1450845,2054685,25,Man
56,687829,DepthScenes,duration_manipulation_targetAtFixation,jsons/v1_VE1000_randls_42.json,http://54.235.29.9/FacialAge/BNav_EC2/DepthDuration/v2_depth_duration_MTurk/v2_DepthDuration_HTML.html#383,383,1517,694,1366,768,9-3-2022,9-21-10,57,depth_duration_stimuli/001094_2014-06-15_17-36-00_260595134347_rgbf000205-resize_0/001094_2014-06-15_17-36-00_260595134347_rgbf000205-resize_0-target.png,1000,4.2175,61.0,5307,1000,feet,jsons/v1_VE1000_randls_42.json,1450845,2054685,25,Man
57,687829,DepthScenes,duration_manipulation_targetAtFixation,jsons/v1_VE1000_randls_42.json,http://54.235.29.9/FacialAge/BNav_EC2/DepthDuration/v2_depth_duration_MTurk/v2_DepthDuration_HTML.html#383,383,1517,694,1366,768,9-3-2022,9-21-10,58,depth_duration_stimuli/002788_2014-06-22_19-36-03_094959634447_rgbf000088-resize_2/002788_2014-06-22_19-36-03_094959634447_rgbf000088-resize_2-target.png,1000,1.6465,25.0,3177,1000,feet,jsons/v1_VE1000_randls_42.json,1450845,2054685,25,Man
58,687829,DepthScenes,duration_manipulation_targetAtFixation,jsons/v1_VE1000_randls_42.json,http://54.235.29.9/FacialAge/BNav_EC2/DepthDuration/v2_depth_duration_MTurk/v2_DepthDuration_HTML.html#383,383,1517,694,1366,768,9-3-2022,9-21-10,59,depth_duration_stimuli/000749_2014-06-08_21-55-06_260595134347_rgbf000070-resize_2/000749_2014-06-08_21-55-06_260595134347_rgbf000070-resize_2-target.png,1000,2.331,56.0,3273,999,feet,jsons/v1_VE1000_randls_42.json,1450845,2054685,25,Man
59,687829,DepthScenes,duration_manipulation_targetAtFixation,jsons/v1_VE1000_randls_42.json,http://54.235.29.9/FacialAge/BNav_EC2/DepthDuration/v2_depth_duration_MTurk/v2_DepthDuration_HTML.html#383,383,1517,694,1366,768,9-3-2022,9-21-10,60,depth_duration_stimuli/001167_2014-06-17_15-38-07_260595134347_rgbf000108-resize_0/001167_2014-06-17_15-38-07_260595134347_rgbf000108-resize_0-target.png,1000,1.8505,23.0,3556,1529,feet,jsons/v1_VE1000_randls_42.json,1450845,2054685,25,Man
60,687829,DepthScenes,duration_manipulation_targetAtFixation,jsons/v1_VE1000_randls_42.json,http://54.235.29.9/FacialAge/BNav_EC2/DepthDuration/v2_depth_duration_MTurk/v2_DepthDuration_HTML.html#383,383,1517,694,1366,768,9-3-2022,9-21-10,61,depth_duration_stimuli/003587_2014-05-23_16-48-02_094959634447_rgbf002384-resize_2/003587_2014-05-23_16-48-02_094959634447_rgbf002384-resize_2-target.png,1000,1.357,2.0,3089,1000,feet,jsons/v1_VE1000_randls_42.json,1450845,2054685,25,Man
61,687829,DepthScenes,duration_manipulation_targetAtFixation,jsons/v1_VE1000_randls_42.json,http://54.235.29.9/FacialAge/BNav_EC2/DepthDuration/v2_depth_duration_MTurk/v2_DepthDuration_HTML.html#383,383,1517,694,1366,768,9-3-2022,9-21-10,62,depth_duration_stimuli/001016_2014-06-09_16-16-10_260595134347_rgbf000112-resize_5/001016_2014-06-09_16-16-10_260595134347_rgbf000112-resize_5-target.png,1000,1.6565,3.0,3098,1000,feet,jsons/v1_VE1000_randls_42.json,1450845,2054685,25,Man
62,687829,DepthScenes,duration_manipulation_targetAtFixation,jsons/v1_VE1000_randls_42.json,http://54.235.29.9/FacialAge/BNav_EC2/DepthDuration/v2_depth_duration_MTurk/v2_DepthDuration_HTML.html#383,383,1517,694,1366,768,9-3-2022,9-21-10,63,depth_duration_stimuli/002340_2014-06-28_20-05-46_260595134347_rgbf000113-resize_0/002340_2014-06-28_20-05-46_260595134347_rgbf000113-resize_0-target.png,1000,2.4735,62.0,3284,1001,feet,jsons/v1_VE1000_randls_42.json,1450845,2054685,25,Man
63,687829,DepthScenes,duration_manipulation_targetAtFixation,jsons/v1_VE1000_randls_42.json,http://54.235.29.9/FacialAge/BNav_EC2/DepthDuration/v2_depth_duration_MTurk/v2_DepthDuration_HTML.html#383,383,1517,694,1366,768,9-3-2022,9-21-10,64,depth_duration_stimuli/001059_2014-06-08_21-53-27_260595134347_rgbf000061-resize_4/001059_2014-06-08_21-53-27_260595134347_rgbf000061-resize_4-target.png,1000,2.4185,3.0,4003,1000,feet,jsons/v1_VE1000_randls_42.json,1450845,2054685,25,Man
64,687829,DepthScenes,duration_manipulation_targetAtFixation,jsons/v1_VE1000_randls_42.json,http://54.235.29.9/FacialAge/BNav_EC2/DepthDuration/v2_depth_duration_MTurk/v2_DepthDuration_HTML.html#383,383,1517,694,1366,768,9-3-2022,9-21-10,65,depth_duration_stimuli/001032_2014-06-08_13-23-17_260595134347_rgbf000021-resize_3/001032_2014-06-08_13-23-17_260595134347_rgbf000021-resize_3-target.png,1000,3.2725,12.0,3346,1000,feet,jsons/v1_VE1000_randls_42.json,1450845,2054685,25,Man
65,687829,DepthScenes,duration_manipulation_targetAtFixation,jsons/v1_VE1000_randls_42.json,http://54.235.29.9/FacialAge/BNav_EC2/DepthDuration/v2_depth_duration_MTurk/v2_DepthDuration_HTML.html#383,383,1517,694,1366,768,9-3-2022,9-21-10,66,depth_duration_stimuli/001222_2014-06-17_16-24-06_260595134347_rgbf000073-resize_0/001222_2014-06-17_16-24-06_260595134347_rgbf000073-resize-original.jpg,1000,1.4385,23.0,3185,999,feet,jsons/v1_VE1000_randls_42.json,1450845,2054685,25,Man
66,687829,DepthScenes,duration_manipulation_targetAtFixation,jsons/v1_VE1000_randls_42.json,http://54.235.29.9/FacialAge/BNav_EC2/DepthDuration/v2_depth_duration_MTurk/v2_DepthDuration_HTML.html#383,383,1517,694,1366,768,9-3-2022,9-21-10,67,depth_duration_stimuli/002043_2014-06-24_20-29-38_260595134347_rgbf000039-resize_4/002043_2014-06-24_20-29-38_260595134347_rgbf000039-resize_4-target.png,1000,2.8435,63.0,3859,1000,feet,jsons/v1_VE1000_randls_42.json,1450845,2054685,25,Man
67,687829,DepthScenes,duration_manipulation_targetAtFixation,jsons/v1_VE1000_randls_42.json,http://54.235.29.9/FacialAge/BNav_EC2/DepthDuration/v2_depth_duration_MTurk/v2_DepthDuration_HTML.html#383,383,1517,694,1366,768,9-3-2022,9-21-10,68,depth_duration_stimuli/003048_2014-06-15_13-49-43_094959634447_rgbf000150-resize_1/003048_2014-06-15_13-49-43_094959634447_rgbf000150-resize_1-target.png,1000,4.0035,25.0,2530,999,feet,jsons/v1_VE1000_randls_42.json,1450845,2054685,25,Man
68,687829,DepthScenes,duration_manipulation_targetAtFixation,jsons/v1_VE1000_randls_42.json,http://54.235.29.9/FacialAge/BNav_EC2/DepthDuration/v2_depth_duration_MTurk/v2_DepthDuration_HTML.html#383,383,1517,694,1366,768,9-3-2022,9-21-10,69,depth_duration_stimuli/002570_2014-06-24_13-59-54_094959634447_rgbf000059-resize_0/002570_2014-06-24_13-59-54_094959634447_rgbf000059-resize_0-target.png,1000,4.037,23.0,2642,1000,feet,jsons/v1_VE1000_randls_42.json,1450845,2054685,25,Man
69,687829,DepthScenes,duration_manipulation_targetAtFixation,jsons/v1_VE1000_randls_42.json,http://54.235.29.9/FacialAge/BNav_EC2/DepthDuration/v2_depth_duration_MTurk/v2_DepthDuration_HTML.html#383,383,1517,694,1366,768,9-3-2022,9-21-10,70,depth_duration_stimuli/002467_2014-06-28_20-38-07_260595134347_rgbf000026-resize_2/002467_2014-06-28_20-38-07_260595134347_rgbf000026-resize_2-target.png,1000,4.742,26.0,2674,999,feet,jsons/v1_VE1000_randls_42.json,1450845,2054685,25,Man
70,687829,DepthScenes,duration_manipulation_targetAtFixation,jsons/v1_VE1000_randls_42.json,http://54.235.29.9/FacialAge/BNav_EC2/DepthDuration/v2_depth_duration_MTurk/v2_DepthDuration_HTML.html#383,383,1517,694,1366,768,9-3-2022,9-21-10,71,depth_duration_stimuli/002213_2014-06-28_18-37-58_260595134347_rgbf000055-resize_1/002213_2014-06-28_18-37-58_260595134347_rgbf000055-resize_1-target.png,1000,3.62,21.0,2577,999,feet,jsons/v1_VE1000_randls_42.json,1450845,2054685,25,Man
71,687829,DepthScenes,duration_manipulation_targetAtFixation,jsons/v1_VE1000_randls_42.json,http://54.235.29.9/FacialAge/BNav_EC2/DepthDuration/v2_depth_duration_MTurk/v2_DepthDuration_HTML.html#383,383,1517,694,1366,768,9-3-2022,9-21-10,72,depth_duration_stimuli/000691_2014-06-08_13-08-50_260595134347_rgbf000132-resize_3/000691_2014-06-08_13-08-50_260595134347_rgbf000132-resize_3-target.png,1000,4.1530000000000005,23.0,3875,1000,feet,jsons/v1_VE1000_randls_42.json,1450845,2054685,25,Man
72,687829,DepthScenes,duration_manipulation_targetAtFixation,jsons/v1_VE1000_randls_42.json,http://54.235.29.9/FacialAge/BNav_EC2/DepthDuration/v2_depth_duration_MTurk/v2_DepthDuration_HTML.html#383,383,1517,694,1366,768,9-3-2022,9-21-10,73,depth_duration_stimuli/000522_2014-06-08_13-35-06_260595134347_rgbf000244-resize_1/000522_2014-06-08_13-35-06_260595134347_rgbf000244-resize_1-target.png,1000,2.3715,21.0,5643,1000,feet,jsons/v1_VE1000_randls_42.json,1450845,2054685,25,Man
73,687829,DepthScenes,duration_manipulation_targetAtFixation,jsons/v1_VE1000_randls_42.json,http://54.235.29.9/FacialAge/BNav_EC2/DepthDuration/v2_depth_duration_MTurk/v2_DepthDuration_HTML.html#383,383,1517,694,1366,768,9-3-2022,9-21-10,74,depth_duration_stimuli/002949_2014-06-26_15-57-42_094959634447_rgbf000079-resize_1/002949_2014-06-26_15-57-42_094959634447_rgbf000079-resize_1-target.png,1000,1.8915,23.0,5699,999,feet,jsons/v1_VE1000_randls_42.json,1450845,2054685,25,Man
74,687829,DepthScenes,duration_manipulation_targetAtFixation,jsons/v1_VE1000_randls_42.json,http://54.235.29.9/FacialAge/BNav_EC2/DepthDuration/v2_depth_duration_MTurk/v2_DepthDuration_HTML.html#383,383,1517,694,1366,768,9-3-2022,9-21-10,75,depth_duration_stimuli/002663_2014-06-13_15-50-26_094959634447_rgbf000075-resize_1/002663_2014-06-13_15-50-26_094959634447_rgbf000075-resize_1-target.png,1000,4.7495,23.0,5137,998,feet,jsons/v1_VE1000_randls_42.json,1450845,2054685,25,Man
75,687829,DepthScenes,duration_manipulation_targetAtFixation,jsons/v1_VE1000_randls_42.json,http://54.235.29.9/FacialAge/BNav_EC2/DepthDuration/v2_depth_duration_MTurk/v2_DepthDuration_HTML.html#383,383,1517,694,1366,768,9-3-2022,9-21-10,76,depth_duration_stimuli/000409_2014-06-04_19-23-33_260595134347_rgbf000067-resize_0/000409_2014-06-04_19-23-33_260595134347_rgbf000067-resize_0-target.png,1000,3.7335,21.0,4508,1000,feet,jsons/v1_VE1000_randls_42.json,1450845,2054685,25,Man
76,687829,DepthScenes,duration_manipulation_targetAtFixation,jsons/v1_VE1000_randls_42.json,http://54.235.29.9/FacialAge/BNav_EC2/DepthDuration/v2_depth_duration_MTurk/v2_DepthDuration_HTML.html#383,383,1517,694,1366,768,9-3-2022,9-21-10,77,depth_duration_stimuli/000469_2014-06-09_19-42-10_260595134347_rgbf000081-resize_1/000469_2014-06-09_19-42-10_260595134347_rgbf000081-resize_1-target.png,1000,1.652,32.0,3475,1001,feet,jsons/v1_VE1000_randls_42.json,1450845,2054685,25,Man
77,687829,DepthScenes,duration_manipulation_targetAtFixation,jsons/v1_VE1000_randls_42.json,http://54.235.29.9/FacialAge/BNav_EC2/DepthDuration/v2_depth_duration_MTurk/v2_DepthDuration_HTML.html#383,383,1517,694,1366,768,9-3-2022,9-21-10,78,depth_duration_stimuli/000483_2014-06-09_20-41-45_260595134347_rgbf000116-resize_4/000483_2014-06-09_20-41-45_260595134347_rgbf000116-resize_4-target.png,1000,1.337,62.0,3227,999,feet,jsons/v1_VE1000_randls_42.json,1450845,2054685,25,Man
78,687829,DepthScenes,duration_manipulation_targetAtFixation,jsons/v1_VE1000_randls_42.json,http://54.235.29.9/FacialAge/BNav_EC2/DepthDuration/v2_depth_duration_MTurk/v2_DepthDuration_HTML.html#383,383,1517,694,1366,768,9-3-2022,9-21-10,79,depth_duration_stimuli/001449_2014-06-19_17-01-27_260595134347_rgbf000116-resize_2/001449_2014-06-19_17-01-27_260595134347_rgbf000116-resize_2-target.png,1000,3.452,52.0,154866,998,feet,jsons/v1_VE1000_randls_42.json,1450845,2054685,25,Man
79,687829,DepthScenes,duration_manipulation_targetAtFixation,jsons/v1_VE1000_randls_42.json,http://54.235.29.9/FacialAge/BNav_EC2/DepthDuration/v2_depth_duration_MTurk/v2_DepthDuration_HTML.html#383,383,1517,694,1366,768,9-3-2022,9-21-10,80,depth_duration_stimuli/001450_2014-06-19_17-02-03_260595134347_rgbf000203-resize_4/001450_2014-06-19_17-02-03_260595134347_rgbf000203-resize_4-target.png,1000,4.0106666666667,23.0,3185,999,feet,jsons/v1_VE1000_randls_42.json,1450845,2054685,25,Man
80,687829,DepthScenes,duration_manipulation_targetAtFixation,jsons/v1_VE1000_randls_42.json,http://54.235.29.9/FacialAge/BNav_EC2/DepthDuration/v2_depth_duration_MTurk/v2_DepthDuration_HTML.html#383,383,1517,694,1366,768,9-3-2022,9-21-10,81,depth_duration_stimuli/002039_2014-06-24_20-22-38_260595134347_rgbf000084-resize_1/002039_2014-06-24_20-22-38_260595134347_rgbf000084-resize_1-target.png,1000,4.408,5.0,2834,999,feet,jsons/v1_VE1000_randls_42.json,1450845,2054685,25,Man
81,687829,DepthScenes,duration_manipulation_targetAtFixation,jsons/v1_VE1000_randls_42.json,http://54.235.29.9/FacialAge/BNav_EC2/DepthDuration/v2_depth_duration_MTurk/v2_DepthDuration_HTML.html#383,383,1517,694,1366,768,9-3-2022,9-21-10,82,depth_duration_stimuli/002103_2014-06-25_20-00-40_260595134347_rgbf000049-resize_0/002103_2014-06-25_20-00-40_260595134347_rgbf000049-resize_0-target.png,1000,4.105,3.0,2835,1000,feet,jsons/v1_VE1000_randls_42.json,1450845,2054685,25,Man
82,687829,DepthScenes,duration_manipulation_targetAtFixation,jsons/v1_VE1000_randls_42.json,http://54.235.29.9/FacialAge/BNav_EC2/DepthDuration/v2_depth_duration_MTurk/v2_DepthDuration_HTML.html#383,383,1517,694,1366,768,9-3-2022,9-21-10,83,depth_duration_stimuli/001570_2014-06-20_17-21-09_260595134347_rgbf000135-resize_4/001570_2014-06-20_17-21-09_260595134347_rgbf000135-resize_4-target.png,1000,4.467,23.0,3346,999,feet,jsons/v1_VE1000_randls_42.json,1450845,2054685,25,Man
83,687829,DepthScenes,duration_manipulation_targetAtFixation,jsons/v1_VE1000_randls_42.json,http://54.235.29.9/FacialAge/BNav_EC2/DepthDuration/v2_depth_duration_MTurk/v2_DepthDuration_HTML.html#383,383,1517,694,1366,768,9-3-2022,9-21-10,84,depth_duration_stimuli/001392_2014-06-19_16-07-59_260595134347_rgbf000046-resize_1/001392_2014-06-19_16-07-59_260595134347_rgbf000046-resize_1-target.png,1000,4.135,25.0,2795,1001,feet,jsons/v1_VE1000_randls_42.json,1450845,2054685,25,Man
84,687829,DepthScenes,duration_manipulation_targetAtFixation,jsons/v1_VE1000_randls_42.json,http://54.235.29.9/FacialAge/BNav_EC2/DepthDuration/v2_depth_duration_MTurk/v2_DepthDuration_HTML.html#383,383,1517,694,1366,768,9-3-2022,9-21-10,85,depth_duration_stimuli/003621_2014-05-23_18-06-08_094959634447_rgbf000101-resize_1/003621_2014-05-23_18-06-08_094959634447_rgbf000101-resize_1-target.png,1000,3.9835,12.0,4313,1000,feet,jsons/v1_VE1000_randls_42.json,1450845,2054685,25,Man
85,687829,DepthScenes,duration_manipulation_targetAtFixation,jsons/v1_VE1000_randls_42.json,http://54.235.29.9/FacialAge/BNav_EC2/DepthDuration/v2_depth_duration_MTurk/v2_DepthDuration_HTML.html#383,383,1517,694,1366,768,9-3-2022,9-21-10,86,depth_duration_stimuli/001584_2014-06-20_11-07-43_260595134347_rgbf000002-resize_1/001584_2014-06-20_11-07-43_260595134347_rgbf000002-resize_1-target.png,1000,3.53,23.0,3050,999,feet,jsons/v1_VE1000_randls_42.json,1450845,2054685,25,Man
86,687829,DepthScenes,duration_manipulation_targetAtFixation,jsons/v1_VE1000_randls_42.json,http://54.235.29.9/FacialAge/BNav_EC2/DepthDuration/v2_depth_duration_MTurk/v2_DepthDuration_HTML.html#383,383,1517,694,1366,768,9-3-2022,9-21-10,87,depth_duration_stimuli/000436_2014-06-09_22-25-11_260595134347_rgbf000137-resize_1/000436_2014-06-09_22-25-11_260595134347_rgbf000137-resize_1-target.png,1000,4.0705,12.0,3434,999,feet,jsons/v1_VE1000_randls_42.json,1450845,2054685,25,Man
87,687829,DepthScenes,duration_manipulation_targetAtFixation,jsons/v1_VE1000_randls_42.json,http://54.235.29.9/FacialAge/BNav_EC2/DepthDuration/v2_depth_duration_MTurk/v2_DepthDuration_HTML.html#383,383,1517,694,1366,768,9-3-2022,9-21-10,88,depth_duration_stimuli/002444_2014-06-28_20-32-08_260595134347_rgbf000027-resize_0/002444_2014-06-28_20-32-08_260595134347_rgbf000027-resize_0-target.png,1000,4.388999999999999,12.0,2938,1001,feet,jsons/v1_VE1000_randls_42.json,1450845,2054685,25,Man
88,687829,DepthScenes,duration_manipulation_targetAtFixation,jsons/v1_VE1000_randls_42.json,http://54.235.29.9/FacialAge/BNav_EC2/DepthDuration/v2_depth_duration_MTurk/v2_DepthDuration_HTML.html#383,383,1517,694,1366,768,9-3-2022,9-21-10,89,depth_duration_stimuli/003070_2014-06-15_14-58-27_094959634447_rgbf000150-resize_3/003070_2014-06-15_14-58-27_094959634447_rgbf000150-resize_3-target.png,1000,2.9415,15.0,5018,1000,feet,jsons/v1_VE1000_randls_42.json,1450845,2054685,25,Man
89,687829,DepthScenes,duration_manipulation_targetAtFixation,jsons/v1_VE1000_randls_42.json,http://54.235.29.9/FacialAge/BNav_EC2/DepthDuration/v2_depth_duration_MTurk/v2_DepthDuration_HTML.html#383,383,1517,694,1366,768,9-3-2022,9-21-10,90,depth_duration_stimuli/000943_2014-06-09_19-31-07_260595134347_rgbf000128-resize_1/000943_2014-06-09_19-31-07_260595134347_rgbf000128-resize_1-target.png,1000,1.9765,15.0,3250,999,feet,jsons/v1_VE1000_randls_42.json,1450845,2054685,25,Man
90,687829,DepthScenes,duration_manipulation_targetAtFixation,jsons/v1_VE1000_randls_42.json,http://54.235.29.9/FacialAge/BNav_EC2/DepthDuration/v2_depth_duration_MTurk/v2_DepthDuration_HTML.html#383,383,1517,694,1366,768,9-3-2022,9-21-10,91,depth_duration_stimuli/000470_2014-06-09_19-42-40_260595134347_rgbf000094-resize_1/000470_2014-06-09_19-42-40_260595134347_rgbf000094-resize_1-target.png,1000,1.831,42.0,3106,1000,feet,jsons/v1_VE1000_randls_42.json,1450845,2054685,25,Man
91,687829,DepthScenes,duration_manipulation_targetAtFixation,jsons/v1_VE1000_randls_42.json,http://54.235.29.9/FacialAge/BNav_EC2/DepthDuration/v2_depth_duration_MTurk/v2_DepthDuration_HTML.html#383,383,1517,694,1366,768,9-3-2022,9-21-10,92,depth_duration_stimuli/000109_2014-05-14_23-41-52_260595134347_rgbf000035-resize_9/000109_2014-05-14_23-41-52_260595134347_rgbf000035-resize_9-target.png,1000,1.3545,14.0,6754,1000,feet,jsons/v1_VE1000_randls_42.json,1450845,2054685,25,Man
92,687829,DepthScenes,duration_manipulation_targetAtFixation,jsons/v1_VE1000_randls_42.json,http://54.235.29.9/FacialAge/BNav_EC2/DepthDuration/v2_depth_duration_MTurk/v2_DepthDuration_HTML.html#383,383,1517,694,1366,768,9-3-2022,9-21-10,93,depth_duration_stimuli/002549_2014-06-24_13-41-39_094959634447_rgbf000022-resize_3/002549_2014-06-24_13-41-39_094959634447_rgbf000022-resize_3-target.png,1000,1.476,15.0,3283,1000,feet,jsons/v1_VE1000_randls_42.json,1450845,2054685,25,Man
93,687829,DepthScenes,duration_manipulation_targetAtFixation,jsons/v1_VE1000_randls_42.json,http://54.235.29.9/FacialAge/BNav_EC2/DepthDuration/v2_depth_duration_MTurk/v2_DepthDuration_HTML.html#383,383,1517,694,1366,768,9-3-2022,9-21-10,94,depth_duration_stimuli/002750_2014-06-22_19-08-03_094959634447_rgbf000094-resize_4/002750_2014-06-22_19-08-03_094959634447_rgbf000094-resize_4-target.png,1000,2.354,23.0,69251,999,feet,jsons/v1_VE1000_randls_42.json,1450845,2054685,25,Man
94,687829,DepthScenes,duration_manipulation_targetAtFixation,jsons/v1_VE1000_randls_42.json,http://54.235.29.9/FacialAge/BNav_EC2/DepthDuration/v2_depth_duration_MTurk/v2_DepthDuration_HTML.html#383,383,1517,694,1366,768,9-3-2022,9-21-10,95,depth_duration_stimuli/002905_2014-06-03_18-04-43_094959634447_rgbf000151-resize_2/002905_2014-06-03_18-04-43_094959634447_rgbf000151-resize_2-target.png,1000,2.0295,12.0,6785,999,feet,jsons/v1_VE1000_randls_42.json,1450845,2054685,25,Man
95,687829,DepthScenes,duration_manipulation_targetAtFixation,jsons/v1_VE1000_randls_42.json,http://54.235.29.9/FacialAge/BNav_EC2/DepthDuration/v2_depth_duration_MTurk/v2_DepthDuration_HTML.html#383,383,1517,694,1366,768,9-3-2022,9-21-10,96,depth_duration_stimuli/003423_2014-05-21_10-23-26_094959634447_rgbf002665-resize_2/003423_2014-05-21_10-23-26_094959634447_rgbf002665-resize_2-target.png,1000,3.2575,25.0,3714,999,feet,jsons/v1_VE1000_randls_42.json,1450845,2054685,25,Man
96,687829,DepthScenes,duration_manipulation_targetAtFixation,jsons/v1_VE1000_randls_42.json,http://54.235.29.9/FacialAge/BNav_EC2/DepthDuration/v2_depth_duration_MTurk/v2_DepthDuration_HTML.html#383,383,1517,694,1366,768,9-3-2022,9-21-10,97,depth_duration_stimuli/000773_2014-06-08_22-24-54_260595134347_rgbf000093-resize_1/000773_2014-06-08_22-24-54_260595134347_rgbf000093-resize_1-target.png,1000,4.973,23.0,3178,1000,feet,jsons/v1_VE1000_randls_42.json,1450845,2054685,25,Man
97,687829,DepthScenes,duration_manipulation_targetAtFixation,jsons/v1_VE1000_randls_42.json,http://54.235.29.9/FacialAge/BNav_EC2/DepthDuration/v2_depth_duration_MTurk/v2_DepthDuration_HTML.html#383,383,1517,694,1366,768,9-3-2022,9-21-10,98,depth_duration_stimuli/002414_2014-06-28_20-24-58_260595134347_rgbf000067-resize_4/002414_2014-06-28_20-24-58_260595134347_rgbf000067-resize_4-target.png,1000,4.363,26.0,3081,999,feet,jsons/v1_VE1000_randls_42.json,1450845,2054685,25,Man
98,687829,DepthScenes,duration_manipulation_targetAtFixation,jsons/v1_VE1000_randls_42.json,http://54.235.29.9/FacialAge/BNav_EC2/DepthDuration/v2_depth_duration_MTurk/v2_DepthDuration_HTML.html#383,383,1517,694,1366,768,9-3-2022,9-21-10,99,depth_duration_stimuli/001540_2014-06-20_17-01-05_260595134347_rgbf000086-resize_2/001540_2014-06-20_17-01-05_260595134347_rgbf000086-resize-original.jpg,1000,1.459,12.0,3059,999,feet,jsons/v1_VE1000_randls_42.json,1450845,2054685,25,Man
99,687829,DepthScenes,duration_manipulation_targetAtFixation,jsons/v1_VE1000_randls_42.json,http://54.235.29.9/FacialAge/BNav_EC2/DepthDuration/v2_depth_duration_MTurk/v2_DepthDuration_HTML.html#383,383,1517,694,1366,768,9-3-2022,9-21-10,100,depth_duration_stimuli/002153_2014-06-25_21-27-18_260595134347_rgbf000038-resize_5/002153_2014-06-25_21-27-18_260595134347_rgbf000038-resize_5-target.png,1000,2.505,23.0,3186,999,feet,jsons/v1_VE1000_randls_42.json,1450845,2054685,25,Man
100,687829,DepthScenes,duration_manipulation_targetAtFixation,jsons/v1_VE1000_randls_42.json,http://54.235.29.9/FacialAge/BNav_EC2/DepthDuration/v2_depth_duration_MTurk/v2_DepthDuration_HTML.html#383,383,1517,694,1366,768,9-3-2022,9-21-10,101,depth_duration_stimuli/002660_2014-06-13_15-44-18_094959634447_rgbf001878-resize_2/002660_2014-06-13_15-44-18_094959634447_rgbf001878-resize_2-target.png,1000,3.576,24.0,3042,1000,feet,jsons/v1_VE1000_randls_42.json,1450845,2054685,25,Man
101,687829,DepthScenes,duration_manipulation_targetAtFixation,jsons/v1_VE1000_randls_42.json,http://54.235.29.9/FacialAge/BNav_EC2/DepthDuration/v2_depth_duration_MTurk/v2_DepthDuration_HTML.html#383,383,1517,694,1366,768,9-3-2022,9-21-10,102,depth_duration_stimuli/001029_2014-06-08_13-17-57_260595134347_rgbf000065-resize_1/001029_2014-06-08_13-17-57_260595134347_rgbf000065-resize_1-target.png,1000,3.0835,12.0,2835,1000,feet,jsons/v1_VE1000_randls_42.json,1450845,2054685,25,Man
102,687829,DepthScenes,duration_manipulation_targetAtFixation,jsons/v1_VE1000_randls_42.json,http://54.235.29.9/FacialAge/BNav_EC2/DepthDuration/v2_depth_duration_MTurk/v2_DepthDuration_HTML.html#383,383,1517,694,1366,768,9-3-2022,9-21-10,103,depth_duration_stimuli/000677_2014-06-08_23-10-32_260595134347_rgbf000158-resize_6/000677_2014-06-08_23-10-32_260595134347_rgbf000158-resize_6-target.png,1000,3.556,15.0,3402,1000,feet,jsons/v1_VE1000_randls_42.json,1450845,2054685,25,Man
103,687829,DepthScenes,duration_manipulation_targetAtFixation,jsons/v1_VE1000_randls_42.json,http://54.235.29.9/FacialAge/BNav_EC2/DepthDuration/v2_depth_duration_MTurk/v2_DepthDuration_HTML.html#383,383,1517,694,1366,768,9-3-2022,9-21-10,104,depth_duration_stimuli/001133_2014-06-17_14-49-16_260595134347_rgbf000100-resize_0/001133_2014-06-17_14-49-16_260595134347_rgbf000100-resize_0-target.png,1000,4.2115,52.0,3531,1000,feet,jsons/v1_VE1000_randls_42.json,1450845,2054685,25,Man
104,687829,DepthScenes,duration_manipulation_targetAtFixation,jsons/v1_VE1000_randls_42.json,http://54.235.29.9/FacialAge/BNav_EC2/DepthDuration/v2_depth_duration_MTurk/v2_DepthDuration_HTML.html#383,383,1517,694,1366,768,9-3-2022,9-21-10,105,depth_duration_stimuli/001132_2014-06-17_14-48-54_260595134347_rgbf000100-resize_2/001132_2014-06-17_14-48-54_260595134347_rgbf000100-resize_2-target.png,1000,3.753,23.0,5994,998,feet,jsons/v1_VE1000_randls_42.json,1450845,2054685,25,Man
105,687829,DepthScenes,duration_manipulation_targetAtFixation,jsons/v1_VE1000_randls_42.json,http://54.235.29.9/FacialAge/BNav_EC2/DepthDuration/v2_depth_duration_MTurk/v2_DepthDuration_HTML.html#383,383,1517,694,1366,768,9-3-2022,9-21-10,106,depth_duration_stimuli/002964_2014-06-08_17-46-11_094959634447_rgbf000091-resize_4/002964_2014-06-08_17-46-11_094959634447_rgbf000091-resize_4-target.png,1000,1.6909999999999998,14.0,3346,999,feet,jsons/v1_VE1000_randls_42.json,1450845,2054685,25,Man
106,687829,DepthScenes,duration_manipulation_targetAtFixation,jsons/v1_VE1000_randls_42.json,http://54.235.29.9/FacialAge/BNav_EC2/DepthDuration/v2_depth_duration_MTurk/v2_DepthDuration_HTML.html#383,383,1517,694,1366,768,9-3-2022,9-21-10,107,depth_duration_stimuli/002136_2014-06-25_21-18-03_260595134347_rgbf000109-resize_3/002136_2014-06-25_21-18-03_260595134347_rgbf000109-resize_3-target.png,1000,1.9569999999999999,23.0,3315,1001,feet,jsons/v1_VE1000_randls_42.json,1450845,2054685,25,Man
107,687829,DepthScenes,duration_manipulation_targetAtFixation,jsons/v1_VE1000_randls_42.json,http://54.235.29.9/FacialAge/BNav_EC2/DepthDuration/v2_depth_duration_MTurk/v2_DepthDuration_HTML.html#383,383,1517,694,1366,768,9-3-2022,9-21-10,108,depth_duration_stimuli/001808_2014-06-26_20-50-58_260595134347_rgbf000029-resize_1/001808_2014-06-26_20-50-58_260595134347_rgbf000029-resize_1-target.png,1000,4.249,12.0,3861,1000,feet,jsons/v1_VE1000_randls_42.json,1450845,2054685,25,Man
108,687829,DepthScenes,duration_manipulation_targetAtFixation,jsons/v1_VE1000_randls_42.json,http://54.235.29.9/FacialAge/BNav_EC2/DepthDuration/v2_depth_duration_MTurk/v2_DepthDuration_HTML.html#383,383,1517,694,1366,768,9-3-2022,9-21-10,109,depth_duration_stimuli/001815_2014-06-26_20-52-55_260595134347_rgbf000020-resize_0/001815_2014-06-26_20-52-55_260595134347_rgbf000020-resize_0-target.png,1000,3.3865,23.0,3099,1000,feet,jsons/v1_VE1000_randls_42.json,1450845,2054685,25,Man
109,687829,DepthScenes,duration_manipulation_targetAtFixation,jsons/v1_VE1000_randls_42.json,http://54.235.29.9/FacialAge/BNav_EC2/DepthDuration/v2_depth_duration_MTurk/v2_DepthDuration_HTML.html#383,383,1517,694,1366,768,9-3-2022,9-21-10,110,depth_duration_stimuli/000929_2014-06-09_16-33-19_260595134347_rgbf000139-resize_0/000929_2014-06-09_16-33-19_260595134347_rgbf000139-resize_0-target.png,1000,2.8680000000000003,53.0,3283,1001,feet,jsons/v1_VE1000_randls_42.json,1450845,2054685,25,Man
110,687829,DepthScenes,duration_manipulation_targetAtFixation,jsons/v1_VE1000_randls_42.json,http://54.235.29.9/FacialAge/BNav_EC2/DepthDuration/v2_depth_duration_MTurk/v2_DepthDuration_HTML.html#383,383,1517,694,1366,768,9-3-2022,9-21-10,111,depth_duration_stimuli/000457_2014-06-08_16-52-43_260595134347_rgbf000199-resize_1/000457_2014-06-08_16-52-43_260595134347_rgbf000199-resize_1-target.png,1000,3.6489999999999996,23.0,3099,1000,feet,jsons/v1_VE1000_randls_42.json,1450845,2054685,25,Man
111,687829,DepthScenes,duration_manipulation_targetAtFixation,jsons/v1_VE1000_randls_42.json,http://54.235.29.9/FacialAge/BNav_EC2/DepthDuration/v2_depth_duration_MTurk/v2_DepthDuration_HTML.html#383,383,1517,694,1366,768,9-3-2022,9-21-10,112,depth_duration_stimuli/000447_2014-06-08_16-15-46_260595134347_rgbf000130-resize_1/000447_2014-06-08_16-15-46_260595134347_rgbf000130-resize_1-target.png,1000,4.479,12.0,3130,998,feet,jsons/v1_VE1000_randls_42.json,1450845,2054685,25,Man
112,687829,DepthScenes,duration_manipulation_targetAtFixation,jsons/v1_VE1000_randls_42.json,http://54.235.29.9/FacialAge/BNav_EC2/DepthDuration/v2_depth_duration_MTurk/v2_DepthDuration_HTML.html#383,383,1517,694,1366,768,9-3-2022,9-21-10,113,depth_duration_stimuli/001447_2014-06-19_17-00-32_260595134347_rgbf000082-resize_5/001447_2014-06-19_17-00-32_260595134347_rgbf000082-resize_5-target.png,1000,4.13775,23.0,2881,999,feet,jsons/v1_VE1000_randls_42.json,1450845,2054685,25,Man
113,687829,DepthScenes,duration_manipulation_targetAtFixation,jsons/v1_VE1000_randls_42.json,http://54.235.29.9/FacialAge/BNav_EC2/DepthDuration/v2_depth_duration_MTurk/v2_DepthDuration_HTML.html#383,383,1517,694,1366,768,9-3-2022,9-21-10,114,depth_duration_stimuli/000493_2014-06-09_21-01-18_260595134347_rgbf000196-resize_3/000493_2014-06-09_21-01-18_260595134347_rgbf000196-resize_3-target.png,1000,3.44,25.0,2603,1001,feet,jsons/v1_VE1000_randls_42.json,1450845,2054685,25,Man
114,687829,DepthScenes,duration_manipulation_targetAtFixation,jsons/v1_VE1000_randls_42.json,http://54.235.29.9/FacialAge/BNav_EC2/DepthDuration/v2_depth_duration_MTurk/v2_DepthDuration_HTML.html#383,383,1517,694,1366,768,9-3-2022,9-21-10,115,depth_duration_stimuli/000191_2014-05-12_17-07-38_260595134347_rgbf000199-resize_0/000191_2014-05-12_17-07-38_260595134347_rgbf000199-resize_0-target.png,1000,3.7995,23.0,3011,1000,feet,jsons/v1_VE1000_randls_42.json,1450845,2054685,25,Man
115,687829,DepthScenes,duration_manipulation_targetAtFixation,jsons/v1_VE1000_randls_42.json,http://54.235.29.9/FacialAge/BNav_EC2/DepthDuration/v2_depth_duration_MTurk/v2_DepthDuration_HTML.html#383,383,1517,694,1366,768,9-3-2022,9-21-10,116,depth_duration_stimuli/001170_2014-06-17_15-43-44_260595134347_rgbf000096-resize_6/001170_2014-06-17_15-43-44_260595134347_rgbf000096-resize-original.jpg,1000,1.1909999999999998,0.0,2985,999,feet,jsons/v1_VE1000_randls_42.json,1450845,2054685,25,Man
116,687829,DepthScenes,duration_manipulation_targetAtFixation,jsons/v1_VE1000_randls_42.json,http://54.235.29.9/FacialAge/BNav_EC2/DepthDuration/v2_depth_duration_MTurk/v2_DepthDuration_HTML.html#383,383,1517,694,1366,768,9-3-2022,9-21-10,117,depth_duration_stimuli/002279_2014-06-28_18-55-32_260595134347_rgbf000040-resize_5/002279_2014-06-28_18-55-32_260595134347_rgbf000040-resize_5-target.png,1000,1.5043333333333,23.0,3034,999,feet,jsons/v1_VE1000_randls_42.json,1450845,2054685,25,Man
117,687829,DepthScenes,duration_manipulation_targetAtFixation,jsons/v1_VE1000_randls_42.json,http://54.235.29.9/FacialAge/BNav_EC2/DepthDuration/v2_depth_duration_MTurk/v2_DepthDuration_HTML.html#383,383,1517,694,1366,768,9-3-2022,9-21-10,118,depth_duration_stimuli/000635_2014-06-08_16-38-42_260595134347_rgbf000106-resize_1/000635_2014-06-08_16-38-42_260595134347_rgbf000106-resize_1-target.png,1000,2.074,25.0,2994,999,feet,jsons/v1_VE1000_randls_42.json,1450845,2054685,25,Man
118,687829,DepthScenes,duration_manipulation_targetAtFixation,jsons/v1_VE1000_randls_42.json,http://54.235.29.9/FacialAge/BNav_EC2/DepthDuration/v2_depth_duration_MTurk/v2_DepthDuration_HTML.html#383,383,1517,694,1366,768,9-3-2022,9-21-10,119,depth_duration_stimuli/001175_2014-06-17_15-45-55_260595134347_rgbf000129-resize_4/001175_2014-06-17_15-45-55_260595134347_rgbf000129-resize_4-target.png,1000,4.255,23.0,3234,1000,feet,jsons/v1_VE1000_randls_42.json,1450845,2054685,25,Man
119,687829,DepthScenes,duration_manipulation_targetAtFixation,jsons/v1_VE1000_randls_42.json,http://54.235.29.9/FacialAge/BNav_EC2/DepthDuration/v2_depth_duration_MTurk/v2_DepthDuration_HTML.html#383,383,1517,694,1366,768,9-3-2022,9-21-10,120,depth_duration_stimuli/003490_2014-05-21_15-50-11_094959634447_rgbf000101-resize_3/003490_2014-05-21_15-50-11_094959634447_rgbf000101-resize_3-target.png,1000,3.6445,23.0,128037,1000,feet,jsons/v1_VE1000_randls_42.json,1450845,2054685,25,Man
120,687829,DepthScenes,duration_manipulation_targetAtFixation,jsons/v1_VE1000_randls_42.json,http://54.235.29.9/FacialAge/BNav_EC2/DepthDuration/v2_depth_duration_MTurk/v2_DepthDuration_HTML.html#383,383,1517,694,1366,768,9-3-2022,9-21-10,121,depth_duration_stimuli/001150_2014-06-17_15-27-34_260595134347_rgbf000108-resize_2/001150_2014-06-17_15-27-34_260595134347_rgbf000108-resize_2-target.png,1000,4.0325,25.0,4266,1000,feet,jsons/v1_VE1000_randls_42.json,1450845,2054685,25,Man
121,687829,DepthScenes,duration_manipulation_targetAtFixation,jsons/v1_VE1000_randls_42.json,http://54.235.29.9/FacialAge/BNav_EC2/DepthDuration/v2_depth_duration_MTurk/v2_DepthDuration_HTML.html#383,383,1517,694,1366,768,9-3-2022,9-21-10,122,depth_duration_stimuli/000665_2014-06-09_20-42-35_260595134347_rgbf000110-resize_1/000665_2014-06-09_20-42-35_260595134347_rgbf000110-resize_1-target.png,1000,3.057,15.0,3394,999,feet,jsons/v1_VE1000_randls_42.json,1450845,2054685,25,Man
122,687829,DepthScenes,duration_manipulation_targetAtFixation,jsons/v1_VE1000_randls_42.json,http://54.235.29.9/FacialAge/BNav_EC2/DepthDuration/v2_depth_duration_MTurk/v2_DepthDuration_HTML.html#383,383,1517,694,1366,768,9-3-2022,9-21-10,123,depth_duration_stimuli/000810_2014-06-08_17-20-01_260595134347_rgbf000105-resize_0/000810_2014-06-08_17-20-01_260595134347_rgbf000105-resize_0-target.png,1000,1.4865,12.0,3044,1000,feet,jsons/v1_VE1000_randls_42.json,1450845,2054685,25,Man
123,687829,DepthScenes,duration_manipulation_targetAtFixation,jsons/v1_VE1000_randls_42.json,http://54.235.29.9/FacialAge/BNav_EC2/DepthDuration/v2_depth_duration_MTurk/v2_DepthDuration_HTML.html#383,383,1517,694,1366,768,9-3-2022,9-21-10,124,depth_duration_stimuli/001214_2014-06-17_16-13-55_260595134347_rgbf000111-resize_0/001214_2014-06-17_16-13-55_260595134347_rgbf000111-resize_0-target.png,1000,2.6505,52.0,3106,999,feet,jsons/v1_VE1000_randls_42.json,1450845,2054685,25,Man
124,687829,DepthScenes,duration_manipulation_targetAtFixation,jsons/v1_VE1000_randls_42.json,http://54.235.29.9/FacialAge/BNav_EC2/DepthDuration/v2_depth_duration_MTurk/v2_DepthDuration_HTML.html#383,383,1517,694,1366,768,9-3-2022,9-21-10,125,depth_duration_stimuli/001092_2014-06-15_17-34-58_260595134347_rgbf000171-resize_3/001092_2014-06-15_17-34-58_260595134347_rgbf000171-resize_3-target.png,1000,2.6935,12.0,2954,999,feet,jsons/v1_VE1000_randls_42.json,1450845,2054685,25,Man
125,687829,DepthScenes,duration_manipulation_targetAtFixation,jsons/v1_VE1000_randls_42.json,http://54.235.29.9/FacialAge/BNav_EC2/DepthDuration/v2_depth_duration_MTurk/v2_DepthDuration_HTML.html#383,383,1517,694,1366,768,9-3-2022,9-21-10,126,depth_duration_stimuli/002545_2014-06-24_13-38-53_094959634447_rgbf000080-resize_4/002545_2014-06-24_13-38-53_094959634447_rgbf000080-resize_4-target.png,1000,1.9205,52.0,3066,1000,feet,jsons/v1_VE1000_randls_42.json,1450845,2054685,25,Man
126,687829,DepthScenes,duration_manipulation_targetAtFixation,jsons/v1_VE1000_randls_42.json,http://54.235.29.9/FacialAge/BNav_EC2/DepthDuration/v2_depth_duration_MTurk/v2_DepthDuration_HTML.html#383,383,1517,694,1366,768,9-3-2022,9-21-10,127,depth_duration_stimuli/000414_2014-06-04_19-49-13_260595134347_rgbf000044-resize_0/000414_2014-06-04_19-49-13_260595134347_rgbf000044-resize_0-target.png,1000,4.329,25.0,2690,999,feet,jsons/v1_VE1000_randls_42.json,1450845,2054685,25,Man
127,687829,DepthScenes,duration_manipulation_targetAtFixation,jsons/v1_VE1000_randls_42.json,http://54.235.29.9/FacialAge/BNav_EC2/DepthDuration/v2_depth_duration_MTurk/v2_DepthDuration_HTML.html#383,383,1517,694,1366,768,9-3-2022,9-21-10,128,depth_duration_stimuli/003129_2014-05-12_10-48-10_094959634447_rgbf000100-resize_0/003129_2014-05-12_10-48-10_094959634447_rgbf000100-resize_0-target.png,1000,4.9305,12.0,3138,1000,feet,jsons/v1_VE1000_randls_42.json,1450845,2054685,25,Man
128,687829,DepthScenes,duration_manipulation_targetAtFixation,jsons/v1_VE1000_randls_42.json,http://54.235.29.9/FacialAge/BNav_EC2/DepthDuration/v2_depth_duration_MTurk/v2_DepthDuration_HTML.html#383,383,1517,694,1366,768,9-3-2022,9-21-10,129,depth_duration_stimuli/002630_2014-06-24_14-47-50_094959634447_rgbf000055-resize_1/002630_2014-06-24_14-47-50_094959634447_rgbf000055-resize_1-target.png,1000,3.0095,32.0,3033,999,feet,jsons/v1_VE1000_randls_42.json,1450845,2054685,25,Man
129,687829,DepthScenes,duration_manipulation_targetAtFixation,jsons/v1_VE1000_randls_42.json,http://54.235.29.9/FacialAge/BNav_EC2/DepthDuration/v2_depth_duration_MTurk/v2_DepthDuration_HTML.html#383,383,1517,694,1366,768,9-3-2022,9-21-10,130,depth_duration_stimuli/002758_2014-06-22_19-11-20_094959634447_rgbf000128-resize_1/002758_2014-06-22_19-11-20_094959634447_rgbf000128-resize_1-target.png,1000,2.555,25.0,3242,999,feet,jsons/v1_VE1000_randls_42.json,1450845,2054685,25,Man
130,687829,DepthScenes,duration_manipulation_targetAtFixation,jsons/v1_VE1000_randls_42.json,http://54.235.29.9/FacialAge/BNav_EC2/DepthDuration/v2_depth_duration_MTurk/v2_DepthDuration_HTML.html#383,383,1517,694,1366,768,9-3-2022,9-21-10,131,depth_duration_stimuli/000917_2014-06-09_22-45-29_260595134347_rgbf000149-resize_3/000917_2014-06-09_22-45-29_260595134347_rgbf000149-resize_3-target.png,1000,4.1865,15.0,3092,1000,feet,jsons/v1_VE1000_randls_42.json,1450845,2054685,25,Man
131,687829,DepthScenes,duration_manipulation_targetAtFixation,jsons/v1_VE1000_randls_42.json,http://54.235.29.9/FacialAge/BNav_EC2/DepthDuration/v2_depth_duration_MTurk/v2_DepthDuration_HTML.html#383,383,1517,694,1366,768,9-3-2022,9-21-10,132,depth_duration_stimuli/002323_2014-06-28_20-01-54_260595134347_rgbf000051-resize_4/002323_2014-06-28_20-01-54_260595134347_rgbf000051-resize_4-target.png,1000,3.7310000000000003,25.0,4506,999,feet,jsons/v1_VE1000_randls_42.json,1450845,2054685,25,Man
132,687829,DepthScenes,duration_manipulation_targetAtFixation,jsons/v1_VE1000_randls_42.json,http://54.235.29.9/FacialAge/BNav_EC2/DepthDuration/v2_depth_duration_MTurk/v2_DepthDuration_HTML.html#383,383,1517,694,1366,768,9-3-2022,9-21-10,133,depth_duration_stimuli/001806_2014-06-26_20-50-20_260595134347_rgbf000091-resize_1/001806_2014-06-26_20-50-20_260595134347_rgbf000091-resize_1-target.png,1000,2.7305,24.0,6963,1000,feet,jsons/v1_VE1000_randls_42.json,1450845,2054685,25,Man
133,687829,DepthScenes,duration_manipulation_targetAtFixation,jsons/v1_VE1000_randls_42.json,http://54.235.29.9/FacialAge/BNav_EC2/DepthDuration/v2_depth_duration_MTurk/v2_DepthDuration_HTML.html#383,383,1517,694,1366,768,9-3-2022,9-21-10,134,depth_duration_stimuli/001617_2014-06-20_11-35-32_260595134347_rgbf000066-resize_1/001617_2014-06-20_11-35-32_260595134347_rgbf000066-resize_1-target.png,1000,3.7910000000000004,25.0,4180,1000,feet,jsons/v1_VE1000_randls_42.json,1450845,2054685,25,Man
134,687829,DepthScenes,duration_manipulation_targetAtFixation,jsons/v1_VE1000_randls_42.json,http://54.235.29.9/FacialAge/BNav_EC2/DepthDuration/v2_depth_duration_MTurk/v2_DepthDuration_HTML.html#383,383,1517,694,1366,768,9-3-2022,9-21-10,135,depth_duration_stimuli/002072_2014-06-24_21-48-06_260595134347_rgbf000115-resize_0/002072_2014-06-24_21-48-06_260595134347_rgbf000115-resize-original.jpg,1000,4.702,12.0,3179,1001,feet,jsons/v1_VE1000_randls_42.json,1450845,2054685,25,Man
135,687829,DepthScenes,duration_manipulation_targetAtFixation,jsons/v1_VE1000_randls_42.json,http://54.235.29.9/FacialAge/BNav_EC2/DepthDuration/v2_depth_duration_MTurk/v2_DepthDuration_HTML.html#383,383,1517,694,1366,768,9-3-2022,9-21-10,136,depth_duration_stimuli/001199_2014-06-17_16-03-48_260595134347_rgbf000077-resize_0/001199_2014-06-17_16-03-48_260595134347_rgbf000077-resize_0-target.png,1000,3.4375,23.0,3041,1000,feet,jsons/v1_VE1000_randls_42.json,1450845,2054685,25,Man
136,687829,DepthScenes,duration_manipulation_targetAtFixation,jsons/v1_VE1000_randls_42.json,http://54.235.29.9/FacialAge/BNav_EC2/DepthDuration/v2_depth_duration_MTurk/v2_DepthDuration_HTML.html#383,383,1517,694,1366,768,9-3-2022,9-21-10,137,depth_duration_stimuli/000502_2014-06-08_23-02-32_260595134347_rgbf000063-resize_4/000502_2014-06-08_23-02-32_260595134347_rgbf000063-resize_4-target.png,1000,2.431,52.0,3386,999,feet,jsons/v1_VE1000_randls_42.json,1450845,2054685,25,Man
137,687829,DepthScenes,duration_manipulation_targetAtFixation,jsons/v1_VE1000_randls_42.json,http://54.235.29.9/FacialAge/BNav_EC2/DepthDuration/v2_depth_duration_MTurk/v2_DepthDuration_HTML.html#383,383,1517,694,1366,768,9-3-2022,9-21-10,138,depth_duration_stimuli/003492_2014-05-21_15-50-55_094959634447_rgbf000828-resize_1/003492_2014-05-21_15-50-55_094959634447_rgbf000828-resize_1-target.png,1000,4.06875,25.0,3027,1000,feet,jsons/v1_VE1000_randls_42.json,1450845,2054685,25,Man
138,687829,DepthScenes,duration_manipulation_targetAtFixation,jsons/v1_VE1000_randls_42.json,http://54.235.29.9/FacialAge/BNav_EC2/DepthDuration/v2_depth_duration_MTurk/v2_DepthDuration_HTML.html#383,383,1517,694,1366,768,9-3-2022,9-21-10,139,depth_duration_stimuli/002568_2014-06-24_13-59-21_094959634447_rgbf000062-resize_4/002568_2014-06-24_13-59-21_094959634447_rgbf000062-resize_4-target.png,1000,3.015,12.0,3067,999,feet,jsons/v1_VE1000_randls_42.json,1450845,2054685,25,Man
139,687829,DepthScenes,duration_manipulation_targetAtFixation,jsons/v1_VE1000_randls_42.json,http://54.235.29.9/FacialAge/BNav_EC2/DepthDuration/v2_depth_duration_MTurk/v2_DepthDuration_HTML.html#383,383,1517,694,1366,768,9-3-2022,9-21-10,140,depth_duration_stimuli/001011_2014-06-08_23-18-54_260595134347_rgbf000044-resize_4/001011_2014-06-08_23-18-54_260595134347_rgbf000044-resize_4-target.png,1000,2.4730000000000003,12.0,3146,999,feet,jsons/v1_VE1000_randls_42.json,1450845,2054685,25,Man
140,687829,DepthScenes,duration_manipulation_targetAtFixation,jsons/v1_VE1000_randls_42.json,http://54.235.29.9/FacialAge/BNav_EC2/DepthDuration/v2_depth_duration_MTurk/v2_DepthDuration_HTML.html#383,383,1517,694,1366,768,9-3-2022,9-21-10,141,depth_duration_stimuli/002875_2014-06-01_15-19-00_094959634447_rgbf000151-resize_1/002875_2014-06-01_15-19-00_094959634447_rgbf000151-resize_1-target.png,1000,1.9675,23.0,68123,998,feet,jsons/v1_VE1000_randls_42.json,1450845,2054685,25,Man
141,687829,DepthScenes,duration_manipulation_targetAtFixation,jsons/v1_VE1000_randls_42.json,http://54.235.29.9/FacialAge/BNav_EC2/DepthDuration/v2_depth_duration_MTurk/v2_DepthDuration_HTML.html#383,383,1517,694,1366,768,9-3-2022,9-21-10,142,depth_duration_stimuli/002118_2014-06-25_20-32-08_260595134347_rgbf000078-resize_1/002118_2014-06-25_20-32-08_260595134347_rgbf000078-resize_1-target.png,1000,2.6460000000000004,25.0,3114,1000,feet,jsons/v1_VE1000_randls_42.json,1450845,2054685,25,Man
142,687829,DepthScenes,duration_manipulation_targetAtFixation,jsons/v1_VE1000_randls_42.json,http://54.235.29.9/FacialAge/BNav_EC2/DepthDuration/v2_depth_duration_MTurk/v2_DepthDuration_HTML.html#383,383,1517,694,1366,768,9-3-2022,9-21-10,143,depth_duration_stimuli/001516_2014-06-20_16-25-09_260595134347_rgbf000076-resize_2/001516_2014-06-20_16-25-09_260595134347_rgbf000076-resize_2-target.png,1000,1.7445,21.0,3563,1000,feet,jsons/v1_VE1000_randls_42.json,1450845,2054685,25,Man
143,687829,DepthScenes,duration_manipulation_targetAtFixation,jsons/v1_VE1000_randls_42.json,http://54.235.29.9/FacialAge/BNav_EC2/DepthDuration/v2_depth_duration_MTurk/v2_DepthDuration_HTML.html#383,383,1517,694,1366,768,9-3-2022,9-21-10,144,depth_duration_stimuli/000009_2014-05-26_14-32-05_260595134347_rgbf000034-resize_3/000009_2014-05-26_14-32-05_260595134347_rgbf000034-resize_3-target.png,1000,3.8715,12.0,3553,1000,feet,jsons/v1_VE1000_randls_42.json,1450845,2054685,25,Man
144,687829,DepthScenes,duration_manipulation_targetAtFixation,jsons/v1_VE1000_randls_42.json,http://54.235.29.9/FacialAge/BNav_EC2/DepthDuration/v2_depth_duration_MTurk/v2_DepthDuration_HTML.html#383,383,1517,694,1366,768,9-3-2022,9-21-10,145,depth_duration_stimuli/001828_2014-06-26_21-40-03_260595134347_rgbf000024-resize_0/001828_2014-06-26_21-40-03_260595134347_rgbf000024-resize_0-target.png,1000,4.8260000000000005,24.0,3964,1000,feet,jsons/v1_VE1000_randls_42.json,1450845,2054685,25,Man
145,687829,DepthScenes,duration_manipulation_targetAtFixation,jsons/v1_VE1000_randls_42.json,http://54.235.29.9/FacialAge/BNav_EC2/DepthDuration/v2_depth_duration_MTurk/v2_DepthDuration_HTML.html#383,383,1517,694,1366,768,9-3-2022,9-21-10,146,depth_duration_stimuli/001498_2014-06-19_17-45-14_260595134347_rgbf000129-resize_4/001498_2014-06-19_17-45-14_260595134347_rgbf000129-resize-original.jpg,1000,1.4075,0.0,2945,999,feet,jsons/v1_VE1000_randls_42.json,1450845,2054685,25,Man
146,687829,DepthScenes,duration_manipulation_targetAtFixation,jsons/v1_VE1000_randls_42.json,http://54.235.29.9/FacialAge/BNav_EC2/DepthDuration/v2_depth_duration_MTurk/v2_DepthDuration_HTML.html#383,383,1517,694,1366,768,9-3-2022,9-21-10,147,depth_duration_stimuli/000906_2014-06-08_13-35-43_260595134347_rgbf000155-resize_1/000906_2014-06-08_13-35-43_260595134347_rgbf000155-resize_1-target.png,1000,2.8489999999999998,12.0,4251,1000,feet,jsons/v1_VE1000_randls_42.json,1450845,2054685,25,Man
147,687829,DepthScenes,duration_manipulation_targetAtFixation,jsons/v1_VE1000_randls_42.json,http://54.235.29.9/FacialAge/BNav_EC2/DepthDuration/v2_depth_duration_MTurk/v2_DepthDuration_HTML.html#383,383,1517,694,1366,768,9-3-2022,9-21-10,148,depth_duration_stimuli/002805_2014-06-22_19-54-03_094959634447_rgbf000079-resize_1/002805_2014-06-22_19-54-03_094959634447_rgbf000079-resize_1-target.png,1000,3.1439999999999997,23.0,150421,998,feet,jsons/v1_VE1000_randls_42.json,1450845,2054685,25,Man
148,687829,DepthScenes,duration_manipulation_targetAtFixation,jsons/v1_VE1000_randls_42.json,http://54.235.29.9/FacialAge/BNav_EC2/DepthDuration/v2_depth_duration_MTurk/v2_DepthDuration_HTML.html#383,383,1517,694,1366,768,9-3-2022,9-21-10,149,depth_duration_stimuli/000736_2014-06-08_18-24-15_260595134347_rgbf000206-resize_3/000736_2014-06-08_18-24-15_260595134347_rgbf000206-resize_3-target.png,1000,3.515,23.0,3330,1001,feet,jsons/v1_VE1000_randls_42.json,1450845,2054685,25,Man
149,687829,DepthScenes,duration_manipulation_targetAtFixation,jsons/v1_VE1000_randls_42.json,http://54.235.29.9/FacialAge/BNav_EC2/DepthDuration/v2_depth_duration_MTurk/v2_DepthDuration_HTML.html#383,383,1517,694,1366,768,9-3-2022,9-21-10,150,depth_duration_stimuli/000137_2014-05-20_17-04-49_260595134347_rgbf000120-resize_1/000137_2014-05-20_17-04-49_260595134347_rgbf000120-resize_1-target.png,1000,3.786,52.0,3082,999,feet,jsons/v1_VE1000_randls_42.json,1450845,2054685,25,Man
150,687829,DepthScenes,duration_manipulation_targetAtFixation,jsons/v1_VE1000_randls_42.json,http://54.235.29.9/FacialAge/BNav_EC2/DepthDuration/v2_depth_duration_MTurk/v2_DepthDuration_HTML.html#383,383,1517,694,1366,768,9-3-2022,9-21-10,151,depth_duration_stimuli/002988_2014-06-15_12-24-20_094959634447_rgbf000150-resize_1/002988_2014-06-15_12-24-20_094959634447_rgbf000150-resize_1-target.png,1000,4.7669999999999995,24.0,3250,999,feet,jsons/v1_VE1000_randls_42.json,1450845,2054685,25,Man
151,687829,DepthScenes,duration_manipulation_targetAtFixation,jsons/v1_VE1000_randls_42.json,http://54.235.29.9/FacialAge/BNav_EC2/DepthDuration/v2_depth_duration_MTurk/v2_DepthDuration_HTML.html#383,383,1517,694,1366,768,9-3-2022,9-21-10,152,depth_duration_stimuli/001052_2014-06-08_18-24-54_260595134347_rgbf000130-resize_1/001052_2014-06-08_18-24-54_260595134347_rgbf000130-resize_1-target.png,1000,4.1045,12.0,3146,999,feet,jsons/v1_VE1000_randls_42.json,1450845,2054685,25,Man
152,687829,DepthScenes,duration_manipulation_targetAtFixation,jsons/v1_VE1000_randls_42.json,http://54.235.29.9/FacialAge/BNav_EC2/DepthDuration/v2_depth_duration_MTurk/v2_DepthDuration_HTML.html#383,383,1517,694,1366,768,9-3-2022,9-21-10,153,depth_duration_stimuli/003292_2014-05-14_21-53-49_094959634447_rgbf000100-resize_2/003292_2014-05-14_21-53-49_094959634447_rgbf000100-resize_2-target.png,1000,3.4815,52.0,3154,999,feet,jsons/v1_VE1000_randls_42.json,1450845,2054685,25,Man
153,687829,DepthScenes,duration_manipulation_targetAtFixation,jsons/v1_VE1000_randls_42.json,http://54.235.29.9/FacialAge/BNav_EC2/DepthDuration/v2_depth_duration_MTurk/v2_DepthDuration_HTML.html#383,383,1517,694,1366,768,9-3-2022,9-21-10,154,depth_duration_stimuli/002639_2014-06-24_14-51-37_094959634447_rgbf000074-resize_4/002639_2014-06-24_14-51-37_094959634447_rgbf000074-resize_4-target.png,1000,4.0375,25.0,3146,999,feet,jsons/v1_VE1000_randls_42.json,1450845,2054685,25,Man
154,687829,DepthScenes,duration_manipulation_targetAtFixation,jsons/v1_VE1000_randls_42.json,http://54.235.29.9/FacialAge/BNav_EC2/DepthDuration/v2_depth_duration_MTurk/v2_DepthDuration_HTML.html#383,383,1517,694,1366,768,9-3-2022,9-21-10,155,depth_duration_stimuli/000788_2014-06-08_22-34-36_260595134347_rgbf000131-resize_1/000788_2014-06-08_22-34-36_260595134347_rgbf000131-resize_1-target.png,1000,3.359,12.0,4763,999,feet,jsons/v1_VE1000_randls_42.json,1450845,2054685,25,Man
155,687829,DepthScenes,duration_manipulation_targetAtFixation,jsons/v1_VE1000_randls_42.json,http://54.235.29.9/FacialAge/BNav_EC2/DepthDuration/v2_depth_duration_MTurk/v2_DepthDuration_HTML.html#383,383,1517,694,1366,768,9-3-2022,9-21-10,156,depth_duration_stimuli/001235_2014-06-17_16-37-36_260595134347_rgbf000084-resize_4/001235_2014-06-17_16-37-36_260595134347_rgbf000084-resize_4-target.png,1000,3.6605,15.0,2985,1000,feet,jsons/v1_VE1000_randls_42.json,1450845,2054685,25,Man
156,687829,DepthScenes,duration_manipulation_targetAtFixation,jsons/v1_VE1000_randls_42.json,http://54.235.29.9/FacialAge/BNav_EC2/DepthDuration/v2_depth_duration_MTurk/v2_DepthDuration_HTML.html#383,383,1517,694,1366,768,9-3-2022,9-21-10,157,depth_duration_stimuli/002784_2014-06-22_19-26-30_094959634447_rgbf000083-resize_3/002784_2014-06-22_19-26-30_094959634447_rgbf000083-resize_3-target.png,1000,1.8046666666667,42.0,3259,1000,feet,jsons/v1_VE1000_randls_42.json,1450845,2054685,25,Man
157,687829,DepthScenes,duration_manipulation_targetAtFixation,jsons/v1_VE1000_randls_42.json,http://54.235.29.9/FacialAge/BNav_EC2/DepthDuration/v2_depth_duration_MTurk/v2_DepthDuration_HTML.html#383,383,1517,694,1366,768,9-3-2022,9-21-10,158,depth_duration_stimuli/001100_2014-06-15_17-46-26_260595134347_rgbf000225-resize_2/001100_2014-06-15_17-46-26_260595134347_rgbf000225-resize_2-target.png,1000,2.24,12.0,3018,999,feet,jsons/v1_VE1000_randls_42.json,1450845,2054685,25,Man
158,687829,DepthScenes,duration_manipulation_targetAtFixation,jsons/v1_VE1000_randls_42.json,http://54.235.29.9/FacialAge/BNav_EC2/DepthDuration/v2_depth_duration_MTurk/v2_DepthDuration_HTML.html#383,383,1517,694,1366,768,9-3-2022,9-21-10,159,depth_duration_stimuli/002445_2014-06-28_20-32-16_260595134347_rgbf000029-resize_4/002445_2014-06-28_20-32-16_260595134347_rgbf000029-resize_4-target.png,1000,2.5315,25.0,3000,999,feet,jsons/v1_VE1000_randls_42.json,1450845,2054685,25,Man
159,687829,DepthScenes,duration_manipulation_targetAtFixation,jsons/v1_VE1000_randls_42.json,http://54.235.29.9/FacialAge/BNav_EC2/DepthDuration/v2_depth_duration_MTurk/v2_DepthDuration_HTML.html#383,383,1517,694,1366,768,9-3-2022,9-21-10,160,depth_duration_stimuli/000780_2014-06-08_22-28-29_260595134347_rgbf000126-resize_1/000780_2014-06-08_22-28-29_260595134347_rgbf000126-resize_1-target.png,1000,3.3825,14.0,3194,999,feet,jsons/v1_VE1000_randls_42.json,1450845,2054685,25,Man
160,687829,DepthScenes,duration_manipulation_targetAtFixation,jsons/v1_VE1000_randls_42.json,http://54.235.29.9/FacialAge/BNav_EC2/DepthDuration/v2_depth_duration_MTurk/v2_DepthDuration_HTML.html#383,383,1517,694,1366,768,9-3-2022,9-21-10,161,depth_duration_stimuli/001810_2014-06-26_20-51-35_260595134347_rgbf000040-resize_3/001810_2014-06-26_20-51-35_260595134347_rgbf000040-resize_3-target.png,1000,2.2525,15.0,2986,999,feet,jsons/v1_VE1000_randls_42.json,1450845,2054685,25,Man
161,687829,DepthScenes,duration_manipulation_targetAtFixation,jsons/v1_VE1000_randls_42.json,http://54.235.29.9/FacialAge/BNav_EC2/DepthDuration/v2_depth_duration_MTurk/v2_DepthDuration_HTML.html#383,383,1517,694,1366,768,9-3-2022,9-21-10,162,depth_duration_stimuli/003010_2014-06-15_12-54-35_094959634447_rgbf000112-resize_0/003010_2014-06-15_12-54-35_094959634447_rgbf000112-resize_0-target.png,1000,3.1185,53.0,3547,1001,feet,jsons/v1_VE1000_randls_42.json,1450845,2054685,25,Man
162,687829,DepthScenes,duration_manipulation_targetAtFixation,jsons/v1_VE1000_randls_42.json,http://54.235.29.9/FacialAge/BNav_EC2/DepthDuration/v2_depth_duration_MTurk/v2_DepthDuration_HTML.html#383,383,1517,694,1366,768,9-3-2022,9-21-10,163,depth_duration_stimuli/001056_2014-06-08_18-46-44_260595134347_rgbf000068-resize_0/001056_2014-06-08_18-46-44_260595134347_rgbf000068-resize_0-target.png,1000,2.6625,12.0,3250,999,feet,jsons/v1_VE1000_randls_42.json,1450845,2054685,25,Man
163,687829,DepthScenes,duration_manipulation_targetAtFixation,jsons/v1_VE1000_randls_42.json,http://54.235.29.9/FacialAge/BNav_EC2/DepthDuration/v2_depth_duration_MTurk/v2_DepthDuration_HTML.html#383,383,1517,694,1366,768,9-3-2022,9-21-10,164,depth_duration_stimuli/002199_2014-06-28_18-33-56_260595134347_rgbf000074-resize_0/002199_2014-06-28_18-33-56_260595134347_rgbf000074-resize_0-target.png,1000,1.996,42.0,3378,999,feet,jsons/v1_VE1000_randls_42.json,1450845,2054685,25,Man
