,subjID,experimentName,versionName,sequenceName,url,selected_row,windowWidth,windowHeight,screenWidth,screenHeight,startDate,startTime,trial,stimulus,duration,actual_depth,depth_estimate,trial_RT,log_sceneDuration,unitSelection,seq_filepath,experimentTime,totalTime,age,gender
0,687918,DepthScenes,duration_manipulation_targetAtFixation,jsons/v1_VE250_randls_55_rotated.json,http://54.235.29.9/FacialAge/BNav_EC2/DepthDuration/v2_depth_duration_MTurk/v2_DepthDuration_HTML.html#28,28,1440,789,1440,900,8-20-2022,10-57-59,1,depth_duration_stimuli/000677_2014-06-08_23-10-32_260595134347_rgbf000158-resize_6/000677_2014-06-08_23-10-32_260595134347_rgbf000158-resize_6-target.png,250,3.556,10,4549,249,feet,jsons/v1_VE250_randls_55_rotated.json,731358,1160050,51,Woman
1,687918,DepthScenes,duration_manipulation_targetAtFixation,jsons/v1_VE250_randls_55_rotated.json,http://54.235.29.9/FacialAge/BNav_EC2/DepthDuration/v2_depth_duration_MTurk/v2_DepthDuration_HTML.html#28,28,1440,789,1440,900,8-20-2022,10-57-59,2,depth_duration_stimuli/001029_2014-06-08_13-17-57_260595134347_rgbf000065-resize_1/001029_2014-06-08_13-17-57_260595134347_rgbf000065-resize_1-target.png,250,3.0835,12,3973,249,feet,jsons/v1_VE250_randls_55_rotated.json,731358,1160050,51,Woman
2,687918,DepthScenes,duration_manipulation_targetAtFixation,jsons/v1_VE250_randls_55_rotated.json,http://54.235.29.9/FacialAge/BNav_EC2/DepthDuration/v2_depth_duration_MTurk/v2_DepthDuration_HTML.html#28,28,1440,789,1440,900,8-20-2022,10-57-59,3,depth_duration_stimuli/001032_2014-06-08_13-23-17_260595134347_rgbf000021-resize_3/001032_2014-06-08_13-23-17_260595134347_rgbf000021-resize_3-target.png,250,3.2725,7,5561,251,feet,jsons/v1_VE250_randls_55_rotated.json,731358,1160050,51,Woman
3,687918,DepthScenes,duration_manipulation_targetAtFixation,jsons/v1_VE250_randls_55_rotated.json,http://54.235.29.9/FacialAge/BNav_EC2/DepthDuration/v2_depth_duration_MTurk/v2_DepthDuration_HTML.html#28,28,1440,789,1440,900,8-20-2022,10-57-59,4,depth_duration_stimuli/001059_2014-06-08_21-53-27_260595134347_rgbf000061-resize_4/001059_2014-06-08_21-53-27_260595134347_rgbf000061-resize_4-target.png,250,2.4185,6,3933,248,feet,jsons/v1_VE250_randls_55_rotated.json,731358,1160050,51,Woman
4,687918,DepthScenes,duration_manipulation_targetAtFixation,jsons/v1_VE250_randls_55_rotated.json,http://54.235.29.9/FacialAge/BNav_EC2/DepthDuration/v2_depth_duration_MTurk/v2_DepthDuration_HTML.html#28,28,1440,789,1440,900,8-20-2022,10-57-59,5,depth_duration_stimuli/003423_2014-05-21_10-23-26_094959634447_rgbf002665-resize_2/003423_2014-05-21_10-23-26_094959634447_rgbf002665-resize_2-target.png,250,3.2575,9,4109,250,feet,jsons/v1_VE250_randls_55_rotated.json,731358,1160050,51,Woman
5,687918,DepthScenes,duration_manipulation_targetAtFixation,jsons/v1_VE250_randls_55_rotated.json,http://54.235.29.9/FacialAge/BNav_EC2/DepthDuration/v2_depth_duration_MTurk/v2_DepthDuration_HTML.html#28,28,1440,789,1440,900,8-20-2022,10-57-59,6,depth_duration_stimuli/002905_2014-06-03_18-04-43_094959634447_rgbf000151-resize_2/002905_2014-06-03_18-04-43_094959634447_rgbf000151-resize_2-target.png,250,2.0295,4,3485,254,feet,jsons/v1_VE250_randls_55_rotated.json,731358,1160050,51,Woman
6,687918,DepthScenes,duration_manipulation_targetAtFixation,jsons/v1_VE250_randls_55_rotated.json,http://54.235.29.9/FacialAge/BNav_EC2/DepthDuration/v2_depth_duration_MTurk/v2_DepthDuration_HTML.html#28,28,1440,789,1440,900,8-20-2022,10-57-59,7,depth_duration_stimuli/000866_2014-06-09_20-45-42_260595134347_rgbf000139-resize_1/000866_2014-06-09_20-45-42_260595134347_rgbf000139-resize_1-target.png,250,3.2155,5,3073,250,feet,jsons/v1_VE250_randls_55_rotated.json,731358,1160050,51,Woman
7,687918,DepthScenes,duration_manipulation_targetAtFixation,jsons/v1_VE250_randls_55_rotated.json,http://54.235.29.9/FacialAge/BNav_EC2/DepthDuration/v2_depth_duration_MTurk/v2_DepthDuration_HTML.html#28,28,1440,789,1440,900,8-20-2022,10-57-59,8,depth_duration_stimuli/002989_2014-06-15_12-25-03_094959634447_rgbf000150-resize_3/002989_2014-06-15_12-25-03_094959634447_rgbf000150-resize_3-target.png,250,4.1975,14,6714,252,feet,jsons/v1_VE250_randls_55_rotated.json,731358,1160050,51,Woman
8,687918,DepthScenes,duration_manipulation_targetAtFixation,jsons/v1_VE250_randls_55_rotated.json,http://54.235.29.9/FacialAge/BNav_EC2/DepthDuration/v2_depth_duration_MTurk/v2_DepthDuration_HTML.html#28,28,1440,789,1440,900,8-20-2022,10-57-59,9,depth_duration_stimuli/002949_2014-06-26_15-57-42_094959634447_rgbf000079-resize_1/002949_2014-06-26_15-57-42_094959634447_rgbf000079-resize_1-target.png,250,1.8915,3,4581,253,feet,jsons/v1_VE250_randls_55_rotated.json,731358,1160050,51,Woman
9,687918,DepthScenes,duration_manipulation_targetAtFixation,jsons/v1_VE250_randls_55_rotated.json,http://54.235.29.9/FacialAge/BNav_EC2/DepthDuration/v2_depth_duration_MTurk/v2_DepthDuration_HTML.html#28,28,1440,789,1440,900,8-20-2022,10-57-59,10,depth_duration_stimuli/000522_2014-06-08_13-35-06_260595134347_rgbf000244-resize_1/000522_2014-06-08_13-35-06_260595134347_rgbf000244-resize_1-target.png,250,2.3715,2,2651,248,feet,jsons/v1_VE250_randls_55_rotated.json,731358,1160050,51,Woman
10,687918,DepthScenes,duration_manipulation_targetAtFixation,jsons/v1_VE250_randls_55_rotated.json,http://54.235.29.9/FacialAge/BNav_EC2/DepthDuration/v2_depth_duration_MTurk/v2_DepthDuration_HTML.html#28,28,1440,789,1440,900,8-20-2022,10-57-59,11,depth_duration_stimuli/000635_2014-06-08_16-38-42_260595134347_rgbf000106-resize_1/000635_2014-06-08_16-38-42_260595134347_rgbf000106-resize_1-target.png,250,2.074,5,3110,254,feet,jsons/v1_VE250_randls_55_rotated.json,731358,1160050,51,Woman
11,687918,DepthScenes,duration_manipulation_targetAtFixation,jsons/v1_VE250_randls_55_rotated.json,http://54.235.29.9/FacialAge/BNav_EC2/DepthDuration/v2_depth_duration_MTurk/v2_DepthDuration_HTML.html#28,28,1440,789,1440,900,8-20-2022,10-57-59,12,depth_duration_stimuli/002279_2014-06-28_18-55-32_260595134347_rgbf000040-resize_5/002279_2014-06-28_18-55-32_260595134347_rgbf000040-resize_5-target.png,250,1.5043333333333,3,3034,250,feet,jsons/v1_VE250_randls_55_rotated.json,731358,1160050,51,Woman
12,687918,DepthScenes,duration_manipulation_targetAtFixation,jsons/v1_VE250_randls_55_rotated.json,http://54.235.29.9/FacialAge/BNav_EC2/DepthDuration/v2_depth_duration_MTurk/v2_DepthDuration_HTML.html#28,28,1440,789,1440,900,8-20-2022,10-57-59,13,depth_duration_stimuli/002209_2014-06-28_18-36-10_260595134347_rgbf000051-resize_1/002209_2014-06-28_18-36-10_260595134347_rgbf000051-resize_1-target.png,250,2.057,2,4843,249,feet,jsons/v1_VE250_randls_55_rotated.json,731358,1160050,51,Woman
13,687918,DepthScenes,duration_manipulation_targetAtFixation,jsons/v1_VE250_randls_55_rotated.json,http://54.235.29.9/FacialAge/BNav_EC2/DepthDuration/v2_depth_duration_MTurk/v2_DepthDuration_HTML.html#28,28,1440,789,1440,900,8-20-2022,10-57-59,14,depth_duration_stimuli/002763_2014-06-22_19-13-10_094959634447_rgbf000075-resize_4/002763_2014-06-22_19-13-10_094959634447_rgbf000075-resize_4-target.png,250,1.68375,5,4029,250,feet,jsons/v1_VE250_randls_55_rotated.json,731358,1160050,51,Woman
14,687918,DepthScenes,duration_manipulation_targetAtFixation,jsons/v1_VE250_randls_55_rotated.json,http://54.235.29.9/FacialAge/BNav_EC2/DepthDuration/v2_depth_duration_MTurk/v2_DepthDuration_HTML.html#28,28,1440,789,1440,900,8-20-2022,10-57-59,15,depth_duration_stimuli/002199_2014-06-28_18-33-56_260595134347_rgbf000074-resize_0/002199_2014-06-28_18-33-56_260595134347_rgbf000074-resize_0-target.png,250,1.996,2,6760,253,feet,jsons/v1_VE250_randls_55_rotated.json,731358,1160050,51,Woman
15,687918,DepthScenes,duration_manipulation_targetAtFixation,jsons/v1_VE250_randls_55_rotated.json,http://54.235.29.9/FacialAge/BNav_EC2/DepthDuration/v2_depth_duration_MTurk/v2_DepthDuration_HTML.html#28,28,1440,789,1440,900,8-20-2022,10-57-59,16,depth_duration_stimuli/001056_2014-06-08_18-46-44_260595134347_rgbf000068-resize_0/001056_2014-06-08_18-46-44_260595134347_rgbf000068-resize_0-target.png,250,2.6625,10,3614,254,feet,jsons/v1_VE250_randls_55_rotated.json,731358,1160050,51,Woman
16,687918,DepthScenes,duration_manipulation_targetAtFixation,jsons/v1_VE250_randls_55_rotated.json,http://54.235.29.9/FacialAge/BNav_EC2/DepthDuration/v2_depth_duration_MTurk/v2_DepthDuration_HTML.html#28,28,1440,789,1440,900,8-20-2022,10-57-59,17,depth_duration_stimuli/000943_2014-06-09_19-31-07_260595134347_rgbf000128-resize_1/000943_2014-06-09_19-31-07_260595134347_rgbf000128-resize_1-target.png,250,1.9765,4,3317,250,feet,jsons/v1_VE250_randls_55_rotated.json,731358,1160050,51,Woman
17,687918,DepthScenes,duration_manipulation_targetAtFixation,jsons/v1_VE250_randls_55_rotated.json,http://54.235.29.9/FacialAge/BNav_EC2/DepthDuration/v2_depth_duration_MTurk/v2_DepthDuration_HTML.html#28,28,1440,789,1440,900,8-20-2022,10-57-59,18,depth_duration_stimuli/003070_2014-06-15_14-58-27_094959634447_rgbf000150-resize_3/003070_2014-06-15_14-58-27_094959634447_rgbf000150-resize_3-target.png,250,2.9415,9,4266,249,feet,jsons/v1_VE250_randls_55_rotated.json,731358,1160050,51,Woman
18,687918,DepthScenes,duration_manipulation_targetAtFixation,jsons/v1_VE250_randls_55_rotated.json,http://54.235.29.9/FacialAge/BNav_EC2/DepthDuration/v2_depth_duration_MTurk/v2_DepthDuration_HTML.html#28,28,1440,789,1440,900,8-20-2022,10-57-59,19,depth_duration_stimuli/001498_2014-06-19_17-45-14_260595134347_rgbf000129-resize_4/001498_2014-06-19_17-45-14_260595134347_rgbf000129-resize-original.jpg,250,1.4075,0,5186,253,feet,jsons/v1_VE250_randls_55_rotated.json,731358,1160050,51,Woman
19,687918,DepthScenes,duration_manipulation_targetAtFixation,jsons/v1_VE250_randls_55_rotated.json,http://54.235.29.9/FacialAge/BNav_EC2/DepthDuration/v2_depth_duration_MTurk/v2_DepthDuration_HTML.html#28,28,1440,789,1440,900,8-20-2022,10-57-59,20,depth_duration_stimuli/001052_2014-06-08_18-24-54_260595134347_rgbf000130-resize_1/001052_2014-06-08_18-24-54_260595134347_rgbf000130-resize_1-target.png,250,4.1045,12,5667,253,feet,jsons/v1_VE250_randls_55_rotated.json,731358,1160050,51,Woman
20,687918,DepthScenes,duration_manipulation_targetAtFixation,jsons/v1_VE250_randls_55_rotated.json,http://54.235.29.9/FacialAge/BNav_EC2/DepthDuration/v2_depth_duration_MTurk/v2_DepthDuration_HTML.html#28,28,1440,789,1440,900,8-20-2022,10-57-59,21,depth_duration_stimuli/002988_2014-06-15_12-24-20_094959634447_rgbf000150-resize_1/002988_2014-06-15_12-24-20_094959634447_rgbf000150-resize_1-target.png,250,4.7669999999999995,10,5405,249,feet,jsons/v1_VE250_randls_55_rotated.json,731358,1160050,51,Woman
21,687918,DepthScenes,duration_manipulation_targetAtFixation,jsons/v1_VE250_randls_55_rotated.json,http://54.235.29.9/FacialAge/BNav_EC2/DepthDuration/v2_depth_duration_MTurk/v2_DepthDuration_HTML.html#28,28,1440,789,1440,900,8-20-2022,10-57-59,22,depth_duration_stimuli/001584_2014-06-20_11-07-43_260595134347_rgbf000002-resize_1/001584_2014-06-20_11-07-43_260595134347_rgbf000002-resize_1-target.png,250,3.53,10,4051,251,feet,jsons/v1_VE250_randls_55_rotated.json,731358,1160050,51,Woman
22,687918,DepthScenes,duration_manipulation_targetAtFixation,jsons/v1_VE250_randls_55_rotated.json,http://54.235.29.9/FacialAge/BNav_EC2/DepthDuration/v2_depth_duration_MTurk/v2_DepthDuration_HTML.html#28,28,1440,789,1440,900,8-20-2022,10-57-59,23,depth_duration_stimuli/003621_2014-05-23_18-06-08_094959634447_rgbf000101-resize_1/003621_2014-05-23_18-06-08_094959634447_rgbf000101-resize_1-target.png,250,3.9835,9,3848,250,feet,jsons/v1_VE250_randls_55_rotated.json,731358,1160050,51,Woman
23,687918,DepthScenes,duration_manipulation_targetAtFixation,jsons/v1_VE250_randls_55_rotated.json,http://54.235.29.9/FacialAge/BNav_EC2/DepthDuration/v2_depth_duration_MTurk/v2_DepthDuration_HTML.html#28,28,1440,789,1440,900,8-20-2022,10-57-59,24,depth_duration_stimuli/000556_2014-06-09_22-42-56_260595134347_rgbf000214-resize_1/000556_2014-06-09_22-42-56_260595134347_rgbf000214-resize_1-target.png,250,4.8415,15,3940,254,feet,jsons/v1_VE250_randls_55_rotated.json,731358,1160050,51,Woman
24,687918,DepthScenes,duration_manipulation_targetAtFixation,jsons/v1_VE250_randls_55_rotated.json,http://54.235.29.9/FacialAge/BNav_EC2/DepthDuration/v2_depth_duration_MTurk/v2_DepthDuration_HTML.html#28,28,1440,789,1440,900,8-20-2022,10-57-59,25,depth_duration_stimuli/001158_2014-06-17_15-32-16_260595134347_rgbf000138-resize_2/001158_2014-06-17_15-32-16_260595134347_rgbf000138-resize_2-target.png,250,4.5315,8,5024,250,feet,jsons/v1_VE250_randls_55_rotated.json,731358,1160050,51,Woman
25,687918,DepthScenes,duration_manipulation_targetAtFixation,jsons/v1_VE250_randls_55_rotated.json,http://54.235.29.9/FacialAge/BNav_EC2/DepthDuration/v2_depth_duration_MTurk/v2_DepthDuration_HTML.html#28,28,1440,789,1440,900,8-20-2022,10-57-59,26,depth_duration_stimuli/000457_2014-06-08_16-52-43_260595134347_rgbf000199-resize_1/000457_2014-06-08_16-52-43_260595134347_rgbf000199-resize_1-target.png,250,3.6489999999999996,10,4090,252,feet,jsons/v1_VE250_randls_55_rotated.json,731358,1160050,51,Woman
26,687918,DepthScenes,duration_manipulation_targetAtFixation,jsons/v1_VE250_randls_55_rotated.json,http://54.235.29.9/FacialAge/BNav_EC2/DepthDuration/v2_depth_duration_MTurk/v2_DepthDuration_HTML.html#28,28,1440,789,1440,900,8-20-2022,10-57-59,27,depth_duration_stimuli/000929_2014-06-09_16-33-19_260595134347_rgbf000139-resize_0/000929_2014-06-09_16-33-19_260595134347_rgbf000139-resize_0-target.png,250,2.8680000000000003,9,4807,253,feet,jsons/v1_VE250_randls_55_rotated.json,731358,1160050,51,Woman
27,687918,DepthScenes,duration_manipulation_targetAtFixation,jsons/v1_VE250_randls_55_rotated.json,http://54.235.29.9/FacialAge/BNav_EC2/DepthDuration/v2_depth_duration_MTurk/v2_DepthDuration_HTML.html#28,28,1440,789,1440,900,8-20-2022,10-57-59,28,depth_duration_stimuli/000691_2014-06-08_13-08-50_260595134347_rgbf000132-resize_3/000691_2014-06-08_13-08-50_260595134347_rgbf000132-resize_3-target.png,250,4.1530000000000005,12,3331,249,feet,jsons/v1_VE250_randls_55_rotated.json,731358,1160050,51,Woman
28,687918,DepthScenes,duration_manipulation_targetAtFixation,jsons/v1_VE250_randls_55_rotated.json,http://54.235.29.9/FacialAge/BNav_EC2/DepthDuration/v2_depth_duration_MTurk/v2_DepthDuration_HTML.html#28,28,1440,789,1440,900,8-20-2022,10-57-59,29,depth_duration_stimuli/002213_2014-06-28_18-37-58_260595134347_rgbf000055-resize_1/002213_2014-06-28_18-37-58_260595134347_rgbf000055-resize_1-target.png,250,3.62,12,3382,254,feet,jsons/v1_VE250_randls_55_rotated.json,731358,1160050,51,Woman
29,687918,DepthScenes,duration_manipulation_targetAtFixation,jsons/v1_VE250_randls_55_rotated.json,http://54.235.29.9/FacialAge/BNav_EC2/DepthDuration/v2_depth_duration_MTurk/v2_DepthDuration_HTML.html#28,28,1440,789,1440,900,8-20-2022,10-57-59,30,depth_duration_stimuli/002072_2014-06-24_21-48-06_260595134347_rgbf000115-resize_0/002072_2014-06-24_21-48-06_260595134347_rgbf000115-resize-original.jpg,250,4.702,0,3492,254,feet,jsons/v1_VE250_randls_55_rotated.json,731358,1160050,51,Woman
30,687918,DepthScenes,duration_manipulation_targetAtFixation,jsons/v1_VE250_randls_55_rotated.json,http://54.235.29.9/FacialAge/BNav_EC2/DepthDuration/v2_depth_duration_MTurk/v2_DepthDuration_HTML.html#28,28,1440,789,1440,900,8-20-2022,10-57-59,31,depth_duration_stimuli/002875_2014-06-01_15-19-00_094959634447_rgbf000151-resize_1/002875_2014-06-01_15-19-00_094959634447_rgbf000151-resize_1-target.png,250,1.9675,4,3230,252,feet,jsons/v1_VE250_randls_55_rotated.json,731358,1160050,51,Woman
31,687918,DepthScenes,duration_manipulation_targetAtFixation,jsons/v1_VE250_randls_55_rotated.json,http://54.235.29.9/FacialAge/BNav_EC2/DepthDuration/v2_depth_duration_MTurk/v2_DepthDuration_HTML.html#28,28,1440,789,1440,900,8-20-2022,10-57-59,32,depth_duration_stimuli/001011_2014-06-08_23-18-54_260595134347_rgbf000044-resize_4/001011_2014-06-08_23-18-54_260595134347_rgbf000044-resize_4-target.png,250,2.4730000000000003,8,3621,250,feet,jsons/v1_VE250_randls_55_rotated.json,731358,1160050,51,Woman
32,687918,DepthScenes,duration_manipulation_targetAtFixation,jsons/v1_VE250_randls_55_rotated.json,http://54.235.29.9/FacialAge/BNav_EC2/DepthDuration/v2_depth_duration_MTurk/v2_DepthDuration_HTML.html#28,28,1440,789,1440,900,8-20-2022,10-57-59,33,depth_duration_stimuli/002953_2014-06-08_17-32-18_094959634447_rgbf000059-resize_5/002953_2014-06-08_17-32-18_094959634447_rgbf000059-resize_5-target.png,250,1.551,3,3310,254,feet,jsons/v1_VE250_randls_55_rotated.json,731358,1160050,51,Woman
33,687918,DepthScenes,duration_manipulation_targetAtFixation,jsons/v1_VE250_randls_55_rotated.json,http://54.235.29.9/FacialAge/BNav_EC2/DepthDuration/v2_depth_duration_MTurk/v2_DepthDuration_HTML.html#28,28,1440,789,1440,900,8-20-2022,10-57-59,34,depth_duration_stimuli/000878_2014-06-08_22-52-45_260595134347_rgbf000045-resize_2/000878_2014-06-08_22-52-45_260595134347_rgbf000045-resize_2-target.png,250,2.092,7,3878,252,feet,jsons/v1_VE250_randls_55_rotated.json,731358,1160050,51,Woman
34,687918,DepthScenes,duration_manipulation_targetAtFixation,jsons/v1_VE250_randls_55_rotated.json,http://54.235.29.9/FacialAge/BNav_EC2/DepthDuration/v2_depth_duration_MTurk/v2_DepthDuration_HTML.html#28,28,1440,789,1440,900,8-20-2022,10-57-59,35,depth_duration_stimuli/003010_2014-06-15_12-54-35_094959634447_rgbf000112-resize_0/003010_2014-06-15_12-54-35_094959634447_rgbf000112-resize_0-target.png,250,3.1185,10,3555,249,feet,jsons/v1_VE250_randls_55_rotated.json,731358,1160050,51,Woman
35,687918,DepthScenes,duration_manipulation_targetAtFixation,jsons/v1_VE250_randls_55_rotated.json,http://54.235.29.9/FacialAge/BNav_EC2/DepthDuration/v2_depth_duration_MTurk/v2_DepthDuration_HTML.html#28,28,1440,789,1440,900,8-20-2022,10-57-59,36,depth_duration_stimuli/001810_2014-06-26_20-51-35_260595134347_rgbf000040-resize_3/001810_2014-06-26_20-51-35_260595134347_rgbf000040-resize_3-target.png,250,2.2525,6,4052,252,feet,jsons/v1_VE250_randls_55_rotated.json,731358,1160050,51,Woman
36,687918,DepthScenes,duration_manipulation_targetAtFixation,jsons/v1_VE250_randls_55_rotated.json,http://54.235.29.9/FacialAge/BNav_EC2/DepthDuration/v2_depth_duration_MTurk/v2_DepthDuration_HTML.html#28,28,1440,789,1440,900,8-20-2022,10-57-59,37,depth_duration_stimuli/001617_2014-06-20_11-35-32_260595134347_rgbf000066-resize_1/001617_2014-06-20_11-35-32_260595134347_rgbf000066-resize_1-target.png,250,3.7910000000000004,8,3757,254,feet,jsons/v1_VE250_randls_55_rotated.json,731358,1160050,51,Woman
37,687918,DepthScenes,duration_manipulation_targetAtFixation,jsons/v1_VE250_randls_55_rotated.json,http://54.235.29.9/FacialAge/BNav_EC2/DepthDuration/v2_depth_duration_MTurk/v2_DepthDuration_HTML.html#28,28,1440,789,1440,900,8-20-2022,10-57-59,38,depth_duration_stimuli/001806_2014-06-26_20-50-20_260595134347_rgbf000091-resize_1/001806_2014-06-26_20-50-20_260595134347_rgbf000091-resize_1-target.png,250,2.7305,5,3677,249,feet,jsons/v1_VE250_randls_55_rotated.json,731358,1160050,51,Woman
38,687918,DepthScenes,duration_manipulation_targetAtFixation,jsons/v1_VE250_randls_55_rotated.json,http://54.235.29.9/FacialAge/BNav_EC2/DepthDuration/v2_depth_duration_MTurk/v2_DepthDuration_HTML.html#28,28,1440,789,1440,900,8-20-2022,10-57-59,39,depth_duration_stimuli/002425_2014-06-28_20-27-29_260595134347_rgbf000031-resize_8/002425_2014-06-28_20-27-29_260595134347_rgbf000031-resize_8-target.png,250,3.8960000000000004,9,3543,251,feet,jsons/v1_VE250_randls_55_rotated.json,731358,1160050,51,Woman
39,687918,DepthScenes,duration_manipulation_targetAtFixation,jsons/v1_VE250_randls_55_rotated.json,http://54.235.29.9/FacialAge/BNav_EC2/DepthDuration/v2_depth_duration_MTurk/v2_DepthDuration_HTML.html#28,28,1440,789,1440,900,8-20-2022,10-57-59,40,depth_duration_stimuli/000642_2014-06-08_16-59-25_260595134347_rgbf000098-resize_2/000642_2014-06-08_16-59-25_260595134347_rgbf000098-resize_2-target.png,250,2.8815,7,5971,253,feet,jsons/v1_VE250_randls_55_rotated.json,731358,1160050,51,Woman
40,687918,DepthScenes,duration_manipulation_targetAtFixation,jsons/v1_VE250_randls_55_rotated.json,http://54.235.29.9/FacialAge/BNav_EC2/DepthDuration/v2_depth_duration_MTurk/v2_DepthDuration_HTML.html#28,28,1440,789,1440,900,8-20-2022,10-57-59,41,depth_duration_stimuli/002660_2014-06-13_15-44-18_094959634447_rgbf001878-resize_2/002660_2014-06-13_15-44-18_094959634447_rgbf001878-resize_2-target.png,250,3.576,11,4883,249,feet,jsons/v1_VE250_randls_55_rotated.json,731358,1160050,51,Woman
41,687918,DepthScenes,duration_manipulation_targetAtFixation,jsons/v1_VE250_randls_55_rotated.json,http://54.235.29.9/FacialAge/BNav_EC2/DepthDuration/v2_depth_duration_MTurk/v2_DepthDuration_HTML.html#28,28,1440,789,1440,900,8-20-2022,10-57-59,42,depth_duration_stimuli/002153_2014-06-25_21-27-18_260595134347_rgbf000038-resize_5/002153_2014-06-25_21-27-18_260595134347_rgbf000038-resize_5-target.png,250,2.505,6,4395,252,feet,jsons/v1_VE250_randls_55_rotated.json,731358,1160050,51,Woman
42,687918,DepthScenes,duration_manipulation_targetAtFixation,jsons/v1_VE250_randls_55_rotated.json,http://54.235.29.9/FacialAge/BNav_EC2/DepthDuration/v2_depth_duration_MTurk/v2_DepthDuration_HTML.html#28,28,1440,789,1440,900,8-20-2022,10-57-59,43,depth_duration_stimuli/003079_2014-06-15_15-18-20_094959634447_rgbf000152-resize_8/003079_2014-06-15_15-18-20_094959634447_rgbf000152-resize_8-target.png,250,2.8775,12,3561,249,feet,jsons/v1_VE250_randls_55_rotated.json,731358,1160050,51,Woman
43,687918,DepthScenes,duration_manipulation_targetAtFixation,jsons/v1_VE250_randls_55_rotated.json,http://54.235.29.9/FacialAge/BNav_EC2/DepthDuration/v2_depth_duration_MTurk/v2_DepthDuration_HTML.html#28,28,1440,789,1440,900,8-20-2022,10-57-59,44,depth_duration_stimuli/000506_2014-06-08_23-21-00_260595134347_rgbf000070-resize_7/000506_2014-06-08_23-21-00_260595134347_rgbf000070-resize_7-target.png,250,4.0585,12,2894,249,feet,jsons/v1_VE250_randls_55_rotated.json,731358,1160050,51,Woman
44,687918,DepthScenes,duration_manipulation_targetAtFixation,jsons/v1_VE250_randls_55_rotated.json,http://54.235.29.9/FacialAge/BNav_EC2/DepthDuration/v2_depth_duration_MTurk/v2_DepthDuration_HTML.html#28,28,1440,789,1440,900,8-20-2022,10-57-59,45,depth_duration_stimuli/001235_2014-06-17_16-37-36_260595134347_rgbf000084-resize_4/001235_2014-06-17_16-37-36_260595134347_rgbf000084-resize_4-target.png,250,3.6605,10,3750,251,feet,jsons/v1_VE250_randls_55_rotated.json,731358,1160050,51,Woman
45,687918,DepthScenes,duration_manipulation_targetAtFixation,jsons/v1_VE250_randls_55_rotated.json,http://54.235.29.9/FacialAge/BNav_EC2/DepthDuration/v2_depth_duration_MTurk/v2_DepthDuration_HTML.html#28,28,1440,789,1440,900,8-20-2022,10-57-59,46,depth_duration_stimuli/000788_2014-06-08_22-34-36_260595134347_rgbf000131-resize_1/000788_2014-06-08_22-34-36_260595134347_rgbf000131-resize_1-target.png,250,3.359,9,3486,254,feet,jsons/v1_VE250_randls_55_rotated.json,731358,1160050,51,Woman
46,687918,DepthScenes,duration_manipulation_targetAtFixation,jsons/v1_VE250_randls_55_rotated.json,http://54.235.29.9/FacialAge/BNav_EC2/DepthDuration/v2_depth_duration_MTurk/v2_DepthDuration_HTML.html#28,28,1440,789,1440,900,8-20-2022,10-57-59,47,depth_duration_stimuli/002103_2014-06-25_20-00-40_260595134347_rgbf000049-resize_0/002103_2014-06-25_20-00-40_260595134347_rgbf000049-resize_0-target.png,250,4.105,5,3093,249,feet,jsons/v1_VE250_randls_55_rotated.json,731358,1160050,51,Woman
47,687918,DepthScenes,duration_manipulation_targetAtFixation,jsons/v1_VE250_randls_55_rotated.json,http://54.235.29.9/FacialAge/BNav_EC2/DepthDuration/v2_depth_duration_MTurk/v2_DepthDuration_HTML.html#28,28,1440,789,1440,900,8-20-2022,10-57-59,48,depth_duration_stimuli/002039_2014-06-24_20-22-38_260595134347_rgbf000084-resize_1/002039_2014-06-24_20-22-38_260595134347_rgbf000084-resize_1-target.png,250,4.408,12,3277,252,feet,jsons/v1_VE250_randls_55_rotated.json,731358,1160050,51,Woman
48,687918,DepthScenes,duration_manipulation_targetAtFixation,jsons/v1_VE250_randls_55_rotated.json,http://54.235.29.9/FacialAge/BNav_EC2/DepthDuration/v2_depth_duration_MTurk/v2_DepthDuration_HTML.html#28,28,1440,789,1440,900,8-20-2022,10-57-59,49,depth_duration_stimuli/001170_2014-06-17_15-43-44_260595134347_rgbf000096-resize_6/001170_2014-06-17_15-43-44_260595134347_rgbf000096-resize-original.jpg,250,1.1909999999999998,0,3369,249,feet,jsons/v1_VE250_randls_55_rotated.json,731358,1160050,51,Woman
49,687918,DepthScenes,duration_manipulation_targetAtFixation,jsons/v1_VE250_randls_55_rotated.json,http://54.235.29.9/FacialAge/BNav_EC2/DepthDuration/v2_depth_duration_MTurk/v2_DepthDuration_HTML.html#28,28,1440,789,1440,900,8-20-2022,10-57-59,50,depth_duration_stimuli/002678_2014-06-13_16-15-32_094959634447_rgbf000151-resize_6/002678_2014-06-13_16-15-32_094959634447_rgbf000151-resize_6-target.png,250,2.1830000000000003,12,4867,249,feet,jsons/v1_VE250_randls_55_rotated.json,731358,1160050,51,Woman
50,687918,DepthScenes,duration_manipulation_targetAtFixation,jsons/v1_VE250_randls_55_rotated.json,http://54.235.29.9/FacialAge/BNav_EC2/DepthDuration/v2_depth_duration_MTurk/v2_DepthDuration_HTML.html#28,28,1440,789,1440,900,8-20-2022,10-57-59,51,depth_duration_stimuli/000368_2014-06-09_15-53-01_260595134347_rgbf000155-resize_2/000368_2014-06-09_15-53-01_260595134347_rgbf000155-resize_2-target.png,250,2.4859999999999998,6,3397,250,feet,jsons/v1_VE250_randls_55_rotated.json,731358,1160050,51,Woman
51,687918,DepthScenes,duration_manipulation_targetAtFixation,jsons/v1_VE250_randls_55_rotated.json,http://54.235.29.9/FacialAge/BNav_EC2/DepthDuration/v2_depth_duration_MTurk/v2_DepthDuration_HTML.html#28,28,1440,789,1440,900,8-20-2022,10-57-59,52,depth_duration_stimuli/001100_2014-06-15_17-46-26_260595134347_rgbf000225-resize_2/001100_2014-06-15_17-46-26_260595134347_rgbf000225-resize_2-target.png,250,2.24,3,4608,254,feet,jsons/v1_VE250_randls_55_rotated.json,731358,1160050,51,Woman
52,687918,DepthScenes,duration_manipulation_targetAtFixation,jsons/v1_VE250_randls_55_rotated.json,http://54.235.29.9/FacialAge/BNav_EC2/DepthDuration/v2_depth_duration_MTurk/v2_DepthDuration_HTML.html#28,28,1440,789,1440,900,8-20-2022,10-57-59,53,depth_duration_stimuli/002784_2014-06-22_19-26-30_094959634447_rgbf000083-resize_3/002784_2014-06-22_19-26-30_094959634447_rgbf000083-resize_3-target.png,250,1.8046666666667,4,2899,253,feet,jsons/v1_VE250_randls_55_rotated.json,731358,1160050,51,Woman
53,687918,DepthScenes,duration_manipulation_targetAtFixation,jsons/v1_VE250_randls_55_rotated.json,http://54.235.29.9/FacialAge/BNav_EC2/DepthDuration/v2_depth_duration_MTurk/v2_DepthDuration_HTML.html#28,28,1440,789,1440,900,8-20-2022,10-57-59,54,depth_duration_stimuli/002467_2014-06-28_20-38-07_260595134347_rgbf000026-resize_2/002467_2014-06-28_20-38-07_260595134347_rgbf000026-resize_2-target.png,250,4.742,8,4183,252,feet,jsons/v1_VE250_randls_55_rotated.json,731358,1160050,51,Woman
54,687918,DepthScenes,duration_manipulation_targetAtFixation,jsons/v1_VE250_randls_55_rotated.json,http://54.235.29.9/FacialAge/BNav_EC2/DepthDuration/v2_depth_duration_MTurk/v2_DepthDuration_HTML.html#28,28,1440,789,1440,900,8-20-2022,10-57-59,55,depth_duration_stimuli/002570_2014-06-24_13-59-54_094959634447_rgbf000059-resize_0/002570_2014-06-24_13-59-54_094959634447_rgbf000059-resize_0-target.png,250,4.037,4,5482,249,feet,jsons/v1_VE250_randls_55_rotated.json,731358,1160050,51,Woman
55,687918,DepthScenes,duration_manipulation_targetAtFixation,jsons/v1_VE250_randls_55_rotated.json,http://54.235.29.9/FacialAge/BNav_EC2/DepthDuration/v2_depth_duration_MTurk/v2_DepthDuration_HTML.html#28,28,1440,789,1440,900,8-20-2022,10-57-59,56,depth_duration_stimuli/000109_2014-05-14_23-41-52_260595134347_rgbf000035-resize_9/000109_2014-05-14_23-41-52_260595134347_rgbf000035-resize_9-target.png,250,1.3545,2,2383,249,feet,jsons/v1_VE250_randls_55_rotated.json,731358,1160050,51,Woman
56,687918,DepthScenes,duration_manipulation_targetAtFixation,jsons/v1_VE250_randls_55_rotated.json,http://54.235.29.9/FacialAge/BNav_EC2/DepthDuration/v2_depth_duration_MTurk/v2_DepthDuration_HTML.html#28,28,1440,789,1440,900,8-20-2022,10-57-59,57,depth_duration_stimuli/000470_2014-06-09_19-42-40_260595134347_rgbf000094-resize_1/000470_2014-06-09_19-42-40_260595134347_rgbf000094-resize_1-target.png,250,1.831,5,2902,250,feet,jsons/v1_VE250_randls_55_rotated.json,731358,1160050,51,Woman
57,687918,DepthScenes,duration_manipulation_targetAtFixation,jsons/v1_VE250_randls_55_rotated.json,http://54.235.29.9/FacialAge/BNav_EC2/DepthDuration/v2_depth_duration_MTurk/v2_DepthDuration_HTML.html#28,28,1440,789,1440,900,8-20-2022,10-57-59,58,depth_duration_stimuli/002344_2014-06-28_20-06-29_260595134347_rgbf000030-resize_1/002344_2014-06-28_20-06-29_260595134347_rgbf000030-resize_1-target.png,250,1.5795,3,2807,255,feet,jsons/v1_VE250_randls_55_rotated.json,731358,1160050,51,Woman
58,687918,DepthScenes,duration_manipulation_targetAtFixation,jsons/v1_VE250_randls_55_rotated.json,http://54.235.29.9/FacialAge/BNav_EC2/DepthDuration/v2_depth_duration_MTurk/v2_DepthDuration_HTML.html#28,28,1440,789,1440,900,8-20-2022,10-57-59,59,depth_duration_stimuli/002725_2014-06-22_11-47-51_094959634447_rgbf000070-resize_1/002725_2014-06-22_11-47-51_094959634447_rgbf000070-resize_1-target.png,250,2.195,7,3660,249,feet,jsons/v1_VE250_randls_55_rotated.json,731358,1160050,51,Woman
59,687918,DepthScenes,duration_manipulation_targetAtFixation,jsons/v1_VE250_randls_55_rotated.json,http://54.235.29.9/FacialAge/BNav_EC2/DepthDuration/v2_depth_duration_MTurk/v2_DepthDuration_HTML.html#28,28,1440,789,1440,900,8-20-2022,10-57-59,60,depth_duration_stimuli/002414_2014-06-28_20-24-58_260595134347_rgbf000067-resize_4/002414_2014-06-28_20-24-58_260595134347_rgbf000067-resize_4-target.png,250,4.363,13,3071,250,feet,jsons/v1_VE250_randls_55_rotated.json,731358,1160050,51,Woman
60,687918,DepthScenes,duration_manipulation_targetAtFixation,jsons/v1_VE250_randls_55_rotated.json,http://54.235.29.9/FacialAge/BNav_EC2/DepthDuration/v2_depth_duration_MTurk/v2_DepthDuration_HTML.html#28,28,1440,789,1440,900,8-20-2022,10-57-59,61,depth_duration_stimuli/000773_2014-06-08_22-24-54_260595134347_rgbf000093-resize_1/000773_2014-06-08_22-24-54_260595134347_rgbf000093-resize_1-target.png,250,4.973,15,3287,255,feet,jsons/v1_VE250_randls_55_rotated.json,731358,1160050,51,Woman
61,687918,DepthScenes,duration_manipulation_targetAtFixation,jsons/v1_VE250_randls_55_rotated.json,http://54.235.29.9/FacialAge/BNav_EC2/DepthDuration/v2_depth_duration_MTurk/v2_DepthDuration_HTML.html#28,28,1440,789,1440,900,8-20-2022,10-57-59,62,depth_duration_stimuli/001516_2014-06-20_16-25-09_260595134347_rgbf000076-resize_2/001516_2014-06-20_16-25-09_260595134347_rgbf000076-resize_2-target.png,250,1.7445,4,3742,251,feet,jsons/v1_VE250_randls_55_rotated.json,731358,1160050,51,Woman
62,687918,DepthScenes,duration_manipulation_targetAtFixation,jsons/v1_VE250_randls_55_rotated.json,http://54.235.29.9/FacialAge/BNav_EC2/DepthDuration/v2_depth_duration_MTurk/v2_DepthDuration_HTML.html#28,28,1440,789,1440,900,8-20-2022,10-57-59,63,depth_duration_stimuli/002118_2014-06-25_20-32-08_260595134347_rgbf000078-resize_1/002118_2014-06-25_20-32-08_260595134347_rgbf000078-resize_1-target.png,250,2.6460000000000004,6,3372,249,feet,jsons/v1_VE250_randls_55_rotated.json,731358,1160050,51,Woman
63,687918,DepthScenes,duration_manipulation_targetAtFixation,jsons/v1_VE250_randls_55_rotated.json,http://54.235.29.9/FacialAge/BNav_EC2/DepthDuration/v2_depth_duration_MTurk/v2_DepthDuration_HTML.html#28,28,1440,789,1440,900,8-20-2022,10-57-59,64,depth_duration_stimuli/000483_2014-06-09_20-41-45_260595134347_rgbf000116-resize_4/000483_2014-06-09_20-41-45_260595134347_rgbf000116-resize_4-target.png,250,1.337,3,2378,253,feet,jsons/v1_VE250_randls_55_rotated.json,731358,1160050,51,Woman
64,687918,DepthScenes,duration_manipulation_targetAtFixation,jsons/v1_VE250_randls_55_rotated.json,http://54.235.29.9/FacialAge/BNav_EC2/DepthDuration/v2_depth_duration_MTurk/v2_DepthDuration_HTML.html#28,28,1440,789,1440,900,8-20-2022,10-57-59,65,depth_duration_stimuli/000469_2014-06-09_19-42-10_260595134347_rgbf000081-resize_1/000469_2014-06-09_19-42-10_260595134347_rgbf000081-resize_1-target.png,250,1.652,6,2838,254,feet,jsons/v1_VE250_randls_55_rotated.json,731358,1160050,51,Woman
65,687918,DepthScenes,duration_manipulation_targetAtFixation,jsons/v1_VE250_randls_55_rotated.json,http://54.235.29.9/FacialAge/BNav_EC2/DepthDuration/v2_depth_duration_MTurk/v2_DepthDuration_HTML.html#28,28,1440,789,1440,900,8-20-2022,10-57-59,66,depth_duration_stimuli/001540_2014-06-20_17-01-05_260595134347_rgbf000086-resize_2/001540_2014-06-20_17-01-05_260595134347_rgbf000086-resize-original.jpg,250,1.459,0,3990,251,feet,jsons/v1_VE250_randls_55_rotated.json,731358,1160050,51,Woman
66,687918,DepthScenes,duration_manipulation_targetAtFixation,jsons/v1_VE250_randls_55_rotated.json,http://54.235.29.9/FacialAge/BNav_EC2/DepthDuration/v2_depth_duration_MTurk/v2_DepthDuration_HTML.html#28,28,1440,789,1440,900,8-20-2022,10-57-59,67,depth_duration_stimuli/002805_2014-06-22_19-54-03_094959634447_rgbf000079-resize_1/002805_2014-06-22_19-54-03_094959634447_rgbf000079-resize_1-target.png,250,3.1439999999999997,8,3605,253,feet,jsons/v1_VE250_randls_55_rotated.json,731358,1160050,51,Woman
67,687918,DepthScenes,duration_manipulation_targetAtFixation,jsons/v1_VE250_randls_55_rotated.json,http://54.235.29.9/FacialAge/BNav_EC2/DepthDuration/v2_depth_duration_MTurk/v2_DepthDuration_HTML.html#28,28,1440,789,1440,900,8-20-2022,10-57-59,68,depth_duration_stimuli/000906_2014-06-08_13-35-43_260595134347_rgbf000155-resize_1/000906_2014-06-08_13-35-43_260595134347_rgbf000155-resize_1-target.png,250,2.8489999999999998,12,3293,248,feet,jsons/v1_VE250_randls_55_rotated.json,731358,1160050,51,Woman
68,687918,DepthScenes,duration_manipulation_targetAtFixation,jsons/v1_VE250_randls_55_rotated.json,http://54.235.29.9/FacialAge/BNav_EC2/DepthDuration/v2_depth_duration_MTurk/v2_DepthDuration_HTML.html#28,28,1440,789,1440,900,8-20-2022,10-57-59,69,depth_duration_stimuli/000665_2014-06-09_20-42-35_260595134347_rgbf000110-resize_1/000665_2014-06-09_20-42-35_260595134347_rgbf000110-resize_1-target.png,250,3.057,9,3611,249,feet,jsons/v1_VE250_randls_55_rotated.json,731358,1160050,51,Woman
69,687918,DepthScenes,duration_manipulation_targetAtFixation,jsons/v1_VE250_randls_55_rotated.json,http://54.235.29.9/FacialAge/BNav_EC2/DepthDuration/v2_depth_duration_MTurk/v2_DepthDuration_HTML.html#28,28,1440,789,1440,900,8-20-2022,10-57-59,70,depth_duration_stimuli/001150_2014-06-17_15-27-34_260595134347_rgbf000108-resize_2/001150_2014-06-17_15-27-34_260595134347_rgbf000108-resize_2-target.png,250,4.0325,8,3686,253,feet,jsons/v1_VE250_randls_55_rotated.json,731358,1160050,51,Woman
70,687918,DepthScenes,duration_manipulation_targetAtFixation,jsons/v1_VE250_randls_55_rotated.json,http://54.235.29.9/FacialAge/BNav_EC2/DepthDuration/v2_depth_duration_MTurk/v2_DepthDuration_HTML.html#28,28,1440,789,1440,900,8-20-2022,10-57-59,71,depth_duration_stimuli/001450_2014-06-19_17-02-03_260595134347_rgbf000203-resize_4/001450_2014-06-19_17-02-03_260595134347_rgbf000203-resize_4-target.png,250,4.0106666666667,7,3942,248,feet,jsons/v1_VE250_randls_55_rotated.json,731358,1160050,51,Woman
71,687918,DepthScenes,duration_manipulation_targetAtFixation,jsons/v1_VE250_randls_55_rotated.json,http://54.235.29.9/FacialAge/BNav_EC2/DepthDuration/v2_depth_duration_MTurk/v2_DepthDuration_HTML.html#28,28,1440,789,1440,900,8-20-2022,10-57-59,72,depth_duration_stimuli/001449_2014-06-19_17-01-27_260595134347_rgbf000116-resize_2/001449_2014-06-19_17-01-27_260595134347_rgbf000116-resize_2-target.png,250,3.452,7,5145,253,feet,jsons/v1_VE250_randls_55_rotated.json,731358,1160050,51,Woman
72,687918,DepthScenes,duration_manipulation_targetAtFixation,jsons/v1_VE250_randls_55_rotated.json,http://54.235.29.9/FacialAge/BNav_EC2/DepthDuration/v2_depth_duration_MTurk/v2_DepthDuration_HTML.html#28,28,1440,789,1440,900,8-20-2022,10-57-59,73,depth_duration_stimuli/002545_2014-06-24_13-38-53_094959634447_rgbf000080-resize_4/002545_2014-06-24_13-38-53_094959634447_rgbf000080-resize_4-target.png,250,1.9205,9,3773,250,feet,jsons/v1_VE250_randls_55_rotated.json,731358,1160050,51,Woman
73,687918,DepthScenes,duration_manipulation_targetAtFixation,jsons/v1_VE250_randls_55_rotated.json,http://54.235.29.9/FacialAge/BNav_EC2/DepthDuration/v2_depth_duration_MTurk/v2_DepthDuration_HTML.html#28,28,1440,789,1440,900,8-20-2022,10-57-59,74,depth_duration_stimuli/001092_2014-06-15_17-34-58_260595134347_rgbf000171-resize_3/001092_2014-06-15_17-34-58_260595134347_rgbf000171-resize_3-target.png,250,2.6935,5,3944,254,feet,jsons/v1_VE250_randls_55_rotated.json,731358,1160050,51,Woman
74,687918,DepthScenes,duration_manipulation_targetAtFixation,jsons/v1_VE250_randls_55_rotated.json,http://54.235.29.9/FacialAge/BNav_EC2/DepthDuration/v2_depth_duration_MTurk/v2_DepthDuration_HTML.html#28,28,1440,789,1440,900,8-20-2022,10-57-59,75,depth_duration_stimuli/000734_2014-06-08_17-39-11_260595134347_rgbf000128-resize_2/000734_2014-06-08_17-39-11_260595134347_rgbf000128-resize_2-target.png,250,4.098,10,4461,250,feet,jsons/v1_VE250_randls_55_rotated.json,731358,1160050,51,Woman
75,687918,DepthScenes,duration_manipulation_targetAtFixation,jsons/v1_VE250_randls_55_rotated.json,http://54.235.29.9/FacialAge/BNav_EC2/DepthDuration/v2_depth_duration_MTurk/v2_DepthDuration_HTML.html#28,28,1440,789,1440,900,8-20-2022,10-57-59,76,depth_duration_stimuli/000739_2014-06-08_18-45-58_260595134347_rgbf000068-resize_1/000739_2014-06-08_18-45-58_260595134347_rgbf000068-resize_1-target.png,250,3.534,12,3350,250,feet,jsons/v1_VE250_randls_55_rotated.json,731358,1160050,51,Woman
76,687918,DepthScenes,duration_manipulation_targetAtFixation,jsons/v1_VE250_randls_55_rotated.json,http://54.235.29.9/FacialAge/BNav_EC2/DepthDuration/v2_depth_duration_MTurk/v2_DepthDuration_HTML.html#28,28,1440,789,1440,900,8-20-2022,10-57-59,77,depth_duration_stimuli/000927_2014-06-09_16-32-30_260595134347_rgbf000123-resize_3/000927_2014-06-09_16-32-30_260595134347_rgbf000123-resize_3-target.png,250,2.6785,13,3453,248,feet,jsons/v1_VE250_randls_55_rotated.json,731358,1160050,51,Woman
77,687918,DepthScenes,duration_manipulation_targetAtFixation,jsons/v1_VE250_randls_55_rotated.json,http://54.235.29.9/FacialAge/BNav_EC2/DepthDuration/v2_depth_duration_MTurk/v2_DepthDuration_HTML.html#28,28,1440,789,1440,900,8-20-2022,10-57-59,78,depth_duration_stimuli/001110_2014-06-15_17-25-28_260595134347_rgbf000150-resize_1/001110_2014-06-15_17-25-28_260595134347_rgbf000150-resize_1-target.png,250,1.7115,6,3326,252,feet,jsons/v1_VE250_randls_55_rotated.json,731358,1160050,51,Woman
78,687918,DepthScenes,duration_manipulation_targetAtFixation,jsons/v1_VE250_randls_55_rotated.json,http://54.235.29.9/FacialAge/BNav_EC2/DepthDuration/v2_depth_duration_MTurk/v2_DepthDuration_HTML.html#28,28,1440,789,1440,900,8-20-2022,10-57-59,79,depth_duration_stimuli/000137_2014-05-20_17-04-49_260595134347_rgbf000120-resize_1/000137_2014-05-20_17-04-49_260595134347_rgbf000120-resize_1-target.png,250,3.786,10,4689,249,feet,jsons/v1_VE250_randls_55_rotated.json,731358,1160050,51,Woman
79,687918,DepthScenes,duration_manipulation_targetAtFixation,jsons/v1_VE250_randls_55_rotated.json,http://54.235.29.9/FacialAge/BNav_EC2/DepthDuration/v2_depth_duration_MTurk/v2_DepthDuration_HTML.html#28,28,1440,789,1440,900,8-20-2022,10-57-59,80,depth_duration_stimuli/000736_2014-06-08_18-24-15_260595134347_rgbf000206-resize_3/000736_2014-06-08_18-24-15_260595134347_rgbf000206-resize_3-target.png,250,3.515,11,3279,250,feet,jsons/v1_VE250_randls_55_rotated.json,731358,1160050,51,Woman
80,687918,DepthScenes,duration_manipulation_targetAtFixation,jsons/v1_VE250_randls_55_rotated.json,http://54.235.29.9/FacialAge/BNav_EC2/DepthDuration/v2_depth_duration_MTurk/v2_DepthDuration_HTML.html#28,28,1440,789,1440,900,8-20-2022,10-57-59,81,depth_duration_stimuli/002750_2014-06-22_19-08-03_094959634447_rgbf000094-resize_4/002750_2014-06-22_19-08-03_094959634447_rgbf000094-resize_4-target.png,250,2.354,8,3822,254,feet,jsons/v1_VE250_randls_55_rotated.json,731358,1160050,51,Woman
81,687918,DepthScenes,duration_manipulation_targetAtFixation,jsons/v1_VE250_randls_55_rotated.json,http://54.235.29.9/FacialAge/BNav_EC2/DepthDuration/v2_depth_duration_MTurk/v2_DepthDuration_HTML.html#28,28,1440,789,1440,900,8-20-2022,10-57-59,82,depth_duration_stimuli/002549_2014-06-24_13-41-39_094959634447_rgbf000022-resize_3/002549_2014-06-24_13-41-39_094959634447_rgbf000022-resize_3-target.png,250,1.476,5,2725,249,feet,jsons/v1_VE250_randls_55_rotated.json,731358,1160050,51,Woman
82,687918,DepthScenes,duration_manipulation_targetAtFixation,jsons/v1_VE250_randls_55_rotated.json,http://54.235.29.9/FacialAge/BNav_EC2/DepthDuration/v2_depth_duration_MTurk/v2_DepthDuration_HTML.html#28,28,1440,789,1440,900,8-20-2022,10-57-59,83,depth_duration_stimuli/002136_2014-06-25_21-18-03_260595134347_rgbf000109-resize_3/002136_2014-06-25_21-18-03_260595134347_rgbf000109-resize_3-target.png,250,1.9569999999999999,4,4002,249,feet,jsons/v1_VE250_randls_55_rotated.json,731358,1160050,51,Woman
83,687918,DepthScenes,duration_manipulation_targetAtFixation,jsons/v1_VE250_randls_55_rotated.json,http://54.235.29.9/FacialAge/BNav_EC2/DepthDuration/v2_depth_duration_MTurk/v2_DepthDuration_HTML.html#28,28,1440,789,1440,900,8-20-2022,10-57-59,84,depth_duration_stimuli/002964_2014-06-08_17-46-11_094959634447_rgbf000091-resize_4/002964_2014-06-08_17-46-11_094959634447_rgbf000091-resize_4-target.png,250,1.6909999999999998,5,4284,250,feet,jsons/v1_VE250_randls_55_rotated.json,731358,1160050,51,Woman
84,687918,DepthScenes,duration_manipulation_targetAtFixation,jsons/v1_VE250_randls_55_rotated.json,http://54.235.29.9/FacialAge/BNav_EC2/DepthDuration/v2_depth_duration_MTurk/v2_DepthDuration_HTML.html#28,28,1440,789,1440,900,8-20-2022,10-57-59,85,depth_duration_stimuli/002639_2014-06-24_14-51-37_094959634447_rgbf000074-resize_4/002639_2014-06-24_14-51-37_094959634447_rgbf000074-resize_4-target.png,250,4.0375,9,3863,253,feet,jsons/v1_VE250_randls_55_rotated.json,731358,1160050,51,Woman
85,687918,DepthScenes,duration_manipulation_targetAtFixation,jsons/v1_VE250_randls_55_rotated.json,http://54.235.29.9/FacialAge/BNav_EC2/DepthDuration/v2_depth_duration_MTurk/v2_DepthDuration_HTML.html#28,28,1440,789,1440,900,8-20-2022,10-57-59,86,depth_duration_stimuli/003292_2014-05-14_21-53-49_094959634447_rgbf000100-resize_2/003292_2014-05-14_21-53-49_094959634447_rgbf000100-resize_2-target.png,250,3.4815,8,4214,249,feet,jsons/v1_VE250_randls_55_rotated.json,731358,1160050,51,Woman
86,687918,DepthScenes,duration_manipulation_targetAtFixation,jsons/v1_VE250_randls_55_rotated.json,http://54.235.29.9/FacialAge/BNav_EC2/DepthDuration/v2_depth_duration_MTurk/v2_DepthDuration_HTML.html#28,28,1440,789,1440,900,8-20-2022,10-57-59,87,depth_duration_stimuli/001828_2014-06-26_21-40-03_260595134347_rgbf000024-resize_0/001828_2014-06-26_21-40-03_260595134347_rgbf000024-resize_0-target.png,250,4.8260000000000005,10,5055,254,feet,jsons/v1_VE250_randls_55_rotated.json,731358,1160050,51,Woman
87,687918,DepthScenes,duration_manipulation_targetAtFixation,jsons/v1_VE250_randls_55_rotated.json,http://54.235.29.9/FacialAge/BNav_EC2/DepthDuration/v2_depth_duration_MTurk/v2_DepthDuration_HTML.html#28,28,1440,789,1440,900,8-20-2022,10-57-59,88,depth_duration_stimuli/000009_2014-05-26_14-32-05_260595134347_rgbf000034-resize_3/000009_2014-05-26_14-32-05_260595134347_rgbf000034-resize_3-target.png,250,3.8715,10,4716,254,feet,jsons/v1_VE250_randls_55_rotated.json,731358,1160050,51,Woman
88,687918,DepthScenes,duration_manipulation_targetAtFixation,jsons/v1_VE250_randls_55_rotated.json,http://54.235.29.9/FacialAge/BNav_EC2/DepthDuration/v2_depth_duration_MTurk/v2_DepthDuration_HTML.html#28,28,1440,789,1440,900,8-20-2022,10-57-59,89,depth_duration_stimuli/000749_2014-06-08_21-55-06_260595134347_rgbf000070-resize_2/000749_2014-06-08_21-55-06_260595134347_rgbf000070-resize_2-target.png,250,2.331,8,3662,249,feet,jsons/v1_VE250_randls_55_rotated.json,731358,1160050,51,Woman
89,687918,DepthScenes,duration_manipulation_targetAtFixation,jsons/v1_VE250_randls_55_rotated.json,http://54.235.29.9/FacialAge/BNav_EC2/DepthDuration/v2_depth_duration_MTurk/v2_DepthDuration_HTML.html#28,28,1440,789,1440,900,8-20-2022,10-57-59,90,depth_duration_stimuli/002788_2014-06-22_19-36-03_094959634447_rgbf000088-resize_2/002788_2014-06-22_19-36-03_094959634447_rgbf000088-resize_2-target.png,250,1.6465,6,3711,253,feet,jsons/v1_VE250_randls_55_rotated.json,731358,1160050,51,Woman
90,687918,DepthScenes,duration_manipulation_targetAtFixation,jsons/v1_VE250_randls_55_rotated.json,http://54.235.29.9/FacialAge/BNav_EC2/DepthDuration/v2_depth_duration_MTurk/v2_DepthDuration_HTML.html#28,28,1440,789,1440,900,8-20-2022,10-57-59,91,depth_duration_stimuli/000191_2014-05-12_17-07-38_260595134347_rgbf000199-resize_0/000191_2014-05-12_17-07-38_260595134347_rgbf000199-resize_0-target.png,250,3.7995,11,2704,249,feet,jsons/v1_VE250_randls_55_rotated.json,731358,1160050,51,Woman
91,687918,DepthScenes,duration_manipulation_targetAtFixation,jsons/v1_VE250_randls_55_rotated.json,http://54.235.29.9/FacialAge/BNav_EC2/DepthDuration/v2_depth_duration_MTurk/v2_DepthDuration_HTML.html#28,28,1440,789,1440,900,8-20-2022,10-57-59,92,depth_duration_stimuli/000493_2014-06-09_21-01-18_260595134347_rgbf000196-resize_3/000493_2014-06-09_21-01-18_260595134347_rgbf000196-resize_3-target.png,250,3.44,10,4341,251,feet,jsons/v1_VE250_randls_55_rotated.json,731358,1160050,51,Woman
92,687918,DepthScenes,duration_manipulation_targetAtFixation,jsons/v1_VE250_randls_55_rotated.json,http://54.235.29.9/FacialAge/BNav_EC2/DepthDuration/v2_depth_duration_MTurk/v2_DepthDuration_HTML.html#28,28,1440,789,1440,900,8-20-2022,10-57-59,93,depth_duration_stimuli/001571_2014-06-20_17-21-32_260595134347_rgbf000089-resize_1/001571_2014-06-20_17-21-32_260595134347_rgbf000089-resize_1-target.png,250,1.86,4,3508,252,feet,jsons/v1_VE250_randls_55_rotated.json,731358,1160050,51,Woman
93,687918,DepthScenes,duration_manipulation_targetAtFixation,jsons/v1_VE250_randls_55_rotated.json,http://54.235.29.9/FacialAge/BNav_EC2/DepthDuration/v2_depth_duration_MTurk/v2_DepthDuration_HTML.html#28,28,1440,789,1440,900,8-20-2022,10-57-59,94,depth_duration_stimuli/002272_2014-06-28_18-53-56_260595134347_rgbf000067-resize_2/002272_2014-06-28_18-53-56_260595134347_rgbf000067-resize_2-target.png,250,1.138,2,3558,249,feet,jsons/v1_VE250_randls_55_rotated.json,731358,1160050,51,Woman
94,687918,DepthScenes,duration_manipulation_targetAtFixation,jsons/v1_VE250_randls_55_rotated.json,http://54.235.29.9/FacialAge/BNav_EC2/DepthDuration/v2_depth_duration_MTurk/v2_DepthDuration_HTML.html#28,28,1440,789,1440,900,8-20-2022,10-57-59,95,depth_duration_stimuli/003495_2014-05-21_16-01-51_094959634447_rgbf000100-resize_3/003495_2014-05-21_16-01-51_094959634447_rgbf000100-resize_3-target.png,250,1.6255,3,2682,254,feet,jsons/v1_VE250_randls_55_rotated.json,731358,1160050,51,Woman
95,687918,DepthScenes,duration_manipulation_targetAtFixation,jsons/v1_VE250_randls_55_rotated.json,http://54.235.29.9/FacialAge/BNav_EC2/DepthDuration/v2_depth_duration_MTurk/v2_DepthDuration_HTML.html#28,28,1440,789,1440,900,8-20-2022,10-57-59,96,depth_duration_stimuli/001244_2014-06-17_16-47-45_260595134347_rgbf000030-resize_4/001244_2014-06-17_16-47-45_260595134347_rgbf000030-resize_4-target.png,250,2.0425,6,3236,249,feet,jsons/v1_VE250_randls_55_rotated.json,731358,1160050,51,Woman
96,687918,DepthScenes,duration_manipulation_targetAtFixation,jsons/v1_VE250_randls_55_rotated.json,http://54.235.29.9/FacialAge/BNav_EC2/DepthDuration/v2_depth_duration_MTurk/v2_DepthDuration_HTML.html#28,28,1440,789,1440,900,8-20-2022,10-57-59,97,depth_duration_stimuli/000780_2014-06-08_22-28-29_260595134347_rgbf000126-resize_1/000780_2014-06-08_22-28-29_260595134347_rgbf000126-resize_1-target.png,250,3.3825,10,3980,249,feet,jsons/v1_VE250_randls_55_rotated.json,731358,1160050,51,Woman
97,687918,DepthScenes,duration_manipulation_targetAtFixation,jsons/v1_VE250_randls_55_rotated.json,http://54.235.29.9/FacialAge/BNav_EC2/DepthDuration/v2_depth_duration_MTurk/v2_DepthDuration_HTML.html#28,28,1440,789,1440,900,8-20-2022,10-57-59,98,depth_duration_stimuli/002445_2014-06-28_20-32-16_260595134347_rgbf000029-resize_4/002445_2014-06-28_20-32-16_260595134347_rgbf000029-resize_4-target.png,250,2.5315,6,3758,250,feet,jsons/v1_VE250_randls_55_rotated.json,731358,1160050,51,Woman
98,687918,DepthScenes,duration_manipulation_targetAtFixation,jsons/v1_VE250_randls_55_rotated.json,http://54.235.29.9/FacialAge/BNav_EC2/DepthDuration/v2_depth_duration_MTurk/v2_DepthDuration_HTML.html#28,28,1440,789,1440,900,8-20-2022,10-57-59,99,depth_duration_stimuli/001222_2014-06-17_16-24-06_260595134347_rgbf000073-resize_0/001222_2014-06-17_16-24-06_260595134347_rgbf000073-resize-original.jpg,250,1.4385,0,3468,249,feet,jsons/v1_VE250_randls_55_rotated.json,731358,1160050,51,Woman
99,687918,DepthScenes,duration_manipulation_targetAtFixation,jsons/v1_VE250_randls_55_rotated.json,http://54.235.29.9/FacialAge/BNav_EC2/DepthDuration/v2_depth_duration_MTurk/v2_DepthDuration_HTML.html#28,28,1440,789,1440,900,8-20-2022,10-57-59,100,depth_duration_stimuli/003490_2014-05-21_15-50-11_094959634447_rgbf000101-resize_3/003490_2014-05-21_15-50-11_094959634447_rgbf000101-resize_3-target.png,250,3.6445,15,3307,249,feet,jsons/v1_VE250_randls_55_rotated.json,731358,1160050,51,Woman
100,687918,DepthScenes,duration_manipulation_targetAtFixation,jsons/v1_VE250_randls_55_rotated.json,http://54.235.29.9/FacialAge/BNav_EC2/DepthDuration/v2_depth_duration_MTurk/v2_DepthDuration_HTML.html#28,28,1440,789,1440,900,8-20-2022,10-57-59,101,depth_duration_stimuli/001175_2014-06-17_15-45-55_260595134347_rgbf000129-resize_4/001175_2014-06-17_15-45-55_260595134347_rgbf000129-resize_4-target.png,250,4.255,20,5712,249,feet,jsons/v1_VE250_randls_55_rotated.json,731358,1160050,51,Woman
101,687918,DepthScenes,duration_manipulation_targetAtFixation,jsons/v1_VE250_randls_55_rotated.json,http://54.235.29.9/FacialAge/BNav_EC2/DepthDuration/v2_depth_duration_MTurk/v2_DepthDuration_HTML.html#28,28,1440,789,1440,900,8-20-2022,10-57-59,102,depth_duration_stimuli/000103_2014-05-14_22-01-17_260595134347_rgbf000152-resize_5/000103_2014-05-14_22-01-17_260595134347_rgbf000152-resize_5-target.png,250,1.993,15,3549,253,feet,jsons/v1_VE250_randls_55_rotated.json,731358,1160050,51,Woman
102,687918,DepthScenes,duration_manipulation_targetAtFixation,jsons/v1_VE250_randls_55_rotated.json,http://54.235.29.9/FacialAge/BNav_EC2/DepthDuration/v2_depth_duration_MTurk/v2_DepthDuration_HTML.html#28,28,1440,789,1440,900,8-20-2022,10-57-59,103,depth_duration_stimuli/001555_2014-06-20_17-12-10_260595134347_rgbf000065-resize_4/001555_2014-06-20_17-12-10_260595134347_rgbf000065-resize_4-target.png,250,1.633,5,4093,255,feet,jsons/v1_VE250_randls_55_rotated.json,731358,1160050,51,Woman
103,687918,DepthScenes,duration_manipulation_targetAtFixation,jsons/v1_VE250_randls_55_rotated.json,http://54.235.29.9/FacialAge/BNav_EC2/DepthDuration/v2_depth_duration_MTurk/v2_DepthDuration_HTML.html#28,28,1440,789,1440,900,8-20-2022,10-57-59,104,depth_duration_stimuli/003083_2014-06-15_15-21-03_094959634447_rgbf000063-resize_1/003083_2014-06-15_15-21-03_094959634447_rgbf000063-resize_1-target.png,250,4.1405,12,3460,249,feet,jsons/v1_VE250_randls_55_rotated.json,731358,1160050,51,Woman
104,687918,DepthScenes,duration_manipulation_targetAtFixation,jsons/v1_VE250_randls_55_rotated.json,http://54.235.29.9/FacialAge/BNav_EC2/DepthDuration/v2_depth_duration_MTurk/v2_DepthDuration_HTML.html#28,28,1440,789,1440,900,8-20-2022,10-57-59,105,depth_duration_stimuli/000486_2014-06-09_20-47-20_260595134347_rgbf000143-resize_2/000486_2014-06-09_20-47-20_260595134347_rgbf000143-resize_2-target.png,250,4.8325,14,3778,249,feet,jsons/v1_VE250_randls_55_rotated.json,731358,1160050,51,Woman
105,687918,DepthScenes,duration_manipulation_targetAtFixation,jsons/v1_VE250_randls_55_rotated.json,http://54.235.29.9/FacialAge/BNav_EC2/DepthDuration/v2_depth_duration_MTurk/v2_DepthDuration_HTML.html#28,28,1440,789,1440,900,8-20-2022,10-57-59,106,depth_duration_stimuli/002568_2014-06-24_13-59-21_094959634447_rgbf000062-resize_4/002568_2014-06-24_13-59-21_094959634447_rgbf000062-resize_4-target.png,250,3.015,10,3799,255,feet,jsons/v1_VE250_randls_55_rotated.json,731358,1160050,51,Woman
106,687918,DepthScenes,duration_manipulation_targetAtFixation,jsons/v1_VE250_randls_55_rotated.json,http://54.235.29.9/FacialAge/BNav_EC2/DepthDuration/v2_depth_duration_MTurk/v2_DepthDuration_HTML.html#28,28,1440,789,1440,900,8-20-2022,10-57-59,107,depth_duration_stimuli/003492_2014-05-21_15-50-55_094959634447_rgbf000828-resize_1/003492_2014-05-21_15-50-55_094959634447_rgbf000828-resize_1-target.png,250,4.06875,15,2845,250,feet,jsons/v1_VE250_randls_55_rotated.json,731358,1160050,51,Woman
107,687918,DepthScenes,duration_manipulation_targetAtFixation,jsons/v1_VE250_randls_55_rotated.json,http://54.235.29.9/FacialAge/BNav_EC2/DepthDuration/v2_depth_duration_MTurk/v2_DepthDuration_HTML.html#28,28,1440,789,1440,900,8-20-2022,10-57-59,108,depth_duration_stimuli/002995_2014-06-15_12-31-26_094959634447_rgbf000150-resize_1/002995_2014-06-15_12-31-26_094959634447_rgbf000150-resize_1-target.png,250,3.8360000000000003,14,3311,254,feet,jsons/v1_VE250_randls_55_rotated.json,731358,1160050,51,Woman
108,687918,DepthScenes,duration_manipulation_targetAtFixation,jsons/v1_VE250_randls_55_rotated.json,http://54.235.29.9/FacialAge/BNav_EC2/DepthDuration/v2_depth_duration_MTurk/v2_DepthDuration_HTML.html#28,28,1440,789,1440,900,8-20-2022,10-57-59,109,depth_duration_stimuli/002748_2014-06-22_19-07-22_094959634447_rgbf000078-resize_1/002748_2014-06-22_19-07-22_094959634447_rgbf000078-resize_1-target.png,250,4.6705,18,4995,250,feet,jsons/v1_VE250_randls_55_rotated.json,731358,1160050,51,Woman
109,687918,DepthScenes,duration_manipulation_targetAtFixation,jsons/v1_VE250_randls_55_rotated.json,http://54.235.29.9/FacialAge/BNav_EC2/DepthDuration/v2_depth_duration_MTurk/v2_DepthDuration_HTML.html#28,28,1440,789,1440,900,8-20-2022,10-57-59,110,depth_duration_stimuli/000549_2014-06-08_22-10-24_260595134347_rgbf000247-resize_3/000549_2014-06-08_22-10-24_260595134347_rgbf000247-resize_3-target.png,250,1.841,3,3547,249,feet,jsons/v1_VE250_randls_55_rotated.json,731358,1160050,51,Woman
110,687918,DepthScenes,duration_manipulation_targetAtFixation,jsons/v1_VE250_randls_55_rotated.json,http://54.235.29.9/FacialAge/BNav_EC2/DepthDuration/v2_depth_duration_MTurk/v2_DepthDuration_HTML.html#28,28,1440,789,1440,900,8-20-2022,10-57-59,111,depth_duration_stimuli/001055_2014-06-08_18-45-35_260595134347_rgbf000111-resize_4/001055_2014-06-08_18-45-35_260595134347_rgbf000111-resize_4-target.png,250,2.4290000000000003,9,3362,249,feet,jsons/v1_VE250_randls_55_rotated.json,731358,1160050,51,Woman
111,687918,DepthScenes,duration_manipulation_targetAtFixation,jsons/v1_VE250_randls_55_rotated.json,http://54.235.29.9/FacialAge/BNav_EC2/DepthDuration/v2_depth_duration_MTurk/v2_DepthDuration_HTML.html#28,28,1440,789,1440,900,8-20-2022,10-57-59,112,depth_duration_stimuli/003081_2014-06-15_15-19-16_094959634447_rgbf000150-resize_1/003081_2014-06-15_15-19-16_094959634447_rgbf000150-resize_1-target.png,250,3.9125,10,4454,248,feet,jsons/v1_VE250_randls_55_rotated.json,731358,1160050,51,Woman
112,687918,DepthScenes,duration_manipulation_targetAtFixation,jsons/v1_VE250_randls_55_rotated.json,http://54.235.29.9/FacialAge/BNav_EC2/DepthDuration/v2_depth_duration_MTurk/v2_DepthDuration_HTML.html#28,28,1440,789,1440,900,8-20-2022,10-57-59,113,depth_duration_stimuli/001417_2014-06-19_16-25-36_260595134347_rgbf000115-resize_5/001417_2014-06-19_16-25-36_260595134347_rgbf000115-resize_5-target.png,250,4.6255,11,6056,249,feet,jsons/v1_VE250_randls_55_rotated.json,731358,1160050,51,Woman
113,687918,DepthScenes,duration_manipulation_targetAtFixation,jsons/v1_VE250_randls_55_rotated.json,http://54.235.29.9/FacialAge/BNav_EC2/DepthDuration/v2_depth_duration_MTurk/v2_DepthDuration_HTML.html#28,28,1440,789,1440,900,8-20-2022,10-57-59,114,depth_duration_stimuli/000742_2014-06-08_18-48-09_260595134347_rgbf000164-resize_4/000742_2014-06-08_18-48-09_260595134347_rgbf000164-resize_4-target.png,250,4.632,12,3046,249,feet,jsons/v1_VE250_randls_55_rotated.json,731358,1160050,51,Woman
114,687918,DepthScenes,duration_manipulation_targetAtFixation,jsons/v1_VE250_randls_55_rotated.json,http://54.235.29.9/FacialAge/BNav_EC2/DepthDuration/v2_depth_duration_MTurk/v2_DepthDuration_HTML.html#28,28,1440,789,1440,900,8-20-2022,10-57-59,115,depth_duration_stimuli/001066_2014-06-08_22-03-20_260595134347_rgbf000066-resize_4/001066_2014-06-08_22-03-20_260595134347_rgbf000066-resize_4-target.png,250,4.2330000000000005,10,3519,254,feet,jsons/v1_VE250_randls_55_rotated.json,731358,1160050,51,Woman
115,687918,DepthScenes,duration_manipulation_targetAtFixation,jsons/v1_VE250_randls_55_rotated.json,http://54.235.29.9/FacialAge/BNav_EC2/DepthDuration/v2_depth_duration_MTurk/v2_DepthDuration_HTML.html#28,28,1440,789,1440,900,8-20-2022,10-57-59,116,depth_duration_stimuli/001132_2014-06-17_14-48-54_260595134347_rgbf000100-resize_2/001132_2014-06-17_14-48-54_260595134347_rgbf000100-resize_2-target.png,250,3.753,8,7459,252,feet,jsons/v1_VE250_randls_55_rotated.json,731358,1160050,51,Woman
116,687918,DepthScenes,duration_manipulation_targetAtFixation,jsons/v1_VE250_randls_55_rotated.json,http://54.235.29.9/FacialAge/BNav_EC2/DepthDuration/v2_depth_duration_MTurk/v2_DepthDuration_HTML.html#28,28,1440,789,1440,900,8-20-2022,10-57-59,117,depth_duration_stimuli/001133_2014-06-17_14-49-16_260595134347_rgbf000100-resize_0/001133_2014-06-17_14-49-16_260595134347_rgbf000100-resize_0-target.png,250,4.2115,9,4556,251,feet,jsons/v1_VE250_randls_55_rotated.json,731358,1160050,51,Woman
117,687918,DepthScenes,duration_manipulation_targetAtFixation,jsons/v1_VE250_randls_55_rotated.json,http://54.235.29.9/FacialAge/BNav_EC2/DepthDuration/v2_depth_duration_MTurk/v2_DepthDuration_HTML.html#28,28,1440,789,1440,900,8-20-2022,10-57-59,118,depth_duration_stimuli/000409_2014-06-04_19-23-33_260595134347_rgbf000067-resize_0/000409_2014-06-04_19-23-33_260595134347_rgbf000067-resize_0-target.png,250,3.7335,8,3741,249,feet,jsons/v1_VE250_randls_55_rotated.json,731358,1160050,51,Woman
118,687918,DepthScenes,duration_manipulation_targetAtFixation,jsons/v1_VE250_randls_55_rotated.json,http://54.235.29.9/FacialAge/BNav_EC2/DepthDuration/v2_depth_duration_MTurk/v2_DepthDuration_HTML.html#28,28,1440,789,1440,900,8-20-2022,10-57-59,119,depth_duration_stimuli/002663_2014-06-13_15-50-26_094959634447_rgbf000075-resize_1/002663_2014-06-13_15-50-26_094959634447_rgbf000075-resize_1-target.png,250,4.7495,10,4020,249,feet,jsons/v1_VE250_randls_55_rotated.json,731358,1160050,51,Woman
119,687918,DepthScenes,duration_manipulation_targetAtFixation,jsons/v1_VE250_randls_55_rotated.json,http://54.235.29.9/FacialAge/BNav_EC2/DepthDuration/v2_depth_duration_MTurk/v2_DepthDuration_HTML.html#28,28,1440,789,1440,900,8-20-2022,10-57-59,120,depth_duration_stimuli/000787_2014-06-08_22-33-53_260595134347_rgbf000175-resize_1/000787_2014-06-08_22-33-53_260595134347_rgbf000175-resize-original.jpg,250,4.784,0,3343,249,feet,jsons/v1_VE250_randls_55_rotated.json,731358,1160050,51,Woman
120,687918,DepthScenes,duration_manipulation_targetAtFixation,jsons/v1_VE250_randls_55_rotated.json,http://54.235.29.9/FacialAge/BNav_EC2/DepthDuration/v2_depth_duration_MTurk/v2_DepthDuration_HTML.html#28,28,1440,789,1440,900,8-20-2022,10-57-59,121,depth_duration_stimuli/003129_2014-05-12_10-48-10_094959634447_rgbf000100-resize_0/003129_2014-05-12_10-48-10_094959634447_rgbf000100-resize_0-target.png,250,4.9305,9,3988,254,feet,jsons/v1_VE250_randls_55_rotated.json,731358,1160050,51,Woman
121,687918,DepthScenes,duration_manipulation_targetAtFixation,jsons/v1_VE250_randls_55_rotated.json,http://54.235.29.9/FacialAge/BNav_EC2/DepthDuration/v2_depth_duration_MTurk/v2_DepthDuration_HTML.html#28,28,1440,789,1440,900,8-20-2022,10-57-59,122,depth_duration_stimuli/000414_2014-06-04_19-49-13_260595134347_rgbf000044-resize_0/000414_2014-06-04_19-49-13_260595134347_rgbf000044-resize_0-target.png,250,4.329,12,3342,253,feet,jsons/v1_VE250_randls_55_rotated.json,731358,1160050,51,Woman
122,687918,DepthScenes,duration_manipulation_targetAtFixation,jsons/v1_VE250_randls_55_rotated.json,http://54.235.29.9/FacialAge/BNav_EC2/DepthDuration/v2_depth_duration_MTurk/v2_DepthDuration_HTML.html#28,28,1440,789,1440,900,8-20-2022,10-57-59,123,depth_duration_stimuli/003048_2014-06-15_13-49-43_094959634447_rgbf000150-resize_1/003048_2014-06-15_13-49-43_094959634447_rgbf000150-resize_1-target.png,250,4.0035,12,3308,250,feet,jsons/v1_VE250_randls_55_rotated.json,731358,1160050,51,Woman
123,687918,DepthScenes,duration_manipulation_targetAtFixation,jsons/v1_VE250_randls_55_rotated.json,http://54.235.29.9/FacialAge/BNav_EC2/DepthDuration/v2_depth_duration_MTurk/v2_DepthDuration_HTML.html#28,28,1440,789,1440,900,8-20-2022,10-57-59,124,depth_duration_stimuli/002043_2014-06-24_20-29-38_260595134347_rgbf000039-resize_4/002043_2014-06-24_20-29-38_260595134347_rgbf000039-resize_4-target.png,250,2.8435,7,3308,249,feet,jsons/v1_VE250_randls_55_rotated.json,731358,1160050,51,Woman
124,687918,DepthScenes,duration_manipulation_targetAtFixation,jsons/v1_VE250_randls_55_rotated.json,http://54.235.29.9/FacialAge/BNav_EC2/DepthDuration/v2_depth_duration_MTurk/v2_DepthDuration_HTML.html#28,28,1440,789,1440,900,8-20-2022,10-57-59,125,depth_duration_stimuli/002340_2014-06-28_20-05-46_260595134347_rgbf000113-resize_0/002340_2014-06-28_20-05-46_260595134347_rgbf000113-resize_0-target.png,250,2.4735,9,3376,253,feet,jsons/v1_VE250_randls_55_rotated.json,731358,1160050,51,Woman
125,687918,DepthScenes,duration_manipulation_targetAtFixation,jsons/v1_VE250_randls_55_rotated.json,http://54.235.29.9/FacialAge/BNav_EC2/DepthDuration/v2_depth_duration_MTurk/v2_DepthDuration_HTML.html#28,28,1440,789,1440,900,8-20-2022,10-57-59,126,depth_duration_stimuli/001016_2014-06-09_16-16-10_260595134347_rgbf000112-resize_5/001016_2014-06-09_16-16-10_260595134347_rgbf000112-resize_5-target.png,250,1.6565,6,3469,252,feet,jsons/v1_VE250_randls_55_rotated.json,731358,1160050,51,Woman
126,687918,DepthScenes,duration_manipulation_targetAtFixation,jsons/v1_VE250_randls_55_rotated.json,http://54.235.29.9/FacialAge/BNav_EC2/DepthDuration/v2_depth_duration_MTurk/v2_DepthDuration_HTML.html#28,28,1440,789,1440,900,8-20-2022,10-57-59,127,depth_duration_stimuli/001392_2014-06-19_16-07-59_260595134347_rgbf000046-resize_1/001392_2014-06-19_16-07-59_260595134347_rgbf000046-resize_1-target.png,250,4.135,11,3610,254,feet,jsons/v1_VE250_randls_55_rotated.json,731358,1160050,51,Woman
127,687918,DepthScenes,duration_manipulation_targetAtFixation,jsons/v1_VE250_randls_55_rotated.json,http://54.235.29.9/FacialAge/BNav_EC2/DepthDuration/v2_depth_duration_MTurk/v2_DepthDuration_HTML.html#28,28,1440,789,1440,900,8-20-2022,10-57-59,128,depth_duration_stimuli/001570_2014-06-20_17-21-09_260595134347_rgbf000135-resize_4/001570_2014-06-20_17-21-09_260595134347_rgbf000135-resize_4-target.png,250,4.467,10,3848,253,feet,jsons/v1_VE250_randls_55_rotated.json,731358,1160050,51,Woman
128,687918,DepthScenes,duration_manipulation_targetAtFixation,jsons/v1_VE250_randls_55_rotated.json,http://54.235.29.9/FacialAge/BNav_EC2/DepthDuration/v2_depth_duration_MTurk/v2_DepthDuration_HTML.html#28,28,1440,789,1440,900,8-20-2022,10-57-59,129,depth_duration_stimuli/001815_2014-06-26_20-52-55_260595134347_rgbf000020-resize_0/001815_2014-06-26_20-52-55_260595134347_rgbf000020-resize_0-target.png,250,3.3865,12,3468,249,feet,jsons/v1_VE250_randls_55_rotated.json,731358,1160050,51,Woman
129,687918,DepthScenes,duration_manipulation_targetAtFixation,jsons/v1_VE250_randls_55_rotated.json,http://54.235.29.9/FacialAge/BNav_EC2/DepthDuration/v2_depth_duration_MTurk/v2_DepthDuration_HTML.html#28,28,1440,789,1440,900,8-20-2022,10-57-59,130,depth_duration_stimuli/001808_2014-06-26_20-50-58_260595134347_rgbf000029-resize_1/001808_2014-06-26_20-50-58_260595134347_rgbf000029-resize_1-target.png,250,4.249,10,4408,249,feet,jsons/v1_VE250_randls_55_rotated.json,731358,1160050,51,Woman
130,687918,DepthScenes,duration_manipulation_targetAtFixation,jsons/v1_VE250_randls_55_rotated.json,http://54.235.29.9/FacialAge/BNav_EC2/DepthDuration/v2_depth_duration_MTurk/v2_DepthDuration_HTML.html#28,28,1440,789,1440,900,8-20-2022,10-57-59,131,depth_duration_stimuli/001136_2014-06-17_15-19-41_260595134347_rgbf000076-resize_3/001136_2014-06-17_15-19-41_260595134347_rgbf000076-resize_3-target.png,250,1.8655,6,3916,249,feet,jsons/v1_VE250_randls_55_rotated.json,731358,1160050,51,Woman
131,687918,DepthScenes,duration_manipulation_targetAtFixation,jsons/v1_VE250_randls_55_rotated.json,http://54.235.29.9/FacialAge/BNav_EC2/DepthDuration/v2_depth_duration_MTurk/v2_DepthDuration_HTML.html#28,28,1440,789,1440,900,8-20-2022,10-57-59,132,depth_duration_stimuli/001164_2014-06-17_15-35-46_260595134347_rgbf000085-resize_3/001164_2014-06-17_15-35-46_260595134347_rgbf000085-resize_3-target.png,250,2.354,8,4547,249,feet,jsons/v1_VE250_randls_55_rotated.json,731358,1160050,51,Woman
132,687918,DepthScenes,duration_manipulation_targetAtFixation,jsons/v1_VE250_randls_55_rotated.json,http://54.235.29.9/FacialAge/BNav_EC2/DepthDuration/v2_depth_duration_MTurk/v2_DepthDuration_HTML.html#28,28,1440,789,1440,900,8-20-2022,10-57-59,133,depth_duration_stimuli/001650_2014-06-20_12-09-00_260595134347_rgbf000087-resize_3/001650_2014-06-20_12-09-00_260595134347_rgbf000087-resize_3-target.png,250,1.9505,4,6048,251,feet,jsons/v1_VE250_randls_55_rotated.json,731358,1160050,51,Woman
133,687918,DepthScenes,duration_manipulation_targetAtFixation,jsons/v1_VE250_randls_55_rotated.json,http://54.235.29.9/FacialAge/BNav_EC2/DepthDuration/v2_depth_duration_MTurk/v2_DepthDuration_HTML.html#28,28,1440,789,1440,900,8-20-2022,10-57-59,134,depth_duration_stimuli/000682_2014-06-08_23-14-58_260595134347_rgbf000041-resize_5/000682_2014-06-08_23-14-58_260595134347_rgbf000041-resize_5-target.png,250,2.7239999999999998,7,4065,250,feet,jsons/v1_VE250_randls_55_rotated.json,731358,1160050,51,Woman
134,687918,DepthScenes,duration_manipulation_targetAtFixation,jsons/v1_VE250_randls_55_rotated.json,http://54.235.29.9/FacialAge/BNav_EC2/DepthDuration/v2_depth_duration_MTurk/v2_DepthDuration_HTML.html#28,28,1440,789,1440,900,8-20-2022,10-57-59,135,depth_duration_stimuli/000375_2014-06-08_11-17-29_260595134347_rgbf000133-resize_2/000375_2014-06-08_11-17-29_260595134347_rgbf000133-resize-original.jpg,250,4.718,0,3481,249,feet,jsons/v1_VE250_randls_55_rotated.json,731358,1160050,51,Woman
135,687918,DepthScenes,duration_manipulation_targetAtFixation,jsons/v1_VE250_randls_55_rotated.json,http://54.235.29.9/FacialAge/BNav_EC2/DepthDuration/v2_depth_duration_MTurk/v2_DepthDuration_HTML.html#28,28,1440,789,1440,900,8-20-2022,10-57-59,136,depth_duration_stimuli/000709_2014-06-08_13-51-55_260595134347_rgbf000068-resize_3/000709_2014-06-08_13-51-55_260595134347_rgbf000068-resize_3-target.png,250,1.8030000000000002,0,4326,250,feet,jsons/v1_VE250_randls_55_rotated.json,731358,1160050,51,Woman
136,687918,DepthScenes,duration_manipulation_targetAtFixation,jsons/v1_VE250_randls_55_rotated.json,http://54.235.29.9/FacialAge/BNav_EC2/DepthDuration/v2_depth_duration_MTurk/v2_DepthDuration_HTML.html#28,28,1440,789,1440,900,8-20-2022,10-57-59,137,depth_duration_stimuli/002057_2014-06-24_21-00-13_260595134347_rgbf000120-resize_1/002057_2014-06-24_21-00-13_260595134347_rgbf000120-resize_1-target.png,250,2.967,13,5258,251,feet,jsons/v1_VE250_randls_55_rotated.json,731358,1160050,51,Woman
137,687918,DepthScenes,duration_manipulation_targetAtFixation,jsons/v1_VE250_randls_55_rotated.json,http://54.235.29.9/FacialAge/BNav_EC2/DepthDuration/v2_depth_duration_MTurk/v2_DepthDuration_HTML.html#28,28,1440,789,1440,900,8-20-2022,10-57-59,138,depth_duration_stimuli/003338_2014-05-20_11-01-23_094959634447_rgbf000051-resize_6/003338_2014-05-20_11-01-23_094959634447_rgbf000051-resize_6-target.png,250,1.693,4,4112,254,feet,jsons/v1_VE250_randls_55_rotated.json,731358,1160050,51,Woman
138,687918,DepthScenes,duration_manipulation_targetAtFixation,jsons/v1_VE250_randls_55_rotated.json,http://54.235.29.9/FacialAge/BNav_EC2/DepthDuration/v2_depth_duration_MTurk/v2_DepthDuration_HTML.html#28,28,1440,789,1440,900,8-20-2022,10-57-59,139,depth_duration_stimuli/002509_2014-06-24_13-19-22_094959634447_rgbf000077-resize_0/002509_2014-06-24_13-19-22_094959634447_rgbf000077-resize_0-target.png,250,1.3065,5,3643,249,feet,jsons/v1_VE250_randls_55_rotated.json,731358,1160050,51,Woman
139,687918,DepthScenes,duration_manipulation_targetAtFixation,jsons/v1_VE250_randls_55_rotated.json,http://54.235.29.9/FacialAge/BNav_EC2/DepthDuration/v2_depth_duration_MTurk/v2_DepthDuration_HTML.html#28,28,1440,789,1440,900,8-20-2022,10-57-59,140,depth_duration_stimuli/002323_2014-06-28_20-01-54_260595134347_rgbf000051-resize_4/002323_2014-06-28_20-01-54_260595134347_rgbf000051-resize_4-target.png,250,3.7310000000000003,9,4540,249,feet,jsons/v1_VE250_randls_55_rotated.json,731358,1160050,51,Woman
140,687918,DepthScenes,duration_manipulation_targetAtFixation,jsons/v1_VE250_randls_55_rotated.json,http://54.235.29.9/FacialAge/BNav_EC2/DepthDuration/v2_depth_duration_MTurk/v2_DepthDuration_HTML.html#28,28,1440,789,1440,900,8-20-2022,10-57-59,141,depth_duration_stimuli/000917_2014-06-09_22-45-29_260595134347_rgbf000149-resize_3/000917_2014-06-09_22-45-29_260595134347_rgbf000149-resize_3-target.png,250,4.1865,10,4001,248,feet,jsons/v1_VE250_randls_55_rotated.json,731358,1160050,51,Woman
141,687918,DepthScenes,duration_manipulation_targetAtFixation,jsons/v1_VE250_randls_55_rotated.json,http://54.235.29.9/FacialAge/BNav_EC2/DepthDuration/v2_depth_duration_MTurk/v2_DepthDuration_HTML.html#28,28,1440,789,1440,900,8-20-2022,10-57-59,142,depth_duration_stimuli/001094_2014-06-15_17-36-00_260595134347_rgbf000205-resize_0/001094_2014-06-15_17-36-00_260595134347_rgbf000205-resize_0-target.png,250,4.2175,8,3371,247,feet,jsons/v1_VE250_randls_55_rotated.json,731358,1160050,51,Woman
142,687918,DepthScenes,duration_manipulation_targetAtFixation,jsons/v1_VE250_randls_55_rotated.json,http://54.235.29.9/FacialAge/BNav_EC2/DepthDuration/v2_depth_duration_MTurk/v2_DepthDuration_HTML.html#28,28,1440,789,1440,900,8-20-2022,10-57-59,143,depth_duration_stimuli/000692_2014-06-08_13-09-42_260595134347_rgbf000199-resize_2/000692_2014-06-08_13-09-42_260595134347_rgbf000199-resize_2-target.png,250,3.661,12,3342,249,feet,jsons/v1_VE250_randls_55_rotated.json,731358,1160050,51,Woman
143,687918,DepthScenes,duration_manipulation_targetAtFixation,jsons/v1_VE250_randls_55_rotated.json,http://54.235.29.9/FacialAge/BNav_EC2/DepthDuration/v2_depth_duration_MTurk/v2_DepthDuration_HTML.html#28,28,1440,789,1440,900,8-20-2022,10-57-59,144,depth_duration_stimuli/000502_2014-06-08_23-02-32_260595134347_rgbf000063-resize_4/000502_2014-06-08_23-02-32_260595134347_rgbf000063-resize_4-target.png,250,2.431,7,3420,254,feet,jsons/v1_VE250_randls_55_rotated.json,731358,1160050,51,Woman
144,687918,DepthScenes,duration_manipulation_targetAtFixation,jsons/v1_VE250_randls_55_rotated.json,http://54.235.29.9/FacialAge/BNav_EC2/DepthDuration/v2_depth_duration_MTurk/v2_DepthDuration_HTML.html#28,28,1440,789,1440,900,8-20-2022,10-57-59,145,depth_duration_stimuli/001199_2014-06-17_16-03-48_260595134347_rgbf000077-resize_0/001199_2014-06-17_16-03-48_260595134347_rgbf000077-resize_0-target.png,250,3.4375,10,6581,248,feet,jsons/v1_VE250_randls_55_rotated.json,731358,1160050,51,Woman
145,687918,DepthScenes,duration_manipulation_targetAtFixation,jsons/v1_VE250_randls_55_rotated.json,http://54.235.29.9/FacialAge/BNav_EC2/DepthDuration/v2_depth_duration_MTurk/v2_DepthDuration_HTML.html#28,28,1440,789,1440,900,8-20-2022,10-57-59,146,depth_duration_stimuli/000854_2014-06-09_19-43-13_260595134347_rgbf000066-resize_0/000854_2014-06-09_19-43-13_260595134347_rgbf000066-resize_0-target.png,250,3.068,4,3620,249,feet,jsons/v1_VE250_randls_55_rotated.json,731358,1160050,51,Woman
146,687918,DepthScenes,duration_manipulation_targetAtFixation,jsons/v1_VE250_randls_55_rotated.json,http://54.235.29.9/FacialAge/BNav_EC2/DepthDuration/v2_depth_duration_MTurk/v2_DepthDuration_HTML.html#28,28,1440,789,1440,900,8-20-2022,10-57-59,147,depth_duration_stimuli/000758_2014-06-08_22-05-08_260595134347_rgbf000085-resize_0/000758_2014-06-08_22-05-08_260595134347_rgbf000085-resize_0-target.png,250,3.3810000000000002,12,3366,251,feet,jsons/v1_VE250_randls_55_rotated.json,731358,1160050,51,Woman
147,687918,DepthScenes,duration_manipulation_targetAtFixation,jsons/v1_VE250_randls_55_rotated.json,http://54.235.29.9/FacialAge/BNav_EC2/DepthDuration/v2_depth_duration_MTurk/v2_DepthDuration_HTML.html#28,28,1440,789,1440,900,8-20-2022,10-57-59,148,depth_duration_stimuli/003228_2014-05-14_13-42-35_094959634447_rgbf000101-resize_1/003228_2014-05-14_13-42-35_094959634447_rgbf000101-resize_1-target.png,250,1.9680000000000002,6,3641,249,feet,jsons/v1_VE250_randls_55_rotated.json,731358,1160050,51,Woman
148,687918,DepthScenes,duration_manipulation_targetAtFixation,jsons/v1_VE250_randls_55_rotated.json,http://54.235.29.9/FacialAge/BNav_EC2/DepthDuration/v2_depth_duration_MTurk/v2_DepthDuration_HTML.html#28,28,1440,789,1440,900,8-20-2022,10-57-59,149,depth_duration_stimuli/002600_2014-06-24_14-27-04_094959634447_rgbf000074-resize_2/002600_2014-06-24_14-27-04_094959634447_rgbf000074-resize_2-target.png,250,2.7575,8,3534,252,feet,jsons/v1_VE250_randls_55_rotated.json,731358,1160050,51,Woman
149,687918,DepthScenes,duration_manipulation_targetAtFixation,jsons/v1_VE250_randls_55_rotated.json,http://54.235.29.9/FacialAge/BNav_EC2/DepthDuration/v2_depth_duration_MTurk/v2_DepthDuration_HTML.html#28,28,1440,789,1440,900,8-20-2022,10-57-59,150,depth_duration_stimuli/002444_2014-06-28_20-32-08_260595134347_rgbf000027-resize_0/002444_2014-06-28_20-32-08_260595134347_rgbf000027-resize_0-target.png,250,4.388999999999999,10,4186,249,feet,jsons/v1_VE250_randls_55_rotated.json,731358,1160050,51,Woman
150,687918,DepthScenes,duration_manipulation_targetAtFixation,jsons/v1_VE250_randls_55_rotated.json,http://54.235.29.9/FacialAge/BNav_EC2/DepthDuration/v2_depth_duration_MTurk/v2_DepthDuration_HTML.html#28,28,1440,789,1440,900,8-20-2022,10-57-59,151,depth_duration_stimuli/000436_2014-06-09_22-25-11_260595134347_rgbf000137-resize_1/000436_2014-06-09_22-25-11_260595134347_rgbf000137-resize_1-target.png,250,4.0705,11,2967,249,feet,jsons/v1_VE250_randls_55_rotated.json,731358,1160050,51,Woman
151,687918,DepthScenes,duration_manipulation_targetAtFixation,jsons/v1_VE250_randls_55_rotated.json,http://54.235.29.9/FacialAge/BNav_EC2/DepthDuration/v2_depth_duration_MTurk/v2_DepthDuration_HTML.html#28,28,1440,789,1440,900,8-20-2022,10-57-59,152,depth_duration_stimuli/000569_2014-06-09_22-51-47_260595134347_rgbf000141-resize_3/000569_2014-06-09_22-51-47_260595134347_rgbf000141-resize-original.jpg,250,4.512,0,3734,252,feet,jsons/v1_VE250_randls_55_rotated.json,731358,1160050,51,Woman
152,687918,DepthScenes,duration_manipulation_targetAtFixation,jsons/v1_VE250_randls_55_rotated.json,http://54.235.29.9/FacialAge/BNav_EC2/DepthDuration/v2_depth_duration_MTurk/v2_DepthDuration_HTML.html#28,28,1440,789,1440,900,8-20-2022,10-57-59,153,depth_duration_stimuli/002637_2014-06-24_14-51-13_094959634447_rgbf000066-resize_4/002637_2014-06-24_14-51-13_094959634447_rgbf000066-resize_4-target.png,250,1.9955,8,3961,255,feet,jsons/v1_VE250_randls_55_rotated.json,731358,1160050,51,Woman
153,687918,DepthScenes,duration_manipulation_targetAtFixation,jsons/v1_VE250_randls_55_rotated.json,http://54.235.29.9/FacialAge/BNav_EC2/DepthDuration/v2_depth_duration_MTurk/v2_DepthDuration_HTML.html#28,28,1440,789,1440,900,8-20-2022,10-57-59,154,depth_duration_stimuli/003534_2014-05-22_15-06-10_094959634447_rgbf000102-resize_4/003534_2014-05-22_15-06-10_094959634447_rgbf000102-resize_4-target.png,250,1.426,3,2577,249,feet,jsons/v1_VE250_randls_55_rotated.json,731358,1160050,51,Woman
154,687918,DepthScenes,duration_manipulation_targetAtFixation,jsons/v1_VE250_randls_55_rotated.json,http://54.235.29.9/FacialAge/BNav_EC2/DepthDuration/v2_depth_duration_MTurk/v2_DepthDuration_HTML.html#28,28,1440,789,1440,900,8-20-2022,10-57-59,155,depth_duration_stimuli/001214_2014-06-17_16-13-55_260595134347_rgbf000111-resize_0/001214_2014-06-17_16-13-55_260595134347_rgbf000111-resize_0-target.png,250,2.6505,6,6672,254,feet,jsons/v1_VE250_randls_55_rotated.json,731358,1160050,51,Woman
155,687918,DepthScenes,duration_manipulation_targetAtFixation,jsons/v1_VE250_randls_55_rotated.json,http://54.235.29.9/FacialAge/BNav_EC2/DepthDuration/v2_depth_duration_MTurk/v2_DepthDuration_HTML.html#28,28,1440,789,1440,900,8-20-2022,10-57-59,156,depth_duration_stimuli/000810_2014-06-08_17-20-01_260595134347_rgbf000105-resize_0/000810_2014-06-08_17-20-01_260595134347_rgbf000105-resize_0-target.png,250,1.4865,6,4106,250,feet,jsons/v1_VE250_randls_55_rotated.json,731358,1160050,51,Woman
156,687918,DepthScenes,duration_manipulation_targetAtFixation,jsons/v1_VE250_randls_55_rotated.json,http://54.235.29.9/FacialAge/BNav_EC2/DepthDuration/v2_depth_duration_MTurk/v2_DepthDuration_HTML.html#28,28,1440,789,1440,900,8-20-2022,10-57-59,157,depth_duration_stimuli/002758_2014-06-22_19-11-20_094959634447_rgbf000128-resize_1/002758_2014-06-22_19-11-20_094959634447_rgbf000128-resize_1-target.png,250,2.555,7,3252,249,feet,jsons/v1_VE250_randls_55_rotated.json,731358,1160050,51,Woman
157,687918,DepthScenes,duration_manipulation_targetAtFixation,jsons/v1_VE250_randls_55_rotated.json,http://54.235.29.9/FacialAge/BNav_EC2/DepthDuration/v2_depth_duration_MTurk/v2_DepthDuration_HTML.html#28,28,1440,789,1440,900,8-20-2022,10-57-59,158,depth_duration_stimuli/002630_2014-06-24_14-47-50_094959634447_rgbf000055-resize_1/002630_2014-06-24_14-47-50_094959634447_rgbf000055-resize_1-target.png,250,3.0095,10,3451,249,feet,jsons/v1_VE250_randls_55_rotated.json,731358,1160050,51,Woman
158,687918,DepthScenes,duration_manipulation_targetAtFixation,jsons/v1_VE250_randls_55_rotated.json,http://54.235.29.9/FacialAge/BNav_EC2/DepthDuration/v2_depth_duration_MTurk/v2_DepthDuration_HTML.html#28,28,1440,789,1440,900,8-20-2022,10-57-59,159,depth_duration_stimuli/002657_2014-06-13_15-29-54_094959634447_rgbf000150-resize_1/002657_2014-06-13_15-29-54_094959634447_rgbf000150-resize_1-target.png,250,4.919,8,5249,249,feet,jsons/v1_VE250_randls_55_rotated.json,731358,1160050,51,Woman
159,687918,DepthScenes,duration_manipulation_targetAtFixation,jsons/v1_VE250_randls_55_rotated.json,http://54.235.29.9/FacialAge/BNav_EC2/DepthDuration/v2_depth_duration_MTurk/v2_DepthDuration_HTML.html#28,28,1440,789,1440,900,8-20-2022,10-57-59,160,depth_duration_stimuli/002375_2014-06-28_20-13-44_260595134347_rgbf000032-resize_1/002375_2014-06-28_20-13-44_260595134347_rgbf000032-resize_1-target.png,250,4.0175,8,3985,251,feet,jsons/v1_VE250_randls_55_rotated.json,731358,1160050,51,Woman
160,687918,DepthScenes,duration_manipulation_targetAtFixation,jsons/v1_VE250_randls_55_rotated.json,http://54.235.29.9/FacialAge/BNav_EC2/DepthDuration/v2_depth_duration_MTurk/v2_DepthDuration_HTML.html#28,28,1440,789,1440,900,8-20-2022,10-57-59,161,depth_duration_stimuli/001447_2014-06-19_17-00-32_260595134347_rgbf000082-resize_5/001447_2014-06-19_17-00-32_260595134347_rgbf000082-resize_5-target.png,250,4.13775,9,7083,249,feet,jsons/v1_VE250_randls_55_rotated.json,731358,1160050,51,Woman
161,687918,DepthScenes,duration_manipulation_targetAtFixation,jsons/v1_VE250_randls_55_rotated.json,http://54.235.29.9/FacialAge/BNav_EC2/DepthDuration/v2_depth_duration_MTurk/v2_DepthDuration_HTML.html#28,28,1440,789,1440,900,8-20-2022,10-57-59,162,depth_duration_stimuli/000447_2014-06-08_16-15-46_260595134347_rgbf000130-resize_1/000447_2014-06-08_16-15-46_260595134347_rgbf000130-resize_1-target.png,250,4.479,14,4301,249,feet,jsons/v1_VE250_randls_55_rotated.json,731358,1160050,51,Woman
162,687918,DepthScenes,duration_manipulation_targetAtFixation,jsons/v1_VE250_randls_55_rotated.json,http://54.235.29.9/FacialAge/BNav_EC2/DepthDuration/v2_depth_duration_MTurk/v2_DepthDuration_HTML.html#28,28,1440,789,1440,900,8-20-2022,10-57-59,163,depth_duration_stimuli/003587_2014-05-23_16-48-02_094959634447_rgbf002384-resize_2/003587_2014-05-23_16-48-02_094959634447_rgbf002384-resize_2-target.png,250,1.357,4,4571,254,feet,jsons/v1_VE250_randls_55_rotated.json,731358,1160050,51,Woman
163,687918,DepthScenes,duration_manipulation_targetAtFixation,jsons/v1_VE250_randls_55_rotated.json,http://54.235.29.9/FacialAge/BNav_EC2/DepthDuration/v2_depth_duration_MTurk/v2_DepthDuration_HTML.html#28,28,1440,789,1440,900,8-20-2022,10-57-59,164,depth_duration_stimuli/001167_2014-06-17_15-38-07_260595134347_rgbf000108-resize_0/001167_2014-06-17_15-38-07_260595134347_rgbf000108-resize_0-target.png,250,1.8505,5,4195,249,feet,jsons/v1_VE250_randls_55_rotated.json,731358,1160050,51,Woman
