,subjID,experimentName,versionName,sequenceName,url,selected_row,windowWidth,windowHeight,screenWidth,screenHeight,startDate,startTime,trial,stimulus,duration,actual_depth,depth_estimate,trial_RT,log_sceneDuration,unitSelection,seq_filepath,experimentTime,totalTime,age,gender
0,688771,DepthScenes,duration_manipulation_targetAtFixation,jsons/v1_VE1000_randls_76_rotated.json,http://54.235.29.9/FacialAge/BNav_EC2/DepthDuration/v2_depth_duration_MTurk/v2_DepthDuration_HTML.html#217,217,1024,625,1024,768,9-3-2022,6-9-22,1,depth_duration_stimuli/001100_2014-06-15_17-46-26_260595134347_rgbf000225-resize_2/001100_2014-06-15_17-46-26_260595134347_rgbf000225-resize_2-target.png,1000,2.24,8,15700,1000,meters,jsons/v1_VE1000_randls_76_rotated.json,2138883,3022117,1999,Woman
1,688771,DepthScenes,duration_manipulation_targetAtFixation,jsons/v1_VE1000_randls_76_rotated.json,http://54.235.29.9/FacialAge/BNav_EC2/DepthDuration/v2_depth_duration_MTurk/v2_DepthDuration_HTML.html#217,217,1024,625,1024,768,9-3-2022,6-9-22,2,depth_duration_stimuli/002784_2014-06-22_19-26-30_094959634447_rgbf000083-resize_3/002784_2014-06-22_19-26-30_094959634447_rgbf000083-resize_3-target.png,1000,1.8046666666667,5,8767,988,meters,jsons/v1_VE1000_randls_76_rotated.json,2138883,3022117,1999,Woman
2,688771,DepthScenes,duration_manipulation_targetAtFixation,jsons/v1_VE1000_randls_76_rotated.json,http://54.235.29.9/FacialAge/BNav_EC2/DepthDuration/v2_depth_duration_MTurk/v2_DepthDuration_HTML.html#217,217,1024,625,1024,768,9-3-2022,6-9-22,3,depth_duration_stimuli/002467_2014-06-28_20-38-07_260595134347_rgbf000026-resize_2/002467_2014-06-28_20-38-07_260595134347_rgbf000026-resize_2-target.png,1000,4.742,9,12627,1000,meters,jsons/v1_VE1000_randls_76_rotated.json,2138883,3022117,1999,Woman
3,688771,DepthScenes,duration_manipulation_targetAtFixation,jsons/v1_VE1000_randls_76_rotated.json,http://54.235.29.9/FacialAge/BNav_EC2/DepthDuration/v2_depth_duration_MTurk/v2_DepthDuration_HTML.html#217,217,1024,625,1024,768,9-3-2022,6-9-22,4,depth_duration_stimuli/002570_2014-06-24_13-59-54_094959634447_rgbf000059-resize_0/002570_2014-06-24_13-59-54_094959634447_rgbf000059-resize_0-target.png,1000,4.037,9,5247,997,meters,jsons/v1_VE1000_randls_76_rotated.json,2138883,3022117,1999,Woman
4,688771,DepthScenes,duration_manipulation_targetAtFixation,jsons/v1_VE1000_randls_76_rotated.json,http://54.235.29.9/FacialAge/BNav_EC2/DepthDuration/v2_depth_duration_MTurk/v2_DepthDuration_HTML.html#217,217,1024,625,1024,768,9-3-2022,6-9-22,5,depth_duration_stimuli/003079_2014-06-15_15-18-20_094959634447_rgbf000152-resize_8/003079_2014-06-15_15-18-20_094959634447_rgbf000152-resize_8-target.png,1000,2.8775,7,14500,1001,meters,jsons/v1_VE1000_randls_76_rotated.json,2138883,3022117,1999,Woman
5,688771,DepthScenes,duration_manipulation_targetAtFixation,jsons/v1_VE1000_randls_76_rotated.json,http://54.235.29.9/FacialAge/BNav_EC2/DepthDuration/v2_depth_duration_MTurk/v2_DepthDuration_HTML.html#217,217,1024,625,1024,768,9-3-2022,6-9-22,6,depth_duration_stimuli/000506_2014-06-08_23-21-00_260595134347_rgbf000070-resize_7/000506_2014-06-08_23-21-00_260595134347_rgbf000070-resize_7-target.png,1000,4.0585,6,5819,1001,meters,jsons/v1_VE1000_randls_76_rotated.json,2138883,3022117,1999,Woman
6,688771,DepthScenes,duration_manipulation_targetAtFixation,jsons/v1_VE1000_randls_76_rotated.json,http://54.235.29.9/FacialAge/BNav_EC2/DepthDuration/v2_depth_duration_MTurk/v2_DepthDuration_HTML.html#217,217,1024,625,1024,768,9-3-2022,6-9-22,7,depth_duration_stimuli/000749_2014-06-08_21-55-06_260595134347_rgbf000070-resize_2/000749_2014-06-08_21-55-06_260595134347_rgbf000070-resize_2-target.png,1000,2.331,7,12055,999,meters,jsons/v1_VE1000_randls_76_rotated.json,2138883,3022117,1999,Woman
7,688771,DepthScenes,duration_manipulation_targetAtFixation,jsons/v1_VE1000_randls_76_rotated.json,http://54.235.29.9/FacialAge/BNav_EC2/DepthDuration/v2_depth_duration_MTurk/v2_DepthDuration_HTML.html#217,217,1024,625,1024,768,9-3-2022,6-9-22,8,depth_duration_stimuli/002788_2014-06-22_19-36-03_094959634447_rgbf000088-resize_2/002788_2014-06-22_19-36-03_094959634447_rgbf000088-resize_2-target.png,1000,1.6465,4,8180,1026,meters,jsons/v1_VE1000_randls_76_rotated.json,2138883,3022117,1999,Woman
8,688771,DepthScenes,duration_manipulation_targetAtFixation,jsons/v1_VE1000_randls_76_rotated.json,http://54.235.29.9/FacialAge/BNav_EC2/DepthDuration/v2_depth_duration_MTurk/v2_DepthDuration_HTML.html#217,217,1024,625,1024,768,9-3-2022,6-9-22,9,depth_duration_stimuli/002995_2014-06-15_12-31-26_094959634447_rgbf000150-resize_1/002995_2014-06-15_12-31-26_094959634447_rgbf000150-resize_1-target.png,1000,3.8360000000000003,5,16652,999,meters,jsons/v1_VE1000_randls_76_rotated.json,2138883,3022117,1999,Woman
9,688771,DepthScenes,duration_manipulation_targetAtFixation,jsons/v1_VE1000_randls_76_rotated.json,http://54.235.29.9/FacialAge/BNav_EC2/DepthDuration/v2_depth_duration_MTurk/v2_DepthDuration_HTML.html#217,217,1024,625,1024,768,9-3-2022,6-9-22,10,depth_duration_stimuli/002748_2014-06-22_19-07-22_094959634447_rgbf000078-resize_1/002748_2014-06-22_19-07-22_094959634447_rgbf000078-resize_1-target.png,1000,4.6705,6,7186,999,meters,jsons/v1_VE1000_randls_76_rotated.json,2138883,3022117,1999,Woman
10,688771,DepthScenes,duration_manipulation_targetAtFixation,jsons/v1_VE1000_randls_76_rotated.json,http://54.235.29.9/FacialAge/BNav_EC2/DepthDuration/v2_depth_duration_MTurk/v2_DepthDuration_HTML.html#217,217,1024,625,1024,768,9-3-2022,6-9-22,11,depth_duration_stimuli/002568_2014-06-24_13-59-21_094959634447_rgbf000062-resize_4/002568_2014-06-24_13-59-21_094959634447_rgbf000062-resize_4-target.png,1000,3.015,8,12138,999,meters,jsons/v1_VE1000_randls_76_rotated.json,2138883,3022117,1999,Woman
11,688771,DepthScenes,duration_manipulation_targetAtFixation,jsons/v1_VE1000_randls_76_rotated.json,http://54.235.29.9/FacialAge/BNav_EC2/DepthDuration/v2_depth_duration_MTurk/v2_DepthDuration_HTML.html#217,217,1024,625,1024,768,9-3-2022,6-9-22,12,depth_duration_stimuli/003492_2014-05-21_15-50-55_094959634447_rgbf000828-resize_1/003492_2014-05-21_15-50-55_094959634447_rgbf000828-resize_1-target.png,1000,4.06875,9,6979,1000,meters,jsons/v1_VE1000_randls_76_rotated.json,2138883,3022117,1999,Woman
12,688771,DepthScenes,duration_manipulation_targetAtFixation,jsons/v1_VE1000_randls_76_rotated.json,http://54.235.29.9/FacialAge/BNav_EC2/DepthDuration/v2_depth_duration_MTurk/v2_DepthDuration_HTML.html#217,217,1024,625,1024,768,9-3-2022,6-9-22,13,depth_duration_stimuli/001235_2014-06-17_16-37-36_260595134347_rgbf000084-resize_4/001235_2014-06-17_16-37-36_260595134347_rgbf000084-resize_4-target.png,1000,3.6605,5,18138,1000,meters,jsons/v1_VE1000_randls_76_rotated.json,2138883,3022117,1999,Woman
13,688771,DepthScenes,duration_manipulation_targetAtFixation,jsons/v1_VE1000_randls_76_rotated.json,http://54.235.29.9/FacialAge/BNav_EC2/DepthDuration/v2_depth_duration_MTurk/v2_DepthDuration_HTML.html#217,217,1024,625,1024,768,9-3-2022,6-9-22,14,depth_duration_stimuli/000788_2014-06-08_22-34-36_260595134347_rgbf000131-resize_1/000788_2014-06-08_22-34-36_260595134347_rgbf000131-resize_1-target.png,1000,3.359,7,9061,1000,meters,jsons/v1_VE1000_randls_76_rotated.json,2138883,3022117,1999,Woman
14,688771,DepthScenes,duration_manipulation_targetAtFixation,jsons/v1_VE1000_randls_76_rotated.json,http://54.235.29.9/FacialAge/BNav_EC2/DepthDuration/v2_depth_duration_MTurk/v2_DepthDuration_HTML.html#217,217,1024,625,1024,768,9-3-2022,6-9-22,15,depth_duration_stimuli/003129_2014-05-12_10-48-10_094959634447_rgbf000100-resize_0/003129_2014-05-12_10-48-10_094959634447_rgbf000100-resize_0-target.png,1000,4.9305,5,8258,999,meters,jsons/v1_VE1000_randls_76_rotated.json,2138883,3022117,1999,Woman
15,688771,DepthScenes,duration_manipulation_targetAtFixation,jsons/v1_VE1000_randls_76_rotated.json,http://54.235.29.9/FacialAge/BNav_EC2/DepthDuration/v2_depth_duration_MTurk/v2_DepthDuration_HTML.html#217,217,1024,625,1024,768,9-3-2022,6-9-22,16,depth_duration_stimuli/000414_2014-06-04_19-49-13_260595134347_rgbf000044-resize_0/000414_2014-06-04_19-49-13_260595134347_rgbf000044-resize_0-target.png,1000,4.329,5,16101,999,meters,jsons/v1_VE1000_randls_76_rotated.json,2138883,3022117,1999,Woman
16,688771,DepthScenes,duration_manipulation_targetAtFixation,jsons/v1_VE1000_randls_76_rotated.json,http://54.235.29.9/FacialAge/BNav_EC2/DepthDuration/v2_depth_duration_MTurk/v2_DepthDuration_HTML.html#217,217,1024,625,1024,768,9-3-2022,6-9-22,17,depth_duration_stimuli/001132_2014-06-17_14-48-54_260595134347_rgbf000100-resize_2/001132_2014-06-17_14-48-54_260595134347_rgbf000100-resize_2-target.png,1000,3.753,3,16473,999,meters,jsons/v1_VE1000_randls_76_rotated.json,2138883,3022117,1999,Woman
17,688771,DepthScenes,duration_manipulation_targetAtFixation,jsons/v1_VE1000_randls_76_rotated.json,http://54.235.29.9/FacialAge/BNav_EC2/DepthDuration/v2_depth_duration_MTurk/v2_DepthDuration_HTML.html#217,217,1024,625,1024,768,9-3-2022,6-9-22,18,depth_duration_stimuli/001133_2014-06-17_14-49-16_260595134347_rgbf000100-resize_0/001133_2014-06-17_14-49-16_260595134347_rgbf000100-resize_0-target.png,1000,4.2115,4,10242,1000,meters,jsons/v1_VE1000_randls_76_rotated.json,2138883,3022117,1999,Woman
18,688771,DepthScenes,duration_manipulation_targetAtFixation,jsons/v1_VE1000_randls_76_rotated.json,http://54.235.29.9/FacialAge/BNav_EC2/DepthDuration/v2_depth_duration_MTurk/v2_DepthDuration_HTML.html#217,217,1024,625,1024,768,9-3-2022,6-9-22,19,depth_duration_stimuli/001498_2014-06-19_17-45-14_260595134347_rgbf000129-resize_4/001498_2014-06-19_17-45-14_260595134347_rgbf000129-resize-original.jpg,1000,1.4075,5,18259,1001,meters,jsons/v1_VE1000_randls_76_rotated.json,2138883,3022117,1999,Woman
19,688771,DepthScenes,duration_manipulation_targetAtFixation,jsons/v1_VE1000_randls_76_rotated.json,http://54.235.29.9/FacialAge/BNav_EC2/DepthDuration/v2_depth_duration_MTurk/v2_DepthDuration_HTML.html#217,217,1024,625,1024,768,9-3-2022,6-9-22,20,depth_duration_stimuli/000665_2014-06-09_20-42-35_260595134347_rgbf000110-resize_1/000665_2014-06-09_20-42-35_260595134347_rgbf000110-resize_1-target.png,1000,3.057,7,7499,998,meters,jsons/v1_VE1000_randls_76_rotated.json,2138883,3022117,1999,Woman
20,688771,DepthScenes,duration_manipulation_targetAtFixation,jsons/v1_VE1000_randls_76_rotated.json,http://54.235.29.9/FacialAge/BNav_EC2/DepthDuration/v2_depth_duration_MTurk/v2_DepthDuration_HTML.html#217,217,1024,625,1024,768,9-3-2022,6-9-22,21,depth_duration_stimuli/001150_2014-06-17_15-27-34_260595134347_rgbf000108-resize_2/001150_2014-06-17_15-27-34_260595134347_rgbf000108-resize_2-target.png,1000,4.0325,7,8059,999,meters,jsons/v1_VE1000_randls_76_rotated.json,2138883,3022117,1999,Woman
21,688771,DepthScenes,duration_manipulation_targetAtFixation,jsons/v1_VE1000_randls_76_rotated.json,http://54.235.29.9/FacialAge/BNav_EC2/DepthDuration/v2_depth_duration_MTurk/v2_DepthDuration_HTML.html#217,217,1024,625,1024,768,9-3-2022,6-9-22,22,depth_duration_stimuli/003495_2014-05-21_16-01-51_094959634447_rgbf000100-resize_3/003495_2014-05-21_16-01-51_094959634447_rgbf000100-resize_3-target.png,1000,1.6255,5,12099,1001,meters,jsons/v1_VE1000_randls_76_rotated.json,2138883,3022117,1999,Woman
22,688771,DepthScenes,duration_manipulation_targetAtFixation,jsons/v1_VE1000_randls_76_rotated.json,http://54.235.29.9/FacialAge/BNav_EC2/DepthDuration/v2_depth_duration_MTurk/v2_DepthDuration_HTML.html#217,217,1024,625,1024,768,9-3-2022,6-9-22,23,depth_duration_stimuli/001244_2014-06-17_16-47-45_260595134347_rgbf000030-resize_4/001244_2014-06-17_16-47-45_260595134347_rgbf000030-resize_4-target.png,1000,2.0425,4,8539,1000,meters,jsons/v1_VE1000_randls_76_rotated.json,2138883,3022117,1999,Woman
23,688771,DepthScenes,duration_manipulation_targetAtFixation,jsons/v1_VE1000_randls_76_rotated.json,http://54.235.29.9/FacialAge/BNav_EC2/DepthDuration/v2_depth_duration_MTurk/v2_DepthDuration_HTML.html#217,217,1024,625,1024,768,9-3-2022,6-9-22,24,depth_duration_stimuli/000734_2014-06-08_17-39-11_260595134347_rgbf000128-resize_2/000734_2014-06-08_17-39-11_260595134347_rgbf000128-resize_2-target.png,1000,4.098,5,14620,1001,meters,jsons/v1_VE1000_randls_76_rotated.json,2138883,3022117,1999,Woman
24,688771,DepthScenes,duration_manipulation_targetAtFixation,jsons/v1_VE1000_randls_76_rotated.json,http://54.235.29.9/FacialAge/BNav_EC2/DepthDuration/v2_depth_duration_MTurk/v2_DepthDuration_HTML.html#217,217,1024,625,1024,768,9-3-2022,6-9-22,25,depth_duration_stimuli/000739_2014-06-08_18-45-58_260595134347_rgbf000068-resize_1/000739_2014-06-08_18-45-58_260595134347_rgbf000068-resize_1-target.png,1000,3.534,6,6698,1000,meters,jsons/v1_VE1000_randls_76_rotated.json,2138883,3022117,1999,Woman
25,688771,DepthScenes,duration_manipulation_targetAtFixation,jsons/v1_VE1000_randls_76_rotated.json,http://54.235.29.9/FacialAge/BNav_EC2/DepthDuration/v2_depth_duration_MTurk/v2_DepthDuration_HTML.html#217,217,1024,625,1024,768,9-3-2022,6-9-22,26,depth_duration_stimuli/000137_2014-05-20_17-04-49_260595134347_rgbf000120-resize_1/000137_2014-05-20_17-04-49_260595134347_rgbf000120-resize_1-target.png,1000,3.786,6,13986,999,meters,jsons/v1_VE1000_randls_76_rotated.json,2138883,3022117,1999,Woman
26,688771,DepthScenes,duration_manipulation_targetAtFixation,jsons/v1_VE1000_randls_76_rotated.json,http://54.235.29.9/FacialAge/BNav_EC2/DepthDuration/v2_depth_duration_MTurk/v2_DepthDuration_HTML.html#217,217,1024,625,1024,768,9-3-2022,6-9-22,27,depth_duration_stimuli/000736_2014-06-08_18-24-15_260595134347_rgbf000206-resize_3/000736_2014-06-08_18-24-15_260595134347_rgbf000206-resize_3-target.png,1000,3.515,5,8408,1000,meters,jsons/v1_VE1000_randls_76_rotated.json,2138883,3022117,1999,Woman
27,688771,DepthScenes,duration_manipulation_targetAtFixation,jsons/v1_VE1000_randls_76_rotated.json,http://54.235.29.9/FacialAge/BNav_EC2/DepthDuration/v2_depth_duration_MTurk/v2_DepthDuration_HTML.html#217,217,1024,625,1024,768,9-3-2022,6-9-22,28,depth_duration_stimuli/001450_2014-06-19_17-02-03_260595134347_rgbf000203-resize_4/001450_2014-06-19_17-02-03_260595134347_rgbf000203-resize_4-target.png,1000,4.0106666666667,5,11419,998,meters,jsons/v1_VE1000_randls_76_rotated.json,2138883,3022117,1999,Woman
28,688771,DepthScenes,duration_manipulation_targetAtFixation,jsons/v1_VE1000_randls_76_rotated.json,http://54.235.29.9/FacialAge/BNav_EC2/DepthDuration/v2_depth_duration_MTurk/v2_DepthDuration_HTML.html#217,217,1024,625,1024,768,9-3-2022,6-9-22,29,depth_duration_stimuli/001449_2014-06-19_17-01-27_260595134347_rgbf000116-resize_2/001449_2014-06-19_17-01-27_260595134347_rgbf000116-resize_2-target.png,1000,3.452,3,8653,1000,meters,jsons/v1_VE1000_randls_76_rotated.json,2138883,3022117,1999,Woman
29,688771,DepthScenes,duration_manipulation_targetAtFixation,jsons/v1_VE1000_randls_76_rotated.json,http://54.235.29.9/FacialAge/BNav_EC2/DepthDuration/v2_depth_duration_MTurk/v2_DepthDuration_HTML.html#217,217,1024,625,1024,768,9-3-2022,6-9-22,30,depth_duration_stimuli/002072_2014-06-24_21-48-06_260595134347_rgbf000115-resize_0/002072_2014-06-24_21-48-06_260595134347_rgbf000115-resize-original.jpg,1000,4.702,0,16026,1000,meters,jsons/v1_VE1000_randls_76_rotated.json,2138883,3022117,1999,Woman
30,688771,DepthScenes,duration_manipulation_targetAtFixation,jsons/v1_VE1000_randls_76_rotated.json,http://54.235.29.9/FacialAge/BNav_EC2/DepthDuration/v2_depth_duration_MTurk/v2_DepthDuration_HTML.html#217,217,1024,625,1024,768,9-3-2022,6-9-22,31,depth_duration_stimuli/000483_2014-06-09_20-41-45_260595134347_rgbf000116-resize_4/000483_2014-06-09_20-41-45_260595134347_rgbf000116-resize_4-target.png,1000,1.337,3,6140,1002,meters,jsons/v1_VE1000_randls_76_rotated.json,2138883,3022117,1999,Woman
31,688771,DepthScenes,duration_manipulation_targetAtFixation,jsons/v1_VE1000_randls_76_rotated.json,http://54.235.29.9/FacialAge/BNav_EC2/DepthDuration/v2_depth_duration_MTurk/v2_DepthDuration_HTML.html#217,217,1024,625,1024,768,9-3-2022,6-9-22,32,depth_duration_stimuli/000469_2014-06-09_19-42-10_260595134347_rgbf000081-resize_1/000469_2014-06-09_19-42-10_260595134347_rgbf000081-resize_1-target.png,1000,1.652,5,7497,1000,meters,jsons/v1_VE1000_randls_76_rotated.json,2138883,3022117,1999,Woman
32,688771,DepthScenes,duration_manipulation_targetAtFixation,jsons/v1_VE1000_randls_76_rotated.json,http://54.235.29.9/FacialAge/BNav_EC2/DepthDuration/v2_depth_duration_MTurk/v2_DepthDuration_HTML.html#217,217,1024,625,1024,768,9-3-2022,6-9-22,33,depth_duration_stimuli/002545_2014-06-24_13-38-53_094959634447_rgbf000080-resize_4/002545_2014-06-24_13-38-53_094959634447_rgbf000080-resize_4-target.png,1000,1.9205,4,9940,1000,meters,jsons/v1_VE1000_randls_76_rotated.json,2138883,3022117,1999,Woman
33,688771,DepthScenes,duration_manipulation_targetAtFixation,jsons/v1_VE1000_randls_76_rotated.json,http://54.235.29.9/FacialAge/BNav_EC2/DepthDuration/v2_depth_duration_MTurk/v2_DepthDuration_HTML.html#217,217,1024,625,1024,768,9-3-2022,6-9-22,34,depth_duration_stimuli/001092_2014-06-15_17-34-58_260595134347_rgbf000171-resize_3/001092_2014-06-15_17-34-58_260595134347_rgbf000171-resize_3-target.png,1000,2.6935,5,11817,960,meters,jsons/v1_VE1000_randls_76_rotated.json,2138883,3022117,1999,Woman
34,688771,DepthScenes,duration_manipulation_targetAtFixation,jsons/v1_VE1000_randls_76_rotated.json,http://54.235.29.9/FacialAge/BNav_EC2/DepthDuration/v2_depth_duration_MTurk/v2_DepthDuration_HTML.html#217,217,1024,625,1024,768,9-3-2022,6-9-22,35,depth_duration_stimuli/000635_2014-06-08_16-38-42_260595134347_rgbf000106-resize_1/000635_2014-06-08_16-38-42_260595134347_rgbf000106-resize_1-target.png,1000,2.074,5,19618,1000,meters,jsons/v1_VE1000_randls_76_rotated.json,2138883,3022117,1999,Woman
35,688771,DepthScenes,duration_manipulation_targetAtFixation,jsons/v1_VE1000_randls_76_rotated.json,http://54.235.29.9/FacialAge/BNav_EC2/DepthDuration/v2_depth_duration_MTurk/v2_DepthDuration_HTML.html#217,217,1024,625,1024,768,9-3-2022,6-9-22,36,depth_duration_stimuli/002279_2014-06-28_18-55-32_260595134347_rgbf000040-resize_5/002279_2014-06-28_18-55-32_260595134347_rgbf000040-resize_5-target.png,1000,1.5043333333333,5,7628,1001,meters,jsons/v1_VE1000_randls_76_rotated.json,2138883,3022117,1999,Woman
36,688771,DepthScenes,duration_manipulation_targetAtFixation,jsons/v1_VE1000_randls_76_rotated.json,http://54.235.29.9/FacialAge/BNav_EC2/DepthDuration/v2_depth_duration_MTurk/v2_DepthDuration_HTML.html#217,217,1024,625,1024,768,9-3-2022,6-9-22,37,depth_duration_stimuli/000191_2014-05-12_17-07-38_260595134347_rgbf000199-resize_0/000191_2014-05-12_17-07-38_260595134347_rgbf000199-resize_0-target.png,1000,3.7995,6,15052,1001,meters,jsons/v1_VE1000_randls_76_rotated.json,2138883,3022117,1999,Woman
37,688771,DepthScenes,duration_manipulation_targetAtFixation,jsons/v1_VE1000_randls_76_rotated.json,http://54.235.29.9/FacialAge/BNav_EC2/DepthDuration/v2_depth_duration_MTurk/v2_DepthDuration_HTML.html#217,217,1024,625,1024,768,9-3-2022,6-9-22,38,depth_duration_stimuli/000493_2014-06-09_21-01-18_260595134347_rgbf000196-resize_3/000493_2014-06-09_21-01-18_260595134347_rgbf000196-resize_3-target.png,1000,3.44,6,7179,1000,meters,jsons/v1_VE1000_randls_76_rotated.json,2138883,3022117,1999,Woman
38,688771,DepthScenes,duration_manipulation_targetAtFixation,jsons/v1_VE1000_randls_76_rotated.json,http://54.235.29.9/FacialAge/BNav_EC2/DepthDuration/v2_depth_duration_MTurk/v2_DepthDuration_HTML.html#217,217,1024,625,1024,768,9-3-2022,6-9-22,39,depth_duration_stimuli/003490_2014-05-21_15-50-11_094959634447_rgbf000101-resize_3/003490_2014-05-21_15-50-11_094959634447_rgbf000101-resize_3-target.png,1000,3.6445,5,15860,1000,meters,jsons/v1_VE1000_randls_76_rotated.json,2138883,3022117,1999,Woman
39,688771,DepthScenes,duration_manipulation_targetAtFixation,jsons/v1_VE1000_randls_76_rotated.json,http://54.235.29.9/FacialAge/BNav_EC2/DepthDuration/v2_depth_duration_MTurk/v2_DepthDuration_HTML.html#217,217,1024,625,1024,768,9-3-2022,6-9-22,40,depth_duration_stimuli/001175_2014-06-17_15-45-55_260595134347_rgbf000129-resize_4/001175_2014-06-17_15-45-55_260595134347_rgbf000129-resize_4-target.png,1000,4.255,7,5938,999,meters,jsons/v1_VE1000_randls_76_rotated.json,2138883,3022117,1999,Woman
40,688771,DepthScenes,duration_manipulation_targetAtFixation,jsons/v1_VE1000_randls_76_rotated.json,http://54.235.29.9/FacialAge/BNav_EC2/DepthDuration/v2_depth_duration_MTurk/v2_DepthDuration_HTML.html#217,217,1024,625,1024,768,9-3-2022,6-9-22,41,depth_duration_stimuli/003010_2014-06-15_12-54-35_094959634447_rgbf000112-resize_0/003010_2014-06-15_12-54-35_094959634447_rgbf000112-resize_0-target.png,1000,3.1185,7,13575,995,meters,jsons/v1_VE1000_randls_76_rotated.json,2138883,3022117,1999,Woman
41,688771,DepthScenes,duration_manipulation_targetAtFixation,jsons/v1_VE1000_randls_76_rotated.json,http://54.235.29.9/FacialAge/BNav_EC2/DepthDuration/v2_depth_duration_MTurk/v2_DepthDuration_HTML.html#217,217,1024,625,1024,768,9-3-2022,6-9-22,42,depth_duration_stimuli/001810_2014-06-26_20-51-35_260595134347_rgbf000040-resize_3/001810_2014-06-26_20-51-35_260595134347_rgbf000040-resize_3-target.png,1000,2.2525,7,8230,999,meters,jsons/v1_VE1000_randls_76_rotated.json,2138883,3022117,1999,Woman
42,688771,DepthScenes,duration_manipulation_targetAtFixation,jsons/v1_VE1000_randls_76_rotated.json,http://54.235.29.9/FacialAge/BNav_EC2/DepthDuration/v2_depth_duration_MTurk/v2_DepthDuration_HTML.html#217,217,1024,625,1024,768,9-3-2022,6-9-22,43,depth_duration_stimuli/001815_2014-06-26_20-52-55_260595134347_rgbf000020-resize_0/001815_2014-06-26_20-52-55_260595134347_rgbf000020-resize_0-target.png,1000,3.3865,6,7624,1000,meters,jsons/v1_VE1000_randls_76_rotated.json,2138883,3022117,1999,Woman
43,688771,DepthScenes,duration_manipulation_targetAtFixation,jsons/v1_VE1000_randls_76_rotated.json,http://54.235.29.9/FacialAge/BNav_EC2/DepthDuration/v2_depth_duration_MTurk/v2_DepthDuration_HTML.html#217,217,1024,625,1024,768,9-3-2022,6-9-22,44,depth_duration_stimuli/001808_2014-06-26_20-50-58_260595134347_rgbf000029-resize_1/001808_2014-06-26_20-50-58_260595134347_rgbf000029-resize_1-target.png,1000,4.249,6,6551,1000,meters,jsons/v1_VE1000_randls_76_rotated.json,2138883,3022117,1999,Woman
44,688771,DepthScenes,duration_manipulation_targetAtFixation,jsons/v1_VE1000_randls_76_rotated.json,http://54.235.29.9/FacialAge/BNav_EC2/DepthDuration/v2_depth_duration_MTurk/v2_DepthDuration_HTML.html#217,217,1024,625,1024,768,9-3-2022,6-9-22,45,depth_duration_stimuli/000780_2014-06-08_22-28-29_260595134347_rgbf000126-resize_1/000780_2014-06-08_22-28-29_260595134347_rgbf000126-resize_1-target.png,1000,3.3825,6,19990,999,meters,jsons/v1_VE1000_randls_76_rotated.json,2138883,3022117,1999,Woman
45,688771,DepthScenes,duration_manipulation_targetAtFixation,jsons/v1_VE1000_randls_76_rotated.json,http://54.235.29.9/FacialAge/BNav_EC2/DepthDuration/v2_depth_duration_MTurk/v2_DepthDuration_HTML.html#217,217,1024,625,1024,768,9-3-2022,6-9-22,46,depth_duration_stimuli/002445_2014-06-28_20-32-16_260595134347_rgbf000029-resize_4/002445_2014-06-28_20-32-16_260595134347_rgbf000029-resize_4-target.png,1000,2.5315,6,8903,1000,meters,jsons/v1_VE1000_randls_76_rotated.json,2138883,3022117,1999,Woman
46,688771,DepthScenes,duration_manipulation_targetAtFixation,jsons/v1_VE1000_randls_76_rotated.json,http://54.235.29.9/FacialAge/BNav_EC2/DepthDuration/v2_depth_duration_MTurk/v2_DepthDuration_HTML.html#217,217,1024,625,1024,768,9-3-2022,6-9-22,47,depth_duration_stimuli/001617_2014-06-20_11-35-32_260595134347_rgbf000066-resize_1/001617_2014-06-20_11-35-32_260595134347_rgbf000066-resize_1-target.png,1000,3.7910000000000004,6,14734,1001,meters,jsons/v1_VE1000_randls_76_rotated.json,2138883,3022117,1999,Woman
47,688771,DepthScenes,duration_manipulation_targetAtFixation,jsons/v1_VE1000_randls_76_rotated.json,http://54.235.29.9/FacialAge/BNav_EC2/DepthDuration/v2_depth_duration_MTurk/v2_DepthDuration_HTML.html#217,217,1024,625,1024,768,9-3-2022,6-9-22,48,depth_duration_stimuli/001806_2014-06-26_20-50-20_260595134347_rgbf000091-resize_1/001806_2014-06-26_20-50-20_260595134347_rgbf000091-resize_1-target.png,1000,2.7305,9,6418,999,meters,jsons/v1_VE1000_randls_76_rotated.json,2138883,3022117,1999,Woman
48,688771,DepthScenes,duration_manipulation_targetAtFixation,jsons/v1_VE1000_randls_76_rotated.json,http://54.235.29.9/FacialAge/BNav_EC2/DepthDuration/v2_depth_duration_MTurk/v2_DepthDuration_HTML.html#217,217,1024,625,1024,768,9-3-2022,6-9-22,49,depth_duration_stimuli/001170_2014-06-17_15-43-44_260595134347_rgbf000096-resize_6/001170_2014-06-17_15-43-44_260595134347_rgbf000096-resize-original.jpg,1000,1.1909999999999998,0,14372,1009,meters,jsons/v1_VE1000_randls_76_rotated.json,2138883,3022117,1999,Woman
49,688771,DepthScenes,duration_manipulation_targetAtFixation,jsons/v1_VE1000_randls_76_rotated.json,http://54.235.29.9/FacialAge/BNav_EC2/DepthDuration/v2_depth_duration_MTurk/v2_DepthDuration_HTML.html#217,217,1024,625,1024,768,9-3-2022,6-9-22,50,depth_duration_stimuli/000927_2014-06-09_16-32-30_260595134347_rgbf000123-resize_3/000927_2014-06-09_16-32-30_260595134347_rgbf000123-resize_3-target.png,1000,2.6785,3,14578,999,meters,jsons/v1_VE1000_randls_76_rotated.json,2138883,3022117,1999,Woman
50,688771,DepthScenes,duration_manipulation_targetAtFixation,jsons/v1_VE1000_randls_76_rotated.json,http://54.235.29.9/FacialAge/BNav_EC2/DepthDuration/v2_depth_duration_MTurk/v2_DepthDuration_HTML.html#217,217,1024,625,1024,768,9-3-2022,6-9-22,51,depth_duration_stimuli/001110_2014-06-15_17-25-28_260595134347_rgbf000150-resize_1/001110_2014-06-15_17-25-28_260595134347_rgbf000150-resize_1-target.png,1000,1.7115,3,10299,1000,meters,jsons/v1_VE1000_randls_76_rotated.json,2138883,3022117,1999,Woman
51,688771,DepthScenes,duration_manipulation_targetAtFixation,jsons/v1_VE1000_randls_76_rotated.json,http://54.235.29.9/FacialAge/BNav_EC2/DepthDuration/v2_depth_duration_MTurk/v2_DepthDuration_HTML.html#217,217,1024,625,1024,768,9-3-2022,6-9-22,52,depth_duration_stimuli/002758_2014-06-22_19-11-20_094959634447_rgbf000128-resize_1/002758_2014-06-22_19-11-20_094959634447_rgbf000128-resize_1-target.png,1000,2.555,5,10426,1000,meters,jsons/v1_VE1000_randls_76_rotated.json,2138883,3022117,1999,Woman
52,688771,DepthScenes,duration_manipulation_targetAtFixation,jsons/v1_VE1000_randls_76_rotated.json,http://54.235.29.9/FacialAge/BNav_EC2/DepthDuration/v2_depth_duration_MTurk/v2_DepthDuration_HTML.html#217,217,1024,625,1024,768,9-3-2022,6-9-22,53,depth_duration_stimuli/002630_2014-06-24_14-47-50_094959634447_rgbf000055-resize_1/002630_2014-06-24_14-47-50_094959634447_rgbf000055-resize_1-target.png,1000,3.0095,6,13787,1000,meters,jsons/v1_VE1000_randls_76_rotated.json,2138883,3022117,1999,Woman
53,688771,DepthScenes,duration_manipulation_targetAtFixation,jsons/v1_VE1000_randls_76_rotated.json,http://54.235.29.9/FacialAge/BNav_EC2/DepthDuration/v2_depth_duration_MTurk/v2_DepthDuration_HTML.html#217,217,1024,625,1024,768,9-3-2022,6-9-22,54,depth_duration_stimuli/002875_2014-06-01_15-19-00_094959634447_rgbf000151-resize_1/002875_2014-06-01_15-19-00_094959634447_rgbf000151-resize_1-target.png,1000,1.9675,5,13811,1001,meters,jsons/v1_VE1000_randls_76_rotated.json,2138883,3022117,1999,Woman
54,688771,DepthScenes,duration_manipulation_targetAtFixation,jsons/v1_VE1000_randls_76_rotated.json,http://54.235.29.9/FacialAge/BNav_EC2/DepthDuration/v2_depth_duration_MTurk/v2_DepthDuration_HTML.html#217,217,1024,625,1024,768,9-3-2022,6-9-22,55,depth_duration_stimuli/001011_2014-06-08_23-18-54_260595134347_rgbf000044-resize_4/001011_2014-06-08_23-18-54_260595134347_rgbf000044-resize_4-target.png,1000,2.4730000000000003,6,12427,1001,meters,jsons/v1_VE1000_randls_76_rotated.json,2138883,3022117,1999,Woman
55,688771,DepthScenes,duration_manipulation_targetAtFixation,jsons/v1_VE1000_randls_76_rotated.json,http://54.235.29.9/FacialAge/BNav_EC2/DepthDuration/v2_depth_duration_MTurk/v2_DepthDuration_HTML.html#217,217,1024,625,1024,768,9-3-2022,6-9-22,56,depth_duration_stimuli/000691_2014-06-08_13-08-50_260595134347_rgbf000132-resize_3/000691_2014-06-08_13-08-50_260595134347_rgbf000132-resize_3-target.png,1000,4.1530000000000005,7,13645,1001,meters,jsons/v1_VE1000_randls_76_rotated.json,2138883,3022117,1999,Woman
56,688771,DepthScenes,duration_manipulation_targetAtFixation,jsons/v1_VE1000_randls_76_rotated.json,http://54.235.29.9/FacialAge/BNav_EC2/DepthDuration/v2_depth_duration_MTurk/v2_DepthDuration_HTML.html#217,217,1024,625,1024,768,9-3-2022,6-9-22,57,depth_duration_stimuli/002213_2014-06-28_18-37-58_260595134347_rgbf000055-resize_1/002213_2014-06-28_18-37-58_260595134347_rgbf000055-resize_1-target.png,1000,3.62,7,8898,1006,meters,jsons/v1_VE1000_randls_76_rotated.json,2138883,3022117,1999,Woman
57,688771,DepthScenes,duration_manipulation_targetAtFixation,jsons/v1_VE1000_randls_76_rotated.json,http://54.235.29.9/FacialAge/BNav_EC2/DepthDuration/v2_depth_duration_MTurk/v2_DepthDuration_HTML.html#217,217,1024,625,1024,768,9-3-2022,6-9-22,58,depth_duration_stimuli/002805_2014-06-22_19-54-03_094959634447_rgbf000079-resize_1/002805_2014-06-22_19-54-03_094959634447_rgbf000079-resize_1-target.png,1000,3.1439999999999997,5,12340,1000,meters,jsons/v1_VE1000_randls_76_rotated.json,2138883,3022117,1999,Woman
58,688771,DepthScenes,duration_manipulation_targetAtFixation,jsons/v1_VE1000_randls_76_rotated.json,http://54.235.29.9/FacialAge/BNav_EC2/DepthDuration/v2_depth_duration_MTurk/v2_DepthDuration_HTML.html#217,217,1024,625,1024,768,9-3-2022,6-9-22,59,depth_duration_stimuli/000906_2014-06-08_13-35-43_260595134347_rgbf000155-resize_1/000906_2014-06-08_13-35-43_260595134347_rgbf000155-resize_1-target.png,1000,2.8489999999999998,6,5346,999,meters,jsons/v1_VE1000_randls_76_rotated.json,2138883,3022117,1999,Woman
59,688771,DepthScenes,duration_manipulation_targetAtFixation,jsons/v1_VE1000_randls_76_rotated.json,http://54.235.29.9/FacialAge/BNav_EC2/DepthDuration/v2_depth_duration_MTurk/v2_DepthDuration_HTML.html#217,217,1024,625,1024,768,9-3-2022,6-9-22,60,depth_duration_stimuli/001032_2014-06-08_13-23-17_260595134347_rgbf000021-resize_3/001032_2014-06-08_13-23-17_260595134347_rgbf000021-resize_3-target.png,1000,3.2725,7,12369,999,meters,jsons/v1_VE1000_randls_76_rotated.json,2138883,3022117,1999,Woman
60,688771,DepthScenes,duration_manipulation_targetAtFixation,jsons/v1_VE1000_randls_76_rotated.json,http://54.235.29.9/FacialAge/BNav_EC2/DepthDuration/v2_depth_duration_MTurk/v2_DepthDuration_HTML.html#217,217,1024,625,1024,768,9-3-2022,6-9-22,61,depth_duration_stimuli/001059_2014-06-08_21-53-27_260595134347_rgbf000061-resize_4/001059_2014-06-08_21-53-27_260595134347_rgbf000061-resize_4-target.png,1000,2.4185,6,8939,1001,meters,jsons/v1_VE1000_randls_76_rotated.json,2138883,3022117,1999,Woman
61,688771,DepthScenes,duration_manipulation_targetAtFixation,jsons/v1_VE1000_randls_76_rotated.json,http://54.235.29.9/FacialAge/BNav_EC2/DepthDuration/v2_depth_duration_MTurk/v2_DepthDuration_HTML.html#217,217,1024,625,1024,768,9-3-2022,6-9-22,62,depth_duration_stimuli/002639_2014-06-24_14-51-37_094959634447_rgbf000074-resize_4/002639_2014-06-24_14-51-37_094959634447_rgbf000074-resize_4-target.png,1000,4.0375,5,19558,998,meters,jsons/v1_VE1000_randls_76_rotated.json,2138883,3022117,1999,Woman
62,688771,DepthScenes,duration_manipulation_targetAtFixation,jsons/v1_VE1000_randls_76_rotated.json,http://54.235.29.9/FacialAge/BNav_EC2/DepthDuration/v2_depth_duration_MTurk/v2_DepthDuration_HTML.html#217,217,1024,625,1024,768,9-3-2022,6-9-22,63,depth_duration_stimuli/003292_2014-05-14_21-53-49_094959634447_rgbf000100-resize_2/003292_2014-05-14_21-53-49_094959634447_rgbf000100-resize_2-target.png,1000,3.4815,6,8719,999,meters,jsons/v1_VE1000_randls_76_rotated.json,2138883,3022117,1999,Woman
63,688771,DepthScenes,duration_manipulation_targetAtFixation,jsons/v1_VE1000_randls_76_rotated.json,http://54.235.29.9/FacialAge/BNav_EC2/DepthDuration/v2_depth_duration_MTurk/v2_DepthDuration_HTML.html#217,217,1024,625,1024,768,9-3-2022,6-9-22,64,depth_duration_stimuli/000103_2014-05-14_22-01-17_260595134347_rgbf000152-resize_5/000103_2014-05-14_22-01-17_260595134347_rgbf000152-resize_5-target.png,1000,1.993,5,16377,999,meters,jsons/v1_VE1000_randls_76_rotated.json,2138883,3022117,1999,Woman
64,688771,DepthScenes,duration_manipulation_targetAtFixation,jsons/v1_VE1000_randls_76_rotated.json,http://54.235.29.9/FacialAge/BNav_EC2/DepthDuration/v2_depth_duration_MTurk/v2_DepthDuration_HTML.html#217,217,1024,625,1024,768,9-3-2022,6-9-22,65,depth_duration_stimuli/001555_2014-06-20_17-12-10_260595134347_rgbf000065-resize_4/001555_2014-06-20_17-12-10_260595134347_rgbf000065-resize_4-target.png,1000,1.633,6,9658,998,meters,jsons/v1_VE1000_randls_76_rotated.json,2138883,3022117,1999,Woman
65,688771,DepthScenes,duration_manipulation_targetAtFixation,jsons/v1_VE1000_randls_76_rotated.json,http://54.235.29.9/FacialAge/BNav_EC2/DepthDuration/v2_depth_duration_MTurk/v2_DepthDuration_HTML.html#217,217,1024,625,1024,768,9-3-2022,6-9-22,66,depth_duration_stimuli/001540_2014-06-20_17-01-05_260595134347_rgbf000086-resize_2/001540_2014-06-20_17-01-05_260595134347_rgbf000086-resize-original.jpg,1000,1.459,0,19589,1001,meters,jsons/v1_VE1000_randls_76_rotated.json,2138883,3022117,1999,Woman
66,688771,DepthScenes,duration_manipulation_targetAtFixation,jsons/v1_VE1000_randls_76_rotated.json,http://54.235.29.9/FacialAge/BNav_EC2/DepthDuration/v2_depth_duration_MTurk/v2_DepthDuration_HTML.html#217,217,1024,625,1024,768,9-3-2022,6-9-22,67,depth_duration_stimuli/000709_2014-06-08_13-51-55_260595134347_rgbf000068-resize_3/000709_2014-06-08_13-51-55_260595134347_rgbf000068-resize_3-target.png,1000,1.8030000000000002,5,17210,1001,meters,jsons/v1_VE1000_randls_76_rotated.json,2138883,3022117,1999,Woman
67,688771,DepthScenes,duration_manipulation_targetAtFixation,jsons/v1_VE1000_randls_76_rotated.json,http://54.235.29.9/FacialAge/BNav_EC2/DepthDuration/v2_depth_duration_MTurk/v2_DepthDuration_HTML.html#217,217,1024,625,1024,768,9-3-2022,6-9-22,68,depth_duration_stimuli/002057_2014-06-24_21-00-13_260595134347_rgbf000120-resize_1/002057_2014-06-24_21-00-13_260595134347_rgbf000120-resize_1-target.png,1000,2.967,4,9139,999,meters,jsons/v1_VE1000_randls_76_rotated.json,2138883,3022117,1999,Woman
68,688771,DepthScenes,duration_manipulation_targetAtFixation,jsons/v1_VE1000_randls_76_rotated.json,http://54.235.29.9/FacialAge/BNav_EC2/DepthDuration/v2_depth_duration_MTurk/v2_DepthDuration_HTML.html#217,217,1024,625,1024,768,9-3-2022,6-9-22,69,depth_duration_stimuli/001136_2014-06-17_15-19-41_260595134347_rgbf000076-resize_3/001136_2014-06-17_15-19-41_260595134347_rgbf000076-resize_3-target.png,1000,1.8655,6,14867,1000,meters,jsons/v1_VE1000_randls_76_rotated.json,2138883,3022117,1999,Woman
69,688771,DepthScenes,duration_manipulation_targetAtFixation,jsons/v1_VE1000_randls_76_rotated.json,http://54.235.29.9/FacialAge/BNav_EC2/DepthDuration/v2_depth_duration_MTurk/v2_DepthDuration_HTML.html#217,217,1024,625,1024,768,9-3-2022,6-9-22,70,depth_duration_stimuli/001164_2014-06-17_15-35-46_260595134347_rgbf000085-resize_3/001164_2014-06-17_15-35-46_260595134347_rgbf000085-resize_3-target.png,1000,2.354,5,11459,999,meters,jsons/v1_VE1000_randls_76_rotated.json,2138883,3022117,1999,Woman
70,688771,DepthScenes,duration_manipulation_targetAtFixation,jsons/v1_VE1000_randls_76_rotated.json,http://54.235.29.9/FacialAge/BNav_EC2/DepthDuration/v2_depth_duration_MTurk/v2_DepthDuration_HTML.html#217,217,1024,625,1024,768,9-3-2022,6-9-22,71,depth_duration_stimuli/002637_2014-06-24_14-51-13_094959634447_rgbf000066-resize_4/002637_2014-06-24_14-51-13_094959634447_rgbf000066-resize_4-target.png,1000,1.9955,6,6050,998,meters,jsons/v1_VE1000_randls_76_rotated.json,2138883,3022117,1999,Woman
71,688771,DepthScenes,duration_manipulation_targetAtFixation,jsons/v1_VE1000_randls_76_rotated.json,http://54.235.29.9/FacialAge/BNav_EC2/DepthDuration/v2_depth_duration_MTurk/v2_DepthDuration_HTML.html#217,217,1024,625,1024,768,9-3-2022,6-9-22,72,depth_duration_stimuli/003534_2014-05-22_15-06-10_094959634447_rgbf000102-resize_4/003534_2014-05-22_15-06-10_094959634447_rgbf000102-resize_4-target.png,1000,1.426,9,10429,1000,meters,jsons/v1_VE1000_randls_76_rotated.json,2138883,3022117,1999,Woman
72,688771,DepthScenes,duration_manipulation_targetAtFixation,jsons/v1_VE1000_randls_76_rotated.json,http://54.235.29.9/FacialAge/BNav_EC2/DepthDuration/v2_depth_duration_MTurk/v2_DepthDuration_HTML.html#217,217,1024,625,1024,768,9-3-2022,6-9-22,73,depth_duration_stimuli/002136_2014-06-25_21-18-03_260595134347_rgbf000109-resize_3/002136_2014-06-25_21-18-03_260595134347_rgbf000109-resize_3-target.png,1000,1.9569999999999999,6,14918,989,meters,jsons/v1_VE1000_randls_76_rotated.json,2138883,3022117,1999,Woman
73,688771,DepthScenes,duration_manipulation_targetAtFixation,jsons/v1_VE1000_randls_76_rotated.json,http://54.235.29.9/FacialAge/BNav_EC2/DepthDuration/v2_depth_duration_MTurk/v2_DepthDuration_HTML.html#217,217,1024,625,1024,768,9-3-2022,6-9-22,74,depth_duration_stimuli/002964_2014-06-08_17-46-11_094959634447_rgbf000091-resize_4/002964_2014-06-08_17-46-11_094959634447_rgbf000091-resize_4-target.png,1000,1.6909999999999998,6,7461,999,meters,jsons/v1_VE1000_randls_76_rotated.json,2138883,3022117,1999,Woman
74,688771,DepthScenes,duration_manipulation_targetAtFixation,jsons/v1_VE1000_randls_76_rotated.json,http://54.235.29.9/FacialAge/BNav_EC2/DepthDuration/v2_depth_duration_MTurk/v2_DepthDuration_HTML.html#217,217,1024,625,1024,768,9-3-2022,6-9-22,75,depth_duration_stimuli/000854_2014-06-09_19-43-13_260595134347_rgbf000066-resize_0/000854_2014-06-09_19-43-13_260595134347_rgbf000066-resize_0-target.png,1000,3.068,7,13258,999,meters,jsons/v1_VE1000_randls_76_rotated.json,2138883,3022117,1999,Woman
75,688771,DepthScenes,duration_manipulation_targetAtFixation,jsons/v1_VE1000_randls_76_rotated.json,http://54.235.29.9/FacialAge/BNav_EC2/DepthDuration/v2_depth_duration_MTurk/v2_DepthDuration_HTML.html#217,217,1024,625,1024,768,9-3-2022,6-9-22,76,depth_duration_stimuli/000758_2014-06-08_22-05-08_260595134347_rgbf000085-resize_0/000758_2014-06-08_22-05-08_260595134347_rgbf000085-resize_0-target.png,1000,3.3810000000000002,7,10538,1001,meters,jsons/v1_VE1000_randls_76_rotated.json,2138883,3022117,1999,Woman
76,688771,DepthScenes,duration_manipulation_targetAtFixation,jsons/v1_VE1000_randls_76_rotated.json,http://54.235.29.9/FacialAge/BNav_EC2/DepthDuration/v2_depth_duration_MTurk/v2_DepthDuration_HTML.html#217,217,1024,625,1024,768,9-3-2022,6-9-22,77,depth_duration_stimuli/003081_2014-06-15_15-19-16_094959634447_rgbf000150-resize_1/003081_2014-06-15_15-19-16_094959634447_rgbf000150-resize_1-target.png,1000,3.9125,7,16988,999,meters,jsons/v1_VE1000_randls_76_rotated.json,2138883,3022117,1999,Woman
77,688771,DepthScenes,duration_manipulation_targetAtFixation,jsons/v1_VE1000_randls_76_rotated.json,http://54.235.29.9/FacialAge/BNav_EC2/DepthDuration/v2_depth_duration_MTurk/v2_DepthDuration_HTML.html#217,217,1024,625,1024,768,9-3-2022,6-9-22,78,depth_duration_stimuli/001417_2014-06-19_16-25-36_260595134347_rgbf000115-resize_5/001417_2014-06-19_16-25-36_260595134347_rgbf000115-resize_5-target.png,1000,4.6255,6,12288,989,meters,jsons/v1_VE1000_randls_76_rotated.json,2138883,3022117,1999,Woman
78,688771,DepthScenes,duration_manipulation_targetAtFixation,jsons/v1_VE1000_randls_76_rotated.json,http://54.235.29.9/FacialAge/BNav_EC2/DepthDuration/v2_depth_duration_MTurk/v2_DepthDuration_HTML.html#217,217,1024,625,1024,768,9-3-2022,6-9-22,79,depth_duration_stimuli/001094_2014-06-15_17-36-00_260595134347_rgbf000205-resize_0/001094_2014-06-15_17-36-00_260595134347_rgbf000205-resize_0-target.png,1000,4.2175,6,15691,1001,meters,jsons/v1_VE1000_randls_76_rotated.json,2138883,3022117,1999,Woman
79,688771,DepthScenes,duration_manipulation_targetAtFixation,jsons/v1_VE1000_randls_76_rotated.json,http://54.235.29.9/FacialAge/BNav_EC2/DepthDuration/v2_depth_duration_MTurk/v2_DepthDuration_HTML.html#217,217,1024,625,1024,768,9-3-2022,6-9-22,80,depth_duration_stimuli/000692_2014-06-08_13-09-42_260595134347_rgbf000199-resize_2/000692_2014-06-08_13-09-42_260595134347_rgbf000199-resize_2-target.png,1000,3.661,5,10107,1001,meters,jsons/v1_VE1000_randls_76_rotated.json,2138883,3022117,1999,Woman
80,688771,DepthScenes,duration_manipulation_targetAtFixation,jsons/v1_VE1000_randls_76_rotated.json,http://54.235.29.9/FacialAge/BNav_EC2/DepthDuration/v2_depth_duration_MTurk/v2_DepthDuration_HTML.html#217,217,1024,625,1024,768,9-3-2022,6-9-22,81,depth_duration_stimuli/001516_2014-06-20_16-25-09_260595134347_rgbf000076-resize_2/001516_2014-06-20_16-25-09_260595134347_rgbf000076-resize_2-target.png,1000,1.7445,5,10931,998,meters,jsons/v1_VE1000_randls_76_rotated.json,2138883,3022117,1999,Woman
81,688771,DepthScenes,duration_manipulation_targetAtFixation,jsons/v1_VE1000_randls_76_rotated.json,http://54.235.29.9/FacialAge/BNav_EC2/DepthDuration/v2_depth_duration_MTurk/v2_DepthDuration_HTML.html#217,217,1024,625,1024,768,9-3-2022,6-9-22,82,depth_duration_stimuli/002118_2014-06-25_20-32-08_260595134347_rgbf000078-resize_1/002118_2014-06-25_20-32-08_260595134347_rgbf000078-resize_1-target.png,1000,2.6460000000000004,6,8418,1000,meters,jsons/v1_VE1000_randls_76_rotated.json,2138883,3022117,1999,Woman
82,688771,DepthScenes,duration_manipulation_targetAtFixation,jsons/v1_VE1000_randls_76_rotated.json,http://54.235.29.9/FacialAge/BNav_EC2/DepthDuration/v2_depth_duration_MTurk/v2_DepthDuration_HTML.html#217,217,1024,625,1024,768,9-3-2022,6-9-22,83,depth_duration_stimuli/001392_2014-06-19_16-07-59_260595134347_rgbf000046-resize_1/001392_2014-06-19_16-07-59_260595134347_rgbf000046-resize_1-target.png,1000,4.135,6,17578,1000,meters,jsons/v1_VE1000_randls_76_rotated.json,2138883,3022117,1999,Woman
83,688771,DepthScenes,duration_manipulation_targetAtFixation,jsons/v1_VE1000_randls_76_rotated.json,http://54.235.29.9/FacialAge/BNav_EC2/DepthDuration/v2_depth_duration_MTurk/v2_DepthDuration_HTML.html#217,217,1024,625,1024,768,9-3-2022,6-9-22,84,depth_duration_stimuli/001570_2014-06-20_17-21-09_260595134347_rgbf000135-resize_4/001570_2014-06-20_17-21-09_260595134347_rgbf000135-resize_4-target.png,1000,4.467,5,7619,1000,meters,jsons/v1_VE1000_randls_76_rotated.json,2138883,3022117,1999,Woman
84,688771,DepthScenes,duration_manipulation_targetAtFixation,jsons/v1_VE1000_randls_76_rotated.json,http://54.235.29.9/FacialAge/BNav_EC2/DepthDuration/v2_depth_duration_MTurk/v2_DepthDuration_HTML.html#217,217,1024,625,1024,768,9-3-2022,6-9-22,85,depth_duration_stimuli/001828_2014-06-26_21-40-03_260595134347_rgbf000024-resize_0/001828_2014-06-26_21-40-03_260595134347_rgbf000024-resize_0-target.png,1000,4.8260000000000005,4,8349,1001,meters,jsons/v1_VE1000_randls_76_rotated.json,2138883,3022117,1999,Woman
85,688771,DepthScenes,duration_manipulation_targetAtFixation,jsons/v1_VE1000_randls_76_rotated.json,http://54.235.29.9/FacialAge/BNav_EC2/DepthDuration/v2_depth_duration_MTurk/v2_DepthDuration_HTML.html#217,217,1024,625,1024,768,9-3-2022,6-9-22,86,depth_duration_stimuli/000009_2014-05-26_14-32-05_260595134347_rgbf000034-resize_3/000009_2014-05-26_14-32-05_260595134347_rgbf000034-resize_3-target.png,1000,3.8715,6,13367,988,meters,jsons/v1_VE1000_randls_76_rotated.json,2138883,3022117,1999,Woman
86,688771,DepthScenes,duration_manipulation_targetAtFixation,jsons/v1_VE1000_randls_76_rotated.json,http://54.235.29.9/FacialAge/BNav_EC2/DepthDuration/v2_depth_duration_MTurk/v2_DepthDuration_HTML.html#217,217,1024,625,1024,768,9-3-2022,6-9-22,87,depth_duration_stimuli/002340_2014-06-28_20-05-46_260595134347_rgbf000113-resize_0/002340_2014-06-28_20-05-46_260595134347_rgbf000113-resize_0-target.png,1000,2.4735,6,19252,998,meters,jsons/v1_VE1000_randls_76_rotated.json,2138883,3022117,1999,Woman
87,688771,DepthScenes,duration_manipulation_targetAtFixation,jsons/v1_VE1000_randls_76_rotated.json,http://54.235.29.9/FacialAge/BNav_EC2/DepthDuration/v2_depth_duration_MTurk/v2_DepthDuration_HTML.html#217,217,1024,625,1024,768,9-3-2022,6-9-22,88,depth_duration_stimuli/001016_2014-06-09_16-16-10_260595134347_rgbf000112-resize_5/001016_2014-06-09_16-16-10_260595134347_rgbf000112-resize_5-target.png,1000,1.6565,5,13626,1000,meters,jsons/v1_VE1000_randls_76_rotated.json,2138883,3022117,1999,Woman
88,688771,DepthScenes,duration_manipulation_targetAtFixation,jsons/v1_VE1000_randls_76_rotated.json,http://54.235.29.9/FacialAge/BNav_EC2/DepthDuration/v2_depth_duration_MTurk/v2_DepthDuration_HTML.html#217,217,1024,625,1024,768,9-3-2022,6-9-22,89,depth_duration_stimuli/002660_2014-06-13_15-44-18_094959634447_rgbf001878-resize_2/002660_2014-06-13_15-44-18_094959634447_rgbf001878-resize_2-target.png,1000,3.576,6,13349,1000,meters,jsons/v1_VE1000_randls_76_rotated.json,2138883,3022117,1999,Woman
89,688771,DepthScenes,duration_manipulation_targetAtFixation,jsons/v1_VE1000_randls_76_rotated.json,http://54.235.29.9/FacialAge/BNav_EC2/DepthDuration/v2_depth_duration_MTurk/v2_DepthDuration_HTML.html#217,217,1024,625,1024,768,9-3-2022,6-9-22,90,depth_duration_stimuli/002153_2014-06-25_21-27-18_260595134347_rgbf000038-resize_5/002153_2014-06-25_21-27-18_260595134347_rgbf000038-resize_5-target.png,1000,2.505,5,8762,1000,meters,jsons/v1_VE1000_randls_76_rotated.json,2138883,3022117,1999,Woman
90,688771,DepthScenes,duration_manipulation_targetAtFixation,jsons/v1_VE1000_randls_76_rotated.json,http://54.235.29.9/FacialAge/BNav_EC2/DepthDuration/v2_depth_duration_MTurk/v2_DepthDuration_HTML.html#217,217,1024,625,1024,768,9-3-2022,6-9-22,91,depth_duration_stimuli/000409_2014-06-04_19-23-33_260595134347_rgbf000067-resize_0/000409_2014-06-04_19-23-33_260595134347_rgbf000067-resize_0-target.png,1000,3.7335,7,13621,1002,meters,jsons/v1_VE1000_randls_76_rotated.json,2138883,3022117,1999,Woman
91,688771,DepthScenes,duration_manipulation_targetAtFixation,jsons/v1_VE1000_randls_76_rotated.json,http://54.235.29.9/FacialAge/BNav_EC2/DepthDuration/v2_depth_duration_MTurk/v2_DepthDuration_HTML.html#217,217,1024,625,1024,768,9-3-2022,6-9-22,92,depth_duration_stimuli/002663_2014-06-13_15-50-26_094959634447_rgbf000075-resize_1/002663_2014-06-13_15-50-26_094959634447_rgbf000075-resize_1-target.png,1000,4.7495,5,13978,1001,meters,jsons/v1_VE1000_randls_76_rotated.json,2138883,3022117,1999,Woman
92,688771,DepthScenes,duration_manipulation_targetAtFixation,jsons/v1_VE1000_randls_76_rotated.json,http://54.235.29.9/FacialAge/BNav_EC2/DepthDuration/v2_depth_duration_MTurk/v2_DepthDuration_HTML.html#217,217,1024,625,1024,768,9-3-2022,6-9-22,93,depth_duration_stimuli/002657_2014-06-13_15-29-54_094959634447_rgbf000150-resize_1/002657_2014-06-13_15-29-54_094959634447_rgbf000150-resize_1-target.png,1000,4.919,6,17499,999,meters,jsons/v1_VE1000_randls_76_rotated.json,2138883,3022117,1999,Woman
93,688771,DepthScenes,duration_manipulation_targetAtFixation,jsons/v1_VE1000_randls_76_rotated.json,http://54.235.29.9/FacialAge/BNav_EC2/DepthDuration/v2_depth_duration_MTurk/v2_DepthDuration_HTML.html#217,217,1024,625,1024,768,9-3-2022,6-9-22,94,depth_duration_stimuli/002375_2014-06-28_20-13-44_260595134347_rgbf000032-resize_1/002375_2014-06-28_20-13-44_260595134347_rgbf000032-resize_1-target.png,1000,4.0175,7,10456,998,meters,jsons/v1_VE1000_randls_76_rotated.json,2138883,3022117,1999,Woman
94,688771,DepthScenes,duration_manipulation_targetAtFixation,jsons/v1_VE1000_randls_76_rotated.json,http://54.235.29.9/FacialAge/BNav_EC2/DepthDuration/v2_depth_duration_MTurk/v2_DepthDuration_HTML.html#217,217,1024,625,1024,768,9-3-2022,6-9-22,95,depth_duration_stimuli/002103_2014-06-25_20-00-40_260595134347_rgbf000049-resize_0/002103_2014-06-25_20-00-40_260595134347_rgbf000049-resize_0-target.png,1000,4.105,5,16075,1000,meters,jsons/v1_VE1000_randls_76_rotated.json,2138883,3022117,1999,Woman
95,688771,DepthScenes,duration_manipulation_targetAtFixation,jsons/v1_VE1000_randls_76_rotated.json,http://54.235.29.9/FacialAge/BNav_EC2/DepthDuration/v2_depth_duration_MTurk/v2_DepthDuration_HTML.html#217,217,1024,625,1024,768,9-3-2022,6-9-22,96,depth_duration_stimuli/002039_2014-06-24_20-22-38_260595134347_rgbf000084-resize_1/002039_2014-06-24_20-22-38_260595134347_rgbf000084-resize_1-target.png,1000,4.408,5,13353,998,meters,jsons/v1_VE1000_randls_76_rotated.json,2138883,3022117,1999,Woman
96,688771,DepthScenes,duration_manipulation_targetAtFixation,jsons/v1_VE1000_randls_76_rotated.json,http://54.235.29.9/FacialAge/BNav_EC2/DepthDuration/v2_depth_duration_MTurk/v2_DepthDuration_HTML.html#217,217,1024,625,1024,768,9-3-2022,6-9-22,97,depth_duration_stimuli/001214_2014-06-17_16-13-55_260595134347_rgbf000111-resize_0/001214_2014-06-17_16-13-55_260595134347_rgbf000111-resize_0-target.png,1000,2.6505,7,11429,1001,meters,jsons/v1_VE1000_randls_76_rotated.json,2138883,3022117,1999,Woman
97,688771,DepthScenes,duration_manipulation_targetAtFixation,jsons/v1_VE1000_randls_76_rotated.json,http://54.235.29.9/FacialAge/BNav_EC2/DepthDuration/v2_depth_duration_MTurk/v2_DepthDuration_HTML.html#217,217,1024,625,1024,768,9-3-2022,6-9-22,98,depth_duration_stimuli/000810_2014-06-08_17-20-01_260595134347_rgbf000105-resize_0/000810_2014-06-08_17-20-01_260595134347_rgbf000105-resize_0-target.png,1000,1.4865,6,6618,1001,meters,jsons/v1_VE1000_randls_76_rotated.json,2138883,3022117,1999,Woman
98,688771,DepthScenes,duration_manipulation_targetAtFixation,jsons/v1_VE1000_randls_76_rotated.json,http://54.235.29.9/FacialAge/BNav_EC2/DepthDuration/v2_depth_duration_MTurk/v2_DepthDuration_HTML.html#217,217,1024,625,1024,768,9-3-2022,6-9-22,99,depth_duration_stimuli/001222_2014-06-17_16-24-06_260595134347_rgbf000073-resize_0/001222_2014-06-17_16-24-06_260595134347_rgbf000073-resize-original.jpg,1000,1.4385,0,11629,1001,meters,jsons/v1_VE1000_randls_76_rotated.json,2138883,3022117,1999,Woman
99,688771,DepthScenes,duration_manipulation_targetAtFixation,jsons/v1_VE1000_randls_76_rotated.json,http://54.235.29.9/FacialAge/BNav_EC2/DepthDuration/v2_depth_duration_MTurk/v2_DepthDuration_HTML.html#217,217,1024,625,1024,768,9-3-2022,6-9-22,100,depth_duration_stimuli/000549_2014-06-08_22-10-24_260595134347_rgbf000247-resize_3/000549_2014-06-08_22-10-24_260595134347_rgbf000247-resize_3-target.png,1000,1.841,7,10250,1000,meters,jsons/v1_VE1000_randls_76_rotated.json,2138883,3022117,1999,Woman
100,688771,DepthScenes,duration_manipulation_targetAtFixation,jsons/v1_VE1000_randls_76_rotated.json,http://54.235.29.9/FacialAge/BNav_EC2/DepthDuration/v2_depth_duration_MTurk/v2_DepthDuration_HTML.html#217,217,1024,625,1024,768,9-3-2022,6-9-22,101,depth_duration_stimuli/001055_2014-06-08_18-45-35_260595134347_rgbf000111-resize_4/001055_2014-06-08_18-45-35_260595134347_rgbf000111-resize_4-target.png,1000,2.4290000000000003,6,9185,999,meters,jsons/v1_VE1000_randls_76_rotated.json,2138883,3022117,1999,Woman
101,688771,DepthScenes,duration_manipulation_targetAtFixation,jsons/v1_VE1000_randls_76_rotated.json,http://54.235.29.9/FacialAge/BNav_EC2/DepthDuration/v2_depth_duration_MTurk/v2_DepthDuration_HTML.html#217,217,1024,625,1024,768,9-3-2022,6-9-22,102,depth_duration_stimuli/001584_2014-06-20_11-07-43_260595134347_rgbf000002-resize_1/001584_2014-06-20_11-07-43_260595134347_rgbf000002-resize_1-target.png,1000,3.53,6,13091,1001,meters,jsons/v1_VE1000_randls_76_rotated.json,2138883,3022117,1999,Woman
102,688771,DepthScenes,duration_manipulation_targetAtFixation,jsons/v1_VE1000_randls_76_rotated.json,http://54.235.29.9/FacialAge/BNav_EC2/DepthDuration/v2_depth_duration_MTurk/v2_DepthDuration_HTML.html#217,217,1024,625,1024,768,9-3-2022,6-9-22,103,depth_duration_stimuli/003621_2014-05-23_18-06-08_094959634447_rgbf000101-resize_1/003621_2014-05-23_18-06-08_094959634447_rgbf000101-resize_1-target.png,1000,3.9835,5,9749,1000,meters,jsons/v1_VE1000_randls_76_rotated.json,2138883,3022117,1999,Woman
103,688771,DepthScenes,duration_manipulation_targetAtFixation,jsons/v1_VE1000_randls_76_rotated.json,http://54.235.29.9/FacialAge/BNav_EC2/DepthDuration/v2_depth_duration_MTurk/v2_DepthDuration_HTML.html#217,217,1024,625,1024,768,9-3-2022,6-9-22,104,depth_duration_stimuli/002444_2014-06-28_20-32-08_260595134347_rgbf000027-resize_0/002444_2014-06-28_20-32-08_260595134347_rgbf000027-resize_0-target.png,1000,4.388999999999999,6,6928,996,meters,jsons/v1_VE1000_randls_76_rotated.json,2138883,3022117,1999,Woman
104,688771,DepthScenes,duration_manipulation_targetAtFixation,jsons/v1_VE1000_randls_76_rotated.json,http://54.235.29.9/FacialAge/BNav_EC2/DepthDuration/v2_depth_duration_MTurk/v2_DepthDuration_HTML.html#217,217,1024,625,1024,768,9-3-2022,6-9-22,105,depth_duration_stimuli/000436_2014-06-09_22-25-11_260595134347_rgbf000137-resize_1/000436_2014-06-09_22-25-11_260595134347_rgbf000137-resize_1-target.png,1000,4.0705,6,17137,999,meters,jsons/v1_VE1000_randls_76_rotated.json,2138883,3022117,1999,Woman
105,688771,DepthScenes,duration_manipulation_targetAtFixation,jsons/v1_VE1000_randls_76_rotated.json,http://54.235.29.9/FacialAge/BNav_EC2/DepthDuration/v2_depth_duration_MTurk/v2_DepthDuration_HTML.html#217,217,1024,625,1024,768,9-3-2022,6-9-22,106,depth_duration_stimuli/003338_2014-05-20_11-01-23_094959634447_rgbf000051-resize_6/003338_2014-05-20_11-01-23_094959634447_rgbf000051-resize_6-target.png,1000,1.693,9,15667,1000,meters,jsons/v1_VE1000_randls_76_rotated.json,2138883,3022117,1999,Woman
106,688771,DepthScenes,duration_manipulation_targetAtFixation,jsons/v1_VE1000_randls_76_rotated.json,http://54.235.29.9/FacialAge/BNav_EC2/DepthDuration/v2_depth_duration_MTurk/v2_DepthDuration_HTML.html#217,217,1024,625,1024,768,9-3-2022,6-9-22,107,depth_duration_stimuli/002509_2014-06-24_13-19-22_094959634447_rgbf000077-resize_0/002509_2014-06-24_13-19-22_094959634447_rgbf000077-resize_0-target.png,1000,1.3065,6,11132,1000,meters,jsons/v1_VE1000_randls_76_rotated.json,2138883,3022117,1999,Woman
107,688771,DepthScenes,duration_manipulation_targetAtFixation,jsons/v1_VE1000_randls_76_rotated.json,http://54.235.29.9/FacialAge/BNav_EC2/DepthDuration/v2_depth_duration_MTurk/v2_DepthDuration_HTML.html#217,217,1024,625,1024,768,9-3-2022,6-9-22,108,depth_duration_stimuli/002949_2014-06-26_15-57-42_094959634447_rgbf000079-resize_1/002949_2014-06-26_15-57-42_094959634447_rgbf000079-resize_1-target.png,1000,1.8915,7,16146,998,meters,jsons/v1_VE1000_randls_76_rotated.json,2138883,3022117,1999,Woman
108,688771,DepthScenes,duration_manipulation_targetAtFixation,jsons/v1_VE1000_randls_76_rotated.json,http://54.235.29.9/FacialAge/BNav_EC2/DepthDuration/v2_depth_duration_MTurk/v2_DepthDuration_HTML.html#217,217,1024,625,1024,768,9-3-2022,6-9-22,109,depth_duration_stimuli/000522_2014-06-08_13-35-06_260595134347_rgbf000244-resize_1/000522_2014-06-08_13-35-06_260595134347_rgbf000244-resize_1-target.png,1000,2.3715,7,7132,999,meters,jsons/v1_VE1000_randls_76_rotated.json,2138883,3022117,1999,Woman
109,688771,DepthScenes,duration_manipulation_targetAtFixation,jsons/v1_VE1000_randls_76_rotated.json,http://54.235.29.9/FacialAge/BNav_EC2/DepthDuration/v2_depth_duration_MTurk/v2_DepthDuration_HTML.html#217,217,1024,625,1024,768,9-3-2022,6-9-22,110,depth_duration_stimuli/001052_2014-06-08_18-24-54_260595134347_rgbf000130-resize_1/001052_2014-06-08_18-24-54_260595134347_rgbf000130-resize_1-target.png,1000,4.1045,5,14363,999,meters,jsons/v1_VE1000_randls_76_rotated.json,2138883,3022117,1999,Woman
110,688771,DepthScenes,duration_manipulation_targetAtFixation,jsons/v1_VE1000_randls_76_rotated.json,http://54.235.29.9/FacialAge/BNav_EC2/DepthDuration/v2_depth_duration_MTurk/v2_DepthDuration_HTML.html#217,217,1024,625,1024,768,9-3-2022,6-9-22,111,depth_duration_stimuli/002988_2014-06-15_12-24-20_094959634447_rgbf000150-resize_1/002988_2014-06-15_12-24-20_094959634447_rgbf000150-resize_1-target.png,1000,4.7669999999999995,3,5209,1001,meters,jsons/v1_VE1000_randls_76_rotated.json,2138883,3022117,1999,Woman
111,688771,DepthScenes,duration_manipulation_targetAtFixation,jsons/v1_VE1000_randls_76_rotated.json,http://54.235.29.9/FacialAge/BNav_EC2/DepthDuration/v2_depth_duration_MTurk/v2_DepthDuration_HTML.html#217,217,1024,625,1024,768,9-3-2022,6-9-22,112,depth_duration_stimuli/000109_2014-05-14_23-41-52_260595134347_rgbf000035-resize_9/000109_2014-05-14_23-41-52_260595134347_rgbf000035-resize_9-target.png,1000,1.3545,7,11038,1000,meters,jsons/v1_VE1000_randls_76_rotated.json,2138883,3022117,1999,Woman
112,688771,DepthScenes,duration_manipulation_targetAtFixation,jsons/v1_VE1000_randls_76_rotated.json,http://54.235.29.9/FacialAge/BNav_EC2/DepthDuration/v2_depth_duration_MTurk/v2_DepthDuration_HTML.html#217,217,1024,625,1024,768,9-3-2022,6-9-22,113,depth_duration_stimuli/000470_2014-06-09_19-42-40_260595134347_rgbf000094-resize_1/000470_2014-06-09_19-42-40_260595134347_rgbf000094-resize_1-target.png,1000,1.831,6,6288,998,meters,jsons/v1_VE1000_randls_76_rotated.json,2138883,3022117,1999,Woman
113,688771,DepthScenes,duration_manipulation_targetAtFixation,jsons/v1_VE1000_randls_76_rotated.json,http://54.235.29.9/FacialAge/BNav_EC2/DepthDuration/v2_depth_duration_MTurk/v2_DepthDuration_HTML.html#217,217,1024,625,1024,768,9-3-2022,6-9-22,114,depth_duration_stimuli/002209_2014-06-28_18-36-10_260595134347_rgbf000051-resize_1/002209_2014-06-28_18-36-10_260595134347_rgbf000051-resize_1-target.png,1000,2.057,6,8854,999,meters,jsons/v1_VE1000_randls_76_rotated.json,2138883,3022117,1999,Woman
114,688771,DepthScenes,duration_manipulation_targetAtFixation,jsons/v1_VE1000_randls_76_rotated.json,http://54.235.29.9/FacialAge/BNav_EC2/DepthDuration/v2_depth_duration_MTurk/v2_DepthDuration_HTML.html#217,217,1024,625,1024,768,9-3-2022,6-9-22,115,depth_duration_stimuli/002763_2014-06-22_19-13-10_094959634447_rgbf000075-resize_4/002763_2014-06-22_19-13-10_094959634447_rgbf000075-resize_4-target.png,1000,1.68375,6,8413,999,meters,jsons/v1_VE1000_randls_76_rotated.json,2138883,3022117,1999,Woman
115,688771,DepthScenes,duration_manipulation_targetAtFixation,jsons/v1_VE1000_randls_76_rotated.json,http://54.235.29.9/FacialAge/BNav_EC2/DepthDuration/v2_depth_duration_MTurk/v2_DepthDuration_HTML.html#217,217,1024,625,1024,768,9-3-2022,6-9-22,116,depth_duration_stimuli/001650_2014-06-20_12-09-00_260595134347_rgbf000087-resize_3/001650_2014-06-20_12-09-00_260595134347_rgbf000087-resize_3-target.png,1000,1.9505,8,7489,998,meters,jsons/v1_VE1000_randls_76_rotated.json,2138883,3022117,1999,Woman
116,688771,DepthScenes,duration_manipulation_targetAtFixation,jsons/v1_VE1000_randls_76_rotated.json,http://54.235.29.9/FacialAge/BNav_EC2/DepthDuration/v2_depth_duration_MTurk/v2_DepthDuration_HTML.html#217,217,1024,625,1024,768,9-3-2022,6-9-22,117,depth_duration_stimuli/000682_2014-06-08_23-14-58_260595134347_rgbf000041-resize_5/000682_2014-06-08_23-14-58_260595134347_rgbf000041-resize_5-target.png,1000,2.7239999999999998,5,9858,999,meters,jsons/v1_VE1000_randls_76_rotated.json,2138883,3022117,1999,Woman
117,688771,DepthScenes,duration_manipulation_targetAtFixation,jsons/v1_VE1000_randls_76_rotated.json,http://54.235.29.9/FacialAge/BNav_EC2/DepthDuration/v2_depth_duration_MTurk/v2_DepthDuration_HTML.html#217,217,1024,625,1024,768,9-3-2022,6-9-22,118,depth_duration_stimuli/002425_2014-06-28_20-27-29_260595134347_rgbf000031-resize_8/002425_2014-06-28_20-27-29_260595134347_rgbf000031-resize_8-target.png,1000,3.8960000000000004,4,15436,1014,meters,jsons/v1_VE1000_randls_76_rotated.json,2138883,3022117,1999,Woman
118,688771,DepthScenes,duration_manipulation_targetAtFixation,jsons/v1_VE1000_randls_76_rotated.json,http://54.235.29.9/FacialAge/BNav_EC2/DepthDuration/v2_depth_duration_MTurk/v2_DepthDuration_HTML.html#217,217,1024,625,1024,768,9-3-2022,6-9-22,119,depth_duration_stimuli/000642_2014-06-08_16-59-25_260595134347_rgbf000098-resize_2/000642_2014-06-08_16-59-25_260595134347_rgbf000098-resize_2-target.png,1000,2.8815,6,6542,1001,meters,jsons/v1_VE1000_randls_76_rotated.json,2138883,3022117,1999,Woman
119,688771,DepthScenes,duration_manipulation_targetAtFixation,jsons/v1_VE1000_randls_76_rotated.json,http://54.235.29.9/FacialAge/BNav_EC2/DepthDuration/v2_depth_duration_MTurk/v2_DepthDuration_HTML.html#217,217,1024,625,1024,768,9-3-2022,6-9-22,120,depth_duration_stimuli/000787_2014-06-08_22-33-53_260595134347_rgbf000175-resize_1/000787_2014-06-08_22-33-53_260595134347_rgbf000175-resize-original.jpg,1000,4.784,0,10033,1000,meters,jsons/v1_VE1000_randls_76_rotated.json,2138883,3022117,1999,Woman
120,688771,DepthScenes,duration_manipulation_targetAtFixation,jsons/v1_VE1000_randls_76_rotated.json,http://54.235.29.9/FacialAge/BNav_EC2/DepthDuration/v2_depth_duration_MTurk/v2_DepthDuration_HTML.html#217,217,1024,625,1024,768,9-3-2022,6-9-22,121,depth_duration_stimuli/002199_2014-06-28_18-33-56_260595134347_rgbf000074-resize_0/002199_2014-06-28_18-33-56_260595134347_rgbf000074-resize_0-target.png,1000,1.996,6,15201,999,meters,jsons/v1_VE1000_randls_76_rotated.json,2138883,3022117,1999,Woman
121,688771,DepthScenes,duration_manipulation_targetAtFixation,jsons/v1_VE1000_randls_76_rotated.json,http://54.235.29.9/FacialAge/BNav_EC2/DepthDuration/v2_depth_duration_MTurk/v2_DepthDuration_HTML.html#217,217,1024,625,1024,768,9-3-2022,6-9-22,122,depth_duration_stimuli/001056_2014-06-08_18-46-44_260595134347_rgbf000068-resize_0/001056_2014-06-08_18-46-44_260595134347_rgbf000068-resize_0-target.png,1000,2.6625,5,11694,999,meters,jsons/v1_VE1000_randls_76_rotated.json,2138883,3022117,1999,Woman
122,688771,DepthScenes,duration_manipulation_targetAtFixation,jsons/v1_VE1000_randls_76_rotated.json,http://54.235.29.9/FacialAge/BNav_EC2/DepthDuration/v2_depth_duration_MTurk/v2_DepthDuration_HTML.html#217,217,1024,625,1024,768,9-3-2022,6-9-22,123,depth_duration_stimuli/001571_2014-06-20_17-21-32_260595134347_rgbf000089-resize_1/001571_2014-06-20_17-21-32_260595134347_rgbf000089-resize_1-target.png,1000,1.86,6,18099,1000,meters,jsons/v1_VE1000_randls_76_rotated.json,2138883,3022117,1999,Woman
123,688771,DepthScenes,duration_manipulation_targetAtFixation,jsons/v1_VE1000_randls_76_rotated.json,http://54.235.29.9/FacialAge/BNav_EC2/DepthDuration/v2_depth_duration_MTurk/v2_DepthDuration_HTML.html#217,217,1024,625,1024,768,9-3-2022,6-9-22,124,depth_duration_stimuli/002272_2014-06-28_18-53-56_260595134347_rgbf000067-resize_2/002272_2014-06-28_18-53-56_260595134347_rgbf000067-resize_2-target.png,1000,1.138,7,10161,1002,meters,jsons/v1_VE1000_randls_76_rotated.json,2138883,3022117,1999,Woman
124,688771,DepthScenes,duration_manipulation_targetAtFixation,jsons/v1_VE1000_randls_76_rotated.json,http://54.235.29.9/FacialAge/BNav_EC2/DepthDuration/v2_depth_duration_MTurk/v2_DepthDuration_HTML.html#217,217,1024,625,1024,768,9-3-2022,6-9-22,125,depth_duration_stimuli/001447_2014-06-19_17-00-32_260595134347_rgbf000082-resize_5/001447_2014-06-19_17-00-32_260595134347_rgbf000082-resize_5-target.png,1000,4.13775,5,13049,1000,meters,jsons/v1_VE1000_randls_76_rotated.json,2138883,3022117,1999,Woman
125,688771,DepthScenes,duration_manipulation_targetAtFixation,jsons/v1_VE1000_randls_76_rotated.json,http://54.235.29.9/FacialAge/BNav_EC2/DepthDuration/v2_depth_duration_MTurk/v2_DepthDuration_HTML.html#217,217,1024,625,1024,768,9-3-2022,6-9-22,126,depth_duration_stimuli/000447_2014-06-08_16-15-46_260595134347_rgbf000130-resize_1/000447_2014-06-08_16-15-46_260595134347_rgbf000130-resize_1-target.png,1000,4.479,5,12788,1000,meters,jsons/v1_VE1000_randls_76_rotated.json,2138883,3022117,1999,Woman
126,688771,DepthScenes,duration_manipulation_targetAtFixation,jsons/v1_VE1000_randls_76_rotated.json,http://54.235.29.9/FacialAge/BNav_EC2/DepthDuration/v2_depth_duration_MTurk/v2_DepthDuration_HTML.html#217,217,1024,625,1024,768,9-3-2022,6-9-22,127,depth_duration_stimuli/002414_2014-06-28_20-24-58_260595134347_rgbf000067-resize_4/002414_2014-06-28_20-24-58_260595134347_rgbf000067-resize_4-target.png,1000,4.363,6,14469,999,meters,jsons/v1_VE1000_randls_76_rotated.json,2138883,3022117,1999,Woman
127,688771,DepthScenes,duration_manipulation_targetAtFixation,jsons/v1_VE1000_randls_76_rotated.json,http://54.235.29.9/FacialAge/BNav_EC2/DepthDuration/v2_depth_duration_MTurk/v2_DepthDuration_HTML.html#217,217,1024,625,1024,768,9-3-2022,6-9-22,128,depth_duration_stimuli/000773_2014-06-08_22-24-54_260595134347_rgbf000093-resize_1/000773_2014-06-08_22-24-54_260595134347_rgbf000093-resize_1-target.png,1000,4.973,5,5952,1000,meters,jsons/v1_VE1000_randls_76_rotated.json,2138883,3022117,1999,Woman
128,688771,DepthScenes,duration_manipulation_targetAtFixation,jsons/v1_VE1000_randls_76_rotated.json,http://54.235.29.9/FacialAge/BNav_EC2/DepthDuration/v2_depth_duration_MTurk/v2_DepthDuration_HTML.html#217,217,1024,625,1024,768,9-3-2022,6-9-22,129,depth_duration_stimuli/003587_2014-05-23_16-48-02_094959634447_rgbf002384-resize_2/003587_2014-05-23_16-48-02_094959634447_rgbf002384-resize_2-target.png,1000,1.357,6,11576,1000,meters,jsons/v1_VE1000_randls_76_rotated.json,2138883,3022117,1999,Woman
129,688771,DepthScenes,duration_manipulation_targetAtFixation,jsons/v1_VE1000_randls_76_rotated.json,http://54.235.29.9/FacialAge/BNav_EC2/DepthDuration/v2_depth_duration_MTurk/v2_DepthDuration_HTML.html#217,217,1024,625,1024,768,9-3-2022,6-9-22,130,depth_duration_stimuli/001167_2014-06-17_15-38-07_260595134347_rgbf000108-resize_0/001167_2014-06-17_15-38-07_260595134347_rgbf000108-resize_0-target.png,1000,1.8505,6,9258,998,meters,jsons/v1_VE1000_randls_76_rotated.json,2138883,3022117,1999,Woman
130,688771,DepthScenes,duration_manipulation_targetAtFixation,jsons/v1_VE1000_randls_76_rotated.json,http://54.235.29.9/FacialAge/BNav_EC2/DepthDuration/v2_depth_duration_MTurk/v2_DepthDuration_HTML.html#217,217,1024,625,1024,768,9-3-2022,6-9-22,131,depth_duration_stimuli/003083_2014-06-15_15-21-03_094959634447_rgbf000063-resize_1/003083_2014-06-15_15-21-03_094959634447_rgbf000063-resize_1-target.png,1000,4.1405,3,12144,1000,meters,jsons/v1_VE1000_randls_76_rotated.json,2138883,3022117,1999,Woman
131,688771,DepthScenes,duration_manipulation_targetAtFixation,jsons/v1_VE1000_randls_76_rotated.json,http://54.235.29.9/FacialAge/BNav_EC2/DepthDuration/v2_depth_duration_MTurk/v2_DepthDuration_HTML.html#217,217,1024,625,1024,768,9-3-2022,6-9-22,132,depth_duration_stimuli/000486_2014-06-09_20-47-20_260595134347_rgbf000143-resize_2/000486_2014-06-09_20-47-20_260595134347_rgbf000143-resize_2-target.png,1000,4.8325,7,8194,999,meters,jsons/v1_VE1000_randls_76_rotated.json,2138883,3022117,1999,Woman
132,688771,DepthScenes,duration_manipulation_targetAtFixation,jsons/v1_VE1000_randls_76_rotated.json,http://54.235.29.9/FacialAge/BNav_EC2/DepthDuration/v2_depth_duration_MTurk/v2_DepthDuration_HTML.html#217,217,1024,625,1024,768,9-3-2022,6-9-22,133,depth_duration_stimuli/000502_2014-06-08_23-02-32_260595134347_rgbf000063-resize_4/000502_2014-06-08_23-02-32_260595134347_rgbf000063-resize_4-target.png,1000,2.431,6,230089,1001,meters,jsons/v1_VE1000_randls_76_rotated.json,2138883,3022117,1999,Woman
133,688771,DepthScenes,duration_manipulation_targetAtFixation,jsons/v1_VE1000_randls_76_rotated.json,http://54.235.29.9/FacialAge/BNav_EC2/DepthDuration/v2_depth_duration_MTurk/v2_DepthDuration_HTML.html#217,217,1024,625,1024,768,9-3-2022,6-9-22,134,depth_duration_stimuli/001199_2014-06-17_16-03-48_260595134347_rgbf000077-resize_0/001199_2014-06-17_16-03-48_260595134347_rgbf000077-resize_0-target.png,1000,3.4375,5,10445,998,meters,jsons/v1_VE1000_randls_76_rotated.json,2138883,3022117,1999,Woman
134,688771,DepthScenes,duration_manipulation_targetAtFixation,jsons/v1_VE1000_randls_76_rotated.json,http://54.235.29.9/FacialAge/BNav_EC2/DepthDuration/v2_depth_duration_MTurk/v2_DepthDuration_HTML.html#217,217,1024,625,1024,768,9-3-2022,6-9-22,135,depth_duration_stimuli/000375_2014-06-08_11-17-29_260595134347_rgbf000133-resize_2/000375_2014-06-08_11-17-29_260595134347_rgbf000133-resize-original.jpg,1000,4.718,0,5639,1001,meters,jsons/v1_VE1000_randls_76_rotated.json,2138883,3022117,1999,Woman
135,688771,DepthScenes,duration_manipulation_targetAtFixation,jsons/v1_VE1000_randls_76_rotated.json,http://54.235.29.9/FacialAge/BNav_EC2/DepthDuration/v2_depth_duration_MTurk/v2_DepthDuration_HTML.html#217,217,1024,625,1024,768,9-3-2022,6-9-22,136,depth_duration_stimuli/003228_2014-05-14_13-42-35_094959634447_rgbf000101-resize_1/003228_2014-05-14_13-42-35_094959634447_rgbf000101-resize_1-target.png,1000,1.9680000000000002,6,8026,1001,meters,jsons/v1_VE1000_randls_76_rotated.json,2138883,3022117,1999,Woman
136,688771,DepthScenes,duration_manipulation_targetAtFixation,jsons/v1_VE1000_randls_76_rotated.json,http://54.235.29.9/FacialAge/BNav_EC2/DepthDuration/v2_depth_duration_MTurk/v2_DepthDuration_HTML.html#217,217,1024,625,1024,768,9-3-2022,6-9-22,137,depth_duration_stimuli/002600_2014-06-24_14-27-04_094959634447_rgbf000074-resize_2/002600_2014-06-24_14-27-04_094959634447_rgbf000074-resize_2-target.png,1000,2.7575,7,12880,1014,meters,jsons/v1_VE1000_randls_76_rotated.json,2138883,3022117,1999,Woman
137,688771,DepthScenes,duration_manipulation_targetAtFixation,jsons/v1_VE1000_randls_76_rotated.json,http://54.235.29.9/FacialAge/BNav_EC2/DepthDuration/v2_depth_duration_MTurk/v2_DepthDuration_HTML.html#217,217,1024,625,1024,768,9-3-2022,6-9-22,138,depth_duration_stimuli/000457_2014-06-08_16-52-43_260595134347_rgbf000199-resize_1/000457_2014-06-08_16-52-43_260595134347_rgbf000199-resize_1-target.png,1000,3.6489999999999996,6,16309,1000,meters,jsons/v1_VE1000_randls_76_rotated.json,2138883,3022117,1999,Woman
138,688771,DepthScenes,duration_manipulation_targetAtFixation,jsons/v1_VE1000_randls_76_rotated.json,http://54.235.29.9/FacialAge/BNav_EC2/DepthDuration/v2_depth_duration_MTurk/v2_DepthDuration_HTML.html#217,217,1024,625,1024,768,9-3-2022,6-9-22,139,depth_duration_stimuli/000929_2014-06-09_16-33-19_260595134347_rgbf000139-resize_0/000929_2014-06-09_16-33-19_260595134347_rgbf000139-resize_0-target.png,1000,2.8680000000000003,6,15044,999,meters,jsons/v1_VE1000_randls_76_rotated.json,2138883,3022117,1999,Woman
139,688771,DepthScenes,duration_manipulation_targetAtFixation,jsons/v1_VE1000_randls_76_rotated.json,http://54.235.29.9/FacialAge/BNav_EC2/DepthDuration/v2_depth_duration_MTurk/v2_DepthDuration_HTML.html#217,217,1024,625,1024,768,9-3-2022,6-9-22,140,depth_duration_stimuli/000943_2014-06-09_19-31-07_260595134347_rgbf000128-resize_1/000943_2014-06-09_19-31-07_260595134347_rgbf000128-resize_1-target.png,1000,1.9765,6,10833,1000,meters,jsons/v1_VE1000_randls_76_rotated.json,2138883,3022117,1999,Woman
140,688771,DepthScenes,duration_manipulation_targetAtFixation,jsons/v1_VE1000_randls_76_rotated.json,http://54.235.29.9/FacialAge/BNav_EC2/DepthDuration/v2_depth_duration_MTurk/v2_DepthDuration_HTML.html#217,217,1024,625,1024,768,9-3-2022,6-9-22,141,depth_duration_stimuli/003070_2014-06-15_14-58-27_094959634447_rgbf000150-resize_3/003070_2014-06-15_14-58-27_094959634447_rgbf000150-resize_3-target.png,1000,2.9415,6,7929,1001,meters,jsons/v1_VE1000_randls_76_rotated.json,2138883,3022117,1999,Woman
141,688771,DepthScenes,duration_manipulation_targetAtFixation,jsons/v1_VE1000_randls_76_rotated.json,http://54.235.29.9/FacialAge/BNav_EC2/DepthDuration/v2_depth_duration_MTurk/v2_DepthDuration_HTML.html#217,217,1024,625,1024,768,9-3-2022,6-9-22,142,depth_duration_stimuli/002750_2014-06-22_19-08-03_094959634447_rgbf000094-resize_4/002750_2014-06-22_19-08-03_094959634447_rgbf000094-resize_4-target.png,1000,2.354,7,9232,1000,meters,jsons/v1_VE1000_randls_76_rotated.json,2138883,3022117,1999,Woman
142,688771,DepthScenes,duration_manipulation_targetAtFixation,jsons/v1_VE1000_randls_76_rotated.json,http://54.235.29.9/FacialAge/BNav_EC2/DepthDuration/v2_depth_duration_MTurk/v2_DepthDuration_HTML.html#217,217,1024,625,1024,768,9-3-2022,6-9-22,143,depth_duration_stimuli/002549_2014-06-24_13-41-39_094959634447_rgbf000022-resize_3/002549_2014-06-24_13-41-39_094959634447_rgbf000022-resize_3-target.png,1000,1.476,6,5385,1000,meters,jsons/v1_VE1000_randls_76_rotated.json,2138883,3022117,1999,Woman
143,688771,DepthScenes,duration_manipulation_targetAtFixation,jsons/v1_VE1000_randls_76_rotated.json,http://54.235.29.9/FacialAge/BNav_EC2/DepthDuration/v2_depth_duration_MTurk/v2_DepthDuration_HTML.html#217,217,1024,625,1024,768,9-3-2022,6-9-22,144,depth_duration_stimuli/002678_2014-06-13_16-15-32_094959634447_rgbf000151-resize_6/002678_2014-06-13_16-15-32_094959634447_rgbf000151-resize_6-target.png,1000,2.1830000000000003,4,12185,1001,meters,jsons/v1_VE1000_randls_76_rotated.json,2138883,3022117,1999,Woman
144,688771,DepthScenes,duration_manipulation_targetAtFixation,jsons/v1_VE1000_randls_76_rotated.json,http://54.235.29.9/FacialAge/BNav_EC2/DepthDuration/v2_depth_duration_MTurk/v2_DepthDuration_HTML.html#217,217,1024,625,1024,768,9-3-2022,6-9-22,145,depth_duration_stimuli/000368_2014-06-09_15-53-01_260595134347_rgbf000155-resize_2/000368_2014-06-09_15-53-01_260595134347_rgbf000155-resize_2-target.png,1000,2.4859999999999998,8,7788,999,meters,jsons/v1_VE1000_randls_76_rotated.json,2138883,3022117,1999,Woman
145,688771,DepthScenes,duration_manipulation_targetAtFixation,jsons/v1_VE1000_randls_76_rotated.json,http://54.235.29.9/FacialAge/BNav_EC2/DepthDuration/v2_depth_duration_MTurk/v2_DepthDuration_HTML.html#217,217,1024,625,1024,768,9-3-2022,6-9-22,146,depth_duration_stimuli/000742_2014-06-08_18-48-09_260595134347_rgbf000164-resize_4/000742_2014-06-08_18-48-09_260595134347_rgbf000164-resize_4-target.png,1000,4.632,6,11724,999,meters,jsons/v1_VE1000_randls_76_rotated.json,2138883,3022117,1999,Woman
146,688771,DepthScenes,duration_manipulation_targetAtFixation,jsons/v1_VE1000_randls_76_rotated.json,http://54.235.29.9/FacialAge/BNav_EC2/DepthDuration/v2_depth_duration_MTurk/v2_DepthDuration_HTML.html#217,217,1024,625,1024,768,9-3-2022,6-9-22,147,depth_duration_stimuli/001066_2014-06-08_22-03-20_260595134347_rgbf000066-resize_4/001066_2014-06-08_22-03-20_260595134347_rgbf000066-resize_4-target.png,1000,4.2330000000000005,5,5514,1001,meters,jsons/v1_VE1000_randls_76_rotated.json,2138883,3022117,1999,Woman
147,688771,DepthScenes,duration_manipulation_targetAtFixation,jsons/v1_VE1000_randls_76_rotated.json,http://54.235.29.9/FacialAge/BNav_EC2/DepthDuration/v2_depth_duration_MTurk/v2_DepthDuration_HTML.html#217,217,1024,625,1024,768,9-3-2022,6-9-22,148,depth_duration_stimuli/003048_2014-06-15_13-49-43_094959634447_rgbf000150-resize_1/003048_2014-06-15_13-49-43_094959634447_rgbf000150-resize_1-target.png,1000,4.0035,3,4672,997,meters,jsons/v1_VE1000_randls_76_rotated.json,2138883,3022117,1999,Woman
148,688771,DepthScenes,duration_manipulation_targetAtFixation,jsons/v1_VE1000_randls_76_rotated.json,http://54.235.29.9/FacialAge/BNav_EC2/DepthDuration/v2_depth_duration_MTurk/v2_DepthDuration_HTML.html#217,217,1024,625,1024,768,9-3-2022,6-9-22,149,depth_duration_stimuli/002043_2014-06-24_20-29-38_260595134347_rgbf000039-resize_4/002043_2014-06-24_20-29-38_260595134347_rgbf000039-resize_4-target.png,1000,2.8435,6,5878,1000,meters,jsons/v1_VE1000_randls_76_rotated.json,2138883,3022117,1999,Woman
149,688771,DepthScenes,duration_manipulation_targetAtFixation,jsons/v1_VE1000_randls_76_rotated.json,http://54.235.29.9/FacialAge/BNav_EC2/DepthDuration/v2_depth_duration_MTurk/v2_DepthDuration_HTML.html#217,217,1024,625,1024,768,9-3-2022,6-9-22,150,depth_duration_stimuli/000677_2014-06-08_23-10-32_260595134347_rgbf000158-resize_6/000677_2014-06-08_23-10-32_260595134347_rgbf000158-resize_6-target.png,1000,3.556,5,6920,1001,meters,jsons/v1_VE1000_randls_76_rotated.json,2138883,3022117,1999,Woman
150,688771,DepthScenes,duration_manipulation_targetAtFixation,jsons/v1_VE1000_randls_76_rotated.json,http://54.235.29.9/FacialAge/BNav_EC2/DepthDuration/v2_depth_duration_MTurk/v2_DepthDuration_HTML.html#217,217,1024,625,1024,768,9-3-2022,6-9-22,151,depth_duration_stimuli/001029_2014-06-08_13-17-57_260595134347_rgbf000065-resize_1/001029_2014-06-08_13-17-57_260595134347_rgbf000065-resize_1-target.png,1000,3.0835,4,11754,1000,meters,jsons/v1_VE1000_randls_76_rotated.json,2138883,3022117,1999,Woman
151,688771,DepthScenes,duration_manipulation_targetAtFixation,jsons/v1_VE1000_randls_76_rotated.json,http://54.235.29.9/FacialAge/BNav_EC2/DepthDuration/v2_depth_duration_MTurk/v2_DepthDuration_HTML.html#217,217,1024,625,1024,768,9-3-2022,6-9-22,152,depth_duration_stimuli/000569_2014-06-09_22-51-47_260595134347_rgbf000141-resize_3/000569_2014-06-09_22-51-47_260595134347_rgbf000141-resize-original.jpg,1000,4.512,0,26469,1001,meters,jsons/v1_VE1000_randls_76_rotated.json,2138883,3022117,1999,Woman
152,688771,DepthScenes,duration_manipulation_targetAtFixation,jsons/v1_VE1000_randls_76_rotated.json,http://54.235.29.9/FacialAge/BNav_EC2/DepthDuration/v2_depth_duration_MTurk/v2_DepthDuration_HTML.html#217,217,1024,625,1024,768,9-3-2022,6-9-22,153,depth_duration_stimuli/002953_2014-06-08_17-32-18_094959634447_rgbf000059-resize_5/002953_2014-06-08_17-32-18_094959634447_rgbf000059-resize_5-target.png,1000,1.551,7,11144,1000,meters,jsons/v1_VE1000_randls_76_rotated.json,2138883,3022117,1999,Woman
153,688771,DepthScenes,duration_manipulation_targetAtFixation,jsons/v1_VE1000_randls_76_rotated.json,http://54.235.29.9/FacialAge/BNav_EC2/DepthDuration/v2_depth_duration_MTurk/v2_DepthDuration_HTML.html#217,217,1024,625,1024,768,9-3-2022,6-9-22,154,depth_duration_stimuli/000878_2014-06-08_22-52-45_260595134347_rgbf000045-resize_2/000878_2014-06-08_22-52-45_260595134347_rgbf000045-resize_2-target.png,1000,2.092,4,6039,1000,meters,jsons/v1_VE1000_randls_76_rotated.json,2138883,3022117,1999,Woman
154,688771,DepthScenes,duration_manipulation_targetAtFixation,jsons/v1_VE1000_randls_76_rotated.json,http://54.235.29.9/FacialAge/BNav_EC2/DepthDuration/v2_depth_duration_MTurk/v2_DepthDuration_HTML.html#217,217,1024,625,1024,768,9-3-2022,6-9-22,155,depth_duration_stimuli/002323_2014-06-28_20-01-54_260595134347_rgbf000051-resize_4/002323_2014-06-28_20-01-54_260595134347_rgbf000051-resize_4-target.png,1000,3.7310000000000003,6,12603,1000,meters,jsons/v1_VE1000_randls_76_rotated.json,2138883,3022117,1999,Woman
155,688771,DepthScenes,duration_manipulation_targetAtFixation,jsons/v1_VE1000_randls_76_rotated.json,http://54.235.29.9/FacialAge/BNav_EC2/DepthDuration/v2_depth_duration_MTurk/v2_DepthDuration_HTML.html#217,217,1024,625,1024,768,9-3-2022,6-9-22,156,depth_duration_stimuli/000917_2014-06-09_22-45-29_260595134347_rgbf000149-resize_3/000917_2014-06-09_22-45-29_260595134347_rgbf000149-resize_3-target.png,1000,4.1865,4,5138,1000,meters,jsons/v1_VE1000_randls_76_rotated.json,2138883,3022117,1999,Woman
156,688771,DepthScenes,duration_manipulation_targetAtFixation,jsons/v1_VE1000_randls_76_rotated.json,http://54.235.29.9/FacialAge/BNav_EC2/DepthDuration/v2_depth_duration_MTurk/v2_DepthDuration_HTML.html#217,217,1024,625,1024,768,9-3-2022,6-9-22,157,depth_duration_stimuli/000556_2014-06-09_22-42-56_260595134347_rgbf000214-resize_1/000556_2014-06-09_22-42-56_260595134347_rgbf000214-resize_1-target.png,1000,4.8415,7,10802,999,meters,jsons/v1_VE1000_randls_76_rotated.json,2138883,3022117,1999,Woman
157,688771,DepthScenes,duration_manipulation_targetAtFixation,jsons/v1_VE1000_randls_76_rotated.json,http://54.235.29.9/FacialAge/BNav_EC2/DepthDuration/v2_depth_duration_MTurk/v2_DepthDuration_HTML.html#217,217,1024,625,1024,768,9-3-2022,6-9-22,158,depth_duration_stimuli/001158_2014-06-17_15-32-16_260595134347_rgbf000138-resize_2/001158_2014-06-17_15-32-16_260595134347_rgbf000138-resize_2-target.png,1000,4.5315,5,8690,1000,meters,jsons/v1_VE1000_randls_76_rotated.json,2138883,3022117,1999,Woman
158,688771,DepthScenes,duration_manipulation_targetAtFixation,jsons/v1_VE1000_randls_76_rotated.json,http://54.235.29.9/FacialAge/BNav_EC2/DepthDuration/v2_depth_duration_MTurk/v2_DepthDuration_HTML.html#217,217,1024,625,1024,768,9-3-2022,6-9-22,159,depth_duration_stimuli/002344_2014-06-28_20-06-29_260595134347_rgbf000030-resize_1/002344_2014-06-28_20-06-29_260595134347_rgbf000030-resize_1-target.png,1000,1.5795,6,10394,1000,meters,jsons/v1_VE1000_randls_76_rotated.json,2138883,3022117,1999,Woman
159,688771,DepthScenes,duration_manipulation_targetAtFixation,jsons/v1_VE1000_randls_76_rotated.json,http://54.235.29.9/FacialAge/BNav_EC2/DepthDuration/v2_depth_duration_MTurk/v2_DepthDuration_HTML.html#217,217,1024,625,1024,768,9-3-2022,6-9-22,160,depth_duration_stimuli/002725_2014-06-22_11-47-51_094959634447_rgbf000070-resize_1/002725_2014-06-22_11-47-51_094959634447_rgbf000070-resize_1-target.png,1000,2.195,7,6114,1000,meters,jsons/v1_VE1000_randls_76_rotated.json,2138883,3022117,1999,Woman
160,688771,DepthScenes,duration_manipulation_targetAtFixation,jsons/v1_VE1000_randls_76_rotated.json,http://54.235.29.9/FacialAge/BNav_EC2/DepthDuration/v2_depth_duration_MTurk/v2_DepthDuration_HTML.html#217,217,1024,625,1024,768,9-3-2022,6-9-22,161,depth_duration_stimuli/000866_2014-06-09_20-45-42_260595134347_rgbf000139-resize_1/000866_2014-06-09_20-45-42_260595134347_rgbf000139-resize_1-target.png,1000,3.2155,5,13324,999,meters,jsons/v1_VE1000_randls_76_rotated.json,2138883,3022117,1999,Woman
161,688771,DepthScenes,duration_manipulation_targetAtFixation,jsons/v1_VE1000_randls_76_rotated.json,http://54.235.29.9/FacialAge/BNav_EC2/DepthDuration/v2_depth_duration_MTurk/v2_DepthDuration_HTML.html#217,217,1024,625,1024,768,9-3-2022,6-9-22,162,depth_duration_stimuli/002989_2014-06-15_12-25-03_094959634447_rgbf000150-resize_3/002989_2014-06-15_12-25-03_094959634447_rgbf000150-resize_3-target.png,1000,4.1975,5,6230,999,meters,jsons/v1_VE1000_randls_76_rotated.json,2138883,3022117,1999,Woman
162,688771,DepthScenes,duration_manipulation_targetAtFixation,jsons/v1_VE1000_randls_76_rotated.json,http://54.235.29.9/FacialAge/BNav_EC2/DepthDuration/v2_depth_duration_MTurk/v2_DepthDuration_HTML.html#217,217,1024,625,1024,768,9-3-2022,6-9-22,163,depth_duration_stimuli/003423_2014-05-21_10-23-26_094959634447_rgbf002665-resize_2/003423_2014-05-21_10-23-26_094959634447_rgbf002665-resize_2-target.png,1000,3.2575,9,10538,1000,meters,jsons/v1_VE1000_randls_76_rotated.json,2138883,3022117,1999,Woman
163,688771,DepthScenes,duration_manipulation_targetAtFixation,jsons/v1_VE1000_randls_76_rotated.json,http://54.235.29.9/FacialAge/BNav_EC2/DepthDuration/v2_depth_duration_MTurk/v2_DepthDuration_HTML.html#217,217,1024,625,1024,768,9-3-2022,6-9-22,164,depth_duration_stimuli/002905_2014-06-03_18-04-43_094959634447_rgbf000151-resize_2/002905_2014-06-03_18-04-43_094959634447_rgbf000151-resize_2-target.png,1000,2.0295,7,5801,998,meters,jsons/v1_VE1000_randls_76_rotated.json,2138883,3022117,1999,Woman
