,subjID,experimentName,versionName,sequenceName,url,selected_row,windowWidth,windowHeight,screenWidth,screenHeight,startDate,startTime,trial,stimulus,duration,actual_depth,depth_estimate,trial_RT,log_sceneDuration,unitSelection,seq_filepath,experimentTime,totalTime,age,gender
0,688959,DepthScenes,duration_manipulation_targetAtFixation,jsons/VE125_randls_49.json,http://54.235.29.9/FacialAge/BNav_EC2/DepthDuration/v2_depth_duration_MTurk/v2_DepthDuration_HTML.html#224,224,1326,730,1536,864,9-3-2022,9-14-1,1,depth_duration_stimuli/000642_2014-06-08_16-59-25_260595134347_rgbf000098-resize_2/000642_2014-06-08_16-59-25_260595134347_rgbf000098-resize_2-target.png,125,2.8815,6,3166,124,feet,jsons/VE125_randls_49.json,555805,773093,36,Woman
1,688959,DepthScenes,duration_manipulation_targetAtFixation,jsons/VE125_randls_49.json,http://54.235.29.9/FacialAge/BNav_EC2/DepthDuration/v2_depth_duration_MTurk/v2_DepthDuration_HTML.html#224,224,1326,730,1536,864,9-3-2022,9-14-1,2,depth_duration_stimuli/002425_2014-06-28_20-27-29_260595134347_rgbf000031-resize_8/002425_2014-06-28_20-27-29_260595134347_rgbf000031-resize_8-target.png,125,3.8960000000000004,7,3349,125,feet,jsons/VE125_randls_49.json,555805,773093,36,Woman
2,688959,DepthScenes,duration_manipulation_targetAtFixation,jsons/VE125_randls_49.json,http://54.235.29.9/FacialAge/BNav_EC2/DepthDuration/v2_depth_duration_MTurk/v2_DepthDuration_HTML.html#224,224,1326,730,1536,864,9-3-2022,9-14-1,3,depth_duration_stimuli/001016_2014-06-09_16-16-10_260595134347_rgbf000112-resize_5/001016_2014-06-09_16-16-10_260595134347_rgbf000112-resize_5-target.png,125,1.6565,3,2785,124,feet,jsons/VE125_randls_49.json,555805,773093,36,Woman
3,688959,DepthScenes,duration_manipulation_targetAtFixation,jsons/VE125_randls_49.json,http://54.235.29.9/FacialAge/BNav_EC2/DepthDuration/v2_depth_duration_MTurk/v2_DepthDuration_HTML.html#224,224,1326,730,1536,864,9-3-2022,9-14-1,4,depth_duration_stimuli/002340_2014-06-28_20-05-46_260595134347_rgbf000113-resize_0/002340_2014-06-28_20-05-46_260595134347_rgbf000113-resize_0-target.png,125,2.4735,6,3504,125,feet,jsons/VE125_randls_49.json,555805,773093,36,Woman
4,688959,DepthScenes,duration_manipulation_targetAtFixation,jsons/VE125_randls_49.json,http://54.235.29.9/FacialAge/BNav_EC2/DepthDuration/v2_depth_duration_MTurk/v2_DepthDuration_HTML.html#224,224,1326,730,1536,864,9-3-2022,9-14-1,5,depth_duration_stimuli/001808_2014-06-26_20-50-58_260595134347_rgbf000029-resize_1/001808_2014-06-26_20-50-58_260595134347_rgbf000029-resize_1-target.png,125,4.249,6,2742,134,feet,jsons/VE125_randls_49.json,555805,773093,36,Woman
5,688959,DepthScenes,duration_manipulation_targetAtFixation,jsons/VE125_randls_49.json,http://54.235.29.9/FacialAge/BNav_EC2/DepthDuration/v2_depth_duration_MTurk/v2_DepthDuration_HTML.html#224,224,1326,730,1536,864,9-3-2022,9-14-1,6,depth_duration_stimuli/001815_2014-06-26_20-52-55_260595134347_rgbf000020-resize_0/001815_2014-06-26_20-52-55_260595134347_rgbf000020-resize_0-target.png,125,3.3865,6,2502,106,feet,jsons/VE125_randls_49.json,555805,773093,36,Woman
6,688959,DepthScenes,duration_manipulation_targetAtFixation,jsons/VE125_randls_49.json,http://54.235.29.9/FacialAge/BNav_EC2/DepthDuration/v2_depth_duration_MTurk/v2_DepthDuration_HTML.html#224,224,1326,730,1536,864,9-3-2022,9-14-1,7,depth_duration_stimuli/000878_2014-06-08_22-52-45_260595134347_rgbf000045-resize_2/000878_2014-06-08_22-52-45_260595134347_rgbf000045-resize_2-target.png,125,2.092,5,2793,110,feet,jsons/VE125_randls_49.json,555805,773093,36,Woman
7,688959,DepthScenes,duration_manipulation_targetAtFixation,jsons/VE125_randls_49.json,http://54.235.29.9/FacialAge/BNav_EC2/DepthDuration/v2_depth_duration_MTurk/v2_DepthDuration_HTML.html#224,224,1326,730,1536,864,9-3-2022,9-14-1,8,depth_duration_stimuli/002953_2014-06-08_17-32-18_094959634447_rgbf000059-resize_5/002953_2014-06-08_17-32-18_094959634447_rgbf000059-resize_5-target.png,125,1.551,2,2626,125,feet,jsons/VE125_randls_49.json,555805,773093,36,Woman
8,688959,DepthScenes,duration_manipulation_targetAtFixation,jsons/VE125_randls_49.json,http://54.235.29.9/FacialAge/BNav_EC2/DepthDuration/v2_depth_duration_MTurk/v2_DepthDuration_HTML.html#224,224,1326,730,1536,864,9-3-2022,9-14-1,9,depth_duration_stimuli/000368_2014-06-09_15-53-01_260595134347_rgbf000155-resize_2/000368_2014-06-09_15-53-01_260595134347_rgbf000155-resize_2-target.png,125,2.4859999999999998,8,2902,127,feet,jsons/VE125_randls_49.json,555805,773093,36,Woman
9,688959,DepthScenes,duration_manipulation_targetAtFixation,jsons/VE125_randls_49.json,http://54.235.29.9/FacialAge/BNav_EC2/DepthDuration/v2_depth_duration_MTurk/v2_DepthDuration_HTML.html#224,224,1326,730,1536,864,9-3-2022,9-14-1,10,depth_duration_stimuli/002678_2014-06-13_16-15-32_094959634447_rgbf000151-resize_6/002678_2014-06-13_16-15-32_094959634447_rgbf000151-resize_6-target.png,125,2.1830000000000003,9,2744,135,feet,jsons/VE125_randls_49.json,555805,773093,36,Woman
10,688959,DepthScenes,duration_manipulation_targetAtFixation,jsons/VE125_randls_49.json,http://54.235.29.9/FacialAge/BNav_EC2/DepthDuration/v2_depth_duration_MTurk/v2_DepthDuration_HTML.html#224,224,1326,730,1536,864,9-3-2022,9-14-1,11,depth_duration_stimuli/000447_2014-06-08_16-15-46_260595134347_rgbf000130-resize_1/000447_2014-06-08_16-15-46_260595134347_rgbf000130-resize_1-target.png,125,4.479,7,2719,128,feet,jsons/VE125_randls_49.json,555805,773093,36,Woman
11,688959,DepthScenes,duration_manipulation_targetAtFixation,jsons/VE125_randls_49.json,http://54.235.29.9/FacialAge/BNav_EC2/DepthDuration/v2_depth_duration_MTurk/v2_DepthDuration_HTML.html#224,224,1326,730,1536,864,9-3-2022,9-14-1,12,depth_duration_stimuli/001447_2014-06-19_17-00-32_260595134347_rgbf000082-resize_5/001447_2014-06-19_17-00-32_260595134347_rgbf000082-resize_5-target.png,125,4.13775,4,3156,132,feet,jsons/VE125_randls_49.json,555805,773093,36,Woman
12,688959,DepthScenes,duration_manipulation_targetAtFixation,jsons/VE125_randls_49.json,http://54.235.29.9/FacialAge/BNav_EC2/DepthDuration/v2_depth_duration_MTurk/v2_DepthDuration_HTML.html#224,224,1326,730,1536,864,9-3-2022,9-14-1,13,depth_duration_stimuli/000569_2014-06-09_22-51-47_260595134347_rgbf000141-resize_3/000569_2014-06-09_22-51-47_260595134347_rgbf000141-resize-original.jpg,125,4.512,0,2818,125,feet,jsons/VE125_randls_49.json,555805,773093,36,Woman
13,688959,DepthScenes,duration_manipulation_targetAtFixation,jsons/VE125_randls_49.json,http://54.235.29.9/FacialAge/BNav_EC2/DepthDuration/v2_depth_duration_MTurk/v2_DepthDuration_HTML.html#224,224,1326,730,1536,864,9-3-2022,9-14-1,14,depth_duration_stimuli/002725_2014-06-22_11-47-51_094959634447_rgbf000070-resize_1/002725_2014-06-22_11-47-51_094959634447_rgbf000070-resize_1-target.png,125,2.195,5,2806,119,feet,jsons/VE125_randls_49.json,555805,773093,36,Woman
14,688959,DepthScenes,duration_manipulation_targetAtFixation,jsons/VE125_randls_49.json,http://54.235.29.9/FacialAge/BNav_EC2/DepthDuration/v2_depth_duration_MTurk/v2_DepthDuration_HTML.html#224,224,1326,730,1536,864,9-3-2022,9-14-1,15,depth_duration_stimuli/002344_2014-06-28_20-06-29_260595134347_rgbf000030-resize_1/002344_2014-06-28_20-06-29_260595134347_rgbf000030-resize_1-target.png,125,1.5795,4,2581,128,feet,jsons/VE125_randls_49.json,555805,773093,36,Woman
15,688959,DepthScenes,duration_manipulation_targetAtFixation,jsons/VE125_randls_49.json,http://54.235.29.9/FacialAge/BNav_EC2/DepthDuration/v2_depth_duration_MTurk/v2_DepthDuration_HTML.html#224,224,1326,730,1536,864,9-3-2022,9-14-1,16,depth_duration_stimuli/000682_2014-06-08_23-14-58_260595134347_rgbf000041-resize_5/000682_2014-06-08_23-14-58_260595134347_rgbf000041-resize_5-target.png,125,2.7239999999999998,6,2190,124,feet,jsons/VE125_randls_49.json,555805,773093,36,Woman
16,688959,DepthScenes,duration_manipulation_targetAtFixation,jsons/VE125_randls_49.json,http://54.235.29.9/FacialAge/BNav_EC2/DepthDuration/v2_depth_duration_MTurk/v2_DepthDuration_HTML.html#224,224,1326,730,1536,864,9-3-2022,9-14-1,17,depth_duration_stimuli/001650_2014-06-20_12-09-00_260595134347_rgbf000087-resize_3/001650_2014-06-20_12-09-00_260595134347_rgbf000087-resize_3-target.png,125,1.9505,3,2686,142,feet,jsons/VE125_randls_49.json,555805,773093,36,Woman
17,688959,DepthScenes,duration_manipulation_targetAtFixation,jsons/VE125_randls_49.json,http://54.235.29.9/FacialAge/BNav_EC2/DepthDuration/v2_depth_duration_MTurk/v2_DepthDuration_HTML.html#224,224,1326,730,1536,864,9-3-2022,9-14-1,18,depth_duration_stimuli/001806_2014-06-26_20-50-20_260595134347_rgbf000091-resize_1/001806_2014-06-26_20-50-20_260595134347_rgbf000091-resize_1-target.png,125,2.7305,3,2297,124,feet,jsons/VE125_randls_49.json,555805,773093,36,Woman
18,688959,DepthScenes,duration_manipulation_targetAtFixation,jsons/VE125_randls_49.json,http://54.235.29.9/FacialAge/BNav_EC2/DepthDuration/v2_depth_duration_MTurk/v2_DepthDuration_HTML.html#224,224,1326,730,1536,864,9-3-2022,9-14-1,19,depth_duration_stimuli/001617_2014-06-20_11-35-32_260595134347_rgbf000066-resize_1/001617_2014-06-20_11-35-32_260595134347_rgbf000066-resize_1-target.png,125,3.7910000000000004,4,2488,122,feet,jsons/VE125_randls_49.json,555805,773093,36,Woman
19,688959,DepthScenes,duration_manipulation_targetAtFixation,jsons/VE125_randls_49.json,http://54.235.29.9/FacialAge/BNav_EC2/DepthDuration/v2_depth_duration_MTurk/v2_DepthDuration_HTML.html#224,224,1326,730,1536,864,9-3-2022,9-14-1,20,depth_duration_stimuli/001810_2014-06-26_20-51-35_260595134347_rgbf000040-resize_3/001810_2014-06-26_20-51-35_260595134347_rgbf000040-resize_3-target.png,125,2.2525,3,2830,132,feet,jsons/VE125_randls_49.json,555805,773093,36,Woman
20,688959,DepthScenes,duration_manipulation_targetAtFixation,jsons/VE125_randls_49.json,http://54.235.29.9/FacialAge/BNav_EC2/DepthDuration/v2_depth_duration_MTurk/v2_DepthDuration_HTML.html#224,224,1326,730,1536,864,9-3-2022,9-14-1,21,depth_duration_stimuli/003010_2014-06-15_12-54-35_094959634447_rgbf000112-resize_0/003010_2014-06-15_12-54-35_094959634447_rgbf000112-resize_0-target.png,125,3.1185,7,2867,128,feet,jsons/VE125_randls_49.json,555805,773093,36,Woman
21,688959,DepthScenes,duration_manipulation_targetAtFixation,jsons/VE125_randls_49.json,http://54.235.29.9/FacialAge/BNav_EC2/DepthDuration/v2_depth_duration_MTurk/v2_DepthDuration_HTML.html#224,224,1326,730,1536,864,9-3-2022,9-14-1,22,depth_duration_stimuli/001417_2014-06-19_16-25-36_260595134347_rgbf000115-resize_5/001417_2014-06-19_16-25-36_260595134347_rgbf000115-resize_5-target.png,125,4.6255,8,2562,116,feet,jsons/VE125_randls_49.json,555805,773093,36,Woman
22,688959,DepthScenes,duration_manipulation_targetAtFixation,jsons/VE125_randls_49.json,http://54.235.29.9/FacialAge/BNav_EC2/DepthDuration/v2_depth_duration_MTurk/v2_DepthDuration_HTML.html#224,224,1326,730,1536,864,9-3-2022,9-14-1,23,depth_duration_stimuli/003081_2014-06-15_15-19-16_094959634447_rgbf000150-resize_1/003081_2014-06-15_15-19-16_094959634447_rgbf000150-resize_1-target.png,125,3.9125,6,2395,123,feet,jsons/VE125_randls_49.json,555805,773093,36,Woman
23,688959,DepthScenes,duration_manipulation_targetAtFixation,jsons/VE125_randls_49.json,http://54.235.29.9/FacialAge/BNav_EC2/DepthDuration/v2_depth_duration_MTurk/v2_DepthDuration_HTML.html#224,224,1326,730,1536,864,9-3-2022,9-14-1,24,depth_duration_stimuli/001110_2014-06-15_17-25-28_260595134347_rgbf000150-resize_1/001110_2014-06-15_17-25-28_260595134347_rgbf000150-resize_1-target.png,125,1.7115,4,2705,121,feet,jsons/VE125_randls_49.json,555805,773093,36,Woman
24,688959,DepthScenes,duration_manipulation_targetAtFixation,jsons/VE125_randls_49.json,http://54.235.29.9/FacialAge/BNav_EC2/DepthDuration/v2_depth_duration_MTurk/v2_DepthDuration_HTML.html#224,224,1326,730,1536,864,9-3-2022,9-14-1,25,depth_duration_stimuli/000927_2014-06-09_16-32-30_260595134347_rgbf000123-resize_3/000927_2014-06-09_16-32-30_260595134347_rgbf000123-resize_3-target.png,125,2.6785,5,2453,118,feet,jsons/VE125_randls_49.json,555805,773093,36,Woman
25,688959,DepthScenes,duration_manipulation_targetAtFixation,jsons/VE125_randls_49.json,http://54.235.29.9/FacialAge/BNav_EC2/DepthDuration/v2_depth_duration_MTurk/v2_DepthDuration_HTML.html#224,224,1326,730,1536,864,9-3-2022,9-14-1,26,depth_duration_stimuli/002763_2014-06-22_19-13-10_094959634447_rgbf000075-resize_4/002763_2014-06-22_19-13-10_094959634447_rgbf000075-resize_4-target.png,125,1.68375,4,3487,116,feet,jsons/VE125_randls_49.json,555805,773093,36,Woman
26,688959,DepthScenes,duration_manipulation_targetAtFixation,jsons/VE125_randls_49.json,http://54.235.29.9/FacialAge/BNav_EC2/DepthDuration/v2_depth_duration_MTurk/v2_DepthDuration_HTML.html#224,224,1326,730,1536,864,9-3-2022,9-14-1,27,depth_duration_stimuli/002209_2014-06-28_18-36-10_260595134347_rgbf000051-resize_1/002209_2014-06-28_18-36-10_260595134347_rgbf000051-resize_1-target.png,125,2.057,5,2268,122,feet,jsons/VE125_randls_49.json,555805,773093,36,Woman
27,688959,DepthScenes,duration_manipulation_targetAtFixation,jsons/VE125_randls_49.json,http://54.235.29.9/FacialAge/BNav_EC2/DepthDuration/v2_depth_duration_MTurk/v2_DepthDuration_HTML.html#224,224,1326,730,1536,864,9-3-2022,9-14-1,28,depth_duration_stimuli/000810_2014-06-08_17-20-01_260595134347_rgbf000105-resize_0/000810_2014-06-08_17-20-01_260595134347_rgbf000105-resize_0-target.png,125,1.4865,5,2528,138,feet,jsons/VE125_randls_49.json,555805,773093,36,Woman
28,688959,DepthScenes,duration_manipulation_targetAtFixation,jsons/VE125_randls_49.json,http://54.235.29.9/FacialAge/BNav_EC2/DepthDuration/v2_depth_duration_MTurk/v2_DepthDuration_HTML.html#224,224,1326,730,1536,864,9-3-2022,9-14-1,29,depth_duration_stimuli/001214_2014-06-17_16-13-55_260595134347_rgbf000111-resize_0/001214_2014-06-17_16-13-55_260595134347_rgbf000111-resize_0-target.png,125,2.6505,6,2348,120,feet,jsons/VE125_randls_49.json,555805,773093,36,Woman
29,688959,DepthScenes,duration_manipulation_targetAtFixation,jsons/VE125_randls_49.json,http://54.235.29.9/FacialAge/BNav_EC2/DepthDuration/v2_depth_duration_MTurk/v2_DepthDuration_HTML.html#224,224,1326,730,1536,864,9-3-2022,9-14-1,30,depth_duration_stimuli/000375_2014-06-08_11-17-29_260595134347_rgbf000133-resize_2/000375_2014-06-08_11-17-29_260595134347_rgbf000133-resize-original.jpg,125,4.718,0,2479,126,feet,jsons/VE125_randls_49.json,555805,773093,36,Woman
30,688959,DepthScenes,duration_manipulation_targetAtFixation,jsons/VE125_randls_49.json,http://54.235.29.9/FacialAge/BNav_EC2/DepthDuration/v2_depth_duration_MTurk/v2_DepthDuration_HTML.html#224,224,1326,730,1536,864,9-3-2022,9-14-1,31,depth_duration_stimuli/000692_2014-06-08_13-09-42_260595134347_rgbf000199-resize_2/000692_2014-06-08_13-09-42_260595134347_rgbf000199-resize_2-target.png,125,3.661,6,2821,125,feet,jsons/VE125_randls_49.json,555805,773093,36,Woman
31,688959,DepthScenes,duration_manipulation_targetAtFixation,jsons/VE125_randls_49.json,http://54.235.29.9/FacialAge/BNav_EC2/DepthDuration/v2_depth_duration_MTurk/v2_DepthDuration_HTML.html#224,224,1326,730,1536,864,9-3-2022,9-14-1,32,depth_duration_stimuli/001094_2014-06-15_17-36-00_260595134347_rgbf000205-resize_0/001094_2014-06-15_17-36-00_260595134347_rgbf000205-resize_0-target.png,125,4.2175,5,2271,109,feet,jsons/VE125_randls_49.json,555805,773093,36,Woman
32,688959,DepthScenes,duration_manipulation_targetAtFixation,jsons/VE125_randls_49.json,http://54.235.29.9/FacialAge/BNav_EC2/DepthDuration/v2_depth_duration_MTurk/v2_DepthDuration_HTML.html#224,224,1326,730,1536,864,9-3-2022,9-14-1,33,depth_duration_stimuli/000470_2014-06-09_19-42-40_260595134347_rgbf000094-resize_1/000470_2014-06-09_19-42-40_260595134347_rgbf000094-resize_1-target.png,125,1.831,2,2647,128,feet,jsons/VE125_randls_49.json,555805,773093,36,Woman
33,688959,DepthScenes,duration_manipulation_targetAtFixation,jsons/VE125_randls_49.json,http://54.235.29.9/FacialAge/BNav_EC2/DepthDuration/v2_depth_duration_MTurk/v2_DepthDuration_HTML.html#224,224,1326,730,1536,864,9-3-2022,9-14-1,34,depth_duration_stimuli/000109_2014-05-14_23-41-52_260595134347_rgbf000035-resize_9/000109_2014-05-14_23-41-52_260595134347_rgbf000035-resize_9-target.png,125,1.3545,2,2289,135,feet,jsons/VE125_randls_49.json,555805,773093,36,Woman
34,688959,DepthScenes,duration_manipulation_targetAtFixation,jsons/VE125_randls_49.json,http://54.235.29.9/FacialAge/BNav_EC2/DepthDuration/v2_depth_duration_MTurk/v2_DepthDuration_HTML.html#224,224,1326,730,1536,864,9-3-2022,9-14-1,35,depth_duration_stimuli/001175_2014-06-17_15-45-55_260595134347_rgbf000129-resize_4/001175_2014-06-17_15-45-55_260595134347_rgbf000129-resize_4-target.png,125,4.255,4,2549,126,feet,jsons/VE125_randls_49.json,555805,773093,36,Woman
35,688959,DepthScenes,duration_manipulation_targetAtFixation,jsons/VE125_randls_49.json,http://54.235.29.9/FacialAge/BNav_EC2/DepthDuration/v2_depth_duration_MTurk/v2_DepthDuration_HTML.html#224,224,1326,730,1536,864,9-3-2022,9-14-1,36,depth_duration_stimuli/003490_2014-05-21_15-50-11_094959634447_rgbf000101-resize_3/003490_2014-05-21_15-50-11_094959634447_rgbf000101-resize_3-target.png,125,3.6445,5,2446,115,feet,jsons/VE125_randls_49.json,555805,773093,36,Woman
36,688959,DepthScenes,duration_manipulation_targetAtFixation,jsons/VE125_randls_49.json,http://54.235.29.9/FacialAge/BNav_EC2/DepthDuration/v2_depth_duration_MTurk/v2_DepthDuration_HTML.html#224,224,1326,730,1536,864,9-3-2022,9-14-1,37,depth_duration_stimuli/000469_2014-06-09_19-42-10_260595134347_rgbf000081-resize_1/000469_2014-06-09_19-42-10_260595134347_rgbf000081-resize_1-target.png,125,1.652,5,2363,113,feet,jsons/VE125_randls_49.json,555805,773093,36,Woman
37,688959,DepthScenes,duration_manipulation_targetAtFixation,jsons/VE125_randls_49.json,http://54.235.29.9/FacialAge/BNav_EC2/DepthDuration/v2_depth_duration_MTurk/v2_DepthDuration_HTML.html#224,224,1326,730,1536,864,9-3-2022,9-14-1,38,depth_duration_stimuli/000483_2014-06-09_20-41-45_260595134347_rgbf000116-resize_4/000483_2014-06-09_20-41-45_260595134347_rgbf000116-resize_4-target.png,125,1.337,3,2270,127,feet,jsons/VE125_randls_49.json,555805,773093,36,Woman
38,688959,DepthScenes,duration_manipulation_targetAtFixation,jsons/VE125_randls_49.json,http://54.235.29.9/FacialAge/BNav_EC2/DepthDuration/v2_depth_duration_MTurk/v2_DepthDuration_HTML.html#224,224,1326,730,1536,864,9-3-2022,9-14-1,39,depth_duration_stimuli/001199_2014-06-17_16-03-48_260595134347_rgbf000077-resize_0/001199_2014-06-17_16-03-48_260595134347_rgbf000077-resize_0-target.png,125,3.4375,3,2576,131,feet,jsons/VE125_randls_49.json,555805,773093,36,Woman
39,688959,DepthScenes,duration_manipulation_targetAtFixation,jsons/VE125_randls_49.json,http://54.235.29.9/FacialAge/BNav_EC2/DepthDuration/v2_depth_duration_MTurk/v2_DepthDuration_HTML.html#224,224,1326,730,1536,864,9-3-2022,9-14-1,40,depth_duration_stimuli/000502_2014-06-08_23-02-32_260595134347_rgbf000063-resize_4/000502_2014-06-08_23-02-32_260595134347_rgbf000063-resize_4-target.png,125,2.431,4,2225,126,feet,jsons/VE125_randls_49.json,555805,773093,36,Woman
40,688959,DepthScenes,duration_manipulation_targetAtFixation,jsons/VE125_randls_49.json,http://54.235.29.9/FacialAge/BNav_EC2/DepthDuration/v2_depth_duration_MTurk/v2_DepthDuration_HTML.html#224,224,1326,730,1536,864,9-3-2022,9-14-1,41,depth_duration_stimuli/002509_2014-06-24_13-19-22_094959634447_rgbf000077-resize_0/002509_2014-06-24_13-19-22_094959634447_rgbf000077-resize_0-target.png,125,1.3065,5,2093,129,feet,jsons/VE125_randls_49.json,555805,773093,36,Woman
41,688959,DepthScenes,duration_manipulation_targetAtFixation,jsons/VE125_randls_49.json,http://54.235.29.9/FacialAge/BNav_EC2/DepthDuration/v2_depth_duration_MTurk/v2_DepthDuration_HTML.html#224,224,1326,730,1536,864,9-3-2022,9-14-1,42,depth_duration_stimuli/003338_2014-05-20_11-01-23_094959634447_rgbf000051-resize_6/003338_2014-05-20_11-01-23_094959634447_rgbf000051-resize_6-target.png,125,1.693,5,2140,123,feet,jsons/VE125_randls_49.json,555805,773093,36,Woman
42,688959,DepthScenes,duration_manipulation_targetAtFixation,jsons/VE125_randls_49.json,http://54.235.29.9/FacialAge/BNav_EC2/DepthDuration/v2_depth_duration_MTurk/v2_DepthDuration_HTML.html#224,224,1326,730,1536,864,9-3-2022,9-14-1,43,depth_duration_stimuli/002784_2014-06-22_19-26-30_094959634447_rgbf000083-resize_3/002784_2014-06-22_19-26-30_094959634447_rgbf000083-resize_3-target.png,125,1.8046666666667,5,2753,132,feet,jsons/VE125_randls_49.json,555805,773093,36,Woman
43,688959,DepthScenes,duration_manipulation_targetAtFixation,jsons/VE125_randls_49.json,http://54.235.29.9/FacialAge/BNav_EC2/DepthDuration/v2_depth_duration_MTurk/v2_DepthDuration_HTML.html#224,224,1326,730,1536,864,9-3-2022,9-14-1,44,depth_duration_stimuli/001100_2014-06-15_17-46-26_260595134347_rgbf000225-resize_2/001100_2014-06-15_17-46-26_260595134347_rgbf000225-resize_2-target.png,125,2.24,4,5271,137,feet,jsons/VE125_randls_49.json,555805,773093,36,Woman
44,688959,DepthScenes,duration_manipulation_targetAtFixation,jsons/VE125_randls_49.json,http://54.235.29.9/FacialAge/BNav_EC2/DepthDuration/v2_depth_duration_MTurk/v2_DepthDuration_HTML.html#224,224,1326,730,1536,864,9-3-2022,9-14-1,45,depth_duration_stimuli/000787_2014-06-08_22-33-53_260595134347_rgbf000175-resize_1/000787_2014-06-08_22-33-53_260595134347_rgbf000175-resize-original.jpg,125,4.784,0,2693,132,feet,jsons/VE125_randls_49.json,555805,773093,36,Woman
45,688959,DepthScenes,duration_manipulation_targetAtFixation,jsons/VE125_randls_49.json,http://54.235.29.9/FacialAge/BNav_EC2/DepthDuration/v2_depth_duration_MTurk/v2_DepthDuration_HTML.html#224,224,1326,730,1536,864,9-3-2022,9-14-1,46,depth_duration_stimuli/001167_2014-06-17_15-38-07_260595134347_rgbf000108-resize_0/001167_2014-06-17_15-38-07_260595134347_rgbf000108-resize_0-target.png,125,1.8505,4,2571,125,feet,jsons/VE125_randls_49.json,555805,773093,36,Woman
46,688959,DepthScenes,duration_manipulation_targetAtFixation,jsons/VE125_randls_49.json,http://54.235.29.9/FacialAge/BNav_EC2/DepthDuration/v2_depth_duration_MTurk/v2_DepthDuration_HTML.html#224,224,1326,730,1536,864,9-3-2022,9-14-1,47,depth_duration_stimuli/003587_2014-05-23_16-48-02_094959634447_rgbf002384-resize_2/003587_2014-05-23_16-48-02_094959634447_rgbf002384-resize_2-target.png,125,1.357,5,2177,101,feet,jsons/VE125_randls_49.json,555805,773093,36,Woman
47,688959,DepthScenes,duration_manipulation_targetAtFixation,jsons/VE125_randls_49.json,http://54.235.29.9/FacialAge/BNav_EC2/DepthDuration/v2_depth_duration_MTurk/v2_DepthDuration_HTML.html#224,224,1326,730,1536,864,9-3-2022,9-14-1,48,depth_duration_stimuli/002905_2014-06-03_18-04-43_094959634447_rgbf000151-resize_2/002905_2014-06-03_18-04-43_094959634447_rgbf000151-resize_2-target.png,125,2.0295,4,2189,128,feet,jsons/VE125_randls_49.json,555805,773093,36,Woman
48,688959,DepthScenes,duration_manipulation_targetAtFixation,jsons/VE125_randls_49.json,http://54.235.29.9/FacialAge/BNav_EC2/DepthDuration/v2_depth_duration_MTurk/v2_DepthDuration_HTML.html#224,224,1326,730,1536,864,9-3-2022,9-14-1,49,depth_duration_stimuli/003423_2014-05-21_10-23-26_094959634447_rgbf002665-resize_2/003423_2014-05-21_10-23-26_094959634447_rgbf002665-resize_2-target.png,125,3.2575,4,2331,131,feet,jsons/VE125_randls_49.json,555805,773093,36,Woman
49,688959,DepthScenes,duration_manipulation_targetAtFixation,jsons/VE125_randls_49.json,http://54.235.29.9/FacialAge/BNav_EC2/DepthDuration/v2_depth_duration_MTurk/v2_DepthDuration_HTML.html#224,224,1326,730,1536,864,9-3-2022,9-14-1,50,depth_duration_stimuli/001029_2014-06-08_13-17-57_260595134347_rgbf000065-resize_1/001029_2014-06-08_13-17-57_260595134347_rgbf000065-resize_1-target.png,125,3.0835,5,2361,118,feet,jsons/VE125_randls_49.json,555805,773093,36,Woman
50,688959,DepthScenes,duration_manipulation_targetAtFixation,jsons/VE125_randls_49.json,http://54.235.29.9/FacialAge/BNav_EC2/DepthDuration/v2_depth_duration_MTurk/v2_DepthDuration_HTML.html#224,224,1326,730,1536,864,9-3-2022,9-14-1,51,depth_duration_stimuli/000677_2014-06-08_23-10-32_260595134347_rgbf000158-resize_6/000677_2014-06-08_23-10-32_260595134347_rgbf000158-resize_6-target.png,125,3.556,6,2524,117,feet,jsons/VE125_randls_49.json,555805,773093,36,Woman
51,688959,DepthScenes,duration_manipulation_targetAtFixation,jsons/VE125_randls_49.json,http://54.235.29.9/FacialAge/BNav_EC2/DepthDuration/v2_depth_duration_MTurk/v2_DepthDuration_HTML.html#224,224,1326,730,1536,864,9-3-2022,9-14-1,52,depth_duration_stimuli/000506_2014-06-08_23-21-00_260595134347_rgbf000070-resize_7/000506_2014-06-08_23-21-00_260595134347_rgbf000070-resize_7-target.png,125,4.0585,6,2428,126,feet,jsons/VE125_randls_49.json,555805,773093,36,Woman
52,688959,DepthScenes,duration_manipulation_targetAtFixation,jsons/VE125_randls_49.json,http://54.235.29.9/FacialAge/BNav_EC2/DepthDuration/v2_depth_duration_MTurk/v2_DepthDuration_HTML.html#224,224,1326,730,1536,864,9-3-2022,9-14-1,53,depth_duration_stimuli/003079_2014-06-15_15-18-20_094959634447_rgbf000152-resize_8/003079_2014-06-15_15-18-20_094959634447_rgbf000152-resize_8-target.png,125,2.8775,8,2323,118,feet,jsons/VE125_randls_49.json,555805,773093,36,Woman
53,688959,DepthScenes,duration_manipulation_targetAtFixation,jsons/VE125_randls_49.json,http://54.235.29.9/FacialAge/BNav_EC2/DepthDuration/v2_depth_duration_MTurk/v2_DepthDuration_HTML.html#224,224,1326,730,1536,864,9-3-2022,9-14-1,54,depth_duration_stimuli/000009_2014-05-26_14-32-05_260595134347_rgbf000034-resize_3/000009_2014-05-26_14-32-05_260595134347_rgbf000034-resize_3-target.png,125,3.8715,8,2223,131,feet,jsons/VE125_randls_49.json,555805,773093,36,Woman
54,688959,DepthScenes,duration_manipulation_targetAtFixation,jsons/VE125_randls_49.json,http://54.235.29.9/FacialAge/BNav_EC2/DepthDuration/v2_depth_duration_MTurk/v2_DepthDuration_HTML.html#224,224,1326,730,1536,864,9-3-2022,9-14-1,55,depth_duration_stimuli/001828_2014-06-26_21-40-03_260595134347_rgbf000024-resize_0/001828_2014-06-26_21-40-03_260595134347_rgbf000024-resize_0-target.png,125,4.8260000000000005,6,2126,111,feet,jsons/VE125_randls_49.json,555805,773093,36,Woman
55,688959,DepthScenes,duration_manipulation_targetAtFixation,jsons/VE125_randls_49.json,http://54.235.29.9/FacialAge/BNav_EC2/DepthDuration/v2_depth_duration_MTurk/v2_DepthDuration_HTML.html#224,224,1326,730,1536,864,9-3-2022,9-14-1,56,depth_duration_stimuli/001158_2014-06-17_15-32-16_260595134347_rgbf000138-resize_2/001158_2014-06-17_15-32-16_260595134347_rgbf000138-resize_2-target.png,125,4.5315,9,2292,136,feet,jsons/VE125_randls_49.json,555805,773093,36,Woman
56,688959,DepthScenes,duration_manipulation_targetAtFixation,jsons/VE125_randls_49.json,http://54.235.29.9/FacialAge/BNav_EC2/DepthDuration/v2_depth_duration_MTurk/v2_DepthDuration_HTML.html#224,224,1326,730,1536,864,9-3-2022,9-14-1,57,depth_duration_stimuli/000556_2014-06-09_22-42-56_260595134347_rgbf000214-resize_1/000556_2014-06-09_22-42-56_260595134347_rgbf000214-resize_1-target.png,125,4.8415,0,2641,130,feet,jsons/VE125_randls_49.json,555805,773093,36,Woman
57,688959,DepthScenes,duration_manipulation_targetAtFixation,jsons/VE125_randls_49.json,http://54.235.29.9/FacialAge/BNav_EC2/DepthDuration/v2_depth_duration_MTurk/v2_DepthDuration_HTML.html#224,224,1326,730,1536,864,9-3-2022,9-14-1,58,depth_duration_stimuli/002043_2014-06-24_20-29-38_260595134347_rgbf000039-resize_4/002043_2014-06-24_20-29-38_260595134347_rgbf000039-resize_4-target.png,125,2.8435,4,4411,126,feet,jsons/VE125_randls_49.json,555805,773093,36,Woman
58,688959,DepthScenes,duration_manipulation_targetAtFixation,jsons/VE125_randls_49.json,http://54.235.29.9/FacialAge/BNav_EC2/DepthDuration/v2_depth_duration_MTurk/v2_DepthDuration_HTML.html#224,224,1326,730,1536,864,9-3-2022,9-14-1,59,depth_duration_stimuli/003048_2014-06-15_13-49-43_094959634447_rgbf000150-resize_1/003048_2014-06-15_13-49-43_094959634447_rgbf000150-resize_1-target.png,125,4.0035,6,2525,115,feet,jsons/VE125_randls_49.json,555805,773093,36,Woman
59,688959,DepthScenes,duration_manipulation_targetAtFixation,jsons/VE125_randls_49.json,http://54.235.29.9/FacialAge/BNav_EC2/DepthDuration/v2_depth_duration_MTurk/v2_DepthDuration_HTML.html#224,224,1326,730,1536,864,9-3-2022,9-14-1,60,depth_duration_stimuli/002989_2014-06-15_12-25-03_094959634447_rgbf000150-resize_3/002989_2014-06-15_12-25-03_094959634447_rgbf000150-resize_3-target.png,125,4.1975,7,2185,124,feet,jsons/VE125_randls_49.json,555805,773093,36,Woman
60,688959,DepthScenes,duration_manipulation_targetAtFixation,jsons/VE125_randls_49.json,http://54.235.29.9/FacialAge/BNav_EC2/DepthDuration/v2_depth_duration_MTurk/v2_DepthDuration_HTML.html#224,224,1326,730,1536,864,9-3-2022,9-14-1,61,depth_duration_stimuli/000866_2014-06-09_20-45-42_260595134347_rgbf000139-resize_1/000866_2014-06-09_20-45-42_260595134347_rgbf000139-resize_1-target.png,125,3.2155,5,3431,123,feet,jsons/VE125_randls_49.json,555805,773093,36,Woman
61,688959,DepthScenes,duration_manipulation_targetAtFixation,jsons/VE125_randls_49.json,http://54.235.29.9/FacialAge/BNav_EC2/DepthDuration/v2_depth_duration_MTurk/v2_DepthDuration_HTML.html#224,224,1326,730,1536,864,9-3-2022,9-14-1,62,depth_duration_stimuli/000486_2014-06-09_20-47-20_260595134347_rgbf000143-resize_2/000486_2014-06-09_20-47-20_260595134347_rgbf000143-resize_2-target.png,125,4.8325,4,3411,122,feet,jsons/VE125_randls_49.json,555805,773093,36,Woman
62,688959,DepthScenes,duration_manipulation_targetAtFixation,jsons/VE125_randls_49.json,http://54.235.29.9/FacialAge/BNav_EC2/DepthDuration/v2_depth_duration_MTurk/v2_DepthDuration_HTML.html#224,224,1326,730,1536,864,9-3-2022,9-14-1,63,depth_duration_stimuli/003083_2014-06-15_15-21-03_094959634447_rgbf000063-resize_1/003083_2014-06-15_15-21-03_094959634447_rgbf000063-resize_1-target.png,125,4.1405,8,4651,122,feet,jsons/VE125_randls_49.json,555805,773093,36,Woman
63,688959,DepthScenes,duration_manipulation_targetAtFixation,jsons/VE125_randls_49.json,http://54.235.29.9/FacialAge/BNav_EC2/DepthDuration/v2_depth_duration_MTurk/v2_DepthDuration_HTML.html#224,224,1326,730,1536,864,9-3-2022,9-14-1,64,depth_duration_stimuli/002788_2014-06-22_19-36-03_094959634447_rgbf000088-resize_2/002788_2014-06-22_19-36-03_094959634447_rgbf000088-resize_2-target.png,125,1.6465,7,2134,132,feet,jsons/VE125_randls_49.json,555805,773093,36,Woman
64,688959,DepthScenes,duration_manipulation_targetAtFixation,jsons/VE125_randls_49.json,http://54.235.29.9/FacialAge/BNav_EC2/DepthDuration/v2_depth_duration_MTurk/v2_DepthDuration_HTML.html#224,224,1326,730,1536,864,9-3-2022,9-14-1,65,depth_duration_stimuli/000749_2014-06-08_21-55-06_260595134347_rgbf000070-resize_2/000749_2014-06-08_21-55-06_260595134347_rgbf000070-resize_2-target.png,125,2.331,5,2548,132,feet,jsons/VE125_randls_49.json,555805,773093,36,Woman
65,688959,DepthScenes,duration_manipulation_targetAtFixation,jsons/VE125_randls_49.json,http://54.235.29.9/FacialAge/BNav_EC2/DepthDuration/v2_depth_duration_MTurk/v2_DepthDuration_HTML.html#224,224,1326,730,1536,864,9-3-2022,9-14-1,66,depth_duration_stimuli/001222_2014-06-17_16-24-06_260595134347_rgbf000073-resize_0/001222_2014-06-17_16-24-06_260595134347_rgbf000073-resize-original.jpg,125,1.4385,0,3059,126,feet,jsons/VE125_randls_49.json,555805,773093,36,Woman
66,688959,DepthScenes,duration_manipulation_targetAtFixation,jsons/VE125_randls_49.json,http://54.235.29.9/FacialAge/BNav_EC2/DepthDuration/v2_depth_duration_MTurk/v2_DepthDuration_HTML.html#224,224,1326,730,1536,864,9-3-2022,9-14-1,67,depth_duration_stimuli/002375_2014-06-28_20-13-44_260595134347_rgbf000032-resize_1/002375_2014-06-28_20-13-44_260595134347_rgbf000032-resize_1-target.png,125,4.0175,4,3648,113,feet,jsons/VE125_randls_49.json,555805,773093,36,Woman
67,688959,DepthScenes,duration_manipulation_targetAtFixation,jsons/VE125_randls_49.json,http://54.235.29.9/FacialAge/BNav_EC2/DepthDuration/v2_depth_duration_MTurk/v2_DepthDuration_HTML.html#224,224,1326,730,1536,864,9-3-2022,9-14-1,68,depth_duration_stimuli/002657_2014-06-13_15-29-54_094959634447_rgbf000150-resize_1/002657_2014-06-13_15-29-54_094959634447_rgbf000150-resize_1-target.png,125,4.919,7,2212,131,feet,jsons/VE125_randls_49.json,555805,773093,36,Woman
68,688959,DepthScenes,duration_manipulation_targetAtFixation,jsons/VE125_randls_49.json,http://54.235.29.9/FacialAge/BNav_EC2/DepthDuration/v2_depth_duration_MTurk/v2_DepthDuration_HTML.html#224,224,1326,730,1536,864,9-3-2022,9-14-1,69,depth_duration_stimuli/001133_2014-06-17_14-49-16_260595134347_rgbf000100-resize_0/001133_2014-06-17_14-49-16_260595134347_rgbf000100-resize_0-target.png,125,4.2115,8,2343,120,feet,jsons/VE125_randls_49.json,555805,773093,36,Woman
69,688959,DepthScenes,duration_manipulation_targetAtFixation,jsons/VE125_randls_49.json,http://54.235.29.9/FacialAge/BNav_EC2/DepthDuration/v2_depth_duration_MTurk/v2_DepthDuration_HTML.html#224,224,1326,730,1536,864,9-3-2022,9-14-1,70,depth_duration_stimuli/001132_2014-06-17_14-48-54_260595134347_rgbf000100-resize_2/001132_2014-06-17_14-48-54_260595134347_rgbf000100-resize_2-target.png,125,3.753,7,2307,150,feet,jsons/VE125_randls_49.json,555805,773093,36,Woman
70,688959,DepthScenes,duration_manipulation_targetAtFixation,jsons/VE125_randls_49.json,http://54.235.29.9/FacialAge/BNav_EC2/DepthDuration/v2_depth_duration_MTurk/v2_DepthDuration_HTML.html#224,224,1326,730,1536,864,9-3-2022,9-14-1,71,depth_duration_stimuli/002039_2014-06-24_20-22-38_260595134347_rgbf000084-resize_1/002039_2014-06-24_20-22-38_260595134347_rgbf000084-resize_1-target.png,125,4.408,9,4344,138,feet,jsons/VE125_randls_49.json,555805,773093,36,Woman
71,688959,DepthScenes,duration_manipulation_targetAtFixation,jsons/VE125_randls_49.json,http://54.235.29.9/FacialAge/BNav_EC2/DepthDuration/v2_depth_duration_MTurk/v2_DepthDuration_HTML.html#224,224,1326,730,1536,864,9-3-2022,9-14-1,72,depth_duration_stimuli/002103_2014-06-25_20-00-40_260595134347_rgbf000049-resize_0/002103_2014-06-25_20-00-40_260595134347_rgbf000049-resize_0-target.png,125,4.105,8,2347,119,feet,jsons/VE125_randls_49.json,555805,773093,36,Woman
72,688959,DepthScenes,duration_manipulation_targetAtFixation,jsons/VE125_randls_49.json,http://54.235.29.9/FacialAge/BNav_EC2/DepthDuration/v2_depth_duration_MTurk/v2_DepthDuration_HTML.html#224,224,1326,730,1536,864,9-3-2022,9-14-1,73,depth_duration_stimuli/000414_2014-06-04_19-49-13_260595134347_rgbf000044-resize_0/000414_2014-06-04_19-49-13_260595134347_rgbf000044-resize_0-target.png,125,4.329,8,2519,129,feet,jsons/VE125_randls_49.json,555805,773093,36,Woman
73,688959,DepthScenes,duration_manipulation_targetAtFixation,jsons/VE125_randls_49.json,http://54.235.29.9/FacialAge/BNav_EC2/DepthDuration/v2_depth_duration_MTurk/v2_DepthDuration_HTML.html#224,224,1326,730,1536,864,9-3-2022,9-14-1,74,depth_duration_stimuli/003129_2014-05-12_10-48-10_094959634447_rgbf000100-resize_0/003129_2014-05-12_10-48-10_094959634447_rgbf000100-resize_0-target.png,125,4.9305,3,2730,127,feet,jsons/VE125_randls_49.json,555805,773093,36,Woman
74,688959,DepthScenes,duration_manipulation_targetAtFixation,jsons/VE125_randls_49.json,http://54.235.29.9/FacialAge/BNav_EC2/DepthDuration/v2_depth_duration_MTurk/v2_DepthDuration_HTML.html#224,224,1326,730,1536,864,9-3-2022,9-14-1,75,depth_duration_stimuli/001164_2014-06-17_15-35-46_260595134347_rgbf000085-resize_3/001164_2014-06-17_15-35-46_260595134347_rgbf000085-resize_3-target.png,125,2.354,2,2302,121,feet,jsons/VE125_randls_49.json,555805,773093,36,Woman
75,688959,DepthScenes,duration_manipulation_targetAtFixation,jsons/VE125_randls_49.json,http://54.235.29.9/FacialAge/BNav_EC2/DepthDuration/v2_depth_duration_MTurk/v2_DepthDuration_HTML.html#224,224,1326,730,1536,864,9-3-2022,9-14-1,76,depth_duration_stimuli/001136_2014-06-17_15-19-41_260595134347_rgbf000076-resize_3/001136_2014-06-17_15-19-41_260595134347_rgbf000076-resize_3-target.png,125,1.8655,4,2517,122,feet,jsons/VE125_randls_49.json,555805,773093,36,Woman
76,688959,DepthScenes,duration_manipulation_targetAtFixation,jsons/VE125_randls_49.json,http://54.235.29.9/FacialAge/BNav_EC2/DepthDuration/v2_depth_duration_MTurk/v2_DepthDuration_HTML.html#224,224,1326,730,1536,864,9-3-2022,9-14-1,77,depth_duration_stimuli/002570_2014-06-24_13-59-54_094959634447_rgbf000059-resize_0/002570_2014-06-24_13-59-54_094959634447_rgbf000059-resize_0-target.png,125,4.037,3,2553,131,feet,jsons/VE125_randls_49.json,555805,773093,36,Woman
77,688959,DepthScenes,duration_manipulation_targetAtFixation,jsons/VE125_randls_49.json,http://54.235.29.9/FacialAge/BNav_EC2/DepthDuration/v2_depth_duration_MTurk/v2_DepthDuration_HTML.html#224,224,1326,730,1536,864,9-3-2022,9-14-1,78,depth_duration_stimuli/002467_2014-06-28_20-38-07_260595134347_rgbf000026-resize_2/002467_2014-06-28_20-38-07_260595134347_rgbf000026-resize_2-target.png,125,4.742,4,3020,128,feet,jsons/VE125_randls_49.json,555805,773093,36,Woman
78,688959,DepthScenes,duration_manipulation_targetAtFixation,jsons/VE125_randls_49.json,http://54.235.29.9/FacialAge/BNav_EC2/DepthDuration/v2_depth_duration_MTurk/v2_DepthDuration_HTML.html#224,224,1326,730,1536,864,9-3-2022,9-14-1,79,depth_duration_stimuli/002964_2014-06-08_17-46-11_094959634447_rgbf000091-resize_4/002964_2014-06-08_17-46-11_094959634447_rgbf000091-resize_4-target.png,125,1.6909999999999998,2,2310,116,feet,jsons/VE125_randls_49.json,555805,773093,36,Woman
79,688959,DepthScenes,duration_manipulation_targetAtFixation,jsons/VE125_randls_49.json,http://54.235.29.9/FacialAge/BNav_EC2/DepthDuration/v2_depth_duration_MTurk/v2_DepthDuration_HTML.html#224,224,1326,730,1536,864,9-3-2022,9-14-1,80,depth_duration_stimuli/002136_2014-06-25_21-18-03_260595134347_rgbf000109-resize_3/002136_2014-06-25_21-18-03_260595134347_rgbf000109-resize_3-target.png,125,1.9569999999999999,4,2487,122,feet,jsons/VE125_randls_49.json,555805,773093,36,Woman
80,688959,DepthScenes,duration_manipulation_targetAtFixation,jsons/VE125_randls_49.json,http://54.235.29.9/FacialAge/BNav_EC2/DepthDuration/v2_depth_duration_MTurk/v2_DepthDuration_HTML.html#224,224,1326,730,1536,864,9-3-2022,9-14-1,81,depth_duration_stimuli/000906_2014-06-08_13-35-43_260595134347_rgbf000155-resize_1/000906_2014-06-08_13-35-43_260595134347_rgbf000155-resize_1-target.png,125,2.8489999999999998,7,2326,143,feet,jsons/VE125_randls_49.json,555805,773093,36,Woman
81,688959,DepthScenes,duration_manipulation_targetAtFixation,jsons/VE125_randls_49.json,http://54.235.29.9/FacialAge/BNav_EC2/DepthDuration/v2_depth_duration_MTurk/v2_DepthDuration_HTML.html#224,224,1326,730,1536,864,9-3-2022,9-14-1,82,depth_duration_stimuli/002805_2014-06-22_19-54-03_094959634447_rgbf000079-resize_1/002805_2014-06-22_19-54-03_094959634447_rgbf000079-resize_1-target.png,125,3.1439999999999997,5,11528,127,feet,jsons/VE125_randls_49.json,555805,773093,36,Woman
82,688959,DepthScenes,duration_manipulation_targetAtFixation,jsons/VE125_randls_49.json,http://54.235.29.9/FacialAge/BNav_EC2/DepthDuration/v2_depth_duration_MTurk/v2_DepthDuration_HTML.html#224,224,1326,730,1536,864,9-3-2022,9-14-1,83,depth_duration_stimuli/003070_2014-06-15_14-58-27_094959634447_rgbf000150-resize_3/003070_2014-06-15_14-58-27_094959634447_rgbf000150-resize_3-target.png,125,2.9415,4,6432,128,feet,jsons/VE125_randls_49.json,555805,773093,36,Woman
83,688959,DepthScenes,duration_manipulation_targetAtFixation,jsons/VE125_randls_49.json,http://54.235.29.9/FacialAge/BNav_EC2/DepthDuration/v2_depth_duration_MTurk/v2_DepthDuration_HTML.html#224,224,1326,730,1536,864,9-3-2022,9-14-1,84,depth_duration_stimuli/000943_2014-06-09_19-31-07_260595134347_rgbf000128-resize_1/000943_2014-06-09_19-31-07_260595134347_rgbf000128-resize_1-target.png,125,1.9765,6,4105,138,feet,jsons/VE125_randls_49.json,555805,773093,36,Woman
84,688959,DepthScenes,duration_manipulation_targetAtFixation,jsons/VE125_randls_49.json,http://54.235.29.9/FacialAge/BNav_EC2/DepthDuration/v2_depth_duration_MTurk/v2_DepthDuration_HTML.html#224,224,1326,730,1536,864,9-3-2022,9-14-1,85,depth_duration_stimuli/000739_2014-06-08_18-45-58_260595134347_rgbf000068-resize_1/000739_2014-06-08_18-45-58_260595134347_rgbf000068-resize_1-target.png,125,3.534,7,2293,135,feet,jsons/VE125_randls_49.json,555805,773093,36,Woman
85,688959,DepthScenes,duration_manipulation_targetAtFixation,jsons/VE125_randls_49.json,http://54.235.29.9/FacialAge/BNav_EC2/DepthDuration/v2_depth_duration_MTurk/v2_DepthDuration_HTML.html#224,224,1326,730,1536,864,9-3-2022,9-14-1,86,depth_duration_stimuli/000734_2014-06-08_17-39-11_260595134347_rgbf000128-resize_2/000734_2014-06-08_17-39-11_260595134347_rgbf000128-resize_2-target.png,125,4.098,6,5317,121,feet,jsons/VE125_randls_49.json,555805,773093,36,Woman
86,688959,DepthScenes,duration_manipulation_targetAtFixation,jsons/VE125_randls_49.json,http://54.235.29.9/FacialAge/BNav_EC2/DepthDuration/v2_depth_duration_MTurk/v2_DepthDuration_HTML.html#224,224,1326,730,1536,864,9-3-2022,9-14-1,87,depth_duration_stimuli/003534_2014-05-22_15-06-10_094959634447_rgbf000102-resize_4/003534_2014-05-22_15-06-10_094959634447_rgbf000102-resize_4-target.png,125,1.426,3,3293,127,feet,jsons/VE125_randls_49.json,555805,773093,36,Woman
87,688959,DepthScenes,duration_manipulation_targetAtFixation,jsons/VE125_randls_49.json,http://54.235.29.9/FacialAge/BNav_EC2/DepthDuration/v2_depth_duration_MTurk/v2_DepthDuration_HTML.html#224,224,1326,730,1536,864,9-3-2022,9-14-1,88,depth_duration_stimuli/002637_2014-06-24_14-51-13_094959634447_rgbf000066-resize_4/002637_2014-06-24_14-51-13_094959634447_rgbf000066-resize_4-target.png,125,1.9955,0,2491,125,feet,jsons/VE125_randls_49.json,555805,773093,36,Woman
88,688959,DepthScenes,duration_manipulation_targetAtFixation,jsons/VE125_randls_49.json,http://54.235.29.9/FacialAge/BNav_EC2/DepthDuration/v2_depth_duration_MTurk/v2_DepthDuration_HTML.html#224,224,1326,730,1536,864,9-3-2022,9-14-1,89,depth_duration_stimuli/001055_2014-06-08_18-45-35_260595134347_rgbf000111-resize_4/001055_2014-06-08_18-45-35_260595134347_rgbf000111-resize_4-target.png,125,2.4290000000000003,8,2601,123,feet,jsons/VE125_randls_49.json,555805,773093,36,Woman
89,688959,DepthScenes,duration_manipulation_targetAtFixation,jsons/VE125_randls_49.json,http://54.235.29.9/FacialAge/BNav_EC2/DepthDuration/v2_depth_duration_MTurk/v2_DepthDuration_HTML.html#224,224,1326,730,1536,864,9-3-2022,9-14-1,90,depth_duration_stimuli/000549_2014-06-08_22-10-24_260595134347_rgbf000247-resize_3/000549_2014-06-08_22-10-24_260595134347_rgbf000247-resize_3-target.png,125,1.841,4,2747,126,feet,jsons/VE125_randls_49.json,555805,773093,36,Woman
90,688959,DepthScenes,duration_manipulation_targetAtFixation,jsons/VE125_randls_49.json,http://54.235.29.9/FacialAge/BNav_EC2/DepthDuration/v2_depth_duration_MTurk/v2_DepthDuration_HTML.html#224,224,1326,730,1536,864,9-3-2022,9-14-1,91,depth_duration_stimuli/001555_2014-06-20_17-12-10_260595134347_rgbf000065-resize_4/001555_2014-06-20_17-12-10_260595134347_rgbf000065-resize_4-target.png,125,1.633,3,2764,128,feet,jsons/VE125_randls_49.json,555805,773093,36,Woman
91,688959,DepthScenes,duration_manipulation_targetAtFixation,jsons/VE125_randls_49.json,http://54.235.29.9/FacialAge/BNav_EC2/DepthDuration/v2_depth_duration_MTurk/v2_DepthDuration_HTML.html#224,224,1326,730,1536,864,9-3-2022,9-14-1,92,depth_duration_stimuli/000103_2014-05-14_22-01-17_260595134347_rgbf000152-resize_5/000103_2014-05-14_22-01-17_260595134347_rgbf000152-resize_5-target.png,125,1.993,5,2455,116,feet,jsons/VE125_randls_49.json,555805,773093,36,Woman
92,688959,DepthScenes,duration_manipulation_targetAtFixation,jsons/VE125_randls_49.json,http://54.235.29.9/FacialAge/BNav_EC2/DepthDuration/v2_depth_duration_MTurk/v2_DepthDuration_HTML.html#224,224,1326,730,1536,864,9-3-2022,9-14-1,93,depth_duration_stimuli/000788_2014-06-08_22-34-36_260595134347_rgbf000131-resize_1/000788_2014-06-08_22-34-36_260595134347_rgbf000131-resize_1-target.png,125,3.359,4,2263,126,feet,jsons/VE125_randls_49.json,555805,773093,36,Woman
93,688959,DepthScenes,duration_manipulation_targetAtFixation,jsons/VE125_randls_49.json,http://54.235.29.9/FacialAge/BNav_EC2/DepthDuration/v2_depth_duration_MTurk/v2_DepthDuration_HTML.html#224,224,1326,730,1536,864,9-3-2022,9-14-1,94,depth_duration_stimuli/001235_2014-06-17_16-37-36_260595134347_rgbf000084-resize_4/001235_2014-06-17_16-37-36_260595134347_rgbf000084-resize_4-target.png,125,3.6605,5,2334,113,feet,jsons/VE125_randls_49.json,555805,773093,36,Woman
94,688959,DepthScenes,duration_manipulation_targetAtFixation,jsons/VE125_randls_49.json,http://54.235.29.9/FacialAge/BNav_EC2/DepthDuration/v2_depth_duration_MTurk/v2_DepthDuration_HTML.html#224,224,1326,730,1536,864,9-3-2022,9-14-1,95,depth_duration_stimuli/000773_2014-06-08_22-24-54_260595134347_rgbf000093-resize_1/000773_2014-06-08_22-24-54_260595134347_rgbf000093-resize_1-target.png,125,4.973,7,2701,102,feet,jsons/VE125_randls_49.json,555805,773093,36,Woman
95,688959,DepthScenes,duration_manipulation_targetAtFixation,jsons/VE125_randls_49.json,http://54.235.29.9/FacialAge/BNav_EC2/DepthDuration/v2_depth_duration_MTurk/v2_DepthDuration_HTML.html#224,224,1326,730,1536,864,9-3-2022,9-14-1,96,depth_duration_stimuli/002414_2014-06-28_20-24-58_260595134347_rgbf000067-resize_4/002414_2014-06-28_20-24-58_260595134347_rgbf000067-resize_4-target.png,125,4.363,8,2222,130,feet,jsons/VE125_randls_49.json,555805,773093,36,Woman
96,688959,DepthScenes,duration_manipulation_targetAtFixation,jsons/VE125_randls_49.json,http://54.235.29.9/FacialAge/BNav_EC2/DepthDuration/v2_depth_duration_MTurk/v2_DepthDuration_HTML.html#224,224,1326,730,1536,864,9-3-2022,9-14-1,97,depth_duration_stimuli/003492_2014-05-21_15-50-55_094959634447_rgbf000828-resize_1/003492_2014-05-21_15-50-55_094959634447_rgbf000828-resize_1-target.png,125,4.06875,9,2549,151,feet,jsons/VE125_randls_49.json,555805,773093,36,Woman
97,688959,DepthScenes,duration_manipulation_targetAtFixation,jsons/VE125_randls_49.json,http://54.235.29.9/FacialAge/BNav_EC2/DepthDuration/v2_depth_duration_MTurk/v2_DepthDuration_HTML.html#224,224,1326,730,1536,864,9-3-2022,9-14-1,98,depth_duration_stimuli/002568_2014-06-24_13-59-21_094959634447_rgbf000062-resize_4/002568_2014-06-24_13-59-21_094959634447_rgbf000062-resize_4-target.png,125,3.015,8,2234,126,feet,jsons/VE125_randls_49.json,555805,773093,36,Woman
98,688959,DepthScenes,duration_manipulation_targetAtFixation,jsons/VE125_randls_49.json,http://54.235.29.9/FacialAge/BNav_EC2/DepthDuration/v2_depth_duration_MTurk/v2_DepthDuration_HTML.html#224,224,1326,730,1536,864,9-3-2022,9-14-1,99,depth_duration_stimuli/001540_2014-06-20_17-01-05_260595134347_rgbf000086-resize_2/001540_2014-06-20_17-01-05_260595134347_rgbf000086-resize-original.jpg,125,1.459,0,2505,117,feet,jsons/VE125_randls_49.json,555805,773093,36,Woman
99,688959,DepthScenes,duration_manipulation_targetAtFixation,jsons/VE125_randls_49.json,http://54.235.29.9/FacialAge/BNav_EC2/DepthDuration/v2_depth_duration_MTurk/v2_DepthDuration_HTML.html#224,224,1326,730,1536,864,9-3-2022,9-14-1,100,depth_duration_stimuli/003292_2014-05-14_21-53-49_094959634447_rgbf000100-resize_2/003292_2014-05-14_21-53-49_094959634447_rgbf000100-resize_2-target.png,125,3.4815,5,2653,138,feet,jsons/VE125_randls_49.json,555805,773093,36,Woman
100,688959,DepthScenes,duration_manipulation_targetAtFixation,jsons/VE125_randls_49.json,http://54.235.29.9/FacialAge/BNav_EC2/DepthDuration/v2_depth_duration_MTurk/v2_DepthDuration_HTML.html#224,224,1326,730,1536,864,9-3-2022,9-14-1,101,depth_duration_stimuli/002639_2014-06-24_14-51-37_094959634447_rgbf000074-resize_4/002639_2014-06-24_14-51-37_094959634447_rgbf000074-resize_4-target.png,125,4.0375,8,2302,151,feet,jsons/VE125_randls_49.json,555805,773093,36,Woman
101,688959,DepthScenes,duration_manipulation_targetAtFixation,jsons/VE125_randls_49.json,http://54.235.29.9/FacialAge/BNav_EC2/DepthDuration/v2_depth_duration_MTurk/v2_DepthDuration_HTML.html#224,224,1326,730,1536,864,9-3-2022,9-14-1,102,depth_duration_stimuli/001244_2014-06-17_16-47-45_260595134347_rgbf000030-resize_4/001244_2014-06-17_16-47-45_260595134347_rgbf000030-resize_4-target.png,125,2.0425,7,2521,132,feet,jsons/VE125_randls_49.json,555805,773093,36,Woman
102,688959,DepthScenes,duration_manipulation_targetAtFixation,jsons/VE125_randls_49.json,http://54.235.29.9/FacialAge/BNav_EC2/DepthDuration/v2_depth_duration_MTurk/v2_DepthDuration_HTML.html#224,224,1326,730,1536,864,9-3-2022,9-14-1,103,depth_duration_stimuli/003495_2014-05-21_16-01-51_094959634447_rgbf000100-resize_3/003495_2014-05-21_16-01-51_094959634447_rgbf000100-resize_3-target.png,125,1.6255,3,2559,118,feet,jsons/VE125_randls_49.json,555805,773093,36,Woman
103,688959,DepthScenes,duration_manipulation_targetAtFixation,jsons/VE125_randls_49.json,http://54.235.29.9/FacialAge/BNav_EC2/DepthDuration/v2_depth_duration_MTurk/v2_DepthDuration_HTML.html#224,224,1326,730,1536,864,9-3-2022,9-14-1,104,depth_duration_stimuli/001449_2014-06-19_17-01-27_260595134347_rgbf000116-resize_2/001449_2014-06-19_17-01-27_260595134347_rgbf000116-resize_2-target.png,125,3.452,6,2574,121,feet,jsons/VE125_randls_49.json,555805,773093,36,Woman
104,688959,DepthScenes,duration_manipulation_targetAtFixation,jsons/VE125_randls_49.json,http://54.235.29.9/FacialAge/BNav_EC2/DepthDuration/v2_depth_duration_MTurk/v2_DepthDuration_HTML.html#224,224,1326,730,1536,864,9-3-2022,9-14-1,105,depth_duration_stimuli/001450_2014-06-19_17-02-03_260595134347_rgbf000203-resize_4/001450_2014-06-19_17-02-03_260595134347_rgbf000203-resize_4-target.png,125,4.0106666666667,7,2494,125,feet,jsons/VE125_randls_49.json,555805,773093,36,Woman
105,688959,DepthScenes,duration_manipulation_targetAtFixation,jsons/VE125_randls_49.json,http://54.235.29.9/FacialAge/BNav_EC2/DepthDuration/v2_depth_duration_MTurk/v2_DepthDuration_HTML.html#224,224,1326,730,1536,864,9-3-2022,9-14-1,106,depth_duration_stimuli/002153_2014-06-25_21-27-18_260595134347_rgbf000038-resize_5/002153_2014-06-25_21-27-18_260595134347_rgbf000038-resize_5-target.png,125,2.505,6,2258,143,feet,jsons/VE125_randls_49.json,555805,773093,36,Woman
106,688959,DepthScenes,duration_manipulation_targetAtFixation,jsons/VE125_randls_49.json,http://54.235.29.9/FacialAge/BNav_EC2/DepthDuration/v2_depth_duration_MTurk/v2_DepthDuration_HTML.html#224,224,1326,730,1536,864,9-3-2022,9-14-1,107,depth_duration_stimuli/002660_2014-06-13_15-44-18_094959634447_rgbf001878-resize_2/002660_2014-06-13_15-44-18_094959634447_rgbf001878-resize_2-target.png,125,3.576,7,2519,127,feet,jsons/VE125_randls_49.json,555805,773093,36,Woman
107,688959,DepthScenes,duration_manipulation_targetAtFixation,jsons/VE125_randls_49.json,http://54.235.29.9/FacialAge/BNav_EC2/DepthDuration/v2_depth_duration_MTurk/v2_DepthDuration_HTML.html#224,224,1326,730,1536,864,9-3-2022,9-14-1,108,depth_duration_stimuli/000522_2014-06-08_13-35-06_260595134347_rgbf000244-resize_1/000522_2014-06-08_13-35-06_260595134347_rgbf000244-resize_1-target.png,125,2.3715,2,2248,126,feet,jsons/VE125_randls_49.json,555805,773093,36,Woman
108,688959,DepthScenes,duration_manipulation_targetAtFixation,jsons/VE125_randls_49.json,http://54.235.29.9/FacialAge/BNav_EC2/DepthDuration/v2_depth_duration_MTurk/v2_DepthDuration_HTML.html#224,224,1326,730,1536,864,9-3-2022,9-14-1,109,depth_duration_stimuli/002949_2014-06-26_15-57-42_094959634447_rgbf000079-resize_1/002949_2014-06-26_15-57-42_094959634447_rgbf000079-resize_1-target.png,125,1.8915,6,2475,118,feet,jsons/VE125_randls_49.json,555805,773093,36,Woman
109,688959,DepthScenes,duration_manipulation_targetAtFixation,jsons/VE125_randls_49.json,http://54.235.29.9/FacialAge/BNav_EC2/DepthDuration/v2_depth_duration_MTurk/v2_DepthDuration_HTML.html#224,224,1326,730,1536,864,9-3-2022,9-14-1,110,depth_duration_stimuli/002748_2014-06-22_19-07-22_094959634447_rgbf000078-resize_1/002748_2014-06-22_19-07-22_094959634447_rgbf000078-resize_1-target.png,125,4.6705,7,2462,124,feet,jsons/VE125_randls_49.json,555805,773093,36,Woman
110,688959,DepthScenes,duration_manipulation_targetAtFixation,jsons/VE125_randls_49.json,http://54.235.29.9/FacialAge/BNav_EC2/DepthDuration/v2_depth_duration_MTurk/v2_DepthDuration_HTML.html#224,224,1326,730,1536,864,9-3-2022,9-14-1,111,depth_duration_stimuli/002995_2014-06-15_12-31-26_094959634447_rgbf000150-resize_1/002995_2014-06-15_12-31-26_094959634447_rgbf000150-resize_1-target.png,125,3.8360000000000003,8,2436,122,feet,jsons/VE125_randls_49.json,555805,773093,36,Woman
111,688959,DepthScenes,duration_manipulation_targetAtFixation,jsons/VE125_randls_49.json,http://54.235.29.9/FacialAge/BNav_EC2/DepthDuration/v2_depth_duration_MTurk/v2_DepthDuration_HTML.html#224,224,1326,730,1536,864,9-3-2022,9-14-1,112,depth_duration_stimuli/002445_2014-06-28_20-32-16_260595134347_rgbf000029-resize_4/002445_2014-06-28_20-32-16_260595134347_rgbf000029-resize_4-target.png,125,2.5315,6,2537,124,feet,jsons/VE125_randls_49.json,555805,773093,36,Woman
112,688959,DepthScenes,duration_manipulation_targetAtFixation,jsons/VE125_randls_49.json,http://54.235.29.9/FacialAge/BNav_EC2/DepthDuration/v2_depth_duration_MTurk/v2_DepthDuration_HTML.html#224,224,1326,730,1536,864,9-3-2022,9-14-1,113,depth_duration_stimuli/000780_2014-06-08_22-28-29_260595134347_rgbf000126-resize_1/000780_2014-06-08_22-28-29_260595134347_rgbf000126-resize_1-target.png,125,3.3825,8,2567,112,feet,jsons/VE125_randls_49.json,555805,773093,36,Woman
113,688959,DepthScenes,duration_manipulation_targetAtFixation,jsons/VE125_randls_49.json,http://54.235.29.9/FacialAge/BNav_EC2/DepthDuration/v2_depth_duration_MTurk/v2_DepthDuration_HTML.html#224,224,1326,730,1536,864,9-3-2022,9-14-1,114,depth_duration_stimuli/001066_2014-06-08_22-03-20_260595134347_rgbf000066-resize_4/001066_2014-06-08_22-03-20_260595134347_rgbf000066-resize_4-target.png,125,4.2330000000000005,9,3138,114,feet,jsons/VE125_randls_49.json,555805,773093,36,Woman
114,688959,DepthScenes,duration_manipulation_targetAtFixation,jsons/VE125_randls_49.json,http://54.235.29.9/FacialAge/BNav_EC2/DepthDuration/v2_depth_duration_MTurk/v2_DepthDuration_HTML.html#224,224,1326,730,1536,864,9-3-2022,9-14-1,115,depth_duration_stimuli/000742_2014-06-08_18-48-09_260595134347_rgbf000164-resize_4/000742_2014-06-08_18-48-09_260595134347_rgbf000164-resize_4-target.png,125,4.632,7,3279,134,feet,jsons/VE125_randls_49.json,555805,773093,36,Woman
115,688959,DepthScenes,duration_manipulation_targetAtFixation,jsons/VE125_randls_49.json,http://54.235.29.9/FacialAge/BNav_EC2/DepthDuration/v2_depth_duration_MTurk/v2_DepthDuration_HTML.html#224,224,1326,730,1536,864,9-3-2022,9-14-1,116,depth_duration_stimuli/001170_2014-06-17_15-43-44_260595134347_rgbf000096-resize_6/001170_2014-06-17_15-43-44_260595134347_rgbf000096-resize-original.jpg,125,1.1909999999999998,0,3160,113,feet,jsons/VE125_randls_49.json,555805,773093,36,Woman
116,688959,DepthScenes,duration_manipulation_targetAtFixation,jsons/VE125_randls_49.json,http://54.235.29.9/FacialAge/BNav_EC2/DepthDuration/v2_depth_duration_MTurk/v2_DepthDuration_HTML.html#224,224,1326,730,1536,864,9-3-2022,9-14-1,117,depth_duration_stimuli/002272_2014-06-28_18-53-56_260595134347_rgbf000067-resize_2/002272_2014-06-28_18-53-56_260595134347_rgbf000067-resize_2-target.png,125,1.138,1,2776,123,feet,jsons/VE125_randls_49.json,555805,773093,36,Woman
117,688959,DepthScenes,duration_manipulation_targetAtFixation,jsons/VE125_randls_49.json,http://54.235.29.9/FacialAge/BNav_EC2/DepthDuration/v2_depth_duration_MTurk/v2_DepthDuration_HTML.html#224,224,1326,730,1536,864,9-3-2022,9-14-1,118,depth_duration_stimuli/001571_2014-06-20_17-21-32_260595134347_rgbf000089-resize_1/001571_2014-06-20_17-21-32_260595134347_rgbf000089-resize_1-target.png,125,1.86,2,2776,120,feet,jsons/VE125_randls_49.json,555805,773093,36,Woman
118,688959,DepthScenes,duration_manipulation_targetAtFixation,jsons/VE125_randls_49.json,http://54.235.29.9/FacialAge/BNav_EC2/DepthDuration/v2_depth_duration_MTurk/v2_DepthDuration_HTML.html#224,224,1326,730,1536,864,9-3-2022,9-14-1,119,depth_duration_stimuli/001570_2014-06-20_17-21-09_260595134347_rgbf000135-resize_4/001570_2014-06-20_17-21-09_260595134347_rgbf000135-resize_4-target.png,125,4.467,8,3185,121,feet,jsons/VE125_randls_49.json,555805,773093,36,Woman
119,688959,DepthScenes,duration_manipulation_targetAtFixation,jsons/VE125_randls_49.json,http://54.235.29.9/FacialAge/BNav_EC2/DepthDuration/v2_depth_duration_MTurk/v2_DepthDuration_HTML.html#224,224,1326,730,1536,864,9-3-2022,9-14-1,120,depth_duration_stimuli/001392_2014-06-19_16-07-59_260595134347_rgbf000046-resize_1/001392_2014-06-19_16-07-59_260595134347_rgbf000046-resize_1-target.png,125,4.135,8,2645,113,feet,jsons/VE125_randls_49.json,555805,773093,36,Woman
120,688959,DepthScenes,duration_manipulation_targetAtFixation,jsons/VE125_randls_49.json,http://54.235.29.9/FacialAge/BNav_EC2/DepthDuration/v2_depth_duration_MTurk/v2_DepthDuration_HTML.html#224,224,1326,730,1536,864,9-3-2022,9-14-1,121,depth_duration_stimuli/002549_2014-06-24_13-41-39_094959634447_rgbf000022-resize_3/002549_2014-06-24_13-41-39_094959634447_rgbf000022-resize_3-target.png,125,1.476,4,3488,125,feet,jsons/VE125_randls_49.json,555805,773093,36,Woman
121,688959,DepthScenes,duration_manipulation_targetAtFixation,jsons/VE125_randls_49.json,http://54.235.29.9/FacialAge/BNav_EC2/DepthDuration/v2_depth_duration_MTurk/v2_DepthDuration_HTML.html#224,224,1326,730,1536,864,9-3-2022,9-14-1,122,depth_duration_stimuli/002750_2014-06-22_19-08-03_094959634447_rgbf000094-resize_4/002750_2014-06-22_19-08-03_094959634447_rgbf000094-resize_4-target.png,125,2.354,6,2296,132,feet,jsons/VE125_randls_49.json,555805,773093,36,Woman
122,688959,DepthScenes,duration_manipulation_targetAtFixation,jsons/VE125_randls_49.json,http://54.235.29.9/FacialAge/BNav_EC2/DepthDuration/v2_depth_duration_MTurk/v2_DepthDuration_HTML.html#224,224,1326,730,1536,864,9-3-2022,9-14-1,123,depth_duration_stimuli/002988_2014-06-15_12-24-20_094959634447_rgbf000150-resize_1/002988_2014-06-15_12-24-20_094959634447_rgbf000150-resize_1-target.png,125,4.7669999999999995,7,2240,118,feet,jsons/VE125_randls_49.json,555805,773093,36,Woman
123,688959,DepthScenes,duration_manipulation_targetAtFixation,jsons/VE125_randls_49.json,http://54.235.29.9/FacialAge/BNav_EC2/DepthDuration/v2_depth_duration_MTurk/v2_DepthDuration_HTML.html#224,224,1326,730,1536,864,9-3-2022,9-14-1,124,depth_duration_stimuli/001052_2014-06-08_18-24-54_260595134347_rgbf000130-resize_1/001052_2014-06-08_18-24-54_260595134347_rgbf000130-resize_1-target.png,125,4.1045,7,2204,127,feet,jsons/VE125_randls_49.json,555805,773093,36,Woman
124,688959,DepthScenes,duration_manipulation_targetAtFixation,jsons/VE125_randls_49.json,http://54.235.29.9/FacialAge/BNav_EC2/DepthDuration/v2_depth_duration_MTurk/v2_DepthDuration_HTML.html#224,224,1326,730,1536,864,9-3-2022,9-14-1,125,depth_duration_stimuli/002663_2014-06-13_15-50-26_094959634447_rgbf000075-resize_1/002663_2014-06-13_15-50-26_094959634447_rgbf000075-resize_1-target.png,125,4.7495,8,2156,126,feet,jsons/VE125_randls_49.json,555805,773093,36,Woman
125,688959,DepthScenes,duration_manipulation_targetAtFixation,jsons/VE125_randls_49.json,http://54.235.29.9/FacialAge/BNav_EC2/DepthDuration/v2_depth_duration_MTurk/v2_DepthDuration_HTML.html#224,224,1326,730,1536,864,9-3-2022,9-14-1,126,depth_duration_stimuli/000409_2014-06-04_19-23-33_260595134347_rgbf000067-resize_0/000409_2014-06-04_19-23-33_260595134347_rgbf000067-resize_0-target.png,125,3.7335,9,2134,130,feet,jsons/VE125_randls_49.json,555805,773093,36,Woman
126,688959,DepthScenes,duration_manipulation_targetAtFixation,jsons/VE125_randls_49.json,http://54.235.29.9/FacialAge/BNav_EC2/DepthDuration/v2_depth_duration_MTurk/v2_DepthDuration_HTML.html#224,224,1326,730,1536,864,9-3-2022,9-14-1,127,depth_duration_stimuli/001056_2014-06-08_18-46-44_260595134347_rgbf000068-resize_0/001056_2014-06-08_18-46-44_260595134347_rgbf000068-resize_0-target.png,125,2.6625,4,3019,130,feet,jsons/VE125_randls_49.json,555805,773093,36,Woman
127,688959,DepthScenes,duration_manipulation_targetAtFixation,jsons/VE125_randls_49.json,http://54.235.29.9/FacialAge/BNav_EC2/DepthDuration/v2_depth_duration_MTurk/v2_DepthDuration_HTML.html#224,224,1326,730,1536,864,9-3-2022,9-14-1,128,depth_duration_stimuli/002199_2014-06-28_18-33-56_260595134347_rgbf000074-resize_0/002199_2014-06-28_18-33-56_260595134347_rgbf000074-resize_0-target.png,125,1.996,2,2168,126,feet,jsons/VE125_randls_49.json,555805,773093,36,Woman
128,688959,DepthScenes,duration_manipulation_targetAtFixation,jsons/VE125_randls_49.json,http://54.235.29.9/FacialAge/BNav_EC2/DepthDuration/v2_depth_duration_MTurk/v2_DepthDuration_HTML.html#224,224,1326,730,1536,864,9-3-2022,9-14-1,129,depth_duration_stimuli/000736_2014-06-08_18-24-15_260595134347_rgbf000206-resize_3/000736_2014-06-08_18-24-15_260595134347_rgbf000206-resize_3-target.png,125,3.515,5,3028,132,feet,jsons/VE125_randls_49.json,555805,773093,36,Woman
129,688959,DepthScenes,duration_manipulation_targetAtFixation,jsons/VE125_randls_49.json,http://54.235.29.9/FacialAge/BNav_EC2/DepthDuration/v2_depth_duration_MTurk/v2_DepthDuration_HTML.html#224,224,1326,730,1536,864,9-3-2022,9-14-1,130,depth_duration_stimuli/000137_2014-05-20_17-04-49_260595134347_rgbf000120-resize_1/000137_2014-05-20_17-04-49_260595134347_rgbf000120-resize_1-target.png,125,3.786,4,2868,130,feet,jsons/VE125_randls_49.json,555805,773093,36,Woman
130,688959,DepthScenes,duration_manipulation_targetAtFixation,jsons/VE125_randls_49.json,http://54.235.29.9/FacialAge/BNav_EC2/DepthDuration/v2_depth_duration_MTurk/v2_DepthDuration_HTML.html#224,224,1326,730,1536,864,9-3-2022,9-14-1,131,depth_duration_stimuli/000758_2014-06-08_22-05-08_260595134347_rgbf000085-resize_0/000758_2014-06-08_22-05-08_260595134347_rgbf000085-resize_0-target.png,125,3.3810000000000002,6,2061,131,feet,jsons/VE125_randls_49.json,555805,773093,36,Woman
131,688959,DepthScenes,duration_manipulation_targetAtFixation,jsons/VE125_randls_49.json,http://54.235.29.9/FacialAge/BNav_EC2/DepthDuration/v2_depth_duration_MTurk/v2_DepthDuration_HTML.html#224,224,1326,730,1536,864,9-3-2022,9-14-1,132,depth_duration_stimuli/000854_2014-06-09_19-43-13_260595134347_rgbf000066-resize_0/000854_2014-06-09_19-43-13_260595134347_rgbf000066-resize_0-target.png,125,3.068,4,1849,116,feet,jsons/VE125_randls_49.json,555805,773093,36,Woman
132,688959,DepthScenes,duration_manipulation_targetAtFixation,jsons/VE125_randls_49.json,http://54.235.29.9/FacialAge/BNav_EC2/DepthDuration/v2_depth_duration_MTurk/v2_DepthDuration_HTML.html#224,224,1326,730,1536,864,9-3-2022,9-14-1,133,depth_duration_stimuli/002118_2014-06-25_20-32-08_260595134347_rgbf000078-resize_1/002118_2014-06-25_20-32-08_260595134347_rgbf000078-resize_1-target.png,125,2.6460000000000004,4,2612,126,feet,jsons/VE125_randls_49.json,555805,773093,36,Woman
133,688959,DepthScenes,duration_manipulation_targetAtFixation,jsons/VE125_randls_49.json,http://54.235.29.9/FacialAge/BNav_EC2/DepthDuration/v2_depth_duration_MTurk/v2_DepthDuration_HTML.html#224,224,1326,730,1536,864,9-3-2022,9-14-1,134,depth_duration_stimuli/001516_2014-06-20_16-25-09_260595134347_rgbf000076-resize_2/001516_2014-06-20_16-25-09_260595134347_rgbf000076-resize_2-target.png,125,1.7445,8,2749,124,feet,jsons/VE125_randls_49.json,555805,773093,36,Woman
134,688959,DepthScenes,duration_manipulation_targetAtFixation,jsons/VE125_randls_49.json,http://54.235.29.9/FacialAge/BNav_EC2/DepthDuration/v2_depth_duration_MTurk/v2_DepthDuration_HTML.html#224,224,1326,730,1536,864,9-3-2022,9-14-1,135,depth_duration_stimuli/002072_2014-06-24_21-48-06_260595134347_rgbf000115-resize_0/002072_2014-06-24_21-48-06_260595134347_rgbf000115-resize-original.jpg,125,4.702,0,2504,152,feet,jsons/VE125_randls_49.json,555805,773093,36,Woman
135,688959,DepthScenes,duration_manipulation_targetAtFixation,jsons/VE125_randls_49.json,http://54.235.29.9/FacialAge/BNav_EC2/DepthDuration/v2_depth_duration_MTurk/v2_DepthDuration_HTML.html#224,224,1326,730,1536,864,9-3-2022,9-14-1,136,depth_duration_stimuli/002057_2014-06-24_21-00-13_260595134347_rgbf000120-resize_1/002057_2014-06-24_21-00-13_260595134347_rgbf000120-resize_1-target.png,125,2.967,7,2689,131,feet,jsons/VE125_randls_49.json,555805,773093,36,Woman
136,688959,DepthScenes,duration_manipulation_targetAtFixation,jsons/VE125_randls_49.json,http://54.235.29.9/FacialAge/BNav_EC2/DepthDuration/v2_depth_duration_MTurk/v2_DepthDuration_HTML.html#224,224,1326,730,1536,864,9-3-2022,9-14-1,137,depth_duration_stimuli/000709_2014-06-08_13-51-55_260595134347_rgbf000068-resize_3/000709_2014-06-08_13-51-55_260595134347_rgbf000068-resize_3-target.png,125,1.8030000000000002,0,2175,123,feet,jsons/VE125_randls_49.json,555805,773093,36,Woman
137,688959,DepthScenes,duration_manipulation_targetAtFixation,jsons/VE125_randls_49.json,http://54.235.29.9/FacialAge/BNav_EC2/DepthDuration/v2_depth_duration_MTurk/v2_DepthDuration_HTML.html#224,224,1326,730,1536,864,9-3-2022,9-14-1,138,depth_duration_stimuli/001011_2014-06-08_23-18-54_260595134347_rgbf000044-resize_4/001011_2014-06-08_23-18-54_260595134347_rgbf000044-resize_4-target.png,125,2.4730000000000003,4,2654,123,feet,jsons/VE125_randls_49.json,555805,773093,36,Woman
138,688959,DepthScenes,duration_manipulation_targetAtFixation,jsons/VE125_randls_49.json,http://54.235.29.9/FacialAge/BNav_EC2/DepthDuration/v2_depth_duration_MTurk/v2_DepthDuration_HTML.html#224,224,1326,730,1536,864,9-3-2022,9-14-1,139,depth_duration_stimuli/002875_2014-06-01_15-19-00_094959634447_rgbf000151-resize_1/002875_2014-06-01_15-19-00_094959634447_rgbf000151-resize_1-target.png,125,1.9675,5,2423,110,feet,jsons/VE125_randls_49.json,555805,773093,36,Woman
139,688959,DepthScenes,duration_manipulation_targetAtFixation,jsons/VE125_randls_49.json,http://54.235.29.9/FacialAge/BNav_EC2/DepthDuration/v2_depth_duration_MTurk/v2_DepthDuration_HTML.html#224,224,1326,730,1536,864,9-3-2022,9-14-1,140,depth_duration_stimuli/002630_2014-06-24_14-47-50_094959634447_rgbf000055-resize_1/002630_2014-06-24_14-47-50_094959634447_rgbf000055-resize_1-target.png,125,3.0095,7,2404,135,feet,jsons/VE125_randls_49.json,555805,773093,36,Woman
140,688959,DepthScenes,duration_manipulation_targetAtFixation,jsons/VE125_randls_49.json,http://54.235.29.9/FacialAge/BNav_EC2/DepthDuration/v2_depth_duration_MTurk/v2_DepthDuration_HTML.html#224,224,1326,730,1536,864,9-3-2022,9-14-1,141,depth_duration_stimuli/002758_2014-06-22_19-11-20_094959634447_rgbf000128-resize_1/002758_2014-06-22_19-11-20_094959634447_rgbf000128-resize_1-target.png,125,2.555,0,2393,117,feet,jsons/VE125_randls_49.json,555805,773093,36,Woman
141,688959,DepthScenes,duration_manipulation_targetAtFixation,jsons/VE125_randls_49.json,http://54.235.29.9/FacialAge/BNav_EC2/DepthDuration/v2_depth_duration_MTurk/v2_DepthDuration_HTML.html#224,224,1326,730,1536,864,9-3-2022,9-14-1,142,depth_duration_stimuli/001092_2014-06-15_17-34-58_260595134347_rgbf000171-resize_3/001092_2014-06-15_17-34-58_260595134347_rgbf000171-resize_3-target.png,125,2.6935,3,2601,131,feet,jsons/VE125_randls_49.json,555805,773093,36,Woman
142,688959,DepthScenes,duration_manipulation_targetAtFixation,jsons/VE125_randls_49.json,http://54.235.29.9/FacialAge/BNav_EC2/DepthDuration/v2_depth_duration_MTurk/v2_DepthDuration_HTML.html#224,224,1326,730,1536,864,9-3-2022,9-14-1,143,depth_duration_stimuli/002545_2014-06-24_13-38-53_094959634447_rgbf000080-resize_4/002545_2014-06-24_13-38-53_094959634447_rgbf000080-resize_4-target.png,125,1.9205,6,4643,125,feet,jsons/VE125_randls_49.json,555805,773093,36,Woman
143,688959,DepthScenes,duration_manipulation_targetAtFixation,jsons/VE125_randls_49.json,http://54.235.29.9/FacialAge/BNav_EC2/DepthDuration/v2_depth_duration_MTurk/v2_DepthDuration_HTML.html#224,224,1326,730,1536,864,9-3-2022,9-14-1,144,depth_duration_stimuli/002279_2014-06-28_18-55-32_260595134347_rgbf000040-resize_5/002279_2014-06-28_18-55-32_260595134347_rgbf000040-resize_5-target.png,125,1.5043333333333,3,3106,115,feet,jsons/VE125_randls_49.json,555805,773093,36,Woman
144,688959,DepthScenes,duration_manipulation_targetAtFixation,jsons/VE125_randls_49.json,http://54.235.29.9/FacialAge/BNav_EC2/DepthDuration/v2_depth_duration_MTurk/v2_DepthDuration_HTML.html#224,224,1326,730,1536,864,9-3-2022,9-14-1,145,depth_duration_stimuli/000635_2014-06-08_16-38-42_260595134347_rgbf000106-resize_1/000635_2014-06-08_16-38-42_260595134347_rgbf000106-resize_1-target.png,125,2.074,4,2453,102,feet,jsons/VE125_randls_49.json,555805,773093,36,Woman
145,688959,DepthScenes,duration_manipulation_targetAtFixation,jsons/VE125_randls_49.json,http://54.235.29.9/FacialAge/BNav_EC2/DepthDuration/v2_depth_duration_MTurk/v2_DepthDuration_HTML.html#224,224,1326,730,1536,864,9-3-2022,9-14-1,146,depth_duration_stimuli/001498_2014-06-19_17-45-14_260595134347_rgbf000129-resize_4/001498_2014-06-19_17-45-14_260595134347_rgbf000129-resize-original.jpg,125,1.4075,0,1939,132,feet,jsons/VE125_randls_49.json,555805,773093,36,Woman
146,688959,DepthScenes,duration_manipulation_targetAtFixation,jsons/VE125_randls_49.json,http://54.235.29.9/FacialAge/BNav_EC2/DepthDuration/v2_depth_duration_MTurk/v2_DepthDuration_HTML.html#224,224,1326,730,1536,864,9-3-2022,9-14-1,147,depth_duration_stimuli/000493_2014-06-09_21-01-18_260595134347_rgbf000196-resize_3/000493_2014-06-09_21-01-18_260595134347_rgbf000196-resize_3-target.png,125,3.44,8,2217,120,feet,jsons/VE125_randls_49.json,555805,773093,36,Woman
147,688959,DepthScenes,duration_manipulation_targetAtFixation,jsons/VE125_randls_49.json,http://54.235.29.9/FacialAge/BNav_EC2/DepthDuration/v2_depth_duration_MTurk/v2_DepthDuration_HTML.html#224,224,1326,730,1536,864,9-3-2022,9-14-1,148,depth_duration_stimuli/000191_2014-05-12_17-07-38_260595134347_rgbf000199-resize_0/000191_2014-05-12_17-07-38_260595134347_rgbf000199-resize_0-target.png,125,3.7995,8,2261,125,feet,jsons/VE125_randls_49.json,555805,773093,36,Woman
148,688959,DepthScenes,duration_manipulation_targetAtFixation,jsons/VE125_randls_49.json,http://54.235.29.9/FacialAge/BNav_EC2/DepthDuration/v2_depth_duration_MTurk/v2_DepthDuration_HTML.html#224,224,1326,730,1536,864,9-3-2022,9-14-1,149,depth_duration_stimuli/002600_2014-06-24_14-27-04_094959634447_rgbf000074-resize_2/002600_2014-06-24_14-27-04_094959634447_rgbf000074-resize_2-target.png,125,2.7575,4,2887,101,feet,jsons/VE125_randls_49.json,555805,773093,36,Woman
149,688959,DepthScenes,duration_manipulation_targetAtFixation,jsons/VE125_randls_49.json,http://54.235.29.9/FacialAge/BNav_EC2/DepthDuration/v2_depth_duration_MTurk/v2_DepthDuration_HTML.html#224,224,1326,730,1536,864,9-3-2022,9-14-1,150,depth_duration_stimuli/003228_2014-05-14_13-42-35_094959634447_rgbf000101-resize_1/003228_2014-05-14_13-42-35_094959634447_rgbf000101-resize_1-target.png,125,1.9680000000000002,3,2762,140,feet,jsons/VE125_randls_49.json,555805,773093,36,Woman
150,688959,DepthScenes,duration_manipulation_targetAtFixation,jsons/VE125_randls_49.json,http://54.235.29.9/FacialAge/BNav_EC2/DepthDuration/v2_depth_duration_MTurk/v2_DepthDuration_HTML.html#224,224,1326,730,1536,864,9-3-2022,9-14-1,151,depth_duration_stimuli/003621_2014-05-23_18-06-08_094959634447_rgbf000101-resize_1/003621_2014-05-23_18-06-08_094959634447_rgbf000101-resize_1-target.png,125,3.9835,8,2252,138,feet,jsons/VE125_randls_49.json,555805,773093,36,Woman
151,688959,DepthScenes,duration_manipulation_targetAtFixation,jsons/VE125_randls_49.json,http://54.235.29.9/FacialAge/BNav_EC2/DepthDuration/v2_depth_duration_MTurk/v2_DepthDuration_HTML.html#224,224,1326,730,1536,864,9-3-2022,9-14-1,152,depth_duration_stimuli/001584_2014-06-20_11-07-43_260595134347_rgbf000002-resize_1/001584_2014-06-20_11-07-43_260595134347_rgbf000002-resize_1-target.png,125,3.53,7,19129,124,feet,jsons/VE125_randls_49.json,555805,773093,36,Woman
152,688959,DepthScenes,duration_manipulation_targetAtFixation,jsons/VE125_randls_49.json,http://54.235.29.9/FacialAge/BNav_EC2/DepthDuration/v2_depth_duration_MTurk/v2_DepthDuration_HTML.html#224,224,1326,730,1536,864,9-3-2022,9-14-1,153,depth_duration_stimuli/000929_2014-06-09_16-33-19_260595134347_rgbf000139-resize_0/000929_2014-06-09_16-33-19_260595134347_rgbf000139-resize_0-target.png,125,2.8680000000000003,6,4343,109,feet,jsons/VE125_randls_49.json,555805,773093,36,Woman
153,688959,DepthScenes,duration_manipulation_targetAtFixation,jsons/VE125_randls_49.json,http://54.235.29.9/FacialAge/BNav_EC2/DepthDuration/v2_depth_duration_MTurk/v2_DepthDuration_HTML.html#224,224,1326,730,1536,864,9-3-2022,9-14-1,154,depth_duration_stimuli/000457_2014-06-08_16-52-43_260595134347_rgbf000199-resize_1/000457_2014-06-08_16-52-43_260595134347_rgbf000199-resize_1-target.png,125,3.6489999999999996,4,2949,136,feet,jsons/VE125_randls_49.json,555805,773093,36,Woman
154,688959,DepthScenes,duration_manipulation_targetAtFixation,jsons/VE125_randls_49.json,http://54.235.29.9/FacialAge/BNav_EC2/DepthDuration/v2_depth_duration_MTurk/v2_DepthDuration_HTML.html#224,224,1326,730,1536,864,9-3-2022,9-14-1,155,depth_duration_stimuli/002213_2014-06-28_18-37-58_260595134347_rgbf000055-resize_1/002213_2014-06-28_18-37-58_260595134347_rgbf000055-resize_1-target.png,125,3.62,0,4573,122,feet,jsons/VE125_randls_49.json,555805,773093,36,Woman
155,688959,DepthScenes,duration_manipulation_targetAtFixation,jsons/VE125_randls_49.json,http://54.235.29.9/FacialAge/BNav_EC2/DepthDuration/v2_depth_duration_MTurk/v2_DepthDuration_HTML.html#224,224,1326,730,1536,864,9-3-2022,9-14-1,156,depth_duration_stimuli/000691_2014-06-08_13-08-50_260595134347_rgbf000132-resize_3/000691_2014-06-08_13-08-50_260595134347_rgbf000132-resize_3-target.png,125,4.1530000000000005,7,4230,130,feet,jsons/VE125_randls_49.json,555805,773093,36,Woman
156,688959,DepthScenes,duration_manipulation_targetAtFixation,jsons/VE125_randls_49.json,http://54.235.29.9/FacialAge/BNav_EC2/DepthDuration/v2_depth_duration_MTurk/v2_DepthDuration_HTML.html#224,224,1326,730,1536,864,9-3-2022,9-14-1,157,depth_duration_stimuli/000917_2014-06-09_22-45-29_260595134347_rgbf000149-resize_3/000917_2014-06-09_22-45-29_260595134347_rgbf000149-resize_3-target.png,125,4.1865,7,2164,148,feet,jsons/VE125_randls_49.json,555805,773093,36,Woman
157,688959,DepthScenes,duration_manipulation_targetAtFixation,jsons/VE125_randls_49.json,http://54.235.29.9/FacialAge/BNav_EC2/DepthDuration/v2_depth_duration_MTurk/v2_DepthDuration_HTML.html#224,224,1326,730,1536,864,9-3-2022,9-14-1,158,depth_duration_stimuli/002323_2014-06-28_20-01-54_260595134347_rgbf000051-resize_4/002323_2014-06-28_20-01-54_260595134347_rgbf000051-resize_4-target.png,125,3.7310000000000003,8,1885,103,feet,jsons/VE125_randls_49.json,555805,773093,36,Woman
158,688959,DepthScenes,duration_manipulation_targetAtFixation,jsons/VE125_randls_49.json,http://54.235.29.9/FacialAge/BNav_EC2/DepthDuration/v2_depth_duration_MTurk/v2_DepthDuration_HTML.html#224,224,1326,730,1536,864,9-3-2022,9-14-1,159,depth_duration_stimuli/001059_2014-06-08_21-53-27_260595134347_rgbf000061-resize_4/001059_2014-06-08_21-53-27_260595134347_rgbf000061-resize_4-target.png,125,2.4185,7,2585,116,feet,jsons/VE125_randls_49.json,555805,773093,36,Woman
159,688959,DepthScenes,duration_manipulation_targetAtFixation,jsons/VE125_randls_49.json,http://54.235.29.9/FacialAge/BNav_EC2/DepthDuration/v2_depth_duration_MTurk/v2_DepthDuration_HTML.html#224,224,1326,730,1536,864,9-3-2022,9-14-1,160,depth_duration_stimuli/001032_2014-06-08_13-23-17_260595134347_rgbf000021-resize_3/001032_2014-06-08_13-23-17_260595134347_rgbf000021-resize_3-target.png,125,3.2725,6,2768,132,feet,jsons/VE125_randls_49.json,555805,773093,36,Woman
160,688959,DepthScenes,duration_manipulation_targetAtFixation,jsons/VE125_randls_49.json,http://54.235.29.9/FacialAge/BNav_EC2/DepthDuration/v2_depth_duration_MTurk/v2_DepthDuration_HTML.html#224,224,1326,730,1536,864,9-3-2022,9-14-1,161,depth_duration_stimuli/000436_2014-06-09_22-25-11_260595134347_rgbf000137-resize_1/000436_2014-06-09_22-25-11_260595134347_rgbf000137-resize_1-target.png,125,4.0705,8,2538,130,feet,jsons/VE125_randls_49.json,555805,773093,36,Woman
161,688959,DepthScenes,duration_manipulation_targetAtFixation,jsons/VE125_randls_49.json,http://54.235.29.9/FacialAge/BNav_EC2/DepthDuration/v2_depth_duration_MTurk/v2_DepthDuration_HTML.html#224,224,1326,730,1536,864,9-3-2022,9-14-1,162,depth_duration_stimuli/002444_2014-06-28_20-32-08_260595134347_rgbf000027-resize_0/002444_2014-06-28_20-32-08_260595134347_rgbf000027-resize_0-target.png,125,4.388999999999999,8,2485,114,feet,jsons/VE125_randls_49.json,555805,773093,36,Woman
162,688959,DepthScenes,duration_manipulation_targetAtFixation,jsons/VE125_randls_49.json,http://54.235.29.9/FacialAge/BNav_EC2/DepthDuration/v2_depth_duration_MTurk/v2_DepthDuration_HTML.html#224,224,1326,730,1536,864,9-3-2022,9-14-1,163,depth_duration_stimuli/001150_2014-06-17_15-27-34_260595134347_rgbf000108-resize_2/001150_2014-06-17_15-27-34_260595134347_rgbf000108-resize_2-target.png,125,4.0325,7,2216,124,feet,jsons/VE125_randls_49.json,555805,773093,36,Woman
163,688959,DepthScenes,duration_manipulation_targetAtFixation,jsons/VE125_randls_49.json,http://54.235.29.9/FacialAge/BNav_EC2/DepthDuration/v2_depth_duration_MTurk/v2_DepthDuration_HTML.html#224,224,1326,730,1536,864,9-3-2022,9-14-1,164,depth_duration_stimuli/000665_2014-06-09_20-42-35_260595134347_rgbf000110-resize_1/000665_2014-06-09_20-42-35_260595134347_rgbf000110-resize_1-target.png,125,3.057,5,5251,111,feet,jsons/VE125_randls_49.json,555805,773093,36,Woman
