,subjID,experimentName,versionName,sequenceName,url,selected_row,windowWidth,windowHeight,screenWidth,screenHeight,startDate,startTime,trial,stimulus,duration,actual_depth,depth_estimate,trial_RT,log_sceneDuration,unitSelection,seq_filepath,experimentTime,totalTime,age,gender
0,692331,DepthScenes,duration_manipulation_targetAtFixation,jsons/VE125_randls_38.json,http://54.235.29.9/FacialAge/BNav_EC2/DepthDuration/v2_depth_duration_MTurk/v2_DepthDuration_HTML.html#112,112,1920,969,1920,1080,8-29-2022,9-42-1,1,depth_duration_stimuli/001199_2014-06-17_16-03-48_260595134347_rgbf000077-resize_0/001199_2014-06-17_16-03-48_260595134347_rgbf000077-resize_0-target.png,125,3.4375,6,4817,125,feet,jsons/VE125_randls_38.json,667656,922518,52,Man
1,692331,DepthScenes,duration_manipulation_targetAtFixation,jsons/VE125_randls_38.json,http://54.235.29.9/FacialAge/BNav_EC2/DepthDuration/v2_depth_duration_MTurk/v2_DepthDuration_HTML.html#112,112,1920,969,1920,1080,8-29-2022,9-42-1,2,depth_duration_stimuli/000502_2014-06-08_23-02-32_260595134347_rgbf000063-resize_4/000502_2014-06-08_23-02-32_260595134347_rgbf000063-resize_4-target.png,125,2.431,5,3998,110,feet,jsons/VE125_randls_38.json,667656,922518,52,Man
2,692331,DepthScenes,duration_manipulation_targetAtFixation,jsons/VE125_randls_38.json,http://54.235.29.9/FacialAge/BNav_EC2/DepthDuration/v2_depth_duration_MTurk/v2_DepthDuration_HTML.html#112,112,1920,969,1920,1080,8-29-2022,9-42-1,3,depth_duration_stimuli/002279_2014-06-28_18-55-32_260595134347_rgbf000040-resize_5/002279_2014-06-28_18-55-32_260595134347_rgbf000040-resize_5-target.png,125,1.5043333333333,3,3587,140,feet,jsons/VE125_randls_38.json,667656,922518,52,Man
3,692331,DepthScenes,duration_manipulation_targetAtFixation,jsons/VE125_randls_38.json,http://54.235.29.9/FacialAge/BNav_EC2/DepthDuration/v2_depth_duration_MTurk/v2_DepthDuration_HTML.html#112,112,1920,969,1920,1080,8-29-2022,9-42-1,4,depth_duration_stimuli/000635_2014-06-08_16-38-42_260595134347_rgbf000106-resize_1/000635_2014-06-08_16-38-42_260595134347_rgbf000106-resize_1-target.png,125,2.074,5,3764,125,feet,jsons/VE125_randls_38.json,667656,922518,52,Man
4,692331,DepthScenes,duration_manipulation_targetAtFixation,jsons/VE125_randls_38.json,http://54.235.29.9/FacialAge/BNav_EC2/DepthDuration/v2_depth_duration_MTurk/v2_DepthDuration_HTML.html#112,112,1920,969,1920,1080,8-29-2022,9-42-1,5,depth_duration_stimuli/001555_2014-06-20_17-12-10_260595134347_rgbf000065-resize_4/001555_2014-06-20_17-12-10_260595134347_rgbf000065-resize_4-target.png,125,1.633,3,3400,124,feet,jsons/VE125_randls_38.json,667656,922518,52,Man
5,692331,DepthScenes,duration_manipulation_targetAtFixation,jsons/VE125_randls_38.json,http://54.235.29.9/FacialAge/BNav_EC2/DepthDuration/v2_depth_duration_MTurk/v2_DepthDuration_HTML.html#112,112,1920,969,1920,1080,8-29-2022,9-42-1,6,depth_duration_stimuli/000103_2014-05-14_22-01-17_260595134347_rgbf000152-resize_5/000103_2014-05-14_22-01-17_260595134347_rgbf000152-resize_5-target.png,125,1.993,7,5248,125,feet,jsons/VE125_randls_38.json,667656,922518,52,Man
6,692331,DepthScenes,duration_manipulation_targetAtFixation,jsons/VE125_randls_38.json,http://54.235.29.9/FacialAge/BNav_EC2/DepthDuration/v2_depth_duration_MTurk/v2_DepthDuration_HTML.html#112,112,1920,969,1920,1080,8-29-2022,9-42-1,7,depth_duration_stimuli/001011_2014-06-08_23-18-54_260595134347_rgbf000044-resize_4/001011_2014-06-08_23-18-54_260595134347_rgbf000044-resize_4-target.png,125,2.4730000000000003,5,3229,138,feet,jsons/VE125_randls_38.json,667656,922518,52,Man
7,692331,DepthScenes,duration_manipulation_targetAtFixation,jsons/VE125_randls_38.json,http://54.235.29.9/FacialAge/BNav_EC2/DepthDuration/v2_depth_duration_MTurk/v2_DepthDuration_HTML.html#112,112,1920,969,1920,1080,8-29-2022,9-42-1,8,depth_duration_stimuli/002875_2014-06-01_15-19-00_094959634447_rgbf000151-resize_1/002875_2014-06-01_15-19-00_094959634447_rgbf000151-resize_1-target.png,125,1.9675,3,3065,123,feet,jsons/VE125_randls_38.json,667656,922518,52,Man
8,692331,DepthScenes,duration_manipulation_targetAtFixation,jsons/VE125_randls_38.json,http://54.235.29.9/FacialAge/BNav_EC2/DepthDuration/v2_depth_duration_MTurk/v2_DepthDuration_HTML.html#112,112,1920,969,1920,1080,8-29-2022,9-42-1,9,depth_duration_stimuli/001056_2014-06-08_18-46-44_260595134347_rgbf000068-resize_0/001056_2014-06-08_18-46-44_260595134347_rgbf000068-resize_0-target.png,125,2.6625,7,4082,123,feet,jsons/VE125_randls_38.json,667656,922518,52,Man
9,692331,DepthScenes,duration_manipulation_targetAtFixation,jsons/VE125_randls_38.json,http://54.235.29.9/FacialAge/BNav_EC2/DepthDuration/v2_depth_duration_MTurk/v2_DepthDuration_HTML.html#112,112,1920,969,1920,1080,8-29-2022,9-42-1,10,depth_duration_stimuli/002199_2014-06-28_18-33-56_260595134347_rgbf000074-resize_0/002199_2014-06-28_18-33-56_260595134347_rgbf000074-resize_0-target.png,125,1.996,3,2990,121,feet,jsons/VE125_randls_38.json,667656,922518,52,Man
10,692331,DepthScenes,duration_manipulation_targetAtFixation,jsons/VE125_randls_38.json,http://54.235.29.9/FacialAge/BNav_EC2/DepthDuration/v2_depth_duration_MTurk/v2_DepthDuration_HTML.html#112,112,1920,969,1920,1080,8-29-2022,9-42-1,11,depth_duration_stimuli/003621_2014-05-23_18-06-08_094959634447_rgbf000101-resize_1/003621_2014-05-23_18-06-08_094959634447_rgbf000101-resize_1-target.png,125,3.9835,15,5977,123,feet,jsons/VE125_randls_38.json,667656,922518,52,Man
11,692331,DepthScenes,duration_manipulation_targetAtFixation,jsons/VE125_randls_38.json,http://54.235.29.9/FacialAge/BNav_EC2/DepthDuration/v2_depth_duration_MTurk/v2_DepthDuration_HTML.html#112,112,1920,969,1920,1080,8-29-2022,9-42-1,12,depth_duration_stimuli/001584_2014-06-20_11-07-43_260595134347_rgbf000002-resize_1/001584_2014-06-20_11-07-43_260595134347_rgbf000002-resize_1-target.png,125,3.53,8,4634,137,feet,jsons/VE125_randls_38.json,667656,922518,52,Man
12,692331,DepthScenes,duration_manipulation_targetAtFixation,jsons/VE125_randls_38.json,http://54.235.29.9/FacialAge/BNav_EC2/DepthDuration/v2_depth_duration_MTurk/v2_DepthDuration_HTML.html#112,112,1920,969,1920,1080,8-29-2022,9-42-1,13,depth_duration_stimuli/000569_2014-06-09_22-51-47_260595134347_rgbf000141-resize_3/000569_2014-06-09_22-51-47_260595134347_rgbf000141-resize-original.jpg,125,4.512,0,3194,122,feet,jsons/VE125_randls_38.json,667656,922518,52,Man
13,692331,DepthScenes,duration_manipulation_targetAtFixation,jsons/VE125_randls_38.json,http://54.235.29.9/FacialAge/BNav_EC2/DepthDuration/v2_depth_duration_MTurk/v2_DepthDuration_HTML.html#112,112,1920,969,1920,1080,8-29-2022,9-42-1,14,depth_duration_stimuli/000642_2014-06-08_16-59-25_260595134347_rgbf000098-resize_2/000642_2014-06-08_16-59-25_260595134347_rgbf000098-resize_2-target.png,125,2.8815,8,2992,127,feet,jsons/VE125_randls_38.json,667656,922518,52,Man
14,692331,DepthScenes,duration_manipulation_targetAtFixation,jsons/VE125_randls_38.json,http://54.235.29.9/FacialAge/BNav_EC2/DepthDuration/v2_depth_duration_MTurk/v2_DepthDuration_HTML.html#112,112,1920,969,1920,1080,8-29-2022,9-42-1,15,depth_duration_stimuli/002425_2014-06-28_20-27-29_260595134347_rgbf000031-resize_8/002425_2014-06-28_20-27-29_260595134347_rgbf000031-resize_8-target.png,125,3.8960000000000004,10,3537,124,feet,jsons/VE125_randls_38.json,667656,922518,52,Man
15,692331,DepthScenes,duration_manipulation_targetAtFixation,jsons/VE125_randls_38.json,http://54.235.29.9/FacialAge/BNav_EC2/DepthDuration/v2_depth_duration_MTurk/v2_DepthDuration_HTML.html#112,112,1920,969,1920,1080,8-29-2022,9-42-1,16,depth_duration_stimuli/001092_2014-06-15_17-34-58_260595134347_rgbf000171-resize_3/001092_2014-06-15_17-34-58_260595134347_rgbf000171-resize_3-target.png,125,2.6935,6,3200,125,feet,jsons/VE125_randls_38.json,667656,922518,52,Man
16,692331,DepthScenes,duration_manipulation_targetAtFixation,jsons/VE125_randls_38.json,http://54.235.29.9/FacialAge/BNav_EC2/DepthDuration/v2_depth_duration_MTurk/v2_DepthDuration_HTML.html#112,112,1920,969,1920,1080,8-29-2022,9-42-1,17,depth_duration_stimuli/002545_2014-06-24_13-38-53_094959634447_rgbf000080-resize_4/002545_2014-06-24_13-38-53_094959634447_rgbf000080-resize_4-target.png,125,1.9205,5,2917,123,feet,jsons/VE125_randls_38.json,667656,922518,52,Man
17,692331,DepthScenes,duration_manipulation_targetAtFixation,jsons/VE125_randls_38.json,http://54.235.29.9/FacialAge/BNav_EC2/DepthDuration/v2_depth_duration_MTurk/v2_DepthDuration_HTML.html#112,112,1920,969,1920,1080,8-29-2022,9-42-1,18,depth_duration_stimuli/001167_2014-06-17_15-38-07_260595134347_rgbf000108-resize_0/001167_2014-06-17_15-38-07_260595134347_rgbf000108-resize_0-target.png,125,1.8505,5,2430,124,feet,jsons/VE125_randls_38.json,667656,922518,52,Man
18,692331,DepthScenes,duration_manipulation_targetAtFixation,jsons/VE125_randls_38.json,http://54.235.29.9/FacialAge/BNav_EC2/DepthDuration/v2_depth_duration_MTurk/v2_DepthDuration_HTML.html#112,112,1920,969,1920,1080,8-29-2022,9-42-1,19,depth_duration_stimuli/003587_2014-05-23_16-48-02_094959634447_rgbf002384-resize_2/003587_2014-05-23_16-48-02_094959634447_rgbf002384-resize_2-target.png,125,1.357,3,3651,123,feet,jsons/VE125_randls_38.json,667656,922518,52,Man
19,692331,DepthScenes,duration_manipulation_targetAtFixation,jsons/VE125_randls_38.json,http://54.235.29.9/FacialAge/BNav_EC2/DepthDuration/v2_depth_duration_MTurk/v2_DepthDuration_HTML.html#112,112,1920,969,1920,1080,8-29-2022,9-42-1,20,depth_duration_stimuli/000810_2014-06-08_17-20-01_260595134347_rgbf000105-resize_0/000810_2014-06-08_17-20-01_260595134347_rgbf000105-resize_0-target.png,125,1.4865,3,2983,135,feet,jsons/VE125_randls_38.json,667656,922518,52,Man
20,692331,DepthScenes,duration_manipulation_targetAtFixation,jsons/VE125_randls_38.json,http://54.235.29.9/FacialAge/BNav_EC2/DepthDuration/v2_depth_duration_MTurk/v2_DepthDuration_HTML.html#112,112,1920,969,1920,1080,8-29-2022,9-42-1,21,depth_duration_stimuli/001214_2014-06-17_16-13-55_260595134347_rgbf000111-resize_0/001214_2014-06-17_16-13-55_260595134347_rgbf000111-resize_0-target.png,125,2.6505,4,3722,125,feet,jsons/VE125_randls_38.json,667656,922518,52,Man
21,692331,DepthScenes,duration_manipulation_targetAtFixation,jsons/VE125_randls_38.json,http://54.235.29.9/FacialAge/BNav_EC2/DepthDuration/v2_depth_duration_MTurk/v2_DepthDuration_HTML.html#112,112,1920,969,1920,1080,8-29-2022,9-42-1,22,depth_duration_stimuli/000522_2014-06-08_13-35-06_260595134347_rgbf000244-resize_1/000522_2014-06-08_13-35-06_260595134347_rgbf000244-resize_1-target.png,125,2.3715,3,3716,124,feet,jsons/VE125_randls_38.json,667656,922518,52,Man
22,692331,DepthScenes,duration_manipulation_targetAtFixation,jsons/VE125_randls_38.json,http://54.235.29.9/FacialAge/BNav_EC2/DepthDuration/v2_depth_duration_MTurk/v2_DepthDuration_HTML.html#112,112,1920,969,1920,1080,8-29-2022,9-42-1,23,depth_duration_stimuli/002949_2014-06-26_15-57-42_094959634447_rgbf000079-resize_1/002949_2014-06-26_15-57-42_094959634447_rgbf000079-resize_1-target.png,125,1.8915,3,2803,110,feet,jsons/VE125_randls_38.json,667656,922518,52,Man
23,692331,DepthScenes,duration_manipulation_targetAtFixation,jsons/VE125_randls_38.json,http://54.235.29.9/FacialAge/BNav_EC2/DepthDuration/v2_depth_duration_MTurk/v2_DepthDuration_HTML.html#112,112,1920,969,1920,1080,8-29-2022,9-42-1,24,depth_duration_stimuli/002788_2014-06-22_19-36-03_094959634447_rgbf000088-resize_2/002788_2014-06-22_19-36-03_094959634447_rgbf000088-resize_2-target.png,125,1.6465,8,4702,123,feet,jsons/VE125_randls_38.json,667656,922518,52,Man
24,692331,DepthScenes,duration_manipulation_targetAtFixation,jsons/VE125_randls_38.json,http://54.235.29.9/FacialAge/BNav_EC2/DepthDuration/v2_depth_duration_MTurk/v2_DepthDuration_HTML.html#112,112,1920,969,1920,1080,8-29-2022,9-42-1,25,depth_duration_stimuli/000749_2014-06-08_21-55-06_260595134347_rgbf000070-resize_2/000749_2014-06-08_21-55-06_260595134347_rgbf000070-resize_2-target.png,125,2.331,5,3110,128,feet,jsons/VE125_randls_38.json,667656,922518,52,Man
25,692331,DepthScenes,duration_manipulation_targetAtFixation,jsons/VE125_randls_38.json,http://54.235.29.9/FacialAge/BNav_EC2/DepthDuration/v2_depth_duration_MTurk/v2_DepthDuration_HTML.html#112,112,1920,969,1920,1080,8-29-2022,9-42-1,26,depth_duration_stimuli/000493_2014-06-09_21-01-18_260595134347_rgbf000196-resize_3/000493_2014-06-09_21-01-18_260595134347_rgbf000196-resize_3-target.png,125,3.44,6,4039,126,feet,jsons/VE125_randls_38.json,667656,922518,52,Man
26,692331,DepthScenes,duration_manipulation_targetAtFixation,jsons/VE125_randls_38.json,http://54.235.29.9/FacialAge/BNav_EC2/DepthDuration/v2_depth_duration_MTurk/v2_DepthDuration_HTML.html#112,112,1920,969,1920,1080,8-29-2022,9-42-1,27,depth_duration_stimuli/000191_2014-05-12_17-07-38_260595134347_rgbf000199-resize_0/000191_2014-05-12_17-07-38_260595134347_rgbf000199-resize_0-target.png,125,3.7995,15,3503,124,feet,jsons/VE125_randls_38.json,667656,922518,52,Man
27,692331,DepthScenes,duration_manipulation_targetAtFixation,jsons/VE125_randls_38.json,http://54.235.29.9/FacialAge/BNav_EC2/DepthDuration/v2_depth_duration_MTurk/v2_DepthDuration_HTML.html#112,112,1920,969,1920,1080,8-29-2022,9-42-1,28,depth_duration_stimuli/000447_2014-06-08_16-15-46_260595134347_rgbf000130-resize_1/000447_2014-06-08_16-15-46_260595134347_rgbf000130-resize_1-target.png,125,4.479,15,3660,126,feet,jsons/VE125_randls_38.json,667656,922518,52,Man
28,692331,DepthScenes,duration_manipulation_targetAtFixation,jsons/VE125_randls_38.json,http://54.235.29.9/FacialAge/BNav_EC2/DepthDuration/v2_depth_duration_MTurk/v2_DepthDuration_HTML.html#112,112,1920,969,1920,1080,8-29-2022,9-42-1,29,depth_duration_stimuli/001447_2014-06-19_17-00-32_260595134347_rgbf000082-resize_5/001447_2014-06-19_17-00-32_260595134347_rgbf000082-resize_5-target.png,125,4.13775,5,4371,123,feet,jsons/VE125_randls_38.json,667656,922518,52,Man
29,692331,DepthScenes,duration_manipulation_targetAtFixation,jsons/VE125_randls_38.json,http://54.235.29.9/FacialAge/BNav_EC2/DepthDuration/v2_depth_duration_MTurk/v2_DepthDuration_HTML.html#112,112,1920,969,1920,1080,8-29-2022,9-42-1,30,depth_duration_stimuli/000375_2014-06-08_11-17-29_260595134347_rgbf000133-resize_2/000375_2014-06-08_11-17-29_260595134347_rgbf000133-resize-original.jpg,125,4.718,0,2457,122,feet,jsons/VE125_randls_38.json,667656,922518,52,Man
30,692331,DepthScenes,duration_manipulation_targetAtFixation,jsons/VE125_randls_38.json,http://54.235.29.9/FacialAge/BNav_EC2/DepthDuration/v2_depth_duration_MTurk/v2_DepthDuration_HTML.html#112,112,1920,969,1920,1080,8-29-2022,9-42-1,31,depth_duration_stimuli/000470_2014-06-09_19-42-40_260595134347_rgbf000094-resize_1/000470_2014-06-09_19-42-40_260595134347_rgbf000094-resize_1-target.png,125,1.831,4,3847,116,feet,jsons/VE125_randls_38.json,667656,922518,52,Man
31,692331,DepthScenes,duration_manipulation_targetAtFixation,jsons/VE125_randls_38.json,http://54.235.29.9/FacialAge/BNav_EC2/DepthDuration/v2_depth_duration_MTurk/v2_DepthDuration_HTML.html#112,112,1920,969,1920,1080,8-29-2022,9-42-1,32,depth_duration_stimuli/000109_2014-05-14_23-41-52_260595134347_rgbf000035-resize_9/000109_2014-05-14_23-41-52_260595134347_rgbf000035-resize_9-target.png,125,1.3545,3,2848,124,feet,jsons/VE125_randls_38.json,667656,922518,52,Man
32,692331,DepthScenes,duration_manipulation_targetAtFixation,jsons/VE125_randls_38.json,http://54.235.29.9/FacialAge/BNav_EC2/DepthDuration/v2_depth_duration_MTurk/v2_DepthDuration_HTML.html#112,112,1920,969,1920,1080,8-29-2022,9-42-1,33,depth_duration_stimuli/002964_2014-06-08_17-46-11_094959634447_rgbf000091-resize_4/002964_2014-06-08_17-46-11_094959634447_rgbf000091-resize_4-target.png,125,1.6909999999999998,2,2665,138,feet,jsons/VE125_randls_38.json,667656,922518,52,Man
33,692331,DepthScenes,duration_manipulation_targetAtFixation,jsons/VE125_randls_38.json,http://54.235.29.9/FacialAge/BNav_EC2/DepthDuration/v2_depth_duration_MTurk/v2_DepthDuration_HTML.html#112,112,1920,969,1920,1080,8-29-2022,9-42-1,34,depth_duration_stimuli/002136_2014-06-25_21-18-03_260595134347_rgbf000109-resize_3/002136_2014-06-25_21-18-03_260595134347_rgbf000109-resize_3-target.png,125,1.9569999999999999,5,2753,136,feet,jsons/VE125_randls_38.json,667656,922518,52,Man
34,692331,DepthScenes,duration_manipulation_targetAtFixation,jsons/VE125_randls_38.json,http://54.235.29.9/FacialAge/BNav_EC2/DepthDuration/v2_depth_duration_MTurk/v2_DepthDuration_HTML.html#112,112,1920,969,1920,1080,8-29-2022,9-42-1,35,depth_duration_stimuli/002375_2014-06-28_20-13-44_260595134347_rgbf000032-resize_1/002375_2014-06-28_20-13-44_260595134347_rgbf000032-resize_1-target.png,125,4.0175,6,3784,125,feet,jsons/VE125_randls_38.json,667656,922518,52,Man
35,692331,DepthScenes,duration_manipulation_targetAtFixation,jsons/VE125_randls_38.json,http://54.235.29.9/FacialAge/BNav_EC2/DepthDuration/v2_depth_duration_MTurk/v2_DepthDuration_HTML.html#112,112,1920,969,1920,1080,8-29-2022,9-42-1,36,depth_duration_stimuli/002657_2014-06-13_15-29-54_094959634447_rgbf000150-resize_1/002657_2014-06-13_15-29-54_094959634447_rgbf000150-resize_1-target.png,125,4.919,10,2746,140,feet,jsons/VE125_randls_38.json,667656,922518,52,Man
36,692331,DepthScenes,duration_manipulation_targetAtFixation,jsons/VE125_randls_38.json,http://54.235.29.9/FacialAge/BNav_EC2/DepthDuration/v2_depth_duration_MTurk/v2_DepthDuration_HTML.html#112,112,1920,969,1920,1080,8-29-2022,9-42-1,37,depth_duration_stimuli/001066_2014-06-08_22-03-20_260595134347_rgbf000066-resize_4/001066_2014-06-08_22-03-20_260595134347_rgbf000066-resize_4-target.png,125,4.2330000000000005,20,2829,124,feet,jsons/VE125_randls_38.json,667656,922518,52,Man
37,692331,DepthScenes,duration_manipulation_targetAtFixation,jsons/VE125_randls_38.json,http://54.235.29.9/FacialAge/BNav_EC2/DepthDuration/v2_depth_duration_MTurk/v2_DepthDuration_HTML.html#112,112,1920,969,1920,1080,8-29-2022,9-42-1,38,depth_duration_stimuli/000742_2014-06-08_18-48-09_260595134347_rgbf000164-resize_4/000742_2014-06-08_18-48-09_260595134347_rgbf000164-resize_4-target.png,125,4.632,20,2699,123,feet,jsons/VE125_randls_38.json,667656,922518,52,Man
38,692331,DepthScenes,duration_manipulation_targetAtFixation,jsons/VE125_randls_38.json,http://54.235.29.9/FacialAge/BNav_EC2/DepthDuration/v2_depth_duration_MTurk/v2_DepthDuration_HTML.html#112,112,1920,969,1920,1080,8-29-2022,9-42-1,39,depth_duration_stimuli/001150_2014-06-17_15-27-34_260595134347_rgbf000108-resize_2/001150_2014-06-17_15-27-34_260595134347_rgbf000108-resize_2-target.png,125,4.0325,6,3357,125,feet,jsons/VE125_randls_38.json,667656,922518,52,Man
39,692331,DepthScenes,duration_manipulation_targetAtFixation,jsons/VE125_randls_38.json,http://54.235.29.9/FacialAge/BNav_EC2/DepthDuration/v2_depth_duration_MTurk/v2_DepthDuration_HTML.html#112,112,1920,969,1920,1080,8-29-2022,9-42-1,40,depth_duration_stimuli/000665_2014-06-09_20-42-35_260595134347_rgbf000110-resize_1/000665_2014-06-09_20-42-35_260595134347_rgbf000110-resize_1-target.png,125,3.057,7,3508,111,feet,jsons/VE125_randls_38.json,667656,922518,52,Man
40,692331,DepthScenes,duration_manipulation_targetAtFixation,jsons/VE125_randls_38.json,http://54.235.29.9/FacialAge/BNav_EC2/DepthDuration/v2_depth_duration_MTurk/v2_DepthDuration_HTML.html#112,112,1920,969,1920,1080,8-29-2022,9-42-1,41,depth_duration_stimuli/001806_2014-06-26_20-50-20_260595134347_rgbf000091-resize_1/001806_2014-06-26_20-50-20_260595134347_rgbf000091-resize_1-target.png,125,2.7305,4,3578,124,feet,jsons/VE125_randls_38.json,667656,922518,52,Man
41,692331,DepthScenes,duration_manipulation_targetAtFixation,jsons/VE125_randls_38.json,http://54.235.29.9/FacialAge/BNav_EC2/DepthDuration/v2_depth_duration_MTurk/v2_DepthDuration_HTML.html#112,112,1920,969,1920,1080,8-29-2022,9-42-1,42,depth_duration_stimuli/001617_2014-06-20_11-35-32_260595134347_rgbf000066-resize_1/001617_2014-06-20_11-35-32_260595134347_rgbf000066-resize_1-target.png,125,3.7910000000000004,15,2987,125,feet,jsons/VE125_randls_38.json,667656,922518,52,Man
42,692331,DepthScenes,duration_manipulation_targetAtFixation,jsons/VE125_randls_38.json,http://54.235.29.9/FacialAge/BNav_EC2/DepthDuration/v2_depth_duration_MTurk/v2_DepthDuration_HTML.html#112,112,1920,969,1920,1080,8-29-2022,9-42-1,43,depth_duration_stimuli/000736_2014-06-08_18-24-15_260595134347_rgbf000206-resize_3/000736_2014-06-08_18-24-15_260595134347_rgbf000206-resize_3-target.png,125,3.515,5,3717,111,feet,jsons/VE125_randls_38.json,667656,922518,52,Man
43,692331,DepthScenes,duration_manipulation_targetAtFixation,jsons/VE125_randls_38.json,http://54.235.29.9/FacialAge/BNav_EC2/DepthDuration/v2_depth_duration_MTurk/v2_DepthDuration_HTML.html#112,112,1920,969,1920,1080,8-29-2022,9-42-1,44,depth_duration_stimuli/000137_2014-05-20_17-04-49_260595134347_rgbf000120-resize_1/000137_2014-05-20_17-04-49_260595134347_rgbf000120-resize_1-target.png,125,3.786,10,4125,123,feet,jsons/VE125_randls_38.json,667656,922518,52,Man
44,692331,DepthScenes,duration_manipulation_targetAtFixation,jsons/VE125_randls_38.json,http://54.235.29.9/FacialAge/BNav_EC2/DepthDuration/v2_depth_duration_MTurk/v2_DepthDuration_HTML.html#112,112,1920,969,1920,1080,8-29-2022,9-42-1,45,depth_duration_stimuli/000787_2014-06-08_22-33-53_260595134347_rgbf000175-resize_1/000787_2014-06-08_22-33-53_260595134347_rgbf000175-resize-original.jpg,125,4.784,0,2644,122,feet,jsons/VE125_randls_38.json,667656,922518,52,Man
45,692331,DepthScenes,duration_manipulation_targetAtFixation,jsons/VE125_randls_38.json,http://54.235.29.9/FacialAge/BNav_EC2/DepthDuration/v2_depth_duration_MTurk/v2_DepthDuration_HTML.html#112,112,1920,969,1920,1080,8-29-2022,9-42-1,46,depth_duration_stimuli/003292_2014-05-14_21-53-49_094959634447_rgbf000100-resize_2/003292_2014-05-14_21-53-49_094959634447_rgbf000100-resize_2-target.png,125,3.4815,5,2665,126,feet,jsons/VE125_randls_38.json,667656,922518,52,Man
46,692331,DepthScenes,duration_manipulation_targetAtFixation,jsons/VE125_randls_38.json,http://54.235.29.9/FacialAge/BNav_EC2/DepthDuration/v2_depth_duration_MTurk/v2_DepthDuration_HTML.html#112,112,1920,969,1920,1080,8-29-2022,9-42-1,47,depth_duration_stimuli/002639_2014-06-24_14-51-37_094959634447_rgbf000074-resize_4/002639_2014-06-24_14-51-37_094959634447_rgbf000074-resize_4-target.png,125,4.0375,5,3277,126,feet,jsons/VE125_randls_38.json,667656,922518,52,Man
47,692331,DepthScenes,duration_manipulation_targetAtFixation,jsons/VE125_randls_38.json,http://54.235.29.9/FacialAge/BNav_EC2/DepthDuration/v2_depth_duration_MTurk/v2_DepthDuration_HTML.html#112,112,1920,969,1920,1080,8-29-2022,9-42-1,48,depth_duration_stimuli/000436_2014-06-09_22-25-11_260595134347_rgbf000137-resize_1/000436_2014-06-09_22-25-11_260595134347_rgbf000137-resize_1-target.png,125,4.0705,15,3007,126,feet,jsons/VE125_randls_38.json,667656,922518,52,Man
48,692331,DepthScenes,duration_manipulation_targetAtFixation,jsons/VE125_randls_38.json,http://54.235.29.9/FacialAge/BNav_EC2/DepthDuration/v2_depth_duration_MTurk/v2_DepthDuration_HTML.html#112,112,1920,969,1920,1080,8-29-2022,9-42-1,49,depth_duration_stimuli/002444_2014-06-28_20-32-08_260595134347_rgbf000027-resize_0/002444_2014-06-28_20-32-08_260595134347_rgbf000027-resize_0-target.png,125,4.388999999999999,8,3057,125,feet,jsons/VE125_randls_38.json,667656,922518,52,Man
49,692331,DepthScenes,duration_manipulation_targetAtFixation,jsons/VE125_randls_38.json,http://54.235.29.9/FacialAge/BNav_EC2/DepthDuration/v2_depth_duration_MTurk/v2_DepthDuration_HTML.html#112,112,1920,969,1920,1080,8-29-2022,9-42-1,50,depth_duration_stimuli/001164_2014-06-17_15-35-46_260595134347_rgbf000085-resize_3/001164_2014-06-17_15-35-46_260595134347_rgbf000085-resize_3-target.png,125,2.354,7,3047,118,feet,jsons/VE125_randls_38.json,667656,922518,52,Man
50,692331,DepthScenes,duration_manipulation_targetAtFixation,jsons/VE125_randls_38.json,http://54.235.29.9/FacialAge/BNav_EC2/DepthDuration/v2_depth_duration_MTurk/v2_DepthDuration_HTML.html#112,112,1920,969,1920,1080,8-29-2022,9-42-1,51,depth_duration_stimuli/001136_2014-06-17_15-19-41_260595134347_rgbf000076-resize_3/001136_2014-06-17_15-19-41_260595134347_rgbf000076-resize_3-target.png,125,1.8655,4,3128,126,feet,jsons/VE125_randls_38.json,667656,922518,52,Man
51,692331,DepthScenes,duration_manipulation_targetAtFixation,jsons/VE125_randls_38.json,http://54.235.29.9/FacialAge/BNav_EC2/DepthDuration/v2_depth_duration_MTurk/v2_DepthDuration_HTML.html#112,112,1920,969,1920,1080,8-29-2022,9-42-1,52,depth_duration_stimuli/001808_2014-06-26_20-50-58_260595134347_rgbf000029-resize_1/001808_2014-06-26_20-50-58_260595134347_rgbf000029-resize_1-target.png,125,4.249,10,2705,133,feet,jsons/VE125_randls_38.json,667656,922518,52,Man
52,692331,DepthScenes,duration_manipulation_targetAtFixation,jsons/VE125_randls_38.json,http://54.235.29.9/FacialAge/BNav_EC2/DepthDuration/v2_depth_duration_MTurk/v2_DepthDuration_HTML.html#112,112,1920,969,1920,1080,8-29-2022,9-42-1,53,depth_duration_stimuli/001815_2014-06-26_20-52-55_260595134347_rgbf000020-resize_0/001815_2014-06-26_20-52-55_260595134347_rgbf000020-resize_0-target.png,125,3.3865,10,3508,126,feet,jsons/VE125_randls_38.json,667656,922518,52,Man
53,692331,DepthScenes,duration_manipulation_targetAtFixation,jsons/VE125_randls_38.json,http://54.235.29.9/FacialAge/BNav_EC2/DepthDuration/v2_depth_duration_MTurk/v2_DepthDuration_HTML.html#112,112,1920,969,1920,1080,8-29-2022,9-42-1,54,depth_duration_stimuli/001449_2014-06-19_17-01-27_260595134347_rgbf000116-resize_2/001449_2014-06-19_17-01-27_260595134347_rgbf000116-resize_2-target.png,125,3.452,6,3858,129,feet,jsons/VE125_randls_38.json,667656,922518,52,Man
54,692331,DepthScenes,duration_manipulation_targetAtFixation,jsons/VE125_randls_38.json,http://54.235.29.9/FacialAge/BNav_EC2/DepthDuration/v2_depth_duration_MTurk/v2_DepthDuration_HTML.html#112,112,1920,969,1920,1080,8-29-2022,9-42-1,55,depth_duration_stimuli/001450_2014-06-19_17-02-03_260595134347_rgbf000203-resize_4/001450_2014-06-19_17-02-03_260595134347_rgbf000203-resize_4-target.png,125,4.0106666666667,15,2921,125,feet,jsons/VE125_randls_38.json,667656,922518,52,Man
55,692331,DepthScenes,duration_manipulation_targetAtFixation,jsons/VE125_randls_38.json,http://54.235.29.9/FacialAge/BNav_EC2/DepthDuration/v2_depth_duration_MTurk/v2_DepthDuration_HTML.html#112,112,1920,969,1920,1080,8-29-2022,9-42-1,56,depth_duration_stimuli/000009_2014-05-26_14-32-05_260595134347_rgbf000034-resize_3/000009_2014-05-26_14-32-05_260595134347_rgbf000034-resize_3-target.png,125,3.8715,12,6322,123,feet,jsons/VE125_randls_38.json,667656,922518,52,Man
56,692331,DepthScenes,duration_manipulation_targetAtFixation,jsons/VE125_randls_38.json,http://54.235.29.9/FacialAge/BNav_EC2/DepthDuration/v2_depth_duration_MTurk/v2_DepthDuration_HTML.html#112,112,1920,969,1920,1080,8-29-2022,9-42-1,57,depth_duration_stimuli/001828_2014-06-26_21-40-03_260595134347_rgbf000024-resize_0/001828_2014-06-26_21-40-03_260595134347_rgbf000024-resize_0-target.png,125,4.8260000000000005,15,2785,125,feet,jsons/VE125_randls_38.json,667656,922518,52,Man
57,692331,DepthScenes,duration_manipulation_targetAtFixation,jsons/VE125_randls_38.json,http://54.235.29.9/FacialAge/BNav_EC2/DepthDuration/v2_depth_duration_MTurk/v2_DepthDuration_HTML.html#112,112,1920,969,1920,1080,8-29-2022,9-42-1,58,depth_duration_stimuli/000788_2014-06-08_22-34-36_260595134347_rgbf000131-resize_1/000788_2014-06-08_22-34-36_260595134347_rgbf000131-resize_1-target.png,125,3.359,5,2702,126,feet,jsons/VE125_randls_38.json,667656,922518,52,Man
58,692331,DepthScenes,duration_manipulation_targetAtFixation,jsons/VE125_randls_38.json,http://54.235.29.9/FacialAge/BNav_EC2/DepthDuration/v2_depth_duration_MTurk/v2_DepthDuration_HTML.html#112,112,1920,969,1920,1080,8-29-2022,9-42-1,59,depth_duration_stimuli/001235_2014-06-17_16-37-36_260595134347_rgbf000084-resize_4/001235_2014-06-17_16-37-36_260595134347_rgbf000084-resize_4-target.png,125,3.6605,5,3085,138,feet,jsons/VE125_randls_38.json,667656,922518,52,Man
59,692331,DepthScenes,duration_manipulation_targetAtFixation,jsons/VE125_randls_38.json,http://54.235.29.9/FacialAge/BNav_EC2/DepthDuration/v2_depth_duration_MTurk/v2_DepthDuration_HTML.html#112,112,1920,969,1920,1080,8-29-2022,9-42-1,60,depth_duration_stimuli/002988_2014-06-15_12-24-20_094959634447_rgbf000150-resize_1/002988_2014-06-15_12-24-20_094959634447_rgbf000150-resize_1-target.png,125,4.7669999999999995,12,5833,123,feet,jsons/VE125_randls_38.json,667656,922518,52,Man
60,692331,DepthScenes,duration_manipulation_targetAtFixation,jsons/VE125_randls_38.json,http://54.235.29.9/FacialAge/BNav_EC2/DepthDuration/v2_depth_duration_MTurk/v2_DepthDuration_HTML.html#112,112,1920,969,1920,1080,8-29-2022,9-42-1,61,depth_duration_stimuli/001052_2014-06-08_18-24-54_260595134347_rgbf000130-resize_1/001052_2014-06-08_18-24-54_260595134347_rgbf000130-resize_1-target.png,125,4.1045,8,3024,126,feet,jsons/VE125_randls_38.json,667656,922518,52,Man
61,692331,DepthScenes,duration_manipulation_targetAtFixation,jsons/VE125_randls_38.json,http://54.235.29.9/FacialAge/BNav_EC2/DepthDuration/v2_depth_duration_MTurk/v2_DepthDuration_HTML.html#112,112,1920,969,1920,1080,8-29-2022,9-42-1,62,depth_duration_stimuli/002445_2014-06-28_20-32-16_260595134347_rgbf000029-resize_4/002445_2014-06-28_20-32-16_260595134347_rgbf000029-resize_4-target.png,125,2.5315,6,3882,128,feet,jsons/VE125_randls_38.json,667656,922518,52,Man
62,692331,DepthScenes,duration_manipulation_targetAtFixation,jsons/VE125_randls_38.json,http://54.235.29.9/FacialAge/BNav_EC2/DepthDuration/v2_depth_duration_MTurk/v2_DepthDuration_HTML.html#112,112,1920,969,1920,1080,8-29-2022,9-42-1,63,depth_duration_stimuli/000780_2014-06-08_22-28-29_260595134347_rgbf000126-resize_1/000780_2014-06-08_22-28-29_260595134347_rgbf000126-resize_1-target.png,125,3.3825,10,2667,126,feet,jsons/VE125_randls_38.json,667656,922518,52,Man
63,692331,DepthScenes,duration_manipulation_targetAtFixation,jsons/VE125_randls_38.json,http://54.235.29.9/FacialAge/BNav_EC2/DepthDuration/v2_depth_duration_MTurk/v2_DepthDuration_HTML.html#112,112,1920,969,1920,1080,8-29-2022,9-42-1,64,depth_duration_stimuli/002118_2014-06-25_20-32-08_260595134347_rgbf000078-resize_1/002118_2014-06-25_20-32-08_260595134347_rgbf000078-resize_1-target.png,125,2.6460000000000004,5,3216,124,feet,jsons/VE125_randls_38.json,667656,922518,52,Man
64,692331,DepthScenes,duration_manipulation_targetAtFixation,jsons/VE125_randls_38.json,http://54.235.29.9/FacialAge/BNav_EC2/DepthDuration/v2_depth_duration_MTurk/v2_DepthDuration_HTML.html#112,112,1920,969,1920,1080,8-29-2022,9-42-1,65,depth_duration_stimuli/001516_2014-06-20_16-25-09_260595134347_rgbf000076-resize_2/001516_2014-06-20_16-25-09_260595134347_rgbf000076-resize_2-target.png,125,1.7445,3,2628,126,feet,jsons/VE125_randls_38.json,667656,922518,52,Man
65,692331,DepthScenes,duration_manipulation_targetAtFixation,jsons/VE125_randls_38.json,http://54.235.29.9/FacialAge/BNav_EC2/DepthDuration/v2_depth_duration_MTurk/v2_DepthDuration_HTML.html#112,112,1920,969,1920,1080,8-29-2022,9-42-1,66,depth_duration_stimuli/001222_2014-06-17_16-24-06_260595134347_rgbf000073-resize_0/001222_2014-06-17_16-24-06_260595134347_rgbf000073-resize-original.jpg,125,1.4385,0,2674,139,feet,jsons/VE125_randls_38.json,667656,922518,52,Man
66,692331,DepthScenes,duration_manipulation_targetAtFixation,jsons/VE125_randls_38.json,http://54.235.29.9/FacialAge/BNav_EC2/DepthDuration/v2_depth_duration_MTurk/v2_DepthDuration_HTML.html#112,112,1920,969,1920,1080,8-29-2022,9-42-1,67,depth_duration_stimuli/001016_2014-06-09_16-16-10_260595134347_rgbf000112-resize_5/001016_2014-06-09_16-16-10_260595134347_rgbf000112-resize_5-target.png,125,1.6565,3,3983,138,feet,jsons/VE125_randls_38.json,667656,922518,52,Man
67,692331,DepthScenes,duration_manipulation_targetAtFixation,jsons/VE125_randls_38.json,http://54.235.29.9/FacialAge/BNav_EC2/DepthDuration/v2_depth_duration_MTurk/v2_DepthDuration_HTML.html#112,112,1920,969,1920,1080,8-29-2022,9-42-1,68,depth_duration_stimuli/002340_2014-06-28_20-05-46_260595134347_rgbf000113-resize_0/002340_2014-06-28_20-05-46_260595134347_rgbf000113-resize_0-target.png,125,2.4735,8,4455,122,feet,jsons/VE125_randls_38.json,667656,922518,52,Man
68,692331,DepthScenes,duration_manipulation_targetAtFixation,jsons/VE125_randls_38.json,http://54.235.29.9/FacialAge/BNav_EC2/DepthDuration/v2_depth_duration_MTurk/v2_DepthDuration_HTML.html#112,112,1920,969,1920,1080,8-29-2022,9-42-1,69,depth_duration_stimuli/002213_2014-06-28_18-37-58_260595134347_rgbf000055-resize_1/002213_2014-06-28_18-37-58_260595134347_rgbf000055-resize_1-target.png,125,3.62,10,2595,124,feet,jsons/VE125_randls_38.json,667656,922518,52,Man
69,692331,DepthScenes,duration_manipulation_targetAtFixation,jsons/VE125_randls_38.json,http://54.235.29.9/FacialAge/BNav_EC2/DepthDuration/v2_depth_duration_MTurk/v2_DepthDuration_HTML.html#112,112,1920,969,1920,1080,8-29-2022,9-42-1,70,depth_duration_stimuli/000691_2014-06-08_13-08-50_260595134347_rgbf000132-resize_3/000691_2014-06-08_13-08-50_260595134347_rgbf000132-resize_3-target.png,125,4.1530000000000005,8,2654,125,feet,jsons/VE125_randls_38.json,667656,922518,52,Man
70,692331,DepthScenes,duration_manipulation_targetAtFixation,jsons/VE125_randls_38.json,http://54.235.29.9/FacialAge/BNav_EC2/DepthDuration/v2_depth_duration_MTurk/v2_DepthDuration_HTML.html#112,112,1920,969,1920,1080,8-29-2022,9-42-1,71,depth_duration_stimuli/003534_2014-05-22_15-06-10_094959634447_rgbf000102-resize_4/003534_2014-05-22_15-06-10_094959634447_rgbf000102-resize_4-target.png,125,1.426,3,3188,123,feet,jsons/VE125_randls_38.json,667656,922518,52,Man
71,692331,DepthScenes,duration_manipulation_targetAtFixation,jsons/VE125_randls_38.json,http://54.235.29.9/FacialAge/BNav_EC2/DepthDuration/v2_depth_duration_MTurk/v2_DepthDuration_HTML.html#112,112,1920,969,1920,1080,8-29-2022,9-42-1,72,depth_duration_stimuli/002637_2014-06-24_14-51-13_094959634447_rgbf000066-resize_4/002637_2014-06-24_14-51-13_094959634447_rgbf000066-resize_4-target.png,125,1.9955,5,2446,126,feet,jsons/VE125_randls_38.json,667656,922518,52,Man
72,692331,DepthScenes,duration_manipulation_targetAtFixation,jsons/VE125_randls_38.json,http://54.235.29.9/FacialAge/BNav_EC2/DepthDuration/v2_depth_duration_MTurk/v2_DepthDuration_HTML.html#112,112,1920,969,1920,1080,8-29-2022,9-42-1,73,depth_duration_stimuli/002905_2014-06-03_18-04-43_094959634447_rgbf000151-resize_2/002905_2014-06-03_18-04-43_094959634447_rgbf000151-resize_2-target.png,125,2.0295,5,2491,125,feet,jsons/VE125_randls_38.json,667656,922518,52,Man
73,692331,DepthScenes,duration_manipulation_targetAtFixation,jsons/VE125_randls_38.json,http://54.235.29.9/FacialAge/BNav_EC2/DepthDuration/v2_depth_duration_MTurk/v2_DepthDuration_HTML.html#112,112,1920,969,1920,1080,8-29-2022,9-42-1,74,depth_duration_stimuli/003423_2014-05-21_10-23-26_094959634447_rgbf002665-resize_2/003423_2014-05-21_10-23-26_094959634447_rgbf002665-resize_2-target.png,125,3.2575,12,4204,123,feet,jsons/VE125_randls_38.json,667656,922518,52,Man
74,692331,DepthScenes,duration_manipulation_targetAtFixation,jsons/VE125_randls_38.json,http://54.235.29.9/FacialAge/BNav_EC2/DepthDuration/v2_depth_duration_MTurk/v2_DepthDuration_HTML.html#112,112,1920,969,1920,1080,8-29-2022,9-42-1,75,depth_duration_stimuli/002272_2014-06-28_18-53-56_260595134347_rgbf000067-resize_2/002272_2014-06-28_18-53-56_260595134347_rgbf000067-resize_2-target.png,125,1.138,2,2473,125,feet,jsons/VE125_randls_38.json,667656,922518,52,Man
75,692331,DepthScenes,duration_manipulation_targetAtFixation,jsons/VE125_randls_38.json,http://54.235.29.9/FacialAge/BNav_EC2/DepthDuration/v2_depth_duration_MTurk/v2_DepthDuration_HTML.html#112,112,1920,969,1920,1080,8-29-2022,9-42-1,76,depth_duration_stimuli/001571_2014-06-20_17-21-32_260595134347_rgbf000089-resize_1/001571_2014-06-20_17-21-32_260595134347_rgbf000089-resize_1-target.png,125,1.86,4,3271,125,feet,jsons/VE125_randls_38.json,667656,922518,52,Man
76,692331,DepthScenes,duration_manipulation_targetAtFixation,jsons/VE125_randls_38.json,http://54.235.29.9/FacialAge/BNav_EC2/DepthDuration/v2_depth_duration_MTurk/v2_DepthDuration_HTML.html#112,112,1920,969,1920,1080,8-29-2022,9-42-1,77,depth_duration_stimuli/000929_2014-06-09_16-33-19_260595134347_rgbf000139-resize_0/000929_2014-06-09_16-33-19_260595134347_rgbf000139-resize_0-target.png,125,2.8680000000000003,6,3743,124,feet,jsons/VE125_randls_38.json,667656,922518,52,Man
77,692331,DepthScenes,duration_manipulation_targetAtFixation,jsons/VE125_randls_38.json,http://54.235.29.9/FacialAge/BNav_EC2/DepthDuration/v2_depth_duration_MTurk/v2_DepthDuration_HTML.html#112,112,1920,969,1920,1080,8-29-2022,9-42-1,78,depth_duration_stimuli/000457_2014-06-08_16-52-43_260595134347_rgbf000199-resize_1/000457_2014-06-08_16-52-43_260595134347_rgbf000199-resize_1-target.png,125,3.6489999999999996,10,3037,124,feet,jsons/VE125_randls_38.json,667656,922518,52,Man
78,692331,DepthScenes,duration_manipulation_targetAtFixation,jsons/VE125_randls_38.json,http://54.235.29.9/FacialAge/BNav_EC2/DepthDuration/v2_depth_duration_MTurk/v2_DepthDuration_HTML.html#112,112,1920,969,1920,1080,8-29-2022,9-42-1,79,depth_duration_stimuli/002600_2014-06-24_14-27-04_094959634447_rgbf000074-resize_2/002600_2014-06-24_14-27-04_094959634447_rgbf000074-resize_2-target.png,125,2.7575,5,4487,114,feet,jsons/VE125_randls_38.json,667656,922518,52,Man
79,692331,DepthScenes,duration_manipulation_targetAtFixation,jsons/VE125_randls_38.json,http://54.235.29.9/FacialAge/BNav_EC2/DepthDuration/v2_depth_duration_MTurk/v2_DepthDuration_HTML.html#112,112,1920,969,1920,1080,8-29-2022,9-42-1,80,depth_duration_stimuli/003228_2014-05-14_13-42-35_094959634447_rgbf000101-resize_1/003228_2014-05-14_13-42-35_094959634447_rgbf000101-resize_1-target.png,125,1.9680000000000002,3,2492,132,feet,jsons/VE125_randls_38.json,667656,922518,52,Man
80,692331,DepthScenes,duration_manipulation_targetAtFixation,jsons/VE125_randls_38.json,http://54.235.29.9/FacialAge/BNav_EC2/DepthDuration/v2_depth_duration_MTurk/v2_DepthDuration_HTML.html#112,112,1920,969,1920,1080,8-29-2022,9-42-1,81,depth_duration_stimuli/000917_2014-06-09_22-45-29_260595134347_rgbf000149-resize_3/000917_2014-06-09_22-45-29_260595134347_rgbf000149-resize_3-target.png,125,4.1865,15,3546,126,feet,jsons/VE125_randls_38.json,667656,922518,52,Man
81,692331,DepthScenes,duration_manipulation_targetAtFixation,jsons/VE125_randls_38.json,http://54.235.29.9/FacialAge/BNav_EC2/DepthDuration/v2_depth_duration_MTurk/v2_DepthDuration_HTML.html#112,112,1920,969,1920,1080,8-29-2022,9-42-1,82,depth_duration_stimuli/002323_2014-06-28_20-01-54_260595134347_rgbf000051-resize_4/002323_2014-06-28_20-01-54_260595134347_rgbf000051-resize_4-target.png,125,3.7310000000000003,10,3584,123,feet,jsons/VE125_randls_38.json,667656,922518,52,Man
82,692331,DepthScenes,duration_manipulation_targetAtFixation,jsons/VE125_randls_38.json,http://54.235.29.9/FacialAge/BNav_EC2/DepthDuration/v2_depth_duration_MTurk/v2_DepthDuration_HTML.html#112,112,1920,969,1920,1080,8-29-2022,9-42-1,83,depth_duration_stimuli/001810_2014-06-26_20-51-35_260595134347_rgbf000040-resize_3/001810_2014-06-26_20-51-35_260595134347_rgbf000040-resize_3-target.png,125,2.2525,4,3048,124,feet,jsons/VE125_randls_38.json,667656,922518,52,Man
83,692331,DepthScenes,duration_manipulation_targetAtFixation,jsons/VE125_randls_38.json,http://54.235.29.9/FacialAge/BNav_EC2/DepthDuration/v2_depth_duration_MTurk/v2_DepthDuration_HTML.html#112,112,1920,969,1920,1080,8-29-2022,9-42-1,84,depth_duration_stimuli/003010_2014-06-15_12-54-35_094959634447_rgbf000112-resize_0/003010_2014-06-15_12-54-35_094959634447_rgbf000112-resize_0-target.png,125,3.1185,12,4395,122,feet,jsons/VE125_randls_38.json,667656,922518,52,Man
84,692331,DepthScenes,duration_manipulation_targetAtFixation,jsons/VE125_randls_38.json,http://54.235.29.9/FacialAge/BNav_EC2/DepthDuration/v2_depth_duration_MTurk/v2_DepthDuration_HTML.html#112,112,1920,969,1920,1080,8-29-2022,9-42-1,85,depth_duration_stimuli/002748_2014-06-22_19-07-22_094959634447_rgbf000078-resize_1/002748_2014-06-22_19-07-22_094959634447_rgbf000078-resize_1-target.png,125,4.6705,18,3096,126,feet,jsons/VE125_randls_38.json,667656,922518,52,Man
85,692331,DepthScenes,duration_manipulation_targetAtFixation,jsons/VE125_randls_38.json,http://54.235.29.9/FacialAge/BNav_EC2/DepthDuration/v2_depth_duration_MTurk/v2_DepthDuration_HTML.html#112,112,1920,969,1920,1080,8-29-2022,9-42-1,86,depth_duration_stimuli/002995_2014-06-15_12-31-26_094959634447_rgbf000150-resize_1/002995_2014-06-15_12-31-26_094959634447_rgbf000150-resize_1-target.png,125,3.8360000000000003,6,2837,123,feet,jsons/VE125_randls_38.json,667656,922518,52,Man
86,692331,DepthScenes,duration_manipulation_targetAtFixation,jsons/VE125_randls_38.json,http://54.235.29.9/FacialAge/BNav_EC2/DepthDuration/v2_depth_duration_MTurk/v2_DepthDuration_HTML.html#112,112,1920,969,1920,1080,8-29-2022,9-42-1,87,depth_duration_stimuli/002549_2014-06-24_13-41-39_094959634447_rgbf000022-resize_3/002549_2014-06-24_13-41-39_094959634447_rgbf000022-resize_3-target.png,125,1.476,3,2268,126,feet,jsons/VE125_randls_38.json,667656,922518,52,Man
87,692331,DepthScenes,duration_manipulation_targetAtFixation,jsons/VE125_randls_38.json,http://54.235.29.9/FacialAge/BNav_EC2/DepthDuration/v2_depth_duration_MTurk/v2_DepthDuration_HTML.html#112,112,1920,969,1920,1080,8-29-2022,9-42-1,88,depth_duration_stimuli/002750_2014-06-22_19-08-03_094959634447_rgbf000094-resize_4/002750_2014-06-22_19-08-03_094959634447_rgbf000094-resize_4-target.png,125,2.354,7,4715,125,feet,jsons/VE125_randls_38.json,667656,922518,52,Man
88,692331,DepthScenes,duration_manipulation_targetAtFixation,jsons/VE125_randls_38.json,http://54.235.29.9/FacialAge/BNav_EC2/DepthDuration/v2_depth_duration_MTurk/v2_DepthDuration_HTML.html#112,112,1920,969,1920,1080,8-29-2022,9-42-1,89,depth_duration_stimuli/000692_2014-06-08_13-09-42_260595134347_rgbf000199-resize_2/000692_2014-06-08_13-09-42_260595134347_rgbf000199-resize_2-target.png,125,3.661,10,3423,124,feet,jsons/VE125_randls_38.json,667656,922518,52,Man
89,692331,DepthScenes,duration_manipulation_targetAtFixation,jsons/VE125_randls_38.json,http://54.235.29.9/FacialAge/BNav_EC2/DepthDuration/v2_depth_duration_MTurk/v2_DepthDuration_HTML.html#112,112,1920,969,1920,1080,8-29-2022,9-42-1,90,depth_duration_stimuli/001094_2014-06-15_17-36-00_260595134347_rgbf000205-resize_0/001094_2014-06-15_17-36-00_260595134347_rgbf000205-resize_0-target.png,125,4.2175,15,4263,131,feet,jsons/VE125_randls_38.json,667656,922518,52,Man
90,692331,DepthScenes,duration_manipulation_targetAtFixation,jsons/VE125_randls_38.json,http://54.235.29.9/FacialAge/BNav_EC2/DepthDuration/v2_depth_duration_MTurk/v2_DepthDuration_HTML.html#112,112,1920,969,1920,1080,8-29-2022,9-42-1,91,depth_duration_stimuli/001133_2014-06-17_14-49-16_260595134347_rgbf000100-resize_0/001133_2014-06-17_14-49-16_260595134347_rgbf000100-resize_0-target.png,125,4.2115,6,5024,124,feet,jsons/VE125_randls_38.json,667656,922518,52,Man
91,692331,DepthScenes,duration_manipulation_targetAtFixation,jsons/VE125_randls_38.json,http://54.235.29.9/FacialAge/BNav_EC2/DepthDuration/v2_depth_duration_MTurk/v2_DepthDuration_HTML.html#112,112,1920,969,1920,1080,8-29-2022,9-42-1,92,depth_duration_stimuli/001132_2014-06-17_14-48-54_260595134347_rgbf000100-resize_2/001132_2014-06-17_14-48-54_260595134347_rgbf000100-resize_2-target.png,125,3.753,10,4585,114,feet,jsons/VE125_randls_38.json,667656,922518,52,Man
92,692331,DepthScenes,duration_manipulation_targetAtFixation,jsons/VE125_randls_38.json,http://54.235.29.9/FacialAge/BNav_EC2/DepthDuration/v2_depth_duration_MTurk/v2_DepthDuration_HTML.html#112,112,1920,969,1920,1080,8-29-2022,9-42-1,93,depth_duration_stimuli/001055_2014-06-08_18-45-35_260595134347_rgbf000111-resize_4/001055_2014-06-08_18-45-35_260595134347_rgbf000111-resize_4-target.png,125,2.4290000000000003,6,9440,138,feet,jsons/VE125_randls_38.json,667656,922518,52,Man
93,692331,DepthScenes,duration_manipulation_targetAtFixation,jsons/VE125_randls_38.json,http://54.235.29.9/FacialAge/BNav_EC2/DepthDuration/v2_depth_duration_MTurk/v2_DepthDuration_HTML.html#112,112,1920,969,1920,1080,8-29-2022,9-42-1,94,depth_duration_stimuli/000549_2014-06-08_22-10-24_260595134347_rgbf000247-resize_3/000549_2014-06-08_22-10-24_260595134347_rgbf000247-resize_3-target.png,125,1.841,3,3089,135,feet,jsons/VE125_randls_38.json,667656,922518,52,Man
94,692331,DepthScenes,duration_manipulation_targetAtFixation,jsons/VE125_randls_38.json,http://54.235.29.9/FacialAge/BNav_EC2/DepthDuration/v2_depth_duration_MTurk/v2_DepthDuration_HTML.html#112,112,1920,969,1920,1080,8-29-2022,9-42-1,95,depth_duration_stimuli/002043_2014-06-24_20-29-38_260595134347_rgbf000039-resize_4/002043_2014-06-24_20-29-38_260595134347_rgbf000039-resize_4-target.png,125,2.8435,6,3003,123,feet,jsons/VE125_randls_38.json,667656,922518,52,Man
95,692331,DepthScenes,duration_manipulation_targetAtFixation,jsons/VE125_randls_38.json,http://54.235.29.9/FacialAge/BNav_EC2/DepthDuration/v2_depth_duration_MTurk/v2_DepthDuration_HTML.html#112,112,1920,969,1920,1080,8-29-2022,9-42-1,96,depth_duration_stimuli/003048_2014-06-15_13-49-43_094959634447_rgbf000150-resize_1/003048_2014-06-15_13-49-43_094959634447_rgbf000150-resize_1-target.png,125,4.0035,10,4018,138,feet,jsons/VE125_randls_38.json,667656,922518,52,Man
96,692331,DepthScenes,duration_manipulation_targetAtFixation,jsons/VE125_randls_38.json,http://54.235.29.9/FacialAge/BNav_EC2/DepthDuration/v2_depth_duration_MTurk/v2_DepthDuration_HTML.html#112,112,1920,969,1920,1080,8-29-2022,9-42-1,97,depth_duration_stimuli/002570_2014-06-24_13-59-54_094959634447_rgbf000059-resize_0/002570_2014-06-24_13-59-54_094959634447_rgbf000059-resize_0-target.png,125,4.037,5,3355,124,feet,jsons/VE125_randls_38.json,667656,922518,52,Man
97,692331,DepthScenes,duration_manipulation_targetAtFixation,jsons/VE125_randls_38.json,http://54.235.29.9/FacialAge/BNav_EC2/DepthDuration/v2_depth_duration_MTurk/v2_DepthDuration_HTML.html#112,112,1920,969,1920,1080,8-29-2022,9-42-1,98,depth_duration_stimuli/002467_2014-06-28_20-38-07_260595134347_rgbf000026-resize_2/002467_2014-06-28_20-38-07_260595134347_rgbf000026-resize_2-target.png,125,4.742,12,5158,124,feet,jsons/VE125_randls_38.json,667656,922518,52,Man
98,692331,DepthScenes,duration_manipulation_targetAtFixation,jsons/VE125_randls_38.json,http://54.235.29.9/FacialAge/BNav_EC2/DepthDuration/v2_depth_duration_MTurk/v2_DepthDuration_HTML.html#112,112,1920,969,1920,1080,8-29-2022,9-42-1,99,depth_duration_stimuli/001540_2014-06-20_17-01-05_260595134347_rgbf000086-resize_2/001540_2014-06-20_17-01-05_260595134347_rgbf000086-resize-original.jpg,125,1.459,0,2245,125,feet,jsons/VE125_randls_38.json,667656,922518,52,Man
99,692331,DepthScenes,duration_manipulation_targetAtFixation,jsons/VE125_randls_38.json,http://54.235.29.9/FacialAge/BNav_EC2/DepthDuration/v2_depth_duration_MTurk/v2_DepthDuration_HTML.html#112,112,1920,969,1920,1080,8-29-2022,9-42-1,100,depth_duration_stimuli/002057_2014-06-24_21-00-13_260595134347_rgbf000120-resize_1/002057_2014-06-24_21-00-13_260595134347_rgbf000120-resize_1-target.png,125,2.967,10,4609,124,feet,jsons/VE125_randls_38.json,667656,922518,52,Man
100,692331,DepthScenes,duration_manipulation_targetAtFixation,jsons/VE125_randls_38.json,http://54.235.29.9/FacialAge/BNav_EC2/DepthDuration/v2_depth_duration_MTurk/v2_DepthDuration_HTML.html#112,112,1920,969,1920,1080,8-29-2022,9-42-1,101,depth_duration_stimuli/000709_2014-06-08_13-51-55_260595134347_rgbf000068-resize_3/000709_2014-06-08_13-51-55_260595134347_rgbf000068-resize_3-target.png,125,1.8030000000000002,4,3460,124,feet,jsons/VE125_randls_38.json,667656,922518,52,Man
101,692331,DepthScenes,duration_manipulation_targetAtFixation,jsons/VE125_randls_38.json,http://54.235.29.9/FacialAge/BNav_EC2/DepthDuration/v2_depth_duration_MTurk/v2_DepthDuration_HTML.html#112,112,1920,969,1920,1080,8-29-2022,9-42-1,102,depth_duration_stimuli/002663_2014-06-13_15-50-26_094959634447_rgbf000075-resize_1/002663_2014-06-13_15-50-26_094959634447_rgbf000075-resize_1-target.png,125,4.7495,12,5585,126,feet,jsons/VE125_randls_38.json,667656,922518,52,Man
102,692331,DepthScenes,duration_manipulation_targetAtFixation,jsons/VE125_randls_38.json,http://54.235.29.9/FacialAge/BNav_EC2/DepthDuration/v2_depth_duration_MTurk/v2_DepthDuration_HTML.html#112,112,1920,969,1920,1080,8-29-2022,9-42-1,103,depth_duration_stimuli/000409_2014-06-04_19-23-33_260595134347_rgbf000067-resize_0/000409_2014-06-04_19-23-33_260595134347_rgbf000067-resize_0-target.png,125,3.7335,6,3191,124,feet,jsons/VE125_randls_38.json,667656,922518,52,Man
103,692331,DepthScenes,duration_manipulation_targetAtFixation,jsons/VE125_randls_38.json,http://54.235.29.9/FacialAge/BNav_EC2/DepthDuration/v2_depth_duration_MTurk/v2_DepthDuration_HTML.html#112,112,1920,969,1920,1080,8-29-2022,9-42-1,104,depth_duration_stimuli/003492_2014-05-21_15-50-55_094959634447_rgbf000828-resize_1/003492_2014-05-21_15-50-55_094959634447_rgbf000828-resize_1-target.png,125,4.06875,10,3647,123,feet,jsons/VE125_randls_38.json,667656,922518,52,Man
104,692331,DepthScenes,duration_manipulation_targetAtFixation,jsons/VE125_randls_38.json,http://54.235.29.9/FacialAge/BNav_EC2/DepthDuration/v2_depth_duration_MTurk/v2_DepthDuration_HTML.html#112,112,1920,969,1920,1080,8-29-2022,9-42-1,105,depth_duration_stimuli/002568_2014-06-24_13-59-21_094959634447_rgbf000062-resize_4/002568_2014-06-24_13-59-21_094959634447_rgbf000062-resize_4-target.png,125,3.015,5,3431,124,feet,jsons/VE125_randls_38.json,667656,922518,52,Man
105,692331,DepthScenes,duration_manipulation_targetAtFixation,jsons/VE125_randls_38.json,http://54.235.29.9/FacialAge/BNav_EC2/DepthDuration/v2_depth_duration_MTurk/v2_DepthDuration_HTML.html#112,112,1920,969,1920,1080,8-29-2022,9-42-1,106,depth_duration_stimuli/000878_2014-06-08_22-52-45_260595134347_rgbf000045-resize_2/000878_2014-06-08_22-52-45_260595134347_rgbf000045-resize_2-target.png,125,2.092,5,3825,124,feet,jsons/VE125_randls_38.json,667656,922518,52,Man
106,692331,DepthScenes,duration_manipulation_targetAtFixation,jsons/VE125_randls_38.json,http://54.235.29.9/FacialAge/BNav_EC2/DepthDuration/v2_depth_duration_MTurk/v2_DepthDuration_HTML.html#112,112,1920,969,1920,1080,8-29-2022,9-42-1,107,depth_duration_stimuli/002953_2014-06-08_17-32-18_094959634447_rgbf000059-resize_5/002953_2014-06-08_17-32-18_094959634447_rgbf000059-resize_5-target.png,125,1.551,2,3439,124,feet,jsons/VE125_randls_38.json,667656,922518,52,Man
107,692331,DepthScenes,duration_manipulation_targetAtFixation,jsons/VE125_randls_38.json,http://54.235.29.9/FacialAge/BNav_EC2/DepthDuration/v2_depth_duration_MTurk/v2_DepthDuration_HTML.html#112,112,1920,969,1920,1080,8-29-2022,9-42-1,108,depth_duration_stimuli/000682_2014-06-08_23-14-58_260595134347_rgbf000041-resize_5/000682_2014-06-08_23-14-58_260595134347_rgbf000041-resize_5-target.png,125,2.7239999999999998,5,3450,122,feet,jsons/VE125_randls_38.json,667656,922518,52,Man
108,692331,DepthScenes,duration_manipulation_targetAtFixation,jsons/VE125_randls_38.json,http://54.235.29.9/FacialAge/BNav_EC2/DepthDuration/v2_depth_duration_MTurk/v2_DepthDuration_HTML.html#112,112,1920,969,1920,1080,8-29-2022,9-42-1,109,depth_duration_stimuli/001650_2014-06-20_12-09-00_260595134347_rgbf000087-resize_3/001650_2014-06-20_12-09-00_260595134347_rgbf000087-resize_3-target.png,125,1.9505,2,8157,124,feet,jsons/VE125_randls_38.json,667656,922518,52,Man
109,692331,DepthScenes,duration_manipulation_targetAtFixation,jsons/VE125_randls_38.json,http://54.235.29.9/FacialAge/BNav_EC2/DepthDuration/v2_depth_duration_MTurk/v2_DepthDuration_HTML.html#112,112,1920,969,1920,1080,8-29-2022,9-42-1,110,depth_duration_stimuli/001158_2014-06-17_15-32-16_260595134347_rgbf000138-resize_2/001158_2014-06-17_15-32-16_260595134347_rgbf000138-resize_2-target.png,125,4.5315,2,9072,138,feet,jsons/VE125_randls_38.json,667656,922518,52,Man
110,692331,DepthScenes,duration_manipulation_targetAtFixation,jsons/VE125_randls_38.json,http://54.235.29.9/FacialAge/BNav_EC2/DepthDuration/v2_depth_duration_MTurk/v2_DepthDuration_HTML.html#112,112,1920,969,1920,1080,8-29-2022,9-42-1,111,depth_duration_stimuli/000556_2014-06-09_22-42-56_260595134347_rgbf000214-resize_1/000556_2014-06-09_22-42-56_260595134347_rgbf000214-resize_1-target.png,125,4.8415,8,3594,124,feet,jsons/VE125_randls_38.json,667656,922518,52,Man
111,692331,DepthScenes,duration_manipulation_targetAtFixation,jsons/VE125_randls_38.json,http://54.235.29.9/FacialAge/BNav_EC2/DepthDuration/v2_depth_duration_MTurk/v2_DepthDuration_HTML.html#112,112,1920,969,1920,1080,8-29-2022,9-42-1,112,depth_duration_stimuli/001175_2014-06-17_15-45-55_260595134347_rgbf000129-resize_4/001175_2014-06-17_15-45-55_260595134347_rgbf000129-resize_4-target.png,125,4.255,12,2884,125,feet,jsons/VE125_randls_38.json,667656,922518,52,Man
112,692331,DepthScenes,duration_manipulation_targetAtFixation,jsons/VE125_randls_38.json,http://54.235.29.9/FacialAge/BNav_EC2/DepthDuration/v2_depth_duration_MTurk/v2_DepthDuration_HTML.html#112,112,1920,969,1920,1080,8-29-2022,9-42-1,113,depth_duration_stimuli/003490_2014-05-21_15-50-11_094959634447_rgbf000101-resize_3/003490_2014-05-21_15-50-11_094959634447_rgbf000101-resize_3-target.png,125,3.6445,10,3981,123,feet,jsons/VE125_randls_38.json,667656,922518,52,Man
113,692331,DepthScenes,duration_manipulation_targetAtFixation,jsons/VE125_randls_38.json,http://54.235.29.9/FacialAge/BNav_EC2/DepthDuration/v2_depth_duration_MTurk/v2_DepthDuration_HTML.html#112,112,1920,969,1920,1080,8-29-2022,9-42-1,114,depth_duration_stimuli/000758_2014-06-08_22-05-08_260595134347_rgbf000085-resize_0/000758_2014-06-08_22-05-08_260595134347_rgbf000085-resize_0-target.png,125,3.3810000000000002,15,3539,136,feet,jsons/VE125_randls_38.json,667656,922518,52,Man
114,692331,DepthScenes,duration_manipulation_targetAtFixation,jsons/VE125_randls_38.json,http://54.235.29.9/FacialAge/BNav_EC2/DepthDuration/v2_depth_duration_MTurk/v2_DepthDuration_HTML.html#112,112,1920,969,1920,1080,8-29-2022,9-42-1,115,depth_duration_stimuli/000854_2014-06-09_19-43-13_260595134347_rgbf000066-resize_0/000854_2014-06-09_19-43-13_260595134347_rgbf000066-resize_0-target.png,125,3.068,2,3088,125,feet,jsons/VE125_randls_38.json,667656,922518,52,Man
115,692331,DepthScenes,duration_manipulation_targetAtFixation,jsons/VE125_randls_38.json,http://54.235.29.9/FacialAge/BNav_EC2/DepthDuration/v2_depth_duration_MTurk/v2_DepthDuration_HTML.html#112,112,1920,969,1920,1080,8-29-2022,9-42-1,116,depth_duration_stimuli/001170_2014-06-17_15-43-44_260595134347_rgbf000096-resize_6/001170_2014-06-17_15-43-44_260595134347_rgbf000096-resize-original.jpg,125,1.1909999999999998,0,2328,124,feet,jsons/VE125_randls_38.json,667656,922518,52,Man
116,692331,DepthScenes,duration_manipulation_targetAtFixation,jsons/VE125_randls_38.json,http://54.235.29.9/FacialAge/BNav_EC2/DepthDuration/v2_depth_duration_MTurk/v2_DepthDuration_HTML.html#112,112,1920,969,1920,1080,8-29-2022,9-42-1,117,depth_duration_stimuli/000739_2014-06-08_18-45-58_260595134347_rgbf000068-resize_1/000739_2014-06-08_18-45-58_260595134347_rgbf000068-resize_1-target.png,125,3.534,8,2577,124,feet,jsons/VE125_randls_38.json,667656,922518,52,Man
117,692331,DepthScenes,duration_manipulation_targetAtFixation,jsons/VE125_randls_38.json,http://54.235.29.9/FacialAge/BNav_EC2/DepthDuration/v2_depth_duration_MTurk/v2_DepthDuration_HTML.html#112,112,1920,969,1920,1080,8-29-2022,9-42-1,118,depth_duration_stimuli/000734_2014-06-08_17-39-11_260595134347_rgbf000128-resize_2/000734_2014-06-08_17-39-11_260595134347_rgbf000128-resize_2-target.png,125,4.098,5,4992,125,feet,jsons/VE125_randls_38.json,667656,922518,52,Man
118,692331,DepthScenes,duration_manipulation_targetAtFixation,jsons/VE125_randls_38.json,http://54.235.29.9/FacialAge/BNav_EC2/DepthDuration/v2_depth_duration_MTurk/v2_DepthDuration_HTML.html#112,112,1920,969,1920,1080,8-29-2022,9-42-1,119,depth_duration_stimuli/003070_2014-06-15_14-58-27_094959634447_rgbf000150-resize_3/003070_2014-06-15_14-58-27_094959634447_rgbf000150-resize_3-target.png,125,2.9415,8,3202,123,feet,jsons/VE125_randls_38.json,667656,922518,52,Man
119,692331,DepthScenes,duration_manipulation_targetAtFixation,jsons/VE125_randls_38.json,http://54.235.29.9/FacialAge/BNav_EC2/DepthDuration/v2_depth_duration_MTurk/v2_DepthDuration_HTML.html#112,112,1920,969,1920,1080,8-29-2022,9-42-1,120,depth_duration_stimuli/000943_2014-06-09_19-31-07_260595134347_rgbf000128-resize_1/000943_2014-06-09_19-31-07_260595134347_rgbf000128-resize_1-target.png,125,1.9765,2,2654,123,feet,jsons/VE125_randls_38.json,667656,922518,52,Man
120,692331,DepthScenes,duration_manipulation_targetAtFixation,jsons/VE125_randls_38.json,http://54.235.29.9/FacialAge/BNav_EC2/DepthDuration/v2_depth_duration_MTurk/v2_DepthDuration_HTML.html#112,112,1920,969,1920,1080,8-29-2022,9-42-1,121,depth_duration_stimuli/001059_2014-06-08_21-53-27_260595134347_rgbf000061-resize_4/001059_2014-06-08_21-53-27_260595134347_rgbf000061-resize_4-target.png,125,2.4185,4,2632,124,feet,jsons/VE125_randls_38.json,667656,922518,52,Man
121,692331,DepthScenes,duration_manipulation_targetAtFixation,jsons/VE125_randls_38.json,http://54.235.29.9/FacialAge/BNav_EC2/DepthDuration/v2_depth_duration_MTurk/v2_DepthDuration_HTML.html#112,112,1920,969,1920,1080,8-29-2022,9-42-1,122,depth_duration_stimuli/001032_2014-06-08_13-23-17_260595134347_rgbf000021-resize_3/001032_2014-06-08_13-23-17_260595134347_rgbf000021-resize_3-target.png,125,3.2725,3,4197,124,feet,jsons/VE125_randls_38.json,667656,922518,52,Man
122,692331,DepthScenes,duration_manipulation_targetAtFixation,jsons/VE125_randls_38.json,http://54.235.29.9/FacialAge/BNav_EC2/DepthDuration/v2_depth_duration_MTurk/v2_DepthDuration_HTML.html#112,112,1920,969,1920,1080,8-29-2022,9-42-1,123,depth_duration_stimuli/002763_2014-06-22_19-13-10_094959634447_rgbf000075-resize_4/002763_2014-06-22_19-13-10_094959634447_rgbf000075-resize_4-target.png,125,1.68375,2,2186,125,feet,jsons/VE125_randls_38.json,667656,922518,52,Man
123,692331,DepthScenes,duration_manipulation_targetAtFixation,jsons/VE125_randls_38.json,http://54.235.29.9/FacialAge/BNav_EC2/DepthDuration/v2_depth_duration_MTurk/v2_DepthDuration_HTML.html#112,112,1920,969,1920,1080,8-29-2022,9-42-1,124,depth_duration_stimuli/002209_2014-06-28_18-36-10_260595134347_rgbf000051-resize_1/002209_2014-06-28_18-36-10_260595134347_rgbf000051-resize_1-target.png,125,2.057,3,2791,124,feet,jsons/VE125_randls_38.json,667656,922518,52,Man
124,692331,DepthScenes,duration_manipulation_targetAtFixation,jsons/VE125_randls_38.json,http://54.235.29.9/FacialAge/BNav_EC2/DepthDuration/v2_depth_duration_MTurk/v2_DepthDuration_HTML.html#112,112,1920,969,1920,1080,8-29-2022,9-42-1,125,depth_duration_stimuli/002509_2014-06-24_13-19-22_094959634447_rgbf000077-resize_0/002509_2014-06-24_13-19-22_094959634447_rgbf000077-resize_0-target.png,125,1.3065,3,3125,124,feet,jsons/VE125_randls_38.json,667656,922518,52,Man
125,692331,DepthScenes,duration_manipulation_targetAtFixation,jsons/VE125_randls_38.json,http://54.235.29.9/FacialAge/BNav_EC2/DepthDuration/v2_depth_duration_MTurk/v2_DepthDuration_HTML.html#112,112,1920,969,1920,1080,8-29-2022,9-42-1,126,depth_duration_stimuli/003338_2014-05-20_11-01-23_094959634447_rgbf000051-resize_6/003338_2014-05-20_11-01-23_094959634447_rgbf000051-resize_6-target.png,125,1.693,4,5138,127,feet,jsons/VE125_randls_38.json,667656,922518,52,Man
126,692331,DepthScenes,duration_manipulation_targetAtFixation,jsons/VE125_randls_38.json,http://54.235.29.9/FacialAge/BNav_EC2/DepthDuration/v2_depth_duration_MTurk/v2_DepthDuration_HTML.html#112,112,1920,969,1920,1080,8-29-2022,9-42-1,127,depth_duration_stimuli/002784_2014-06-22_19-26-30_094959634447_rgbf000083-resize_3/002784_2014-06-22_19-26-30_094959634447_rgbf000083-resize_3-target.png,125,1.8046666666667,3,5529,125,feet,jsons/VE125_randls_38.json,667656,922518,52,Man
127,692331,DepthScenes,duration_manipulation_targetAtFixation,jsons/VE125_randls_38.json,http://54.235.29.9/FacialAge/BNav_EC2/DepthDuration/v2_depth_duration_MTurk/v2_DepthDuration_HTML.html#112,112,1920,969,1920,1080,8-29-2022,9-42-1,128,depth_duration_stimuli/001100_2014-06-15_17-46-26_260595134347_rgbf000225-resize_2/001100_2014-06-15_17-46-26_260595134347_rgbf000225-resize_2-target.png,125,2.24,2,2674,116,feet,jsons/VE125_randls_38.json,667656,922518,52,Man
128,692331,DepthScenes,duration_manipulation_targetAtFixation,jsons/VE125_randls_38.json,http://54.235.29.9/FacialAge/BNav_EC2/DepthDuration/v2_depth_duration_MTurk/v2_DepthDuration_HTML.html#112,112,1920,969,1920,1080,8-29-2022,9-42-1,129,depth_duration_stimuli/002153_2014-06-25_21-27-18_260595134347_rgbf000038-resize_5/002153_2014-06-25_21-27-18_260595134347_rgbf000038-resize_5-target.png,125,2.505,5,3643,124,feet,jsons/VE125_randls_38.json,667656,922518,52,Man
129,692331,DepthScenes,duration_manipulation_targetAtFixation,jsons/VE125_randls_38.json,http://54.235.29.9/FacialAge/BNav_EC2/DepthDuration/v2_depth_duration_MTurk/v2_DepthDuration_HTML.html#112,112,1920,969,1920,1080,8-29-2022,9-42-1,130,depth_duration_stimuli/002660_2014-06-13_15-44-18_094959634447_rgbf001878-resize_2/002660_2014-06-13_15-44-18_094959634447_rgbf001878-resize_2-target.png,125,3.576,8,2650,125,feet,jsons/VE125_randls_38.json,667656,922518,52,Man
130,692331,DepthScenes,duration_manipulation_targetAtFixation,jsons/VE125_randls_38.json,http://54.235.29.9/FacialAge/BNav_EC2/DepthDuration/v2_depth_duration_MTurk/v2_DepthDuration_HTML.html#112,112,1920,969,1920,1080,8-29-2022,9-42-1,131,depth_duration_stimuli/001417_2014-06-19_16-25-36_260595134347_rgbf000115-resize_5/001417_2014-06-19_16-25-36_260595134347_rgbf000115-resize_5-target.png,125,4.6255,10,6386,123,feet,jsons/VE125_randls_38.json,667656,922518,52,Man
131,692331,DepthScenes,duration_manipulation_targetAtFixation,jsons/VE125_randls_38.json,http://54.235.29.9/FacialAge/BNav_EC2/DepthDuration/v2_depth_duration_MTurk/v2_DepthDuration_HTML.html#112,112,1920,969,1920,1080,8-29-2022,9-42-1,132,depth_duration_stimuli/003081_2014-06-15_15-19-16_094959634447_rgbf000150-resize_1/003081_2014-06-15_15-19-16_094959634447_rgbf000150-resize_1-target.png,125,3.9125,6,2735,124,feet,jsons/VE125_randls_38.json,667656,922518,52,Man
132,692331,DepthScenes,duration_manipulation_targetAtFixation,jsons/VE125_randls_38.json,http://54.235.29.9/FacialAge/BNav_EC2/DepthDuration/v2_depth_duration_MTurk/v2_DepthDuration_HTML.html#112,112,1920,969,1920,1080,8-29-2022,9-42-1,133,depth_duration_stimuli/001110_2014-06-15_17-25-28_260595134347_rgbf000150-resize_1/001110_2014-06-15_17-25-28_260595134347_rgbf000150-resize_1-target.png,125,1.7115,5,2698,123,feet,jsons/VE125_randls_38.json,667656,922518,52,Man
133,692331,DepthScenes,duration_manipulation_targetAtFixation,jsons/VE125_randls_38.json,http://54.235.29.9/FacialAge/BNav_EC2/DepthDuration/v2_depth_duration_MTurk/v2_DepthDuration_HTML.html#112,112,1920,969,1920,1080,8-29-2022,9-42-1,134,depth_duration_stimuli/000927_2014-06-09_16-32-30_260595134347_rgbf000123-resize_3/000927_2014-06-09_16-32-30_260595134347_rgbf000123-resize_3-target.png,125,2.6785,7,4030,123,feet,jsons/VE125_randls_38.json,667656,922518,52,Man
134,692331,DepthScenes,duration_manipulation_targetAtFixation,jsons/VE125_randls_38.json,http://54.235.29.9/FacialAge/BNav_EC2/DepthDuration/v2_depth_duration_MTurk/v2_DepthDuration_HTML.html#112,112,1920,969,1920,1080,8-29-2022,9-42-1,135,depth_duration_stimuli/002072_2014-06-24_21-48-06_260595134347_rgbf000115-resize_0/002072_2014-06-24_21-48-06_260595134347_rgbf000115-resize-original.jpg,125,4.702,0,2699,123,feet,jsons/VE125_randls_38.json,667656,922518,52,Man
135,692331,DepthScenes,duration_manipulation_targetAtFixation,jsons/VE125_randls_38.json,http://54.235.29.9/FacialAge/BNav_EC2/DepthDuration/v2_depth_duration_MTurk/v2_DepthDuration_HTML.html#112,112,1920,969,1920,1080,8-29-2022,9-42-1,136,depth_duration_stimuli/000368_2014-06-09_15-53-01_260595134347_rgbf000155-resize_2/000368_2014-06-09_15-53-01_260595134347_rgbf000155-resize_2-target.png,125,2.4859999999999998,5,2739,125,feet,jsons/VE125_randls_38.json,667656,922518,52,Man
136,692331,DepthScenes,duration_manipulation_targetAtFixation,jsons/VE125_randls_38.json,http://54.235.29.9/FacialAge/BNav_EC2/DepthDuration/v2_depth_duration_MTurk/v2_DepthDuration_HTML.html#112,112,1920,969,1920,1080,8-29-2022,9-42-1,137,depth_duration_stimuli/002678_2014-06-13_16-15-32_094959634447_rgbf000151-resize_6/002678_2014-06-13_16-15-32_094959634447_rgbf000151-resize_6-target.png,125,2.1830000000000003,20,2875,124,feet,jsons/VE125_randls_38.json,667656,922518,52,Man
137,692331,DepthScenes,duration_manipulation_targetAtFixation,jsons/VE125_randls_38.json,http://54.235.29.9/FacialAge/BNav_EC2/DepthDuration/v2_depth_duration_MTurk/v2_DepthDuration_HTML.html#112,112,1920,969,1920,1080,8-29-2022,9-42-1,138,depth_duration_stimuli/002725_2014-06-22_11-47-51_094959634447_rgbf000070-resize_1/002725_2014-06-22_11-47-51_094959634447_rgbf000070-resize_1-target.png,125,2.195,4,3293,124,feet,jsons/VE125_randls_38.json,667656,922518,52,Man
138,692331,DepthScenes,duration_manipulation_targetAtFixation,jsons/VE125_randls_38.json,http://54.235.29.9/FacialAge/BNav_EC2/DepthDuration/v2_depth_duration_MTurk/v2_DepthDuration_HTML.html#112,112,1920,969,1920,1080,8-29-2022,9-42-1,139,depth_duration_stimuli/002344_2014-06-28_20-06-29_260595134347_rgbf000030-resize_1/002344_2014-06-28_20-06-29_260595134347_rgbf000030-resize_1-target.png,125,1.5795,2,2255,125,feet,jsons/VE125_randls_38.json,667656,922518,52,Man
139,692331,DepthScenes,duration_manipulation_targetAtFixation,jsons/VE125_randls_38.json,http://54.235.29.9/FacialAge/BNav_EC2/DepthDuration/v2_depth_duration_MTurk/v2_DepthDuration_HTML.html#112,112,1920,969,1920,1080,8-29-2022,9-42-1,140,depth_duration_stimuli/000414_2014-06-04_19-49-13_260595134347_rgbf000044-resize_0/000414_2014-06-04_19-49-13_260595134347_rgbf000044-resize_0-target.png,125,4.329,15,4149,125,feet,jsons/VE125_randls_38.json,667656,922518,52,Man
140,692331,DepthScenes,duration_manipulation_targetAtFixation,jsons/VE125_randls_38.json,http://54.235.29.9/FacialAge/BNav_EC2/DepthDuration/v2_depth_duration_MTurk/v2_DepthDuration_HTML.html#112,112,1920,969,1920,1080,8-29-2022,9-42-1,141,depth_duration_stimuli/003129_2014-05-12_10-48-10_094959634447_rgbf000100-resize_0/003129_2014-05-12_10-48-10_094959634447_rgbf000100-resize_0-target.png,125,4.9305,8,6186,139,feet,jsons/VE125_randls_38.json,667656,922518,52,Man
141,692331,DepthScenes,duration_manipulation_targetAtFixation,jsons/VE125_randls_38.json,http://54.235.29.9/FacialAge/BNav_EC2/DepthDuration/v2_depth_duration_MTurk/v2_DepthDuration_HTML.html#112,112,1920,969,1920,1080,8-29-2022,9-42-1,142,depth_duration_stimuli/002630_2014-06-24_14-47-50_094959634447_rgbf000055-resize_1/002630_2014-06-24_14-47-50_094959634447_rgbf000055-resize_1-target.png,125,3.0095,10,4105,123,feet,jsons/VE125_randls_38.json,667656,922518,52,Man
142,692331,DepthScenes,duration_manipulation_targetAtFixation,jsons/VE125_randls_38.json,http://54.235.29.9/FacialAge/BNav_EC2/DepthDuration/v2_depth_duration_MTurk/v2_DepthDuration_HTML.html#112,112,1920,969,1920,1080,8-29-2022,9-42-1,143,depth_duration_stimuli/002758_2014-06-22_19-11-20_094959634447_rgbf000128-resize_1/002758_2014-06-22_19-11-20_094959634447_rgbf000128-resize_1-target.png,125,2.555,5,2275,123,feet,jsons/VE125_randls_38.json,667656,922518,52,Man
143,692331,DepthScenes,duration_manipulation_targetAtFixation,jsons/VE125_randls_38.json,http://54.235.29.9/FacialAge/BNav_EC2/DepthDuration/v2_depth_duration_MTurk/v2_DepthDuration_HTML.html#112,112,1920,969,1920,1080,8-29-2022,9-42-1,144,depth_duration_stimuli/001244_2014-06-17_16-47-45_260595134347_rgbf000030-resize_4/001244_2014-06-17_16-47-45_260595134347_rgbf000030-resize_4-target.png,125,2.0425,5,2211,125,feet,jsons/VE125_randls_38.json,667656,922518,52,Man
144,692331,DepthScenes,duration_manipulation_targetAtFixation,jsons/VE125_randls_38.json,http://54.235.29.9/FacialAge/BNav_EC2/DepthDuration/v2_depth_duration_MTurk/v2_DepthDuration_HTML.html#112,112,1920,969,1920,1080,8-29-2022,9-42-1,145,depth_duration_stimuli/003495_2014-05-21_16-01-51_094959634447_rgbf000100-resize_3/003495_2014-05-21_16-01-51_094959634447_rgbf000100-resize_3-target.png,125,1.6255,2,2943,124,feet,jsons/VE125_randls_38.json,667656,922518,52,Man
145,692331,DepthScenes,duration_manipulation_targetAtFixation,jsons/VE125_randls_38.json,http://54.235.29.9/FacialAge/BNav_EC2/DepthDuration/v2_depth_duration_MTurk/v2_DepthDuration_HTML.html#112,112,1920,969,1920,1080,8-29-2022,9-42-1,146,depth_duration_stimuli/001498_2014-06-19_17-45-14_260595134347_rgbf000129-resize_4/001498_2014-06-19_17-45-14_260595134347_rgbf000129-resize-original.jpg,125,1.4075,0,1868,124,feet,jsons/VE125_randls_38.json,667656,922518,52,Man
146,692331,DepthScenes,duration_manipulation_targetAtFixation,jsons/VE125_randls_38.json,http://54.235.29.9/FacialAge/BNav_EC2/DepthDuration/v2_depth_duration_MTurk/v2_DepthDuration_HTML.html#112,112,1920,969,1920,1080,8-29-2022,9-42-1,147,depth_duration_stimuli/000486_2014-06-09_20-47-20_260595134347_rgbf000143-resize_2/000486_2014-06-09_20-47-20_260595134347_rgbf000143-resize_2-target.png,125,4.8325,5,5532,123,feet,jsons/VE125_randls_38.json,667656,922518,52,Man
147,692331,DepthScenes,duration_manipulation_targetAtFixation,jsons/VE125_randls_38.json,http://54.235.29.9/FacialAge/BNav_EC2/DepthDuration/v2_depth_duration_MTurk/v2_DepthDuration_HTML.html#112,112,1920,969,1920,1080,8-29-2022,9-42-1,148,depth_duration_stimuli/003083_2014-06-15_15-21-03_094959634447_rgbf000063-resize_1/003083_2014-06-15_15-21-03_094959634447_rgbf000063-resize_1-target.png,125,4.1405,8,3044,124,feet,jsons/VE125_randls_38.json,667656,922518,52,Man
148,692331,DepthScenes,duration_manipulation_targetAtFixation,jsons/VE125_randls_38.json,http://54.235.29.9/FacialAge/BNav_EC2/DepthDuration/v2_depth_duration_MTurk/v2_DepthDuration_HTML.html#112,112,1920,969,1920,1080,8-29-2022,9-42-1,149,depth_duration_stimuli/002989_2014-06-15_12-25-03_094959634447_rgbf000150-resize_3/002989_2014-06-15_12-25-03_094959634447_rgbf000150-resize_3-target.png,125,4.1975,10,3430,123,feet,jsons/VE125_randls_38.json,667656,922518,52,Man
149,692331,DepthScenes,duration_manipulation_targetAtFixation,jsons/VE125_randls_38.json,http://54.235.29.9/FacialAge/BNav_EC2/DepthDuration/v2_depth_duration_MTurk/v2_DepthDuration_HTML.html#112,112,1920,969,1920,1080,8-29-2022,9-42-1,150,depth_duration_stimuli/000866_2014-06-09_20-45-42_260595134347_rgbf000139-resize_1/000866_2014-06-09_20-45-42_260595134347_rgbf000139-resize_1-target.png,125,3.2155,3,3488,123,feet,jsons/VE125_randls_38.json,667656,922518,52,Man
150,692331,DepthScenes,duration_manipulation_targetAtFixation,jsons/VE125_randls_38.json,http://54.235.29.9/FacialAge/BNav_EC2/DepthDuration/v2_depth_duration_MTurk/v2_DepthDuration_HTML.html#112,112,1920,969,1920,1080,8-29-2022,9-42-1,151,depth_duration_stimuli/000773_2014-06-08_22-24-54_260595134347_rgbf000093-resize_1/000773_2014-06-08_22-24-54_260595134347_rgbf000093-resize_1-target.png,125,4.973,15,4737,123,feet,jsons/VE125_randls_38.json,667656,922518,52,Man
151,692331,DepthScenes,duration_manipulation_targetAtFixation,jsons/VE125_randls_38.json,http://54.235.29.9/FacialAge/BNav_EC2/DepthDuration/v2_depth_duration_MTurk/v2_DepthDuration_HTML.html#112,112,1920,969,1920,1080,8-29-2022,9-42-1,152,depth_duration_stimuli/002414_2014-06-28_20-24-58_260595134347_rgbf000067-resize_4/002414_2014-06-28_20-24-58_260595134347_rgbf000067-resize_4-target.png,125,4.363,10,3637,124,feet,jsons/VE125_randls_38.json,667656,922518,52,Man
152,692331,DepthScenes,duration_manipulation_targetAtFixation,jsons/VE125_randls_38.json,http://54.235.29.9/FacialAge/BNav_EC2/DepthDuration/v2_depth_duration_MTurk/v2_DepthDuration_HTML.html#112,112,1920,969,1920,1080,8-29-2022,9-42-1,153,depth_duration_stimuli/001570_2014-06-20_17-21-09_260595134347_rgbf000135-resize_4/001570_2014-06-20_17-21-09_260595134347_rgbf000135-resize_4-target.png,125,4.467,10,2986,125,feet,jsons/VE125_randls_38.json,667656,922518,52,Man
153,692331,DepthScenes,duration_manipulation_targetAtFixation,jsons/VE125_randls_38.json,http://54.235.29.9/FacialAge/BNav_EC2/DepthDuration/v2_depth_duration_MTurk/v2_DepthDuration_HTML.html#112,112,1920,969,1920,1080,8-29-2022,9-42-1,154,depth_duration_stimuli/001392_2014-06-19_16-07-59_260595134347_rgbf000046-resize_1/001392_2014-06-19_16-07-59_260595134347_rgbf000046-resize_1-target.png,125,4.135,8,4221,126,feet,jsons/VE125_randls_38.json,667656,922518,52,Man
154,692331,DepthScenes,duration_manipulation_targetAtFixation,jsons/VE125_randls_38.json,http://54.235.29.9/FacialAge/BNav_EC2/DepthDuration/v2_depth_duration_MTurk/v2_DepthDuration_HTML.html#112,112,1920,969,1920,1080,8-29-2022,9-42-1,155,depth_duration_stimuli/000906_2014-06-08_13-35-43_260595134347_rgbf000155-resize_1/000906_2014-06-08_13-35-43_260595134347_rgbf000155-resize_1-target.png,125,2.8489999999999998,7,3885,131,feet,jsons/VE125_randls_38.json,667656,922518,52,Man
155,692331,DepthScenes,duration_manipulation_targetAtFixation,jsons/VE125_randls_38.json,http://54.235.29.9/FacialAge/BNav_EC2/DepthDuration/v2_depth_duration_MTurk/v2_DepthDuration_HTML.html#112,112,1920,969,1920,1080,8-29-2022,9-42-1,156,depth_duration_stimuli/002805_2014-06-22_19-54-03_094959634447_rgbf000079-resize_1/002805_2014-06-22_19-54-03_094959634447_rgbf000079-resize_1-target.png,125,3.1439999999999997,5,2441,122,feet,jsons/VE125_randls_38.json,667656,922518,52,Man
156,692331,DepthScenes,duration_manipulation_targetAtFixation,jsons/VE125_randls_38.json,http://54.235.29.9/FacialAge/BNav_EC2/DepthDuration/v2_depth_duration_MTurk/v2_DepthDuration_HTML.html#112,112,1920,969,1920,1080,8-29-2022,9-42-1,157,depth_duration_stimuli/000469_2014-06-09_19-42-10_260595134347_rgbf000081-resize_1/000469_2014-06-09_19-42-10_260595134347_rgbf000081-resize_1-target.png,125,1.652,3,2174,140,feet,jsons/VE125_randls_38.json,667656,922518,52,Man
157,692331,DepthScenes,duration_manipulation_targetAtFixation,jsons/VE125_randls_38.json,http://54.235.29.9/FacialAge/BNav_EC2/DepthDuration/v2_depth_duration_MTurk/v2_DepthDuration_HTML.html#112,112,1920,969,1920,1080,8-29-2022,9-42-1,158,depth_duration_stimuli/000483_2014-06-09_20-41-45_260595134347_rgbf000116-resize_4/000483_2014-06-09_20-41-45_260595134347_rgbf000116-resize_4-target.png,125,1.337,2,2562,123,feet,jsons/VE125_randls_38.json,667656,922518,52,Man
158,692331,DepthScenes,duration_manipulation_targetAtFixation,jsons/VE125_randls_38.json,http://54.235.29.9/FacialAge/BNav_EC2/DepthDuration/v2_depth_duration_MTurk/v2_DepthDuration_HTML.html#112,112,1920,969,1920,1080,8-29-2022,9-42-1,159,depth_duration_stimuli/001029_2014-06-08_13-17-57_260595134347_rgbf000065-resize_1/001029_2014-06-08_13-17-57_260595134347_rgbf000065-resize_1-target.png,125,3.0835,8,4234,123,feet,jsons/VE125_randls_38.json,667656,922518,52,Man
159,692331,DepthScenes,duration_manipulation_targetAtFixation,jsons/VE125_randls_38.json,http://54.235.29.9/FacialAge/BNav_EC2/DepthDuration/v2_depth_duration_MTurk/v2_DepthDuration_HTML.html#112,112,1920,969,1920,1080,8-29-2022,9-42-1,160,depth_duration_stimuli/000677_2014-06-08_23-10-32_260595134347_rgbf000158-resize_6/000677_2014-06-08_23-10-32_260595134347_rgbf000158-resize_6-target.png,125,3.556,5,2691,123,feet,jsons/VE125_randls_38.json,667656,922518,52,Man
160,692331,DepthScenes,duration_manipulation_targetAtFixation,jsons/VE125_randls_38.json,http://54.235.29.9/FacialAge/BNav_EC2/DepthDuration/v2_depth_duration_MTurk/v2_DepthDuration_HTML.html#112,112,1920,969,1920,1080,8-29-2022,9-42-1,161,depth_duration_stimuli/000506_2014-06-08_23-21-00_260595134347_rgbf000070-resize_7/000506_2014-06-08_23-21-00_260595134347_rgbf000070-resize_7-target.png,125,4.0585,10,4231,122,feet,jsons/VE125_randls_38.json,667656,922518,52,Man
161,692331,DepthScenes,duration_manipulation_targetAtFixation,jsons/VE125_randls_38.json,http://54.235.29.9/FacialAge/BNav_EC2/DepthDuration/v2_depth_duration_MTurk/v2_DepthDuration_HTML.html#112,112,1920,969,1920,1080,8-29-2022,9-42-1,162,depth_duration_stimuli/003079_2014-06-15_15-18-20_094959634447_rgbf000152-resize_8/003079_2014-06-15_15-18-20_094959634447_rgbf000152-resize_8-target.png,125,2.8775,6,3204,123,feet,jsons/VE125_randls_38.json,667656,922518,52,Man
162,692331,DepthScenes,duration_manipulation_targetAtFixation,jsons/VE125_randls_38.json,http://54.235.29.9/FacialAge/BNav_EC2/DepthDuration/v2_depth_duration_MTurk/v2_DepthDuration_HTML.html#112,112,1920,969,1920,1080,8-29-2022,9-42-1,163,depth_duration_stimuli/002039_2014-06-24_20-22-38_260595134347_rgbf000084-resize_1/002039_2014-06-24_20-22-38_260595134347_rgbf000084-resize_1-target.png,125,4.408,10,4162,127,feet,jsons/VE125_randls_38.json,667656,922518,52,Man
163,692331,DepthScenes,duration_manipulation_targetAtFixation,jsons/VE125_randls_38.json,http://54.235.29.9/FacialAge/BNav_EC2/DepthDuration/v2_depth_duration_MTurk/v2_DepthDuration_HTML.html#112,112,1920,969,1920,1080,8-29-2022,9-42-1,164,depth_duration_stimuli/002103_2014-06-25_20-00-40_260595134347_rgbf000049-resize_0/002103_2014-06-25_20-00-40_260595134347_rgbf000049-resize_0-target.png,125,4.105,8,2723,140,feet,jsons/VE125_randls_38.json,667656,922518,52,Man
