,subjID,experimentName,versionName,sequenceName,url,selected_row,windowWidth,windowHeight,screenWidth,screenHeight,startDate,startTime,trial,stimulus,duration,actual_depth,depth_estimate,trial_RT,log_sceneDuration,unitSelection,seq_filepath,experimentTime,totalTime,age,gender
0,692818,DepthScenes,duration_manipulation_targetAtFixation,jsons/VE125_randls_2.json,http://54.235.29.9/FacialAge/BNav_EC2/DepthDuration/v2_depth_duration_MTurk/v2_DepthDuration_HTML.html#336,336,1440,900,1440,900,8-29-2022,13-25-31,1,depth_duration_stimuli/002375_2014-06-28_20-13-44_260595134347_rgbf000032-resize_1/002375_2014-06-28_20-13-44_260595134347_rgbf000032-resize_1-target.png,125,4.0175,1,5070,125,feet,jsons/VE125_randls_2.json,742159,994920,48,Man
1,692818,DepthScenes,duration_manipulation_targetAtFixation,jsons/VE125_randls_2.json,http://54.235.29.9/FacialAge/BNav_EC2/DepthDuration/v2_depth_duration_MTurk/v2_DepthDuration_HTML.html#336,336,1440,900,1440,900,8-29-2022,13-25-31,2,depth_duration_stimuli/002657_2014-06-13_15-29-54_094959634447_rgbf000150-resize_1/002657_2014-06-13_15-29-54_094959634447_rgbf000150-resize_1-target.png,125,4.919,1,2554,125,feet,jsons/VE125_randls_2.json,742159,994920,48,Man
2,692818,DepthScenes,duration_manipulation_targetAtFixation,jsons/VE125_randls_2.json,http://54.235.29.9/FacialAge/BNav_EC2/DepthDuration/v2_depth_duration_MTurk/v2_DepthDuration_HTML.html#336,336,1440,900,1440,900,8-29-2022,13-25-31,3,depth_duration_stimuli/000470_2014-06-09_19-42-40_260595134347_rgbf000094-resize_1/000470_2014-06-09_19-42-40_260595134347_rgbf000094-resize_1-target.png,125,1.831,1,5508,125,feet,jsons/VE125_randls_2.json,742159,994920,48,Man
3,692818,DepthScenes,duration_manipulation_targetAtFixation,jsons/VE125_randls_2.json,http://54.235.29.9/FacialAge/BNav_EC2/DepthDuration/v2_depth_duration_MTurk/v2_DepthDuration_HTML.html#336,336,1440,900,1440,900,8-29-2022,13-25-31,4,depth_duration_stimuli/000109_2014-05-14_23-41-52_260595134347_rgbf000035-resize_9/000109_2014-05-14_23-41-52_260595134347_rgbf000035-resize_9-target.png,125,1.3545,1,2992,126,feet,jsons/VE125_randls_2.json,742159,994920,48,Man
4,692818,DepthScenes,duration_manipulation_targetAtFixation,jsons/VE125_randls_2.json,http://54.235.29.9/FacialAge/BNav_EC2/DepthDuration/v2_depth_duration_MTurk/v2_DepthDuration_HTML.html#336,336,1440,900,1440,900,8-29-2022,13-25-31,5,depth_duration_stimuli/001016_2014-06-09_16-16-10_260595134347_rgbf000112-resize_5/001016_2014-06-09_16-16-10_260595134347_rgbf000112-resize_5-target.png,125,1.6565,2,5043,126,feet,jsons/VE125_randls_2.json,742159,994920,48,Man
5,692818,DepthScenes,duration_manipulation_targetAtFixation,jsons/VE125_randls_2.json,http://54.235.29.9/FacialAge/BNav_EC2/DepthDuration/v2_depth_duration_MTurk/v2_DepthDuration_HTML.html#336,336,1440,900,1440,900,8-29-2022,13-25-31,6,depth_duration_stimuli/002340_2014-06-28_20-05-46_260595134347_rgbf000113-resize_0/002340_2014-06-28_20-05-46_260595134347_rgbf000113-resize_0-target.png,125,2.4735,4,2761,122,feet,jsons/VE125_randls_2.json,742159,994920,48,Man
6,692818,DepthScenes,duration_manipulation_targetAtFixation,jsons/VE125_randls_2.json,http://54.235.29.9/FacialAge/BNav_EC2/DepthDuration/v2_depth_duration_MTurk/v2_DepthDuration_HTML.html#336,336,1440,900,1440,900,8-29-2022,13-25-31,7,depth_duration_stimuli/002153_2014-06-25_21-27-18_260595134347_rgbf000038-resize_5/002153_2014-06-25_21-27-18_260595134347_rgbf000038-resize_5-target.png,125,2.505,1,4983,127,feet,jsons/VE125_randls_2.json,742159,994920,48,Man
7,692818,DepthScenes,duration_manipulation_targetAtFixation,jsons/VE125_randls_2.json,http://54.235.29.9/FacialAge/BNav_EC2/DepthDuration/v2_depth_duration_MTurk/v2_DepthDuration_HTML.html#336,336,1440,900,1440,900,8-29-2022,13-25-31,8,depth_duration_stimuli/002660_2014-06-13_15-44-18_094959634447_rgbf001878-resize_2/002660_2014-06-13_15-44-18_094959634447_rgbf001878-resize_2-target.png,125,3.576,2,2977,123,feet,jsons/VE125_randls_2.json,742159,994920,48,Man
8,692818,DepthScenes,duration_manipulation_targetAtFixation,jsons/VE125_randls_2.json,http://54.235.29.9/FacialAge/BNav_EC2/DepthDuration/v2_depth_duration_MTurk/v2_DepthDuration_HTML.html#336,336,1440,900,1440,900,8-29-2022,13-25-31,9,depth_duration_stimuli/003534_2014-05-22_15-06-10_094959634447_rgbf000102-resize_4/003534_2014-05-22_15-06-10_094959634447_rgbf000102-resize_4-target.png,125,1.426,1,3999,125,feet,jsons/VE125_randls_2.json,742159,994920,48,Man
9,692818,DepthScenes,duration_manipulation_targetAtFixation,jsons/VE125_randls_2.json,http://54.235.29.9/FacialAge/BNav_EC2/DepthDuration/v2_depth_duration_MTurk/v2_DepthDuration_HTML.html#336,336,1440,900,1440,900,8-29-2022,13-25-31,10,depth_duration_stimuli/002637_2014-06-24_14-51-13_094959634447_rgbf000066-resize_4/002637_2014-06-24_14-51-13_094959634447_rgbf000066-resize_4-target.png,125,1.9955,3,3062,126,feet,jsons/VE125_randls_2.json,742159,994920,48,Man
10,692818,DepthScenes,duration_manipulation_targetAtFixation,jsons/VE125_randls_2.json,http://54.235.29.9/FacialAge/BNav_EC2/DepthDuration/v2_depth_duration_MTurk/v2_DepthDuration_HTML.html#336,336,1440,900,1440,900,8-29-2022,13-25-31,11,depth_duration_stimuli/000739_2014-06-08_18-45-58_260595134347_rgbf000068-resize_1/000739_2014-06-08_18-45-58_260595134347_rgbf000068-resize_1-target.png,125,3.534,2,3992,134,feet,jsons/VE125_randls_2.json,742159,994920,48,Man
11,692818,DepthScenes,duration_manipulation_targetAtFixation,jsons/VE125_randls_2.json,http://54.235.29.9/FacialAge/BNav_EC2/DepthDuration/v2_depth_duration_MTurk/v2_DepthDuration_HTML.html#336,336,1440,900,1440,900,8-29-2022,13-25-31,12,depth_duration_stimuli/000734_2014-06-08_17-39-11_260595134347_rgbf000128-resize_2/000734_2014-06-08_17-39-11_260595134347_rgbf000128-resize_2-target.png,125,4.098,4,2701,131,feet,jsons/VE125_randls_2.json,742159,994920,48,Man
12,692818,DepthScenes,duration_manipulation_targetAtFixation,jsons/VE125_randls_2.json,http://54.235.29.9/FacialAge/BNav_EC2/DepthDuration/v2_depth_duration_MTurk/v2_DepthDuration_HTML.html#336,336,1440,900,1440,900,8-29-2022,13-25-31,13,depth_duration_stimuli/000569_2014-06-09_22-51-47_260595134347_rgbf000141-resize_3/000569_2014-06-09_22-51-47_260595134347_rgbf000141-resize-original.jpg,125,4.512,0,5467,125,feet,jsons/VE125_randls_2.json,742159,994920,48,Man
13,692818,DepthScenes,duration_manipulation_targetAtFixation,jsons/VE125_randls_2.json,http://54.235.29.9/FacialAge/BNav_EC2/DepthDuration/v2_depth_duration_MTurk/v2_DepthDuration_HTML.html#336,336,1440,900,1440,900,8-29-2022,13-25-31,14,depth_duration_stimuli/001055_2014-06-08_18-45-35_260595134347_rgbf000111-resize_4/001055_2014-06-08_18-45-35_260595134347_rgbf000111-resize_4-target.png,125,2.4290000000000003,4,4554,123,feet,jsons/VE125_randls_2.json,742159,994920,48,Man
14,692818,DepthScenes,duration_manipulation_targetAtFixation,jsons/VE125_randls_2.json,http://54.235.29.9/FacialAge/BNav_EC2/DepthDuration/v2_depth_duration_MTurk/v2_DepthDuration_HTML.html#336,336,1440,900,1440,900,8-29-2022,13-25-31,15,depth_duration_stimuli/000549_2014-06-08_22-10-24_260595134347_rgbf000247-resize_3/000549_2014-06-08_22-10-24_260595134347_rgbf000247-resize_3-target.png,125,1.841,1,2339,123,feet,jsons/VE125_randls_2.json,742159,994920,48,Man
15,692818,DepthScenes,duration_manipulation_targetAtFixation,jsons/VE125_randls_2.json,http://54.235.29.9/FacialAge/BNav_EC2/DepthDuration/v2_depth_duration_MTurk/v2_DepthDuration_HTML.html#336,336,1440,900,1440,900,8-29-2022,13-25-31,16,depth_duration_stimuli/001110_2014-06-15_17-25-28_260595134347_rgbf000150-resize_1/001110_2014-06-15_17-25-28_260595134347_rgbf000150-resize_1-target.png,125,1.7115,2,6834,127,feet,jsons/VE125_randls_2.json,742159,994920,48,Man
16,692818,DepthScenes,duration_manipulation_targetAtFixation,jsons/VE125_randls_2.json,http://54.235.29.9/FacialAge/BNav_EC2/DepthDuration/v2_depth_duration_MTurk/v2_DepthDuration_HTML.html#336,336,1440,900,1440,900,8-29-2022,13-25-31,17,depth_duration_stimuli/000927_2014-06-09_16-32-30_260595134347_rgbf000123-resize_3/000927_2014-06-09_16-32-30_260595134347_rgbf000123-resize_3-target.png,125,2.6785,4,2806,124,feet,jsons/VE125_randls_2.json,742159,994920,48,Man
17,692818,DepthScenes,duration_manipulation_targetAtFixation,jsons/VE125_randls_2.json,http://54.235.29.9/FacialAge/BNav_EC2/DepthDuration/v2_depth_duration_MTurk/v2_DepthDuration_HTML.html#336,336,1440,900,1440,900,8-29-2022,13-25-31,18,depth_duration_stimuli/001011_2014-06-08_23-18-54_260595134347_rgbf000044-resize_4/001011_2014-06-08_23-18-54_260595134347_rgbf000044-resize_4-target.png,125,2.4730000000000003,4,4521,124,feet,jsons/VE125_randls_2.json,742159,994920,48,Man
18,692818,DepthScenes,duration_manipulation_targetAtFixation,jsons/VE125_randls_2.json,http://54.235.29.9/FacialAge/BNav_EC2/DepthDuration/v2_depth_duration_MTurk/v2_DepthDuration_HTML.html#336,336,1440,900,1440,900,8-29-2022,13-25-31,19,depth_duration_stimuli/002875_2014-06-01_15-19-00_094959634447_rgbf000151-resize_1/002875_2014-06-01_15-19-00_094959634447_rgbf000151-resize_1-target.png,125,1.9675,4,2939,126,feet,jsons/VE125_randls_2.json,742159,994920,48,Man
19,692818,DepthScenes,duration_manipulation_targetAtFixation,jsons/VE125_randls_2.json,http://54.235.29.9/FacialAge/BNav_EC2/DepthDuration/v2_depth_duration_MTurk/v2_DepthDuration_HTML.html#336,336,1440,900,1440,900,8-29-2022,13-25-31,20,depth_duration_stimuli/001449_2014-06-19_17-01-27_260595134347_rgbf000116-resize_2/001449_2014-06-19_17-01-27_260595134347_rgbf000116-resize_2-target.png,125,3.452,3,5234,122,feet,jsons/VE125_randls_2.json,742159,994920,48,Man
20,692818,DepthScenes,duration_manipulation_targetAtFixation,jsons/VE125_randls_2.json,http://54.235.29.9/FacialAge/BNav_EC2/DepthDuration/v2_depth_duration_MTurk/v2_DepthDuration_HTML.html#336,336,1440,900,1440,900,8-29-2022,13-25-31,21,depth_duration_stimuli/001450_2014-06-19_17-02-03_260595134347_rgbf000203-resize_4/001450_2014-06-19_17-02-03_260595134347_rgbf000203-resize_4-target.png,125,4.0106666666667,4,2794,123,feet,jsons/VE125_randls_2.json,742159,994920,48,Man
21,692818,DepthScenes,duration_manipulation_targetAtFixation,jsons/VE125_randls_2.json,http://54.235.29.9/FacialAge/BNav_EC2/DepthDuration/v2_depth_duration_MTurk/v2_DepthDuration_HTML.html#336,336,1440,900,1440,900,8-29-2022,13-25-31,22,depth_duration_stimuli/001029_2014-06-08_13-17-57_260595134347_rgbf000065-resize_1/001029_2014-06-08_13-17-57_260595134347_rgbf000065-resize_1-target.png,125,3.0835,4,3465,125,feet,jsons/VE125_randls_2.json,742159,994920,48,Man
22,692818,DepthScenes,duration_manipulation_targetAtFixation,jsons/VE125_randls_2.json,http://54.235.29.9/FacialAge/BNav_EC2/DepthDuration/v2_depth_duration_MTurk/v2_DepthDuration_HTML.html#336,336,1440,900,1440,900,8-29-2022,13-25-31,23,depth_duration_stimuli/000677_2014-06-08_23-10-32_260595134347_rgbf000158-resize_6/000677_2014-06-08_23-10-32_260595134347_rgbf000158-resize_6-target.png,125,3.556,3,37883,124,feet,jsons/VE125_randls_2.json,742159,994920,48,Man
23,692818,DepthScenes,duration_manipulation_targetAtFixation,jsons/VE125_randls_2.json,http://54.235.29.9/FacialAge/BNav_EC2/DepthDuration/v2_depth_duration_MTurk/v2_DepthDuration_HTML.html#336,336,1440,900,1440,900,8-29-2022,13-25-31,24,depth_duration_stimuli/002905_2014-06-03_18-04-43_094959634447_rgbf000151-resize_2/002905_2014-06-03_18-04-43_094959634447_rgbf000151-resize_2-target.png,125,2.0295,1,7541,139,feet,jsons/VE125_randls_2.json,742159,994920,48,Man
24,692818,DepthScenes,duration_manipulation_targetAtFixation,jsons/VE125_randls_2.json,http://54.235.29.9/FacialAge/BNav_EC2/DepthDuration/v2_depth_duration_MTurk/v2_DepthDuration_HTML.html#336,336,1440,900,1440,900,8-29-2022,13-25-31,25,depth_duration_stimuli/003423_2014-05-21_10-23-26_094959634447_rgbf002665-resize_2/003423_2014-05-21_10-23-26_094959634447_rgbf002665-resize_2-target.png,125,3.2575,0,2847,118,feet,jsons/VE125_randls_2.json,742159,994920,48,Man
25,692818,DepthScenes,duration_manipulation_targetAtFixation,jsons/VE125_randls_2.json,http://54.235.29.9/FacialAge/BNav_EC2/DepthDuration/v2_depth_duration_MTurk/v2_DepthDuration_HTML.html#336,336,1440,900,1440,900,8-29-2022,13-25-31,26,depth_duration_stimuli/001092_2014-06-15_17-34-58_260595134347_rgbf000171-resize_3/001092_2014-06-15_17-34-58_260595134347_rgbf000171-resize_3-target.png,125,2.6935,1,2687,112,feet,jsons/VE125_randls_2.json,742159,994920,48,Man
26,692818,DepthScenes,duration_manipulation_targetAtFixation,jsons/VE125_randls_2.json,http://54.235.29.9/FacialAge/BNav_EC2/DepthDuration/v2_depth_duration_MTurk/v2_DepthDuration_HTML.html#336,336,1440,900,1440,900,8-29-2022,13-25-31,27,depth_duration_stimuli/002545_2014-06-24_13-38-53_094959634447_rgbf000080-resize_4/002545_2014-06-24_13-38-53_094959634447_rgbf000080-resize_4-target.png,125,1.9205,3,2705,130,feet,jsons/VE125_randls_2.json,742159,994920,48,Man
27,692818,DepthScenes,duration_manipulation_targetAtFixation,jsons/VE125_randls_2.json,http://54.235.29.9/FacialAge/BNav_EC2/DepthDuration/v2_depth_duration_MTurk/v2_DepthDuration_HTML.html#336,336,1440,900,1440,900,8-29-2022,13-25-31,28,depth_duration_stimuli/001808_2014-06-26_20-50-58_260595134347_rgbf000029-resize_1/001808_2014-06-26_20-50-58_260595134347_rgbf000029-resize_1-target.png,125,4.249,5,3214,126,feet,jsons/VE125_randls_2.json,742159,994920,48,Man
28,692818,DepthScenes,duration_manipulation_targetAtFixation,jsons/VE125_randls_2.json,http://54.235.29.9/FacialAge/BNav_EC2/DepthDuration/v2_depth_duration_MTurk/v2_DepthDuration_HTML.html#336,336,1440,900,1440,900,8-29-2022,13-25-31,29,depth_duration_stimuli/001815_2014-06-26_20-52-55_260595134347_rgbf000020-resize_0/001815_2014-06-26_20-52-55_260595134347_rgbf000020-resize_0-target.png,125,3.3865,5,2118,132,feet,jsons/VE125_randls_2.json,742159,994920,48,Man
29,692818,DepthScenes,duration_manipulation_targetAtFixation,jsons/VE125_randls_2.json,http://54.235.29.9/FacialAge/BNav_EC2/DepthDuration/v2_depth_duration_MTurk/v2_DepthDuration_HTML.html#336,336,1440,900,1440,900,8-29-2022,13-25-31,30,depth_duration_stimuli/000375_2014-06-08_11-17-29_260595134347_rgbf000133-resize_2/000375_2014-06-08_11-17-29_260595134347_rgbf000133-resize-original.jpg,125,4.718,0,2242,115,feet,jsons/VE125_randls_2.json,742159,994920,48,Man
30,692818,DepthScenes,duration_manipulation_targetAtFixation,jsons/VE125_randls_2.json,http://54.235.29.9/FacialAge/BNav_EC2/DepthDuration/v2_depth_duration_MTurk/v2_DepthDuration_HTML.html#336,336,1440,900,1440,900,8-29-2022,13-25-31,31,depth_duration_stimuli/000810_2014-06-08_17-20-01_260595134347_rgbf000105-resize_0/000810_2014-06-08_17-20-01_260595134347_rgbf000105-resize_0-target.png,125,1.4865,2,2312,121,feet,jsons/VE125_randls_2.json,742159,994920,48,Man
31,692818,DepthScenes,duration_manipulation_targetAtFixation,jsons/VE125_randls_2.json,http://54.235.29.9/FacialAge/BNav_EC2/DepthDuration/v2_depth_duration_MTurk/v2_DepthDuration_HTML.html#336,336,1440,900,1440,900,8-29-2022,13-25-31,32,depth_duration_stimuli/001214_2014-06-17_16-13-55_260595134347_rgbf000111-resize_0/001214_2014-06-17_16-13-55_260595134347_rgbf000111-resize_0-target.png,125,2.6505,1,2152,118,feet,jsons/VE125_randls_2.json,742159,994920,48,Man
32,692818,DepthScenes,duration_manipulation_targetAtFixation,jsons/VE125_randls_2.json,http://54.235.29.9/FacialAge/BNav_EC2/DepthDuration/v2_depth_duration_MTurk/v2_DepthDuration_HTML.html#336,336,1440,900,1440,900,8-29-2022,13-25-31,33,depth_duration_stimuli/000493_2014-06-09_21-01-18_260595134347_rgbf000196-resize_3/000493_2014-06-09_21-01-18_260595134347_rgbf000196-resize_3-target.png,125,3.44,3,2385,126,feet,jsons/VE125_randls_2.json,742159,994920,48,Man
33,692818,DepthScenes,duration_manipulation_targetAtFixation,jsons/VE125_randls_2.json,http://54.235.29.9/FacialAge/BNav_EC2/DepthDuration/v2_depth_duration_MTurk/v2_DepthDuration_HTML.html#336,336,1440,900,1440,900,8-29-2022,13-25-31,34,depth_duration_stimuli/000191_2014-05-12_17-07-38_260595134347_rgbf000199-resize_0/000191_2014-05-12_17-07-38_260595134347_rgbf000199-resize_0-target.png,125,3.7995,6,2673,128,feet,jsons/VE125_randls_2.json,742159,994920,48,Man
34,692818,DepthScenes,duration_manipulation_targetAtFixation,jsons/VE125_randls_2.json,http://54.235.29.9/FacialAge/BNav_EC2/DepthDuration/v2_depth_duration_MTurk/v2_DepthDuration_HTML.html#336,336,1440,900,1440,900,8-29-2022,13-25-31,35,depth_duration_stimuli/003070_2014-06-15_14-58-27_094959634447_rgbf000150-resize_3/003070_2014-06-15_14-58-27_094959634447_rgbf000150-resize_3-target.png,125,2.9415,3,2486,113,feet,jsons/VE125_randls_2.json,742159,994920,48,Man
35,692818,DepthScenes,duration_manipulation_targetAtFixation,jsons/VE125_randls_2.json,http://54.235.29.9/FacialAge/BNav_EC2/DepthDuration/v2_depth_duration_MTurk/v2_DepthDuration_HTML.html#336,336,1440,900,1440,900,8-29-2022,13-25-31,36,depth_duration_stimuli/000943_2014-06-09_19-31-07_260595134347_rgbf000128-resize_1/000943_2014-06-09_19-31-07_260595134347_rgbf000128-resize_1-target.png,125,1.9765,3,3072,126,feet,jsons/VE125_randls_2.json,742159,994920,48,Man
36,692818,DepthScenes,duration_manipulation_targetAtFixation,jsons/VE125_randls_2.json,http://54.235.29.9/FacialAge/BNav_EC2/DepthDuration/v2_depth_duration_MTurk/v2_DepthDuration_HTML.html#336,336,1440,900,1440,900,8-29-2022,13-25-31,37,depth_duration_stimuli/001199_2014-06-17_16-03-48_260595134347_rgbf000077-resize_0/001199_2014-06-17_16-03-48_260595134347_rgbf000077-resize_0-target.png,125,3.4375,4,2421,111,feet,jsons/VE125_randls_2.json,742159,994920,48,Man
37,692818,DepthScenes,duration_manipulation_targetAtFixation,jsons/VE125_randls_2.json,http://54.235.29.9/FacialAge/BNav_EC2/DepthDuration/v2_depth_duration_MTurk/v2_DepthDuration_HTML.html#336,336,1440,900,1440,900,8-29-2022,13-25-31,38,depth_duration_stimuli/000502_2014-06-08_23-02-32_260595134347_rgbf000063-resize_4/000502_2014-06-08_23-02-32_260595134347_rgbf000063-resize_4-target.png,125,2.431,2,2356,133,feet,jsons/VE125_randls_2.json,742159,994920,48,Man
38,692818,DepthScenes,duration_manipulation_targetAtFixation,jsons/VE125_randls_2.json,http://54.235.29.9/FacialAge/BNav_EC2/DepthDuration/v2_depth_duration_MTurk/v2_DepthDuration_HTML.html#336,336,1440,900,1440,900,8-29-2022,13-25-31,39,depth_duration_stimuli/000368_2014-06-09_15-53-01_260595134347_rgbf000155-resize_2/000368_2014-06-09_15-53-01_260595134347_rgbf000155-resize_2-target.png,125,2.4859999999999998,1,2513,116,feet,jsons/VE125_randls_2.json,742159,994920,48,Man
39,692818,DepthScenes,duration_manipulation_targetAtFixation,jsons/VE125_randls_2.json,http://54.235.29.9/FacialAge/BNav_EC2/DepthDuration/v2_depth_duration_MTurk/v2_DepthDuration_HTML.html#336,336,1440,900,1440,900,8-29-2022,13-25-31,40,depth_duration_stimuli/002678_2014-06-13_16-15-32_094959634447_rgbf000151-resize_6/002678_2014-06-13_16-15-32_094959634447_rgbf000151-resize_6-target.png,125,2.1830000000000003,3,2542,119,feet,jsons/VE125_randls_2.json,742159,994920,48,Man
40,692818,DepthScenes,duration_manipulation_targetAtFixation,jsons/VE125_randls_2.json,http://54.235.29.9/FacialAge/BNav_EC2/DepthDuration/v2_depth_duration_MTurk/v2_DepthDuration_HTML.html#336,336,1440,900,1440,900,8-29-2022,13-25-31,41,depth_duration_stimuli/002989_2014-06-15_12-25-03_094959634447_rgbf000150-resize_3/002989_2014-06-15_12-25-03_094959634447_rgbf000150-resize_3-target.png,125,4.1975,5,2380,121,feet,jsons/VE125_randls_2.json,742159,994920,48,Man
41,692818,DepthScenes,duration_manipulation_targetAtFixation,jsons/VE125_randls_2.json,http://54.235.29.9/FacialAge/BNav_EC2/DepthDuration/v2_depth_duration_MTurk/v2_DepthDuration_HTML.html#336,336,1440,900,1440,900,8-29-2022,13-25-31,42,depth_duration_stimuli/000866_2014-06-09_20-45-42_260595134347_rgbf000139-resize_1/000866_2014-06-09_20-45-42_260595134347_rgbf000139-resize_1-target.png,125,3.2155,5,2419,135,feet,jsons/VE125_randls_2.json,742159,994920,48,Man
42,692818,DepthScenes,duration_manipulation_targetAtFixation,jsons/VE125_randls_2.json,http://54.235.29.9/FacialAge/BNav_EC2/DepthDuration/v2_depth_duration_MTurk/v2_DepthDuration_HTML.html#336,336,1440,900,1440,900,8-29-2022,13-25-31,43,depth_duration_stimuli/002570_2014-06-24_13-59-54_094959634447_rgbf000059-resize_0/002570_2014-06-24_13-59-54_094959634447_rgbf000059-resize_0-target.png,125,4.037,3,2291,111,feet,jsons/VE125_randls_2.json,742159,994920,48,Man
43,692818,DepthScenes,duration_manipulation_targetAtFixation,jsons/VE125_randls_2.json,http://54.235.29.9/FacialAge/BNav_EC2/DepthDuration/v2_depth_duration_MTurk/v2_DepthDuration_HTML.html#336,336,1440,900,1440,900,8-29-2022,13-25-31,44,depth_duration_stimuli/002467_2014-06-28_20-38-07_260595134347_rgbf000026-resize_2/002467_2014-06-28_20-38-07_260595134347_rgbf000026-resize_2-target.png,125,4.742,6,2213,122,feet,jsons/VE125_randls_2.json,742159,994920,48,Man
44,692818,DepthScenes,duration_manipulation_targetAtFixation,jsons/VE125_randls_2.json,http://54.235.29.9/FacialAge/BNav_EC2/DepthDuration/v2_depth_duration_MTurk/v2_DepthDuration_HTML.html#336,336,1440,900,1440,900,8-29-2022,13-25-31,45,depth_duration_stimuli/000787_2014-06-08_22-33-53_260595134347_rgbf000175-resize_1/000787_2014-06-08_22-33-53_260595134347_rgbf000175-resize-original.jpg,125,4.784,0,2283,127,feet,jsons/VE125_randls_2.json,742159,994920,48,Man
45,692818,DepthScenes,duration_manipulation_targetAtFixation,jsons/VE125_randls_2.json,http://54.235.29.9/FacialAge/BNav_EC2/DepthDuration/v2_depth_duration_MTurk/v2_DepthDuration_HTML.html#336,336,1440,900,1440,900,8-29-2022,13-25-31,46,depth_duration_stimuli/003492_2014-05-21_15-50-55_094959634447_rgbf000828-resize_1/003492_2014-05-21_15-50-55_094959634447_rgbf000828-resize_1-target.png,125,4.06875,3,2638,122,feet,jsons/VE125_randls_2.json,742159,994920,48,Man
46,692818,DepthScenes,duration_manipulation_targetAtFixation,jsons/VE125_randls_2.json,http://54.235.29.9/FacialAge/BNav_EC2/DepthDuration/v2_depth_duration_MTurk/v2_DepthDuration_HTML.html#336,336,1440,900,1440,900,8-29-2022,13-25-31,47,depth_duration_stimuli/002568_2014-06-24_13-59-21_094959634447_rgbf000062-resize_4/002568_2014-06-24_13-59-21_094959634447_rgbf000062-resize_4-target.png,125,3.015,3,2728,125,feet,jsons/VE125_randls_2.json,742159,994920,48,Man
47,692818,DepthScenes,duration_manipulation_targetAtFixation,jsons/VE125_randls_2.json,http://54.235.29.9/FacialAge/BNav_EC2/DepthDuration/v2_depth_duration_MTurk/v2_DepthDuration_HTML.html#336,336,1440,900,1440,900,8-29-2022,13-25-31,48,depth_duration_stimuli/001164_2014-06-17_15-35-46_260595134347_rgbf000085-resize_3/001164_2014-06-17_15-35-46_260595134347_rgbf000085-resize_3-target.png,125,2.354,3,2812,125,feet,jsons/VE125_randls_2.json,742159,994920,48,Man
48,692818,DepthScenes,duration_manipulation_targetAtFixation,jsons/VE125_randls_2.json,http://54.235.29.9/FacialAge/BNav_EC2/DepthDuration/v2_depth_duration_MTurk/v2_DepthDuration_HTML.html#336,336,1440,900,1440,900,8-29-2022,13-25-31,49,depth_duration_stimuli/001136_2014-06-17_15-19-41_260595134347_rgbf000076-resize_3/001136_2014-06-17_15-19-41_260595134347_rgbf000076-resize_3-target.png,125,1.8655,3,3394,124,feet,jsons/VE125_randls_2.json,742159,994920,48,Man
49,692818,DepthScenes,duration_manipulation_targetAtFixation,jsons/VE125_randls_2.json,http://54.235.29.9/FacialAge/BNav_EC2/DepthDuration/v2_depth_duration_MTurk/v2_DepthDuration_HTML.html#336,336,1440,900,1440,900,8-29-2022,13-25-31,50,depth_duration_stimuli/002964_2014-06-08_17-46-11_094959634447_rgbf000091-resize_4/002964_2014-06-08_17-46-11_094959634447_rgbf000091-resize_4-target.png,125,1.6909999999999998,2,34279,124,feet,jsons/VE125_randls_2.json,742159,994920,48,Man
50,692818,DepthScenes,duration_manipulation_targetAtFixation,jsons/VE125_randls_2.json,http://54.235.29.9/FacialAge/BNav_EC2/DepthDuration/v2_depth_duration_MTurk/v2_DepthDuration_HTML.html#336,336,1440,900,1440,900,8-29-2022,13-25-31,51,depth_duration_stimuli/002136_2014-06-25_21-18-03_260595134347_rgbf000109-resize_3/002136_2014-06-25_21-18-03_260595134347_rgbf000109-resize_3-target.png,125,1.9569999999999999,1,3152,124,feet,jsons/VE125_randls_2.json,742159,994920,48,Man
51,692818,DepthScenes,duration_manipulation_targetAtFixation,jsons/VE125_randls_2.json,http://54.235.29.9/FacialAge/BNav_EC2/DepthDuration/v2_depth_duration_MTurk/v2_DepthDuration_HTML.html#336,336,1440,900,1440,900,8-29-2022,13-25-31,52,depth_duration_stimuli/001066_2014-06-08_22-03-20_260595134347_rgbf000066-resize_4/001066_2014-06-08_22-03-20_260595134347_rgbf000066-resize_4-target.png,125,4.2330000000000005,4,3744,125,feet,jsons/VE125_randls_2.json,742159,994920,48,Man
52,692818,DepthScenes,duration_manipulation_targetAtFixation,jsons/VE125_randls_2.json,http://54.235.29.9/FacialAge/BNav_EC2/DepthDuration/v2_depth_duration_MTurk/v2_DepthDuration_HTML.html#336,336,1440,900,1440,900,8-29-2022,13-25-31,53,depth_duration_stimuli/000742_2014-06-08_18-48-09_260595134347_rgbf000164-resize_4/000742_2014-06-08_18-48-09_260595134347_rgbf000164-resize_4-target.png,125,4.632,4,3728,123,feet,jsons/VE125_randls_2.json,742159,994920,48,Man
53,692818,DepthScenes,duration_manipulation_targetAtFixation,jsons/VE125_randls_2.json,http://54.235.29.9/FacialAge/BNav_EC2/DepthDuration/v2_depth_duration_MTurk/v2_DepthDuration_HTML.html#336,336,1440,900,1440,900,8-29-2022,13-25-31,54,depth_duration_stimuli/001133_2014-06-17_14-49-16_260595134347_rgbf000100-resize_0/001133_2014-06-17_14-49-16_260595134347_rgbf000100-resize_0-target.png,125,4.2115,2,8299,124,feet,jsons/VE125_randls_2.json,742159,994920,48,Man
54,692818,DepthScenes,duration_manipulation_targetAtFixation,jsons/VE125_randls_2.json,http://54.235.29.9/FacialAge/BNav_EC2/DepthDuration/v2_depth_duration_MTurk/v2_DepthDuration_HTML.html#336,336,1440,900,1440,900,8-29-2022,13-25-31,55,depth_duration_stimuli/001132_2014-06-17_14-48-54_260595134347_rgbf000100-resize_2/001132_2014-06-17_14-48-54_260595134347_rgbf000100-resize_2-target.png,125,3.753,3,4031,137,feet,jsons/VE125_randls_2.json,742159,994920,48,Man
55,692818,DepthScenes,duration_manipulation_targetAtFixation,jsons/VE125_randls_2.json,http://54.235.29.9/FacialAge/BNav_EC2/DepthDuration/v2_depth_duration_MTurk/v2_DepthDuration_HTML.html#336,336,1440,900,1440,900,8-29-2022,13-25-31,56,depth_duration_stimuli/001417_2014-06-19_16-25-36_260595134347_rgbf000115-resize_5/001417_2014-06-19_16-25-36_260595134347_rgbf000115-resize_5-target.png,125,4.6255,3,4482,124,feet,jsons/VE125_randls_2.json,742159,994920,48,Man
56,692818,DepthScenes,duration_manipulation_targetAtFixation,jsons/VE125_randls_2.json,http://54.235.29.9/FacialAge/BNav_EC2/DepthDuration/v2_depth_duration_MTurk/v2_DepthDuration_HTML.html#336,336,1440,900,1440,900,8-29-2022,13-25-31,57,depth_duration_stimuli/003081_2014-06-15_15-19-16_094959634447_rgbf000150-resize_1/003081_2014-06-15_15-19-16_094959634447_rgbf000150-resize_1-target.png,125,3.9125,3,5628,123,feet,jsons/VE125_randls_2.json,742159,994920,48,Man
57,692818,DepthScenes,duration_manipulation_targetAtFixation,jsons/VE125_randls_2.json,http://54.235.29.9/FacialAge/BNav_EC2/DepthDuration/v2_depth_duration_MTurk/v2_DepthDuration_HTML.html#336,336,1440,900,1440,900,8-29-2022,13-25-31,58,depth_duration_stimuli/000522_2014-06-08_13-35-06_260595134347_rgbf000244-resize_1/000522_2014-06-08_13-35-06_260595134347_rgbf000244-resize_1-target.png,125,2.3715,2,7702,123,feet,jsons/VE125_randls_2.json,742159,994920,48,Man
58,692818,DepthScenes,duration_manipulation_targetAtFixation,jsons/VE125_randls_2.json,http://54.235.29.9/FacialAge/BNav_EC2/DepthDuration/v2_depth_duration_MTurk/v2_DepthDuration_HTML.html#336,336,1440,900,1440,900,8-29-2022,13-25-31,59,depth_duration_stimuli/002949_2014-06-26_15-57-42_094959634447_rgbf000079-resize_1/002949_2014-06-26_15-57-42_094959634447_rgbf000079-resize_1-target.png,125,1.8915,2,2530,125,feet,jsons/VE125_randls_2.json,742159,994920,48,Man
59,692818,DepthScenes,duration_manipulation_targetAtFixation,jsons/VE125_randls_2.json,http://54.235.29.9/FacialAge/BNav_EC2/DepthDuration/v2_depth_duration_MTurk/v2_DepthDuration_HTML.html#336,336,1440,900,1440,900,8-29-2022,13-25-31,60,depth_duration_stimuli/000469_2014-06-09_19-42-10_260595134347_rgbf000081-resize_1/000469_2014-06-09_19-42-10_260595134347_rgbf000081-resize_1-target.png,125,1.652,2,5033,124,feet,jsons/VE125_randls_2.json,742159,994920,48,Man
60,692818,DepthScenes,duration_manipulation_targetAtFixation,jsons/VE125_randls_2.json,http://54.235.29.9/FacialAge/BNav_EC2/DepthDuration/v2_depth_duration_MTurk/v2_DepthDuration_HTML.html#336,336,1440,900,1440,900,8-29-2022,13-25-31,61,depth_duration_stimuli/000483_2014-06-09_20-41-45_260595134347_rgbf000116-resize_4/000483_2014-06-09_20-41-45_260595134347_rgbf000116-resize_4-target.png,125,1.337,1,2858,124,feet,jsons/VE125_randls_2.json,742159,994920,48,Man
61,692818,DepthScenes,duration_manipulation_targetAtFixation,jsons/VE125_randls_2.json,http://54.235.29.9/FacialAge/BNav_EC2/DepthDuration/v2_depth_duration_MTurk/v2_DepthDuration_HTML.html#336,336,1440,900,1440,900,8-29-2022,13-25-31,62,depth_duration_stimuli/002549_2014-06-24_13-41-39_094959634447_rgbf000022-resize_3/002549_2014-06-24_13-41-39_094959634447_rgbf000022-resize_3-target.png,125,1.476,1,4505,124,feet,jsons/VE125_randls_2.json,742159,994920,48,Man
62,692818,DepthScenes,duration_manipulation_targetAtFixation,jsons/VE125_randls_2.json,http://54.235.29.9/FacialAge/BNav_EC2/DepthDuration/v2_depth_duration_MTurk/v2_DepthDuration_HTML.html#336,336,1440,900,1440,900,8-29-2022,13-25-31,63,depth_duration_stimuli/002750_2014-06-22_19-08-03_094959634447_rgbf000094-resize_4/002750_2014-06-22_19-08-03_094959634447_rgbf000094-resize_4-target.png,125,2.354,3,4222,125,feet,jsons/VE125_randls_2.json,742159,994920,48,Man
63,692818,DepthScenes,duration_manipulation_targetAtFixation,jsons/VE125_randls_2.json,http://54.235.29.9/FacialAge/BNav_EC2/DepthDuration/v2_depth_duration_MTurk/v2_DepthDuration_HTML.html#336,336,1440,900,1440,900,8-29-2022,13-25-31,64,depth_duration_stimuli/002509_2014-06-24_13-19-22_094959634447_rgbf000077-resize_0/002509_2014-06-24_13-19-22_094959634447_rgbf000077-resize_0-target.png,125,1.3065,1,8880,125,feet,jsons/VE125_randls_2.json,742159,994920,48,Man
64,692818,DepthScenes,duration_manipulation_targetAtFixation,jsons/VE125_randls_2.json,http://54.235.29.9/FacialAge/BNav_EC2/DepthDuration/v2_depth_duration_MTurk/v2_DepthDuration_HTML.html#336,336,1440,900,1440,900,8-29-2022,13-25-31,65,depth_duration_stimuli/003338_2014-05-20_11-01-23_094959634447_rgbf000051-resize_6/003338_2014-05-20_11-01-23_094959634447_rgbf000051-resize_6-target.png,125,1.693,1,3608,124,feet,jsons/VE125_randls_2.json,742159,994920,48,Man
65,692818,DepthScenes,duration_manipulation_targetAtFixation,jsons/VE125_randls_2.json,http://54.235.29.9/FacialAge/BNav_EC2/DepthDuration/v2_depth_duration_MTurk/v2_DepthDuration_HTML.html#336,336,1440,900,1440,900,8-29-2022,13-25-31,66,depth_duration_stimuli/001222_2014-06-17_16-24-06_260595134347_rgbf000073-resize_0/001222_2014-06-17_16-24-06_260595134347_rgbf000073-resize-original.jpg,125,1.4385,0,4645,122,feet,jsons/VE125_randls_2.json,742159,994920,48,Man
66,692818,DepthScenes,duration_manipulation_targetAtFixation,jsons/VE125_randls_2.json,http://54.235.29.9/FacialAge/BNav_EC2/DepthDuration/v2_depth_duration_MTurk/v2_DepthDuration_HTML.html#336,336,1440,900,1440,900,8-29-2022,13-25-31,67,depth_duration_stimuli/000929_2014-06-09_16-33-19_260595134347_rgbf000139-resize_0/000929_2014-06-09_16-33-19_260595134347_rgbf000139-resize_0-target.png,125,2.8680000000000003,1,4159,123,feet,jsons/VE125_randls_2.json,742159,994920,48,Man
67,692818,DepthScenes,duration_manipulation_targetAtFixation,jsons/VE125_randls_2.json,http://54.235.29.9/FacialAge/BNav_EC2/DepthDuration/v2_depth_duration_MTurk/v2_DepthDuration_HTML.html#336,336,1440,900,1440,900,8-29-2022,13-25-31,68,depth_duration_stimuli/000457_2014-06-08_16-52-43_260595134347_rgbf000199-resize_1/000457_2014-06-08_16-52-43_260595134347_rgbf000199-resize_1-target.png,125,3.6489999999999996,2,2472,124,feet,jsons/VE125_randls_2.json,742159,994920,48,Man
68,692818,DepthScenes,duration_manipulation_targetAtFixation,jsons/VE125_randls_2.json,http://54.235.29.9/FacialAge/BNav_EC2/DepthDuration/v2_depth_duration_MTurk/v2_DepthDuration_HTML.html#336,336,1440,900,1440,900,8-29-2022,13-25-31,69,depth_duration_stimuli/003292_2014-05-14_21-53-49_094959634447_rgbf000100-resize_2/003292_2014-05-14_21-53-49_094959634447_rgbf000100-resize_2-target.png,125,3.4815,3,4320,123,feet,jsons/VE125_randls_2.json,742159,994920,48,Man
69,692818,DepthScenes,duration_manipulation_targetAtFixation,jsons/VE125_randls_2.json,http://54.235.29.9/FacialAge/BNav_EC2/DepthDuration/v2_depth_duration_MTurk/v2_DepthDuration_HTML.html#336,336,1440,900,1440,900,8-29-2022,13-25-31,70,depth_duration_stimuli/002639_2014-06-24_14-51-37_094959634447_rgbf000074-resize_4/002639_2014-06-24_14-51-37_094959634447_rgbf000074-resize_4-target.png,125,4.0375,1,2590,125,feet,jsons/VE125_randls_2.json,742159,994920,48,Man
70,692818,DepthScenes,duration_manipulation_targetAtFixation,jsons/VE125_randls_2.json,http://54.235.29.9/FacialAge/BNav_EC2/DepthDuration/v2_depth_duration_MTurk/v2_DepthDuration_HTML.html#336,336,1440,900,1440,900,8-29-2022,13-25-31,71,depth_duration_stimuli/001244_2014-06-17_16-47-45_260595134347_rgbf000030-resize_4/001244_2014-06-17_16-47-45_260595134347_rgbf000030-resize_4-target.png,125,2.0425,1,3368,125,feet,jsons/VE125_randls_2.json,742159,994920,48,Man
71,692818,DepthScenes,duration_manipulation_targetAtFixation,jsons/VE125_randls_2.json,http://54.235.29.9/FacialAge/BNav_EC2/DepthDuration/v2_depth_duration_MTurk/v2_DepthDuration_HTML.html#336,336,1440,900,1440,900,8-29-2022,13-25-31,72,depth_duration_stimuli/003495_2014-05-21_16-01-51_094959634447_rgbf000100-resize_3/003495_2014-05-21_16-01-51_094959634447_rgbf000100-resize_3-target.png,125,1.6255,1,3186,125,feet,jsons/VE125_randls_2.json,742159,994920,48,Man
72,692818,DepthScenes,duration_manipulation_targetAtFixation,jsons/VE125_randls_2.json,http://54.235.29.9/FacialAge/BNav_EC2/DepthDuration/v2_depth_duration_MTurk/v2_DepthDuration_HTML.html#336,336,1440,900,1440,900,8-29-2022,13-25-31,73,depth_duration_stimuli/002630_2014-06-24_14-47-50_094959634447_rgbf000055-resize_1/002630_2014-06-24_14-47-50_094959634447_rgbf000055-resize_1-target.png,125,3.0095,2,3378,125,feet,jsons/VE125_randls_2.json,742159,994920,48,Man
73,692818,DepthScenes,duration_manipulation_targetAtFixation,jsons/VE125_randls_2.json,http://54.235.29.9/FacialAge/BNav_EC2/DepthDuration/v2_depth_duration_MTurk/v2_DepthDuration_HTML.html#336,336,1440,900,1440,900,8-29-2022,13-25-31,74,depth_duration_stimuli/002758_2014-06-22_19-11-20_094959634447_rgbf000128-resize_1/002758_2014-06-22_19-11-20_094959634447_rgbf000128-resize_1-target.png,125,2.555,2,3862,124,feet,jsons/VE125_randls_2.json,742159,994920,48,Man
74,692818,DepthScenes,duration_manipulation_targetAtFixation,jsons/VE125_randls_2.json,http://54.235.29.9/FacialAge/BNav_EC2/DepthDuration/v2_depth_duration_MTurk/v2_DepthDuration_HTML.html#336,336,1440,900,1440,900,8-29-2022,13-25-31,75,depth_duration_stimuli/002043_2014-06-24_20-29-38_260595134347_rgbf000039-resize_4/002043_2014-06-24_20-29-38_260595134347_rgbf000039-resize_4-target.png,125,2.8435,2,3863,124,feet,jsons/VE125_randls_2.json,742159,994920,48,Man
75,692818,DepthScenes,duration_manipulation_targetAtFixation,jsons/VE125_randls_2.json,http://54.235.29.9/FacialAge/BNav_EC2/DepthDuration/v2_depth_duration_MTurk/v2_DepthDuration_HTML.html#336,336,1440,900,1440,900,8-29-2022,13-25-31,76,depth_duration_stimuli/003048_2014-06-15_13-49-43_094959634447_rgbf000150-resize_1/003048_2014-06-15_13-49-43_094959634447_rgbf000150-resize_1-target.png,125,4.0035,3,2945,123,feet,jsons/VE125_randls_2.json,742159,994920,48,Man
76,692818,DepthScenes,duration_manipulation_targetAtFixation,jsons/VE125_randls_2.json,http://54.235.29.9/FacialAge/BNav_EC2/DepthDuration/v2_depth_duration_MTurk/v2_DepthDuration_HTML.html#336,336,1440,900,1440,900,8-29-2022,13-25-31,77,depth_duration_stimuli/001555_2014-06-20_17-12-10_260595134347_rgbf000065-resize_4/001555_2014-06-20_17-12-10_260595134347_rgbf000065-resize_4-target.png,125,1.633,2,4097,123,feet,jsons/VE125_randls_2.json,742159,994920,48,Man
77,692818,DepthScenes,duration_manipulation_targetAtFixation,jsons/VE125_randls_2.json,http://54.235.29.9/FacialAge/BNav_EC2/DepthDuration/v2_depth_duration_MTurk/v2_DepthDuration_HTML.html#336,336,1440,900,1440,900,8-29-2022,13-25-31,78,depth_duration_stimuli/000103_2014-05-14_22-01-17_260595134347_rgbf000152-resize_5/000103_2014-05-14_22-01-17_260595134347_rgbf000152-resize_5-target.png,125,1.993,2,2695,124,feet,jsons/VE125_randls_2.json,742159,994920,48,Man
78,692818,DepthScenes,duration_manipulation_targetAtFixation,jsons/VE125_randls_2.json,http://54.235.29.9/FacialAge/BNav_EC2/DepthDuration/v2_depth_duration_MTurk/v2_DepthDuration_HTML.html#336,336,1440,900,1440,900,8-29-2022,13-25-31,79,depth_duration_stimuli/000642_2014-06-08_16-59-25_260595134347_rgbf000098-resize_2/000642_2014-06-08_16-59-25_260595134347_rgbf000098-resize_2-target.png,125,2.8815,1,3035,125,feet,jsons/VE125_randls_2.json,742159,994920,48,Man
79,692818,DepthScenes,duration_manipulation_targetAtFixation,jsons/VE125_randls_2.json,http://54.235.29.9/FacialAge/BNav_EC2/DepthDuration/v2_depth_duration_MTurk/v2_DepthDuration_HTML.html#336,336,1440,900,1440,900,8-29-2022,13-25-31,80,depth_duration_stimuli/002425_2014-06-28_20-27-29_260595134347_rgbf000031-resize_8/002425_2014-06-28_20-27-29_260595134347_rgbf000031-resize_8-target.png,125,3.8960000000000004,2,3337,123,feet,jsons/VE125_randls_2.json,742159,994920,48,Man
80,692818,DepthScenes,duration_manipulation_targetAtFixation,jsons/VE125_randls_2.json,http://54.235.29.9/FacialAge/BNav_EC2/DepthDuration/v2_depth_duration_MTurk/v2_DepthDuration_HTML.html#336,336,1440,900,1440,900,8-29-2022,13-25-31,81,depth_duration_stimuli/000447_2014-06-08_16-15-46_260595134347_rgbf000130-resize_1/000447_2014-06-08_16-15-46_260595134347_rgbf000130-resize_1-target.png,125,4.479,3,3689,120,feet,jsons/VE125_randls_2.json,742159,994920,48,Man
81,692818,DepthScenes,duration_manipulation_targetAtFixation,jsons/VE125_randls_2.json,http://54.235.29.9/FacialAge/BNav_EC2/DepthDuration/v2_depth_duration_MTurk/v2_DepthDuration_HTML.html#336,336,1440,900,1440,900,8-29-2022,13-25-31,82,depth_duration_stimuli/001447_2014-06-19_17-00-32_260595134347_rgbf000082-resize_5/001447_2014-06-19_17-00-32_260595134347_rgbf000082-resize_5-target.png,125,4.13775,2,3090,126,feet,jsons/VE125_randls_2.json,742159,994920,48,Man
82,692818,DepthScenes,duration_manipulation_targetAtFixation,jsons/VE125_randls_2.json,http://54.235.29.9/FacialAge/BNav_EC2/DepthDuration/v2_depth_duration_MTurk/v2_DepthDuration_HTML.html#336,336,1440,900,1440,900,8-29-2022,13-25-31,83,depth_duration_stimuli/000917_2014-06-09_22-45-29_260595134347_rgbf000149-resize_3/000917_2014-06-09_22-45-29_260595134347_rgbf000149-resize_3-target.png,125,4.1865,3,4128,122,feet,jsons/VE125_randls_2.json,742159,994920,48,Man
83,692818,DepthScenes,duration_manipulation_targetAtFixation,jsons/VE125_randls_2.json,http://54.235.29.9/FacialAge/BNav_EC2/DepthDuration/v2_depth_duration_MTurk/v2_DepthDuration_HTML.html#336,336,1440,900,1440,900,8-29-2022,13-25-31,84,depth_duration_stimuli/002323_2014-06-28_20-01-54_260595134347_rgbf000051-resize_4/002323_2014-06-28_20-01-54_260595134347_rgbf000051-resize_4-target.png,125,3.7310000000000003,4,4387,123,feet,jsons/VE125_randls_2.json,742159,994920,48,Man
84,692818,DepthScenes,duration_manipulation_targetAtFixation,jsons/VE125_randls_2.json,http://54.235.29.9/FacialAge/BNav_EC2/DepthDuration/v2_depth_duration_MTurk/v2_DepthDuration_HTML.html#336,336,1440,900,1440,900,8-29-2022,13-25-31,85,depth_duration_stimuli/000682_2014-06-08_23-14-58_260595134347_rgbf000041-resize_5/000682_2014-06-08_23-14-58_260595134347_rgbf000041-resize_5-target.png,125,2.7239999999999998,1,4057,124,feet,jsons/VE125_randls_2.json,742159,994920,48,Man
85,692818,DepthScenes,duration_manipulation_targetAtFixation,jsons/VE125_randls_2.json,http://54.235.29.9/FacialAge/BNav_EC2/DepthDuration/v2_depth_duration_MTurk/v2_DepthDuration_HTML.html#336,336,1440,900,1440,900,8-29-2022,13-25-31,86,depth_duration_stimuli/001650_2014-06-20_12-09-00_260595134347_rgbf000087-resize_3/001650_2014-06-20_12-09-00_260595134347_rgbf000087-resize_3-target.png,125,1.9505,1,3217,125,feet,jsons/VE125_randls_2.json,742159,994920,48,Man
86,692818,DepthScenes,duration_manipulation_targetAtFixation,jsons/VE125_randls_2.json,http://54.235.29.9/FacialAge/BNav_EC2/DepthDuration/v2_depth_duration_MTurk/v2_DepthDuration_HTML.html#336,336,1440,900,1440,900,8-29-2022,13-25-31,87,depth_duration_stimuli/001167_2014-06-17_15-38-07_260595134347_rgbf000108-resize_0/001167_2014-06-17_15-38-07_260595134347_rgbf000108-resize_0-target.png,125,1.8505,1,5339,124,feet,jsons/VE125_randls_2.json,742159,994920,48,Man
87,692818,DepthScenes,duration_manipulation_targetAtFixation,jsons/VE125_randls_2.json,http://54.235.29.9/FacialAge/BNav_EC2/DepthDuration/v2_depth_duration_MTurk/v2_DepthDuration_HTML.html#336,336,1440,900,1440,900,8-29-2022,13-25-31,88,depth_duration_stimuli/003587_2014-05-23_16-48-02_094959634447_rgbf002384-resize_2/003587_2014-05-23_16-48-02_094959634447_rgbf002384-resize_2-target.png,125,1.357,11,3845,130,feet,jsons/VE125_randls_2.json,742159,994920,48,Man
88,692818,DepthScenes,duration_manipulation_targetAtFixation,jsons/VE125_randls_2.json,http://54.235.29.9/FacialAge/BNav_EC2/DepthDuration/v2_depth_duration_MTurk/v2_DepthDuration_HTML.html#336,336,1440,900,1440,900,8-29-2022,13-25-31,89,depth_duration_stimuli/002272_2014-06-28_18-53-56_260595134347_rgbf000067-resize_2/002272_2014-06-28_18-53-56_260595134347_rgbf000067-resize_2-target.png,125,1.138,1,5202,125,feet,jsons/VE125_randls_2.json,742159,994920,48,Man
89,692818,DepthScenes,duration_manipulation_targetAtFixation,jsons/VE125_randls_2.json,http://54.235.29.9/FacialAge/BNav_EC2/DepthDuration/v2_depth_duration_MTurk/v2_DepthDuration_HTML.html#336,336,1440,900,1440,900,8-29-2022,13-25-31,90,depth_duration_stimuli/001571_2014-06-20_17-21-32_260595134347_rgbf000089-resize_1/001571_2014-06-20_17-21-32_260595134347_rgbf000089-resize_1-target.png,125,1.86,1,4036,124,feet,jsons/VE125_randls_2.json,742159,994920,48,Man
90,692818,DepthScenes,duration_manipulation_targetAtFixation,jsons/VE125_randls_2.json,http://54.235.29.9/FacialAge/BNav_EC2/DepthDuration/v2_depth_duration_MTurk/v2_DepthDuration_HTML.html#336,336,1440,900,1440,900,8-29-2022,13-25-31,91,depth_duration_stimuli/001056_2014-06-08_18-46-44_260595134347_rgbf000068-resize_0/001056_2014-06-08_18-46-44_260595134347_rgbf000068-resize_0-target.png,125,2.6625,1,4344,126,feet,jsons/VE125_randls_2.json,742159,994920,48,Man
91,692818,DepthScenes,duration_manipulation_targetAtFixation,jsons/VE125_randls_2.json,http://54.235.29.9/FacialAge/BNav_EC2/DepthDuration/v2_depth_duration_MTurk/v2_DepthDuration_HTML.html#336,336,1440,900,1440,900,8-29-2022,13-25-31,92,depth_duration_stimuli/002199_2014-06-28_18-33-56_260595134347_rgbf000074-resize_0/002199_2014-06-28_18-33-56_260595134347_rgbf000074-resize_0-target.png,125,1.996,1,2883,122,feet,jsons/VE125_randls_2.json,742159,994920,48,Man
92,692818,DepthScenes,duration_manipulation_targetAtFixation,jsons/VE125_randls_2.json,http://54.235.29.9/FacialAge/BNav_EC2/DepthDuration/v2_depth_duration_MTurk/v2_DepthDuration_HTML.html#336,336,1440,900,1440,900,8-29-2022,13-25-31,93,depth_duration_stimuli/002788_2014-06-22_19-36-03_094959634447_rgbf000088-resize_2/002788_2014-06-22_19-36-03_094959634447_rgbf000088-resize_2-target.png,125,1.6465,2,4473,126,feet,jsons/VE125_randls_2.json,742159,994920,48,Man
93,692818,DepthScenes,duration_manipulation_targetAtFixation,jsons/VE125_randls_2.json,http://54.235.29.9/FacialAge/BNav_EC2/DepthDuration/v2_depth_duration_MTurk/v2_DepthDuration_HTML.html#336,336,1440,900,1440,900,8-29-2022,13-25-31,94,depth_duration_stimuli/000749_2014-06-08_21-55-06_260595134347_rgbf000070-resize_2/000749_2014-06-08_21-55-06_260595134347_rgbf000070-resize_2-target.png,125,2.331,2,3802,126,feet,jsons/VE125_randls_2.json,742159,994920,48,Man
94,692818,DepthScenes,duration_manipulation_targetAtFixation,jsons/VE125_randls_2.json,http://54.235.29.9/FacialAge/BNav_EC2/DepthDuration/v2_depth_duration_MTurk/v2_DepthDuration_HTML.html#336,336,1440,900,1440,900,8-29-2022,13-25-31,95,depth_duration_stimuli/001175_2014-06-17_15-45-55_260595134347_rgbf000129-resize_4/001175_2014-06-17_15-45-55_260595134347_rgbf000129-resize_4-target.png,125,4.255,1,4886,125,feet,jsons/VE125_randls_2.json,742159,994920,48,Man
95,692818,DepthScenes,duration_manipulation_targetAtFixation,jsons/VE125_randls_2.json,http://54.235.29.9/FacialAge/BNav_EC2/DepthDuration/v2_depth_duration_MTurk/v2_DepthDuration_HTML.html#336,336,1440,900,1440,900,8-29-2022,13-25-31,96,depth_duration_stimuli/003490_2014-05-21_15-50-11_094959634447_rgbf000101-resize_3/003490_2014-05-21_15-50-11_094959634447_rgbf000101-resize_3-target.png,125,3.6445,1,4285,124,feet,jsons/VE125_randls_2.json,742159,994920,48,Man
96,692818,DepthScenes,duration_manipulation_targetAtFixation,jsons/VE125_randls_2.json,http://54.235.29.9/FacialAge/BNav_EC2/DepthDuration/v2_depth_duration_MTurk/v2_DepthDuration_HTML.html#336,336,1440,900,1440,900,8-29-2022,13-25-31,97,depth_duration_stimuli/002600_2014-06-24_14-27-04_094959634447_rgbf000074-resize_2/002600_2014-06-24_14-27-04_094959634447_rgbf000074-resize_2-target.png,125,2.7575,1,4315,125,feet,jsons/VE125_randls_2.json,742159,994920,48,Man
97,692818,DepthScenes,duration_manipulation_targetAtFixation,jsons/VE125_randls_2.json,http://54.235.29.9/FacialAge/BNav_EC2/DepthDuration/v2_depth_duration_MTurk/v2_DepthDuration_HTML.html#336,336,1440,900,1440,900,8-29-2022,13-25-31,98,depth_duration_stimuli/003228_2014-05-14_13-42-35_094959634447_rgbf000101-resize_1/003228_2014-05-14_13-42-35_094959634447_rgbf000101-resize_1-target.png,125,1.9680000000000002,1,2288,123,feet,jsons/VE125_randls_2.json,742159,994920,48,Man
98,692818,DepthScenes,duration_manipulation_targetAtFixation,jsons/VE125_randls_2.json,http://54.235.29.9/FacialAge/BNav_EC2/DepthDuration/v2_depth_duration_MTurk/v2_DepthDuration_HTML.html#336,336,1440,900,1440,900,8-29-2022,13-25-31,99,depth_duration_stimuli/001540_2014-06-20_17-01-05_260595134347_rgbf000086-resize_2/001540_2014-06-20_17-01-05_260595134347_rgbf000086-resize-original.jpg,125,1.459,0,3443,125,feet,jsons/VE125_randls_2.json,742159,994920,48,Man
99,692818,DepthScenes,duration_manipulation_targetAtFixation,jsons/VE125_randls_2.json,http://54.235.29.9/FacialAge/BNav_EC2/DepthDuration/v2_depth_duration_MTurk/v2_DepthDuration_HTML.html#336,336,1440,900,1440,900,8-29-2022,13-25-31,100,depth_duration_stimuli/000009_2014-05-26_14-32-05_260595134347_rgbf000034-resize_3/000009_2014-05-26_14-32-05_260595134347_rgbf000034-resize_3-target.png,125,3.8715,5,3861,124,feet,jsons/VE125_randls_2.json,742159,994920,48,Man
100,692818,DepthScenes,duration_manipulation_targetAtFixation,jsons/VE125_randls_2.json,http://54.235.29.9/FacialAge/BNav_EC2/DepthDuration/v2_depth_duration_MTurk/v2_DepthDuration_HTML.html#336,336,1440,900,1440,900,8-29-2022,13-25-31,101,depth_duration_stimuli/001828_2014-06-26_21-40-03_260595134347_rgbf000024-resize_0/001828_2014-06-26_21-40-03_260595134347_rgbf000024-resize_0-target.png,125,4.8260000000000005,1,2860,126,feet,jsons/VE125_randls_2.json,742159,994920,48,Man
101,692818,DepthScenes,duration_manipulation_targetAtFixation,jsons/VE125_randls_2.json,http://54.235.29.9/FacialAge/BNav_EC2/DepthDuration/v2_depth_duration_MTurk/v2_DepthDuration_HTML.html#336,336,1440,900,1440,900,8-29-2022,13-25-31,102,depth_duration_stimuli/002279_2014-06-28_18-55-32_260595134347_rgbf000040-resize_5/002279_2014-06-28_18-55-32_260595134347_rgbf000040-resize_5-target.png,125,1.5043333333333,1,4371,124,feet,jsons/VE125_randls_2.json,742159,994920,48,Man
102,692818,DepthScenes,duration_manipulation_targetAtFixation,jsons/VE125_randls_2.json,http://54.235.29.9/FacialAge/BNav_EC2/DepthDuration/v2_depth_duration_MTurk/v2_DepthDuration_HTML.html#336,336,1440,900,1440,900,8-29-2022,13-25-31,103,depth_duration_stimuli/000635_2014-06-08_16-38-42_260595134347_rgbf000106-resize_1/000635_2014-06-08_16-38-42_260595134347_rgbf000106-resize_1-target.png,125,2.074,2,2422,126,feet,jsons/VE125_randls_2.json,742159,994920,48,Man
103,692818,DepthScenes,duration_manipulation_targetAtFixation,jsons/VE125_randls_2.json,http://54.235.29.9/FacialAge/BNav_EC2/DepthDuration/v2_depth_duration_MTurk/v2_DepthDuration_HTML.html#336,336,1440,900,1440,900,8-29-2022,13-25-31,104,depth_duration_stimuli/002725_2014-06-22_11-47-51_094959634447_rgbf000070-resize_1/002725_2014-06-22_11-47-51_094959634447_rgbf000070-resize_1-target.png,125,2.195,1,3448,124,feet,jsons/VE125_randls_2.json,742159,994920,48,Man
104,692818,DepthScenes,duration_manipulation_targetAtFixation,jsons/VE125_randls_2.json,http://54.235.29.9/FacialAge/BNav_EC2/DepthDuration/v2_depth_duration_MTurk/v2_DepthDuration_HTML.html#336,336,1440,900,1440,900,8-29-2022,13-25-31,105,depth_duration_stimuli/002344_2014-06-28_20-06-29_260595134347_rgbf000030-resize_1/002344_2014-06-28_20-06-29_260595134347_rgbf000030-resize_1-target.png,125,1.5795,1,2198,124,feet,jsons/VE125_randls_2.json,742159,994920,48,Man
105,692818,DepthScenes,duration_manipulation_targetAtFixation,jsons/VE125_randls_2.json,http://54.235.29.9/FacialAge/BNav_EC2/DepthDuration/v2_depth_duration_MTurk/v2_DepthDuration_HTML.html#336,336,1440,900,1440,900,8-29-2022,13-25-31,106,depth_duration_stimuli/000692_2014-06-08_13-09-42_260595134347_rgbf000199-resize_2/000692_2014-06-08_13-09-42_260595134347_rgbf000199-resize_2-target.png,125,3.661,2,3226,124,feet,jsons/VE125_randls_2.json,742159,994920,48,Man
106,692818,DepthScenes,duration_manipulation_targetAtFixation,jsons/VE125_randls_2.json,http://54.235.29.9/FacialAge/BNav_EC2/DepthDuration/v2_depth_duration_MTurk/v2_DepthDuration_HTML.html#336,336,1440,900,1440,900,8-29-2022,13-25-31,107,depth_duration_stimuli/001094_2014-06-15_17-36-00_260595134347_rgbf000205-resize_0/001094_2014-06-15_17-36-00_260595134347_rgbf000205-resize_0-target.png,125,4.2175,2,2666,123,feet,jsons/VE125_randls_2.json,742159,994920,48,Man
107,692818,DepthScenes,duration_manipulation_targetAtFixation,jsons/VE125_randls_2.json,http://54.235.29.9/FacialAge/BNav_EC2/DepthDuration/v2_depth_duration_MTurk/v2_DepthDuration_HTML.html#336,336,1440,900,1440,900,8-29-2022,13-25-31,108,depth_duration_stimuli/001059_2014-06-08_21-53-27_260595134347_rgbf000061-resize_4/001059_2014-06-08_21-53-27_260595134347_rgbf000061-resize_4-target.png,125,2.4185,1,3464,126,feet,jsons/VE125_randls_2.json,742159,994920,48,Man
108,692818,DepthScenes,duration_manipulation_targetAtFixation,jsons/VE125_randls_2.json,http://54.235.29.9/FacialAge/BNav_EC2/DepthDuration/v2_depth_duration_MTurk/v2_DepthDuration_HTML.html#336,336,1440,900,1440,900,8-29-2022,13-25-31,109,depth_duration_stimuli/001032_2014-06-08_13-23-17_260595134347_rgbf000021-resize_3/001032_2014-06-08_13-23-17_260595134347_rgbf000021-resize_3-target.png,125,3.2725,2,2397,125,feet,jsons/VE125_randls_2.json,742159,994920,48,Man
109,692818,DepthScenes,duration_manipulation_targetAtFixation,jsons/VE125_randls_2.json,http://54.235.29.9/FacialAge/BNav_EC2/DepthDuration/v2_depth_duration_MTurk/v2_DepthDuration_HTML.html#336,336,1440,900,1440,900,8-29-2022,13-25-31,110,depth_duration_stimuli/002057_2014-06-24_21-00-13_260595134347_rgbf000120-resize_1/002057_2014-06-24_21-00-13_260595134347_rgbf000120-resize_1-target.png,125,2.967,3,4386,128,feet,jsons/VE125_randls_2.json,742159,994920,48,Man
110,692818,DepthScenes,duration_manipulation_targetAtFixation,jsons/VE125_randls_2.json,http://54.235.29.9/FacialAge/BNav_EC2/DepthDuration/v2_depth_duration_MTurk/v2_DepthDuration_HTML.html#336,336,1440,900,1440,900,8-29-2022,13-25-31,111,depth_duration_stimuli/000709_2014-06-08_13-51-55_260595134347_rgbf000068-resize_3/000709_2014-06-08_13-51-55_260595134347_rgbf000068-resize_3-target.png,125,1.8030000000000002,2,2485,124,feet,jsons/VE125_randls_2.json,742159,994920,48,Man
111,692818,DepthScenes,duration_manipulation_targetAtFixation,jsons/VE125_randls_2.json,http://54.235.29.9/FacialAge/BNav_EC2/DepthDuration/v2_depth_duration_MTurk/v2_DepthDuration_HTML.html#336,336,1440,900,1440,900,8-29-2022,13-25-31,112,depth_duration_stimuli/001806_2014-06-26_20-50-20_260595134347_rgbf000091-resize_1/001806_2014-06-26_20-50-20_260595134347_rgbf000091-resize_1-target.png,125,2.7305,2,3194,124,feet,jsons/VE125_randls_2.json,742159,994920,48,Man
112,692818,DepthScenes,duration_manipulation_targetAtFixation,jsons/VE125_randls_2.json,http://54.235.29.9/FacialAge/BNav_EC2/DepthDuration/v2_depth_duration_MTurk/v2_DepthDuration_HTML.html#336,336,1440,900,1440,900,8-29-2022,13-25-31,113,depth_duration_stimuli/001617_2014-06-20_11-35-32_260595134347_rgbf000066-resize_1/001617_2014-06-20_11-35-32_260595134347_rgbf000066-resize_1-target.png,125,3.7910000000000004,3,2433,125,feet,jsons/VE125_randls_2.json,742159,994920,48,Man
113,692818,DepthScenes,duration_manipulation_targetAtFixation,jsons/VE125_randls_2.json,http://54.235.29.9/FacialAge/BNav_EC2/DepthDuration/v2_depth_duration_MTurk/v2_DepthDuration_HTML.html#336,336,1440,900,1440,900,8-29-2022,13-25-31,114,depth_duration_stimuli/000506_2014-06-08_23-21-00_260595134347_rgbf000070-resize_7/000506_2014-06-08_23-21-00_260595134347_rgbf000070-resize_7-target.png,125,4.0585,2,3372,126,feet,jsons/VE125_randls_2.json,742159,994920,48,Man
114,692818,DepthScenes,duration_manipulation_targetAtFixation,jsons/VE125_randls_2.json,http://54.235.29.9/FacialAge/BNav_EC2/DepthDuration/v2_depth_duration_MTurk/v2_DepthDuration_HTML.html#336,336,1440,900,1440,900,8-29-2022,13-25-31,115,depth_duration_stimuli/003079_2014-06-15_15-18-20_094959634447_rgbf000152-resize_8/003079_2014-06-15_15-18-20_094959634447_rgbf000152-resize_8-target.png,125,2.8775,3,4386,123,feet,jsons/VE125_randls_2.json,742159,994920,48,Man
115,692818,DepthScenes,duration_manipulation_targetAtFixation,jsons/VE125_randls_2.json,http://54.235.29.9/FacialAge/BNav_EC2/DepthDuration/v2_depth_duration_MTurk/v2_DepthDuration_HTML.html#336,336,1440,900,1440,900,8-29-2022,13-25-31,116,depth_duration_stimuli/001170_2014-06-17_15-43-44_260595134347_rgbf000096-resize_6/001170_2014-06-17_15-43-44_260595134347_rgbf000096-resize-original.jpg,125,1.1909999999999998,0,5233,123,feet,jsons/VE125_randls_2.json,742159,994920,48,Man
116,692818,DepthScenes,duration_manipulation_targetAtFixation,jsons/VE125_randls_2.json,http://54.235.29.9/FacialAge/BNav_EC2/DepthDuration/v2_depth_duration_MTurk/v2_DepthDuration_HTML.html#336,336,1440,900,1440,900,8-29-2022,13-25-31,117,depth_duration_stimuli/002663_2014-06-13_15-50-26_094959634447_rgbf000075-resize_1/002663_2014-06-13_15-50-26_094959634447_rgbf000075-resize_1-target.png,125,4.7495,3,5037,124,feet,jsons/VE125_randls_2.json,742159,994920,48,Man
117,692818,DepthScenes,duration_manipulation_targetAtFixation,jsons/VE125_randls_2.json,http://54.235.29.9/FacialAge/BNav_EC2/DepthDuration/v2_depth_duration_MTurk/v2_DepthDuration_HTML.html#336,336,1440,900,1440,900,8-29-2022,13-25-31,118,depth_duration_stimuli/000409_2014-06-04_19-23-33_260595134347_rgbf000067-resize_0/000409_2014-06-04_19-23-33_260595134347_rgbf000067-resize_0-target.png,125,3.7335,3,2336,127,feet,jsons/VE125_randls_2.json,742159,994920,48,Man
118,692818,DepthScenes,duration_manipulation_targetAtFixation,jsons/VE125_randls_2.json,http://54.235.29.9/FacialAge/BNav_EC2/DepthDuration/v2_depth_duration_MTurk/v2_DepthDuration_HTML.html#336,336,1440,900,1440,900,8-29-2022,13-25-31,119,depth_duration_stimuli/003621_2014-05-23_18-06-08_094959634447_rgbf000101-resize_1/003621_2014-05-23_18-06-08_094959634447_rgbf000101-resize_1-target.png,125,3.9835,2,4247,124,feet,jsons/VE125_randls_2.json,742159,994920,48,Man
119,692818,DepthScenes,duration_manipulation_targetAtFixation,jsons/VE125_randls_2.json,http://54.235.29.9/FacialAge/BNav_EC2/DepthDuration/v2_depth_duration_MTurk/v2_DepthDuration_HTML.html#336,336,1440,900,1440,900,8-29-2022,13-25-31,120,depth_duration_stimuli/001584_2014-06-20_11-07-43_260595134347_rgbf000002-resize_1/001584_2014-06-20_11-07-43_260595134347_rgbf000002-resize_1-target.png,125,3.53,1,3651,124,feet,jsons/VE125_randls_2.json,742159,994920,48,Man
120,692818,DepthScenes,duration_manipulation_targetAtFixation,jsons/VE125_randls_2.json,http://54.235.29.9/FacialAge/BNav_EC2/DepthDuration/v2_depth_duration_MTurk/v2_DepthDuration_HTML.html#336,336,1440,900,1440,900,8-29-2022,13-25-31,121,depth_duration_stimuli/000758_2014-06-08_22-05-08_260595134347_rgbf000085-resize_0/000758_2014-06-08_22-05-08_260595134347_rgbf000085-resize_0-target.png,125,3.3810000000000002,2,4974,124,feet,jsons/VE125_randls_2.json,742159,994920,48,Man
121,692818,DepthScenes,duration_manipulation_targetAtFixation,jsons/VE125_randls_2.json,http://54.235.29.9/FacialAge/BNav_EC2/DepthDuration/v2_depth_duration_MTurk/v2_DepthDuration_HTML.html#336,336,1440,900,1440,900,8-29-2022,13-25-31,122,depth_duration_stimuli/000854_2014-06-09_19-43-13_260595134347_rgbf000066-resize_0/000854_2014-06-09_19-43-13_260595134347_rgbf000066-resize_0-target.png,125,3.068,1,3719,124,feet,jsons/VE125_randls_2.json,742159,994920,48,Man
122,692818,DepthScenes,duration_manipulation_targetAtFixation,jsons/VE125_randls_2.json,http://54.235.29.9/FacialAge/BNav_EC2/DepthDuration/v2_depth_duration_MTurk/v2_DepthDuration_HTML.html#336,336,1440,900,1440,900,8-29-2022,13-25-31,123,depth_duration_stimuli/002748_2014-06-22_19-07-22_094959634447_rgbf000078-resize_1/002748_2014-06-22_19-07-22_094959634447_rgbf000078-resize_1-target.png,125,4.6705,2,4583,124,feet,jsons/VE125_randls_2.json,742159,994920,48,Man
123,692818,DepthScenes,duration_manipulation_targetAtFixation,jsons/VE125_randls_2.json,http://54.235.29.9/FacialAge/BNav_EC2/DepthDuration/v2_depth_duration_MTurk/v2_DepthDuration_HTML.html#336,336,1440,900,1440,900,8-29-2022,13-25-31,124,depth_duration_stimuli/002995_2014-06-15_12-31-26_094959634447_rgbf000150-resize_1/002995_2014-06-15_12-31-26_094959634447_rgbf000150-resize_1-target.png,125,3.8360000000000003,2,2691,125,feet,jsons/VE125_randls_2.json,742159,994920,48,Man
124,692818,DepthScenes,duration_manipulation_targetAtFixation,jsons/VE125_randls_2.json,http://54.235.29.9/FacialAge/BNav_EC2/DepthDuration/v2_depth_duration_MTurk/v2_DepthDuration_HTML.html#336,336,1440,900,1440,900,8-29-2022,13-25-31,125,depth_duration_stimuli/000788_2014-06-08_22-34-36_260595134347_rgbf000131-resize_1/000788_2014-06-08_22-34-36_260595134347_rgbf000131-resize_1-target.png,125,3.359,1,3802,124,feet,jsons/VE125_randls_2.json,742159,994920,48,Man
125,692818,DepthScenes,duration_manipulation_targetAtFixation,jsons/VE125_randls_2.json,http://54.235.29.9/FacialAge/BNav_EC2/DepthDuration/v2_depth_duration_MTurk/v2_DepthDuration_HTML.html#336,336,1440,900,1440,900,8-29-2022,13-25-31,126,depth_duration_stimuli/001235_2014-06-17_16-37-36_260595134347_rgbf000084-resize_4/001235_2014-06-17_16-37-36_260595134347_rgbf000084-resize_4-target.png,125,3.6605,1,2587,126,feet,jsons/VE125_randls_2.json,742159,994920,48,Man
126,692818,DepthScenes,duration_manipulation_targetAtFixation,jsons/VE125_randls_2.json,http://54.235.29.9/FacialAge/BNav_EC2/DepthDuration/v2_depth_duration_MTurk/v2_DepthDuration_HTML.html#336,336,1440,900,1440,900,8-29-2022,13-25-31,127,depth_duration_stimuli/000736_2014-06-08_18-24-15_260595134347_rgbf000206-resize_3/000736_2014-06-08_18-24-15_260595134347_rgbf000206-resize_3-target.png,125,3.515,1,4000,123,feet,jsons/VE125_randls_2.json,742159,994920,48,Man
127,692818,DepthScenes,duration_manipulation_targetAtFixation,jsons/VE125_randls_2.json,http://54.235.29.9/FacialAge/BNav_EC2/DepthDuration/v2_depth_duration_MTurk/v2_DepthDuration_HTML.html#336,336,1440,900,1440,900,8-29-2022,13-25-31,128,depth_duration_stimuli/000137_2014-05-20_17-04-49_260595134347_rgbf000120-resize_1/000137_2014-05-20_17-04-49_260595134347_rgbf000120-resize_1-target.png,125,3.786,2,3362,125,feet,jsons/VE125_randls_2.json,742159,994920,48,Man
128,692818,DepthScenes,duration_manipulation_targetAtFixation,jsons/VE125_randls_2.json,http://54.235.29.9/FacialAge/BNav_EC2/DepthDuration/v2_depth_duration_MTurk/v2_DepthDuration_HTML.html#336,336,1440,900,1440,900,8-29-2022,13-25-31,129,depth_duration_stimuli/001150_2014-06-17_15-27-34_260595134347_rgbf000108-resize_2/001150_2014-06-17_15-27-34_260595134347_rgbf000108-resize_2-target.png,125,4.0325,3,4010,133,feet,jsons/VE125_randls_2.json,742159,994920,48,Man
129,692818,DepthScenes,duration_manipulation_targetAtFixation,jsons/VE125_randls_2.json,http://54.235.29.9/FacialAge/BNav_EC2/DepthDuration/v2_depth_duration_MTurk/v2_DepthDuration_HTML.html#336,336,1440,900,1440,900,8-29-2022,13-25-31,130,depth_duration_stimuli/000665_2014-06-09_20-42-35_260595134347_rgbf000110-resize_1/000665_2014-06-09_20-42-35_260595134347_rgbf000110-resize_1-target.png,125,3.057,1,2326,121,feet,jsons/VE125_randls_2.json,742159,994920,48,Man
130,692818,DepthScenes,duration_manipulation_targetAtFixation,jsons/VE125_randls_2.json,http://54.235.29.9/FacialAge/BNav_EC2/DepthDuration/v2_depth_duration_MTurk/v2_DepthDuration_HTML.html#336,336,1440,900,1440,900,8-29-2022,13-25-31,131,depth_duration_stimuli/002988_2014-06-15_12-24-20_094959634447_rgbf000150-resize_1/002988_2014-06-15_12-24-20_094959634447_rgbf000150-resize_1-target.png,125,4.7669999999999995,4,3825,124,feet,jsons/VE125_randls_2.json,742159,994920,48,Man
131,692818,DepthScenes,duration_manipulation_targetAtFixation,jsons/VE125_randls_2.json,http://54.235.29.9/FacialAge/BNav_EC2/DepthDuration/v2_depth_duration_MTurk/v2_DepthDuration_HTML.html#336,336,1440,900,1440,900,8-29-2022,13-25-31,132,depth_duration_stimuli/001052_2014-06-08_18-24-54_260595134347_rgbf000130-resize_1/001052_2014-06-08_18-24-54_260595134347_rgbf000130-resize_1-target.png,125,4.1045,4,2603,124,feet,jsons/VE125_randls_2.json,742159,994920,48,Man
132,692818,DepthScenes,duration_manipulation_targetAtFixation,jsons/VE125_randls_2.json,http://54.235.29.9/FacialAge/BNav_EC2/DepthDuration/v2_depth_duration_MTurk/v2_DepthDuration_HTML.html#336,336,1440,900,1440,900,8-29-2022,13-25-31,133,depth_duration_stimuli/001570_2014-06-20_17-21-09_260595134347_rgbf000135-resize_4/001570_2014-06-20_17-21-09_260595134347_rgbf000135-resize_4-target.png,125,4.467,4,5273,126,feet,jsons/VE125_randls_2.json,742159,994920,48,Man
133,692818,DepthScenes,duration_manipulation_targetAtFixation,jsons/VE125_randls_2.json,http://54.235.29.9/FacialAge/BNav_EC2/DepthDuration/v2_depth_duration_MTurk/v2_DepthDuration_HTML.html#336,336,1440,900,1440,900,8-29-2022,13-25-31,134,depth_duration_stimuli/001392_2014-06-19_16-07-59_260595134347_rgbf000046-resize_1/001392_2014-06-19_16-07-59_260595134347_rgbf000046-resize_1-target.png,125,4.135,4,3770,124,feet,jsons/VE125_randls_2.json,742159,994920,48,Man
134,692818,DepthScenes,duration_manipulation_targetAtFixation,jsons/VE125_randls_2.json,http://54.235.29.9/FacialAge/BNav_EC2/DepthDuration/v2_depth_duration_MTurk/v2_DepthDuration_HTML.html#336,336,1440,900,1440,900,8-29-2022,13-25-31,135,depth_duration_stimuli/002072_2014-06-24_21-48-06_260595134347_rgbf000115-resize_0/002072_2014-06-24_21-48-06_260595134347_rgbf000115-resize-original.jpg,125,4.702,0,3949,126,feet,jsons/VE125_randls_2.json,742159,994920,48,Man
135,692818,DepthScenes,duration_manipulation_targetAtFixation,jsons/VE125_randls_2.json,http://54.235.29.9/FacialAge/BNav_EC2/DepthDuration/v2_depth_duration_MTurk/v2_DepthDuration_HTML.html#336,336,1440,900,1440,900,8-29-2022,13-25-31,136,depth_duration_stimuli/002784_2014-06-22_19-26-30_094959634447_rgbf000083-resize_3/002784_2014-06-22_19-26-30_094959634447_rgbf000083-resize_3-target.png,125,1.8046666666667,1,5689,125,feet,jsons/VE125_randls_2.json,742159,994920,48,Man
136,692818,DepthScenes,duration_manipulation_targetAtFixation,jsons/VE125_randls_2.json,http://54.235.29.9/FacialAge/BNav_EC2/DepthDuration/v2_depth_duration_MTurk/v2_DepthDuration_HTML.html#336,336,1440,900,1440,900,8-29-2022,13-25-31,137,depth_duration_stimuli/001100_2014-06-15_17-46-26_260595134347_rgbf000225-resize_2/001100_2014-06-15_17-46-26_260595134347_rgbf000225-resize_2-target.png,125,2.24,1,3844,124,feet,jsons/VE125_randls_2.json,742159,994920,48,Man
137,692818,DepthScenes,duration_manipulation_targetAtFixation,jsons/VE125_randls_2.json,http://54.235.29.9/FacialAge/BNav_EC2/DepthDuration/v2_depth_duration_MTurk/v2_DepthDuration_HTML.html#336,336,1440,900,1440,900,8-29-2022,13-25-31,138,depth_duration_stimuli/001810_2014-06-26_20-51-35_260595134347_rgbf000040-resize_3/001810_2014-06-26_20-51-35_260595134347_rgbf000040-resize_3-target.png,125,2.2525,1,3631,125,feet,jsons/VE125_randls_2.json,742159,994920,48,Man
138,692818,DepthScenes,duration_manipulation_targetAtFixation,jsons/VE125_randls_2.json,http://54.235.29.9/FacialAge/BNav_EC2/DepthDuration/v2_depth_duration_MTurk/v2_DepthDuration_HTML.html#336,336,1440,900,1440,900,8-29-2022,13-25-31,139,depth_duration_stimuli/003010_2014-06-15_12-54-35_094959634447_rgbf000112-resize_0/003010_2014-06-15_12-54-35_094959634447_rgbf000112-resize_0-target.png,125,3.1185,3,2681,127,feet,jsons/VE125_randls_2.json,742159,994920,48,Man
139,692818,DepthScenes,duration_manipulation_targetAtFixation,jsons/VE125_randls_2.json,http://54.235.29.9/FacialAge/BNav_EC2/DepthDuration/v2_depth_duration_MTurk/v2_DepthDuration_HTML.html#336,336,1440,900,1440,900,8-29-2022,13-25-31,140,depth_duration_stimuli/000773_2014-06-08_22-24-54_260595134347_rgbf000093-resize_1/000773_2014-06-08_22-24-54_260595134347_rgbf000093-resize_1-target.png,125,4.973,2,3241,121,feet,jsons/VE125_randls_2.json,742159,994920,48,Man
140,692818,DepthScenes,duration_manipulation_targetAtFixation,jsons/VE125_randls_2.json,http://54.235.29.9/FacialAge/BNav_EC2/DepthDuration/v2_depth_duration_MTurk/v2_DepthDuration_HTML.html#336,336,1440,900,1440,900,8-29-2022,13-25-31,141,depth_duration_stimuli/002414_2014-06-28_20-24-58_260595134347_rgbf000067-resize_4/002414_2014-06-28_20-24-58_260595134347_rgbf000067-resize_4-target.png,125,4.363,1,2986,124,feet,jsons/VE125_randls_2.json,742159,994920,48,Man
141,692818,DepthScenes,duration_manipulation_targetAtFixation,jsons/VE125_randls_2.json,http://54.235.29.9/FacialAge/BNav_EC2/DepthDuration/v2_depth_duration_MTurk/v2_DepthDuration_HTML.html#336,336,1440,900,1440,900,8-29-2022,13-25-31,142,depth_duration_stimuli/002039_2014-06-24_20-22-38_260595134347_rgbf000084-resize_1/002039_2014-06-24_20-22-38_260595134347_rgbf000084-resize_1-target.png,125,4.408,2,2709,126,feet,jsons/VE125_randls_2.json,742159,994920,48,Man
142,692818,DepthScenes,duration_manipulation_targetAtFixation,jsons/VE125_randls_2.json,http://54.235.29.9/FacialAge/BNav_EC2/DepthDuration/v2_depth_duration_MTurk/v2_DepthDuration_HTML.html#336,336,1440,900,1440,900,8-29-2022,13-25-31,143,depth_duration_stimuli/002103_2014-06-25_20-00-40_260595134347_rgbf000049-resize_0/002103_2014-06-25_20-00-40_260595134347_rgbf000049-resize_0-target.png,125,4.105,3,2476,124,feet,jsons/VE125_randls_2.json,742159,994920,48,Man
143,692818,DepthScenes,duration_manipulation_targetAtFixation,jsons/VE125_randls_2.json,http://54.235.29.9/FacialAge/BNav_EC2/DepthDuration/v2_depth_duration_MTurk/v2_DepthDuration_HTML.html#336,336,1440,900,1440,900,8-29-2022,13-25-31,144,depth_duration_stimuli/000414_2014-06-04_19-49-13_260595134347_rgbf000044-resize_0/000414_2014-06-04_19-49-13_260595134347_rgbf000044-resize_0-target.png,125,4.329,4,5144,125,feet,jsons/VE125_randls_2.json,742159,994920,48,Man
144,692818,DepthScenes,duration_manipulation_targetAtFixation,jsons/VE125_randls_2.json,http://54.235.29.9/FacialAge/BNav_EC2/DepthDuration/v2_depth_duration_MTurk/v2_DepthDuration_HTML.html#336,336,1440,900,1440,900,8-29-2022,13-25-31,145,depth_duration_stimuli/003129_2014-05-12_10-48-10_094959634447_rgbf000100-resize_0/003129_2014-05-12_10-48-10_094959634447_rgbf000100-resize_0-target.png,125,4.9305,1,2668,125,feet,jsons/VE125_randls_2.json,742159,994920,48,Man
145,692818,DepthScenes,duration_manipulation_targetAtFixation,jsons/VE125_randls_2.json,http://54.235.29.9/FacialAge/BNav_EC2/DepthDuration/v2_depth_duration_MTurk/v2_DepthDuration_HTML.html#336,336,1440,900,1440,900,8-29-2022,13-25-31,146,depth_duration_stimuli/001498_2014-06-19_17-45-14_260595134347_rgbf000129-resize_4/001498_2014-06-19_17-45-14_260595134347_rgbf000129-resize-original.jpg,125,1.4075,0,3856,124,feet,jsons/VE125_randls_2.json,742159,994920,48,Man
146,692818,DepthScenes,duration_manipulation_targetAtFixation,jsons/VE125_randls_2.json,http://54.235.29.9/FacialAge/BNav_EC2/DepthDuration/v2_depth_duration_MTurk/v2_DepthDuration_HTML.html#336,336,1440,900,1440,900,8-29-2022,13-25-31,147,depth_duration_stimuli/002213_2014-06-28_18-37-58_260595134347_rgbf000055-resize_1/002213_2014-06-28_18-37-58_260595134347_rgbf000055-resize_1-target.png,125,3.62,4,2969,125,feet,jsons/VE125_randls_2.json,742159,994920,48,Man
147,692818,DepthScenes,duration_manipulation_targetAtFixation,jsons/VE125_randls_2.json,http://54.235.29.9/FacialAge/BNav_EC2/DepthDuration/v2_depth_duration_MTurk/v2_DepthDuration_HTML.html#336,336,1440,900,1440,900,8-29-2022,13-25-31,148,depth_duration_stimuli/000691_2014-06-08_13-08-50_260595134347_rgbf000132-resize_3/000691_2014-06-08_13-08-50_260595134347_rgbf000132-resize_3-target.png,125,4.1530000000000005,2,2860,124,feet,jsons/VE125_randls_2.json,742159,994920,48,Man
148,692818,DepthScenes,duration_manipulation_targetAtFixation,jsons/VE125_randls_2.json,http://54.235.29.9/FacialAge/BNav_EC2/DepthDuration/v2_depth_duration_MTurk/v2_DepthDuration_HTML.html#336,336,1440,900,1440,900,8-29-2022,13-25-31,149,depth_duration_stimuli/000486_2014-06-09_20-47-20_260595134347_rgbf000143-resize_2/000486_2014-06-09_20-47-20_260595134347_rgbf000143-resize_2-target.png,125,4.8325,1,4631,124,feet,jsons/VE125_randls_2.json,742159,994920,48,Man
149,692818,DepthScenes,duration_manipulation_targetAtFixation,jsons/VE125_randls_2.json,http://54.235.29.9/FacialAge/BNav_EC2/DepthDuration/v2_depth_duration_MTurk/v2_DepthDuration_HTML.html#336,336,1440,900,1440,900,8-29-2022,13-25-31,150,depth_duration_stimuli/003083_2014-06-15_15-21-03_094959634447_rgbf000063-resize_1/003083_2014-06-15_15-21-03_094959634447_rgbf000063-resize_1-target.png,125,4.1405,4,2448,124,feet,jsons/VE125_randls_2.json,742159,994920,48,Man
150,692818,DepthScenes,duration_manipulation_targetAtFixation,jsons/VE125_randls_2.json,http://54.235.29.9/FacialAge/BNav_EC2/DepthDuration/v2_depth_duration_MTurk/v2_DepthDuration_HTML.html#336,336,1440,900,1440,900,8-29-2022,13-25-31,151,depth_duration_stimuli/002118_2014-06-25_20-32-08_260595134347_rgbf000078-resize_1/002118_2014-06-25_20-32-08_260595134347_rgbf000078-resize_1-target.png,125,2.6460000000000004,1,2940,125,feet,jsons/VE125_randls_2.json,742159,994920,48,Man
151,692818,DepthScenes,duration_manipulation_targetAtFixation,jsons/VE125_randls_2.json,http://54.235.29.9/FacialAge/BNav_EC2/DepthDuration/v2_depth_duration_MTurk/v2_DepthDuration_HTML.html#336,336,1440,900,1440,900,8-29-2022,13-25-31,152,depth_duration_stimuli/001516_2014-06-20_16-25-09_260595134347_rgbf000076-resize_2/001516_2014-06-20_16-25-09_260595134347_rgbf000076-resize_2-target.png,125,1.7445,2,3059,125,feet,jsons/VE125_randls_2.json,742159,994920,48,Man
152,692818,DepthScenes,duration_manipulation_targetAtFixation,jsons/VE125_randls_2.json,http://54.235.29.9/FacialAge/BNav_EC2/DepthDuration/v2_depth_duration_MTurk/v2_DepthDuration_HTML.html#336,336,1440,900,1440,900,8-29-2022,13-25-31,153,depth_duration_stimuli/000878_2014-06-08_22-52-45_260595134347_rgbf000045-resize_2/000878_2014-06-08_22-52-45_260595134347_rgbf000045-resize_2-target.png,125,2.092,5,5900,125,feet,jsons/VE125_randls_2.json,742159,994920,48,Man
153,692818,DepthScenes,duration_manipulation_targetAtFixation,jsons/VE125_randls_2.json,http://54.235.29.9/FacialAge/BNav_EC2/DepthDuration/v2_depth_duration_MTurk/v2_DepthDuration_HTML.html#336,336,1440,900,1440,900,8-29-2022,13-25-31,154,depth_duration_stimuli/002953_2014-06-08_17-32-18_094959634447_rgbf000059-resize_5/002953_2014-06-08_17-32-18_094959634447_rgbf000059-resize_5-target.png,125,1.551,5,6370,123,feet,jsons/VE125_randls_2.json,742159,994920,48,Man
154,692818,DepthScenes,duration_manipulation_targetAtFixation,jsons/VE125_randls_2.json,http://54.235.29.9/FacialAge/BNav_EC2/DepthDuration/v2_depth_duration_MTurk/v2_DepthDuration_HTML.html#336,336,1440,900,1440,900,8-29-2022,13-25-31,155,depth_duration_stimuli/000436_2014-06-09_22-25-11_260595134347_rgbf000137-resize_1/000436_2014-06-09_22-25-11_260595134347_rgbf000137-resize_1-target.png,125,4.0705,2,2943,125,feet,jsons/VE125_randls_2.json,742159,994920,48,Man
155,692818,DepthScenes,duration_manipulation_targetAtFixation,jsons/VE125_randls_2.json,http://54.235.29.9/FacialAge/BNav_EC2/DepthDuration/v2_depth_duration_MTurk/v2_DepthDuration_HTML.html#336,336,1440,900,1440,900,8-29-2022,13-25-31,156,depth_duration_stimuli/002444_2014-06-28_20-32-08_260595134347_rgbf000027-resize_0/002444_2014-06-28_20-32-08_260595134347_rgbf000027-resize_0-target.png,125,4.388999999999999,3,2900,124,feet,jsons/VE125_randls_2.json,742159,994920,48,Man
156,692818,DepthScenes,duration_manipulation_targetAtFixation,jsons/VE125_randls_2.json,http://54.235.29.9/FacialAge/BNav_EC2/DepthDuration/v2_depth_duration_MTurk/v2_DepthDuration_HTML.html#336,336,1440,900,1440,900,8-29-2022,13-25-31,157,depth_duration_stimuli/001158_2014-06-17_15-32-16_260595134347_rgbf000138-resize_2/001158_2014-06-17_15-32-16_260595134347_rgbf000138-resize_2-target.png,125,4.5315,2,4377,124,feet,jsons/VE125_randls_2.json,742159,994920,48,Man
157,692818,DepthScenes,duration_manipulation_targetAtFixation,jsons/VE125_randls_2.json,http://54.235.29.9/FacialAge/BNav_EC2/DepthDuration/v2_depth_duration_MTurk/v2_DepthDuration_HTML.html#336,336,1440,900,1440,900,8-29-2022,13-25-31,158,depth_duration_stimuli/000556_2014-06-09_22-42-56_260595134347_rgbf000214-resize_1/000556_2014-06-09_22-42-56_260595134347_rgbf000214-resize_1-target.png,125,4.8415,1,2369,124,feet,jsons/VE125_randls_2.json,742159,994920,48,Man
158,692818,DepthScenes,duration_manipulation_targetAtFixation,jsons/VE125_randls_2.json,http://54.235.29.9/FacialAge/BNav_EC2/DepthDuration/v2_depth_duration_MTurk/v2_DepthDuration_HTML.html#336,336,1440,900,1440,900,8-29-2022,13-25-31,159,depth_duration_stimuli/000906_2014-06-08_13-35-43_260595134347_rgbf000155-resize_1/000906_2014-06-08_13-35-43_260595134347_rgbf000155-resize_1-target.png,125,2.8489999999999998,3,3234,124,feet,jsons/VE125_randls_2.json,742159,994920,48,Man
159,692818,DepthScenes,duration_manipulation_targetAtFixation,jsons/VE125_randls_2.json,http://54.235.29.9/FacialAge/BNav_EC2/DepthDuration/v2_depth_duration_MTurk/v2_DepthDuration_HTML.html#336,336,1440,900,1440,900,8-29-2022,13-25-31,160,depth_duration_stimuli/002805_2014-06-22_19-54-03_094959634447_rgbf000079-resize_1/002805_2014-06-22_19-54-03_094959634447_rgbf000079-resize_1-target.png,125,3.1439999999999997,3,3172,124,feet,jsons/VE125_randls_2.json,742159,994920,48,Man
160,692818,DepthScenes,duration_manipulation_targetAtFixation,jsons/VE125_randls_2.json,http://54.235.29.9/FacialAge/BNav_EC2/DepthDuration/v2_depth_duration_MTurk/v2_DepthDuration_HTML.html#336,336,1440,900,1440,900,8-29-2022,13-25-31,161,depth_duration_stimuli/002445_2014-06-28_20-32-16_260595134347_rgbf000029-resize_4/002445_2014-06-28_20-32-16_260595134347_rgbf000029-resize_4-target.png,125,2.5315,2,4574,123,feet,jsons/VE125_randls_2.json,742159,994920,48,Man
161,692818,DepthScenes,duration_manipulation_targetAtFixation,jsons/VE125_randls_2.json,http://54.235.29.9/FacialAge/BNav_EC2/DepthDuration/v2_depth_duration_MTurk/v2_DepthDuration_HTML.html#336,336,1440,900,1440,900,8-29-2022,13-25-31,162,depth_duration_stimuli/000780_2014-06-08_22-28-29_260595134347_rgbf000126-resize_1/000780_2014-06-08_22-28-29_260595134347_rgbf000126-resize_1-target.png,125,3.3825,4,2612,125,feet,jsons/VE125_randls_2.json,742159,994920,48,Man
162,692818,DepthScenes,duration_manipulation_targetAtFixation,jsons/VE125_randls_2.json,http://54.235.29.9/FacialAge/BNav_EC2/DepthDuration/v2_depth_duration_MTurk/v2_DepthDuration_HTML.html#336,336,1440,900,1440,900,8-29-2022,13-25-31,163,depth_duration_stimuli/002763_2014-06-22_19-13-10_094959634447_rgbf000075-resize_4/002763_2014-06-22_19-13-10_094959634447_rgbf000075-resize_4-target.png,125,1.68375,3,2833,126,feet,jsons/VE125_randls_2.json,742159,994920,48,Man
163,692818,DepthScenes,duration_manipulation_targetAtFixation,jsons/VE125_randls_2.json,http://54.235.29.9/FacialAge/BNav_EC2/DepthDuration/v2_depth_duration_MTurk/v2_DepthDuration_HTML.html#336,336,1440,900,1440,900,8-29-2022,13-25-31,164,depth_duration_stimuli/002209_2014-06-28_18-36-10_260595134347_rgbf000051-resize_1/002209_2014-06-28_18-36-10_260595134347_rgbf000051-resize_1-target.png,125,2.057,2,2987,125,feet,jsons/VE125_randls_2.json,742159,994920,48,Man
