,subjID,experimentName,versionName,sequenceName,url,selected_row,windowWidth,windowHeight,screenWidth,screenHeight,startDate,startTime,trial,stimulus,duration,actual_depth,depth_estimate,trial_RT,log_sceneDuration,unitSelection,seq_filepath,experimentTime,totalTime,age,gender
0,693109,DepthScenes,duration_manipulation_targetAtFixation,jsons/v1_VE1000_randls_25.json,http://54.235.29.9/FacialAge/BNav_EC2/DepthDuration/v2_depth_duration_MTurk/v2_DepthDuration_HTML.html#279,279,1366,625,1366,768,8-29-2022,14-51-55,1,depth_duration_stimuli/001059_2014-06-08_21-53-27_260595134347_rgbf000061-resize_4/001059_2014-06-08_21-53-27_260595134347_rgbf000061-resize_4-target.png,1000,2.4185,0,19664,998,feet,jsons/v1_VE1000_randls_25.json,1522975,1794232,48,Woman
1,693109,DepthScenes,duration_manipulation_targetAtFixation,jsons/v1_VE1000_randls_25.json,http://54.235.29.9/FacialAge/BNav_EC2/DepthDuration/v2_depth_duration_MTurk/v2_DepthDuration_HTML.html#279,279,1366,625,1366,768,8-29-2022,14-51-55,2,depth_duration_stimuli/001032_2014-06-08_13-23-17_260595134347_rgbf000021-resize_3/001032_2014-06-08_13-23-17_260595134347_rgbf000021-resize_3-target.png,1000,3.2725,1,6345,1000,feet,jsons/v1_VE1000_randls_25.json,1522975,1794232,48,Woman
2,693109,DepthScenes,duration_manipulation_targetAtFixation,jsons/v1_VE1000_randls_25.json,http://54.235.29.9/FacialAge/BNav_EC2/DepthDuration/v2_depth_duration_MTurk/v2_DepthDuration_HTML.html#279,279,1366,625,1366,768,8-29-2022,14-51-55,3,depth_duration_stimuli/001066_2014-06-08_22-03-20_260595134347_rgbf000066-resize_4/001066_2014-06-08_22-03-20_260595134347_rgbf000066-resize_4-target.png,1000,4.2330000000000005,1,31132,1000,feet,jsons/v1_VE1000_randls_25.json,1522975,1794232,48,Woman
3,693109,DepthScenes,duration_manipulation_targetAtFixation,jsons/v1_VE1000_randls_25.json,http://54.235.29.9/FacialAge/BNav_EC2/DepthDuration/v2_depth_duration_MTurk/v2_DepthDuration_HTML.html#279,279,1366,625,1366,768,8-29-2022,14-51-55,4,depth_duration_stimuli/000742_2014-06-08_18-48-09_260595134347_rgbf000164-resize_4/000742_2014-06-08_18-48-09_260595134347_rgbf000164-resize_4-target.png,1000,4.632,2,9175,1001,feet,jsons/v1_VE1000_randls_25.json,1522975,1794232,48,Woman
4,693109,DepthScenes,duration_manipulation_targetAtFixation,jsons/v1_VE1000_randls_25.json,http://54.235.29.9/FacialAge/BNav_EC2/DepthDuration/v2_depth_duration_MTurk/v2_DepthDuration_HTML.html#279,279,1366,625,1366,768,8-29-2022,14-51-55,5,depth_duration_stimuli/002663_2014-06-13_15-50-26_094959634447_rgbf000075-resize_1/002663_2014-06-13_15-50-26_094959634447_rgbf000075-resize_1-target.png,1000,4.7495,2,6305,1001,feet,jsons/v1_VE1000_randls_25.json,1522975,1794232,48,Woman
5,693109,DepthScenes,duration_manipulation_targetAtFixation,jsons/v1_VE1000_randls_25.json,http://54.235.29.9/FacialAge/BNav_EC2/DepthDuration/v2_depth_duration_MTurk/v2_DepthDuration_HTML.html#279,279,1366,625,1366,768,8-29-2022,14-51-55,6,depth_duration_stimuli/000409_2014-06-04_19-23-33_260595134347_rgbf000067-resize_0/000409_2014-06-04_19-23-33_260595134347_rgbf000067-resize_0-target.png,1000,3.7335,1,5129,1021,feet,jsons/v1_VE1000_randls_25.json,1522975,1794232,48,Woman
6,693109,DepthScenes,duration_manipulation_targetAtFixation,jsons/v1_VE1000_randls_25.json,http://54.235.29.9/FacialAge/BNav_EC2/DepthDuration/v2_depth_duration_MTurk/v2_DepthDuration_HTML.html#279,279,1366,625,1366,768,8-29-2022,14-51-55,7,depth_duration_stimuli/000642_2014-06-08_16-59-25_260595134347_rgbf000098-resize_2/000642_2014-06-08_16-59-25_260595134347_rgbf000098-resize_2-target.png,1000,2.8815,1,6237,990,feet,jsons/v1_VE1000_randls_25.json,1522975,1794232,48,Woman
7,693109,DepthScenes,duration_manipulation_targetAtFixation,jsons/v1_VE1000_randls_25.json,http://54.235.29.9/FacialAge/BNav_EC2/DepthDuration/v2_depth_duration_MTurk/v2_DepthDuration_HTML.html#279,279,1366,625,1366,768,8-29-2022,14-51-55,8,depth_duration_stimuli/002425_2014-06-28_20-27-29_260595134347_rgbf000031-resize_8/002425_2014-06-28_20-27-29_260595134347_rgbf000031-resize_8-target.png,1000,3.8960000000000004,2,4765,1002,feet,jsons/v1_VE1000_randls_25.json,1522975,1794232,48,Woman
8,693109,DepthScenes,duration_manipulation_targetAtFixation,jsons/v1_VE1000_randls_25.json,http://54.235.29.9/FacialAge/BNav_EC2/DepthDuration/v2_depth_duration_MTurk/v2_DepthDuration_HTML.html#279,279,1366,625,1366,768,8-29-2022,14-51-55,9,depth_duration_stimuli/001810_2014-06-26_20-51-35_260595134347_rgbf000040-resize_3/001810_2014-06-26_20-51-35_260595134347_rgbf000040-resize_3-target.png,1000,2.2525,1,5216,1004,feet,jsons/v1_VE1000_randls_25.json,1522975,1794232,48,Woman
9,693109,DepthScenes,duration_manipulation_targetAtFixation,jsons/v1_VE1000_randls_25.json,http://54.235.29.9/FacialAge/BNav_EC2/DepthDuration/v2_depth_duration_MTurk/v2_DepthDuration_HTML.html#279,279,1366,625,1366,768,8-29-2022,14-51-55,10,depth_duration_stimuli/003010_2014-06-15_12-54-35_094959634447_rgbf000112-resize_0/003010_2014-06-15_12-54-35_094959634447_rgbf000112-resize_0-target.png,1000,3.1185,5,6522,994,feet,jsons/v1_VE1000_randls_25.json,1522975,1794232,48,Woman
10,693109,DepthScenes,duration_manipulation_targetAtFixation,jsons/v1_VE1000_randls_25.json,http://54.235.29.9/FacialAge/BNav_EC2/DepthDuration/v2_depth_duration_MTurk/v2_DepthDuration_HTML.html#279,279,1366,625,1366,768,8-29-2022,14-51-55,11,depth_duration_stimuli/002445_2014-06-28_20-32-16_260595134347_rgbf000029-resize_4/002445_2014-06-28_20-32-16_260595134347_rgbf000029-resize_4-target.png,1000,2.5315,1,4834,999,feet,jsons/v1_VE1000_randls_25.json,1522975,1794232,48,Woman
11,693109,DepthScenes,duration_manipulation_targetAtFixation,jsons/v1_VE1000_randls_25.json,http://54.235.29.9/FacialAge/BNav_EC2/DepthDuration/v2_depth_duration_MTurk/v2_DepthDuration_HTML.html#279,279,1366,625,1366,768,8-29-2022,14-51-55,12,depth_duration_stimuli/000780_2014-06-08_22-28-29_260595134347_rgbf000126-resize_1/000780_2014-06-08_22-28-29_260595134347_rgbf000126-resize_1-target.png,1000,3.3825,3,4494,1001,feet,jsons/v1_VE1000_randls_25.json,1522975,1794232,48,Woman
12,693109,DepthScenes,duration_manipulation_targetAtFixation,jsons/v1_VE1000_randls_25.json,http://54.235.29.9/FacialAge/BNav_EC2/DepthDuration/v2_depth_duration_MTurk/v2_DepthDuration_HTML.html#279,279,1366,625,1366,768,8-29-2022,14-51-55,13,depth_duration_stimuli/000569_2014-06-09_22-51-47_260595134347_rgbf000141-resize_3/000569_2014-06-09_22-51-47_260595134347_rgbf000141-resize-original.jpg,1000,4.512,3,8899,999,feet,jsons/v1_VE1000_randls_25.json,1522975,1794232,48,Woman
13,693109,DepthScenes,duration_manipulation_targetAtFixation,jsons/v1_VE1000_randls_25.json,http://54.235.29.9/FacialAge/BNav_EC2/DepthDuration/v2_depth_duration_MTurk/v2_DepthDuration_HTML.html#279,279,1366,625,1366,768,8-29-2022,14-51-55,14,depth_duration_stimuli/001244_2014-06-17_16-47-45_260595134347_rgbf000030-resize_4/001244_2014-06-17_16-47-45_260595134347_rgbf000030-resize_4-target.png,1000,2.0425,1,5562,999,feet,jsons/v1_VE1000_randls_25.json,1522975,1794232,48,Woman
14,693109,DepthScenes,duration_manipulation_targetAtFixation,jsons/v1_VE1000_randls_25.json,http://54.235.29.9/FacialAge/BNav_EC2/DepthDuration/v2_depth_duration_MTurk/v2_DepthDuration_HTML.html#279,279,1366,625,1366,768,8-29-2022,14-51-55,15,depth_duration_stimuli/003495_2014-05-21_16-01-51_094959634447_rgbf000100-resize_3/003495_2014-05-21_16-01-51_094959634447_rgbf000100-resize_3-target.png,1000,1.6255,5,5833,991,feet,jsons/v1_VE1000_randls_25.json,1522975,1794232,48,Woman
15,693109,DepthScenes,duration_manipulation_targetAtFixation,jsons/v1_VE1000_randls_25.json,http://54.235.29.9/FacialAge/BNav_EC2/DepthDuration/v2_depth_duration_MTurk/v2_DepthDuration_HTML.html#279,279,1366,625,1366,768,8-29-2022,14-51-55,16,depth_duration_stimuli/003292_2014-05-14_21-53-49_094959634447_rgbf000100-resize_2/003292_2014-05-14_21-53-49_094959634447_rgbf000100-resize_2-target.png,1000,3.4815,1,5337,999,feet,jsons/v1_VE1000_randls_25.json,1522975,1794232,48,Woman
16,693109,DepthScenes,duration_manipulation_targetAtFixation,jsons/v1_VE1000_randls_25.json,http://54.235.29.9/FacialAge/BNav_EC2/DepthDuration/v2_depth_duration_MTurk/v2_DepthDuration_HTML.html#279,279,1366,625,1366,768,8-29-2022,14-51-55,17,depth_duration_stimuli/002639_2014-06-24_14-51-37_094959634447_rgbf000074-resize_4/002639_2014-06-24_14-51-37_094959634447_rgbf000074-resize_4-target.png,1000,4.0375,3,6044,999,feet,jsons/v1_VE1000_randls_25.json,1522975,1794232,48,Woman
17,693109,DepthScenes,duration_manipulation_targetAtFixation,jsons/v1_VE1000_randls_25.json,http://54.235.29.9/FacialAge/BNav_EC2/DepthDuration/v2_depth_duration_MTurk/v2_DepthDuration_HTML.html#279,279,1366,625,1366,768,8-29-2022,14-51-55,18,depth_duration_stimuli/000368_2014-06-09_15-53-01_260595134347_rgbf000155-resize_2/000368_2014-06-09_15-53-01_260595134347_rgbf000155-resize_2-target.png,1000,2.4859999999999998,2,5347,998,feet,jsons/v1_VE1000_randls_25.json,1522975,1794232,48,Woman
18,693109,DepthScenes,duration_manipulation_targetAtFixation,jsons/v1_VE1000_randls_25.json,http://54.235.29.9/FacialAge/BNav_EC2/DepthDuration/v2_depth_duration_MTurk/v2_DepthDuration_HTML.html#279,279,1366,625,1366,768,8-29-2022,14-51-55,19,depth_duration_stimuli/002678_2014-06-13_16-15-32_094959634447_rgbf000151-resize_6/002678_2014-06-13_16-15-32_094959634447_rgbf000151-resize_6-target.png,1000,2.1830000000000003,1,7320,999,feet,jsons/v1_VE1000_randls_25.json,1522975,1794232,48,Woman
19,693109,DepthScenes,duration_manipulation_targetAtFixation,jsons/v1_VE1000_randls_25.json,http://54.235.29.9/FacialAge/BNav_EC2/DepthDuration/v2_depth_duration_MTurk/v2_DepthDuration_HTML.html#279,279,1366,625,1366,768,8-29-2022,14-51-55,20,depth_duration_stimuli/002784_2014-06-22_19-26-30_094959634447_rgbf000083-resize_3/002784_2014-06-22_19-26-30_094959634447_rgbf000083-resize_3-target.png,1000,1.8046666666667,2,5534,998,feet,jsons/v1_VE1000_randls_25.json,1522975,1794232,48,Woman
20,693109,DepthScenes,duration_manipulation_targetAtFixation,jsons/v1_VE1000_randls_25.json,http://54.235.29.9/FacialAge/BNav_EC2/DepthDuration/v2_depth_duration_MTurk/v2_DepthDuration_HTML.html#279,279,1366,625,1366,768,8-29-2022,14-51-55,21,depth_duration_stimuli/001100_2014-06-15_17-46-26_260595134347_rgbf000225-resize_2/001100_2014-06-15_17-46-26_260595134347_rgbf000225-resize_2-target.png,1000,2.24,3,6016,985,feet,jsons/v1_VE1000_randls_25.json,1522975,1794232,48,Woman
21,693109,DepthScenes,duration_manipulation_targetAtFixation,jsons/v1_VE1000_randls_25.json,http://54.235.29.9/FacialAge/BNav_EC2/DepthDuration/v2_depth_duration_MTurk/v2_DepthDuration_HTML.html#279,279,1366,625,1366,768,8-29-2022,14-51-55,22,depth_duration_stimuli/002630_2014-06-24_14-47-50_094959634447_rgbf000055-resize_1/002630_2014-06-24_14-47-50_094959634447_rgbf000055-resize_1-target.png,1000,3.0095,5,5567,995,feet,jsons/v1_VE1000_randls_25.json,1522975,1794232,48,Woman
22,693109,DepthScenes,duration_manipulation_targetAtFixation,jsons/v1_VE1000_randls_25.json,http://54.235.29.9/FacialAge/BNav_EC2/DepthDuration/v2_depth_duration_MTurk/v2_DepthDuration_HTML.html#279,279,1366,625,1366,768,8-29-2022,14-51-55,23,depth_duration_stimuli/002758_2014-06-22_19-11-20_094959634447_rgbf000128-resize_1/002758_2014-06-22_19-11-20_094959634447_rgbf000128-resize_1-target.png,1000,2.555,1,3840,992,feet,jsons/v1_VE1000_randls_25.json,1522975,1794232,48,Woman
23,693109,DepthScenes,duration_manipulation_targetAtFixation,jsons/v1_VE1000_randls_25.json,http://54.235.29.9/FacialAge/BNav_EC2/DepthDuration/v2_depth_duration_MTurk/v2_DepthDuration_HTML.html#279,279,1366,625,1366,768,8-29-2022,14-51-55,24,depth_duration_stimuli/001449_2014-06-19_17-01-27_260595134347_rgbf000116-resize_2/001449_2014-06-19_17-01-27_260595134347_rgbf000116-resize_2-target.png,1000,3.452,2,3994,974,feet,jsons/v1_VE1000_randls_25.json,1522975,1794232,48,Woman
24,693109,DepthScenes,duration_manipulation_targetAtFixation,jsons/v1_VE1000_randls_25.json,http://54.235.29.9/FacialAge/BNav_EC2/DepthDuration/v2_depth_duration_MTurk/v2_DepthDuration_HTML.html#279,279,1366,625,1366,768,8-29-2022,14-51-55,25,depth_duration_stimuli/001450_2014-06-19_17-02-03_260595134347_rgbf000203-resize_4/001450_2014-06-19_17-02-03_260595134347_rgbf000203-resize_4-target.png,1000,4.0106666666667,3,3302,981,feet,jsons/v1_VE1000_randls_25.json,1522975,1794232,48,Woman
25,693109,DepthScenes,duration_manipulation_targetAtFixation,jsons/v1_VE1000_randls_25.json,http://54.235.29.9/FacialAge/BNav_EC2/DepthDuration/v2_depth_duration_MTurk/v2_DepthDuration_HTML.html#279,279,1366,625,1366,768,8-29-2022,14-51-55,26,depth_duration_stimuli/002905_2014-06-03_18-04-43_094959634447_rgbf000151-resize_2/002905_2014-06-03_18-04-43_094959634447_rgbf000151-resize_2-target.png,1000,2.0295,2,3925,975,feet,jsons/v1_VE1000_randls_25.json,1522975,1794232,48,Woman
26,693109,DepthScenes,duration_manipulation_targetAtFixation,jsons/v1_VE1000_randls_25.json,http://54.235.29.9/FacialAge/BNav_EC2/DepthDuration/v2_depth_duration_MTurk/v2_DepthDuration_HTML.html#279,279,1366,625,1366,768,8-29-2022,14-51-55,27,depth_duration_stimuli/003423_2014-05-21_10-23-26_094959634447_rgbf002665-resize_2/003423_2014-05-21_10-23-26_094959634447_rgbf002665-resize_2-target.png,1000,3.2575,2,3651,997,feet,jsons/v1_VE1000_randls_25.json,1522975,1794232,48,Woman
27,693109,DepthScenes,duration_manipulation_targetAtFixation,jsons/v1_VE1000_randls_25.json,http://54.235.29.9/FacialAge/BNav_EC2/DepthDuration/v2_depth_duration_MTurk/v2_DepthDuration_HTML.html#279,279,1366,625,1366,768,8-29-2022,14-51-55,28,depth_duration_stimuli/000788_2014-06-08_22-34-36_260595134347_rgbf000131-resize_1/000788_2014-06-08_22-34-36_260595134347_rgbf000131-resize_1-target.png,1000,3.359,1,4049,991,feet,jsons/v1_VE1000_randls_25.json,1522975,1794232,48,Woman
28,693109,DepthScenes,duration_manipulation_targetAtFixation,jsons/v1_VE1000_randls_25.json,http://54.235.29.9/FacialAge/BNav_EC2/DepthDuration/v2_depth_duration_MTurk/v2_DepthDuration_HTML.html#279,279,1366,625,1366,768,8-29-2022,14-51-55,29,depth_duration_stimuli/001235_2014-06-17_16-37-36_260595134347_rgbf000084-resize_4/001235_2014-06-17_16-37-36_260595134347_rgbf000084-resize_4-target.png,1000,3.6605,2,3464,1001,feet,jsons/v1_VE1000_randls_25.json,1522975,1794232,48,Woman
29,693109,DepthScenes,duration_manipulation_targetAtFixation,jsons/v1_VE1000_randls_25.json,http://54.235.29.9/FacialAge/BNav_EC2/DepthDuration/v2_depth_duration_MTurk/v2_DepthDuration_HTML.html#279,279,1366,625,1366,768,8-29-2022,14-51-55,30,depth_duration_stimuli/000375_2014-06-08_11-17-29_260595134347_rgbf000133-resize_2/000375_2014-06-08_11-17-29_260595134347_rgbf000133-resize-original.jpg,1000,4.718,0,4778,997,feet,jsons/v1_VE1000_randls_25.json,1522975,1794232,48,Woman
30,693109,DepthScenes,duration_manipulation_targetAtFixation,jsons/v1_VE1000_randls_25.json,http://54.235.29.9/FacialAge/BNav_EC2/DepthDuration/v2_depth_duration_MTurk/v2_DepthDuration_HTML.html#279,279,1366,625,1366,768,8-29-2022,14-51-55,31,depth_duration_stimuli/000447_2014-06-08_16-15-46_260595134347_rgbf000130-resize_1/000447_2014-06-08_16-15-46_260595134347_rgbf000130-resize_1-target.png,1000,4.479,5,5971,996,feet,jsons/v1_VE1000_randls_25.json,1522975,1794232,48,Woman
31,693109,DepthScenes,duration_manipulation_targetAtFixation,jsons/v1_VE1000_randls_25.json,http://54.235.29.9/FacialAge/BNav_EC2/DepthDuration/v2_depth_duration_MTurk/v2_DepthDuration_HTML.html#279,279,1366,625,1366,768,8-29-2022,14-51-55,32,depth_duration_stimuli/001447_2014-06-19_17-00-32_260595134347_rgbf000082-resize_5/001447_2014-06-19_17-00-32_260595134347_rgbf000082-resize_5-target.png,1000,4.13775,2,3490,994,feet,jsons/v1_VE1000_randls_25.json,1522975,1794232,48,Woman
32,693109,DepthScenes,duration_manipulation_targetAtFixation,jsons/v1_VE1000_randls_25.json,http://54.235.29.9/FacialAge/BNav_EC2/DepthDuration/v2_depth_duration_MTurk/v2_DepthDuration_HTML.html#279,279,1366,625,1366,768,8-29-2022,14-51-55,33,depth_duration_stimuli/000906_2014-06-08_13-35-43_260595134347_rgbf000155-resize_1/000906_2014-06-08_13-35-43_260595134347_rgbf000155-resize_1-target.png,1000,2.8489999999999998,5,3809,973,feet,jsons/v1_VE1000_randls_25.json,1522975,1794232,48,Woman
33,693109,DepthScenes,duration_manipulation_targetAtFixation,jsons/v1_VE1000_randls_25.json,http://54.235.29.9/FacialAge/BNav_EC2/DepthDuration/v2_depth_duration_MTurk/v2_DepthDuration_HTML.html#279,279,1366,625,1366,768,8-29-2022,14-51-55,34,depth_duration_stimuli/002805_2014-06-22_19-54-03_094959634447_rgbf000079-resize_1/002805_2014-06-22_19-54-03_094959634447_rgbf000079-resize_1-target.png,1000,3.1439999999999997,2,3814,1000,feet,jsons/v1_VE1000_randls_25.json,1522975,1794232,48,Woman
34,693109,DepthScenes,duration_manipulation_targetAtFixation,jsons/v1_VE1000_randls_25.json,http://54.235.29.9/FacialAge/BNav_EC2/DepthDuration/v2_depth_duration_MTurk/v2_DepthDuration_HTML.html#279,279,1366,625,1366,768,8-29-2022,14-51-55,35,depth_duration_stimuli/002043_2014-06-24_20-29-38_260595134347_rgbf000039-resize_4/002043_2014-06-24_20-29-38_260595134347_rgbf000039-resize_4-target.png,1000,2.8435,2,3465,956,feet,jsons/v1_VE1000_randls_25.json,1522975,1794232,48,Woman
35,693109,DepthScenes,duration_manipulation_targetAtFixation,jsons/v1_VE1000_randls_25.json,http://54.235.29.9/FacialAge/BNav_EC2/DepthDuration/v2_depth_duration_MTurk/v2_DepthDuration_HTML.html#279,279,1366,625,1366,768,8-29-2022,14-51-55,36,depth_duration_stimuli/003048_2014-06-15_13-49-43_094959634447_rgbf000150-resize_1/003048_2014-06-15_13-49-43_094959634447_rgbf000150-resize_1-target.png,1000,4.0035,3,3698,998,feet,jsons/v1_VE1000_randls_25.json,1522975,1794232,48,Woman
36,693109,DepthScenes,duration_manipulation_targetAtFixation,jsons/v1_VE1000_randls_25.json,http://54.235.29.9/FacialAge/BNav_EC2/DepthDuration/v2_depth_duration_MTurk/v2_DepthDuration_HTML.html#279,279,1366,625,1366,768,8-29-2022,14-51-55,37,depth_duration_stimuli/002725_2014-06-22_11-47-51_094959634447_rgbf000070-resize_1/002725_2014-06-22_11-47-51_094959634447_rgbf000070-resize_1-target.png,1000,2.195,3,3578,989,feet,jsons/v1_VE1000_randls_25.json,1522975,1794232,48,Woman
37,693109,DepthScenes,duration_manipulation_targetAtFixation,jsons/v1_VE1000_randls_25.json,http://54.235.29.9/FacialAge/BNav_EC2/DepthDuration/v2_depth_duration_MTurk/v2_DepthDuration_HTML.html#279,279,1366,625,1366,768,8-29-2022,14-51-55,38,depth_duration_stimuli/002344_2014-06-28_20-06-29_260595134347_rgbf000030-resize_1/002344_2014-06-28_20-06-29_260595134347_rgbf000030-resize_1-target.png,1000,1.5795,1,2998,683,feet,jsons/v1_VE1000_randls_25.json,1522975,1794232,48,Woman
38,693109,DepthScenes,duration_manipulation_targetAtFixation,jsons/v1_VE1000_randls_25.json,http://54.235.29.9/FacialAge/BNav_EC2/DepthDuration/v2_depth_duration_MTurk/v2_DepthDuration_HTML.html#279,279,1366,625,1366,768,8-29-2022,14-51-55,39,depth_duration_stimuli/001158_2014-06-17_15-32-16_260595134347_rgbf000138-resize_2/001158_2014-06-17_15-32-16_260595134347_rgbf000138-resize_2-target.png,1000,4.5315,2,4096,1010,feet,jsons/v1_VE1000_randls_25.json,1522975,1794232,48,Woman
39,693109,DepthScenes,duration_manipulation_targetAtFixation,jsons/v1_VE1000_randls_25.json,http://54.235.29.9/FacialAge/BNav_EC2/DepthDuration/v2_depth_duration_MTurk/v2_DepthDuration_HTML.html#279,279,1366,625,1366,768,8-29-2022,14-51-55,40,depth_duration_stimuli/000556_2014-06-09_22-42-56_260595134347_rgbf000214-resize_1/000556_2014-06-09_22-42-56_260595134347_rgbf000214-resize_1-target.png,1000,4.8415,2,5549,963,feet,jsons/v1_VE1000_randls_25.json,1522975,1794232,48,Woman
40,693109,DepthScenes,duration_manipulation_targetAtFixation,jsons/v1_VE1000_randls_25.json,http://54.235.29.9/FacialAge/BNav_EC2/DepthDuration/v2_depth_duration_MTurk/v2_DepthDuration_HTML.html#279,279,1366,625,1366,768,8-29-2022,14-51-55,41,depth_duration_stimuli/003534_2014-05-22_15-06-10_094959634447_rgbf000102-resize_4/003534_2014-05-22_15-06-10_094959634447_rgbf000102-resize_4-target.png,1000,1.426,1,4962,982,feet,jsons/v1_VE1000_randls_25.json,1522975,1794232,48,Woman
41,693109,DepthScenes,duration_manipulation_targetAtFixation,jsons/v1_VE1000_randls_25.json,http://54.235.29.9/FacialAge/BNav_EC2/DepthDuration/v2_depth_duration_MTurk/v2_DepthDuration_HTML.html#279,279,1366,625,1366,768,8-29-2022,14-51-55,42,depth_duration_stimuli/002637_2014-06-24_14-51-13_094959634447_rgbf000066-resize_4/002637_2014-06-24_14-51-13_094959634447_rgbf000066-resize_4-target.png,1000,1.9955,2,3548,978,feet,jsons/v1_VE1000_randls_25.json,1522975,1794232,48,Woman
42,693109,DepthScenes,duration_manipulation_targetAtFixation,jsons/v1_VE1000_randls_25.json,http://54.235.29.9/FacialAge/BNav_EC2/DepthDuration/v2_depth_duration_MTurk/v2_DepthDuration_HTML.html#279,279,1366,625,1366,768,8-29-2022,14-51-55,43,depth_duration_stimuli/000522_2014-06-08_13-35-06_260595134347_rgbf000244-resize_1/000522_2014-06-08_13-35-06_260595134347_rgbf000244-resize_1-target.png,1000,2.3715,2,5497,988,feet,jsons/v1_VE1000_randls_25.json,1522975,1794232,48,Woman
43,693109,DepthScenes,duration_manipulation_targetAtFixation,jsons/v1_VE1000_randls_25.json,http://54.235.29.9/FacialAge/BNav_EC2/DepthDuration/v2_depth_duration_MTurk/v2_DepthDuration_HTML.html#279,279,1366,625,1366,768,8-29-2022,14-51-55,44,depth_duration_stimuli/002949_2014-06-26_15-57-42_094959634447_rgbf000079-resize_1/002949_2014-06-26_15-57-42_094959634447_rgbf000079-resize_1-target.png,1000,1.8915,1,108882,994,feet,jsons/v1_VE1000_randls_25.json,1522975,1794232,48,Woman
44,693109,DepthScenes,duration_manipulation_targetAtFixation,jsons/v1_VE1000_randls_25.json,http://54.235.29.9/FacialAge/BNav_EC2/DepthDuration/v2_depth_duration_MTurk/v2_DepthDuration_HTML.html#279,279,1366,625,1366,768,8-29-2022,14-51-55,45,depth_duration_stimuli/000787_2014-06-08_22-33-53_260595134347_rgbf000175-resize_1/000787_2014-06-08_22-33-53_260595134347_rgbf000175-resize-original.jpg,1000,4.784,2,5458,987,feet,jsons/v1_VE1000_randls_25.json,1522975,1794232,48,Woman
45,693109,DepthScenes,duration_manipulation_targetAtFixation,jsons/v1_VE1000_randls_25.json,http://54.235.29.9/FacialAge/BNav_EC2/DepthDuration/v2_depth_duration_MTurk/v2_DepthDuration_HTML.html#279,279,1366,625,1366,768,8-29-2022,14-51-55,46,depth_duration_stimuli/000810_2014-06-08_17-20-01_260595134347_rgbf000105-resize_0/000810_2014-06-08_17-20-01_260595134347_rgbf000105-resize_0-target.png,1000,1.4865,1,4351,1006,feet,jsons/v1_VE1000_randls_25.json,1522975,1794232,48,Woman
46,693109,DepthScenes,duration_manipulation_targetAtFixation,jsons/v1_VE1000_randls_25.json,http://54.235.29.9/FacialAge/BNav_EC2/DepthDuration/v2_depth_duration_MTurk/v2_DepthDuration_HTML.html#279,279,1366,625,1366,768,8-29-2022,14-51-55,47,depth_duration_stimuli/001214_2014-06-17_16-13-55_260595134347_rgbf000111-resize_0/001214_2014-06-17_16-13-55_260595134347_rgbf000111-resize_0-target.png,1000,2.6505,1,3324,991,feet,jsons/v1_VE1000_randls_25.json,1522975,1794232,48,Woman
47,693109,DepthScenes,duration_manipulation_targetAtFixation,jsons/v1_VE1000_randls_25.json,http://54.235.29.9/FacialAge/BNav_EC2/DepthDuration/v2_depth_duration_MTurk/v2_DepthDuration_HTML.html#279,279,1366,625,1366,768,8-29-2022,14-51-55,48,depth_duration_stimuli/000758_2014-06-08_22-05-08_260595134347_rgbf000085-resize_0/000758_2014-06-08_22-05-08_260595134347_rgbf000085-resize_0-target.png,1000,3.3810000000000002,1,3935,1002,feet,jsons/v1_VE1000_randls_25.json,1522975,1794232,48,Woman
48,693109,DepthScenes,duration_manipulation_targetAtFixation,jsons/v1_VE1000_randls_25.json,http://54.235.29.9/FacialAge/BNav_EC2/DepthDuration/v2_depth_duration_MTurk/v2_DepthDuration_HTML.html#279,279,1366,625,1366,768,8-29-2022,14-51-55,49,depth_duration_stimuli/000854_2014-06-09_19-43-13_260595134347_rgbf000066-resize_0/000854_2014-06-09_19-43-13_260595134347_rgbf000066-resize_0-target.png,1000,3.068,2,3465,999,feet,jsons/v1_VE1000_randls_25.json,1522975,1794232,48,Woman
49,693109,DepthScenes,duration_manipulation_targetAtFixation,jsons/v1_VE1000_randls_25.json,http://54.235.29.9/FacialAge/BNav_EC2/DepthDuration/v2_depth_duration_MTurk/v2_DepthDuration_HTML.html#279,279,1366,625,1366,768,8-29-2022,14-51-55,50,depth_duration_stimuli/000692_2014-06-08_13-09-42_260595134347_rgbf000199-resize_2/000692_2014-06-08_13-09-42_260595134347_rgbf000199-resize_2-target.png,1000,3.661,1,4041,988,feet,jsons/v1_VE1000_randls_25.json,1522975,1794232,48,Woman
50,693109,DepthScenes,duration_manipulation_targetAtFixation,jsons/v1_VE1000_randls_25.json,http://54.235.29.9/FacialAge/BNav_EC2/DepthDuration/v2_depth_duration_MTurk/v2_DepthDuration_HTML.html#279,279,1366,625,1366,768,8-29-2022,14-51-55,51,depth_duration_stimuli/001094_2014-06-15_17-36-00_260595134347_rgbf000205-resize_0/001094_2014-06-15_17-36-00_260595134347_rgbf000205-resize_0-target.png,1000,4.2175,1,3744,1000,feet,jsons/v1_VE1000_randls_25.json,1522975,1794232,48,Woman
51,693109,DepthScenes,duration_manipulation_targetAtFixation,jsons/v1_VE1000_randls_25.json,http://54.235.29.9/FacialAge/BNav_EC2/DepthDuration/v2_depth_duration_MTurk/v2_DepthDuration_HTML.html#279,279,1366,625,1366,768,8-29-2022,14-51-55,52,depth_duration_stimuli/001133_2014-06-17_14-49-16_260595134347_rgbf000100-resize_0/001133_2014-06-17_14-49-16_260595134347_rgbf000100-resize_0-target.png,1000,4.2115,1,3753,991,feet,jsons/v1_VE1000_randls_25.json,1522975,1794232,48,Woman
52,693109,DepthScenes,duration_manipulation_targetAtFixation,jsons/v1_VE1000_randls_25.json,http://54.235.29.9/FacialAge/BNav_EC2/DepthDuration/v2_depth_duration_MTurk/v2_DepthDuration_HTML.html#279,279,1366,625,1366,768,8-29-2022,14-51-55,53,depth_duration_stimuli/001132_2014-06-17_14-48-54_260595134347_rgbf000100-resize_2/001132_2014-06-17_14-48-54_260595134347_rgbf000100-resize_2-target.png,1000,3.753,2,3634,1002,feet,jsons/v1_VE1000_randls_25.json,1522975,1794232,48,Woman
53,693109,DepthScenes,duration_manipulation_targetAtFixation,jsons/v1_VE1000_randls_25.json,http://54.235.29.9/FacialAge/BNav_EC2/DepthDuration/v2_depth_duration_MTurk/v2_DepthDuration_HTML.html#279,279,1366,625,1366,768,8-29-2022,14-51-55,54,depth_duration_stimuli/001555_2014-06-20_17-12-10_260595134347_rgbf000065-resize_4/001555_2014-06-20_17-12-10_260595134347_rgbf000065-resize_4-target.png,1000,1.633,2,3260,999,feet,jsons/v1_VE1000_randls_25.json,1522975,1794232,48,Woman
54,693109,DepthScenes,duration_manipulation_targetAtFixation,jsons/v1_VE1000_randls_25.json,http://54.235.29.9/FacialAge/BNav_EC2/DepthDuration/v2_depth_duration_MTurk/v2_DepthDuration_HTML.html#279,279,1366,625,1366,768,8-29-2022,14-51-55,55,depth_duration_stimuli/000103_2014-05-14_22-01-17_260595134347_rgbf000152-resize_5/000103_2014-05-14_22-01-17_260595134347_rgbf000152-resize_5-target.png,1000,1.993,2,3508,1007,feet,jsons/v1_VE1000_randls_25.json,1522975,1794232,48,Woman
55,693109,DepthScenes,duration_manipulation_targetAtFixation,jsons/v1_VE1000_randls_25.json,http://54.235.29.9/FacialAge/BNav_EC2/DepthDuration/v2_depth_duration_MTurk/v2_DepthDuration_HTML.html#279,279,1366,625,1366,768,8-29-2022,14-51-55,56,depth_duration_stimuli/002570_2014-06-24_13-59-54_094959634447_rgbf000059-resize_0/002570_2014-06-24_13-59-54_094959634447_rgbf000059-resize_0-target.png,1000,4.037,0,3897,998,feet,jsons/v1_VE1000_randls_25.json,1522975,1794232,48,Woman
56,693109,DepthScenes,duration_manipulation_targetAtFixation,jsons/v1_VE1000_randls_25.json,http://54.235.29.9/FacialAge/BNav_EC2/DepthDuration/v2_depth_duration_MTurk/v2_DepthDuration_HTML.html#279,279,1366,625,1366,768,8-29-2022,14-51-55,57,depth_duration_stimuli/002467_2014-06-28_20-38-07_260595134347_rgbf000026-resize_2/002467_2014-06-28_20-38-07_260595134347_rgbf000026-resize_2-target.png,1000,4.742,0,4092,877,feet,jsons/v1_VE1000_randls_25.json,1522975,1794232,48,Woman
57,693109,DepthScenes,duration_manipulation_targetAtFixation,jsons/v1_VE1000_randls_25.json,http://54.235.29.9/FacialAge/BNav_EC2/DepthDuration/v2_depth_duration_MTurk/v2_DepthDuration_HTML.html#279,279,1366,625,1366,768,8-29-2022,14-51-55,58,depth_duration_stimuli/001570_2014-06-20_17-21-09_260595134347_rgbf000135-resize_4/001570_2014-06-20_17-21-09_260595134347_rgbf000135-resize_4-target.png,1000,4.467,0,4025,925,feet,jsons/v1_VE1000_randls_25.json,1522975,1794232,48,Woman
58,693109,DepthScenes,duration_manipulation_targetAtFixation,jsons/v1_VE1000_randls_25.json,http://54.235.29.9/FacialAge/BNav_EC2/DepthDuration/v2_depth_duration_MTurk/v2_DepthDuration_HTML.html#279,279,1366,625,1366,768,8-29-2022,14-51-55,59,depth_duration_stimuli/001392_2014-06-19_16-07-59_260595134347_rgbf000046-resize_1/001392_2014-06-19_16-07-59_260595134347_rgbf000046-resize_1-target.png,1000,4.135,0,3679,996,feet,jsons/v1_VE1000_randls_25.json,1522975,1794232,48,Woman
59,693109,DepthScenes,duration_manipulation_targetAtFixation,jsons/v1_VE1000_randls_25.json,http://54.235.29.9/FacialAge/BNav_EC2/DepthDuration/v2_depth_duration_MTurk/v2_DepthDuration_HTML.html#279,279,1366,625,1366,768,8-29-2022,14-51-55,60,depth_duration_stimuli/002549_2014-06-24_13-41-39_094959634447_rgbf000022-resize_3/002549_2014-06-24_13-41-39_094959634447_rgbf000022-resize_3-target.png,1000,1.476,0,5477,882,feet,jsons/v1_VE1000_randls_25.json,1522975,1794232,48,Woman
60,693109,DepthScenes,duration_manipulation_targetAtFixation,jsons/v1_VE1000_randls_25.json,http://54.235.29.9/FacialAge/BNav_EC2/DepthDuration/v2_depth_duration_MTurk/v2_DepthDuration_HTML.html#279,279,1366,625,1366,768,8-29-2022,14-51-55,61,depth_duration_stimuli/002750_2014-06-22_19-08-03_094959634447_rgbf000094-resize_4/002750_2014-06-22_19-08-03_094959634447_rgbf000094-resize_4-target.png,1000,2.354,0,2869,995,feet,jsons/v1_VE1000_randls_25.json,1522975,1794232,48,Woman
61,693109,DepthScenes,duration_manipulation_targetAtFixation,jsons/v1_VE1000_randls_25.json,http://54.235.29.9/FacialAge/BNav_EC2/DepthDuration/v2_depth_duration_MTurk/v2_DepthDuration_HTML.html#279,279,1366,625,1366,768,8-29-2022,14-51-55,62,depth_duration_stimuli/001110_2014-06-15_17-25-28_260595134347_rgbf000150-resize_1/001110_2014-06-15_17-25-28_260595134347_rgbf000150-resize_1-target.png,1000,1.7115,0,4635,991,feet,jsons/v1_VE1000_randls_25.json,1522975,1794232,48,Woman
62,693109,DepthScenes,duration_manipulation_targetAtFixation,jsons/v1_VE1000_randls_25.json,http://54.235.29.9/FacialAge/BNav_EC2/DepthDuration/v2_depth_duration_MTurk/v2_DepthDuration_HTML.html#279,279,1366,625,1366,768,8-29-2022,14-51-55,63,depth_duration_stimuli/000927_2014-06-09_16-32-30_260595134347_rgbf000123-resize_3/000927_2014-06-09_16-32-30_260595134347_rgbf000123-resize_3-target.png,1000,2.6785,0,4078,997,feet,jsons/v1_VE1000_randls_25.json,1522975,1794232,48,Woman
63,693109,DepthScenes,duration_manipulation_targetAtFixation,jsons/v1_VE1000_randls_25.json,http://54.235.29.9/FacialAge/BNav_EC2/DepthDuration/v2_depth_duration_MTurk/v2_DepthDuration_HTML.html#279,279,1366,625,1366,768,8-29-2022,14-51-55,64,depth_duration_stimuli/002763_2014-06-22_19-13-10_094959634447_rgbf000075-resize_4/002763_2014-06-22_19-13-10_094959634447_rgbf000075-resize_4-target.png,1000,1.68375,0,3090,1001,feet,jsons/v1_VE1000_randls_25.json,1522975,1794232,48,Woman
64,693109,DepthScenes,duration_manipulation_targetAtFixation,jsons/v1_VE1000_randls_25.json,http://54.235.29.9/FacialAge/BNav_EC2/DepthDuration/v2_depth_duration_MTurk/v2_DepthDuration_HTML.html#279,279,1366,625,1366,768,8-29-2022,14-51-55,65,depth_duration_stimuli/002209_2014-06-28_18-36-10_260595134347_rgbf000051-resize_1/002209_2014-06-28_18-36-10_260595134347_rgbf000051-resize_1-target.png,1000,2.057,0,4453,991,feet,jsons/v1_VE1000_randls_25.json,1522975,1794232,48,Woman
65,693109,DepthScenes,duration_manipulation_targetAtFixation,jsons/v1_VE1000_randls_25.json,http://54.235.29.9/FacialAge/BNav_EC2/DepthDuration/v2_depth_duration_MTurk/v2_DepthDuration_HTML.html#279,279,1366,625,1366,768,8-29-2022,14-51-55,66,depth_duration_stimuli/001222_2014-06-17_16-24-06_260595134347_rgbf000073-resize_0/001222_2014-06-17_16-24-06_260595134347_rgbf000073-resize-original.jpg,1000,1.4385,0,5615,1006,feet,jsons/v1_VE1000_randls_25.json,1522975,1794232,48,Woman
66,693109,DepthScenes,duration_manipulation_targetAtFixation,jsons/v1_VE1000_randls_25.json,http://54.235.29.9/FacialAge/BNav_EC2/DepthDuration/v2_depth_duration_MTurk/v2_DepthDuration_HTML.html#279,279,1366,625,1366,768,8-29-2022,14-51-55,67,depth_duration_stimuli/000436_2014-06-09_22-25-11_260595134347_rgbf000137-resize_1/000436_2014-06-09_22-25-11_260595134347_rgbf000137-resize_1-target.png,1000,4.0705,0,3249,994,feet,jsons/v1_VE1000_randls_25.json,1522975,1794232,48,Woman
67,693109,DepthScenes,duration_manipulation_targetAtFixation,jsons/v1_VE1000_randls_25.json,http://54.235.29.9/FacialAge/BNav_EC2/DepthDuration/v2_depth_duration_MTurk/v2_DepthDuration_HTML.html#279,279,1366,625,1366,768,8-29-2022,14-51-55,68,depth_duration_stimuli/002444_2014-06-28_20-32-08_260595134347_rgbf000027-resize_0/002444_2014-06-28_20-32-08_260595134347_rgbf000027-resize_0-target.png,1000,4.388999999999999,0,4606,995,feet,jsons/v1_VE1000_randls_25.json,1522975,1794232,48,Woman
68,693109,DepthScenes,duration_manipulation_targetAtFixation,jsons/v1_VE1000_randls_25.json,http://54.235.29.9/FacialAge/BNav_EC2/DepthDuration/v2_depth_duration_MTurk/v2_DepthDuration_HTML.html#279,279,1366,625,1366,768,8-29-2022,14-51-55,69,depth_duration_stimuli/002988_2014-06-15_12-24-20_094959634447_rgbf000150-resize_1/002988_2014-06-15_12-24-20_094959634447_rgbf000150-resize_1-target.png,1000,4.7669999999999995,0,4244,992,feet,jsons/v1_VE1000_randls_25.json,1522975,1794232,48,Woman
69,693109,DepthScenes,duration_manipulation_targetAtFixation,jsons/v1_VE1000_randls_25.json,http://54.235.29.9/FacialAge/BNav_EC2/DepthDuration/v2_depth_duration_MTurk/v2_DepthDuration_HTML.html#279,279,1366,625,1366,768,8-29-2022,14-51-55,70,depth_duration_stimuli/001052_2014-06-08_18-24-54_260595134347_rgbf000130-resize_1/001052_2014-06-08_18-24-54_260595134347_rgbf000130-resize_1-target.png,1000,4.1045,0,3728,995,feet,jsons/v1_VE1000_randls_25.json,1522975,1794232,48,Woman
70,693109,DepthScenes,duration_manipulation_targetAtFixation,jsons/v1_VE1000_randls_25.json,http://54.235.29.9/FacialAge/BNav_EC2/DepthDuration/v2_depth_duration_MTurk/v2_DepthDuration_HTML.html#279,279,1366,625,1366,768,8-29-2022,14-51-55,71,depth_duration_stimuli/001150_2014-06-17_15-27-34_260595134347_rgbf000108-resize_2/001150_2014-06-17_15-27-34_260595134347_rgbf000108-resize_2-target.png,1000,4.0325,0,3833,1006,feet,jsons/v1_VE1000_randls_25.json,1522975,1794232,48,Woman
71,693109,DepthScenes,duration_manipulation_targetAtFixation,jsons/v1_VE1000_randls_25.json,http://54.235.29.9/FacialAge/BNav_EC2/DepthDuration/v2_depth_duration_MTurk/v2_DepthDuration_HTML.html#279,279,1366,625,1366,768,8-29-2022,14-51-55,72,depth_duration_stimuli/000665_2014-06-09_20-42-35_260595134347_rgbf000110-resize_1/000665_2014-06-09_20-42-35_260595134347_rgbf000110-resize_1-target.png,1000,3.057,0,2794,1004,feet,jsons/v1_VE1000_randls_25.json,1522975,1794232,48,Woman
72,693109,DepthScenes,duration_manipulation_targetAtFixation,jsons/v1_VE1000_randls_25.json,http://54.235.29.9/FacialAge/BNav_EC2/DepthDuration/v2_depth_duration_MTurk/v2_DepthDuration_HTML.html#279,279,1366,625,1366,768,8-29-2022,14-51-55,73,depth_duration_stimuli/001055_2014-06-08_18-45-35_260595134347_rgbf000111-resize_4/001055_2014-06-08_18-45-35_260595134347_rgbf000111-resize_4-target.png,1000,2.4290000000000003,0,3283,999,feet,jsons/v1_VE1000_randls_25.json,1522975,1794232,48,Woman
73,693109,DepthScenes,duration_manipulation_targetAtFixation,jsons/v1_VE1000_randls_25.json,http://54.235.29.9/FacialAge/BNav_EC2/DepthDuration/v2_depth_duration_MTurk/v2_DepthDuration_HTML.html#279,279,1366,625,1366,768,8-29-2022,14-51-55,74,depth_duration_stimuli/000549_2014-06-08_22-10-24_260595134347_rgbf000247-resize_3/000549_2014-06-08_22-10-24_260595134347_rgbf000247-resize_3-target.png,1000,1.841,0,3575,998,feet,jsons/v1_VE1000_randls_25.json,1522975,1794232,48,Woman
74,693109,DepthScenes,duration_manipulation_targetAtFixation,jsons/v1_VE1000_randls_25.json,http://54.235.29.9/FacialAge/BNav_EC2/DepthDuration/v2_depth_duration_MTurk/v2_DepthDuration_HTML.html#279,279,1366,625,1366,768,8-29-2022,14-51-55,75,depth_duration_stimuli/000917_2014-06-09_22-45-29_260595134347_rgbf000149-resize_3/000917_2014-06-09_22-45-29_260595134347_rgbf000149-resize_3-target.png,1000,4.1865,0,3604,1004,feet,jsons/v1_VE1000_randls_25.json,1522975,1794232,48,Woman
75,693109,DepthScenes,duration_manipulation_targetAtFixation,jsons/v1_VE1000_randls_25.json,http://54.235.29.9/FacialAge/BNav_EC2/DepthDuration/v2_depth_duration_MTurk/v2_DepthDuration_HTML.html#279,279,1366,625,1366,768,8-29-2022,14-51-55,76,depth_duration_stimuli/002323_2014-06-28_20-01-54_260595134347_rgbf000051-resize_4/002323_2014-06-28_20-01-54_260595134347_rgbf000051-resize_4-target.png,1000,3.7310000000000003,0,3128,997,feet,jsons/v1_VE1000_randls_25.json,1522975,1794232,48,Woman
76,693109,DepthScenes,duration_manipulation_targetAtFixation,jsons/v1_VE1000_randls_25.json,http://54.235.29.9/FacialAge/BNav_EC2/DepthDuration/v2_depth_duration_MTurk/v2_DepthDuration_HTML.html#279,279,1366,625,1366,768,8-29-2022,14-51-55,77,depth_duration_stimuli/003621_2014-05-23_18-06-08_094959634447_rgbf000101-resize_1/003621_2014-05-23_18-06-08_094959634447_rgbf000101-resize_1-target.png,1000,3.9835,0,4299,975,feet,jsons/v1_VE1000_randls_25.json,1522975,1794232,48,Woman
77,693109,DepthScenes,duration_manipulation_targetAtFixation,jsons/v1_VE1000_randls_25.json,http://54.235.29.9/FacialAge/BNav_EC2/DepthDuration/v2_depth_duration_MTurk/v2_DepthDuration_HTML.html#279,279,1366,625,1366,768,8-29-2022,14-51-55,78,depth_duration_stimuli/001584_2014-06-20_11-07-43_260595134347_rgbf000002-resize_1/001584_2014-06-20_11-07-43_260595134347_rgbf000002-resize_1-target.png,1000,3.53,0,3118,992,feet,jsons/v1_VE1000_randls_25.json,1522975,1794232,48,Woman
78,693109,DepthScenes,duration_manipulation_targetAtFixation,jsons/v1_VE1000_randls_25.json,http://54.235.29.9/FacialAge/BNav_EC2/DepthDuration/v2_depth_duration_MTurk/v2_DepthDuration_HTML.html#279,279,1366,625,1366,768,8-29-2022,14-51-55,79,depth_duration_stimuli/001417_2014-06-19_16-25-36_260595134347_rgbf000115-resize_5/001417_2014-06-19_16-25-36_260595134347_rgbf000115-resize_5-target.png,1000,4.6255,0,4508,1003,feet,jsons/v1_VE1000_randls_25.json,1522975,1794232,48,Woman
79,693109,DepthScenes,duration_manipulation_targetAtFixation,jsons/v1_VE1000_randls_25.json,http://54.235.29.9/FacialAge/BNav_EC2/DepthDuration/v2_depth_duration_MTurk/v2_DepthDuration_HTML.html#279,279,1366,625,1366,768,8-29-2022,14-51-55,80,depth_duration_stimuli/003081_2014-06-15_15-19-16_094959634447_rgbf000150-resize_1/003081_2014-06-15_15-19-16_094959634447_rgbf000150-resize_1-target.png,1000,3.9125,0,3690,1007,feet,jsons/v1_VE1000_randls_25.json,1522975,1794232,48,Woman
80,693109,DepthScenes,duration_manipulation_targetAtFixation,jsons/v1_VE1000_randls_25.json,http://54.235.29.9/FacialAge/BNav_EC2/DepthDuration/v2_depth_duration_MTurk/v2_DepthDuration_HTML.html#279,279,1366,625,1366,768,8-29-2022,14-51-55,81,depth_duration_stimuli/001011_2014-06-08_23-18-54_260595134347_rgbf000044-resize_4/001011_2014-06-08_23-18-54_260595134347_rgbf000044-resize_4-target.png,1000,2.4730000000000003,0,4382,1003,feet,jsons/v1_VE1000_randls_25.json,1522975,1794232,48,Woman
81,693109,DepthScenes,duration_manipulation_targetAtFixation,jsons/v1_VE1000_randls_25.json,http://54.235.29.9/FacialAge/BNav_EC2/DepthDuration/v2_depth_duration_MTurk/v2_DepthDuration_HTML.html#279,279,1366,625,1366,768,8-29-2022,14-51-55,82,depth_duration_stimuli/002875_2014-06-01_15-19-00_094959634447_rgbf000151-resize_1/002875_2014-06-01_15-19-00_094959634447_rgbf000151-resize_1-target.png,1000,1.9675,0,3452,1011,feet,jsons/v1_VE1000_randls_25.json,1522975,1794232,48,Woman
82,693109,DepthScenes,duration_manipulation_targetAtFixation,jsons/v1_VE1000_randls_25.json,http://54.235.29.9/FacialAge/BNav_EC2/DepthDuration/v2_depth_duration_MTurk/v2_DepthDuration_HTML.html#279,279,1366,625,1366,768,8-29-2022,14-51-55,83,depth_duration_stimuli/001199_2014-06-17_16-03-48_260595134347_rgbf000077-resize_0/001199_2014-06-17_16-03-48_260595134347_rgbf000077-resize_0-target.png,1000,3.4375,0,3761,1000,feet,jsons/v1_VE1000_randls_25.json,1522975,1794232,48,Woman
83,693109,DepthScenes,duration_manipulation_targetAtFixation,jsons/v1_VE1000_randls_25.json,http://54.235.29.9/FacialAge/BNav_EC2/DepthDuration/v2_depth_duration_MTurk/v2_DepthDuration_HTML.html#279,279,1366,625,1366,768,8-29-2022,14-51-55,84,depth_duration_stimuli/000502_2014-06-08_23-02-32_260595134347_rgbf000063-resize_4/000502_2014-06-08_23-02-32_260595134347_rgbf000063-resize_4-target.png,1000,2.431,0,3534,953,feet,jsons/v1_VE1000_randls_25.json,1522975,1794232,48,Woman
84,693109,DepthScenes,duration_manipulation_targetAtFixation,jsons/v1_VE1000_randls_25.json,http://54.235.29.9/FacialAge/BNav_EC2/DepthDuration/v2_depth_duration_MTurk/v2_DepthDuration_HTML.html#279,279,1366,625,1366,768,8-29-2022,14-51-55,85,depth_duration_stimuli/000506_2014-06-08_23-21-00_260595134347_rgbf000070-resize_7/000506_2014-06-08_23-21-00_260595134347_rgbf000070-resize_7-target.png,1000,4.0585,0,3733,956,feet,jsons/v1_VE1000_randls_25.json,1522975,1794232,48,Woman
85,693109,DepthScenes,duration_manipulation_targetAtFixation,jsons/v1_VE1000_randls_25.json,http://54.235.29.9/FacialAge/BNav_EC2/DepthDuration/v2_depth_duration_MTurk/v2_DepthDuration_HTML.html#279,279,1366,625,1366,768,8-29-2022,14-51-55,86,depth_duration_stimuli/003079_2014-06-15_15-18-20_094959634447_rgbf000152-resize_8/003079_2014-06-15_15-18-20_094959634447_rgbf000152-resize_8-target.png,1000,2.8775,0,3569,999,feet,jsons/v1_VE1000_randls_25.json,1522975,1794232,48,Woman
86,693109,DepthScenes,duration_manipulation_targetAtFixation,jsons/v1_VE1000_randls_25.json,http://54.235.29.9/FacialAge/BNav_EC2/DepthDuration/v2_depth_duration_MTurk/v2_DepthDuration_HTML.html#279,279,1366,625,1366,768,8-29-2022,14-51-55,87,depth_duration_stimuli/003492_2014-05-21_15-50-55_094959634447_rgbf000828-resize_1/003492_2014-05-21_15-50-55_094959634447_rgbf000828-resize_1-target.png,1000,4.06875,0,3850,999,feet,jsons/v1_VE1000_randls_25.json,1522975,1794232,48,Woman
87,693109,DepthScenes,duration_manipulation_targetAtFixation,jsons/v1_VE1000_randls_25.json,http://54.235.29.9/FacialAge/BNav_EC2/DepthDuration/v2_depth_duration_MTurk/v2_DepthDuration_HTML.html#279,279,1366,625,1366,768,8-29-2022,14-51-55,88,depth_duration_stimuli/002568_2014-06-24_13-59-21_094959634447_rgbf000062-resize_4/002568_2014-06-24_13-59-21_094959634447_rgbf000062-resize_4-target.png,1000,3.015,0,3143,997,feet,jsons/v1_VE1000_randls_25.json,1522975,1794232,48,Woman
88,693109,DepthScenes,duration_manipulation_targetAtFixation,jsons/v1_VE1000_randls_25.json,http://54.235.29.9/FacialAge/BNav_EC2/DepthDuration/v2_depth_duration_MTurk/v2_DepthDuration_HTML.html#279,279,1366,625,1366,768,8-29-2022,14-51-55,89,depth_duration_stimuli/001806_2014-06-26_20-50-20_260595134347_rgbf000091-resize_1/001806_2014-06-26_20-50-20_260595134347_rgbf000091-resize_1-target.png,1000,2.7305,0,32513,998,feet,jsons/v1_VE1000_randls_25.json,1522975,1794232,48,Woman
89,693109,DepthScenes,duration_manipulation_targetAtFixation,jsons/v1_VE1000_randls_25.json,http://54.235.29.9/FacialAge/BNav_EC2/DepthDuration/v2_depth_duration_MTurk/v2_DepthDuration_HTML.html#279,279,1366,625,1366,768,8-29-2022,14-51-55,90,depth_duration_stimuli/001617_2014-06-20_11-35-32_260595134347_rgbf000066-resize_1/001617_2014-06-20_11-35-32_260595134347_rgbf000066-resize_1-target.png,1000,3.7910000000000004,5,9734,1001,feet,jsons/v1_VE1000_randls_25.json,1522975,1794232,48,Woman
90,693109,DepthScenes,duration_manipulation_targetAtFixation,jsons/v1_VE1000_randls_25.json,http://54.235.29.9/FacialAge/BNav_EC2/DepthDuration/v2_depth_duration_MTurk/v2_DepthDuration_HTML.html#279,279,1366,625,1366,768,8-29-2022,14-51-55,91,depth_duration_stimuli/000493_2014-06-09_21-01-18_260595134347_rgbf000196-resize_3/000493_2014-06-09_21-01-18_260595134347_rgbf000196-resize_3-target.png,1000,3.44,9,5221,994,feet,jsons/v1_VE1000_randls_25.json,1522975,1794232,48,Woman
91,693109,DepthScenes,duration_manipulation_targetAtFixation,jsons/v1_VE1000_randls_25.json,http://54.235.29.9/FacialAge/BNav_EC2/DepthDuration/v2_depth_duration_MTurk/v2_DepthDuration_HTML.html#279,279,1366,625,1366,768,8-29-2022,14-51-55,92,depth_duration_stimuli/000191_2014-05-12_17-07-38_260595134347_rgbf000199-resize_0/000191_2014-05-12_17-07-38_260595134347_rgbf000199-resize_0-target.png,1000,3.7995,8,4537,993,feet,jsons/v1_VE1000_randls_25.json,1522975,1794232,48,Woman
92,693109,DepthScenes,duration_manipulation_targetAtFixation,jsons/v1_VE1000_randls_25.json,http://54.235.29.9/FacialAge/BNav_EC2/DepthDuration/v2_depth_duration_MTurk/v2_DepthDuration_HTML.html#279,279,1366,625,1366,768,8-29-2022,14-51-55,93,depth_duration_stimuli/002039_2014-06-24_20-22-38_260595134347_rgbf000084-resize_1/002039_2014-06-24_20-22-38_260595134347_rgbf000084-resize_1-target.png,1000,4.408,5,3766,1003,feet,jsons/v1_VE1000_randls_25.json,1522975,1794232,48,Woman
93,693109,DepthScenes,duration_manipulation_targetAtFixation,jsons/v1_VE1000_randls_25.json,http://54.235.29.9/FacialAge/BNav_EC2/DepthDuration/v2_depth_duration_MTurk/v2_DepthDuration_HTML.html#279,279,1366,625,1366,768,8-29-2022,14-51-55,94,depth_duration_stimuli/002103_2014-06-25_20-00-40_260595134347_rgbf000049-resize_0/002103_2014-06-25_20-00-40_260595134347_rgbf000049-resize_0-target.png,1000,4.105,8,3210,1007,feet,jsons/v1_VE1000_randls_25.json,1522975,1794232,48,Woman
94,693109,DepthScenes,duration_manipulation_targetAtFixation,jsons/v1_VE1000_randls_25.json,http://54.235.29.9/FacialAge/BNav_EC2/DepthDuration/v2_depth_duration_MTurk/v2_DepthDuration_HTML.html#279,279,1366,625,1366,768,8-29-2022,14-51-55,95,depth_duration_stimuli/002989_2014-06-15_12-25-03_094959634447_rgbf000150-resize_3/002989_2014-06-15_12-25-03_094959634447_rgbf000150-resize_3-target.png,1000,4.1975,8,6001,998,feet,jsons/v1_VE1000_randls_25.json,1522975,1794232,48,Woman
95,693109,DepthScenes,duration_manipulation_targetAtFixation,jsons/v1_VE1000_randls_25.json,http://54.235.29.9/FacialAge/BNav_EC2/DepthDuration/v2_depth_duration_MTurk/v2_DepthDuration_HTML.html#279,279,1366,625,1366,768,8-29-2022,14-51-55,96,depth_duration_stimuli/000866_2014-06-09_20-45-42_260595134347_rgbf000139-resize_1/000866_2014-06-09_20-45-42_260595134347_rgbf000139-resize_1-target.png,1000,3.2155,8,5816,836,feet,jsons/v1_VE1000_randls_25.json,1522975,1794232,48,Woman
96,693109,DepthScenes,duration_manipulation_targetAtFixation,jsons/v1_VE1000_randls_25.json,http://54.235.29.9/FacialAge/BNav_EC2/DepthDuration/v2_depth_duration_MTurk/v2_DepthDuration_HTML.html#279,279,1366,625,1366,768,8-29-2022,14-51-55,97,depth_duration_stimuli/001164_2014-06-17_15-35-46_260595134347_rgbf000085-resize_3/001164_2014-06-17_15-35-46_260595134347_rgbf000085-resize_3-target.png,1000,2.354,8,3959,988,feet,jsons/v1_VE1000_randls_25.json,1522975,1794232,48,Woman
97,693109,DepthScenes,duration_manipulation_targetAtFixation,jsons/v1_VE1000_randls_25.json,http://54.235.29.9/FacialAge/BNav_EC2/DepthDuration/v2_depth_duration_MTurk/v2_DepthDuration_HTML.html#279,279,1366,625,1366,768,8-29-2022,14-51-55,98,depth_duration_stimuli/001136_2014-06-17_15-19-41_260595134347_rgbf000076-resize_3/001136_2014-06-17_15-19-41_260595134347_rgbf000076-resize_3-target.png,1000,1.8655,8,3801,995,feet,jsons/v1_VE1000_randls_25.json,1522975,1794232,48,Woman
98,693109,DepthScenes,duration_manipulation_targetAtFixation,jsons/v1_VE1000_randls_25.json,http://54.235.29.9/FacialAge/BNav_EC2/DepthDuration/v2_depth_duration_MTurk/v2_DepthDuration_HTML.html#279,279,1366,625,1366,768,8-29-2022,14-51-55,99,depth_duration_stimuli/001540_2014-06-20_17-01-05_260595134347_rgbf000086-resize_2/001540_2014-06-20_17-01-05_260595134347_rgbf000086-resize-original.jpg,1000,1.459,0,5342,1005,feet,jsons/v1_VE1000_randls_25.json,1522975,1794232,48,Woman
99,693109,DepthScenes,duration_manipulation_targetAtFixation,jsons/v1_VE1000_randls_25.json,http://54.235.29.9/FacialAge/BNav_EC2/DepthDuration/v2_depth_duration_MTurk/v2_DepthDuration_HTML.html#279,279,1366,625,1366,768,8-29-2022,14-51-55,100,depth_duration_stimuli/002118_2014-06-25_20-32-08_260595134347_rgbf000078-resize_1/002118_2014-06-25_20-32-08_260595134347_rgbf000078-resize_1-target.png,1000,2.6460000000000004,7,3860,1010,feet,jsons/v1_VE1000_randls_25.json,1522975,1794232,48,Woman
100,693109,DepthScenes,duration_manipulation_targetAtFixation,jsons/v1_VE1000_randls_25.json,http://54.235.29.9/FacialAge/BNav_EC2/DepthDuration/v2_depth_duration_MTurk/v2_DepthDuration_HTML.html#279,279,1366,625,1366,768,8-29-2022,14-51-55,101,depth_duration_stimuli/001516_2014-06-20_16-25-09_260595134347_rgbf000076-resize_2/001516_2014-06-20_16-25-09_260595134347_rgbf000076-resize_2-target.png,1000,1.7445,8,3520,961,feet,jsons/v1_VE1000_randls_25.json,1522975,1794232,48,Woman
101,693109,DepthScenes,duration_manipulation_targetAtFixation,jsons/v1_VE1000_randls_25.json,http://54.235.29.9/FacialAge/BNav_EC2/DepthDuration/v2_depth_duration_MTurk/v2_DepthDuration_HTML.html#279,279,1366,625,1366,768,8-29-2022,14-51-55,102,depth_duration_stimuli/002788_2014-06-22_19-36-03_094959634447_rgbf000088-resize_2/002788_2014-06-22_19-36-03_094959634447_rgbf000088-resize_2-target.png,1000,1.6465,8,3625,998,feet,jsons/v1_VE1000_randls_25.json,1522975,1794232,48,Woman
102,693109,DepthScenes,duration_manipulation_targetAtFixation,jsons/v1_VE1000_randls_25.json,http://54.235.29.9/FacialAge/BNav_EC2/DepthDuration/v2_depth_duration_MTurk/v2_DepthDuration_HTML.html#279,279,1366,625,1366,768,8-29-2022,14-51-55,103,depth_duration_stimuli/000749_2014-06-08_21-55-06_260595134347_rgbf000070-resize_2/000749_2014-06-08_21-55-06_260595134347_rgbf000070-resize_2-target.png,1000,2.331,5,39566,1939,feet,jsons/v1_VE1000_randls_25.json,1522975,1794232,48,Woman
103,693109,DepthScenes,duration_manipulation_targetAtFixation,jsons/v1_VE1000_randls_25.json,http://54.235.29.9/FacialAge/BNav_EC2/DepthDuration/v2_depth_duration_MTurk/v2_DepthDuration_HTML.html#279,279,1366,625,1366,768,8-29-2022,14-51-55,104,depth_duration_stimuli/001016_2014-06-09_16-16-10_260595134347_rgbf000112-resize_5/001016_2014-06-09_16-16-10_260595134347_rgbf000112-resize_5-target.png,1000,1.6565,5,4964,997,feet,jsons/v1_VE1000_randls_25.json,1522975,1794232,48,Woman
104,693109,DepthScenes,duration_manipulation_targetAtFixation,jsons/v1_VE1000_randls_25.json,http://54.235.29.9/FacialAge/BNav_EC2/DepthDuration/v2_depth_duration_MTurk/v2_DepthDuration_HTML.html#279,279,1366,625,1366,768,8-29-2022,14-51-55,105,depth_duration_stimuli/002340_2014-06-28_20-05-46_260595134347_rgbf000113-resize_0/002340_2014-06-28_20-05-46_260595134347_rgbf000113-resize_0-target.png,1000,2.4735,5,3271,992,feet,jsons/v1_VE1000_randls_25.json,1522975,1794232,48,Woman
105,693109,DepthScenes,duration_manipulation_targetAtFixation,jsons/v1_VE1000_randls_25.json,http://54.235.29.9/FacialAge/BNav_EC2/DepthDuration/v2_depth_duration_MTurk/v2_DepthDuration_HTML.html#279,279,1366,625,1366,768,8-29-2022,14-51-55,106,depth_duration_stimuli/000009_2014-05-26_14-32-05_260595134347_rgbf000034-resize_3/000009_2014-05-26_14-32-05_260595134347_rgbf000034-resize_3-target.png,1000,3.8715,5,4898,1001,feet,jsons/v1_VE1000_randls_25.json,1522975,1794232,48,Woman
106,693109,DepthScenes,duration_manipulation_targetAtFixation,jsons/v1_VE1000_randls_25.json,http://54.235.29.9/FacialAge/BNav_EC2/DepthDuration/v2_depth_duration_MTurk/v2_DepthDuration_HTML.html#279,279,1366,625,1366,768,8-29-2022,14-51-55,107,depth_duration_stimuli/001828_2014-06-26_21-40-03_260595134347_rgbf000024-resize_0/001828_2014-06-26_21-40-03_260595134347_rgbf000024-resize_0-target.png,1000,4.8260000000000005,1,3208,990,feet,jsons/v1_VE1000_randls_25.json,1522975,1794232,48,Woman
107,693109,DepthScenes,duration_manipulation_targetAtFixation,jsons/v1_VE1000_randls_25.json,http://54.235.29.9/FacialAge/BNav_EC2/DepthDuration/v2_depth_duration_MTurk/v2_DepthDuration_HTML.html#279,279,1366,625,1366,768,8-29-2022,14-51-55,108,depth_duration_stimuli/002153_2014-06-25_21-27-18_260595134347_rgbf000038-resize_5/002153_2014-06-25_21-27-18_260595134347_rgbf000038-resize_5-target.png,1000,2.505,1,3707,1001,feet,jsons/v1_VE1000_randls_25.json,1522975,1794232,48,Woman
108,693109,DepthScenes,duration_manipulation_targetAtFixation,jsons/v1_VE1000_randls_25.json,http://54.235.29.9/FacialAge/BNav_EC2/DepthDuration/v2_depth_duration_MTurk/v2_DepthDuration_HTML.html#279,279,1366,625,1366,768,8-29-2022,14-51-55,109,depth_duration_stimuli/002660_2014-06-13_15-44-18_094959634447_rgbf001878-resize_2/002660_2014-06-13_15-44-18_094959634447_rgbf001878-resize_2-target.png,1000,3.576,2,2981,944,feet,jsons/v1_VE1000_randls_25.json,1522975,1794232,48,Woman
109,693109,DepthScenes,duration_manipulation_targetAtFixation,jsons/v1_VE1000_randls_25.json,http://54.235.29.9/FacialAge/BNav_EC2/DepthDuration/v2_depth_duration_MTurk/v2_DepthDuration_HTML.html#279,279,1366,625,1366,768,8-29-2022,14-51-55,110,depth_duration_stimuli/000469_2014-06-09_19-42-10_260595134347_rgbf000081-resize_1/000469_2014-06-09_19-42-10_260595134347_rgbf000081-resize_1-target.png,1000,1.652,2,3666,993,feet,jsons/v1_VE1000_randls_25.json,1522975,1794232,48,Woman
110,693109,DepthScenes,duration_manipulation_targetAtFixation,jsons/v1_VE1000_randls_25.json,http://54.235.29.9/FacialAge/BNav_EC2/DepthDuration/v2_depth_duration_MTurk/v2_DepthDuration_HTML.html#279,279,1366,625,1366,768,8-29-2022,14-51-55,111,depth_duration_stimuli/000483_2014-06-09_20-41-45_260595134347_rgbf000116-resize_4/000483_2014-06-09_20-41-45_260595134347_rgbf000116-resize_4-target.png,1000,1.337,2,2933,1000,feet,jsons/v1_VE1000_randls_25.json,1522975,1794232,48,Woman
111,693109,DepthScenes,duration_manipulation_targetAtFixation,jsons/v1_VE1000_randls_25.json,http://54.235.29.9/FacialAge/BNav_EC2/DepthDuration/v2_depth_duration_MTurk/v2_DepthDuration_HTML.html#279,279,1366,625,1366,768,8-29-2022,14-51-55,112,depth_duration_stimuli/001056_2014-06-08_18-46-44_260595134347_rgbf000068-resize_0/001056_2014-06-08_18-46-44_260595134347_rgbf000068-resize_0-target.png,1000,2.6625,2,3355,990,feet,jsons/v1_VE1000_randls_25.json,1522975,1794232,48,Woman
112,693109,DepthScenes,duration_manipulation_targetAtFixation,jsons/v1_VE1000_randls_25.json,http://54.235.29.9/FacialAge/BNav_EC2/DepthDuration/v2_depth_duration_MTurk/v2_DepthDuration_HTML.html#279,279,1366,625,1366,768,8-29-2022,14-51-55,113,depth_duration_stimuli/002199_2014-06-28_18-33-56_260595134347_rgbf000074-resize_0/002199_2014-06-28_18-33-56_260595134347_rgbf000074-resize_0-target.png,1000,1.996,2,3697,998,feet,jsons/v1_VE1000_randls_25.json,1522975,1794232,48,Woman
113,693109,DepthScenes,duration_manipulation_targetAtFixation,jsons/v1_VE1000_randls_25.json,http://54.235.29.9/FacialAge/BNav_EC2/DepthDuration/v2_depth_duration_MTurk/v2_DepthDuration_HTML.html#279,279,1366,625,1366,768,8-29-2022,14-51-55,114,depth_duration_stimuli/001092_2014-06-15_17-34-58_260595134347_rgbf000171-resize_3/001092_2014-06-15_17-34-58_260595134347_rgbf000171-resize_3-target.png,1000,2.6935,2,3686,991,feet,jsons/v1_VE1000_randls_25.json,1522975,1794232,48,Woman
114,693109,DepthScenes,duration_manipulation_targetAtFixation,jsons/v1_VE1000_randls_25.json,http://54.235.29.9/FacialAge/BNav_EC2/DepthDuration/v2_depth_duration_MTurk/v2_DepthDuration_HTML.html#279,279,1366,625,1366,768,8-29-2022,14-51-55,115,depth_duration_stimuli/002545_2014-06-24_13-38-53_094959634447_rgbf000080-resize_4/002545_2014-06-24_13-38-53_094959634447_rgbf000080-resize_4-target.png,1000,1.9205,0,3160,999,feet,jsons/v1_VE1000_randls_25.json,1522975,1794232,48,Woman
115,693109,DepthScenes,duration_manipulation_targetAtFixation,jsons/v1_VE1000_randls_25.json,http://54.235.29.9/FacialAge/BNav_EC2/DepthDuration/v2_depth_duration_MTurk/v2_DepthDuration_HTML.html#279,279,1366,625,1366,768,8-29-2022,14-51-55,116,depth_duration_stimuli/001170_2014-06-17_15-43-44_260595134347_rgbf000096-resize_6/001170_2014-06-17_15-43-44_260595134347_rgbf000096-resize-original.jpg,1000,1.1909999999999998,0,4918,1000,feet,jsons/v1_VE1000_randls_25.json,1522975,1794232,48,Woman
116,693109,DepthScenes,duration_manipulation_targetAtFixation,jsons/v1_VE1000_randls_25.json,http://54.235.29.9/FacialAge/BNav_EC2/DepthDuration/v2_depth_duration_MTurk/v2_DepthDuration_HTML.html#279,279,1366,625,1366,768,8-29-2022,14-51-55,117,depth_duration_stimuli/000878_2014-06-08_22-52-45_260595134347_rgbf000045-resize_2/000878_2014-06-08_22-52-45_260595134347_rgbf000045-resize_2-target.png,1000,2.092,0,3942,994,feet,jsons/v1_VE1000_randls_25.json,1522975,1794232,48,Woman
117,693109,DepthScenes,duration_manipulation_targetAtFixation,jsons/v1_VE1000_randls_25.json,http://54.235.29.9/FacialAge/BNav_EC2/DepthDuration/v2_depth_duration_MTurk/v2_DepthDuration_HTML.html#279,279,1366,625,1366,768,8-29-2022,14-51-55,118,depth_duration_stimuli/002953_2014-06-08_17-32-18_094959634447_rgbf000059-resize_5/002953_2014-06-08_17-32-18_094959634447_rgbf000059-resize_5-target.png,1000,1.551,0,3005,996,feet,jsons/v1_VE1000_randls_25.json,1522975,1794232,48,Woman
118,693109,DepthScenes,duration_manipulation_targetAtFixation,jsons/v1_VE1000_randls_25.json,http://54.235.29.9/FacialAge/BNav_EC2/DepthDuration/v2_depth_duration_MTurk/v2_DepthDuration_HTML.html#279,279,1366,625,1366,768,8-29-2022,14-51-55,119,depth_duration_stimuli/002600_2014-06-24_14-27-04_094959634447_rgbf000074-resize_2/002600_2014-06-24_14-27-04_094959634447_rgbf000074-resize_2-target.png,1000,2.7575,0,3479,999,feet,jsons/v1_VE1000_randls_25.json,1522975,1794232,48,Woman
119,693109,DepthScenes,duration_manipulation_targetAtFixation,jsons/v1_VE1000_randls_25.json,http://54.235.29.9/FacialAge/BNav_EC2/DepthDuration/v2_depth_duration_MTurk/v2_DepthDuration_HTML.html#279,279,1366,625,1366,768,8-29-2022,14-51-55,120,depth_duration_stimuli/003228_2014-05-14_13-42-35_094959634447_rgbf000101-resize_1/003228_2014-05-14_13-42-35_094959634447_rgbf000101-resize_1-target.png,1000,1.9680000000000002,2,3002,995,feet,jsons/v1_VE1000_randls_25.json,1522975,1794232,48,Woman
120,693109,DepthScenes,duration_manipulation_targetAtFixation,jsons/v1_VE1000_randls_25.json,http://54.235.29.9/FacialAge/BNav_EC2/DepthDuration/v2_depth_duration_MTurk/v2_DepthDuration_HTML.html#279,279,1366,625,1366,768,8-29-2022,14-51-55,121,depth_duration_stimuli/002375_2014-06-28_20-13-44_260595134347_rgbf000032-resize_1/002375_2014-06-28_20-13-44_260595134347_rgbf000032-resize_1-target.png,1000,4.0175,21,4266,992,feet,jsons/v1_VE1000_randls_25.json,1522975,1794232,48,Woman
121,693109,DepthScenes,duration_manipulation_targetAtFixation,jsons/v1_VE1000_randls_25.json,http://54.235.29.9/FacialAge/BNav_EC2/DepthDuration/v2_depth_duration_MTurk/v2_DepthDuration_HTML.html#279,279,1366,625,1366,768,8-29-2022,14-51-55,122,depth_duration_stimuli/002657_2014-06-13_15-29-54_094959634447_rgbf000150-resize_1/002657_2014-06-13_15-29-54_094959634447_rgbf000150-resize_1-target.png,1000,4.919,54,5652,1005,feet,jsons/v1_VE1000_randls_25.json,1522975,1794232,48,Woman
122,693109,DepthScenes,duration_manipulation_targetAtFixation,jsons/v1_VE1000_randls_25.json,http://54.235.29.9/FacialAge/BNav_EC2/DepthDuration/v2_depth_duration_MTurk/v2_DepthDuration_HTML.html#279,279,1366,625,1366,768,8-29-2022,14-51-55,123,depth_duration_stimuli/002509_2014-06-24_13-19-22_094959634447_rgbf000077-resize_0/002509_2014-06-24_13-19-22_094959634447_rgbf000077-resize_0-target.png,1000,1.3065,54,4143,985,feet,jsons/v1_VE1000_randls_25.json,1522975,1794232,48,Woman
123,693109,DepthScenes,duration_manipulation_targetAtFixation,jsons/v1_VE1000_randls_25.json,http://54.235.29.9/FacialAge/BNav_EC2/DepthDuration/v2_depth_duration_MTurk/v2_DepthDuration_HTML.html#279,279,1366,625,1366,768,8-29-2022,14-51-55,124,depth_duration_stimuli/003338_2014-05-20_11-01-23_094959634447_rgbf000051-resize_6/003338_2014-05-20_11-01-23_094959634447_rgbf000051-resize_6-target.png,1000,1.693,1000,5379,1003,feet,jsons/v1_VE1000_randls_25.json,1522975,1794232,48,Woman
124,693109,DepthScenes,duration_manipulation_targetAtFixation,jsons/v1_VE1000_randls_25.json,http://54.235.29.9/FacialAge/BNav_EC2/DepthDuration/v2_depth_duration_MTurk/v2_DepthDuration_HTML.html#279,279,1366,625,1366,768,8-29-2022,14-51-55,125,depth_duration_stimuli/000470_2014-06-09_19-42-40_260595134347_rgbf000094-resize_1/000470_2014-06-09_19-42-40_260595134347_rgbf000094-resize_1-target.png,1000,1.831,10100,5515,1013,feet,jsons/v1_VE1000_randls_25.json,1522975,1794232,48,Woman
125,693109,DepthScenes,duration_manipulation_targetAtFixation,jsons/v1_VE1000_randls_25.json,http://54.235.29.9/FacialAge/BNav_EC2/DepthDuration/v2_depth_duration_MTurk/v2_DepthDuration_HTML.html#279,279,1366,625,1366,768,8-29-2022,14-51-55,126,depth_duration_stimuli/000109_2014-05-14_23-41-52_260595134347_rgbf000035-resize_9/000109_2014-05-14_23-41-52_260595134347_rgbf000035-resize_9-target.png,1000,1.3545,121,18007,993,feet,jsons/v1_VE1000_randls_25.json,1522975,1794232,48,Woman
126,693109,DepthScenes,duration_manipulation_targetAtFixation,jsons/v1_VE1000_randls_25.json,http://54.235.29.9/FacialAge/BNav_EC2/DepthDuration/v2_depth_duration_MTurk/v2_DepthDuration_HTML.html#279,279,1366,625,1366,768,8-29-2022,14-51-55,127,depth_duration_stimuli/001175_2014-06-17_15-45-55_260595134347_rgbf000129-resize_4/001175_2014-06-17_15-45-55_260595134347_rgbf000129-resize_4-target.png,1000,4.255,1,6316,999,feet,jsons/v1_VE1000_randls_25.json,1522975,1794232,48,Woman
127,693109,DepthScenes,duration_manipulation_targetAtFixation,jsons/v1_VE1000_randls_25.json,http://54.235.29.9/FacialAge/BNav_EC2/DepthDuration/v2_depth_duration_MTurk/v2_DepthDuration_HTML.html#279,279,1366,625,1366,768,8-29-2022,14-51-55,128,depth_duration_stimuli/003490_2014-05-21_15-50-11_094959634447_rgbf000101-resize_3/003490_2014-05-21_15-50-11_094959634447_rgbf000101-resize_3-target.png,1000,3.6445,1,7256,998,feet,jsons/v1_VE1000_randls_25.json,1522975,1794232,48,Woman
128,693109,DepthScenes,duration_manipulation_targetAtFixation,jsons/v1_VE1000_randls_25.json,http://54.235.29.9/FacialAge/BNav_EC2/DepthDuration/v2_depth_duration_MTurk/v2_DepthDuration_HTML.html#279,279,1366,625,1366,768,8-29-2022,14-51-55,129,depth_duration_stimuli/002057_2014-06-24_21-00-13_260595134347_rgbf000120-resize_1/002057_2014-06-24_21-00-13_260595134347_rgbf000120-resize_1-target.png,1000,2.967,21,49128,2188,feet,jsons/v1_VE1000_randls_25.json,1522975,1794232,48,Woman
129,693109,DepthScenes,duration_manipulation_targetAtFixation,jsons/v1_VE1000_randls_25.json,http://54.235.29.9/FacialAge/BNav_EC2/DepthDuration/v2_depth_duration_MTurk/v2_DepthDuration_HTML.html#279,279,1366,625,1366,768,8-29-2022,14-51-55,130,depth_duration_stimuli/000709_2014-06-08_13-51-55_260595134347_rgbf000068-resize_3/000709_2014-06-08_13-51-55_260595134347_rgbf000068-resize_3-target.png,1000,1.8030000000000002,1122,4129,1007,feet,jsons/v1_VE1000_randls_25.json,1522975,1794232,48,Woman
130,693109,DepthScenes,duration_manipulation_targetAtFixation,jsons/v1_VE1000_randls_25.json,http://54.235.29.9/FacialAge/BNav_EC2/DepthDuration/v2_depth_duration_MTurk/v2_DepthDuration_HTML.html#279,279,1366,625,1366,768,8-29-2022,14-51-55,131,depth_duration_stimuli/002748_2014-06-22_19-07-22_094959634447_rgbf000078-resize_1/002748_2014-06-22_19-07-22_094959634447_rgbf000078-resize_1-target.png,1000,4.6705,22,4022,995,feet,jsons/v1_VE1000_randls_25.json,1522975,1794232,48,Woman
131,693109,DepthScenes,duration_manipulation_targetAtFixation,jsons/v1_VE1000_randls_25.json,http://54.235.29.9/FacialAge/BNav_EC2/DepthDuration/v2_depth_duration_MTurk/v2_DepthDuration_HTML.html#279,279,1366,625,1366,768,8-29-2022,14-51-55,132,depth_duration_stimuli/002995_2014-06-15_12-31-26_094959634447_rgbf000150-resize_1/002995_2014-06-15_12-31-26_094959634447_rgbf000150-resize_1-target.png,1000,3.8360000000000003,222,3242,1016,feet,jsons/v1_VE1000_randls_25.json,1522975,1794232,48,Woman
132,693109,DepthScenes,duration_manipulation_targetAtFixation,jsons/v1_VE1000_randls_25.json,http://54.235.29.9/FacialAge/BNav_EC2/DepthDuration/v2_depth_duration_MTurk/v2_DepthDuration_HTML.html#279,279,1366,625,1366,768,8-29-2022,14-51-55,133,depth_duration_stimuli/000736_2014-06-08_18-24-15_260595134347_rgbf000206-resize_3/000736_2014-06-08_18-24-15_260595134347_rgbf000206-resize_3-target.png,1000,3.515,222,3517,998,feet,jsons/v1_VE1000_randls_25.json,1522975,1794232,48,Woman
133,693109,DepthScenes,duration_manipulation_targetAtFixation,jsons/v1_VE1000_randls_25.json,http://54.235.29.9/FacialAge/BNav_EC2/DepthDuration/v2_depth_duration_MTurk/v2_DepthDuration_HTML.html#279,279,1366,625,1366,768,8-29-2022,14-51-55,134,depth_duration_stimuli/000137_2014-05-20_17-04-49_260595134347_rgbf000120-resize_1/000137_2014-05-20_17-04-49_260595134347_rgbf000120-resize_1-target.png,1000,3.786,222222222222,16443,993,feet,jsons/v1_VE1000_randls_25.json,1522975,1794232,48,Woman
134,693109,DepthScenes,duration_manipulation_targetAtFixation,jsons/v1_VE1000_randls_25.json,http://54.235.29.9/FacialAge/BNav_EC2/DepthDuration/v2_depth_duration_MTurk/v2_DepthDuration_HTML.html#279,279,1366,625,1366,768,8-29-2022,14-51-55,135,depth_duration_stimuli/002072_2014-06-24_21-48-06_260595134347_rgbf000115-resize_0/002072_2014-06-24_21-48-06_260595134347_rgbf000115-resize-original.jpg,1000,4.702,1111,60145,994,feet,jsons/v1_VE1000_randls_25.json,1522975,1794232,48,Woman
135,693109,DepthScenes,duration_manipulation_targetAtFixation,jsons/v1_VE1000_randls_25.json,http://54.235.29.9/FacialAge/BNav_EC2/DepthDuration/v2_depth_duration_MTurk/v2_DepthDuration_HTML.html#279,279,1366,625,1366,768,8-29-2022,14-51-55,136,depth_duration_stimuli/002279_2014-06-28_18-55-32_260595134347_rgbf000040-resize_5/002279_2014-06-28_18-55-32_260595134347_rgbf000040-resize_5-target.png,1000,1.5043333333333,121,3994,991,feet,jsons/v1_VE1000_randls_25.json,1522975,1794232,48,Woman
136,693109,DepthScenes,duration_manipulation_targetAtFixation,jsons/v1_VE1000_randls_25.json,http://54.235.29.9/FacialAge/BNav_EC2/DepthDuration/v2_depth_duration_MTurk/v2_DepthDuration_HTML.html#279,279,1366,625,1366,768,8-29-2022,14-51-55,137,depth_duration_stimuli/000635_2014-06-08_16-38-42_260595134347_rgbf000106-resize_1/000635_2014-06-08_16-38-42_260595134347_rgbf000106-resize_1-target.png,1000,2.074,22,4095,985,feet,jsons/v1_VE1000_randls_25.json,1522975,1794232,48,Woman
137,693109,DepthScenes,duration_manipulation_targetAtFixation,jsons/v1_VE1000_randls_25.json,http://54.235.29.9/FacialAge/BNav_EC2/DepthDuration/v2_depth_duration_MTurk/v2_DepthDuration_HTML.html#279,279,1366,625,1366,768,8-29-2022,14-51-55,138,depth_duration_stimuli/000414_2014-06-04_19-49-13_260595134347_rgbf000044-resize_0/000414_2014-06-04_19-49-13_260595134347_rgbf000044-resize_0-target.png,1000,4.329,22,3980,982,feet,jsons/v1_VE1000_randls_25.json,1522975,1794232,48,Woman
138,693109,DepthScenes,duration_manipulation_targetAtFixation,jsons/v1_VE1000_randls_25.json,http://54.235.29.9/FacialAge/BNav_EC2/DepthDuration/v2_depth_duration_MTurk/v2_DepthDuration_HTML.html#279,279,1366,625,1366,768,8-29-2022,14-51-55,139,depth_duration_stimuli/003129_2014-05-12_10-48-10_094959634447_rgbf000100-resize_0/003129_2014-05-12_10-48-10_094959634447_rgbf000100-resize_0-target.png,1000,4.9305,222,3547,988,feet,jsons/v1_VE1000_randls_25.json,1522975,1794232,48,Woman
139,693109,DepthScenes,duration_manipulation_targetAtFixation,jsons/v1_VE1000_randls_25.json,http://54.235.29.9/FacialAge/BNav_EC2/DepthDuration/v2_depth_duration_MTurk/v2_DepthDuration_HTML.html#279,279,1366,625,1366,768,8-29-2022,14-51-55,140,depth_duration_stimuli/001808_2014-06-26_20-50-58_260595134347_rgbf000029-resize_1/001808_2014-06-26_20-50-58_260595134347_rgbf000029-resize_1-target.png,1000,4.249,222,3943,984,feet,jsons/v1_VE1000_randls_25.json,1522975,1794232,48,Woman
140,693109,DepthScenes,duration_manipulation_targetAtFixation,jsons/v1_VE1000_randls_25.json,http://54.235.29.9/FacialAge/BNav_EC2/DepthDuration/v2_depth_duration_MTurk/v2_DepthDuration_HTML.html#279,279,1366,625,1366,768,8-29-2022,14-51-55,141,depth_duration_stimuli/001815_2014-06-26_20-52-55_260595134347_rgbf000020-resize_0/001815_2014-06-26_20-52-55_260595134347_rgbf000020-resize_0-target.png,1000,3.3865,2222,3135,972,feet,jsons/v1_VE1000_randls_25.json,1522975,1794232,48,Woman
141,693109,DepthScenes,duration_manipulation_targetAtFixation,jsons/v1_VE1000_randls_25.json,http://54.235.29.9/FacialAge/BNav_EC2/DepthDuration/v2_depth_duration_MTurk/v2_DepthDuration_HTML.html#279,279,1366,625,1366,768,8-29-2022,14-51-55,142,depth_duration_stimuli/000486_2014-06-09_20-47-20_260595134347_rgbf000143-resize_2/000486_2014-06-09_20-47-20_260595134347_rgbf000143-resize_2-target.png,1000,4.8325,0,4117,973,feet,jsons/v1_VE1000_randls_25.json,1522975,1794232,48,Woman
142,693109,DepthScenes,duration_manipulation_targetAtFixation,jsons/v1_VE1000_randls_25.json,http://54.235.29.9/FacialAge/BNav_EC2/DepthDuration/v2_depth_duration_MTurk/v2_DepthDuration_HTML.html#279,279,1366,625,1366,768,8-29-2022,14-51-55,143,depth_duration_stimuli/003083_2014-06-15_15-21-03_094959634447_rgbf000063-resize_1/003083_2014-06-15_15-21-03_094959634447_rgbf000063-resize_1-target.png,1000,4.1405,0,2951,1010,feet,jsons/v1_VE1000_randls_25.json,1522975,1794232,48,Woman
143,693109,DepthScenes,duration_manipulation_targetAtFixation,jsons/v1_VE1000_randls_25.json,http://54.235.29.9/FacialAge/BNav_EC2/DepthDuration/v2_depth_duration_MTurk/v2_DepthDuration_HTML.html#279,279,1366,625,1366,768,8-29-2022,14-51-55,144,depth_duration_stimuli/002213_2014-06-28_18-37-58_260595134347_rgbf000055-resize_1/002213_2014-06-28_18-37-58_260595134347_rgbf000055-resize_1-target.png,1000,3.62,0,3629,974,feet,jsons/v1_VE1000_randls_25.json,1522975,1794232,48,Woman
144,693109,DepthScenes,duration_manipulation_targetAtFixation,jsons/v1_VE1000_randls_25.json,http://54.235.29.9/FacialAge/BNav_EC2/DepthDuration/v2_depth_duration_MTurk/v2_DepthDuration_HTML.html#279,279,1366,625,1366,768,8-29-2022,14-51-55,145,depth_duration_stimuli/000691_2014-06-08_13-08-50_260595134347_rgbf000132-resize_3/000691_2014-06-08_13-08-50_260595134347_rgbf000132-resize_3-target.png,1000,4.1530000000000005,0,3464,1018,feet,jsons/v1_VE1000_randls_25.json,1522975,1794232,48,Woman
145,693109,DepthScenes,duration_manipulation_targetAtFixation,jsons/v1_VE1000_randls_25.json,http://54.235.29.9/FacialAge/BNav_EC2/DepthDuration/v2_depth_duration_MTurk/v2_DepthDuration_HTML.html#279,279,1366,625,1366,768,8-29-2022,14-51-55,146,depth_duration_stimuli/001498_2014-06-19_17-45-14_260595134347_rgbf000129-resize_4/001498_2014-06-19_17-45-14_260595134347_rgbf000129-resize-original.jpg,1000,1.4075,0,3700,979,feet,jsons/v1_VE1000_randls_25.json,1522975,1794232,48,Woman
146,693109,DepthScenes,duration_manipulation_targetAtFixation,jsons/v1_VE1000_randls_25.json,http://54.235.29.9/FacialAge/BNav_EC2/DepthDuration/v2_depth_duration_MTurk/v2_DepthDuration_HTML.html#279,279,1366,625,1366,768,8-29-2022,14-51-55,147,depth_duration_stimuli/000739_2014-06-08_18-45-58_260595134347_rgbf000068-resize_1/000739_2014-06-08_18-45-58_260595134347_rgbf000068-resize_1-target.png,1000,3.534,0,3149,1001,feet,jsons/v1_VE1000_randls_25.json,1522975,1794232,48,Woman
147,693109,DepthScenes,duration_manipulation_targetAtFixation,jsons/v1_VE1000_randls_25.json,http://54.235.29.9/FacialAge/BNav_EC2/DepthDuration/v2_depth_duration_MTurk/v2_DepthDuration_HTML.html#279,279,1366,625,1366,768,8-29-2022,14-51-55,148,depth_duration_stimuli/000734_2014-06-08_17-39-11_260595134347_rgbf000128-resize_2/000734_2014-06-08_17-39-11_260595134347_rgbf000128-resize_2-target.png,1000,4.098,0,8223,998,feet,jsons/v1_VE1000_randls_25.json,1522975,1794232,48,Woman
148,693109,DepthScenes,duration_manipulation_targetAtFixation,jsons/v1_VE1000_randls_25.json,http://54.235.29.9/FacialAge/BNav_EC2/DepthDuration/v2_depth_duration_MTurk/v2_DepthDuration_HTML.html#279,279,1366,625,1366,768,8-29-2022,14-51-55,149,depth_duration_stimuli/002964_2014-06-08_17-46-11_094959634447_rgbf000091-resize_4/002964_2014-06-08_17-46-11_094959634447_rgbf000091-resize_4-target.png,1000,1.6909999999999998,22,274886,997,feet,jsons/v1_VE1000_randls_25.json,1522975,1794232,48,Woman
149,693109,DepthScenes,duration_manipulation_targetAtFixation,jsons/v1_VE1000_randls_25.json,http://54.235.29.9/FacialAge/BNav_EC2/DepthDuration/v2_depth_duration_MTurk/v2_DepthDuration_HTML.html#279,279,1366,625,1366,768,8-29-2022,14-51-55,150,depth_duration_stimuli/002136_2014-06-25_21-18-03_260595134347_rgbf000109-resize_3/002136_2014-06-25_21-18-03_260595134347_rgbf000109-resize_3-target.png,1000,1.9569999999999999,22,4184,965,feet,jsons/v1_VE1000_randls_25.json,1522975,1794232,48,Woman
150,693109,DepthScenes,duration_manipulation_targetAtFixation,jsons/v1_VE1000_randls_25.json,http://54.235.29.9/FacialAge/BNav_EC2/DepthDuration/v2_depth_duration_MTurk/v2_DepthDuration_HTML.html#279,279,1366,625,1366,768,8-29-2022,14-51-55,151,depth_duration_stimuli/000929_2014-06-09_16-33-19_260595134347_rgbf000139-resize_0/000929_2014-06-09_16-33-19_260595134347_rgbf000139-resize_0-target.png,1000,2.8680000000000003,222222,3013,944,feet,jsons/v1_VE1000_randls_25.json,1522975,1794232,48,Woman
151,693109,DepthScenes,duration_manipulation_targetAtFixation,jsons/v1_VE1000_randls_25.json,http://54.235.29.9/FacialAge/BNav_EC2/DepthDuration/v2_depth_duration_MTurk/v2_DepthDuration_HTML.html#279,279,1366,625,1366,768,8-29-2022,14-51-55,152,depth_duration_stimuli/000457_2014-06-08_16-52-43_260595134347_rgbf000199-resize_1/000457_2014-06-08_16-52-43_260595134347_rgbf000199-resize_1-target.png,1000,3.6489999999999996,222,3750,1001,feet,jsons/v1_VE1000_randls_25.json,1522975,1794232,48,Woman
152,693109,DepthScenes,duration_manipulation_targetAtFixation,jsons/v1_VE1000_randls_25.json,http://54.235.29.9/FacialAge/BNav_EC2/DepthDuration/v2_depth_duration_MTurk/v2_DepthDuration_HTML.html#279,279,1366,625,1366,768,8-29-2022,14-51-55,153,depth_duration_stimuli/001029_2014-06-08_13-17-57_260595134347_rgbf000065-resize_1/001029_2014-06-08_13-17-57_260595134347_rgbf000065-resize_1-target.png,1000,3.0835,22222,3015,990,feet,jsons/v1_VE1000_randls_25.json,1522975,1794232,48,Woman
153,693109,DepthScenes,duration_manipulation_targetAtFixation,jsons/v1_VE1000_randls_25.json,http://54.235.29.9/FacialAge/BNav_EC2/DepthDuration/v2_depth_duration_MTurk/v2_DepthDuration_HTML.html#279,279,1366,625,1366,768,8-29-2022,14-51-55,154,depth_duration_stimuli/000677_2014-06-08_23-10-32_260595134347_rgbf000158-resize_6/000677_2014-06-08_23-10-32_260595134347_rgbf000158-resize_6-target.png,1000,3.556,22,3431,912,feet,jsons/v1_VE1000_randls_25.json,1522975,1794232,48,Woman
154,693109,DepthScenes,duration_manipulation_targetAtFixation,jsons/v1_VE1000_randls_25.json,http://54.235.29.9/FacialAge/BNav_EC2/DepthDuration/v2_depth_duration_MTurk/v2_DepthDuration_HTML.html#279,279,1366,625,1366,768,8-29-2022,14-51-55,155,depth_duration_stimuli/001167_2014-06-17_15-38-07_260595134347_rgbf000108-resize_0/001167_2014-06-17_15-38-07_260595134347_rgbf000108-resize_0-target.png,1000,1.8505,2222,3998,974,feet,jsons/v1_VE1000_randls_25.json,1522975,1794232,48,Woman
155,693109,DepthScenes,duration_manipulation_targetAtFixation,jsons/v1_VE1000_randls_25.json,http://54.235.29.9/FacialAge/BNav_EC2/DepthDuration/v2_depth_duration_MTurk/v2_DepthDuration_HTML.html#279,279,1366,625,1366,768,8-29-2022,14-51-55,156,depth_duration_stimuli/003587_2014-05-23_16-48-02_094959634447_rgbf002384-resize_2/003587_2014-05-23_16-48-02_094959634447_rgbf002384-resize_2-target.png,1000,1.357,2222,3472,987,feet,jsons/v1_VE1000_randls_25.json,1522975,1794232,48,Woman
156,693109,DepthScenes,duration_manipulation_targetAtFixation,jsons/v1_VE1000_randls_25.json,http://54.235.29.9/FacialAge/BNav_EC2/DepthDuration/v2_depth_duration_MTurk/v2_DepthDuration_HTML.html#279,279,1366,625,1366,768,8-29-2022,14-51-55,157,depth_duration_stimuli/003070_2014-06-15_14-58-27_094959634447_rgbf000150-resize_3/003070_2014-06-15_14-58-27_094959634447_rgbf000150-resize_3-target.png,1000,2.9415,2244555,5807,994,feet,jsons/v1_VE1000_randls_25.json,1522975,1794232,48,Woman
157,693109,DepthScenes,duration_manipulation_targetAtFixation,jsons/v1_VE1000_randls_25.json,http://54.235.29.9/FacialAge/BNav_EC2/DepthDuration/v2_depth_duration_MTurk/v2_DepthDuration_HTML.html#279,279,1366,625,1366,768,8-29-2022,14-51-55,158,depth_duration_stimuli/000943_2014-06-09_19-31-07_260595134347_rgbf000128-resize_1/000943_2014-06-09_19-31-07_260595134347_rgbf000128-resize_1-target.png,1000,1.9765,5757575,3352,999,feet,jsons/v1_VE1000_randls_25.json,1522975,1794232,48,Woman
158,693109,DepthScenes,duration_manipulation_targetAtFixation,jsons/v1_VE1000_randls_25.json,http://54.235.29.9/FacialAge/BNav_EC2/DepthDuration/v2_depth_duration_MTurk/v2_DepthDuration_HTML.html#279,279,1366,625,1366,768,8-29-2022,14-51-55,159,depth_duration_stimuli/000773_2014-06-08_22-24-54_260595134347_rgbf000093-resize_1/000773_2014-06-08_22-24-54_260595134347_rgbf000093-resize_1-target.png,1000,4.973,5745457,4569,998,feet,jsons/v1_VE1000_randls_25.json,1522975,1794232,48,Woman
159,693109,DepthScenes,duration_manipulation_targetAtFixation,jsons/v1_VE1000_randls_25.json,http://54.235.29.9/FacialAge/BNav_EC2/DepthDuration/v2_depth_duration_MTurk/v2_DepthDuration_HTML.html#279,279,1366,625,1366,768,8-29-2022,14-51-55,160,depth_duration_stimuli/002414_2014-06-28_20-24-58_260595134347_rgbf000067-resize_4/002414_2014-06-28_20-24-58_260595134347_rgbf000067-resize_4-target.png,1000,4.363,254222,3761,1000,feet,jsons/v1_VE1000_randls_25.json,1522975,1794232,48,Woman
160,693109,DepthScenes,duration_manipulation_targetAtFixation,jsons/v1_VE1000_randls_25.json,http://54.235.29.9/FacialAge/BNav_EC2/DepthDuration/v2_depth_duration_MTurk/v2_DepthDuration_HTML.html#279,279,1366,625,1366,768,8-29-2022,14-51-55,161,depth_duration_stimuli/000682_2014-06-08_23-14-58_260595134347_rgbf000041-resize_5/000682_2014-06-08_23-14-58_260595134347_rgbf000041-resize_5-target.png,1000,2.7239999999999998,54545,4623,994,feet,jsons/v1_VE1000_randls_25.json,1522975,1794232,48,Woman
161,693109,DepthScenes,duration_manipulation_targetAtFixation,jsons/v1_VE1000_randls_25.json,http://54.235.29.9/FacialAge/BNav_EC2/DepthDuration/v2_depth_duration_MTurk/v2_DepthDuration_HTML.html#279,279,1366,625,1366,768,8-29-2022,14-51-55,162,depth_duration_stimuli/001650_2014-06-20_12-09-00_260595134347_rgbf000087-resize_3/001650_2014-06-20_12-09-00_260595134347_rgbf000087-resize_3-target.png,1000,1.9505,213123121231,129440,1000,feet,jsons/v1_VE1000_randls_25.json,1522975,1794232,48,Woman
162,693109,DepthScenes,duration_manipulation_targetAtFixation,jsons/v1_VE1000_randls_25.json,http://54.235.29.9/FacialAge/BNav_EC2/DepthDuration/v2_depth_duration_MTurk/v2_DepthDuration_HTML.html#279,279,1366,625,1366,768,8-29-2022,14-51-55,163,depth_duration_stimuli/002272_2014-06-28_18-53-56_260595134347_rgbf000067-resize_2/002272_2014-06-28_18-53-56_260595134347_rgbf000067-resize_2-target.png,1000,1.138,222,4561,1008,feet,jsons/v1_VE1000_randls_25.json,1522975,1794232,48,Woman
163,693109,DepthScenes,duration_manipulation_targetAtFixation,jsons/v1_VE1000_randls_25.json,http://54.235.29.9/FacialAge/BNav_EC2/DepthDuration/v2_depth_duration_MTurk/v2_DepthDuration_HTML.html#279,279,1366,625,1366,768,8-29-2022,14-51-55,164,depth_duration_stimuli/001571_2014-06-20_17-21-32_260595134347_rgbf000089-resize_1/001571_2014-06-20_17-21-32_260595134347_rgbf000089-resize_1-target.png,1000,1.86,222,3300,1009,feet,jsons/v1_VE1000_randls_25.json,1522975,1794232,48,Woman
