,subjID,experimentName,versionName,sequenceName,url,selected_row,windowWidth,windowHeight,screenWidth,screenHeight,startDate,startTime,trial,stimulus,duration,actual_depth,depth_estimate,trial_RT,log_sceneDuration,unitSelection,seq_filepath,experimentTime,totalTime,age,gender
0,697712,DepthScenes,duration_manipulation_targetAtFixation,jsons/VE125_randls_51_rotated.json,http://54.235.29.9/FacialAge/BNav_EC2/DepthDuration/v2_depth_duration_MTurk/v2_DepthDuration_HTML.html#353,353,1821,833,1366,768,8-29-2022,6-41-28,1,depth_duration_stimuli/002425_2014-06-28_20-27-29_260595134347_rgbf000031-resize_8/002425_2014-06-28_20-27-29_260595134347_rgbf000031-resize_8-target.png,125,3.8960000000000004,3.0,6164,126,feet,jsons/VE125_randls_51_rotated.json,1333211,1758920,59,Woman
1,697712,DepthScenes,duration_manipulation_targetAtFixation,jsons/VE125_randls_51_rotated.json,http://54.235.29.9/FacialAge/BNav_EC2/DepthDuration/v2_depth_duration_MTurk/v2_DepthDuration_HTML.html#353,353,1821,833,1366,768,8-29-2022,6-41-28,2,depth_duration_stimuli/000642_2014-06-08_16-59-25_260595134347_rgbf000098-resize_2/000642_2014-06-08_16-59-25_260595134347_rgbf000098-resize_2-target.png,125,2.8815,1.5,5695,125,feet,jsons/VE125_randls_51_rotated.json,1333211,1758920,59,Woman
2,697712,DepthScenes,duration_manipulation_targetAtFixation,jsons/VE125_randls_51_rotated.json,http://54.235.29.9/FacialAge/BNav_EC2/DepthDuration/v2_depth_duration_MTurk/v2_DepthDuration_HTML.html#353,353,1821,833,1366,768,8-29-2022,6-41-28,3,depth_duration_stimuli/000483_2014-06-09_20-41-45_260595134347_rgbf000116-resize_4/000483_2014-06-09_20-41-45_260595134347_rgbf000116-resize_4-target.png,125,1.337,2.0,12633,126,feet,jsons/VE125_randls_51_rotated.json,1333211,1758920,59,Woman
3,697712,DepthScenes,duration_manipulation_targetAtFixation,jsons/VE125_randls_51_rotated.json,http://54.235.29.9/FacialAge/BNav_EC2/DepthDuration/v2_depth_duration_MTurk/v2_DepthDuration_HTML.html#353,353,1821,833,1366,768,8-29-2022,6-41-28,4,depth_duration_stimuli/000469_2014-06-09_19-42-10_260595134347_rgbf000081-resize_1/000469_2014-06-09_19-42-10_260595134347_rgbf000081-resize_1-target.png,125,1.652,2.0,4156,126,feet,jsons/VE125_randls_51_rotated.json,1333211,1758920,59,Woman
4,697712,DepthScenes,duration_manipulation_targetAtFixation,jsons/VE125_randls_51_rotated.json,http://54.235.29.9/FacialAge/BNav_EC2/DepthDuration/v2_depth_duration_MTurk/v2_DepthDuration_HTML.html#353,353,1821,833,1366,768,8-29-2022,6-41-28,5,depth_duration_stimuli/001450_2014-06-19_17-02-03_260595134347_rgbf000203-resize_4/001450_2014-06-19_17-02-03_260595134347_rgbf000203-resize_4-target.png,125,4.0106666666667,2.5,9408,121,feet,jsons/VE125_randls_51_rotated.json,1333211,1758920,59,Woman
5,697712,DepthScenes,duration_manipulation_targetAtFixation,jsons/VE125_randls_51_rotated.json,http://54.235.29.9/FacialAge/BNav_EC2/DepthDuration/v2_depth_duration_MTurk/v2_DepthDuration_HTML.html#353,353,1821,833,1366,768,8-29-2022,6-41-28,6,depth_duration_stimuli/001449_2014-06-19_17-01-27_260595134347_rgbf000116-resize_2/001449_2014-06-19_17-01-27_260595134347_rgbf000116-resize_2-target.png,125,3.452,2.5,6369,127,feet,jsons/VE125_randls_51_rotated.json,1333211,1758920,59,Woman
6,697712,DepthScenes,duration_manipulation_targetAtFixation,jsons/VE125_randls_51_rotated.json,http://54.235.29.9/FacialAge/BNav_EC2/DepthDuration/v2_depth_duration_MTurk/v2_DepthDuration_HTML.html#353,353,1821,833,1366,768,8-29-2022,6-41-28,7,depth_duration_stimuli/001584_2014-06-20_11-07-43_260595134347_rgbf000002-resize_1/001584_2014-06-20_11-07-43_260595134347_rgbf000002-resize_1-target.png,125,3.53,2.5,9523,124,feet,jsons/VE125_randls_51_rotated.json,1333211,1758920,59,Woman
7,697712,DepthScenes,duration_manipulation_targetAtFixation,jsons/VE125_randls_51_rotated.json,http://54.235.29.9/FacialAge/BNav_EC2/DepthDuration/v2_depth_duration_MTurk/v2_DepthDuration_HTML.html#353,353,1821,833,1366,768,8-29-2022,6-41-28,8,depth_duration_stimuli/003621_2014-05-23_18-06-08_094959634447_rgbf000101-resize_1/003621_2014-05-23_18-06-08_094959634447_rgbf000101-resize_1-target.png,125,3.9835,3.5,4917,126,feet,jsons/VE125_randls_51_rotated.json,1333211,1758920,59,Woman
8,697712,DepthScenes,duration_manipulation_targetAtFixation,jsons/VE125_randls_51_rotated.json,http://54.235.29.9/FacialAge/BNav_EC2/DepthDuration/v2_depth_duration_MTurk/v2_DepthDuration_HTML.html#353,353,1821,833,1366,768,8-29-2022,6-41-28,9,depth_duration_stimuli/000665_2014-06-09_20-42-35_260595134347_rgbf000110-resize_1/000665_2014-06-09_20-42-35_260595134347_rgbf000110-resize_1-target.png,125,3.057,2.0,4614,120,feet,jsons/VE125_randls_51_rotated.json,1333211,1758920,59,Woman
9,697712,DepthScenes,duration_manipulation_targetAtFixation,jsons/VE125_randls_51_rotated.json,http://54.235.29.9/FacialAge/BNav_EC2/DepthDuration/v2_depth_duration_MTurk/v2_DepthDuration_HTML.html#353,353,1821,833,1366,768,8-29-2022,6-41-28,10,depth_duration_stimuli/001150_2014-06-17_15-27-34_260595134347_rgbf000108-resize_2/001150_2014-06-17_15-27-34_260595134347_rgbf000108-resize_2-target.png,125,4.0325,3.0,4773,124,feet,jsons/VE125_randls_51_rotated.json,1333211,1758920,59,Woman
10,697712,DepthScenes,duration_manipulation_targetAtFixation,jsons/VE125_randls_51_rotated.json,http://54.235.29.9/FacialAge/BNav_EC2/DepthDuration/v2_depth_duration_MTurk/v2_DepthDuration_HTML.html#353,353,1821,833,1366,768,8-29-2022,6-41-28,11,depth_duration_stimuli/000734_2014-06-08_17-39-11_260595134347_rgbf000128-resize_2/000734_2014-06-08_17-39-11_260595134347_rgbf000128-resize_2-target.png,125,4.098,3.2,6880,125,feet,jsons/VE125_randls_51_rotated.json,1333211,1758920,59,Woman
11,697712,DepthScenes,duration_manipulation_targetAtFixation,jsons/VE125_randls_51_rotated.json,http://54.235.29.9/FacialAge/BNav_EC2/DepthDuration/v2_depth_duration_MTurk/v2_DepthDuration_HTML.html#353,353,1821,833,1366,768,8-29-2022,6-41-28,12,depth_duration_stimuli/000739_2014-06-08_18-45-58_260595134347_rgbf000068-resize_1/000739_2014-06-08_18-45-58_260595134347_rgbf000068-resize_1-target.png,125,3.534,3.0,4890,126,feet,jsons/VE125_randls_51_rotated.json,1333211,1758920,59,Woman
12,697712,DepthScenes,duration_manipulation_targetAtFixation,jsons/VE125_randls_51_rotated.json,http://54.235.29.9/FacialAge/BNav_EC2/DepthDuration/v2_depth_duration_MTurk/v2_DepthDuration_HTML.html#353,353,1821,833,1366,768,8-29-2022,6-41-28,13,depth_duration_stimuli/002467_2014-06-28_20-38-07_260595134347_rgbf000026-resize_2/002467_2014-06-28_20-38-07_260595134347_rgbf000026-resize_2-target.png,125,4.742,3.0,52085,125,feet,jsons/VE125_randls_51_rotated.json,1333211,1758920,59,Woman
13,697712,DepthScenes,duration_manipulation_targetAtFixation,jsons/VE125_randls_51_rotated.json,http://54.235.29.9/FacialAge/BNav_EC2/DepthDuration/v2_depth_duration_MTurk/v2_DepthDuration_HTML.html#353,353,1821,833,1366,768,8-29-2022,6-41-28,14,depth_duration_stimuli/002570_2014-06-24_13-59-54_094959634447_rgbf000059-resize_0/002570_2014-06-24_13-59-54_094959634447_rgbf000059-resize_0-target.png,125,4.037,0.5,5295,127,feet,jsons/VE125_randls_51_rotated.json,1333211,1758920,59,Woman
14,697712,DepthScenes,duration_manipulation_targetAtFixation,jsons/VE125_randls_51_rotated.json,http://54.235.29.9/FacialAge/BNav_EC2/DepthDuration/v2_depth_duration_MTurk/v2_DepthDuration_HTML.html#353,353,1821,833,1366,768,8-29-2022,6-41-28,15,depth_duration_stimuli/002637_2014-06-24_14-51-13_094959634447_rgbf000066-resize_4/002637_2014-06-24_14-51-13_094959634447_rgbf000066-resize_4-target.png,125,1.9955,2.7,10950,125,feet,jsons/VE125_randls_51_rotated.json,1333211,1758920,59,Woman
15,697712,DepthScenes,duration_manipulation_targetAtFixation,jsons/VE125_randls_51_rotated.json,http://54.235.29.9/FacialAge/BNav_EC2/DepthDuration/v2_depth_duration_MTurk/v2_DepthDuration_HTML.html#353,353,1821,833,1366,768,8-29-2022,6-41-28,16,depth_duration_stimuli/003534_2014-05-22_15-06-10_094959634447_rgbf000102-resize_4/003534_2014-05-22_15-06-10_094959634447_rgbf000102-resize_4-target.png,125,1.426,1.2,5426,122,feet,jsons/VE125_randls_51_rotated.json,1333211,1758920,59,Woman
16,697712,DepthScenes,duration_manipulation_targetAtFixation,jsons/VE125_randls_51_rotated.json,http://54.235.29.9/FacialAge/BNav_EC2/DepthDuration/v2_depth_duration_MTurk/v2_DepthDuration_HTML.html#353,353,1821,833,1366,768,8-29-2022,6-41-28,17,depth_duration_stimuli/003338_2014-05-20_11-01-23_094959634447_rgbf000051-resize_6/003338_2014-05-20_11-01-23_094959634447_rgbf000051-resize_6-target.png,125,1.693,2.0,10933,125,feet,jsons/VE125_randls_51_rotated.json,1333211,1758920,59,Woman
17,697712,DepthScenes,duration_manipulation_targetAtFixation,jsons/VE125_randls_51_rotated.json,http://54.235.29.9/FacialAge/BNav_EC2/DepthDuration/v2_depth_duration_MTurk/v2_DepthDuration_HTML.html#353,353,1821,833,1366,768,8-29-2022,6-41-28,18,depth_duration_stimuli/002509_2014-06-24_13-19-22_094959634447_rgbf000077-resize_0/002509_2014-06-24_13-19-22_094959634447_rgbf000077-resize_0-target.png,125,1.3065,2.0,4025,125,feet,jsons/VE125_randls_51_rotated.json,1333211,1758920,59,Woman
18,697712,DepthScenes,duration_manipulation_targetAtFixation,jsons/VE125_randls_51_rotated.json,http://54.235.29.9/FacialAge/BNav_EC2/DepthDuration/v2_depth_duration_MTurk/v2_DepthDuration_HTML.html#353,353,1821,833,1366,768,8-29-2022,6-41-28,19,depth_duration_stimuli/001498_2014-06-19_17-45-14_260595134347_rgbf000129-resize_4/001498_2014-06-19_17-45-14_260595134347_rgbf000129-resize-original.jpg,125,1.4075,0.0,9089,114,feet,jsons/VE125_randls_51_rotated.json,1333211,1758920,59,Woman
19,697712,DepthScenes,duration_manipulation_targetAtFixation,jsons/VE125_randls_51_rotated.json,http://54.235.29.9/FacialAge/BNav_EC2/DepthDuration/v2_depth_duration_MTurk/v2_DepthDuration_HTML.html#353,353,1821,833,1366,768,8-29-2022,6-41-28,20,depth_duration_stimuli/002545_2014-06-24_13-38-53_094959634447_rgbf000080-resize_4/002545_2014-06-24_13-38-53_094959634447_rgbf000080-resize_4-target.png,125,1.9205,3.0,10537,121,feet,jsons/VE125_randls_51_rotated.json,1333211,1758920,59,Woman
20,697712,DepthScenes,duration_manipulation_targetAtFixation,jsons/VE125_randls_51_rotated.json,http://54.235.29.9/FacialAge/BNav_EC2/DepthDuration/v2_depth_duration_MTurk/v2_DepthDuration_HTML.html#353,353,1821,833,1366,768,8-29-2022,6-41-28,21,depth_duration_stimuli/001092_2014-06-15_17-34-58_260595134347_rgbf000171-resize_3/001092_2014-06-15_17-34-58_260595134347_rgbf000171-resize_3-target.png,125,2.6935,1.5,4706,124,feet,jsons/VE125_randls_51_rotated.json,1333211,1758920,59,Woman
21,697712,DepthScenes,duration_manipulation_targetAtFixation,jsons/VE125_randls_51_rotated.json,http://54.235.29.9/FacialAge/BNav_EC2/DepthDuration/v2_depth_duration_MTurk/v2_DepthDuration_HTML.html#353,353,1821,833,1366,768,8-29-2022,6-41-28,22,depth_duration_stimuli/002340_2014-06-28_20-05-46_260595134347_rgbf000113-resize_0/002340_2014-06-28_20-05-46_260595134347_rgbf000113-resize_0-target.png,125,2.4735,4.5,9667,124,feet,jsons/VE125_randls_51_rotated.json,1333211,1758920,59,Woman
22,697712,DepthScenes,duration_manipulation_targetAtFixation,jsons/VE125_randls_51_rotated.json,http://54.235.29.9/FacialAge/BNav_EC2/DepthDuration/v2_depth_duration_MTurk/v2_DepthDuration_HTML.html#353,353,1821,833,1366,768,8-29-2022,6-41-28,23,depth_duration_stimuli/001016_2014-06-09_16-16-10_260595134347_rgbf000112-resize_5/001016_2014-06-09_16-16-10_260595134347_rgbf000112-resize_5-target.png,125,1.6565,2.2,5881,125,feet,jsons/VE125_randls_51_rotated.json,1333211,1758920,59,Woman
23,697712,DepthScenes,duration_manipulation_targetAtFixation,jsons/VE125_randls_51_rotated.json,http://54.235.29.9/FacialAge/BNav_EC2/DepthDuration/v2_depth_duration_MTurk/v2_DepthDuration_HTML.html#353,353,1821,833,1366,768,8-29-2022,6-41-28,24,depth_duration_stimuli/003587_2014-05-23_16-48-02_094959634447_rgbf002384-resize_2/003587_2014-05-23_16-48-02_094959634447_rgbf002384-resize_2-target.png,125,1.357,2.0,7725,126,feet,jsons/VE125_randls_51_rotated.json,1333211,1758920,59,Woman
24,697712,DepthScenes,duration_manipulation_targetAtFixation,jsons/VE125_randls_51_rotated.json,http://54.235.29.9/FacialAge/BNav_EC2/DepthDuration/v2_depth_duration_MTurk/v2_DepthDuration_HTML.html#353,353,1821,833,1366,768,8-29-2022,6-41-28,25,depth_duration_stimuli/001167_2014-06-17_15-38-07_260595134347_rgbf000108-resize_0/001167_2014-06-17_15-38-07_260595134347_rgbf000108-resize_0-target.png,125,1.8505,2.3,4200,123,feet,jsons/VE125_randls_51_rotated.json,1333211,1758920,59,Woman
25,697712,DepthScenes,duration_manipulation_targetAtFixation,jsons/VE125_randls_51_rotated.json,http://54.235.29.9/FacialAge/BNav_EC2/DepthDuration/v2_depth_duration_MTurk/v2_DepthDuration_HTML.html#353,353,1821,833,1366,768,8-29-2022,6-41-28,26,depth_duration_stimuli/000866_2014-06-09_20-45-42_260595134347_rgbf000139-resize_1/000866_2014-06-09_20-45-42_260595134347_rgbf000139-resize_1-target.png,125,3.2155,3.0,9694,124,feet,jsons/VE125_randls_51_rotated.json,1333211,1758920,59,Woman
26,697712,DepthScenes,duration_manipulation_targetAtFixation,jsons/VE125_randls_51_rotated.json,http://54.235.29.9/FacialAge/BNav_EC2/DepthDuration/v2_depth_duration_MTurk/v2_DepthDuration_HTML.html#353,353,1821,833,1366,768,8-29-2022,6-41-28,27,depth_duration_stimuli/002989_2014-06-15_12-25-03_094959634447_rgbf000150-resize_3/002989_2014-06-15_12-25-03_094959634447_rgbf000150-resize_3-target.png,125,4.1975,4.0,4200,126,feet,jsons/VE125_randls_51_rotated.json,1333211,1758920,59,Woman
27,697712,DepthScenes,duration_manipulation_targetAtFixation,jsons/VE125_randls_51_rotated.json,http://54.235.29.9/FacialAge/BNav_EC2/DepthDuration/v2_depth_duration_MTurk/v2_DepthDuration_HTML.html#353,353,1821,833,1366,768,8-29-2022,6-41-28,28,depth_duration_stimuli/000103_2014-05-14_22-01-17_260595134347_rgbf000152-resize_5/000103_2014-05-14_22-01-17_260595134347_rgbf000152-resize_5-target.png,125,1.993,3.5,7665,121,feet,jsons/VE125_randls_51_rotated.json,1333211,1758920,59,Woman
28,697712,DepthScenes,duration_manipulation_targetAtFixation,jsons/VE125_randls_51_rotated.json,http://54.235.29.9/FacialAge/BNav_EC2/DepthDuration/v2_depth_duration_MTurk/v2_DepthDuration_HTML.html#353,353,1821,833,1366,768,8-29-2022,6-41-28,29,depth_duration_stimuli/001555_2014-06-20_17-12-10_260595134347_rgbf000065-resize_4/001555_2014-06-20_17-12-10_260595134347_rgbf000065-resize_4-target.png,125,1.633,1.5,4871,126,feet,jsons/VE125_randls_51_rotated.json,1333211,1758920,59,Woman
29,697712,DepthScenes,duration_manipulation_targetAtFixation,jsons/VE125_randls_51_rotated.json,http://54.235.29.9/FacialAge/BNav_EC2/DepthDuration/v2_depth_duration_MTurk/v2_DepthDuration_HTML.html#353,353,1821,833,1366,768,8-29-2022,6-41-28,30,depth_duration_stimuli/002072_2014-06-24_21-48-06_260595134347_rgbf000115-resize_0/002072_2014-06-24_21-48-06_260595134347_rgbf000115-resize-original.jpg,125,4.702,0.0,8164,125,feet,jsons/VE125_randls_51_rotated.json,1333211,1758920,59,Woman
30,697712,DepthScenes,duration_manipulation_targetAtFixation,jsons/VE125_randls_51_rotated.json,http://54.235.29.9/FacialAge/BNav_EC2/DepthDuration/v2_depth_duration_MTurk/v2_DepthDuration_HTML.html#353,353,1821,833,1366,768,8-29-2022,6-41-28,31,depth_duration_stimuli/000409_2014-06-04_19-23-33_260595134347_rgbf000067-resize_0/000409_2014-06-04_19-23-33_260595134347_rgbf000067-resize_0-target.png,125,3.7335,2.0,8865,124,feet,jsons/VE125_randls_51_rotated.json,1333211,1758920,59,Woman
31,697712,DepthScenes,duration_manipulation_targetAtFixation,jsons/VE125_randls_51_rotated.json,http://54.235.29.9/FacialAge/BNav_EC2/DepthDuration/v2_depth_duration_MTurk/v2_DepthDuration_HTML.html#353,353,1821,833,1366,768,8-29-2022,6-41-28,32,depth_duration_stimuli/002663_2014-06-13_15-50-26_094959634447_rgbf000075-resize_1/002663_2014-06-13_15-50-26_094959634447_rgbf000075-resize_1-target.png,125,4.7495,3.0,3380,124,feet,jsons/VE125_randls_51_rotated.json,1333211,1758920,59,Woman
32,697712,DepthScenes,duration_manipulation_targetAtFixation,jsons/VE125_randls_51_rotated.json,http://54.235.29.9/FacialAge/BNav_EC2/DepthDuration/v2_depth_duration_MTurk/v2_DepthDuration_HTML.html#353,353,1821,833,1366,768,8-29-2022,6-41-28,33,depth_duration_stimuli/000556_2014-06-09_22-42-56_260595134347_rgbf000214-resize_1/000556_2014-06-09_22-42-56_260595134347_rgbf000214-resize_1-target.png,125,4.8415,1.5,8371,125,feet,jsons/VE125_randls_51_rotated.json,1333211,1758920,59,Woman
33,697712,DepthScenes,duration_manipulation_targetAtFixation,jsons/VE125_randls_51_rotated.json,http://54.235.29.9/FacialAge/BNav_EC2/DepthDuration/v2_depth_duration_MTurk/v2_DepthDuration_HTML.html#353,353,1821,833,1366,768,8-29-2022,6-41-28,34,depth_duration_stimuli/001158_2014-06-17_15-32-16_260595134347_rgbf000138-resize_2/001158_2014-06-17_15-32-16_260595134347_rgbf000138-resize_2-target.png,125,4.5315,3.0,4813,126,feet,jsons/VE125_randls_51_rotated.json,1333211,1758920,59,Woman
34,697712,DepthScenes,duration_manipulation_targetAtFixation,jsons/VE125_randls_51_rotated.json,http://54.235.29.9/FacialAge/BNav_EC2/DepthDuration/v2_depth_duration_MTurk/v2_DepthDuration_HTML.html#353,353,1821,833,1366,768,8-29-2022,6-41-28,35,depth_duration_stimuli/002209_2014-06-28_18-36-10_260595134347_rgbf000051-resize_1/002209_2014-06-28_18-36-10_260595134347_rgbf000051-resize_1-target.png,125,2.057,2.0,8194,125,feet,jsons/VE125_randls_51_rotated.json,1333211,1758920,59,Woman
35,697712,DepthScenes,duration_manipulation_targetAtFixation,jsons/VE125_randls_51_rotated.json,http://54.235.29.9/FacialAge/BNav_EC2/DepthDuration/v2_depth_duration_MTurk/v2_DepthDuration_HTML.html#353,353,1821,833,1366,768,8-29-2022,6-41-28,36,depth_duration_stimuli/002763_2014-06-22_19-13-10_094959634447_rgbf000075-resize_4/002763_2014-06-22_19-13-10_094959634447_rgbf000075-resize_4-target.png,125,1.68375,2.0,4684,125,feet,jsons/VE125_randls_51_rotated.json,1333211,1758920,59,Woman
36,697712,DepthScenes,duration_manipulation_targetAtFixation,jsons/VE125_randls_51_rotated.json,http://54.235.29.9/FacialAge/BNav_EC2/DepthDuration/v2_depth_duration_MTurk/v2_DepthDuration_HTML.html#353,353,1821,833,1366,768,8-29-2022,6-41-28,37,depth_duration_stimuli/001571_2014-06-20_17-21-32_260595134347_rgbf000089-resize_1/001571_2014-06-20_17-21-32_260595134347_rgbf000089-resize_1-target.png,125,1.86,1.7,6990,125,feet,jsons/VE125_randls_51_rotated.json,1333211,1758920,59,Woman
37,697712,DepthScenes,duration_manipulation_targetAtFixation,jsons/VE125_randls_51_rotated.json,http://54.235.29.9/FacialAge/BNav_EC2/DepthDuration/v2_depth_duration_MTurk/v2_DepthDuration_HTML.html#353,353,1821,833,1366,768,8-29-2022,6-41-28,38,depth_duration_stimuli/002272_2014-06-28_18-53-56_260595134347_rgbf000067-resize_2/002272_2014-06-28_18-53-56_260595134347_rgbf000067-resize_2-target.png,125,1.138,1.5,4348,115,feet,jsons/VE125_randls_51_rotated.json,1333211,1758920,59,Woman
38,697712,DepthScenes,duration_manipulation_targetAtFixation,jsons/VE125_randls_51_rotated.json,http://54.235.29.9/FacialAge/BNav_EC2/DepthDuration/v2_depth_duration_MTurk/v2_DepthDuration_HTML.html#353,353,1821,833,1366,768,8-29-2022,6-41-28,39,depth_duration_stimuli/000635_2014-06-08_16-38-42_260595134347_rgbf000106-resize_1/000635_2014-06-08_16-38-42_260595134347_rgbf000106-resize_1-target.png,125,2.074,2.0,11502,127,feet,jsons/VE125_randls_51_rotated.json,1333211,1758920,59,Woman
39,697712,DepthScenes,duration_manipulation_targetAtFixation,jsons/VE125_randls_51_rotated.json,http://54.235.29.9/FacialAge/BNav_EC2/DepthDuration/v2_depth_duration_MTurk/v2_DepthDuration_HTML.html#353,353,1821,833,1366,768,8-29-2022,6-41-28,40,depth_duration_stimuli/002279_2014-06-28_18-55-32_260595134347_rgbf000040-resize_5/002279_2014-06-28_18-55-32_260595134347_rgbf000040-resize_5-target.png,125,1.5043333333333,1.5,4331,140,feet,jsons/VE125_randls_51_rotated.json,1333211,1758920,59,Woman
40,697712,DepthScenes,duration_manipulation_targetAtFixation,jsons/VE125_randls_51_rotated.json,http://54.235.29.9/FacialAge/BNav_EC2/DepthDuration/v2_depth_duration_MTurk/v2_DepthDuration_HTML.html#353,353,1821,833,1366,768,8-29-2022,6-41-28,41,depth_duration_stimuli/002344_2014-06-28_20-06-29_260595134347_rgbf000030-resize_1/002344_2014-06-28_20-06-29_260595134347_rgbf000030-resize_1-target.png,125,1.5795,1.5,4707,124,feet,jsons/VE125_randls_51_rotated.json,1333211,1758920,59,Woman
41,697712,DepthScenes,duration_manipulation_targetAtFixation,jsons/VE125_randls_51_rotated.json,http://54.235.29.9/FacialAge/BNav_EC2/DepthDuration/v2_depth_duration_MTurk/v2_DepthDuration_HTML.html#353,353,1821,833,1366,768,8-29-2022,6-41-28,42,depth_duration_stimuli/002725_2014-06-22_11-47-51_094959634447_rgbf000070-resize_1/002725_2014-06-22_11-47-51_094959634447_rgbf000070-resize_1-target.png,125,2.195,0.0,3844,124,feet,jsons/VE125_randls_51_rotated.json,1333211,1758920,59,Woman
42,697712,DepthScenes,duration_manipulation_targetAtFixation,jsons/VE125_randls_51_rotated.json,http://54.235.29.9/FacialAge/BNav_EC2/DepthDuration/v2_depth_duration_MTurk/v2_DepthDuration_HTML.html#353,353,1821,833,1366,768,8-29-2022,6-41-28,43,depth_duration_stimuli/001214_2014-06-17_16-13-55_260595134347_rgbf000111-resize_0/001214_2014-06-17_16-13-55_260595134347_rgbf000111-resize_0-target.png,125,2.6505,1.5,6249,125,feet,jsons/VE125_randls_51_rotated.json,1333211,1758920,59,Woman
43,697712,DepthScenes,duration_manipulation_targetAtFixation,jsons/VE125_randls_51_rotated.json,http://54.235.29.9/FacialAge/BNav_EC2/DepthDuration/v2_depth_duration_MTurk/v2_DepthDuration_HTML.html#353,353,1821,833,1366,768,8-29-2022,6-41-28,44,depth_duration_stimuli/000810_2014-06-08_17-20-01_260595134347_rgbf000105-resize_0/000810_2014-06-08_17-20-01_260595134347_rgbf000105-resize_0-target.png,125,1.4865,0.0,4069,136,feet,jsons/VE125_randls_51_rotated.json,1333211,1758920,59,Woman
44,697712,DepthScenes,duration_manipulation_targetAtFixation,jsons/VE125_randls_51_rotated.json,http://54.235.29.9/FacialAge/BNav_EC2/DepthDuration/v2_depth_duration_MTurk/v2_DepthDuration_HTML.html#353,353,1821,833,1366,768,8-29-2022,6-41-28,45,depth_duration_stimuli/002953_2014-06-08_17-32-18_094959634447_rgbf000059-resize_5/002953_2014-06-08_17-32-18_094959634447_rgbf000059-resize_5-target.png,125,1.551,2.5,5850,125,feet,jsons/VE125_randls_51_rotated.json,1333211,1758920,59,Woman
45,697712,DepthScenes,duration_manipulation_targetAtFixation,jsons/VE125_randls_51_rotated.json,http://54.235.29.9/FacialAge/BNav_EC2/DepthDuration/v2_depth_duration_MTurk/v2_DepthDuration_HTML.html#353,353,1821,833,1366,768,8-29-2022,6-41-28,46,depth_duration_stimuli/000878_2014-06-08_22-52-45_260595134347_rgbf000045-resize_2/000878_2014-06-08_22-52-45_260595134347_rgbf000045-resize_2-target.png,125,2.092,3.0,3579,125,feet,jsons/VE125_randls_51_rotated.json,1333211,1758920,59,Woman
46,697712,DepthScenes,duration_manipulation_targetAtFixation,jsons/VE125_randls_51_rotated.json,http://54.235.29.9/FacialAge/BNav_EC2/DepthDuration/v2_depth_duration_MTurk/v2_DepthDuration_HTML.html#353,353,1821,833,1366,768,8-29-2022,6-41-28,47,depth_duration_stimuli/000709_2014-06-08_13-51-55_260595134347_rgbf000068-resize_3/000709_2014-06-08_13-51-55_260595134347_rgbf000068-resize_3-target.png,125,1.8030000000000002,4.5,6042,126,feet,jsons/VE125_randls_51_rotated.json,1333211,1758920,59,Woman
47,697712,DepthScenes,duration_manipulation_targetAtFixation,jsons/VE125_randls_51_rotated.json,http://54.235.29.9/FacialAge/BNav_EC2/DepthDuration/v2_depth_duration_MTurk/v2_DepthDuration_HTML.html#353,353,1821,833,1366,768,8-29-2022,6-41-28,48,depth_duration_stimuli/002057_2014-06-24_21-00-13_260595134347_rgbf000120-resize_1/002057_2014-06-24_21-00-13_260595134347_rgbf000120-resize_1-target.png,125,2.967,0.0,4861,123,feet,jsons/VE125_randls_51_rotated.json,1333211,1758920,59,Woman
48,697712,DepthScenes,duration_manipulation_targetAtFixation,jsons/VE125_randls_51_rotated.json,http://54.235.29.9/FacialAge/BNav_EC2/DepthDuration/v2_depth_duration_MTurk/v2_DepthDuration_HTML.html#353,353,1821,833,1366,768,8-29-2022,6-41-28,49,depth_duration_stimuli/001170_2014-06-17_15-43-44_260595134347_rgbf000096-resize_6/001170_2014-06-17_15-43-44_260595134347_rgbf000096-resize-original.jpg,125,1.1909999999999998,0.0,6939,126,feet,jsons/VE125_randls_51_rotated.json,1333211,1758920,59,Woman
49,697712,DepthScenes,duration_manipulation_targetAtFixation,jsons/VE125_randls_51_rotated.json,http://54.235.29.9/FacialAge/BNav_EC2/DepthDuration/v2_depth_duration_MTurk/v2_DepthDuration_HTML.html#353,353,1821,833,1366,768,8-29-2022,6-41-28,50,depth_duration_stimuli/000749_2014-06-08_21-55-06_260595134347_rgbf000070-resize_2/000749_2014-06-08_21-55-06_260595134347_rgbf000070-resize_2-target.png,125,2.331,2.5,7369,126,feet,jsons/VE125_randls_51_rotated.json,1333211,1758920,59,Woman
50,697712,DepthScenes,duration_manipulation_targetAtFixation,jsons/VE125_randls_51_rotated.json,http://54.235.29.9/FacialAge/BNav_EC2/DepthDuration/v2_depth_duration_MTurk/v2_DepthDuration_HTML.html#353,353,1821,833,1366,768,8-29-2022,6-41-28,51,depth_duration_stimuli/002788_2014-06-22_19-36-03_094959634447_rgbf000088-resize_2/002788_2014-06-22_19-36-03_094959634447_rgbf000088-resize_2-target.png,125,1.6465,1.5,4564,126,feet,jsons/VE125_randls_51_rotated.json,1333211,1758920,59,Woman
51,697712,DepthScenes,duration_manipulation_targetAtFixation,jsons/VE125_randls_51_rotated.json,http://54.235.29.9/FacialAge/BNav_EC2/DepthDuration/v2_depth_duration_MTurk/v2_DepthDuration_HTML.html#353,353,1821,833,1366,768,8-29-2022,6-41-28,52,depth_duration_stimuli/001650_2014-06-20_12-09-00_260595134347_rgbf000087-resize_3/001650_2014-06-20_12-09-00_260595134347_rgbf000087-resize_3-target.png,125,1.9505,1.5,8837,126,feet,jsons/VE125_randls_51_rotated.json,1333211,1758920,59,Woman
52,697712,DepthScenes,duration_manipulation_targetAtFixation,jsons/VE125_randls_51_rotated.json,http://54.235.29.9/FacialAge/BNav_EC2/DepthDuration/v2_depth_duration_MTurk/v2_DepthDuration_HTML.html#353,353,1821,833,1366,768,8-29-2022,6-41-28,53,depth_duration_stimuli/000682_2014-06-08_23-14-58_260595134347_rgbf000041-resize_5/000682_2014-06-08_23-14-58_260595134347_rgbf000041-resize_5-target.png,125,2.7239999999999998,1.5,3899,126,feet,jsons/VE125_randls_51_rotated.json,1333211,1758920,59,Woman
53,697712,DepthScenes,duration_manipulation_targetAtFixation,jsons/VE125_randls_51_rotated.json,http://54.235.29.9/FacialAge/BNav_EC2/DepthDuration/v2_depth_duration_MTurk/v2_DepthDuration_HTML.html#353,353,1821,833,1366,768,8-29-2022,6-41-28,54,depth_duration_stimuli/000502_2014-06-08_23-02-32_260595134347_rgbf000063-resize_4/000502_2014-06-08_23-02-32_260595134347_rgbf000063-resize_4-target.png,125,2.431,1.5,5674,124,feet,jsons/VE125_randls_51_rotated.json,1333211,1758920,59,Woman
54,697712,DepthScenes,duration_manipulation_targetAtFixation,jsons/VE125_randls_51_rotated.json,http://54.235.29.9/FacialAge/BNav_EC2/DepthDuration/v2_depth_duration_MTurk/v2_DepthDuration_HTML.html#353,353,1821,833,1366,768,8-29-2022,6-41-28,55,depth_duration_stimuli/001199_2014-06-17_16-03-48_260595134347_rgbf000077-resize_0/001199_2014-06-17_16-03-48_260595134347_rgbf000077-resize_0-target.png,125,3.4375,2.3,4115,134,feet,jsons/VE125_randls_51_rotated.json,1333211,1758920,59,Woman
55,697712,DepthScenes,duration_manipulation_targetAtFixation,jsons/VE125_randls_51_rotated.json,http://54.235.29.9/FacialAge/BNav_EC2/DepthDuration/v2_depth_duration_MTurk/v2_DepthDuration_HTML.html#353,353,1821,833,1366,768,8-29-2022,6-41-28,56,depth_duration_stimuli/003423_2014-05-21_10-23-26_094959634447_rgbf002665-resize_2/003423_2014-05-21_10-23-26_094959634447_rgbf002665-resize_2-target.png,125,3.2575,0.7,4537,125,feet,jsons/VE125_randls_51_rotated.json,1333211,1758920,59,Woman
56,697712,DepthScenes,duration_manipulation_targetAtFixation,jsons/VE125_randls_51_rotated.json,http://54.235.29.9/FacialAge/BNav_EC2/DepthDuration/v2_depth_duration_MTurk/v2_DepthDuration_HTML.html#353,353,1821,833,1366,768,8-29-2022,6-41-28,57,depth_duration_stimuli/002905_2014-06-03_18-04-43_094959634447_rgbf000151-resize_2/002905_2014-06-03_18-04-43_094959634447_rgbf000151-resize_2-target.png,125,2.0295,1.2,4146,119,feet,jsons/VE125_randls_51_rotated.json,1333211,1758920,59,Woman
57,697712,DepthScenes,duration_manipulation_targetAtFixation,jsons/VE125_randls_51_rotated.json,http://54.235.29.9/FacialAge/BNav_EC2/DepthDuration/v2_depth_duration_MTurk/v2_DepthDuration_HTML.html#353,353,1821,833,1366,768,8-29-2022,6-41-28,58,depth_duration_stimuli/003228_2014-05-14_13-42-35_094959634447_rgbf000101-resize_1/003228_2014-05-14_13-42-35_094959634447_rgbf000101-resize_1-target.png,125,1.9680000000000002,2.0,7006,130,feet,jsons/VE125_randls_51_rotated.json,1333211,1758920,59,Woman
58,697712,DepthScenes,duration_manipulation_targetAtFixation,jsons/VE125_randls_51_rotated.json,http://54.235.29.9/FacialAge/BNav_EC2/DepthDuration/v2_depth_duration_MTurk/v2_DepthDuration_HTML.html#353,353,1821,833,1366,768,8-29-2022,6-41-28,59,depth_duration_stimuli/002600_2014-06-24_14-27-04_094959634447_rgbf000074-resize_2/002600_2014-06-24_14-27-04_094959634447_rgbf000074-resize_2-target.png,125,2.7575,1.5,5014,125,feet,jsons/VE125_randls_51_rotated.json,1333211,1758920,59,Woman
59,697712,DepthScenes,duration_manipulation_targetAtFixation,jsons/VE125_randls_51_rotated.json,http://54.235.29.9/FacialAge/BNav_EC2/DepthDuration/v2_depth_duration_MTurk/v2_DepthDuration_HTML.html#353,353,1821,833,1366,768,8-29-2022,6-41-28,60,depth_duration_stimuli/001235_2014-06-17_16-37-36_260595134347_rgbf000084-resize_4/001235_2014-06-17_16-37-36_260595134347_rgbf000084-resize_4-target.png,125,3.6605,2.7,8579,121,feet,jsons/VE125_randls_51_rotated.json,1333211,1758920,59,Woman
60,697712,DepthScenes,duration_manipulation_targetAtFixation,jsons/VE125_randls_51_rotated.json,http://54.235.29.9/FacialAge/BNav_EC2/DepthDuration/v2_depth_duration_MTurk/v2_DepthDuration_HTML.html#353,353,1821,833,1366,768,8-29-2022,6-41-28,61,depth_duration_stimuli/000788_2014-06-08_22-34-36_260595134347_rgbf000131-resize_1/000788_2014-06-08_22-34-36_260595134347_rgbf000131-resize_1-target.png,125,3.359,1.7,4104,125,feet,jsons/VE125_randls_51_rotated.json,1333211,1758920,59,Woman
61,697712,DepthScenes,duration_manipulation_targetAtFixation,jsons/VE125_randls_51_rotated.json,http://54.235.29.9/FacialAge/BNav_EC2/DepthDuration/v2_depth_duration_MTurk/v2_DepthDuration_HTML.html#353,353,1821,833,1366,768,8-29-2022,6-41-28,62,depth_duration_stimuli/001100_2014-06-15_17-46-26_260595134347_rgbf000225-resize_2/001100_2014-06-15_17-46-26_260595134347_rgbf000225-resize_2-target.png,125,2.24,1.5,7940,130,feet,jsons/VE125_randls_51_rotated.json,1333211,1758920,59,Woman
62,697712,DepthScenes,duration_manipulation_targetAtFixation,jsons/VE125_randls_51_rotated.json,http://54.235.29.9/FacialAge/BNav_EC2/DepthDuration/v2_depth_duration_MTurk/v2_DepthDuration_HTML.html#353,353,1821,833,1366,768,8-29-2022,6-41-28,63,depth_duration_stimuli/002784_2014-06-22_19-26-30_094959634447_rgbf000083-resize_3/002784_2014-06-22_19-26-30_094959634447_rgbf000083-resize_3-target.png,125,1.8046666666667,1.2,8159,124,feet,jsons/VE125_randls_51_rotated.json,1333211,1758920,59,Woman
63,697712,DepthScenes,duration_manipulation_targetAtFixation,jsons/VE125_randls_51_rotated.json,http://54.235.29.9/FacialAge/BNav_EC2/DepthDuration/v2_depth_duration_MTurk/v2_DepthDuration_HTML.html#353,353,1821,833,1366,768,8-29-2022,6-41-28,64,depth_duration_stimuli/000943_2014-06-09_19-31-07_260595134347_rgbf000128-resize_1/000943_2014-06-09_19-31-07_260595134347_rgbf000128-resize_1-target.png,125,1.9765,2.5,8998,124,feet,jsons/VE125_randls_51_rotated.json,1333211,1758920,59,Woman
64,697712,DepthScenes,duration_manipulation_targetAtFixation,jsons/VE125_randls_51_rotated.json,http://54.235.29.9/FacialAge/BNav_EC2/DepthDuration/v2_depth_duration_MTurk/v2_DepthDuration_HTML.html#353,353,1821,833,1366,768,8-29-2022,6-41-28,65,depth_duration_stimuli/003070_2014-06-15_14-58-27_094959634447_rgbf000150-resize_3/003070_2014-06-15_14-58-27_094959634447_rgbf000150-resize_3-target.png,125,2.9415,2.0,4645,123,feet,jsons/VE125_randls_51_rotated.json,1333211,1758920,59,Woman
65,697712,DepthScenes,duration_manipulation_targetAtFixation,jsons/VE125_randls_51_rotated.json,http://54.235.29.9/FacialAge/BNav_EC2/DepthDuration/v2_depth_duration_MTurk/v2_DepthDuration_HTML.html#353,353,1821,833,1366,768,8-29-2022,6-41-28,66,depth_duration_stimuli/001540_2014-06-20_17-01-05_260595134347_rgbf000086-resize_2/001540_2014-06-20_17-01-05_260595134347_rgbf000086-resize-original.jpg,125,1.459,0.0,3791,123,feet,jsons/VE125_randls_51_rotated.json,1333211,1758920,59,Woman
66,697712,DepthScenes,duration_manipulation_targetAtFixation,jsons/VE125_randls_51_rotated.json,http://54.235.29.9/FacialAge/BNav_EC2/DepthDuration/v2_depth_duration_MTurk/v2_DepthDuration_HTML.html#353,353,1821,833,1366,768,8-29-2022,6-41-28,67,depth_duration_stimuli/003129_2014-05-12_10-48-10_094959634447_rgbf000100-resize_0/003129_2014-05-12_10-48-10_094959634447_rgbf000100-resize_0-target.png,125,4.9305,1.7,9042,113,feet,jsons/VE125_randls_51_rotated.json,1333211,1758920,59,Woman
67,697712,DepthScenes,duration_manipulation_targetAtFixation,jsons/VE125_randls_51_rotated.json,http://54.235.29.9/FacialAge/BNav_EC2/DepthDuration/v2_depth_duration_MTurk/v2_DepthDuration_HTML.html#353,353,1821,833,1366,768,8-29-2022,6-41-28,68,depth_duration_stimuli/000414_2014-06-04_19-49-13_260595134347_rgbf000044-resize_0/000414_2014-06-04_19-49-13_260595134347_rgbf000044-resize_0-target.png,125,4.329,3.0,3523,125,feet,jsons/VE125_randls_51_rotated.json,1333211,1758920,59,Woman
68,697712,DepthScenes,duration_manipulation_targetAtFixation,jsons/VE125_randls_51_rotated.json,http://54.235.29.9/FacialAge/BNav_EC2/DepthDuration/v2_depth_duration_MTurk/v2_DepthDuration_HTML.html#353,353,1821,833,1366,768,8-29-2022,6-41-28,69,depth_duration_stimuli/002995_2014-06-15_12-31-26_094959634447_rgbf000150-resize_1/002995_2014-06-15_12-31-26_094959634447_rgbf000150-resize_1-target.png,125,3.8360000000000003,3.0,8339,148,feet,jsons/VE125_randls_51_rotated.json,1333211,1758920,59,Woman
69,697712,DepthScenes,duration_manipulation_targetAtFixation,jsons/VE125_randls_51_rotated.json,http://54.235.29.9/FacialAge/BNav_EC2/DepthDuration/v2_depth_duration_MTurk/v2_DepthDuration_HTML.html#353,353,1821,833,1366,768,8-29-2022,6-41-28,70,depth_duration_stimuli/002748_2014-06-22_19-07-22_094959634447_rgbf000078-resize_1/002748_2014-06-22_19-07-22_094959634447_rgbf000078-resize_1-target.png,125,4.6705,3.5,6786,125,feet,jsons/VE125_randls_51_rotated.json,1333211,1758920,59,Woman
70,697712,DepthScenes,duration_manipulation_targetAtFixation,jsons/VE125_randls_51_rotated.json,http://54.235.29.9/FacialAge/BNav_EC2/DepthDuration/v2_depth_duration_MTurk/v2_DepthDuration_HTML.html#353,353,1821,833,1366,768,8-29-2022,6-41-28,71,depth_duration_stimuli/000742_2014-06-08_18-48-09_260595134347_rgbf000164-resize_4/000742_2014-06-08_18-48-09_260595134347_rgbf000164-resize_4-target.png,125,4.632,2.5,9121,124,feet,jsons/VE125_randls_51_rotated.json,1333211,1758920,59,Woman
71,697712,DepthScenes,duration_manipulation_targetAtFixation,jsons/VE125_randls_51_rotated.json,http://54.235.29.9/FacialAge/BNav_EC2/DepthDuration/v2_depth_duration_MTurk/v2_DepthDuration_HTML.html#353,353,1821,833,1366,768,8-29-2022,6-41-28,72,depth_duration_stimuli/001066_2014-06-08_22-03-20_260595134347_rgbf000066-resize_4/001066_2014-06-08_22-03-20_260595134347_rgbf000066-resize_4-target.png,125,4.2330000000000005,3.5,7230,125,feet,jsons/VE125_randls_51_rotated.json,1333211,1758920,59,Woman
72,697712,DepthScenes,duration_manipulation_targetAtFixation,jsons/VE125_randls_51_rotated.json,http://54.235.29.9/FacialAge/BNav_EC2/DepthDuration/v2_depth_duration_MTurk/v2_DepthDuration_HTML.html#353,353,1821,833,1366,768,8-29-2022,6-41-28,73,depth_duration_stimuli/002103_2014-06-25_20-00-40_260595134347_rgbf000049-resize_0/002103_2014-06-25_20-00-40_260595134347_rgbf000049-resize_0-target.png,125,4.105,3.0,9139,124,feet,jsons/VE125_randls_51_rotated.json,1333211,1758920,59,Woman
73,697712,DepthScenes,duration_manipulation_targetAtFixation,jsons/VE125_randls_51_rotated.json,http://54.235.29.9/FacialAge/BNav_EC2/DepthDuration/v2_depth_duration_MTurk/v2_DepthDuration_HTML.html#353,353,1821,833,1366,768,8-29-2022,6-41-28,74,depth_duration_stimuli/002039_2014-06-24_20-22-38_260595134347_rgbf000084-resize_1/002039_2014-06-24_20-22-38_260595134347_rgbf000084-resize_1-target.png,125,4.408,2.5,3978,125,feet,jsons/VE125_randls_51_rotated.json,1333211,1758920,59,Woman
74,697712,DepthScenes,duration_manipulation_targetAtFixation,jsons/VE125_randls_51_rotated.json,http://54.235.29.9/FacialAge/BNav_EC2/DepthDuration/v2_depth_duration_MTurk/v2_DepthDuration_HTML.html#353,353,1821,833,1366,768,8-29-2022,6-41-28,75,depth_duration_stimuli/000191_2014-05-12_17-07-38_260595134347_rgbf000199-resize_0/000191_2014-05-12_17-07-38_260595134347_rgbf000199-resize_0-target.png,125,3.7995,5.0,8211,126,feet,jsons/VE125_randls_51_rotated.json,1333211,1758920,59,Woman
75,697712,DepthScenes,duration_manipulation_targetAtFixation,jsons/VE125_randls_51_rotated.json,http://54.235.29.9/FacialAge/BNav_EC2/DepthDuration/v2_depth_duration_MTurk/v2_DepthDuration_HTML.html#353,353,1821,833,1366,768,8-29-2022,6-41-28,76,depth_duration_stimuli/000493_2014-06-09_21-01-18_260595134347_rgbf000196-resize_3/000493_2014-06-09_21-01-18_260595134347_rgbf000196-resize_3-target.png,125,3.44,2.5,4107,129,feet,jsons/VE125_randls_51_rotated.json,1333211,1758920,59,Woman
76,697712,DepthScenes,duration_manipulation_targetAtFixation,jsons/VE125_randls_51_rotated.json,http://54.235.29.9/FacialAge/BNav_EC2/DepthDuration/v2_depth_duration_MTurk/v2_DepthDuration_HTML.html#353,353,1821,833,1366,768,8-29-2022,6-41-28,77,depth_duration_stimuli/002660_2014-06-13_15-44-18_094959634447_rgbf001878-resize_2/002660_2014-06-13_15-44-18_094959634447_rgbf001878-resize_2-target.png,125,3.576,2.0,11146,125,feet,jsons/VE125_randls_51_rotated.json,1333211,1758920,59,Woman
77,697712,DepthScenes,duration_manipulation_targetAtFixation,jsons/VE125_randls_51_rotated.json,http://54.235.29.9/FacialAge/BNav_EC2/DepthDuration/v2_depth_duration_MTurk/v2_DepthDuration_HTML.html#353,353,1821,833,1366,768,8-29-2022,6-41-28,78,depth_duration_stimuli/002153_2014-06-25_21-27-18_260595134347_rgbf000038-resize_5/002153_2014-06-25_21-27-18_260595134347_rgbf000038-resize_5-target.png,125,2.505,1.5,4135,125,feet,jsons/VE125_randls_51_rotated.json,1333211,1758920,59,Woman
78,697712,DepthScenes,duration_manipulation_targetAtFixation,jsons/VE125_randls_51_rotated.json,http://54.235.29.9/FacialAge/BNav_EC2/DepthDuration/v2_depth_duration_MTurk/v2_DepthDuration_HTML.html#353,353,1821,833,1366,768,8-29-2022,6-41-28,79,depth_duration_stimuli/001815_2014-06-26_20-52-55_260595134347_rgbf000020-resize_0/001815_2014-06-26_20-52-55_260595134347_rgbf000020-resize_0-target.png,125,3.3865,4.2,23122,124,feet,jsons/VE125_randls_51_rotated.json,1333211,1758920,59,Woman
79,697712,DepthScenes,duration_manipulation_targetAtFixation,jsons/VE125_randls_51_rotated.json,http://54.235.29.9/FacialAge/BNav_EC2/DepthDuration/v2_depth_duration_MTurk/v2_DepthDuration_HTML.html#353,353,1821,833,1366,768,8-29-2022,6-41-28,80,depth_duration_stimuli/001808_2014-06-26_20-50-58_260595134347_rgbf000029-resize_1/001808_2014-06-26_20-50-58_260595134347_rgbf000029-resize_1-target.png,125,4.249,3.0,5614,126,feet,jsons/VE125_randls_51_rotated.json,1333211,1758920,59,Woman
80,697712,DepthScenes,duration_manipulation_targetAtFixation,jsons/VE125_randls_51_rotated.json,http://54.235.29.9/FacialAge/BNav_EC2/DepthDuration/v2_depth_duration_MTurk/v2_DepthDuration_HTML.html#353,353,1821,833,1366,768,8-29-2022,6-41-28,81,depth_duration_stimuli/001136_2014-06-17_15-19-41_260595134347_rgbf000076-resize_3/001136_2014-06-17_15-19-41_260595134347_rgbf000076-resize_3-target.png,125,1.8655,3.5,11796,129,feet,jsons/VE125_randls_51_rotated.json,1333211,1758920,59,Woman
81,697712,DepthScenes,duration_manipulation_targetAtFixation,jsons/VE125_randls_51_rotated.json,http://54.235.29.9/FacialAge/BNav_EC2/DepthDuration/v2_depth_duration_MTurk/v2_DepthDuration_HTML.html#353,353,1821,833,1366,768,8-29-2022,6-41-28,82,depth_duration_stimuli/001164_2014-06-17_15-35-46_260595134347_rgbf000085-resize_3/001164_2014-06-17_15-35-46_260595134347_rgbf000085-resize_3-target.png,125,2.354,3.0,3720,125,feet,jsons/VE125_randls_51_rotated.json,1333211,1758920,59,Woman
82,697712,DepthScenes,duration_manipulation_targetAtFixation,jsons/VE125_randls_51_rotated.json,http://54.235.29.9/FacialAge/BNav_EC2/DepthDuration/v2_depth_duration_MTurk/v2_DepthDuration_HTML.html#353,353,1821,833,1366,768,8-29-2022,6-41-28,83,depth_duration_stimuli/002758_2014-06-22_19-11-20_094959634447_rgbf000128-resize_1/002758_2014-06-22_19-11-20_094959634447_rgbf000128-resize_1-target.png,125,2.555,2.0,10164,124,feet,jsons/VE125_randls_51_rotated.json,1333211,1758920,59,Woman
83,697712,DepthScenes,duration_manipulation_targetAtFixation,jsons/VE125_randls_51_rotated.json,http://54.235.29.9/FacialAge/BNav_EC2/DepthDuration/v2_depth_duration_MTurk/v2_DepthDuration_HTML.html#353,353,1821,833,1366,768,8-29-2022,6-41-28,84,depth_duration_stimuli/002630_2014-06-24_14-47-50_094959634447_rgbf000055-resize_1/002630_2014-06-24_14-47-50_094959634447_rgbf000055-resize_1-target.png,125,3.0095,3.0,3939,122,feet,jsons/VE125_randls_51_rotated.json,1333211,1758920,59,Woman
84,697712,DepthScenes,duration_manipulation_targetAtFixation,jsons/VE125_randls_51_rotated.json,http://54.235.29.9/FacialAge/BNav_EC2/DepthDuration/v2_depth_duration_MTurk/v2_DepthDuration_HTML.html#353,353,1821,833,1366,768,8-29-2022,6-41-28,85,depth_duration_stimuli/001447_2014-06-19_17-00-32_260595134347_rgbf000082-resize_5/001447_2014-06-19_17-00-32_260595134347_rgbf000082-resize_5-target.png,125,4.13775,2.7,8683,125,feet,jsons/VE125_randls_51_rotated.json,1333211,1758920,59,Woman
85,697712,DepthScenes,duration_manipulation_targetAtFixation,jsons/VE125_randls_51_rotated.json,http://54.235.29.9/FacialAge/BNav_EC2/DepthDuration/v2_depth_duration_MTurk/v2_DepthDuration_HTML.html#353,353,1821,833,1366,768,8-29-2022,6-41-28,86,depth_duration_stimuli/000447_2014-06-08_16-15-46_260595134347_rgbf000130-resize_1/000447_2014-06-08_16-15-46_260595134347_rgbf000130-resize_1-target.png,125,4.479,3.5,7217,124,feet,jsons/VE125_randls_51_rotated.json,1333211,1758920,59,Woman
86,697712,DepthScenes,duration_manipulation_targetAtFixation,jsons/VE125_randls_51_rotated.json,http://54.235.29.9/FacialAge/BNav_EC2/DepthDuration/v2_depth_duration_MTurk/v2_DepthDuration_HTML.html#353,353,1821,833,1366,768,8-29-2022,6-41-28,87,depth_duration_stimuli/000109_2014-05-14_23-41-52_260595134347_rgbf000035-resize_9/000109_2014-05-14_23-41-52_260595134347_rgbf000035-resize_9-target.png,125,1.3545,0.0,6995,125,feet,jsons/VE125_randls_51_rotated.json,1333211,1758920,59,Woman
87,697712,DepthScenes,duration_manipulation_targetAtFixation,jsons/VE125_randls_51_rotated.json,http://54.235.29.9/FacialAge/BNav_EC2/DepthDuration/v2_depth_duration_MTurk/v2_DepthDuration_HTML.html#353,353,1821,833,1366,768,8-29-2022,6-41-28,88,depth_duration_stimuli/000470_2014-06-09_19-42-40_260595134347_rgbf000094-resize_1/000470_2014-06-09_19-42-40_260595134347_rgbf000094-resize_1-target.png,125,1.831,1.5,12105,126,feet,jsons/VE125_randls_51_rotated.json,1333211,1758920,59,Woman
88,697712,DepthScenes,duration_manipulation_targetAtFixation,jsons/VE125_randls_51_rotated.json,http://54.235.29.9/FacialAge/BNav_EC2/DepthDuration/v2_depth_duration_MTurk/v2_DepthDuration_HTML.html#353,353,1821,833,1366,768,8-29-2022,6-41-28,89,depth_duration_stimuli/003081_2014-06-15_15-19-16_094959634447_rgbf000150-resize_1/003081_2014-06-15_15-19-16_094959634447_rgbf000150-resize_1-target.png,125,3.9125,2.5,8159,125,feet,jsons/VE125_randls_51_rotated.json,1333211,1758920,59,Woman
89,697712,DepthScenes,duration_manipulation_targetAtFixation,jsons/VE125_randls_51_rotated.json,http://54.235.29.9/FacialAge/BNav_EC2/DepthDuration/v2_depth_duration_MTurk/v2_DepthDuration_HTML.html#353,353,1821,833,1366,768,8-29-2022,6-41-28,90,depth_duration_stimuli/001417_2014-06-19_16-25-36_260595134347_rgbf000115-resize_5/001417_2014-06-19_16-25-36_260595134347_rgbf000115-resize_5-target.png,125,4.6255,0.0,4401,120,feet,jsons/VE125_randls_51_rotated.json,1333211,1758920,59,Woman
90,697712,DepthScenes,duration_manipulation_targetAtFixation,jsons/VE125_randls_51_rotated.json,http://54.235.29.9/FacialAge/BNav_EC2/DepthDuration/v2_depth_duration_MTurk/v2_DepthDuration_HTML.html#353,353,1821,833,1366,768,8-29-2022,6-41-28,91,depth_duration_stimuli/001094_2014-06-15_17-36-00_260595134347_rgbf000205-resize_0/001094_2014-06-15_17-36-00_260595134347_rgbf000205-resize_0-target.png,125,4.2175,2.0,8356,125,feet,jsons/VE125_randls_51_rotated.json,1333211,1758920,59,Woman
91,697712,DepthScenes,duration_manipulation_targetAtFixation,jsons/VE125_randls_51_rotated.json,http://54.235.29.9/FacialAge/BNav_EC2/DepthDuration/v2_depth_duration_MTurk/v2_DepthDuration_HTML.html#353,353,1821,833,1366,768,8-29-2022,6-41-28,92,depth_duration_stimuli/000692_2014-06-08_13-09-42_260595134347_rgbf000199-resize_2/000692_2014-06-08_13-09-42_260595134347_rgbf000199-resize_2-target.png,125,3.661,3.0,5279,124,feet,jsons/VE125_randls_51_rotated.json,1333211,1758920,59,Woman
92,697712,DepthScenes,duration_manipulation_targetAtFixation,jsons/VE125_randls_51_rotated.json,http://54.235.29.9/FacialAge/BNav_EC2/DepthDuration/v2_depth_duration_MTurk/v2_DepthDuration_HTML.html#353,353,1821,833,1366,768,8-29-2022,6-41-28,93,depth_duration_stimuli/002639_2014-06-24_14-51-37_094959634447_rgbf000074-resize_4/002639_2014-06-24_14-51-37_094959634447_rgbf000074-resize_4-target.png,125,4.0375,2.5,4031,125,feet,jsons/VE125_randls_51_rotated.json,1333211,1758920,59,Woman
93,697712,DepthScenes,duration_manipulation_targetAtFixation,jsons/VE125_randls_51_rotated.json,http://54.235.29.9/FacialAge/BNav_EC2/DepthDuration/v2_depth_duration_MTurk/v2_DepthDuration_HTML.html#353,353,1821,833,1366,768,8-29-2022,6-41-28,94,depth_duration_stimuli/003292_2014-05-14_21-53-49_094959634447_rgbf000100-resize_2/003292_2014-05-14_21-53-49_094959634447_rgbf000100-resize_2-target.png,125,3.4815,0.0,3771,124,feet,jsons/VE125_randls_51_rotated.json,1333211,1758920,59,Woman
94,697712,DepthScenes,duration_manipulation_targetAtFixation,jsons/VE125_randls_51_rotated.json,http://54.235.29.9/FacialAge/BNav_EC2/DepthDuration/v2_depth_duration_MTurk/v2_DepthDuration_HTML.html#353,353,1821,833,1366,768,8-29-2022,6-41-28,95,depth_duration_stimuli/000927_2014-06-09_16-32-30_260595134347_rgbf000123-resize_3/000927_2014-06-09_16-32-30_260595134347_rgbf000123-resize_3-target.png,125,2.6785,3.0,3820,124,feet,jsons/VE125_randls_51_rotated.json,1333211,1758920,59,Woman
95,697712,DepthScenes,duration_manipulation_targetAtFixation,jsons/VE125_randls_51_rotated.json,http://54.235.29.9/FacialAge/BNav_EC2/DepthDuration/v2_depth_duration_MTurk/v2_DepthDuration_HTML.html#353,353,1821,833,1366,768,8-29-2022,6-41-28,96,depth_duration_stimuli/001110_2014-06-15_17-25-28_260595134347_rgbf000150-resize_1/001110_2014-06-15_17-25-28_260595134347_rgbf000150-resize_1-target.png,125,1.7115,2.0,3700,126,feet,jsons/VE125_randls_51_rotated.json,1333211,1758920,59,Woman
96,697712,DepthScenes,duration_manipulation_targetAtFixation,jsons/VE125_randls_51_rotated.json,http://54.235.29.9/FacialAge/BNav_EC2/DepthDuration/v2_depth_duration_MTurk/v2_DepthDuration_HTML.html#353,353,1821,833,1366,768,8-29-2022,6-41-28,97,depth_duration_stimuli/000549_2014-06-08_22-10-24_260595134347_rgbf000247-resize_3/000549_2014-06-08_22-10-24_260595134347_rgbf000247-resize_3-target.png,125,1.841,1.0,6124,125,feet,jsons/VE125_randls_51_rotated.json,1333211,1758920,59,Woman
97,697712,DepthScenes,duration_manipulation_targetAtFixation,jsons/VE125_randls_51_rotated.json,http://54.235.29.9/FacialAge/BNav_EC2/DepthDuration/v2_depth_duration_MTurk/v2_DepthDuration_HTML.html#353,353,1821,833,1366,768,8-29-2022,6-41-28,98,depth_duration_stimuli/001055_2014-06-08_18-45-35_260595134347_rgbf000111-resize_4/001055_2014-06-08_18-45-35_260595134347_rgbf000111-resize_4-target.png,125,2.4290000000000003,4.0,6670,125,feet,jsons/VE125_randls_51_rotated.json,1333211,1758920,59,Woman
98,697712,DepthScenes,duration_manipulation_targetAtFixation,jsons/VE125_randls_51_rotated.json,http://54.235.29.9/FacialAge/BNav_EC2/DepthDuration/v2_depth_duration_MTurk/v2_DepthDuration_HTML.html#353,353,1821,833,1366,768,8-29-2022,6-41-28,99,depth_duration_stimuli/001222_2014-06-17_16-24-06_260595134347_rgbf000073-resize_0/001222_2014-06-17_16-24-06_260595134347_rgbf000073-resize-original.jpg,125,1.4385,0.0,3829,124,feet,jsons/VE125_randls_51_rotated.json,1333211,1758920,59,Woman
99,697712,DepthScenes,duration_manipulation_targetAtFixation,jsons/VE125_randls_51_rotated.json,http://54.235.29.9/FacialAge/BNav_EC2/DepthDuration/v2_depth_duration_MTurk/v2_DepthDuration_HTML.html#353,353,1821,833,1366,768,8-29-2022,6-41-28,100,depth_duration_stimuli/002949_2014-06-26_15-57-42_094959634447_rgbf000079-resize_1/002949_2014-06-26_15-57-42_094959634447_rgbf000079-resize_1-target.png,125,1.8915,1.2,10157,125,feet,jsons/VE125_randls_51_rotated.json,1333211,1758920,59,Woman
100,697712,DepthScenes,duration_manipulation_targetAtFixation,jsons/VE125_randls_51_rotated.json,http://54.235.29.9/FacialAge/BNav_EC2/DepthDuration/v2_depth_duration_MTurk/v2_DepthDuration_HTML.html#353,353,1821,833,1366,768,8-29-2022,6-41-28,101,depth_duration_stimuli/000522_2014-06-08_13-35-06_260595134347_rgbf000244-resize_1/000522_2014-06-08_13-35-06_260595134347_rgbf000244-resize_1-target.png,125,2.3715,2.0,5096,120,feet,jsons/VE125_randls_51_rotated.json,1333211,1758920,59,Woman
101,697712,DepthScenes,duration_manipulation_targetAtFixation,jsons/VE125_randls_51_rotated.json,http://54.235.29.9/FacialAge/BNav_EC2/DepthDuration/v2_depth_duration_MTurk/v2_DepthDuration_HTML.html#353,353,1821,833,1366,768,8-29-2022,6-41-28,102,depth_duration_stimuli/000854_2014-06-09_19-43-13_260595134347_rgbf000066-resize_0/000854_2014-06-09_19-43-13_260595134347_rgbf000066-resize_0-target.png,125,3.068,1.2,4979,124,feet,jsons/VE125_randls_51_rotated.json,1333211,1758920,59,Woman
102,697712,DepthScenes,duration_manipulation_targetAtFixation,jsons/VE125_randls_51_rotated.json,http://54.235.29.9/FacialAge/BNav_EC2/DepthDuration/v2_depth_duration_MTurk/v2_DepthDuration_HTML.html#353,353,1821,833,1366,768,8-29-2022,6-41-28,103,depth_duration_stimuli/000758_2014-06-08_22-05-08_260595134347_rgbf000085-resize_0/000758_2014-06-08_22-05-08_260595134347_rgbf000085-resize_0-target.png,125,3.3810000000000002,3.0,3602,126,feet,jsons/VE125_randls_51_rotated.json,1333211,1758920,59,Woman
103,697712,DepthScenes,duration_manipulation_targetAtFixation,jsons/VE125_randls_51_rotated.json,http://54.235.29.9/FacialAge/BNav_EC2/DepthDuration/v2_depth_duration_MTurk/v2_DepthDuration_HTML.html#353,353,1821,833,1366,768,8-29-2022,6-41-28,104,depth_duration_stimuli/000457_2014-06-08_16-52-43_260595134347_rgbf000199-resize_1/000457_2014-06-08_16-52-43_260595134347_rgbf000199-resize_1-target.png,125,3.6489999999999996,3.5,5138,113,feet,jsons/VE125_randls_51_rotated.json,1333211,1758920,59,Woman
104,697712,DepthScenes,duration_manipulation_targetAtFixation,jsons/VE125_randls_51_rotated.json,http://54.235.29.9/FacialAge/BNav_EC2/DepthDuration/v2_depth_duration_MTurk/v2_DepthDuration_HTML.html#353,353,1821,833,1366,768,8-29-2022,6-41-28,105,depth_duration_stimuli/000929_2014-06-09_16-33-19_260595134347_rgbf000139-resize_0/000929_2014-06-09_16-33-19_260595134347_rgbf000139-resize_0-target.png,125,2.8680000000000003,1.5,5946,124,feet,jsons/VE125_randls_51_rotated.json,1333211,1758920,59,Woman
105,697712,DepthScenes,duration_manipulation_targetAtFixation,jsons/VE125_randls_51_rotated.json,http://54.235.29.9/FacialAge/BNav_EC2/DepthDuration/v2_depth_duration_MTurk/v2_DepthDuration_HTML.html#353,353,1821,833,1366,768,8-29-2022,6-41-28,106,depth_duration_stimuli/002199_2014-06-28_18-33-56_260595134347_rgbf000074-resize_0/002199_2014-06-28_18-33-56_260595134347_rgbf000074-resize_0-target.png,125,1.996,1.5,15070,134,feet,jsons/VE125_randls_51_rotated.json,1333211,1758920,59,Woman
106,697712,DepthScenes,duration_manipulation_targetAtFixation,jsons/VE125_randls_51_rotated.json,http://54.235.29.9/FacialAge/BNav_EC2/DepthDuration/v2_depth_duration_MTurk/v2_DepthDuration_HTML.html#353,353,1821,833,1366,768,8-29-2022,6-41-28,107,depth_duration_stimuli/001056_2014-06-08_18-46-44_260595134347_rgbf000068-resize_0/001056_2014-06-08_18-46-44_260595134347_rgbf000068-resize_0-target.png,125,2.6625,0.0,5314,124,feet,jsons/VE125_randls_51_rotated.json,1333211,1758920,59,Woman
107,697712,DepthScenes,duration_manipulation_targetAtFixation,jsons/VE125_randls_51_rotated.json,http://54.235.29.9/FacialAge/BNav_EC2/DepthDuration/v2_depth_duration_MTurk/v2_DepthDuration_HTML.html#353,353,1821,833,1366,768,8-29-2022,6-41-28,108,depth_duration_stimuli/002323_2014-06-28_20-01-54_260595134347_rgbf000051-resize_4/002323_2014-06-28_20-01-54_260595134347_rgbf000051-resize_4-target.png,125,3.7310000000000003,2.5,13238,125,feet,jsons/VE125_randls_51_rotated.json,1333211,1758920,59,Woman
108,697712,DepthScenes,duration_manipulation_targetAtFixation,jsons/VE125_randls_51_rotated.json,http://54.235.29.9/FacialAge/BNav_EC2/DepthDuration/v2_depth_duration_MTurk/v2_DepthDuration_HTML.html#353,353,1821,833,1366,768,8-29-2022,6-41-28,109,depth_duration_stimuli/000917_2014-06-09_22-45-29_260595134347_rgbf000149-resize_3/000917_2014-06-09_22-45-29_260595134347_rgbf000149-resize_3-target.png,125,4.1865,3.0,3934,126,feet,jsons/VE125_randls_51_rotated.json,1333211,1758920,59,Woman
109,697712,DepthScenes,duration_manipulation_targetAtFixation,jsons/VE125_randls_51_rotated.json,http://54.235.29.9/FacialAge/BNav_EC2/DepthDuration/v2_depth_duration_MTurk/v2_DepthDuration_HTML.html#353,353,1821,833,1366,768,8-29-2022,6-41-28,110,depth_duration_stimuli/002136_2014-06-25_21-18-03_260595134347_rgbf000109-resize_3/002136_2014-06-25_21-18-03_260595134347_rgbf000109-resize_3-target.png,125,1.9569999999999999,2.0,3796,125,feet,jsons/VE125_randls_51_rotated.json,1333211,1758920,59,Woman
110,697712,DepthScenes,duration_manipulation_targetAtFixation,jsons/VE125_randls_51_rotated.json,http://54.235.29.9/FacialAge/BNav_EC2/DepthDuration/v2_depth_duration_MTurk/v2_DepthDuration_HTML.html#353,353,1821,833,1366,768,8-29-2022,6-41-28,111,depth_duration_stimuli/002964_2014-06-08_17-46-11_094959634447_rgbf000091-resize_4/002964_2014-06-08_17-46-11_094959634447_rgbf000091-resize_4-target.png,125,1.6909999999999998,1.0,3850,125,feet,jsons/VE125_randls_51_rotated.json,1333211,1758920,59,Woman
111,697712,DepthScenes,duration_manipulation_targetAtFixation,jsons/VE125_randls_51_rotated.json,http://54.235.29.9/FacialAge/BNav_EC2/DepthDuration/v2_depth_duration_MTurk/v2_DepthDuration_HTML.html#353,353,1821,833,1366,768,8-29-2022,6-41-28,112,depth_duration_stimuli/001617_2014-06-20_11-35-32_260595134347_rgbf000066-resize_1/001617_2014-06-20_11-35-32_260595134347_rgbf000066-resize_1-target.png,125,3.7910000000000004,2.0,12120,118,feet,jsons/VE125_randls_51_rotated.json,1333211,1758920,59,Woman
112,697712,DepthScenes,duration_manipulation_targetAtFixation,jsons/VE125_randls_51_rotated.json,http://54.235.29.9/FacialAge/BNav_EC2/DepthDuration/v2_depth_duration_MTurk/v2_DepthDuration_HTML.html#353,353,1821,833,1366,768,8-29-2022,6-41-28,113,depth_duration_stimuli/001806_2014-06-26_20-50-20_260595134347_rgbf000091-resize_1/001806_2014-06-26_20-50-20_260595134347_rgbf000091-resize_1-target.png,125,2.7305,1.5,5723,120,feet,jsons/VE125_randls_51_rotated.json,1333211,1758920,59,Woman
113,697712,DepthScenes,duration_manipulation_targetAtFixation,jsons/VE125_randls_51_rotated.json,http://54.235.29.9/FacialAge/BNav_EC2/DepthDuration/v2_depth_duration_MTurk/v2_DepthDuration_HTML.html#353,353,1821,833,1366,768,8-29-2022,6-41-28,114,depth_duration_stimuli/000691_2014-06-08_13-08-50_260595134347_rgbf000132-resize_3/000691_2014-06-08_13-08-50_260595134347_rgbf000132-resize_3-target.png,125,4.1530000000000005,2.0,15860,124,feet,jsons/VE125_randls_51_rotated.json,1333211,1758920,59,Woman
114,697712,DepthScenes,duration_manipulation_targetAtFixation,jsons/VE125_randls_51_rotated.json,http://54.235.29.9/FacialAge/BNav_EC2/DepthDuration/v2_depth_duration_MTurk/v2_DepthDuration_HTML.html#353,353,1821,833,1366,768,8-29-2022,6-41-28,115,depth_duration_stimuli/002213_2014-06-28_18-37-58_260595134347_rgbf000055-resize_1/002213_2014-06-28_18-37-58_260595134347_rgbf000055-resize_1-target.png,125,3.62,5.0,5159,108,feet,jsons/VE125_randls_51_rotated.json,1333211,1758920,59,Woman
115,697712,DepthScenes,duration_manipulation_targetAtFixation,jsons/VE125_randls_51_rotated.json,http://54.235.29.9/FacialAge/BNav_EC2/DepthDuration/v2_depth_duration_MTurk/v2_DepthDuration_HTML.html#353,353,1821,833,1366,768,8-29-2022,6-41-28,116,depth_duration_stimuli/002568_2014-06-24_13-59-21_094959634447_rgbf000062-resize_4/002568_2014-06-24_13-59-21_094959634447_rgbf000062-resize_4-target.png,125,3.015,2.0,17480,127,feet,jsons/VE125_randls_51_rotated.json,1333211,1758920,59,Woman
116,697712,DepthScenes,duration_manipulation_targetAtFixation,jsons/VE125_randls_51_rotated.json,http://54.235.29.9/FacialAge/BNav_EC2/DepthDuration/v2_depth_duration_MTurk/v2_DepthDuration_HTML.html#353,353,1821,833,1366,768,8-29-2022,6-41-28,117,depth_duration_stimuli/003492_2014-05-21_15-50-55_094959634447_rgbf000828-resize_1/003492_2014-05-21_15-50-55_094959634447_rgbf000828-resize_1-target.png,125,4.06875,2.5,6620,124,feet,jsons/VE125_randls_51_rotated.json,1333211,1758920,59,Woman
117,697712,DepthScenes,duration_manipulation_targetAtFixation,jsons/VE125_randls_51_rotated.json,http://54.235.29.9/FacialAge/BNav_EC2/DepthDuration/v2_depth_duration_MTurk/v2_DepthDuration_HTML.html#353,353,1821,833,1366,768,8-29-2022,6-41-28,118,depth_duration_stimuli/003495_2014-05-21_16-01-51_094959634447_rgbf000100-resize_3/003495_2014-05-21_16-01-51_094959634447_rgbf000100-resize_3-target.png,125,1.6255,1.2,13413,124,feet,jsons/VE125_randls_51_rotated.json,1333211,1758920,59,Woman
118,697712,DepthScenes,duration_manipulation_targetAtFixation,jsons/VE125_randls_51_rotated.json,http://54.235.29.9/FacialAge/BNav_EC2/DepthDuration/v2_depth_duration_MTurk/v2_DepthDuration_HTML.html#353,353,1821,833,1366,768,8-29-2022,6-41-28,119,depth_duration_stimuli/001244_2014-06-17_16-47-45_260595134347_rgbf000030-resize_4/001244_2014-06-17_16-47-45_260595134347_rgbf000030-resize_4-target.png,125,2.0425,2.0,10191,122,feet,jsons/VE125_randls_51_rotated.json,1333211,1758920,59,Woman
119,697712,DepthScenes,duration_manipulation_targetAtFixation,jsons/VE125_randls_51_rotated.json,http://54.235.29.9/FacialAge/BNav_EC2/DepthDuration/v2_depth_duration_MTurk/v2_DepthDuration_HTML.html#353,353,1821,833,1366,768,8-29-2022,6-41-28,120,depth_duration_stimuli/000787_2014-06-08_22-33-53_260595134347_rgbf000175-resize_1/000787_2014-06-08_22-33-53_260595134347_rgbf000175-resize-original.jpg,125,4.784,0.0,5050,126,feet,jsons/VE125_randls_51_rotated.json,1333211,1758920,59,Woman
120,697712,DepthScenes,duration_manipulation_targetAtFixation,jsons/VE125_randls_51_rotated.json,http://54.235.29.9/FacialAge/BNav_EC2/DepthDuration/v2_depth_duration_MTurk/v2_DepthDuration_HTML.html#353,353,1821,833,1366,768,8-29-2022,6-41-28,121,depth_duration_stimuli/001516_2014-06-20_16-25-09_260595134347_rgbf000076-resize_2/001516_2014-06-20_16-25-09_260595134347_rgbf000076-resize_2-target.png,125,1.7445,2.5,10777,129,feet,jsons/VE125_randls_51_rotated.json,1333211,1758920,59,Woman
121,697712,DepthScenes,duration_manipulation_targetAtFixation,jsons/VE125_randls_51_rotated.json,http://54.235.29.9/FacialAge/BNav_EC2/DepthDuration/v2_depth_duration_MTurk/v2_DepthDuration_HTML.html#353,353,1821,833,1366,768,8-29-2022,6-41-28,122,depth_duration_stimuli/002118_2014-06-25_20-32-08_260595134347_rgbf000078-resize_1/002118_2014-06-25_20-32-08_260595134347_rgbf000078-resize_1-target.png,125,2.6460000000000004,1.2,4147,125,feet,jsons/VE125_randls_51_rotated.json,1333211,1758920,59,Woman
122,697712,DepthScenes,duration_manipulation_targetAtFixation,jsons/VE125_randls_51_rotated.json,http://54.235.29.9/FacialAge/BNav_EC2/DepthDuration/v2_depth_duration_MTurk/v2_DepthDuration_HTML.html#353,353,1821,833,1366,768,8-29-2022,6-41-28,123,depth_duration_stimuli/000137_2014-05-20_17-04-49_260595134347_rgbf000120-resize_1/000137_2014-05-20_17-04-49_260595134347_rgbf000120-resize_1-target.png,125,3.786,3.0,12449,126,feet,jsons/VE125_randls_51_rotated.json,1333211,1758920,59,Woman
123,697712,DepthScenes,duration_manipulation_targetAtFixation,jsons/VE125_randls_51_rotated.json,http://54.235.29.9/FacialAge/BNav_EC2/DepthDuration/v2_depth_duration_MTurk/v2_DepthDuration_HTML.html#353,353,1821,833,1366,768,8-29-2022,6-41-28,124,depth_duration_stimuli/000736_2014-06-08_18-24-15_260595134347_rgbf000206-resize_3/000736_2014-06-08_18-24-15_260595134347_rgbf000206-resize_3-target.png,125,3.515,1.2,6890,124,feet,jsons/VE125_randls_51_rotated.json,1333211,1758920,59,Woman
124,697712,DepthScenes,duration_manipulation_targetAtFixation,jsons/VE125_randls_51_rotated.json,http://54.235.29.9/FacialAge/BNav_EC2/DepthDuration/v2_depth_duration_MTurk/v2_DepthDuration_HTML.html#353,353,1821,833,1366,768,8-29-2022,6-41-28,125,depth_duration_stimuli/001828_2014-06-26_21-40-03_260595134347_rgbf000024-resize_0/001828_2014-06-26_21-40-03_260595134347_rgbf000024-resize_0-target.png,125,4.8260000000000005,3.0,12725,126,feet,jsons/VE125_randls_51_rotated.json,1333211,1758920,59,Woman
125,697712,DepthScenes,duration_manipulation_targetAtFixation,jsons/VE125_randls_51_rotated.json,http://54.235.29.9/FacialAge/BNav_EC2/DepthDuration/v2_depth_duration_MTurk/v2_DepthDuration_HTML.html#353,353,1821,833,1366,768,8-29-2022,6-41-28,126,depth_duration_stimuli/000009_2014-05-26_14-32-05_260595134347_rgbf000034-resize_3/000009_2014-05-26_14-32-05_260595134347_rgbf000034-resize_3-target.png,125,3.8715,3.2,5468,124,feet,jsons/VE125_randls_51_rotated.json,1333211,1758920,59,Woman
126,697712,DepthScenes,duration_manipulation_targetAtFixation,jsons/VE125_randls_51_rotated.json,http://54.235.29.9/FacialAge/BNav_EC2/DepthDuration/v2_depth_duration_MTurk/v2_DepthDuration_HTML.html#353,353,1821,833,1366,768,8-29-2022,6-41-28,127,depth_duration_stimuli/000677_2014-06-08_23-10-32_260595134347_rgbf000158-resize_6/000677_2014-06-08_23-10-32_260595134347_rgbf000158-resize_6-target.png,125,3.556,2.5,12885,111,feet,jsons/VE125_randls_51_rotated.json,1333211,1758920,59,Woman
127,697712,DepthScenes,duration_manipulation_targetAtFixation,jsons/VE125_randls_51_rotated.json,http://54.235.29.9/FacialAge/BNav_EC2/DepthDuration/v2_depth_duration_MTurk/v2_DepthDuration_HTML.html#353,353,1821,833,1366,768,8-29-2022,6-41-28,128,depth_duration_stimuli/001029_2014-06-08_13-17-57_260595134347_rgbf000065-resize_1/001029_2014-06-08_13-17-57_260595134347_rgbf000065-resize_1-target.png,125,3.0835,3.0,5060,125,feet,jsons/VE125_randls_51_rotated.json,1333211,1758920,59,Woman
128,697712,DepthScenes,duration_manipulation_targetAtFixation,jsons/VE125_randls_51_rotated.json,http://54.235.29.9/FacialAge/BNav_EC2/DepthDuration/v2_depth_duration_MTurk/v2_DepthDuration_HTML.html#353,353,1821,833,1366,768,8-29-2022,6-41-28,129,depth_duration_stimuli/002875_2014-06-01_15-19-00_094959634447_rgbf000151-resize_1/002875_2014-06-01_15-19-00_094959634447_rgbf000151-resize_1-target.png,125,1.9675,3.0,3940,125,feet,jsons/VE125_randls_51_rotated.json,1333211,1758920,59,Woman
129,697712,DepthScenes,duration_manipulation_targetAtFixation,jsons/VE125_randls_51_rotated.json,http://54.235.29.9/FacialAge/BNav_EC2/DepthDuration/v2_depth_duration_MTurk/v2_DepthDuration_HTML.html#353,353,1821,833,1366,768,8-29-2022,6-41-28,130,depth_duration_stimuli/001011_2014-06-08_23-18-54_260595134347_rgbf000044-resize_4/001011_2014-06-08_23-18-54_260595134347_rgbf000044-resize_4-target.png,125,2.4730000000000003,3.0,11835,126,feet,jsons/VE125_randls_51_rotated.json,1333211,1758920,59,Woman
130,697712,DepthScenes,duration_manipulation_targetAtFixation,jsons/VE125_randls_51_rotated.json,http://54.235.29.9/FacialAge/BNav_EC2/DepthDuration/v2_depth_duration_MTurk/v2_DepthDuration_HTML.html#353,353,1821,833,1366,768,8-29-2022,6-41-28,131,depth_duration_stimuli/003079_2014-06-15_15-18-20_094959634447_rgbf000152-resize_8/003079_2014-06-15_15-18-20_094959634447_rgbf000152-resize_8-target.png,125,2.8775,5.2,13067,124,feet,jsons/VE125_randls_51_rotated.json,1333211,1758920,59,Woman
131,697712,DepthScenes,duration_manipulation_targetAtFixation,jsons/VE125_randls_51_rotated.json,http://54.235.29.9/FacialAge/BNav_EC2/DepthDuration/v2_depth_duration_MTurk/v2_DepthDuration_HTML.html#353,353,1821,833,1366,768,8-29-2022,6-41-28,132,depth_duration_stimuli/000506_2014-06-08_23-21-00_260595134347_rgbf000070-resize_7/000506_2014-06-08_23-21-00_260595134347_rgbf000070-resize_7-target.png,125,4.0585,3.0,4963,123,feet,jsons/VE125_randls_51_rotated.json,1333211,1758920,59,Woman
132,697712,DepthScenes,duration_manipulation_targetAtFixation,jsons/VE125_randls_51_rotated.json,http://54.235.29.9/FacialAge/BNav_EC2/DepthDuration/v2_depth_duration_MTurk/v2_DepthDuration_HTML.html#353,353,1821,833,1366,768,8-29-2022,6-41-28,133,depth_duration_stimuli/002414_2014-06-28_20-24-58_260595134347_rgbf000067-resize_4/002414_2014-06-28_20-24-58_260595134347_rgbf000067-resize_4-target.png,125,4.363,2.0,9848,125,feet,jsons/VE125_randls_51_rotated.json,1333211,1758920,59,Woman
133,697712,DepthScenes,duration_manipulation_targetAtFixation,jsons/VE125_randls_51_rotated.json,http://54.235.29.9/FacialAge/BNav_EC2/DepthDuration/v2_depth_duration_MTurk/v2_DepthDuration_HTML.html#353,353,1821,833,1366,768,8-29-2022,6-41-28,134,depth_duration_stimuli/000773_2014-06-08_22-24-54_260595134347_rgbf000093-resize_1/000773_2014-06-08_22-24-54_260595134347_rgbf000093-resize_1-target.png,125,4.973,2.0,4127,125,feet,jsons/VE125_randls_51_rotated.json,1333211,1758920,59,Woman
134,697712,DepthScenes,duration_manipulation_targetAtFixation,jsons/VE125_randls_51_rotated.json,http://54.235.29.9/FacialAge/BNav_EC2/DepthDuration/v2_depth_duration_MTurk/v2_DepthDuration_HTML.html#353,353,1821,833,1366,768,8-29-2022,6-41-28,135,depth_duration_stimuli/000375_2014-06-08_11-17-29_260595134347_rgbf000133-resize_2/000375_2014-06-08_11-17-29_260595134347_rgbf000133-resize-original.jpg,125,4.718,0.0,3876,126,feet,jsons/VE125_randls_51_rotated.json,1333211,1758920,59,Woman
135,697712,DepthScenes,duration_manipulation_targetAtFixation,jsons/VE125_randls_51_rotated.json,http://54.235.29.9/FacialAge/BNav_EC2/DepthDuration/v2_depth_duration_MTurk/v2_DepthDuration_HTML.html#353,353,1821,833,1366,768,8-29-2022,6-41-28,136,depth_duration_stimuli/002657_2014-06-13_15-29-54_094959634447_rgbf000150-resize_1/002657_2014-06-13_15-29-54_094959634447_rgbf000150-resize_1-target.png,125,4.919,1.5,10902,124,feet,jsons/VE125_randls_51_rotated.json,1333211,1758920,59,Woman
136,697712,DepthScenes,duration_manipulation_targetAtFixation,jsons/VE125_randls_51_rotated.json,http://54.235.29.9/FacialAge/BNav_EC2/DepthDuration/v2_depth_duration_MTurk/v2_DepthDuration_HTML.html#353,353,1821,833,1366,768,8-29-2022,6-41-28,137,depth_duration_stimuli/002375_2014-06-28_20-13-44_260595134347_rgbf000032-resize_1/002375_2014-06-28_20-13-44_260595134347_rgbf000032-resize_1-target.png,125,4.0175,2.0,9740,124,feet,jsons/VE125_randls_51_rotated.json,1333211,1758920,59,Woman
137,697712,DepthScenes,duration_manipulation_targetAtFixation,jsons/VE125_randls_51_rotated.json,http://54.235.29.9/FacialAge/BNav_EC2/DepthDuration/v2_depth_duration_MTurk/v2_DepthDuration_HTML.html#353,353,1821,833,1366,768,8-29-2022,6-41-28,138,depth_duration_stimuli/001052_2014-06-08_18-24-54_260595134347_rgbf000130-resize_1/001052_2014-06-08_18-24-54_260595134347_rgbf000130-resize_1-target.png,125,4.1045,4.8,12560,115,feet,jsons/VE125_randls_51_rotated.json,1333211,1758920,59,Woman
138,697712,DepthScenes,duration_manipulation_targetAtFixation,jsons/VE125_randls_51_rotated.json,http://54.235.29.9/FacialAge/BNav_EC2/DepthDuration/v2_depth_duration_MTurk/v2_DepthDuration_HTML.html#353,353,1821,833,1366,768,8-29-2022,6-41-28,139,depth_duration_stimuli/002988_2014-06-15_12-24-20_094959634447_rgbf000150-resize_1/002988_2014-06-15_12-24-20_094959634447_rgbf000150-resize_1-target.png,125,4.7669999999999995,5.0,4162,131,feet,jsons/VE125_randls_51_rotated.json,1333211,1758920,59,Woman
139,697712,DepthScenes,duration_manipulation_targetAtFixation,jsons/VE125_randls_51_rotated.json,http://54.235.29.9/FacialAge/BNav_EC2/DepthDuration/v2_depth_duration_MTurk/v2_DepthDuration_HTML.html#353,353,1821,833,1366,768,8-29-2022,6-41-28,140,depth_duration_stimuli/002678_2014-06-13_16-15-32_094959634447_rgbf000151-resize_6/002678_2014-06-13_16-15-32_094959634447_rgbf000151-resize_6-target.png,125,2.1830000000000003,3.5,6024,125,feet,jsons/VE125_randls_51_rotated.json,1333211,1758920,59,Woman
140,697712,DepthScenes,duration_manipulation_targetAtFixation,jsons/VE125_randls_51_rotated.json,http://54.235.29.9/FacialAge/BNav_EC2/DepthDuration/v2_depth_duration_MTurk/v2_DepthDuration_HTML.html#353,353,1821,833,1366,768,8-29-2022,6-41-28,141,depth_duration_stimuli/000368_2014-06-09_15-53-01_260595134347_rgbf000155-resize_2/000368_2014-06-09_15-53-01_260595134347_rgbf000155-resize_2-target.png,125,2.4859999999999998,1.2,5397,120,feet,jsons/VE125_randls_51_rotated.json,1333211,1758920,59,Woman
141,697712,DepthScenes,duration_manipulation_targetAtFixation,jsons/VE125_randls_51_rotated.json,http://54.235.29.9/FacialAge/BNav_EC2/DepthDuration/v2_depth_duration_MTurk/v2_DepthDuration_HTML.html#353,353,1821,833,1366,768,8-29-2022,6-41-28,142,depth_duration_stimuli/001392_2014-06-19_16-07-59_260595134347_rgbf000046-resize_1/001392_2014-06-19_16-07-59_260595134347_rgbf000046-resize_1-target.png,125,4.135,4.5,11976,128,feet,jsons/VE125_randls_51_rotated.json,1333211,1758920,59,Woman
142,697712,DepthScenes,duration_manipulation_targetAtFixation,jsons/VE125_randls_51_rotated.json,http://54.235.29.9/FacialAge/BNav_EC2/DepthDuration/v2_depth_duration_MTurk/v2_DepthDuration_HTML.html#353,353,1821,833,1366,768,8-29-2022,6-41-28,143,depth_duration_stimuli/001570_2014-06-20_17-21-09_260595134347_rgbf000135-resize_4/001570_2014-06-20_17-21-09_260595134347_rgbf000135-resize_4-target.png,125,4.467,3.3,9085,124,feet,jsons/VE125_randls_51_rotated.json,1333211,1758920,59,Woman
143,697712,DepthScenes,duration_manipulation_targetAtFixation,jsons/VE125_randls_51_rotated.json,http://54.235.29.9/FacialAge/BNav_EC2/DepthDuration/v2_depth_duration_MTurk/v2_DepthDuration_HTML.html#353,353,1821,833,1366,768,8-29-2022,6-41-28,144,depth_duration_stimuli/003490_2014-05-21_15-50-11_094959634447_rgbf000101-resize_3/003490_2014-05-21_15-50-11_094959634447_rgbf000101-resize_3-target.png,125,3.6445,1.0,8976,122,feet,jsons/VE125_randls_51_rotated.json,1333211,1758920,59,Woman
144,697712,DepthScenes,duration_manipulation_targetAtFixation,jsons/VE125_randls_51_rotated.json,http://54.235.29.9/FacialAge/BNav_EC2/DepthDuration/v2_depth_duration_MTurk/v2_DepthDuration_HTML.html#353,353,1821,833,1366,768,8-29-2022,6-41-28,145,depth_duration_stimuli/001175_2014-06-17_15-45-55_260595134347_rgbf000129-resize_4/001175_2014-06-17_15-45-55_260595134347_rgbf000129-resize_4-target.png,125,4.255,4.0,4044,125,feet,jsons/VE125_randls_51_rotated.json,1333211,1758920,59,Woman
145,697712,DepthScenes,duration_manipulation_targetAtFixation,jsons/VE125_randls_51_rotated.json,http://54.235.29.9/FacialAge/BNav_EC2/DepthDuration/v2_depth_duration_MTurk/v2_DepthDuration_HTML.html#353,353,1821,833,1366,768,8-29-2022,6-41-28,146,depth_duration_stimuli/000780_2014-06-08_22-28-29_260595134347_rgbf000126-resize_1/000780_2014-06-08_22-28-29_260595134347_rgbf000126-resize_1-target.png,125,3.3825,4.8,15098,125,feet,jsons/VE125_randls_51_rotated.json,1333211,1758920,59,Woman
146,697712,DepthScenes,duration_manipulation_targetAtFixation,jsons/VE125_randls_51_rotated.json,http://54.235.29.9/FacialAge/BNav_EC2/DepthDuration/v2_depth_duration_MTurk/v2_DepthDuration_HTML.html#353,353,1821,833,1366,768,8-29-2022,6-41-28,147,depth_duration_stimuli/002445_2014-06-28_20-32-16_260595134347_rgbf000029-resize_4/002445_2014-06-28_20-32-16_260595134347_rgbf000029-resize_4-target.png,125,2.5315,2.0,9794,125,feet,jsons/VE125_randls_51_rotated.json,1333211,1758920,59,Woman
147,697712,DepthScenes,duration_manipulation_targetAtFixation,jsons/VE125_randls_51_rotated.json,http://54.235.29.9/FacialAge/BNav_EC2/DepthDuration/v2_depth_duration_MTurk/v2_DepthDuration_HTML.html#353,353,1821,833,1366,768,8-29-2022,6-41-28,148,depth_duration_stimuli/002444_2014-06-28_20-32-08_260595134347_rgbf000027-resize_0/002444_2014-06-28_20-32-08_260595134347_rgbf000027-resize_0-target.png,125,4.388999999999999,3.0,10799,125,feet,jsons/VE125_randls_51_rotated.json,1333211,1758920,59,Woman
148,697712,DepthScenes,duration_manipulation_targetAtFixation,jsons/VE125_randls_51_rotated.json,http://54.235.29.9/FacialAge/BNav_EC2/DepthDuration/v2_depth_duration_MTurk/v2_DepthDuration_HTML.html#353,353,1821,833,1366,768,8-29-2022,6-41-28,149,depth_duration_stimuli/000436_2014-06-09_22-25-11_260595134347_rgbf000137-resize_1/000436_2014-06-09_22-25-11_260595134347_rgbf000137-resize_1-target.png,125,4.0705,2.8,6897,126,feet,jsons/VE125_randls_51_rotated.json,1333211,1758920,59,Woman
149,697712,DepthScenes,duration_manipulation_targetAtFixation,jsons/VE125_randls_51_rotated.json,http://54.235.29.9/FacialAge/BNav_EC2/DepthDuration/v2_depth_duration_MTurk/v2_DepthDuration_HTML.html#353,353,1821,833,1366,768,8-29-2022,6-41-28,150,depth_duration_stimuli/002750_2014-06-22_19-08-03_094959634447_rgbf000094-resize_4/002750_2014-06-22_19-08-03_094959634447_rgbf000094-resize_4-target.png,125,2.354,4.0,7870,93,feet,jsons/VE125_randls_51_rotated.json,1333211,1758920,59,Woman
150,697712,DepthScenes,duration_manipulation_targetAtFixation,jsons/VE125_randls_51_rotated.json,http://54.235.29.9/FacialAge/BNav_EC2/DepthDuration/v2_depth_duration_MTurk/v2_DepthDuration_HTML.html#353,353,1821,833,1366,768,8-29-2022,6-41-28,151,depth_duration_stimuli/002549_2014-06-24_13-41-39_094959634447_rgbf000022-resize_3/002549_2014-06-24_13-41-39_094959634447_rgbf000022-resize_3-target.png,125,1.476,0.0,8835,126,feet,jsons/VE125_randls_51_rotated.json,1333211,1758920,59,Woman
151,697712,DepthScenes,duration_manipulation_targetAtFixation,jsons/VE125_randls_51_rotated.json,http://54.235.29.9/FacialAge/BNav_EC2/DepthDuration/v2_depth_duration_MTurk/v2_DepthDuration_HTML.html#353,353,1821,833,1366,768,8-29-2022,6-41-28,152,depth_duration_stimuli/000569_2014-06-09_22-51-47_260595134347_rgbf000141-resize_3/000569_2014-06-09_22-51-47_260595134347_rgbf000141-resize-original.jpg,125,4.512,0.0,4051,126,feet,jsons/VE125_randls_51_rotated.json,1333211,1758920,59,Woman
152,697712,DepthScenes,duration_manipulation_targetAtFixation,jsons/VE125_randls_51_rotated.json,http://54.235.29.9/FacialAge/BNav_EC2/DepthDuration/v2_depth_duration_MTurk/v2_DepthDuration_HTML.html#353,353,1821,833,1366,768,8-29-2022,6-41-28,153,depth_duration_stimuli/002805_2014-06-22_19-54-03_094959634447_rgbf000079-resize_1/002805_2014-06-22_19-54-03_094959634447_rgbf000079-resize_1-target.png,125,3.1439999999999997,3.0,11352,124,feet,jsons/VE125_randls_51_rotated.json,1333211,1758920,59,Woman
153,697712,DepthScenes,duration_manipulation_targetAtFixation,jsons/VE125_randls_51_rotated.json,http://54.235.29.9/FacialAge/BNav_EC2/DepthDuration/v2_depth_duration_MTurk/v2_DepthDuration_HTML.html#353,353,1821,833,1366,768,8-29-2022,6-41-28,154,depth_duration_stimuli/000906_2014-06-08_13-35-43_260595134347_rgbf000155-resize_1/000906_2014-06-08_13-35-43_260595134347_rgbf000155-resize_1-target.png,125,2.8489999999999998,3.2,4380,124,feet,jsons/VE125_randls_51_rotated.json,1333211,1758920,59,Woman
154,697712,DepthScenes,duration_manipulation_targetAtFixation,jsons/VE125_randls_51_rotated.json,http://54.235.29.9/FacialAge/BNav_EC2/DepthDuration/v2_depth_duration_MTurk/v2_DepthDuration_HTML.html#353,353,1821,833,1366,768,8-29-2022,6-41-28,155,depth_duration_stimuli/001132_2014-06-17_14-48-54_260595134347_rgbf000100-resize_2/001132_2014-06-17_14-48-54_260595134347_rgbf000100-resize_2-target.png,125,3.753,2.5,12732,113,feet,jsons/VE125_randls_51_rotated.json,1333211,1758920,59,Woman
155,697712,DepthScenes,duration_manipulation_targetAtFixation,jsons/VE125_randls_51_rotated.json,http://54.235.29.9/FacialAge/BNav_EC2/DepthDuration/v2_depth_duration_MTurk/v2_DepthDuration_HTML.html#353,353,1821,833,1366,768,8-29-2022,6-41-28,156,depth_duration_stimuli/001133_2014-06-17_14-49-16_260595134347_rgbf000100-resize_0/001133_2014-06-17_14-49-16_260595134347_rgbf000100-resize_0-target.png,125,4.2115,1.5,7263,119,feet,jsons/VE125_randls_51_rotated.json,1333211,1758920,59,Woman
156,697712,DepthScenes,duration_manipulation_targetAtFixation,jsons/VE125_randls_51_rotated.json,http://54.235.29.9/FacialAge/BNav_EC2/DepthDuration/v2_depth_duration_MTurk/v2_DepthDuration_HTML.html#353,353,1821,833,1366,768,8-29-2022,6-41-28,157,depth_duration_stimuli/003083_2014-06-15_15-21-03_094959634447_rgbf000063-resize_1/003083_2014-06-15_15-21-03_094959634447_rgbf000063-resize_1-target.png,125,4.1405,5.4,6074,122,feet,jsons/VE125_randls_51_rotated.json,1333211,1758920,59,Woman
157,697712,DepthScenes,duration_manipulation_targetAtFixation,jsons/VE125_randls_51_rotated.json,http://54.235.29.9/FacialAge/BNav_EC2/DepthDuration/v2_depth_duration_MTurk/v2_DepthDuration_HTML.html#353,353,1821,833,1366,768,8-29-2022,6-41-28,158,depth_duration_stimuli/000486_2014-06-09_20-47-20_260595134347_rgbf000143-resize_2/000486_2014-06-09_20-47-20_260595134347_rgbf000143-resize_2-target.png,125,4.8325,2.2,5410,125,feet,jsons/VE125_randls_51_rotated.json,1333211,1758920,59,Woman
158,697712,DepthScenes,duration_manipulation_targetAtFixation,jsons/VE125_randls_51_rotated.json,http://54.235.29.9/FacialAge/BNav_EC2/DepthDuration/v2_depth_duration_MTurk/v2_DepthDuration_HTML.html#353,353,1821,833,1366,768,8-29-2022,6-41-28,159,depth_duration_stimuli/003048_2014-06-15_13-49-43_094959634447_rgbf000150-resize_1/003048_2014-06-15_13-49-43_094959634447_rgbf000150-resize_1-target.png,125,4.0035,4.2,11483,106,feet,jsons/VE125_randls_51_rotated.json,1333211,1758920,59,Woman
159,697712,DepthScenes,duration_manipulation_targetAtFixation,jsons/VE125_randls_51_rotated.json,http://54.235.29.9/FacialAge/BNav_EC2/DepthDuration/v2_depth_duration_MTurk/v2_DepthDuration_HTML.html#353,353,1821,833,1366,768,8-29-2022,6-41-28,160,depth_duration_stimuli/002043_2014-06-24_20-29-38_260595134347_rgbf000039-resize_4/002043_2014-06-24_20-29-38_260595134347_rgbf000039-resize_4-target.png,125,2.8435,2.5,6215,124,feet,jsons/VE125_randls_51_rotated.json,1333211,1758920,59,Woman
160,697712,DepthScenes,duration_manipulation_targetAtFixation,jsons/VE125_randls_51_rotated.json,http://54.235.29.9/FacialAge/BNav_EC2/DepthDuration/v2_depth_duration_MTurk/v2_DepthDuration_HTML.html#353,353,1821,833,1366,768,8-29-2022,6-41-28,161,depth_duration_stimuli/001032_2014-06-08_13-23-17_260595134347_rgbf000021-resize_3/001032_2014-06-08_13-23-17_260595134347_rgbf000021-resize_3-target.png,125,3.2725,0.5,16483,128,feet,jsons/VE125_randls_51_rotated.json,1333211,1758920,59,Woman
161,697712,DepthScenes,duration_manipulation_targetAtFixation,jsons/VE125_randls_51_rotated.json,http://54.235.29.9/FacialAge/BNav_EC2/DepthDuration/v2_depth_duration_MTurk/v2_DepthDuration_HTML.html#353,353,1821,833,1366,768,8-29-2022,6-41-28,162,depth_duration_stimuli/001059_2014-06-08_21-53-27_260595134347_rgbf000061-resize_4/001059_2014-06-08_21-53-27_260595134347_rgbf000061-resize_4-target.png,125,2.4185,2.7,6833,125,feet,jsons/VE125_randls_51_rotated.json,1333211,1758920,59,Woman
162,697712,DepthScenes,duration_manipulation_targetAtFixation,jsons/VE125_randls_51_rotated.json,http://54.235.29.9/FacialAge/BNav_EC2/DepthDuration/v2_depth_duration_MTurk/v2_DepthDuration_HTML.html#353,353,1821,833,1366,768,8-29-2022,6-41-28,163,depth_duration_stimuli/003010_2014-06-15_12-54-35_094959634447_rgbf000112-resize_0/003010_2014-06-15_12-54-35_094959634447_rgbf000112-resize_0-target.png,125,3.1185,6.0,10813,124,feet,jsons/VE125_randls_51_rotated.json,1333211,1758920,59,Woman
163,697712,DepthScenes,duration_manipulation_targetAtFixation,jsons/VE125_randls_51_rotated.json,http://54.235.29.9/FacialAge/BNav_EC2/DepthDuration/v2_depth_duration_MTurk/v2_DepthDuration_HTML.html#353,353,1821,833,1366,768,8-29-2022,6-41-28,164,depth_duration_stimuli/001810_2014-06-26_20-51-35_260595134347_rgbf000040-resize_3/001810_2014-06-26_20-51-35_260595134347_rgbf000040-resize_3-target.png,125,2.2525,2.2,7358,119,feet,jsons/VE125_randls_51_rotated.json,1333211,1758920,59,Woman
