,subjID,experimentName,versionName,sequenceName,url,selected_row,windowWidth,windowHeight,screenWidth,screenHeight,startDate,startTime,trial,stimulus,duration,actual_depth,depth_estimate,trial_RT,log_sceneDuration,unitSelection,seq_filepath,experimentTime,totalTime,age,gender
0,700133,DepthScenes,duration_manipulation_targetAtFixation,jsons/VE83_randls_40_rotated.json,http://54.235.29.9/FacialAge/BNav_EC2/DepthDuration/v2_depth_duration_MTurk/v2_DepthDuration_HTML.html#17,17,1366,619,1366,768,8-29-2023,12-20-54,1,depth_duration_stimuli/001094_2014-06-15_17-36-00_260595134347_rgbf000205-resize_0/001094_2014-06-15_17-36-00_260595134347_rgbf000205-resize_0-target.png,83,4.2175,5,3024,83,meters,jsons/VE83_randls_40_rotated.json,526286,1748984,30,Man
1,700133,DepthScenes,duration_manipulation_targetAtFixation,jsons/VE83_randls_40_rotated.json,http://54.235.29.9/FacialAge/BNav_EC2/DepthDuration/v2_depth_duration_MTurk/v2_DepthDuration_HTML.html#17,17,1366,619,1366,768,8-29-2023,12-20-54,2,depth_duration_stimuli/000692_2014-06-08_13-09-42_260595134347_rgbf000199-resize_2/000692_2014-06-08_13-09-42_260595134347_rgbf000199-resize_2-target.png,83,3.661,6,3921,82,meters,jsons/VE83_randls_40_rotated.json,526286,1748984,30,Man
2,700133,DepthScenes,duration_manipulation_targetAtFixation,jsons/VE83_randls_40_rotated.json,http://54.235.29.9/FacialAge/BNav_EC2/DepthDuration/v2_depth_duration_MTurk/v2_DepthDuration_HTML.html#17,17,1366,619,1366,768,8-29-2023,12-20-54,3,depth_duration_stimuli/003423_2014-05-21_10-23-26_094959634447_rgbf002665-resize_2/003423_2014-05-21_10-23-26_094959634447_rgbf002665-resize_2-target.png,83,3.2575,4,3605,84,meters,jsons/VE83_randls_40_rotated.json,526286,1748984,30,Man
3,700133,DepthScenes,duration_manipulation_targetAtFixation,jsons/VE83_randls_40_rotated.json,http://54.235.29.9/FacialAge/BNav_EC2/DepthDuration/v2_depth_duration_MTurk/v2_DepthDuration_HTML.html#17,17,1366,619,1366,768,8-29-2023,12-20-54,4,depth_duration_stimuli/002905_2014-06-03_18-04-43_094959634447_rgbf000151-resize_2/002905_2014-06-03_18-04-43_094959634447_rgbf000151-resize_2-target.png,83,2.0295,5,3265,84,meters,jsons/VE83_randls_40_rotated.json,526286,1748984,30,Man
4,700133,DepthScenes,duration_manipulation_targetAtFixation,jsons/VE83_randls_40_rotated.json,http://54.235.29.9/FacialAge/BNav_EC2/DepthDuration/v2_depth_duration_MTurk/v2_DepthDuration_HTML.html#17,17,1366,619,1366,768,8-29-2023,12-20-54,5,depth_duration_stimuli/001100_2014-06-15_17-46-26_260595134347_rgbf000225-resize_2/001100_2014-06-15_17-46-26_260595134347_rgbf000225-resize_2-target.png,83,2.24,2,4038,83,meters,jsons/VE83_randls_40_rotated.json,526286,1748984,30,Man
5,700133,DepthScenes,duration_manipulation_targetAtFixation,jsons/VE83_randls_40_rotated.json,http://54.235.29.9/FacialAge/BNav_EC2/DepthDuration/v2_depth_duration_MTurk/v2_DepthDuration_HTML.html#17,17,1366,619,1366,768,8-29-2023,12-20-54,6,depth_duration_stimuli/002784_2014-06-22_19-26-30_094959634447_rgbf000083-resize_3/002784_2014-06-22_19-26-30_094959634447_rgbf000083-resize_3-target.png,83,1.8046666666667,5,2608,83,meters,jsons/VE83_randls_40_rotated.json,526286,1748984,30,Man
6,700133,DepthScenes,duration_manipulation_targetAtFixation,jsons/VE83_randls_40_rotated.json,http://54.235.29.9/FacialAge/BNav_EC2/DepthDuration/v2_depth_duration_MTurk/v2_DepthDuration_HTML.html#17,17,1366,619,1366,768,8-29-2023,12-20-54,7,depth_duration_stimuli/000709_2014-06-08_13-51-55_260595134347_rgbf000068-resize_3/000709_2014-06-08_13-51-55_260595134347_rgbf000068-resize_3-target.png,83,1.8030000000000002,6,2876,84,meters,jsons/VE83_randls_40_rotated.json,526286,1748984,30,Man
7,700133,DepthScenes,duration_manipulation_targetAtFixation,jsons/VE83_randls_40_rotated.json,http://54.235.29.9/FacialAge/BNav_EC2/DepthDuration/v2_depth_duration_MTurk/v2_DepthDuration_HTML.html#17,17,1366,619,1366,768,8-29-2023,12-20-54,8,depth_duration_stimuli/002057_2014-06-24_21-00-13_260595134347_rgbf000120-resize_1/002057_2014-06-24_21-00-13_260595134347_rgbf000120-resize_1-target.png,83,2.967,4,2826,83,meters,jsons/VE83_randls_40_rotated.json,526286,1748984,30,Man
8,700133,DepthScenes,duration_manipulation_targetAtFixation,jsons/VE83_randls_40_rotated.json,http://54.235.29.9/FacialAge/BNav_EC2/DepthDuration/v2_depth_duration_MTurk/v2_DepthDuration_HTML.html#17,17,1366,619,1366,768,8-29-2023,12-20-54,9,depth_duration_stimuli/003079_2014-06-15_15-18-20_094959634447_rgbf000152-resize_8/003079_2014-06-15_15-18-20_094959634447_rgbf000152-resize_8-target.png,83,2.8775,5,2676,85,meters,jsons/VE83_randls_40_rotated.json,526286,1748984,30,Man
9,700133,DepthScenes,duration_manipulation_targetAtFixation,jsons/VE83_randls_40_rotated.json,http://54.235.29.9/FacialAge/BNav_EC2/DepthDuration/v2_depth_duration_MTurk/v2_DepthDuration_HTML.html#17,17,1366,619,1366,768,8-29-2023,12-20-54,10,depth_duration_stimuli/000506_2014-06-08_23-21-00_260595134347_rgbf000070-resize_7/000506_2014-06-08_23-21-00_260595134347_rgbf000070-resize_7-target.png,83,4.0585,5,2442,84,meters,jsons/VE83_randls_40_rotated.json,526286,1748984,30,Man
10,700133,DepthScenes,duration_manipulation_targetAtFixation,jsons/VE83_randls_40_rotated.json,http://54.235.29.9/FacialAge/BNav_EC2/DepthDuration/v2_depth_duration_MTurk/v2_DepthDuration_HTML.html#17,17,1366,619,1366,768,8-29-2023,12-20-54,11,depth_duration_stimuli/002444_2014-06-28_20-32-08_260595134347_rgbf000027-resize_0/002444_2014-06-28_20-32-08_260595134347_rgbf000027-resize_0-target.png,83,4.388999999999999,6,2530,84,meters,jsons/VE83_randls_40_rotated.json,526286,1748984,30,Man
11,700133,DepthScenes,duration_manipulation_targetAtFixation,jsons/VE83_randls_40_rotated.json,http://54.235.29.9/FacialAge/BNav_EC2/DepthDuration/v2_depth_duration_MTurk/v2_DepthDuration_HTML.html#17,17,1366,619,1366,768,8-29-2023,12-20-54,12,depth_duration_stimuli/000436_2014-06-09_22-25-11_260595134347_rgbf000137-resize_1/000436_2014-06-09_22-25-11_260595134347_rgbf000137-resize_1-target.png,83,4.0705,5,2221,84,meters,jsons/VE83_randls_40_rotated.json,526286,1748984,30,Man
12,700133,DepthScenes,duration_manipulation_targetAtFixation,jsons/VE83_randls_40_rotated.json,http://54.235.29.9/FacialAge/BNav_EC2/DepthDuration/v2_depth_duration_MTurk/v2_DepthDuration_HTML.html#17,17,1366,619,1366,768,8-29-2023,12-20-54,13,depth_duration_stimuli/002953_2014-06-08_17-32-18_094959634447_rgbf000059-resize_5/002953_2014-06-08_17-32-18_094959634447_rgbf000059-resize_5-target.png,83,1.551,5,2200,83,meters,jsons/VE83_randls_40_rotated.json,526286,1748984,30,Man
13,700133,DepthScenes,duration_manipulation_targetAtFixation,jsons/VE83_randls_40_rotated.json,http://54.235.29.9/FacialAge/BNav_EC2/DepthDuration/v2_depth_duration_MTurk/v2_DepthDuration_HTML.html#17,17,1366,619,1366,768,8-29-2023,12-20-54,14,depth_duration_stimuli/000878_2014-06-08_22-52-45_260595134347_rgbf000045-resize_2/000878_2014-06-08_22-52-45_260595134347_rgbf000045-resize_2-target.png,83,2.092,5,2098,82,meters,jsons/VE83_randls_40_rotated.json,526286,1748984,30,Man
14,700133,DepthScenes,duration_manipulation_targetAtFixation,jsons/VE83_randls_40_rotated.json,http://54.235.29.9/FacialAge/BNav_EC2/DepthDuration/v2_depth_duration_MTurk/v2_DepthDuration_HTML.html#17,17,1366,619,1366,768,8-29-2023,12-20-54,15,depth_duration_stimuli/000691_2014-06-08_13-08-50_260595134347_rgbf000132-resize_3/000691_2014-06-08_13-08-50_260595134347_rgbf000132-resize_3-target.png,83,4.1530000000000005,6,2514,83,meters,jsons/VE83_randls_40_rotated.json,526286,1748984,30,Man
15,700133,DepthScenes,duration_manipulation_targetAtFixation,jsons/VE83_randls_40_rotated.json,http://54.235.29.9/FacialAge/BNav_EC2/DepthDuration/v2_depth_duration_MTurk/v2_DepthDuration_HTML.html#17,17,1366,619,1366,768,8-29-2023,12-20-54,16,depth_duration_stimuli/002213_2014-06-28_18-37-58_260595134347_rgbf000055-resize_1/002213_2014-06-28_18-37-58_260595134347_rgbf000055-resize_1-target.png,83,3.62,0,3001,82,meters,jsons/VE83_randls_40_rotated.json,526286,1748984,30,Man
16,700133,DepthScenes,duration_manipulation_targetAtFixation,jsons/VE83_randls_40_rotated.json,http://54.235.29.9/FacialAge/BNav_EC2/DepthDuration/v2_depth_duration_MTurk/v2_DepthDuration_HTML.html#17,17,1366,619,1366,768,8-29-2023,12-20-54,17,depth_duration_stimuli/001617_2014-06-20_11-35-32_260595134347_rgbf000066-resize_1/001617_2014-06-20_11-35-32_260595134347_rgbf000066-resize_1-target.png,83,3.7910000000000004,5,2597,83,meters,jsons/VE83_randls_40_rotated.json,526286,1748984,30,Man
17,700133,DepthScenes,duration_manipulation_targetAtFixation,jsons/VE83_randls_40_rotated.json,http://54.235.29.9/FacialAge/BNav_EC2/DepthDuration/v2_depth_duration_MTurk/v2_DepthDuration_HTML.html#17,17,1366,619,1366,768,8-29-2023,12-20-54,18,depth_duration_stimuli/001806_2014-06-26_20-50-20_260595134347_rgbf000091-resize_1/001806_2014-06-26_20-50-20_260595134347_rgbf000091-resize_1-target.png,83,2.7305,6,2475,84,meters,jsons/VE83_randls_40_rotated.json,526286,1748984,30,Man
18,700133,DepthScenes,duration_manipulation_targetAtFixation,jsons/VE83_randls_40_rotated.json,http://54.235.29.9/FacialAge/BNav_EC2/DepthDuration/v2_depth_duration_MTurk/v2_DepthDuration_HTML.html#17,17,1366,619,1366,768,8-29-2023,12-20-54,19,depth_duration_stimuli/001498_2014-06-19_17-45-14_260595134347_rgbf000129-resize_4/001498_2014-06-19_17-45-14_260595134347_rgbf000129-resize-original.jpg,83,1.4075,0,2730,83,meters,jsons/VE83_randls_40_rotated.json,526286,1748984,30,Man
19,700133,DepthScenes,duration_manipulation_targetAtFixation,jsons/VE83_randls_40_rotated.json,http://54.235.29.9/FacialAge/BNav_EC2/DepthDuration/v2_depth_duration_MTurk/v2_DepthDuration_HTML.html#17,17,1366,619,1366,768,8-29-2023,12-20-54,20,depth_duration_stimuli/000502_2014-06-08_23-02-32_260595134347_rgbf000063-resize_4/000502_2014-06-08_23-02-32_260595134347_rgbf000063-resize_4-target.png,83,2.431,5,2771,83,meters,jsons/VE83_randls_40_rotated.json,526286,1748984,30,Man
20,700133,DepthScenes,duration_manipulation_targetAtFixation,jsons/VE83_randls_40_rotated.json,http://54.235.29.9/FacialAge/BNav_EC2/DepthDuration/v2_depth_duration_MTurk/v2_DepthDuration_HTML.html#17,17,1366,619,1366,768,8-29-2023,12-20-54,21,depth_duration_stimuli/001199_2014-06-17_16-03-48_260595134347_rgbf000077-resize_0/001199_2014-06-17_16-03-48_260595134347_rgbf000077-resize_0-target.png,83,3.4375,6,2436,84,meters,jsons/VE83_randls_40_rotated.json,526286,1748984,30,Man
21,700133,DepthScenes,duration_manipulation_targetAtFixation,jsons/VE83_randls_40_rotated.json,http://54.235.29.9/FacialAge/BNav_EC2/DepthDuration/v2_depth_duration_MTurk/v2_DepthDuration_HTML.html#17,17,1366,619,1366,768,8-29-2023,12-20-54,22,depth_duration_stimuli/002660_2014-06-13_15-44-18_094959634447_rgbf001878-resize_2/002660_2014-06-13_15-44-18_094959634447_rgbf001878-resize_2-target.png,83,3.576,4,2354,83,meters,jsons/VE83_randls_40_rotated.json,526286,1748984,30,Man
22,700133,DepthScenes,duration_manipulation_targetAtFixation,jsons/VE83_randls_40_rotated.json,http://54.235.29.9/FacialAge/BNav_EC2/DepthDuration/v2_depth_duration_MTurk/v2_DepthDuration_HTML.html#17,17,1366,619,1366,768,8-29-2023,12-20-54,23,depth_duration_stimuli/002153_2014-06-25_21-27-18_260595134347_rgbf000038-resize_5/002153_2014-06-25_21-27-18_260595134347_rgbf000038-resize_5-target.png,83,2.505,6,2162,84,meters,jsons/VE83_randls_40_rotated.json,526286,1748984,30,Man
23,700133,DepthScenes,duration_manipulation_targetAtFixation,jsons/VE83_randls_40_rotated.json,http://54.235.29.9/FacialAge/BNav_EC2/DepthDuration/v2_depth_duration_MTurk/v2_DepthDuration_HTML.html#17,17,1366,619,1366,768,8-29-2023,12-20-54,24,depth_duration_stimuli/003338_2014-05-20_11-01-23_094959634447_rgbf000051-resize_6/003338_2014-05-20_11-01-23_094959634447_rgbf000051-resize_6-target.png,83,1.693,5,2308,83,meters,jsons/VE83_randls_40_rotated.json,526286,1748984,30,Man
24,700133,DepthScenes,duration_manipulation_targetAtFixation,jsons/VE83_randls_40_rotated.json,http://54.235.29.9/FacialAge/BNav_EC2/DepthDuration/v2_depth_duration_MTurk/v2_DepthDuration_HTML.html#17,17,1366,619,1366,768,8-29-2023,12-20-54,25,depth_duration_stimuli/002509_2014-06-24_13-19-22_094959634447_rgbf000077-resize_0/002509_2014-06-24_13-19-22_094959634447_rgbf000077-resize_0-target.png,83,1.3065,7,2490,82,meters,jsons/VE83_randls_40_rotated.json,526286,1748984,30,Man
25,700133,DepthScenes,duration_manipulation_targetAtFixation,jsons/VE83_randls_40_rotated.json,http://54.235.29.9/FacialAge/BNav_EC2/DepthDuration/v2_depth_duration_MTurk/v2_DepthDuration_HTML.html#17,17,1366,619,1366,768,8-29-2023,12-20-54,26,depth_duration_stimuli/002545_2014-06-24_13-38-53_094959634447_rgbf000080-resize_4/002545_2014-06-24_13-38-53_094959634447_rgbf000080-resize_4-target.png,83,1.9205,8,2584,82,meters,jsons/VE83_randls_40_rotated.json,526286,1748984,30,Man
26,700133,DepthScenes,duration_manipulation_targetAtFixation,jsons/VE83_randls_40_rotated.json,http://54.235.29.9/FacialAge/BNav_EC2/DepthDuration/v2_depth_duration_MTurk/v2_DepthDuration_HTML.html#17,17,1366,619,1366,768,8-29-2023,12-20-54,27,depth_duration_stimuli/001092_2014-06-15_17-34-58_260595134347_rgbf000171-resize_3/001092_2014-06-15_17-34-58_260595134347_rgbf000171-resize_3-target.png,83,2.6935,5,2452,82,meters,jsons/VE83_randls_40_rotated.json,526286,1748984,30,Man
27,700133,DepthScenes,duration_manipulation_targetAtFixation,jsons/VE83_randls_40_rotated.json,http://54.235.29.9/FacialAge/BNav_EC2/DepthDuration/v2_depth_duration_MTurk/v2_DepthDuration_HTML.html#17,17,1366,619,1366,768,8-29-2023,12-20-54,28,depth_duration_stimuli/002199_2014-06-28_18-33-56_260595134347_rgbf000074-resize_0/002199_2014-06-28_18-33-56_260595134347_rgbf000074-resize_0-target.png,83,1.996,6,2826,83,meters,jsons/VE83_randls_40_rotated.json,526286,1748984,30,Man
28,700133,DepthScenes,duration_manipulation_targetAtFixation,jsons/VE83_randls_40_rotated.json,http://54.235.29.9/FacialAge/BNav_EC2/DepthDuration/v2_depth_duration_MTurk/v2_DepthDuration_HTML.html#17,17,1366,619,1366,768,8-29-2023,12-20-54,29,depth_duration_stimuli/001056_2014-06-08_18-46-44_260595134347_rgbf000068-resize_0/001056_2014-06-08_18-46-44_260595134347_rgbf000068-resize_0-target.png,83,2.6625,4,2356,83,meters,jsons/VE83_randls_40_rotated.json,526286,1748984,30,Man
29,700133,DepthScenes,duration_manipulation_targetAtFixation,jsons/VE83_randls_40_rotated.json,http://54.235.29.9/FacialAge/BNav_EC2/DepthDuration/v2_depth_duration_MTurk/v2_DepthDuration_HTML.html#17,17,1366,619,1366,768,8-29-2023,12-20-54,30,depth_duration_stimuli/002072_2014-06-24_21-48-06_260595134347_rgbf000115-resize_0/002072_2014-06-24_21-48-06_260595134347_rgbf000115-resize-original.jpg,83,4.702,0,2772,83,meters,jsons/VE83_randls_40_rotated.json,526286,1748984,30,Man
30,700133,DepthScenes,duration_manipulation_targetAtFixation,jsons/VE83_randls_40_rotated.json,http://54.235.29.9/FacialAge/BNav_EC2/DepthDuration/v2_depth_duration_MTurk/v2_DepthDuration_HTML.html#17,17,1366,619,1366,768,8-29-2023,12-20-54,31,depth_duration_stimuli/002637_2014-06-24_14-51-13_094959634447_rgbf000066-resize_4/002637_2014-06-24_14-51-13_094959634447_rgbf000066-resize_4-target.png,83,1.9955,4,2530,84,meters,jsons/VE83_randls_40_rotated.json,526286,1748984,30,Man
31,700133,DepthScenes,duration_manipulation_targetAtFixation,jsons/VE83_randls_40_rotated.json,http://54.235.29.9/FacialAge/BNav_EC2/DepthDuration/v2_depth_duration_MTurk/v2_DepthDuration_HTML.html#17,17,1366,619,1366,768,8-29-2023,12-20-54,32,depth_duration_stimuli/003534_2014-05-22_15-06-10_094959634447_rgbf000102-resize_4/003534_2014-05-22_15-06-10_094959634447_rgbf000102-resize_4-target.png,83,1.426,5,2290,83,meters,jsons/VE83_randls_40_rotated.json,526286,1748984,30,Man
32,700133,DepthScenes,duration_manipulation_targetAtFixation,jsons/VE83_randls_40_rotated.json,http://54.235.29.9/FacialAge/BNav_EC2/DepthDuration/v2_depth_duration_MTurk/v2_DepthDuration_HTML.html#17,17,1366,619,1366,768,8-29-2023,12-20-54,33,depth_duration_stimuli/003495_2014-05-21_16-01-51_094959634447_rgbf000100-resize_3/003495_2014-05-21_16-01-51_094959634447_rgbf000100-resize_3-target.png,83,1.6255,6,2364,84,meters,jsons/VE83_randls_40_rotated.json,526286,1748984,30,Man
33,700133,DepthScenes,duration_manipulation_targetAtFixation,jsons/VE83_randls_40_rotated.json,http://54.235.29.9/FacialAge/BNav_EC2/DepthDuration/v2_depth_duration_MTurk/v2_DepthDuration_HTML.html#17,17,1366,619,1366,768,8-29-2023,12-20-54,34,depth_duration_stimuli/001244_2014-06-17_16-47-45_260595134347_rgbf000030-resize_4/001244_2014-06-17_16-47-45_260595134347_rgbf000030-resize_4-target.png,83,2.0425,5,2409,83,meters,jsons/VE83_randls_40_rotated.json,526286,1748984,30,Man
34,700133,DepthScenes,duration_manipulation_targetAtFixation,jsons/VE83_randls_40_rotated.json,http://54.235.29.9/FacialAge/BNav_EC2/DepthDuration/v2_depth_duration_MTurk/v2_DepthDuration_HTML.html#17,17,1366,619,1366,768,8-29-2023,12-20-54,35,depth_duration_stimuli/002103_2014-06-25_20-00-40_260595134347_rgbf000049-resize_0/002103_2014-06-25_20-00-40_260595134347_rgbf000049-resize_0-target.png,83,4.105,4,2133,84,meters,jsons/VE83_randls_40_rotated.json,526286,1748984,30,Man
35,700133,DepthScenes,duration_manipulation_targetAtFixation,jsons/VE83_randls_40_rotated.json,http://54.235.29.9/FacialAge/BNav_EC2/DepthDuration/v2_depth_duration_MTurk/v2_DepthDuration_HTML.html#17,17,1366,619,1366,768,8-29-2023,12-20-54,36,depth_duration_stimuli/002039_2014-06-24_20-22-38_260595134347_rgbf000084-resize_1/002039_2014-06-24_20-22-38_260595134347_rgbf000084-resize_1-target.png,83,4.408,5,6842,82,meters,jsons/VE83_randls_40_rotated.json,526286,1748984,30,Man
36,700133,DepthScenes,duration_manipulation_targetAtFixation,jsons/VE83_randls_40_rotated.json,http://54.235.29.9/FacialAge/BNav_EC2/DepthDuration/v2_depth_duration_MTurk/v2_DepthDuration_HTML.html#17,17,1366,619,1366,768,8-29-2023,12-20-54,37,depth_duration_stimuli/000780_2014-06-08_22-28-29_260595134347_rgbf000126-resize_1/000780_2014-06-08_22-28-29_260595134347_rgbf000126-resize_1-target.png,83,3.3825,4,2268,83,meters,jsons/VE83_randls_40_rotated.json,526286,1748984,30,Man
37,700133,DepthScenes,duration_manipulation_targetAtFixation,jsons/VE83_randls_40_rotated.json,http://54.235.29.9/FacialAge/BNav_EC2/DepthDuration/v2_depth_duration_MTurk/v2_DepthDuration_HTML.html#17,17,1366,619,1366,768,8-29-2023,12-20-54,38,depth_duration_stimuli/002445_2014-06-28_20-32-16_260595134347_rgbf000029-resize_4/002445_2014-06-28_20-32-16_260595134347_rgbf000029-resize_4-target.png,83,2.5315,5,2322,84,meters,jsons/VE83_randls_40_rotated.json,526286,1748984,30,Man
38,700133,DepthScenes,duration_manipulation_targetAtFixation,jsons/VE83_randls_40_rotated.json,http://54.235.29.9/FacialAge/BNav_EC2/DepthDuration/v2_depth_duration_MTurk/v2_DepthDuration_HTML.html#17,17,1366,619,1366,768,8-29-2023,12-20-54,39,depth_duration_stimuli/002805_2014-06-22_19-54-03_094959634447_rgbf000079-resize_1/002805_2014-06-22_19-54-03_094959634447_rgbf000079-resize_1-target.png,83,3.1439999999999997,4,2450,83,meters,jsons/VE83_randls_40_rotated.json,526286,1748984,30,Man
39,700133,DepthScenes,duration_manipulation_targetAtFixation,jsons/VE83_randls_40_rotated.json,http://54.235.29.9/FacialAge/BNav_EC2/DepthDuration/v2_depth_duration_MTurk/v2_DepthDuration_HTML.html#17,17,1366,619,1366,768,8-29-2023,12-20-54,40,depth_duration_stimuli/000906_2014-06-08_13-35-43_260595134347_rgbf000155-resize_1/000906_2014-06-08_13-35-43_260595134347_rgbf000155-resize_1-target.png,83,2.8489999999999998,0,2989,84,meters,jsons/VE83_randls_40_rotated.json,526286,1748984,30,Man
40,700133,DepthScenes,duration_manipulation_targetAtFixation,jsons/VE83_randls_40_rotated.json,http://54.235.29.9/FacialAge/BNav_EC2/DepthDuration/v2_depth_duration_MTurk/v2_DepthDuration_HTML.html#17,17,1366,619,1366,768,8-29-2023,12-20-54,41,depth_duration_stimuli/003081_2014-06-15_15-19-16_094959634447_rgbf000150-resize_1/003081_2014-06-15_15-19-16_094959634447_rgbf000150-resize_1-target.png,83,3.9125,2,2481,84,meters,jsons/VE83_randls_40_rotated.json,526286,1748984,30,Man
41,700133,DepthScenes,duration_manipulation_targetAtFixation,jsons/VE83_randls_40_rotated.json,http://54.235.29.9/FacialAge/BNav_EC2/DepthDuration/v2_depth_duration_MTurk/v2_DepthDuration_HTML.html#17,17,1366,619,1366,768,8-29-2023,12-20-54,42,depth_duration_stimuli/001417_2014-06-19_16-25-36_260595134347_rgbf000115-resize_5/001417_2014-06-19_16-25-36_260595134347_rgbf000115-resize_5-target.png,83,4.6255,5,2255,83,meters,jsons/VE83_randls_40_rotated.json,526286,1748984,30,Man
42,700133,DepthScenes,duration_manipulation_targetAtFixation,jsons/VE83_randls_40_rotated.json,http://54.235.29.9/FacialAge/BNav_EC2/DepthDuration/v2_depth_duration_MTurk/v2_DepthDuration_HTML.html#17,17,1366,619,1366,768,8-29-2023,12-20-54,43,depth_duration_stimuli/000943_2014-06-09_19-31-07_260595134347_rgbf000128-resize_1/000943_2014-06-09_19-31-07_260595134347_rgbf000128-resize_1-target.png,83,1.9765,6,2368,83,meters,jsons/VE83_randls_40_rotated.json,526286,1748984,30,Man
43,700133,DepthScenes,duration_manipulation_targetAtFixation,jsons/VE83_randls_40_rotated.json,http://54.235.29.9/FacialAge/BNav_EC2/DepthDuration/v2_depth_duration_MTurk/v2_DepthDuration_HTML.html#17,17,1366,619,1366,768,8-29-2023,12-20-54,44,depth_duration_stimuli/003070_2014-06-15_14-58-27_094959634447_rgbf000150-resize_3/003070_2014-06-15_14-58-27_094959634447_rgbf000150-resize_3-target.png,83,2.9415,4,2318,84,meters,jsons/VE83_randls_40_rotated.json,526286,1748984,30,Man
44,700133,DepthScenes,duration_manipulation_targetAtFixation,jsons/VE83_randls_40_rotated.json,http://54.235.29.9/FacialAge/BNav_EC2/DepthDuration/v2_depth_duration_MTurk/v2_DepthDuration_HTML.html#17,17,1366,619,1366,768,8-29-2023,12-20-54,45,depth_duration_stimuli/002949_2014-06-26_15-57-42_094959634447_rgbf000079-resize_1/002949_2014-06-26_15-57-42_094959634447_rgbf000079-resize_1-target.png,83,1.8915,5,2336,82,meters,jsons/VE83_randls_40_rotated.json,526286,1748984,30,Man
45,700133,DepthScenes,duration_manipulation_targetAtFixation,jsons/VE83_randls_40_rotated.json,http://54.235.29.9/FacialAge/BNav_EC2/DepthDuration/v2_depth_duration_MTurk/v2_DepthDuration_HTML.html#17,17,1366,619,1366,768,8-29-2023,12-20-54,46,depth_duration_stimuli/000522_2014-06-08_13-35-06_260595134347_rgbf000244-resize_1/000522_2014-06-08_13-35-06_260595134347_rgbf000244-resize_1-target.png,83,2.3715,3,2330,83,meters,jsons/VE83_randls_40_rotated.json,526286,1748984,30,Man
46,700133,DepthScenes,duration_manipulation_targetAtFixation,jsons/VE83_randls_40_rotated.json,http://54.235.29.9/FacialAge/BNav_EC2/DepthDuration/v2_depth_duration_MTurk/v2_DepthDuration_HTML.html#17,17,1366,619,1366,768,8-29-2023,12-20-54,47,depth_duration_stimuli/000927_2014-06-09_16-32-30_260595134347_rgbf000123-resize_3/000927_2014-06-09_16-32-30_260595134347_rgbf000123-resize_3-target.png,83,2.6785,4,2789,83,meters,jsons/VE83_randls_40_rotated.json,526286,1748984,30,Man
47,700133,DepthScenes,duration_manipulation_targetAtFixation,jsons/VE83_randls_40_rotated.json,http://54.235.29.9/FacialAge/BNav_EC2/DepthDuration/v2_depth_duration_MTurk/v2_DepthDuration_HTML.html#17,17,1366,619,1366,768,8-29-2023,12-20-54,48,depth_duration_stimuli/001110_2014-06-15_17-25-28_260595134347_rgbf000150-resize_1/001110_2014-06-15_17-25-28_260595134347_rgbf000150-resize_1-target.png,83,1.7115,2,2700,82,meters,jsons/VE83_randls_40_rotated.json,526286,1748984,30,Man
48,700133,DepthScenes,duration_manipulation_targetAtFixation,jsons/VE83_randls_40_rotated.json,http://54.235.29.9/FacialAge/BNav_EC2/DepthDuration/v2_depth_duration_MTurk/v2_DepthDuration_HTML.html#17,17,1366,619,1366,768,8-29-2023,12-20-54,49,depth_duration_stimuli/001170_2014-06-17_15-43-44_260595134347_rgbf000096-resize_6/001170_2014-06-17_15-43-44_260595134347_rgbf000096-resize-original.jpg,83,1.1909999999999998,0,2668,83,meters,jsons/VE83_randls_40_rotated.json,526286,1748984,30,Man
49,700133,DepthScenes,duration_manipulation_targetAtFixation,jsons/VE83_randls_40_rotated.json,http://54.235.29.9/FacialAge/BNav_EC2/DepthDuration/v2_depth_duration_MTurk/v2_DepthDuration_HTML.html#17,17,1366,619,1366,768,8-29-2023,12-20-54,50,depth_duration_stimuli/002750_2014-06-22_19-08-03_094959634447_rgbf000094-resize_4/002750_2014-06-22_19-08-03_094959634447_rgbf000094-resize_4-target.png,83,2.354,6,2579,82,meters,jsons/VE83_randls_40_rotated.json,526286,1748984,30,Man
50,700133,DepthScenes,duration_manipulation_targetAtFixation,jsons/VE83_randls_40_rotated.json,http://54.235.29.9/FacialAge/BNav_EC2/DepthDuration/v2_depth_duration_MTurk/v2_DepthDuration_HTML.html#17,17,1366,619,1366,768,8-29-2023,12-20-54,51,depth_duration_stimuli/002549_2014-06-24_13-41-39_094959634447_rgbf000022-resize_3/002549_2014-06-24_13-41-39_094959634447_rgbf000022-resize_3-target.png,83,1.476,5,1913,83,meters,jsons/VE83_randls_40_rotated.json,526286,1748984,30,Man
51,700133,DepthScenes,duration_manipulation_targetAtFixation,jsons/VE83_randls_40_rotated.json,http://54.235.29.9/FacialAge/BNav_EC2/DepthDuration/v2_depth_duration_MTurk/v2_DepthDuration_HTML.html#17,17,1366,619,1366,768,8-29-2023,12-20-54,52,depth_duration_stimuli/002467_2014-06-28_20-38-07_260595134347_rgbf000026-resize_2/002467_2014-06-28_20-38-07_260595134347_rgbf000026-resize_2-target.png,83,4.742,4,1972,83,meters,jsons/VE83_randls_40_rotated.json,526286,1748984,30,Man
52,700133,DepthScenes,duration_manipulation_targetAtFixation,jsons/VE83_randls_40_rotated.json,http://54.235.29.9/FacialAge/BNav_EC2/DepthDuration/v2_depth_duration_MTurk/v2_DepthDuration_HTML.html#17,17,1366,619,1366,768,8-29-2023,12-20-54,53,depth_duration_stimuli/002570_2014-06-24_13-59-54_094959634447_rgbf000059-resize_0/002570_2014-06-24_13-59-54_094959634447_rgbf000059-resize_0-target.png,83,4.037,5,2322,84,meters,jsons/VE83_randls_40_rotated.json,526286,1748984,30,Man
53,700133,DepthScenes,duration_manipulation_targetAtFixation,jsons/VE83_randls_40_rotated.json,http://54.235.29.9/FacialAge/BNav_EC2/DepthDuration/v2_depth_duration_MTurk/v2_DepthDuration_HTML.html#17,17,1366,619,1366,768,8-29-2023,12-20-54,54,depth_duration_stimuli/000742_2014-06-08_18-48-09_260595134347_rgbf000164-resize_4/000742_2014-06-08_18-48-09_260595134347_rgbf000164-resize_4-target.png,83,4.632,4,1843,84,meters,jsons/VE83_randls_40_rotated.json,526286,1748984,30,Man
54,700133,DepthScenes,duration_manipulation_targetAtFixation,jsons/VE83_randls_40_rotated.json,http://54.235.29.9/FacialAge/BNav_EC2/DepthDuration/v2_depth_duration_MTurk/v2_DepthDuration_HTML.html#17,17,1366,619,1366,768,8-29-2023,12-20-54,55,depth_duration_stimuli/001066_2014-06-08_22-03-20_260595134347_rgbf000066-resize_4/001066_2014-06-08_22-03-20_260595134347_rgbf000066-resize_4-target.png,83,4.2330000000000005,7,2643,83,meters,jsons/VE83_randls_40_rotated.json,526286,1748984,30,Man
55,700133,DepthScenes,duration_manipulation_targetAtFixation,jsons/VE83_randls_40_rotated.json,http://54.235.29.9/FacialAge/BNav_EC2/DepthDuration/v2_depth_duration_MTurk/v2_DepthDuration_HTML.html#17,17,1366,619,1366,768,8-29-2023,12-20-54,56,depth_duration_stimuli/000749_2014-06-08_21-55-06_260595134347_rgbf000070-resize_2/000749_2014-06-08_21-55-06_260595134347_rgbf000070-resize_2-target.png,83,2.331,8,3132,83,meters,jsons/VE83_randls_40_rotated.json,526286,1748984,30,Man
56,700133,DepthScenes,duration_manipulation_targetAtFixation,jsons/VE83_randls_40_rotated.json,http://54.235.29.9/FacialAge/BNav_EC2/DepthDuration/v2_depth_duration_MTurk/v2_DepthDuration_HTML.html#17,17,1366,619,1366,768,8-29-2023,12-20-54,57,depth_duration_stimuli/002788_2014-06-22_19-36-03_094959634447_rgbf000088-resize_2/002788_2014-06-22_19-36-03_094959634447_rgbf000088-resize_2-target.png,83,1.6465,5,1906,83,meters,jsons/VE83_randls_40_rotated.json,526286,1748984,30,Man
57,700133,DepthScenes,duration_manipulation_targetAtFixation,jsons/VE83_randls_40_rotated.json,http://54.235.29.9/FacialAge/BNav_EC2/DepthDuration/v2_depth_duration_MTurk/v2_DepthDuration_HTML.html#17,17,1366,619,1366,768,8-29-2023,12-20-54,58,depth_duration_stimuli/001132_2014-06-17_14-48-54_260595134347_rgbf000100-resize_2/001132_2014-06-17_14-48-54_260595134347_rgbf000100-resize_2-target.png,83,3.753,6,1963,83,meters,jsons/VE83_randls_40_rotated.json,526286,1748984,30,Man
58,700133,DepthScenes,duration_manipulation_targetAtFixation,jsons/VE83_randls_40_rotated.json,http://54.235.29.9/FacialAge/BNav_EC2/DepthDuration/v2_depth_duration_MTurk/v2_DepthDuration_HTML.html#17,17,1366,619,1366,768,8-29-2023,12-20-54,59,depth_duration_stimuli/001133_2014-06-17_14-49-16_260595134347_rgbf000100-resize_0/001133_2014-06-17_14-49-16_260595134347_rgbf000100-resize_0-target.png,83,4.2115,2,2195,84,meters,jsons/VE83_randls_40_rotated.json,526286,1748984,30,Man
59,700133,DepthScenes,duration_manipulation_targetAtFixation,jsons/VE83_randls_40_rotated.json,http://54.235.29.9/FacialAge/BNav_EC2/DepthDuration/v2_depth_duration_MTurk/v2_DepthDuration_HTML.html#17,17,1366,619,1366,768,8-29-2023,12-20-54,60,depth_duration_stimuli/000137_2014-05-20_17-04-49_260595134347_rgbf000120-resize_1/000137_2014-05-20_17-04-49_260595134347_rgbf000120-resize_1-target.png,83,3.786,3,2317,84,meters,jsons/VE83_randls_40_rotated.json,526286,1748984,30,Man
60,700133,DepthScenes,duration_manipulation_targetAtFixation,jsons/VE83_randls_40_rotated.json,http://54.235.29.9/FacialAge/BNav_EC2/DepthDuration/v2_depth_duration_MTurk/v2_DepthDuration_HTML.html#17,17,1366,619,1366,768,8-29-2023,12-20-54,61,depth_duration_stimuli/000736_2014-06-08_18-24-15_260595134347_rgbf000206-resize_3/000736_2014-06-08_18-24-15_260595134347_rgbf000206-resize_3-target.png,83,3.515,4,2833,85,meters,jsons/VE83_randls_40_rotated.json,526286,1748984,30,Man
61,700133,DepthScenes,duration_manipulation_targetAtFixation,jsons/VE83_randls_40_rotated.json,http://54.235.29.9/FacialAge/BNav_EC2/DepthDuration/v2_depth_duration_MTurk/v2_DepthDuration_HTML.html#17,17,1366,619,1366,768,8-29-2023,12-20-54,62,depth_duration_stimuli/002678_2014-06-13_16-15-32_094959634447_rgbf000151-resize_6/002678_2014-06-13_16-15-32_094959634447_rgbf000151-resize_6-target.png,83,2.1830000000000003,4,2324,84,meters,jsons/VE83_randls_40_rotated.json,526286,1748984,30,Man
62,700133,DepthScenes,duration_manipulation_targetAtFixation,jsons/VE83_randls_40_rotated.json,http://54.235.29.9/FacialAge/BNav_EC2/DepthDuration/v2_depth_duration_MTurk/v2_DepthDuration_HTML.html#17,17,1366,619,1366,768,8-29-2023,12-20-54,63,depth_duration_stimuli/000368_2014-06-09_15-53-01_260595134347_rgbf000155-resize_2/000368_2014-06-09_15-53-01_260595134347_rgbf000155-resize_2-target.png,83,2.4859999999999998,5,1792,84,meters,jsons/VE83_randls_40_rotated.json,526286,1748984,30,Man
63,700133,DepthScenes,duration_manipulation_targetAtFixation,jsons/VE83_randls_40_rotated.json,http://54.235.29.9/FacialAge/BNav_EC2/DepthDuration/v2_depth_duration_MTurk/v2_DepthDuration_HTML.html#17,17,1366,619,1366,768,8-29-2023,12-20-54,64,depth_duration_stimuli/002425_2014-06-28_20-27-29_260595134347_rgbf000031-resize_8/002425_2014-06-28_20-27-29_260595134347_rgbf000031-resize_8-target.png,83,3.8960000000000004,6,2005,84,meters,jsons/VE83_randls_40_rotated.json,526286,1748984,30,Man
64,700133,DepthScenes,duration_manipulation_targetAtFixation,jsons/VE83_randls_40_rotated.json,http://54.235.29.9/FacialAge/BNav_EC2/DepthDuration/v2_depth_duration_MTurk/v2_DepthDuration_HTML.html#17,17,1366,619,1366,768,8-29-2023,12-20-54,65,depth_duration_stimuli/000642_2014-06-08_16-59-25_260595134347_rgbf000098-resize_2/000642_2014-06-08_16-59-25_260595134347_rgbf000098-resize_2-target.png,83,2.8815,4,2003,83,meters,jsons/VE83_randls_40_rotated.json,526286,1748984,30,Man
65,700133,DepthScenes,duration_manipulation_targetAtFixation,jsons/VE83_randls_40_rotated.json,http://54.235.29.9/FacialAge/BNav_EC2/DepthDuration/v2_depth_duration_MTurk/v2_DepthDuration_HTML.html#17,17,1366,619,1366,768,8-29-2023,12-20-54,66,depth_duration_stimuli/001540_2014-06-20_17-01-05_260595134347_rgbf000086-resize_2/001540_2014-06-20_17-01-05_260595134347_rgbf000086-resize-original.jpg,83,1.459,0,4474,83,meters,jsons/VE83_randls_40_rotated.json,526286,1748984,30,Man
66,700133,DepthScenes,duration_manipulation_targetAtFixation,jsons/VE83_randls_40_rotated.json,http://54.235.29.9/FacialAge/BNav_EC2/DepthDuration/v2_depth_duration_MTurk/v2_DepthDuration_HTML.html#17,17,1366,619,1366,768,8-29-2023,12-20-54,67,depth_duration_stimuli/000457_2014-06-08_16-52-43_260595134347_rgbf000199-resize_1/000457_2014-06-08_16-52-43_260595134347_rgbf000199-resize_1-target.png,83,3.6489999999999996,4,19910,84,meters,jsons/VE83_randls_40_rotated.json,526286,1748984,30,Man
67,700133,DepthScenes,duration_manipulation_targetAtFixation,jsons/VE83_randls_40_rotated.json,http://54.235.29.9/FacialAge/BNav_EC2/DepthDuration/v2_depth_duration_MTurk/v2_DepthDuration_HTML.html#17,17,1366,619,1366,768,8-29-2023,12-20-54,68,depth_duration_stimuli/000929_2014-06-09_16-33-19_260595134347_rgbf000139-resize_0/000929_2014-06-09_16-33-19_260595134347_rgbf000139-resize_0-target.png,83,2.8680000000000003,2,2223,82,meters,jsons/VE83_randls_40_rotated.json,526286,1748984,30,Man
68,700133,DepthScenes,duration_manipulation_targetAtFixation,jsons/VE83_randls_40_rotated.json,http://54.235.29.9/FacialAge/BNav_EC2/DepthDuration/v2_depth_duration_MTurk/v2_DepthDuration_HTML.html#17,17,1366,619,1366,768,8-29-2023,12-20-54,69,depth_duration_stimuli/002136_2014-06-25_21-18-03_260595134347_rgbf000109-resize_3/002136_2014-06-25_21-18-03_260595134347_rgbf000109-resize_3-target.png,83,1.9569999999999999,5,3622,83,meters,jsons/VE83_randls_40_rotated.json,526286,1748984,30,Man
69,700133,DepthScenes,duration_manipulation_targetAtFixation,jsons/VE83_randls_40_rotated.json,http://54.235.29.9/FacialAge/BNav_EC2/DepthDuration/v2_depth_duration_MTurk/v2_DepthDuration_HTML.html#17,17,1366,619,1366,768,8-29-2023,12-20-54,70,depth_duration_stimuli/002964_2014-06-08_17-46-11_094959634447_rgbf000091-resize_4/002964_2014-06-08_17-46-11_094959634447_rgbf000091-resize_4-target.png,83,1.6909999999999998,6,2646,82,meters,jsons/VE83_randls_40_rotated.json,526286,1748984,30,Man
70,700133,DepthScenes,duration_manipulation_targetAtFixation,jsons/VE83_randls_40_rotated.json,http://54.235.29.9/FacialAge/BNav_EC2/DepthDuration/v2_depth_duration_MTurk/v2_DepthDuration_HTML.html#17,17,1366,619,1366,768,8-29-2023,12-20-54,71,depth_duration_stimuli/003587_2014-05-23_16-48-02_094959634447_rgbf002384-resize_2/003587_2014-05-23_16-48-02_094959634447_rgbf002384-resize_2-target.png,83,1.357,5,2047,84,meters,jsons/VE83_randls_40_rotated.json,526286,1748984,30,Man
71,700133,DepthScenes,duration_manipulation_targetAtFixation,jsons/VE83_randls_40_rotated.json,http://54.235.29.9/FacialAge/BNav_EC2/DepthDuration/v2_depth_duration_MTurk/v2_DepthDuration_HTML.html#17,17,1366,619,1366,768,8-29-2023,12-20-54,72,depth_duration_stimuli/001167_2014-06-17_15-38-07_260595134347_rgbf000108-resize_0/001167_2014-06-17_15-38-07_260595134347_rgbf000108-resize_0-target.png,83,1.8505,4,2041,83,meters,jsons/VE83_randls_40_rotated.json,526286,1748984,30,Man
72,700133,DepthScenes,duration_manipulation_targetAtFixation,jsons/VE83_randls_40_rotated.json,http://54.235.29.9/FacialAge/BNav_EC2/DepthDuration/v2_depth_duration_MTurk/v2_DepthDuration_HTML.html#17,17,1366,619,1366,768,8-29-2023,12-20-54,73,depth_duration_stimuli/002568_2014-06-24_13-59-21_094959634447_rgbf000062-resize_4/002568_2014-06-24_13-59-21_094959634447_rgbf000062-resize_4-target.png,83,3.015,5,2957,83,meters,jsons/VE83_randls_40_rotated.json,526286,1748984,30,Man
73,700133,DepthScenes,duration_manipulation_targetAtFixation,jsons/VE83_randls_40_rotated.json,http://54.235.29.9/FacialAge/BNav_EC2/DepthDuration/v2_depth_duration_MTurk/v2_DepthDuration_HTML.html#17,17,1366,619,1366,768,8-29-2023,12-20-54,74,depth_duration_stimuli/003492_2014-05-21_15-50-55_094959634447_rgbf000828-resize_1/003492_2014-05-21_15-50-55_094959634447_rgbf000828-resize_1-target.png,83,4.06875,4,1922,84,meters,jsons/VE83_randls_40_rotated.json,526286,1748984,30,Man
74,700133,DepthScenes,duration_manipulation_targetAtFixation,jsons/VE83_randls_40_rotated.json,http://54.235.29.9/FacialAge/BNav_EC2/DepthDuration/v2_depth_duration_MTurk/v2_DepthDuration_HTML.html#17,17,1366,619,1366,768,8-29-2023,12-20-54,75,depth_duration_stimuli/001032_2014-06-08_13-23-17_260595134347_rgbf000021-resize_3/001032_2014-06-08_13-23-17_260595134347_rgbf000021-resize_3-target.png,83,3.2725,7,2083,83,meters,jsons/VE83_randls_40_rotated.json,526286,1748984,30,Man
75,700133,DepthScenes,duration_manipulation_targetAtFixation,jsons/VE83_randls_40_rotated.json,http://54.235.29.9/FacialAge/BNav_EC2/DepthDuration/v2_depth_duration_MTurk/v2_DepthDuration_HTML.html#17,17,1366,619,1366,768,8-29-2023,12-20-54,76,depth_duration_stimuli/001059_2014-06-08_21-53-27_260595134347_rgbf000061-resize_4/001059_2014-06-08_21-53-27_260595134347_rgbf000061-resize_4-target.png,83,2.4185,7,1980,84,meters,jsons/VE83_randls_40_rotated.json,526286,1748984,30,Man
76,700133,DepthScenes,duration_manipulation_targetAtFixation,jsons/VE83_randls_40_rotated.json,http://54.235.29.9/FacialAge/BNav_EC2/DepthDuration/v2_depth_duration_MTurk/v2_DepthDuration_HTML.html#17,17,1366,619,1366,768,8-29-2023,12-20-54,77,depth_duration_stimuli/002340_2014-06-28_20-05-46_260595134347_rgbf000113-resize_0/002340_2014-06-28_20-05-46_260595134347_rgbf000113-resize_0-target.png,83,2.4735,8,2458,84,meters,jsons/VE83_randls_40_rotated.json,526286,1748984,30,Man
77,700133,DepthScenes,duration_manipulation_targetAtFixation,jsons/VE83_randls_40_rotated.json,http://54.235.29.9/FacialAge/BNav_EC2/DepthDuration/v2_depth_duration_MTurk/v2_DepthDuration_HTML.html#17,17,1366,619,1366,768,8-29-2023,12-20-54,78,depth_duration_stimuli/001016_2014-06-09_16-16-10_260595134347_rgbf000112-resize_5/001016_2014-06-09_16-16-10_260595134347_rgbf000112-resize_5-target.png,83,1.6565,9,2027,82,meters,jsons/VE83_randls_40_rotated.json,526286,1748984,30,Man
78,700133,DepthScenes,duration_manipulation_targetAtFixation,jsons/VE83_randls_40_rotated.json,http://54.235.29.9/FacialAge/BNav_EC2/DepthDuration/v2_depth_duration_MTurk/v2_DepthDuration_HTML.html#17,17,1366,619,1366,768,8-29-2023,12-20-54,79,depth_duration_stimuli/003010_2014-06-15_12-54-35_094959634447_rgbf000112-resize_0/003010_2014-06-15_12-54-35_094959634447_rgbf000112-resize_0-target.png,83,3.1185,7,1993,83,meters,jsons/VE83_randls_40_rotated.json,526286,1748984,30,Man
79,700133,DepthScenes,duration_manipulation_targetAtFixation,jsons/VE83_randls_40_rotated.json,http://54.235.29.9/FacialAge/BNav_EC2/DepthDuration/v2_depth_duration_MTurk/v2_DepthDuration_HTML.html#17,17,1366,619,1366,768,8-29-2023,12-20-54,80,depth_duration_stimuli/001810_2014-06-26_20-51-35_260595134347_rgbf000040-resize_3/001810_2014-06-26_20-51-35_260595134347_rgbf000040-resize_3-target.png,83,2.2525,8,2077,83,meters,jsons/VE83_randls_40_rotated.json,526286,1748984,30,Man
80,700133,DepthScenes,duration_manipulation_targetAtFixation,jsons/VE83_randls_40_rotated.json,http://54.235.29.9/FacialAge/BNav_EC2/DepthDuration/v2_depth_duration_MTurk/v2_DepthDuration_HTML.html#17,17,1366,619,1366,768,8-29-2023,12-20-54,81,depth_duration_stimuli/000734_2014-06-08_17-39-11_260595134347_rgbf000128-resize_2/000734_2014-06-08_17-39-11_260595134347_rgbf000128-resize_2-target.png,83,4.098,5,2201,84,meters,jsons/VE83_randls_40_rotated.json,526286,1748984,30,Man
81,700133,DepthScenes,duration_manipulation_targetAtFixation,jsons/VE83_randls_40_rotated.json,http://54.235.29.9/FacialAge/BNav_EC2/DepthDuration/v2_depth_duration_MTurk/v2_DepthDuration_HTML.html#17,17,1366,619,1366,768,8-29-2023,12-20-54,82,depth_duration_stimuli/000739_2014-06-08_18-45-58_260595134347_rgbf000068-resize_1/000739_2014-06-08_18-45-58_260595134347_rgbf000068-resize_1-target.png,83,3.534,6,2611,82,meters,jsons/VE83_randls_40_rotated.json,526286,1748984,30,Man
82,700133,DepthScenes,duration_manipulation_targetAtFixation,jsons/VE83_randls_40_rotated.json,http://54.235.29.9/FacialAge/BNav_EC2/DepthDuration/v2_depth_duration_MTurk/v2_DepthDuration_HTML.html#17,17,1366,619,1366,768,8-29-2023,12-20-54,83,depth_duration_stimuli/001235_2014-06-17_16-37-36_260595134347_rgbf000084-resize_4/001235_2014-06-17_16-37-36_260595134347_rgbf000084-resize_4-target.png,83,3.6605,7,1957,84,meters,jsons/VE83_randls_40_rotated.json,526286,1748984,30,Man
83,700133,DepthScenes,duration_manipulation_targetAtFixation,jsons/VE83_randls_40_rotated.json,http://54.235.29.9/FacialAge/BNav_EC2/DepthDuration/v2_depth_duration_MTurk/v2_DepthDuration_HTML.html#17,17,1366,619,1366,768,8-29-2023,12-20-54,84,depth_duration_stimuli/000788_2014-06-08_22-34-36_260595134347_rgbf000131-resize_1/000788_2014-06-08_22-34-36_260595134347_rgbf000131-resize_1-target.png,83,3.359,4,2248,83,meters,jsons/VE83_randls_40_rotated.json,526286,1748984,30,Man
84,700133,DepthScenes,duration_manipulation_targetAtFixation,jsons/VE83_randls_40_rotated.json,http://54.235.29.9/FacialAge/BNav_EC2/DepthDuration/v2_depth_duration_MTurk/v2_DepthDuration_HTML.html#17,17,1366,619,1366,768,8-29-2023,12-20-54,85,depth_duration_stimuli/000549_2014-06-08_22-10-24_260595134347_rgbf000247-resize_3/000549_2014-06-08_22-10-24_260595134347_rgbf000247-resize_3-target.png,83,1.841,5,2243,83,meters,jsons/VE83_randls_40_rotated.json,526286,1748984,30,Man
85,700133,DepthScenes,duration_manipulation_targetAtFixation,jsons/VE83_randls_40_rotated.json,http://54.235.29.9/FacialAge/BNav_EC2/DepthDuration/v2_depth_duration_MTurk/v2_DepthDuration_HTML.html#17,17,1366,619,1366,768,8-29-2023,12-20-54,86,depth_duration_stimuli/001055_2014-06-08_18-45-35_260595134347_rgbf000111-resize_4/001055_2014-06-08_18-45-35_260595134347_rgbf000111-resize_4-target.png,83,2.4290000000000003,4,2532,84,meters,jsons/VE83_randls_40_rotated.json,526286,1748984,30,Man
86,700133,DepthScenes,duration_manipulation_targetAtFixation,jsons/VE83_randls_40_rotated.json,http://54.235.29.9/FacialAge/BNav_EC2/DepthDuration/v2_depth_duration_MTurk/v2_DepthDuration_HTML.html#17,17,1366,619,1366,768,8-29-2023,12-20-54,87,depth_duration_stimuli/003228_2014-05-14_13-42-35_094959634447_rgbf000101-resize_1/003228_2014-05-14_13-42-35_094959634447_rgbf000101-resize_1-target.png,83,1.9680000000000002,5,2250,84,meters,jsons/VE83_randls_40_rotated.json,526286,1748984,30,Man
87,700133,DepthScenes,duration_manipulation_targetAtFixation,jsons/VE83_randls_40_rotated.json,http://54.235.29.9/FacialAge/BNav_EC2/DepthDuration/v2_depth_duration_MTurk/v2_DepthDuration_HTML.html#17,17,1366,619,1366,768,8-29-2023,12-20-54,88,depth_duration_stimuli/002600_2014-06-24_14-27-04_094959634447_rgbf000074-resize_2/002600_2014-06-24_14-27-04_094959634447_rgbf000074-resize_2-target.png,83,2.7575,4,1826,83,meters,jsons/VE83_randls_40_rotated.json,526286,1748984,30,Man
88,700133,DepthScenes,duration_manipulation_targetAtFixation,jsons/VE83_randls_40_rotated.json,http://54.235.29.9/FacialAge/BNav_EC2/DepthDuration/v2_depth_duration_MTurk/v2_DepthDuration_HTML.html#17,17,1366,619,1366,768,8-29-2023,12-20-54,89,depth_duration_stimuli/001052_2014-06-08_18-24-54_260595134347_rgbf000130-resize_1/001052_2014-06-08_18-24-54_260595134347_rgbf000130-resize_1-target.png,83,4.1045,8,2894,83,meters,jsons/VE83_randls_40_rotated.json,526286,1748984,30,Man
89,700133,DepthScenes,duration_manipulation_targetAtFixation,jsons/VE83_randls_40_rotated.json,http://54.235.29.9/FacialAge/BNav_EC2/DepthDuration/v2_depth_duration_MTurk/v2_DepthDuration_HTML.html#17,17,1366,619,1366,768,8-29-2023,12-20-54,90,depth_duration_stimuli/002988_2014-06-15_12-24-20_094959634447_rgbf000150-resize_1/002988_2014-06-15_12-24-20_094959634447_rgbf000150-resize_1-target.png,83,4.7669999999999995,7,1915,84,meters,jsons/VE83_randls_40_rotated.json,526286,1748984,30,Man
90,700133,DepthScenes,duration_manipulation_targetAtFixation,jsons/VE83_randls_40_rotated.json,http://54.235.29.9/FacialAge/BNav_EC2/DepthDuration/v2_depth_duration_MTurk/v2_DepthDuration_HTML.html#17,17,1366,619,1366,768,8-29-2023,12-20-54,91,depth_duration_stimuli/001214_2014-06-17_16-13-55_260595134347_rgbf000111-resize_0/001214_2014-06-17_16-13-55_260595134347_rgbf000111-resize_0-target.png,83,2.6505,8,2281,83,meters,jsons/VE83_randls_40_rotated.json,526286,1748984,30,Man
91,700133,DepthScenes,duration_manipulation_targetAtFixation,jsons/VE83_randls_40_rotated.json,http://54.235.29.9/FacialAge/BNav_EC2/DepthDuration/v2_depth_duration_MTurk/v2_DepthDuration_HTML.html#17,17,1366,619,1366,768,8-29-2023,12-20-54,92,depth_duration_stimuli/000810_2014-06-08_17-20-01_260595134347_rgbf000105-resize_0/000810_2014-06-08_17-20-01_260595134347_rgbf000105-resize_0-target.png,83,1.4865,7,1907,84,meters,jsons/VE83_randls_40_rotated.json,526286,1748984,30,Man
92,700133,DepthScenes,duration_manipulation_targetAtFixation,jsons/VE83_randls_40_rotated.json,http://54.235.29.9/FacialAge/BNav_EC2/DepthDuration/v2_depth_duration_MTurk/v2_DepthDuration_HTML.html#17,17,1366,619,1366,768,8-29-2023,12-20-54,93,depth_duration_stimuli/002758_2014-06-22_19-11-20_094959634447_rgbf000128-resize_1/002758_2014-06-22_19-11-20_094959634447_rgbf000128-resize_1-target.png,83,2.555,8,1994,84,meters,jsons/VE83_randls_40_rotated.json,526286,1748984,30,Man
93,700133,DepthScenes,duration_manipulation_targetAtFixation,jsons/VE83_randls_40_rotated.json,http://54.235.29.9/FacialAge/BNav_EC2/DepthDuration/v2_depth_duration_MTurk/v2_DepthDuration_HTML.html#17,17,1366,619,1366,768,8-29-2023,12-20-54,94,depth_duration_stimuli/002630_2014-06-24_14-47-50_094959634447_rgbf000055-resize_1/002630_2014-06-24_14-47-50_094959634447_rgbf000055-resize_1-target.png,83,3.0095,5,2475,83,meters,jsons/VE83_randls_40_rotated.json,526286,1748984,30,Man
94,700133,DepthScenes,duration_manipulation_targetAtFixation,jsons/VE83_randls_40_rotated.json,http://54.235.29.9/FacialAge/BNav_EC2/DepthDuration/v2_depth_duration_MTurk/v2_DepthDuration_HTML.html#17,17,1366,619,1366,768,8-29-2023,12-20-54,95,depth_duration_stimuli/000665_2014-06-09_20-42-35_260595134347_rgbf000110-resize_1/000665_2014-06-09_20-42-35_260595134347_rgbf000110-resize_1-target.png,83,3.057,6,3141,83,meters,jsons/VE83_randls_40_rotated.json,526286,1748984,30,Man
95,700133,DepthScenes,duration_manipulation_targetAtFixation,jsons/VE83_randls_40_rotated.json,http://54.235.29.9/FacialAge/BNav_EC2/DepthDuration/v2_depth_duration_MTurk/v2_DepthDuration_HTML.html#17,17,1366,619,1366,768,8-29-2023,12-20-54,96,depth_duration_stimuli/001150_2014-06-17_15-27-34_260595134347_rgbf000108-resize_2/001150_2014-06-17_15-27-34_260595134347_rgbf000108-resize_2-target.png,83,4.0325,4,2883,83,meters,jsons/VE83_randls_40_rotated.json,526286,1748984,30,Man
96,700133,DepthScenes,duration_manipulation_targetAtFixation,jsons/VE83_randls_40_rotated.json,http://54.235.29.9/FacialAge/BNav_EC2/DepthDuration/v2_depth_duration_MTurk/v2_DepthDuration_HTML.html#17,17,1366,619,1366,768,8-29-2023,12-20-54,97,depth_duration_stimuli/000635_2014-06-08_16-38-42_260595134347_rgbf000106-resize_1/000635_2014-06-08_16-38-42_260595134347_rgbf000106-resize_1-target.png,83,2.074,5,2044,83,meters,jsons/VE83_randls_40_rotated.json,526286,1748984,30,Man
97,700133,DepthScenes,duration_manipulation_targetAtFixation,jsons/VE83_randls_40_rotated.json,http://54.235.29.9/FacialAge/BNav_EC2/DepthDuration/v2_depth_duration_MTurk/v2_DepthDuration_HTML.html#17,17,1366,619,1366,768,8-29-2023,12-20-54,98,depth_duration_stimuli/002279_2014-06-28_18-55-32_260595134347_rgbf000040-resize_5/002279_2014-06-28_18-55-32_260595134347_rgbf000040-resize_5-target.png,83,1.5043333333333,6,1841,84,meters,jsons/VE83_randls_40_rotated.json,526286,1748984,30,Man
98,700133,DepthScenes,duration_manipulation_targetAtFixation,jsons/VE83_randls_40_rotated.json,http://54.235.29.9/FacialAge/BNav_EC2/DepthDuration/v2_depth_duration_MTurk/v2_DepthDuration_HTML.html#17,17,1366,619,1366,768,8-29-2023,12-20-54,99,depth_duration_stimuli/001222_2014-06-17_16-24-06_260595134347_rgbf000073-resize_0/001222_2014-06-17_16-24-06_260595134347_rgbf000073-resize-original.jpg,83,1.4385,0,3052,83,meters,jsons/VE83_randls_40_rotated.json,526286,1748984,30,Man
99,700133,DepthScenes,duration_manipulation_targetAtFixation,jsons/VE83_randls_40_rotated.json,http://54.235.29.9/FacialAge/BNav_EC2/DepthDuration/v2_depth_duration_MTurk/v2_DepthDuration_HTML.html#17,17,1366,619,1366,768,8-29-2023,12-20-54,100,depth_duration_stimuli/001392_2014-06-19_16-07-59_260595134347_rgbf000046-resize_1/001392_2014-06-19_16-07-59_260595134347_rgbf000046-resize_1-target.png,83,4.135,4,17105,83,meters,jsons/VE83_randls_40_rotated.json,526286,1748984,30,Man
100,700133,DepthScenes,duration_manipulation_targetAtFixation,jsons/VE83_randls_40_rotated.json,http://54.235.29.9/FacialAge/BNav_EC2/DepthDuration/v2_depth_duration_MTurk/v2_DepthDuration_HTML.html#17,17,1366,619,1366,768,8-29-2023,12-20-54,101,depth_duration_stimuli/001570_2014-06-20_17-21-09_260595134347_rgbf000135-resize_4/001570_2014-06-20_17-21-09_260595134347_rgbf000135-resize_4-target.png,83,4.467,5,6043,84,meters,jsons/VE83_randls_40_rotated.json,526286,1748984,30,Man
101,700133,DepthScenes,duration_manipulation_targetAtFixation,jsons/VE83_randls_40_rotated.json,http://54.235.29.9/FacialAge/BNav_EC2/DepthDuration/v2_depth_duration_MTurk/v2_DepthDuration_HTML.html#17,17,1366,619,1366,768,8-29-2023,12-20-54,102,depth_duration_stimuli/001650_2014-06-20_12-09-00_260595134347_rgbf000087-resize_3/001650_2014-06-20_12-09-00_260595134347_rgbf000087-resize_3-target.png,83,1.9505,4,2298,83,meters,jsons/VE83_randls_40_rotated.json,526286,1748984,30,Man
102,700133,DepthScenes,duration_manipulation_targetAtFixation,jsons/VE83_randls_40_rotated.json,http://54.235.29.9/FacialAge/BNav_EC2/DepthDuration/v2_depth_duration_MTurk/v2_DepthDuration_HTML.html#17,17,1366,619,1366,768,8-29-2023,12-20-54,103,depth_duration_stimuli/000682_2014-06-08_23-14-58_260595134347_rgbf000041-resize_5/000682_2014-06-08_23-14-58_260595134347_rgbf000041-resize_5-target.png,83,2.7239999999999998,4,1984,84,meters,jsons/VE83_randls_40_rotated.json,526286,1748984,30,Man
103,700133,DepthScenes,duration_manipulation_targetAtFixation,jsons/VE83_randls_40_rotated.json,http://54.235.29.9/FacialAge/BNav_EC2/DepthDuration/v2_depth_duration_MTurk/v2_DepthDuration_HTML.html#17,17,1366,619,1366,768,8-29-2023,12-20-54,104,depth_duration_stimuli/002209_2014-06-28_18-36-10_260595134347_rgbf000051-resize_1/002209_2014-06-28_18-36-10_260595134347_rgbf000051-resize_1-target.png,83,2.057,5,2164,84,meters,jsons/VE83_randls_40_rotated.json,526286,1748984,30,Man
104,700133,DepthScenes,duration_manipulation_targetAtFixation,jsons/VE83_randls_40_rotated.json,http://54.235.29.9/FacialAge/BNav_EC2/DepthDuration/v2_depth_duration_MTurk/v2_DepthDuration_HTML.html#17,17,1366,619,1366,768,8-29-2023,12-20-54,105,depth_duration_stimuli/002763_2014-06-22_19-13-10_094959634447_rgbf000075-resize_4/002763_2014-06-22_19-13-10_094959634447_rgbf000075-resize_4-target.png,83,1.68375,6,2452,83,meters,jsons/VE83_randls_40_rotated.json,526286,1748984,30,Man
105,700133,DepthScenes,duration_manipulation_targetAtFixation,jsons/VE83_randls_40_rotated.json,http://54.235.29.9/FacialAge/BNav_EC2/DepthDuration/v2_depth_duration_MTurk/v2_DepthDuration_HTML.html#17,17,1366,619,1366,768,8-29-2023,12-20-54,106,depth_duration_stimuli/001571_2014-06-20_17-21-32_260595134347_rgbf000089-resize_1/001571_2014-06-20_17-21-32_260595134347_rgbf000089-resize_1-target.png,83,1.86,5,2881,83,meters,jsons/VE83_randls_40_rotated.json,526286,1748984,30,Man
106,700133,DepthScenes,duration_manipulation_targetAtFixation,jsons/VE83_randls_40_rotated.json,http://54.235.29.9/FacialAge/BNav_EC2/DepthDuration/v2_depth_duration_MTurk/v2_DepthDuration_HTML.html#17,17,1366,619,1366,768,8-29-2023,12-20-54,107,depth_duration_stimuli/002272_2014-06-28_18-53-56_260595134347_rgbf000067-resize_2/002272_2014-06-28_18-53-56_260595134347_rgbf000067-resize_2-target.png,83,1.138,4,2229,83,meters,jsons/VE83_randls_40_rotated.json,526286,1748984,30,Man
107,700133,DepthScenes,duration_manipulation_targetAtFixation,jsons/VE83_randls_40_rotated.json,http://54.235.29.9/FacialAge/BNav_EC2/DepthDuration/v2_depth_duration_MTurk/v2_DepthDuration_HTML.html#17,17,1366,619,1366,768,8-29-2023,12-20-54,108,depth_duration_stimuli/003048_2014-06-15_13-49-43_094959634447_rgbf000150-resize_1/003048_2014-06-15_13-49-43_094959634447_rgbf000150-resize_1-target.png,83,4.0035,5,3747,83,meters,jsons/VE83_randls_40_rotated.json,526286,1748984,30,Man
108,700133,DepthScenes,duration_manipulation_targetAtFixation,jsons/VE83_randls_40_rotated.json,http://54.235.29.9/FacialAge/BNav_EC2/DepthDuration/v2_depth_duration_MTurk/v2_DepthDuration_HTML.html#17,17,1366,619,1366,768,8-29-2023,12-20-54,109,depth_duration_stimuli/002043_2014-06-24_20-29-38_260595134347_rgbf000039-resize_4/002043_2014-06-24_20-29-38_260595134347_rgbf000039-resize_4-target.png,83,2.8435,4,1873,83,meters,jsons/VE83_randls_40_rotated.json,526286,1748984,30,Man
109,700133,DepthScenes,duration_manipulation_targetAtFixation,jsons/VE83_randls_40_rotated.json,http://54.235.29.9/FacialAge/BNav_EC2/DepthDuration/v2_depth_duration_MTurk/v2_DepthDuration_HTML.html#17,17,1366,619,1366,768,8-29-2023,12-20-54,110,depth_duration_stimuli/003129_2014-05-12_10-48-10_094959634447_rgbf000100-resize_0/003129_2014-05-12_10-48-10_094959634447_rgbf000100-resize_0-target.png,83,4.9305,6,2068,83,meters,jsons/VE83_randls_40_rotated.json,526286,1748984,30,Man
110,700133,DepthScenes,duration_manipulation_targetAtFixation,jsons/VE83_randls_40_rotated.json,http://54.235.29.9/FacialAge/BNav_EC2/DepthDuration/v2_depth_duration_MTurk/v2_DepthDuration_HTML.html#17,17,1366,619,1366,768,8-29-2023,12-20-54,111,depth_duration_stimuli/000414_2014-06-04_19-49-13_260595134347_rgbf000044-resize_0/000414_2014-06-04_19-49-13_260595134347_rgbf000044-resize_0-target.png,83,4.329,5,1730,83,meters,jsons/VE83_randls_40_rotated.json,526286,1748984,30,Man
111,700133,DepthScenes,duration_manipulation_targetAtFixation,jsons/VE83_randls_40_rotated.json,http://54.235.29.9/FacialAge/BNav_EC2/DepthDuration/v2_depth_duration_MTurk/v2_DepthDuration_HTML.html#17,17,1366,619,1366,768,8-29-2023,12-20-54,112,depth_duration_stimuli/002344_2014-06-28_20-06-29_260595134347_rgbf000030-resize_1/002344_2014-06-28_20-06-29_260595134347_rgbf000030-resize_1-target.png,83,1.5795,4,1834,84,meters,jsons/VE83_randls_40_rotated.json,526286,1748984,30,Man
112,700133,DepthScenes,duration_manipulation_targetAtFixation,jsons/VE83_randls_40_rotated.json,http://54.235.29.9/FacialAge/BNav_EC2/DepthDuration/v2_depth_duration_MTurk/v2_DepthDuration_HTML.html#17,17,1366,619,1366,768,8-29-2023,12-20-54,113,depth_duration_stimuli/002725_2014-06-22_11-47-51_094959634447_rgbf000070-resize_1/002725_2014-06-22_11-47-51_094959634447_rgbf000070-resize_1-target.png,83,2.195,7,2171,83,meters,jsons/VE83_randls_40_rotated.json,526286,1748984,30,Man
113,700133,DepthScenes,duration_manipulation_targetAtFixation,jsons/VE83_randls_40_rotated.json,http://54.235.29.9/FacialAge/BNav_EC2/DepthDuration/v2_depth_duration_MTurk/v2_DepthDuration_HTML.html#17,17,1366,619,1366,768,8-29-2023,12-20-54,114,depth_duration_stimuli/000556_2014-06-09_22-42-56_260595134347_rgbf000214-resize_1/000556_2014-06-09_22-42-56_260595134347_rgbf000214-resize_1-target.png,83,4.8415,5,1830,83,meters,jsons/VE83_randls_40_rotated.json,526286,1748984,30,Man
114,700133,DepthScenes,duration_manipulation_targetAtFixation,jsons/VE83_randls_40_rotated.json,http://54.235.29.9/FacialAge/BNav_EC2/DepthDuration/v2_depth_duration_MTurk/v2_DepthDuration_HTML.html#17,17,1366,619,1366,768,8-29-2023,12-20-54,115,depth_duration_stimuli/001158_2014-06-17_15-32-16_260595134347_rgbf000138-resize_2/001158_2014-06-17_15-32-16_260595134347_rgbf000138-resize_2-target.png,83,4.5315,4,1795,83,meters,jsons/VE83_randls_40_rotated.json,526286,1748984,30,Man
115,700133,DepthScenes,duration_manipulation_targetAtFixation,jsons/VE83_randls_40_rotated.json,http://54.235.29.9/FacialAge/BNav_EC2/DepthDuration/v2_depth_duration_MTurk/v2_DepthDuration_HTML.html#17,17,1366,619,1366,768,8-29-2023,12-20-54,116,depth_duration_stimuli/000103_2014-05-14_22-01-17_260595134347_rgbf000152-resize_5/000103_2014-05-14_22-01-17_260595134347_rgbf000152-resize_5-target.png,83,1.993,7,1865,84,meters,jsons/VE83_randls_40_rotated.json,526286,1748984,30,Man
116,700133,DepthScenes,duration_manipulation_targetAtFixation,jsons/VE83_randls_40_rotated.json,http://54.235.29.9/FacialAge/BNav_EC2/DepthDuration/v2_depth_duration_MTurk/v2_DepthDuration_HTML.html#17,17,1366,619,1366,768,8-29-2023,12-20-54,117,depth_duration_stimuli/001555_2014-06-20_17-12-10_260595134347_rgbf000065-resize_4/001555_2014-06-20_17-12-10_260595134347_rgbf000065-resize_4-target.png,83,1.633,4,1786,82,meters,jsons/VE83_randls_40_rotated.json,526286,1748984,30,Man
117,700133,DepthScenes,duration_manipulation_targetAtFixation,jsons/VE83_randls_40_rotated.json,http://54.235.29.9/FacialAge/BNav_EC2/DepthDuration/v2_depth_duration_MTurk/v2_DepthDuration_HTML.html#17,17,1366,619,1366,768,8-29-2023,12-20-54,118,depth_duration_stimuli/001136_2014-06-17_15-19-41_260595134347_rgbf000076-resize_3/001136_2014-06-17_15-19-41_260595134347_rgbf000076-resize_3-target.png,83,1.8655,5,2764,83,meters,jsons/VE83_randls_40_rotated.json,526286,1748984,30,Man
118,700133,DepthScenes,duration_manipulation_targetAtFixation,jsons/VE83_randls_40_rotated.json,http://54.235.29.9/FacialAge/BNav_EC2/DepthDuration/v2_depth_duration_MTurk/v2_DepthDuration_HTML.html#17,17,1366,619,1366,768,8-29-2023,12-20-54,119,depth_duration_stimuli/001164_2014-06-17_15-35-46_260595134347_rgbf000085-resize_3/001164_2014-06-17_15-35-46_260595134347_rgbf000085-resize_3-target.png,83,2.354,5,2051,84,meters,jsons/VE83_randls_40_rotated.json,526286,1748984,30,Man
119,700133,DepthScenes,duration_manipulation_targetAtFixation,jsons/VE83_randls_40_rotated.json,http://54.235.29.9/FacialAge/BNav_EC2/DepthDuration/v2_depth_duration_MTurk/v2_DepthDuration_HTML.html#17,17,1366,619,1366,768,8-29-2023,12-20-54,120,depth_duration_stimuli/000787_2014-06-08_22-33-53_260595134347_rgbf000175-resize_1/000787_2014-06-08_22-33-53_260595134347_rgbf000175-resize-original.jpg,83,4.784,0,2897,83,meters,jsons/VE83_randls_40_rotated.json,526286,1748984,30,Man
120,700133,DepthScenes,duration_manipulation_targetAtFixation,jsons/VE83_randls_40_rotated.json,http://54.235.29.9/FacialAge/BNav_EC2/DepthDuration/v2_depth_duration_MTurk/v2_DepthDuration_HTML.html#17,17,1366,619,1366,768,8-29-2023,12-20-54,121,depth_duration_stimuli/001447_2014-06-19_17-00-32_260595134347_rgbf000082-resize_5/001447_2014-06-19_17-00-32_260595134347_rgbf000082-resize_5-target.png,83,4.13775,4,2669,83,meters,jsons/VE83_randls_40_rotated.json,526286,1748984,30,Man
121,700133,DepthScenes,duration_manipulation_targetAtFixation,jsons/VE83_randls_40_rotated.json,http://54.235.29.9/FacialAge/BNav_EC2/DepthDuration/v2_depth_duration_MTurk/v2_DepthDuration_HTML.html#17,17,1366,619,1366,768,8-29-2023,12-20-54,122,depth_duration_stimuli/000447_2014-06-08_16-15-46_260595134347_rgbf000130-resize_1/000447_2014-06-08_16-15-46_260595134347_rgbf000130-resize_1-target.png,83,4.479,5,12569,84,meters,jsons/VE83_randls_40_rotated.json,526286,1748984,30,Man
122,700133,DepthScenes,duration_manipulation_targetAtFixation,jsons/VE83_randls_40_rotated.json,http://54.235.29.9/FacialAge/BNav_EC2/DepthDuration/v2_depth_duration_MTurk/v2_DepthDuration_HTML.html#17,17,1366,619,1366,768,8-29-2023,12-20-54,123,depth_duration_stimuli/001815_2014-06-26_20-52-55_260595134347_rgbf000020-resize_0/001815_2014-06-26_20-52-55_260595134347_rgbf000020-resize_0-target.png,83,3.3865,5,1843,84,meters,jsons/VE83_randls_40_rotated.json,526286,1748984,30,Man
123,700133,DepthScenes,duration_manipulation_targetAtFixation,jsons/VE83_randls_40_rotated.json,http://54.235.29.9/FacialAge/BNav_EC2/DepthDuration/v2_depth_duration_MTurk/v2_DepthDuration_HTML.html#17,17,1366,619,1366,768,8-29-2023,12-20-54,124,depth_duration_stimuli/001808_2014-06-26_20-50-58_260595134347_rgbf000029-resize_1/001808_2014-06-26_20-50-58_260595134347_rgbf000029-resize_1-target.png,83,4.249,4,1867,83,meters,jsons/VE83_randls_40_rotated.json,526286,1748984,30,Man
124,700133,DepthScenes,duration_manipulation_targetAtFixation,jsons/VE83_randls_40_rotated.json,http://54.235.29.9/FacialAge/BNav_EC2/DepthDuration/v2_depth_duration_MTurk/v2_DepthDuration_HTML.html#17,17,1366,619,1366,768,8-29-2023,12-20-54,125,depth_duration_stimuli/000866_2014-06-09_20-45-42_260595134347_rgbf000139-resize_1/000866_2014-06-09_20-45-42_260595134347_rgbf000139-resize_1-target.png,83,3.2155,5,2165,83,meters,jsons/VE83_randls_40_rotated.json,526286,1748984,30,Man
125,700133,DepthScenes,duration_manipulation_targetAtFixation,jsons/VE83_randls_40_rotated.json,http://54.235.29.9/FacialAge/BNav_EC2/DepthDuration/v2_depth_duration_MTurk/v2_DepthDuration_HTML.html#17,17,1366,619,1366,768,8-29-2023,12-20-54,126,depth_duration_stimuli/002989_2014-06-15_12-25-03_094959634447_rgbf000150-resize_3/002989_2014-06-15_12-25-03_094959634447_rgbf000150-resize_3-target.png,83,4.1975,4,2491,84,meters,jsons/VE83_randls_40_rotated.json,526286,1748984,30,Man
126,700133,DepthScenes,duration_manipulation_targetAtFixation,jsons/VE83_randls_40_rotated.json,http://54.235.29.9/FacialAge/BNav_EC2/DepthDuration/v2_depth_duration_MTurk/v2_DepthDuration_HTML.html#17,17,1366,619,1366,768,8-29-2023,12-20-54,127,depth_duration_stimuli/003490_2014-05-21_15-50-11_094959634447_rgbf000101-resize_3/003490_2014-05-21_15-50-11_094959634447_rgbf000101-resize_3-target.png,83,3.6445,5,2458,84,meters,jsons/VE83_randls_40_rotated.json,526286,1748984,30,Man
127,700133,DepthScenes,duration_manipulation_targetAtFixation,jsons/VE83_randls_40_rotated.json,http://54.235.29.9/FacialAge/BNav_EC2/DepthDuration/v2_depth_duration_MTurk/v2_DepthDuration_HTML.html#17,17,1366,619,1366,768,8-29-2023,12-20-54,128,depth_duration_stimuli/001175_2014-06-17_15-45-55_260595134347_rgbf000129-resize_4/001175_2014-06-17_15-45-55_260595134347_rgbf000129-resize_4-target.png,83,4.255,6,2169,84,meters,jsons/VE83_randls_40_rotated.json,526286,1748984,30,Man
128,700133,DepthScenes,duration_manipulation_targetAtFixation,jsons/VE83_randls_40_rotated.json,http://54.235.29.9/FacialAge/BNav_EC2/DepthDuration/v2_depth_duration_MTurk/v2_DepthDuration_HTML.html#17,17,1366,619,1366,768,8-29-2023,12-20-54,129,depth_duration_stimuli/001516_2014-06-20_16-25-09_260595134347_rgbf000076-resize_2/001516_2014-06-20_16-25-09_260595134347_rgbf000076-resize_2-target.png,83,1.7445,4,1787,83,meters,jsons/VE83_randls_40_rotated.json,526286,1748984,30,Man
129,700133,DepthScenes,duration_manipulation_targetAtFixation,jsons/VE83_randls_40_rotated.json,http://54.235.29.9/FacialAge/BNav_EC2/DepthDuration/v2_depth_duration_MTurk/v2_DepthDuration_HTML.html#17,17,1366,619,1366,768,8-29-2023,12-20-54,130,depth_duration_stimuli/002118_2014-06-25_20-32-08_260595134347_rgbf000078-resize_1/002118_2014-06-25_20-32-08_260595134347_rgbf000078-resize_1-target.png,83,2.6460000000000004,7,2460,84,meters,jsons/VE83_randls_40_rotated.json,526286,1748984,30,Man
130,700133,DepthScenes,duration_manipulation_targetAtFixation,jsons/VE83_randls_40_rotated.json,http://54.235.29.9/FacialAge/BNav_EC2/DepthDuration/v2_depth_duration_MTurk/v2_DepthDuration_HTML.html#17,17,1366,619,1366,768,8-29-2023,12-20-54,131,depth_duration_stimuli/000677_2014-06-08_23-10-32_260595134347_rgbf000158-resize_6/000677_2014-06-08_23-10-32_260595134347_rgbf000158-resize_6-target.png,83,3.556,8,1722,83,meters,jsons/VE83_randls_40_rotated.json,526286,1748984,30,Man
131,700133,DepthScenes,duration_manipulation_targetAtFixation,jsons/VE83_randls_40_rotated.json,http://54.235.29.9/FacialAge/BNav_EC2/DepthDuration/v2_depth_duration_MTurk/v2_DepthDuration_HTML.html#17,17,1366,619,1366,768,8-29-2023,12-20-54,132,depth_duration_stimuli/001029_2014-06-08_13-17-57_260595134347_rgbf000065-resize_1/001029_2014-06-08_13-17-57_260595134347_rgbf000065-resize_1-target.png,83,3.0835,8,3116,82,meters,jsons/VE83_randls_40_rotated.json,526286,1748984,30,Man
132,700133,DepthScenes,duration_manipulation_targetAtFixation,jsons/VE83_randls_40_rotated.json,http://54.235.29.9/FacialAge/BNav_EC2/DepthDuration/v2_depth_duration_MTurk/v2_DepthDuration_HTML.html#17,17,1366,619,1366,768,8-29-2023,12-20-54,133,depth_duration_stimuli/001584_2014-06-20_11-07-43_260595134347_rgbf000002-resize_1/001584_2014-06-20_11-07-43_260595134347_rgbf000002-resize_1-target.png,83,3.53,7,2457,83,meters,jsons/VE83_randls_40_rotated.json,526286,1748984,30,Man
133,700133,DepthScenes,duration_manipulation_targetAtFixation,jsons/VE83_randls_40_rotated.json,http://54.235.29.9/FacialAge/BNav_EC2/DepthDuration/v2_depth_duration_MTurk/v2_DepthDuration_HTML.html#17,17,1366,619,1366,768,8-29-2023,12-20-54,134,depth_duration_stimuli/003621_2014-05-23_18-06-08_094959634447_rgbf000101-resize_1/003621_2014-05-23_18-06-08_094959634447_rgbf000101-resize_1-target.png,83,3.9835,4,1973,83,meters,jsons/VE83_randls_40_rotated.json,526286,1748984,30,Man
134,700133,DepthScenes,duration_manipulation_targetAtFixation,jsons/VE83_randls_40_rotated.json,http://54.235.29.9/FacialAge/BNav_EC2/DepthDuration/v2_depth_duration_MTurk/v2_DepthDuration_HTML.html#17,17,1366,619,1366,768,8-29-2023,12-20-54,135,depth_duration_stimuli/000375_2014-06-08_11-17-29_260595134347_rgbf000133-resize_2/000375_2014-06-08_11-17-29_260595134347_rgbf000133-resize-original.jpg,83,4.718,0,2865,84,meters,jsons/VE83_randls_40_rotated.json,526286,1748984,30,Man
135,700133,DepthScenes,duration_manipulation_targetAtFixation,jsons/VE83_randls_40_rotated.json,http://54.235.29.9/FacialAge/BNav_EC2/DepthDuration/v2_depth_duration_MTurk/v2_DepthDuration_HTML.html#17,17,1366,619,1366,768,8-29-2023,12-20-54,136,depth_duration_stimuli/002639_2014-06-24_14-51-37_094959634447_rgbf000074-resize_4/002639_2014-06-24_14-51-37_094959634447_rgbf000074-resize_4-target.png,83,4.0375,4,2636,83,meters,jsons/VE83_randls_40_rotated.json,526286,1748984,30,Man
136,700133,DepthScenes,duration_manipulation_targetAtFixation,jsons/VE83_randls_40_rotated.json,http://54.235.29.9/FacialAge/BNav_EC2/DepthDuration/v2_depth_duration_MTurk/v2_DepthDuration_HTML.html#17,17,1366,619,1366,768,8-29-2023,12-20-54,137,depth_duration_stimuli/003292_2014-05-14_21-53-49_094959634447_rgbf000100-resize_2/003292_2014-05-14_21-53-49_094959634447_rgbf000100-resize_2-target.png,83,3.4815,5,2569,84,meters,jsons/VE83_randls_40_rotated.json,526286,1748984,30,Man
137,700133,DepthScenes,duration_manipulation_targetAtFixation,jsons/VE83_randls_40_rotated.json,http://54.235.29.9/FacialAge/BNav_EC2/DepthDuration/v2_depth_duration_MTurk/v2_DepthDuration_HTML.html#17,17,1366,619,1366,768,8-29-2023,12-20-54,138,depth_duration_stimuli/000854_2014-06-09_19-43-13_260595134347_rgbf000066-resize_0/000854_2014-06-09_19-43-13_260595134347_rgbf000066-resize_0-target.png,83,3.068,5,1779,82,meters,jsons/VE83_randls_40_rotated.json,526286,1748984,30,Man
138,700133,DepthScenes,duration_manipulation_targetAtFixation,jsons/VE83_randls_40_rotated.json,http://54.235.29.9/FacialAge/BNav_EC2/DepthDuration/v2_depth_duration_MTurk/v2_DepthDuration_HTML.html#17,17,1366,619,1366,768,8-29-2023,12-20-54,139,depth_duration_stimuli/000758_2014-06-08_22-05-08_260595134347_rgbf000085-resize_0/000758_2014-06-08_22-05-08_260595134347_rgbf000085-resize_0-target.png,83,3.3810000000000002,4,1740,84,meters,jsons/VE83_randls_40_rotated.json,526286,1748984,30,Man
139,700133,DepthScenes,duration_manipulation_targetAtFixation,jsons/VE83_randls_40_rotated.json,http://54.235.29.9/FacialAge/BNav_EC2/DepthDuration/v2_depth_duration_MTurk/v2_DepthDuration_HTML.html#17,17,1366,619,1366,768,8-29-2023,12-20-54,140,depth_duration_stimuli/000409_2014-06-04_19-23-33_260595134347_rgbf000067-resize_0/000409_2014-06-04_19-23-33_260595134347_rgbf000067-resize_0-target.png,83,3.7335,6,1738,84,meters,jsons/VE83_randls_40_rotated.json,526286,1748984,30,Man
140,700133,DepthScenes,duration_manipulation_targetAtFixation,jsons/VE83_randls_40_rotated.json,http://54.235.29.9/FacialAge/BNav_EC2/DepthDuration/v2_depth_duration_MTurk/v2_DepthDuration_HTML.html#17,17,1366,619,1366,768,8-29-2023,12-20-54,141,depth_duration_stimuli/002663_2014-06-13_15-50-26_094959634447_rgbf000075-resize_1/002663_2014-06-13_15-50-26_094959634447_rgbf000075-resize_1-target.png,83,4.7495,5,2692,83,meters,jsons/VE83_randls_40_rotated.json,526286,1748984,30,Man
141,700133,DepthScenes,duration_manipulation_targetAtFixation,jsons/VE83_randls_40_rotated.json,http://54.235.29.9/FacialAge/BNav_EC2/DepthDuration/v2_depth_duration_MTurk/v2_DepthDuration_HTML.html#17,17,1366,619,1366,768,8-29-2023,12-20-54,142,depth_duration_stimuli/002323_2014-06-28_20-01-54_260595134347_rgbf000051-resize_4/002323_2014-06-28_20-01-54_260595134347_rgbf000051-resize_4-target.png,83,3.7310000000000003,4,2720,83,meters,jsons/VE83_randls_40_rotated.json,526286,1748984,30,Man
142,700133,DepthScenes,duration_manipulation_targetAtFixation,jsons/VE83_randls_40_rotated.json,http://54.235.29.9/FacialAge/BNav_EC2/DepthDuration/v2_depth_duration_MTurk/v2_DepthDuration_HTML.html#17,17,1366,619,1366,768,8-29-2023,12-20-54,143,depth_duration_stimuli/000917_2014-06-09_22-45-29_260595134347_rgbf000149-resize_3/000917_2014-06-09_22-45-29_260595134347_rgbf000149-resize_3-target.png,83,4.1865,7,4159,83,meters,jsons/VE83_randls_40_rotated.json,526286,1748984,30,Man
143,700133,DepthScenes,duration_manipulation_targetAtFixation,jsons/VE83_randls_40_rotated.json,http://54.235.29.9/FacialAge/BNav_EC2/DepthDuration/v2_depth_duration_MTurk/v2_DepthDuration_HTML.html#17,17,1366,619,1366,768,8-29-2023,12-20-54,144,depth_duration_stimuli/002995_2014-06-15_12-31-26_094959634447_rgbf000150-resize_1/002995_2014-06-15_12-31-26_094959634447_rgbf000150-resize_1-target.png,83,3.8360000000000003,4,2397,83,meters,jsons/VE83_randls_40_rotated.json,526286,1748984,30,Man
144,700133,DepthScenes,duration_manipulation_targetAtFixation,jsons/VE83_randls_40_rotated.json,http://54.235.29.9/FacialAge/BNav_EC2/DepthDuration/v2_depth_duration_MTurk/v2_DepthDuration_HTML.html#17,17,1366,619,1366,768,8-29-2023,12-20-54,145,depth_duration_stimuli/002748_2014-06-22_19-07-22_094959634447_rgbf000078-resize_1/002748_2014-06-22_19-07-22_094959634447_rgbf000078-resize_1-target.png,83,4.6705,8,3042,81,meters,jsons/VE83_randls_40_rotated.json,526286,1748984,30,Man
145,700133,DepthScenes,duration_manipulation_targetAtFixation,jsons/VE83_randls_40_rotated.json,http://54.235.29.9/FacialAge/BNav_EC2/DepthDuration/v2_depth_duration_MTurk/v2_DepthDuration_HTML.html#17,17,1366,619,1366,768,8-29-2023,12-20-54,146,depth_duration_stimuli/002414_2014-06-28_20-24-58_260595134347_rgbf000067-resize_4/002414_2014-06-28_20-24-58_260595134347_rgbf000067-resize_4-target.png,83,4.363,7,1931,84,meters,jsons/VE83_randls_40_rotated.json,526286,1748984,30,Man
146,700133,DepthScenes,duration_manipulation_targetAtFixation,jsons/VE83_randls_40_rotated.json,http://54.235.29.9/FacialAge/BNav_EC2/DepthDuration/v2_depth_duration_MTurk/v2_DepthDuration_HTML.html#17,17,1366,619,1366,768,8-29-2023,12-20-54,147,depth_duration_stimuli/000773_2014-06-08_22-24-54_260595134347_rgbf000093-resize_1/000773_2014-06-08_22-24-54_260595134347_rgbf000093-resize_1-target.png,83,4.973,8,1786,83,meters,jsons/VE83_randls_40_rotated.json,526286,1748984,30,Man
147,700133,DepthScenes,duration_manipulation_targetAtFixation,jsons/VE83_randls_40_rotated.json,http://54.235.29.9/FacialAge/BNav_EC2/DepthDuration/v2_depth_duration_MTurk/v2_DepthDuration_HTML.html#17,17,1366,619,1366,768,8-29-2023,12-20-54,148,depth_duration_stimuli/001450_2014-06-19_17-02-03_260595134347_rgbf000203-resize_4/001450_2014-06-19_17-02-03_260595134347_rgbf000203-resize_4-target.png,83,4.0106666666667,7,1748,85,meters,jsons/VE83_randls_40_rotated.json,526286,1748984,30,Man
148,700133,DepthScenes,duration_manipulation_targetAtFixation,jsons/VE83_randls_40_rotated.json,http://54.235.29.9/FacialAge/BNav_EC2/DepthDuration/v2_depth_duration_MTurk/v2_DepthDuration_HTML.html#17,17,1366,619,1366,768,8-29-2023,12-20-54,149,depth_duration_stimuli/001449_2014-06-19_17-01-27_260595134347_rgbf000116-resize_2/001449_2014-06-19_17-01-27_260595134347_rgbf000116-resize_2-target.png,83,3.452,8,1851,83,meters,jsons/VE83_randls_40_rotated.json,526286,1748984,30,Man
149,700133,DepthScenes,duration_manipulation_targetAtFixation,jsons/VE83_randls_40_rotated.json,http://54.235.29.9/FacialAge/BNav_EC2/DepthDuration/v2_depth_duration_MTurk/v2_DepthDuration_HTML.html#17,17,1366,619,1366,768,8-29-2023,12-20-54,150,depth_duration_stimuli/002657_2014-06-13_15-29-54_094959634447_rgbf000150-resize_1/002657_2014-06-13_15-29-54_094959634447_rgbf000150-resize_1-target.png,83,4.919,7,2450,82,meters,jsons/VE83_randls_40_rotated.json,526286,1748984,30,Man
150,700133,DepthScenes,duration_manipulation_targetAtFixation,jsons/VE83_randls_40_rotated.json,http://54.235.29.9/FacialAge/BNav_EC2/DepthDuration/v2_depth_duration_MTurk/v2_DepthDuration_HTML.html#17,17,1366,619,1366,768,8-29-2023,12-20-54,151,depth_duration_stimuli/002375_2014-06-28_20-13-44_260595134347_rgbf000032-resize_1/002375_2014-06-28_20-13-44_260595134347_rgbf000032-resize_1-target.png,83,4.0175,8,1835,84,meters,jsons/VE83_randls_40_rotated.json,526286,1748984,30,Man
151,700133,DepthScenes,duration_manipulation_targetAtFixation,jsons/VE83_randls_40_rotated.json,http://54.235.29.9/FacialAge/BNav_EC2/DepthDuration/v2_depth_duration_MTurk/v2_DepthDuration_HTML.html#17,17,1366,619,1366,768,8-29-2023,12-20-54,152,depth_duration_stimuli/000569_2014-06-09_22-51-47_260595134347_rgbf000141-resize_3/000569_2014-06-09_22-51-47_260595134347_rgbf000141-resize-original.jpg,83,4.512,0,2987,82,meters,jsons/VE83_randls_40_rotated.json,526286,1748984,30,Man
152,700133,DepthScenes,duration_manipulation_targetAtFixation,jsons/VE83_randls_40_rotated.json,http://54.235.29.9/FacialAge/BNav_EC2/DepthDuration/v2_depth_duration_MTurk/v2_DepthDuration_HTML.html#17,17,1366,619,1366,768,8-29-2023,12-20-54,153,depth_duration_stimuli/002875_2014-06-01_15-19-00_094959634447_rgbf000151-resize_1/002875_2014-06-01_15-19-00_094959634447_rgbf000151-resize_1-target.png,83,1.9675,4,2131,83,meters,jsons/VE83_randls_40_rotated.json,526286,1748984,30,Man
153,700133,DepthScenes,duration_manipulation_targetAtFixation,jsons/VE83_randls_40_rotated.json,http://54.235.29.9/FacialAge/BNav_EC2/DepthDuration/v2_depth_duration_MTurk/v2_DepthDuration_HTML.html#17,17,1366,619,1366,768,8-29-2023,12-20-54,154,depth_duration_stimuli/001011_2014-06-08_23-18-54_260595134347_rgbf000044-resize_4/001011_2014-06-08_23-18-54_260595134347_rgbf000044-resize_4-target.png,83,2.4730000000000003,5,2074,83,meters,jsons/VE83_randls_40_rotated.json,526286,1748984,30,Man
154,700133,DepthScenes,duration_manipulation_targetAtFixation,jsons/VE83_randls_40_rotated.json,http://54.235.29.9/FacialAge/BNav_EC2/DepthDuration/v2_depth_duration_MTurk/v2_DepthDuration_HTML.html#17,17,1366,619,1366,768,8-29-2023,12-20-54,155,depth_duration_stimuli/001828_2014-06-26_21-40-03_260595134347_rgbf000024-resize_0/001828_2014-06-26_21-40-03_260595134347_rgbf000024-resize_0-target.png,83,4.8260000000000005,4,2250,84,meters,jsons/VE83_randls_40_rotated.json,526286,1748984,30,Man
155,700133,DepthScenes,duration_manipulation_targetAtFixation,jsons/VE83_randls_40_rotated.json,http://54.235.29.9/FacialAge/BNav_EC2/DepthDuration/v2_depth_duration_MTurk/v2_DepthDuration_HTML.html#17,17,1366,619,1366,768,8-29-2023,12-20-54,156,depth_duration_stimuli/000009_2014-05-26_14-32-05_260595134347_rgbf000034-resize_3/000009_2014-05-26_14-32-05_260595134347_rgbf000034-resize_3-target.png,83,3.8715,6,2317,83,meters,jsons/VE83_randls_40_rotated.json,526286,1748984,30,Man
156,700133,DepthScenes,duration_manipulation_targetAtFixation,jsons/VE83_randls_40_rotated.json,http://54.235.29.9/FacialAge/BNav_EC2/DepthDuration/v2_depth_duration_MTurk/v2_DepthDuration_HTML.html#17,17,1366,619,1366,768,8-29-2023,12-20-54,157,depth_duration_stimuli/000483_2014-06-09_20-41-45_260595134347_rgbf000116-resize_4/000483_2014-06-09_20-41-45_260595134347_rgbf000116-resize_4-target.png,83,1.337,7,1818,84,meters,jsons/VE83_randls_40_rotated.json,526286,1748984,30,Man
157,700133,DepthScenes,duration_manipulation_targetAtFixation,jsons/VE83_randls_40_rotated.json,http://54.235.29.9/FacialAge/BNav_EC2/DepthDuration/v2_depth_duration_MTurk/v2_DepthDuration_HTML.html#17,17,1366,619,1366,768,8-29-2023,12-20-54,158,depth_duration_stimuli/000469_2014-06-09_19-42-10_260595134347_rgbf000081-resize_1/000469_2014-06-09_19-42-10_260595134347_rgbf000081-resize_1-target.png,83,1.652,8,2091,83,meters,jsons/VE83_randls_40_rotated.json,526286,1748984,30,Man
158,700133,DepthScenes,duration_manipulation_targetAtFixation,jsons/VE83_randls_40_rotated.json,http://54.235.29.9/FacialAge/BNav_EC2/DepthDuration/v2_depth_duration_MTurk/v2_DepthDuration_HTML.html#17,17,1366,619,1366,768,8-29-2023,12-20-54,159,depth_duration_stimuli/000109_2014-05-14_23-41-52_260595134347_rgbf000035-resize_9/000109_2014-05-14_23-41-52_260595134347_rgbf000035-resize_9-target.png,83,1.3545,8,4172,83,meters,jsons/VE83_randls_40_rotated.json,526286,1748984,30,Man
159,700133,DepthScenes,duration_manipulation_targetAtFixation,jsons/VE83_randls_40_rotated.json,http://54.235.29.9/FacialAge/BNav_EC2/DepthDuration/v2_depth_duration_MTurk/v2_DepthDuration_HTML.html#17,17,1366,619,1366,768,8-29-2023,12-20-54,160,depth_duration_stimuli/000470_2014-06-09_19-42-40_260595134347_rgbf000094-resize_1/000470_2014-06-09_19-42-40_260595134347_rgbf000094-resize_1-target.png,83,1.831,7,2162,83,meters,jsons/VE83_randls_40_rotated.json,526286,1748984,30,Man
160,700133,DepthScenes,duration_manipulation_targetAtFixation,jsons/VE83_randls_40_rotated.json,http://54.235.29.9/FacialAge/BNav_EC2/DepthDuration/v2_depth_duration_MTurk/v2_DepthDuration_HTML.html#17,17,1366,619,1366,768,8-29-2023,12-20-54,161,depth_duration_stimuli/003083_2014-06-15_15-21-03_094959634447_rgbf000063-resize_1/003083_2014-06-15_15-21-03_094959634447_rgbf000063-resize_1-target.png,83,4.1405,5,2316,84,meters,jsons/VE83_randls_40_rotated.json,526286,1748984,30,Man
161,700133,DepthScenes,duration_manipulation_targetAtFixation,jsons/VE83_randls_40_rotated.json,http://54.235.29.9/FacialAge/BNav_EC2/DepthDuration/v2_depth_duration_MTurk/v2_DepthDuration_HTML.html#17,17,1366,619,1366,768,8-29-2023,12-20-54,162,depth_duration_stimuli/000486_2014-06-09_20-47-20_260595134347_rgbf000143-resize_2/000486_2014-06-09_20-47-20_260595134347_rgbf000143-resize_2-target.png,83,4.8325,4,1924,84,meters,jsons/VE83_randls_40_rotated.json,526286,1748984,30,Man
162,700133,DepthScenes,duration_manipulation_targetAtFixation,jsons/VE83_randls_40_rotated.json,http://54.235.29.9/FacialAge/BNav_EC2/DepthDuration/v2_depth_duration_MTurk/v2_DepthDuration_HTML.html#17,17,1366,619,1366,768,8-29-2023,12-20-54,163,depth_duration_stimuli/000191_2014-05-12_17-07-38_260595134347_rgbf000199-resize_0/000191_2014-05-12_17-07-38_260595134347_rgbf000199-resize_0-target.png,83,3.7995,5,1971,83,meters,jsons/VE83_randls_40_rotated.json,526286,1748984,30,Man
163,700133,DepthScenes,duration_manipulation_targetAtFixation,jsons/VE83_randls_40_rotated.json,http://54.235.29.9/FacialAge/BNav_EC2/DepthDuration/v2_depth_duration_MTurk/v2_DepthDuration_HTML.html#17,17,1366,619,1366,768,8-29-2023,12-20-54,164,depth_duration_stimuli/000493_2014-06-09_21-01-18_260595134347_rgbf000196-resize_3/000493_2014-06-09_21-01-18_260595134347_rgbf000196-resize_3-target.png,83,3.44,7,2129,82,meters,jsons/VE83_randls_40_rotated.json,526286,1748984,30,Man
