,subjID,experimentName,versionName,sequenceName,url,selected_row,windowWidth,windowHeight,screenWidth,screenHeight,startDate,startTime,trial,stimulus,duration,actual_depth,depth_estimate,trial_RT,log_sceneDuration,unitSelection,seq_filepath,experimentTime,totalTime,age,gender
0,701497,DepthScenes,duration_manipulation_targetAtFixation,jsons/VE125_randls_6_rotated.json,http://54.235.29.9/FacialAge/BNav_EC2/DepthDuration/v2_depth_duration_MTurk/v2_DepthDuration_HTML.html#402,402,1135,843,1920,1080,8-29-2022,11-24-5,1,depth_duration_stimuli/001132_2014-06-17_14-48-54_260595134347_rgbf000100-resize_2/001132_2014-06-17_14-48-54_260595134347_rgbf000100-resize_2-target.png,125,3.753,4,14481,127,feet,jsons/VE125_randls_6_rotated.json,1708085,2107636,37,Man
1,701497,DepthScenes,duration_manipulation_targetAtFixation,jsons/VE125_randls_6_rotated.json,http://54.235.29.9/FacialAge/BNav_EC2/DepthDuration/v2_depth_duration_MTurk/v2_DepthDuration_HTML.html#402,402,1135,843,1920,1080,8-29-2022,11-24-5,2,depth_duration_stimuli/001133_2014-06-17_14-49-16_260595134347_rgbf000100-resize_0/001133_2014-06-17_14-49-16_260595134347_rgbf000100-resize_0-target.png,125,4.2115,3,2918,123,feet,jsons/VE125_randls_6_rotated.json,1708085,2107636,37,Man
2,701497,DepthScenes,duration_manipulation_targetAtFixation,jsons/VE125_randls_6_rotated.json,http://54.235.29.9/FacialAge/BNav_EC2/DepthDuration/v2_depth_duration_MTurk/v2_DepthDuration_HTML.html#402,402,1135,843,1920,1080,8-29-2022,11-24-5,3,depth_duration_stimuli/002949_2014-06-26_15-57-42_094959634447_rgbf000079-resize_1/002949_2014-06-26_15-57-42_094959634447_rgbf000079-resize_1-target.png,125,1.8915,2,2006,129,feet,jsons/VE125_randls_6_rotated.json,1708085,2107636,37,Man
3,701497,DepthScenes,duration_manipulation_targetAtFixation,jsons/VE125_randls_6_rotated.json,http://54.235.29.9/FacialAge/BNav_EC2/DepthDuration/v2_depth_duration_MTurk/v2_DepthDuration_HTML.html#402,402,1135,843,1920,1080,8-29-2022,11-24-5,4,depth_duration_stimuli/000522_2014-06-08_13-35-06_260595134347_rgbf000244-resize_1/000522_2014-06-08_13-35-06_260595134347_rgbf000244-resize_1-target.png,125,2.3715,3,2749,139,feet,jsons/VE125_randls_6_rotated.json,1708085,2107636,37,Man
4,701497,DepthScenes,duration_manipulation_targetAtFixation,jsons/VE125_randls_6_rotated.json,http://54.235.29.9/FacialAge/BNav_EC2/DepthDuration/v2_depth_duration_MTurk/v2_DepthDuration_HTML.html#402,402,1135,843,1920,1080,8-29-2022,11-24-5,5,depth_duration_stimuli/003083_2014-06-15_15-21-03_094959634447_rgbf000063-resize_1/003083_2014-06-15_15-21-03_094959634447_rgbf000063-resize_1-target.png,125,4.1405,3,5386,125,feet,jsons/VE125_randls_6_rotated.json,1708085,2107636,37,Man
5,701497,DepthScenes,duration_manipulation_targetAtFixation,jsons/VE125_randls_6_rotated.json,http://54.235.29.9/FacialAge/BNav_EC2/DepthDuration/v2_depth_duration_MTurk/v2_DepthDuration_HTML.html#402,402,1135,843,1920,1080,8-29-2022,11-24-5,6,depth_duration_stimuli/000486_2014-06-09_20-47-20_260595134347_rgbf000143-resize_2/000486_2014-06-09_20-47-20_260595134347_rgbf000143-resize_2-target.png,125,4.8325,5,2815,134,feet,jsons/VE125_randls_6_rotated.json,1708085,2107636,37,Man
6,701497,DepthScenes,duration_manipulation_targetAtFixation,jsons/VE125_randls_6_rotated.json,http://54.235.29.9/FacialAge/BNav_EC2/DepthDuration/v2_depth_duration_MTurk/v2_DepthDuration_HTML.html#402,402,1135,843,1920,1080,8-29-2022,11-24-5,7,depth_duration_stimuli/003587_2014-05-23_16-48-02_094959634447_rgbf002384-resize_2/003587_2014-05-23_16-48-02_094959634447_rgbf002384-resize_2-target.png,125,1.357,3,3377,123,feet,jsons/VE125_randls_6_rotated.json,1708085,2107636,37,Man
7,701497,DepthScenes,duration_manipulation_targetAtFixation,jsons/VE125_randls_6_rotated.json,http://54.235.29.9/FacialAge/BNav_EC2/DepthDuration/v2_depth_duration_MTurk/v2_DepthDuration_HTML.html#402,402,1135,843,1920,1080,8-29-2022,11-24-5,8,depth_duration_stimuli/001167_2014-06-17_15-38-07_260595134347_rgbf000108-resize_0/001167_2014-06-17_15-38-07_260595134347_rgbf000108-resize_0-target.png,125,1.8505,3,2891,139,feet,jsons/VE125_randls_6_rotated.json,1708085,2107636,37,Man
8,701497,DepthScenes,duration_manipulation_targetAtFixation,jsons/VE125_randls_6_rotated.json,http://54.235.29.9/FacialAge/BNav_EC2/DepthDuration/v2_depth_duration_MTurk/v2_DepthDuration_HTML.html#402,402,1135,843,1920,1080,8-29-2022,11-24-5,9,depth_duration_stimuli/001516_2014-06-20_16-25-09_260595134347_rgbf000076-resize_2/001516_2014-06-20_16-25-09_260595134347_rgbf000076-resize_2-target.png,125,1.7445,4,5495,125,feet,jsons/VE125_randls_6_rotated.json,1708085,2107636,37,Man
9,701497,DepthScenes,duration_manipulation_targetAtFixation,jsons/VE125_randls_6_rotated.json,http://54.235.29.9/FacialAge/BNav_EC2/DepthDuration/v2_depth_duration_MTurk/v2_DepthDuration_HTML.html#402,402,1135,843,1920,1080,8-29-2022,11-24-5,10,depth_duration_stimuli/002118_2014-06-25_20-32-08_260595134347_rgbf000078-resize_1/002118_2014-06-25_20-32-08_260595134347_rgbf000078-resize_1-target.png,125,2.6460000000000004,3,4178,124,feet,jsons/VE125_randls_6_rotated.json,1708085,2107636,37,Man
10,701497,DepthScenes,duration_manipulation_targetAtFixation,jsons/VE125_randls_6_rotated.json,http://54.235.29.9/FacialAge/BNav_EC2/DepthDuration/v2_depth_duration_MTurk/v2_DepthDuration_HTML.html#402,402,1135,843,1920,1080,8-29-2022,11-24-5,11,depth_duration_stimuli/002340_2014-06-28_20-05-46_260595134347_rgbf000113-resize_0/002340_2014-06-28_20-05-46_260595134347_rgbf000113-resize_0-target.png,125,2.4735,4,3170,124,feet,jsons/VE125_randls_6_rotated.json,1708085,2107636,37,Man
11,701497,DepthScenes,duration_manipulation_targetAtFixation,jsons/VE125_randls_6_rotated.json,http://54.235.29.9/FacialAge/BNav_EC2/DepthDuration/v2_depth_duration_MTurk/v2_DepthDuration_HTML.html#402,402,1135,843,1920,1080,8-29-2022,11-24-5,12,depth_duration_stimuli/001016_2014-06-09_16-16-10_260595134347_rgbf000112-resize_5/001016_2014-06-09_16-16-10_260595134347_rgbf000112-resize_5-target.png,125,1.6565,3,2625,125,feet,jsons/VE125_randls_6_rotated.json,1708085,2107636,37,Man
12,701497,DepthScenes,duration_manipulation_targetAtFixation,jsons/VE125_randls_6_rotated.json,http://54.235.29.9/FacialAge/BNav_EC2/DepthDuration/v2_depth_duration_MTurk/v2_DepthDuration_HTML.html#402,402,1135,843,1920,1080,8-29-2022,11-24-5,13,depth_duration_stimuli/003228_2014-05-14_13-42-35_094959634447_rgbf000101-resize_1/003228_2014-05-14_13-42-35_094959634447_rgbf000101-resize_1-target.png,125,1.9680000000000002,5,2037,118,feet,jsons/VE125_randls_6_rotated.json,1708085,2107636,37,Man
13,701497,DepthScenes,duration_manipulation_targetAtFixation,jsons/VE125_randls_6_rotated.json,http://54.235.29.9/FacialAge/BNav_EC2/DepthDuration/v2_depth_duration_MTurk/v2_DepthDuration_HTML.html#402,402,1135,843,1920,1080,8-29-2022,11-24-5,14,depth_duration_stimuli/002600_2014-06-24_14-27-04_094959634447_rgbf000074-resize_2/002600_2014-06-24_14-27-04_094959634447_rgbf000074-resize_2-target.png,125,2.7575,3,2921,112,feet,jsons/VE125_randls_6_rotated.json,1708085,2107636,37,Man
14,701497,DepthScenes,duration_manipulation_targetAtFixation,jsons/VE125_randls_6_rotated.json,http://54.235.29.9/FacialAge/BNav_EC2/DepthDuration/v2_depth_duration_MTurk/v2_DepthDuration_HTML.html#402,402,1135,843,1920,1080,8-29-2022,11-24-5,15,depth_duration_stimuli/000854_2014-06-09_19-43-13_260595134347_rgbf000066-resize_0/000854_2014-06-09_19-43-13_260595134347_rgbf000066-resize_0-target.png,125,3.068,3,16720,128,feet,jsons/VE125_randls_6_rotated.json,1708085,2107636,37,Man
15,701497,DepthScenes,duration_manipulation_targetAtFixation,jsons/VE125_randls_6_rotated.json,http://54.235.29.9/FacialAge/BNav_EC2/DepthDuration/v2_depth_duration_MTurk/v2_DepthDuration_HTML.html#402,402,1135,843,1920,1080,8-29-2022,11-24-5,16,depth_duration_stimuli/000758_2014-06-08_22-05-08_260595134347_rgbf000085-resize_0/000758_2014-06-08_22-05-08_260595134347_rgbf000085-resize_0-target.png,125,3.3810000000000002,3,2825,117,feet,jsons/VE125_randls_6_rotated.json,1708085,2107636,37,Man
16,701497,DepthScenes,duration_manipulation_targetAtFixation,jsons/VE125_randls_6_rotated.json,http://54.235.29.9/FacialAge/BNav_EC2/DepthDuration/v2_depth_duration_MTurk/v2_DepthDuration_HTML.html#402,402,1135,843,1920,1080,8-29-2022,11-24-5,17,depth_duration_stimuli/001650_2014-06-20_12-09-00_260595134347_rgbf000087-resize_3/001650_2014-06-20_12-09-00_260595134347_rgbf000087-resize_3-target.png,125,1.9505,2,2913,134,feet,jsons/VE125_randls_6_rotated.json,1708085,2107636,37,Man
17,701497,DepthScenes,duration_manipulation_targetAtFixation,jsons/VE125_randls_6_rotated.json,http://54.235.29.9/FacialAge/BNav_EC2/DepthDuration/v2_depth_duration_MTurk/v2_DepthDuration_HTML.html#402,402,1135,843,1920,1080,8-29-2022,11-24-5,18,depth_duration_stimuli/000682_2014-06-08_23-14-58_260595134347_rgbf000041-resize_5/000682_2014-06-08_23-14-58_260595134347_rgbf000041-resize_5-target.png,125,2.7239999999999998,3,33744,124,feet,jsons/VE125_randls_6_rotated.json,1708085,2107636,37,Man
18,701497,DepthScenes,duration_manipulation_targetAtFixation,jsons/VE125_randls_6_rotated.json,http://54.235.29.9/FacialAge/BNav_EC2/DepthDuration/v2_depth_duration_MTurk/v2_DepthDuration_HTML.html#402,402,1135,843,1920,1080,8-29-2022,11-24-5,19,depth_duration_stimuli/001498_2014-06-19_17-45-14_260595134347_rgbf000129-resize_4/001498_2014-06-19_17-45-14_260595134347_rgbf000129-resize-original.jpg,125,1.4075,0,2669,124,feet,jsons/VE125_randls_6_rotated.json,1708085,2107636,37,Man
19,701497,DepthScenes,duration_manipulation_targetAtFixation,jsons/VE125_randls_6_rotated.json,http://54.235.29.9/FacialAge/BNav_EC2/DepthDuration/v2_depth_duration_MTurk/v2_DepthDuration_HTML.html#402,402,1135,843,1920,1080,8-29-2022,11-24-5,20,depth_duration_stimuli/001815_2014-06-26_20-52-55_260595134347_rgbf000020-resize_0/001815_2014-06-26_20-52-55_260595134347_rgbf000020-resize_0-target.png,125,3.3865,5,2523,117,feet,jsons/VE125_randls_6_rotated.json,1708085,2107636,37,Man
20,701497,DepthScenes,duration_manipulation_targetAtFixation,jsons/VE125_randls_6_rotated.json,http://54.235.29.9/FacialAge/BNav_EC2/DepthDuration/v2_depth_duration_MTurk/v2_DepthDuration_HTML.html#402,402,1135,843,1920,1080,8-29-2022,11-24-5,21,depth_duration_stimuli/001808_2014-06-26_20-50-58_260595134347_rgbf000029-resize_1/001808_2014-06-26_20-50-58_260595134347_rgbf000029-resize_1-target.png,125,4.249,0,4605,125,feet,jsons/VE125_randls_6_rotated.json,1708085,2107636,37,Man
21,701497,DepthScenes,duration_manipulation_targetAtFixation,jsons/VE125_randls_6_rotated.json,http://54.235.29.9/FacialAge/BNav_EC2/DepthDuration/v2_depth_duration_MTurk/v2_DepthDuration_HTML.html#402,402,1135,843,1920,1080,8-29-2022,11-24-5,22,depth_duration_stimuli/000556_2014-06-09_22-42-56_260595134347_rgbf000214-resize_1/000556_2014-06-09_22-42-56_260595134347_rgbf000214-resize_1-target.png,125,4.8415,5,2966,125,feet,jsons/VE125_randls_6_rotated.json,1708085,2107636,37,Man
22,701497,DepthScenes,duration_manipulation_targetAtFixation,jsons/VE125_randls_6_rotated.json,http://54.235.29.9/FacialAge/BNav_EC2/DepthDuration/v2_depth_duration_MTurk/v2_DepthDuration_HTML.html#402,402,1135,843,1920,1080,8-29-2022,11-24-5,23,depth_duration_stimuli/001158_2014-06-17_15-32-16_260595134347_rgbf000138-resize_2/001158_2014-06-17_15-32-16_260595134347_rgbf000138-resize_2-target.png,125,4.5315,3,1901,124,feet,jsons/VE125_randls_6_rotated.json,1708085,2107636,37,Man
23,701497,DepthScenes,duration_manipulation_targetAtFixation,jsons/VE125_randls_6_rotated.json,http://54.235.29.9/FacialAge/BNav_EC2/DepthDuration/v2_depth_duration_MTurk/v2_DepthDuration_HTML.html#402,402,1135,843,1920,1080,8-29-2022,11-24-5,24,depth_duration_stimuli/002444_2014-06-28_20-32-08_260595134347_rgbf000027-resize_0/002444_2014-06-28_20-32-08_260595134347_rgbf000027-resize_0-target.png,125,4.388999999999999,6,2904,135,feet,jsons/VE125_randls_6_rotated.json,1708085,2107636,37,Man
24,701497,DepthScenes,duration_manipulation_targetAtFixation,jsons/VE125_randls_6_rotated.json,http://54.235.29.9/FacialAge/BNav_EC2/DepthDuration/v2_depth_duration_MTurk/v2_DepthDuration_HTML.html#402,402,1135,843,1920,1080,8-29-2022,11-24-5,25,depth_duration_stimuli/000436_2014-06-09_22-25-11_260595134347_rgbf000137-resize_1/000436_2014-06-09_22-25-11_260595134347_rgbf000137-resize_1-target.png,125,4.0705,0,3349,122,feet,jsons/VE125_randls_6_rotated.json,1708085,2107636,37,Man
25,701497,DepthScenes,duration_manipulation_targetAtFixation,jsons/VE125_randls_6_rotated.json,http://54.235.29.9/FacialAge/BNav_EC2/DepthDuration/v2_depth_duration_MTurk/v2_DepthDuration_HTML.html#402,402,1135,843,1920,1080,8-29-2022,11-24-5,26,depth_duration_stimuli/002199_2014-06-28_18-33-56_260595134347_rgbf000074-resize_0/002199_2014-06-28_18-33-56_260595134347_rgbf000074-resize_0-target.png,125,1.996,2,1899,126,feet,jsons/VE125_randls_6_rotated.json,1708085,2107636,37,Man
26,701497,DepthScenes,duration_manipulation_targetAtFixation,jsons/VE125_randls_6_rotated.json,http://54.235.29.9/FacialAge/BNav_EC2/DepthDuration/v2_depth_duration_MTurk/v2_DepthDuration_HTML.html#402,402,1135,843,1920,1080,8-29-2022,11-24-5,27,depth_duration_stimuli/001056_2014-06-08_18-46-44_260595134347_rgbf000068-resize_0/001056_2014-06-08_18-46-44_260595134347_rgbf000068-resize_0-target.png,125,2.6625,4,2498,117,feet,jsons/VE125_randls_6_rotated.json,1708085,2107636,37,Man
27,701497,DepthScenes,duration_manipulation_targetAtFixation,jsons/VE125_randls_6_rotated.json,http://54.235.29.9/FacialAge/BNav_EC2/DepthDuration/v2_depth_duration_MTurk/v2_DepthDuration_HTML.html#402,402,1135,843,1920,1080,8-29-2022,11-24-5,28,depth_duration_stimuli/000742_2014-06-08_18-48-09_260595134347_rgbf000164-resize_4/000742_2014-06-08_18-48-09_260595134347_rgbf000164-resize_4-target.png,125,4.632,3,2713,124,feet,jsons/VE125_randls_6_rotated.json,1708085,2107636,37,Man
28,701497,DepthScenes,duration_manipulation_targetAtFixation,jsons/VE125_randls_6_rotated.json,http://54.235.29.9/FacialAge/BNav_EC2/DepthDuration/v2_depth_duration_MTurk/v2_DepthDuration_HTML.html#402,402,1135,843,1920,1080,8-29-2022,11-24-5,29,depth_duration_stimuli/001066_2014-06-08_22-03-20_260595134347_rgbf000066-resize_4/001066_2014-06-08_22-03-20_260595134347_rgbf000066-resize_4-target.png,125,4.2330000000000005,2,3187,124,feet,jsons/VE125_randls_6_rotated.json,1708085,2107636,37,Man
29,701497,DepthScenes,duration_manipulation_targetAtFixation,jsons/VE125_randls_6_rotated.json,http://54.235.29.9/FacialAge/BNav_EC2/DepthDuration/v2_depth_duration_MTurk/v2_DepthDuration_HTML.html#402,402,1135,843,1920,1080,8-29-2022,11-24-5,30,depth_duration_stimuli/002072_2014-06-24_21-48-06_260595134347_rgbf000115-resize_0/002072_2014-06-24_21-48-06_260595134347_rgbf000115-resize-original.jpg,125,4.702,3,2841,133,feet,jsons/VE125_randls_6_rotated.json,1708085,2107636,37,Man
30,701497,DepthScenes,duration_manipulation_targetAtFixation,jsons/VE125_randls_6_rotated.json,http://54.235.29.9/FacialAge/BNav_EC2/DepthDuration/v2_depth_duration_MTurk/v2_DepthDuration_HTML.html#402,402,1135,843,1920,1080,8-29-2022,11-24-5,31,depth_duration_stimuli/001032_2014-06-08_13-23-17_260595134347_rgbf000021-resize_3/001032_2014-06-08_13-23-17_260595134347_rgbf000021-resize_3-target.png,125,3.2725,4,8008,125,feet,jsons/VE125_randls_6_rotated.json,1708085,2107636,37,Man
31,701497,DepthScenes,duration_manipulation_targetAtFixation,jsons/VE125_randls_6_rotated.json,http://54.235.29.9/FacialAge/BNav_EC2/DepthDuration/v2_depth_duration_MTurk/v2_DepthDuration_HTML.html#402,402,1135,843,1920,1080,8-29-2022,11-24-5,32,depth_duration_stimuli/001059_2014-06-08_21-53-27_260595134347_rgbf000061-resize_4/001059_2014-06-08_21-53-27_260595134347_rgbf000061-resize_4-target.png,125,2.4185,0,2402,131,feet,jsons/VE125_randls_6_rotated.json,1708085,2107636,37,Man
32,701497,DepthScenes,duration_manipulation_targetAtFixation,jsons/VE125_randls_6_rotated.json,http://54.235.29.9/FacialAge/BNav_EC2/DepthDuration/v2_depth_duration_MTurk/v2_DepthDuration_HTML.html#402,402,1135,843,1920,1080,8-29-2022,11-24-5,33,depth_duration_stimuli/000191_2014-05-12_17-07-38_260595134347_rgbf000199-resize_0/000191_2014-05-12_17-07-38_260595134347_rgbf000199-resize_0-target.png,125,3.7995,8,2291,115,feet,jsons/VE125_randls_6_rotated.json,1708085,2107636,37,Man
33,701497,DepthScenes,duration_manipulation_targetAtFixation,jsons/VE125_randls_6_rotated.json,http://54.235.29.9/FacialAge/BNav_EC2/DepthDuration/v2_depth_duration_MTurk/v2_DepthDuration_HTML.html#402,402,1135,843,1920,1080,8-29-2022,11-24-5,34,depth_duration_stimuli/000493_2014-06-09_21-01-18_260595134347_rgbf000196-resize_3/000493_2014-06-09_21-01-18_260595134347_rgbf000196-resize_3-target.png,125,3.44,3,4465,133,feet,jsons/VE125_randls_6_rotated.json,1708085,2107636,37,Man
34,701497,DepthScenes,duration_manipulation_targetAtFixation,jsons/VE125_randls_6_rotated.json,http://54.235.29.9/FacialAge/BNav_EC2/DepthDuration/v2_depth_duration_MTurk/v2_DepthDuration_HTML.html#402,402,1135,843,1920,1080,8-29-2022,11-24-5,35,depth_duration_stimuli/001447_2014-06-19_17-00-32_260595134347_rgbf000082-resize_5/001447_2014-06-19_17-00-32_260595134347_rgbf000082-resize_5-target.png,125,4.13775,3,2271,135,feet,jsons/VE125_randls_6_rotated.json,1708085,2107636,37,Man
35,701497,DepthScenes,duration_manipulation_targetAtFixation,jsons/VE125_randls_6_rotated.json,http://54.235.29.9/FacialAge/BNav_EC2/DepthDuration/v2_depth_duration_MTurk/v2_DepthDuration_HTML.html#402,402,1135,843,1920,1080,8-29-2022,11-24-5,36,depth_duration_stimuli/000447_2014-06-08_16-15-46_260595134347_rgbf000130-resize_1/000447_2014-06-08_16-15-46_260595134347_rgbf000130-resize_1-target.png,125,4.479,7,2339,118,feet,jsons/VE125_randls_6_rotated.json,1708085,2107636,37,Man
36,701497,DepthScenes,duration_manipulation_targetAtFixation,jsons/VE125_randls_6_rotated.json,http://54.235.29.9/FacialAge/BNav_EC2/DepthDuration/v2_depth_duration_MTurk/v2_DepthDuration_HTML.html#402,402,1135,843,1920,1080,8-29-2022,11-24-5,37,depth_duration_stimuli/002953_2014-06-08_17-32-18_094959634447_rgbf000059-resize_5/002953_2014-06-08_17-32-18_094959634447_rgbf000059-resize_5-target.png,125,1.551,4,2206,114,feet,jsons/VE125_randls_6_rotated.json,1708085,2107636,37,Man
37,701497,DepthScenes,duration_manipulation_targetAtFixation,jsons/VE125_randls_6_rotated.json,http://54.235.29.9/FacialAge/BNav_EC2/DepthDuration/v2_depth_duration_MTurk/v2_DepthDuration_HTML.html#402,402,1135,843,1920,1080,8-29-2022,11-24-5,38,depth_duration_stimuli/000878_2014-06-08_22-52-45_260595134347_rgbf000045-resize_2/000878_2014-06-08_22-52-45_260595134347_rgbf000045-resize_2-target.png,125,2.092,3,2510,120,feet,jsons/VE125_randls_6_rotated.json,1708085,2107636,37,Man
38,701497,DepthScenes,duration_manipulation_targetAtFixation,jsons/VE125_randls_6_rotated.json,http://54.235.29.9/FacialAge/BNav_EC2/DepthDuration/v2_depth_duration_MTurk/v2_DepthDuration_HTML.html#402,402,1135,843,1920,1080,8-29-2022,11-24-5,39,depth_duration_stimuli/000866_2014-06-09_20-45-42_260595134347_rgbf000139-resize_1/000866_2014-06-09_20-45-42_260595134347_rgbf000139-resize_1-target.png,125,3.2155,6,2142,123,feet,jsons/VE125_randls_6_rotated.json,1708085,2107636,37,Man
39,701497,DepthScenes,duration_manipulation_targetAtFixation,jsons/VE125_randls_6_rotated.json,http://54.235.29.9/FacialAge/BNav_EC2/DepthDuration/v2_depth_duration_MTurk/v2_DepthDuration_HTML.html#402,402,1135,843,1920,1080,8-29-2022,11-24-5,40,depth_duration_stimuli/002989_2014-06-15_12-25-03_094959634447_rgbf000150-resize_3/002989_2014-06-15_12-25-03_094959634447_rgbf000150-resize_3-target.png,125,4.1975,4,24940,125,feet,jsons/VE125_randls_6_rotated.json,1708085,2107636,37,Man
40,701497,DepthScenes,duration_manipulation_targetAtFixation,jsons/VE125_randls_6_rotated.json,http://54.235.29.9/FacialAge/BNav_EC2/DepthDuration/v2_depth_duration_MTurk/v2_DepthDuration_HTML.html#402,402,1135,843,1920,1080,8-29-2022,11-24-5,41,depth_duration_stimuli/002545_2014-06-24_13-38-53_094959634447_rgbf000080-resize_4/002545_2014-06-24_13-38-53_094959634447_rgbf000080-resize_4-target.png,125,1.9205,3,2009,125,feet,jsons/VE125_randls_6_rotated.json,1708085,2107636,37,Man
41,701497,DepthScenes,duration_manipulation_targetAtFixation,jsons/VE125_randls_6_rotated.json,http://54.235.29.9/FacialAge/BNav_EC2/DepthDuration/v2_depth_duration_MTurk/v2_DepthDuration_HTML.html#402,402,1135,843,1920,1080,8-29-2022,11-24-5,42,depth_duration_stimuli/001092_2014-06-15_17-34-58_260595134347_rgbf000171-resize_3/001092_2014-06-15_17-34-58_260595134347_rgbf000171-resize_3-target.png,125,2.6935,5,1753,125,feet,jsons/VE125_randls_6_rotated.json,1708085,2107636,37,Man
42,701497,DepthScenes,duration_manipulation_targetAtFixation,jsons/VE125_randls_6_rotated.json,http://54.235.29.9/FacialAge/BNav_EC2/DepthDuration/v2_depth_duration_MTurk/v2_DepthDuration_HTML.html#402,402,1135,843,1920,1080,8-29-2022,11-24-5,43,depth_duration_stimuli/000749_2014-06-08_21-55-06_260595134347_rgbf000070-resize_2/000749_2014-06-08_21-55-06_260595134347_rgbf000070-resize_2-target.png,125,2.331,7,3235,124,feet,jsons/VE125_randls_6_rotated.json,1708085,2107636,37,Man
43,701497,DepthScenes,duration_manipulation_targetAtFixation,jsons/VE125_randls_6_rotated.json,http://54.235.29.9/FacialAge/BNav_EC2/DepthDuration/v2_depth_duration_MTurk/v2_DepthDuration_HTML.html#402,402,1135,843,1920,1080,8-29-2022,11-24-5,44,depth_duration_stimuli/002788_2014-06-22_19-36-03_094959634447_rgbf000088-resize_2/002788_2014-06-22_19-36-03_094959634447_rgbf000088-resize_2-target.png,125,1.6465,4,2110,118,feet,jsons/VE125_randls_6_rotated.json,1708085,2107636,37,Man
44,701497,DepthScenes,duration_manipulation_targetAtFixation,jsons/VE125_randls_6_rotated.json,http://54.235.29.9/FacialAge/BNav_EC2/DepthDuration/v2_depth_duration_MTurk/v2_DepthDuration_HTML.html#402,402,1135,843,1920,1080,8-29-2022,11-24-5,45,depth_duration_stimuli/000502_2014-06-08_23-02-32_260595134347_rgbf000063-resize_4/000502_2014-06-08_23-02-32_260595134347_rgbf000063-resize_4-target.png,125,2.431,4,4881,118,feet,jsons/VE125_randls_6_rotated.json,1708085,2107636,37,Man
45,701497,DepthScenes,duration_manipulation_targetAtFixation,jsons/VE125_randls_6_rotated.json,http://54.235.29.9/FacialAge/BNav_EC2/DepthDuration/v2_depth_duration_MTurk/v2_DepthDuration_HTML.html#402,402,1135,843,1920,1080,8-29-2022,11-24-5,46,depth_duration_stimuli/001199_2014-06-17_16-03-48_260595134347_rgbf000077-resize_0/001199_2014-06-17_16-03-48_260595134347_rgbf000077-resize_0-target.png,125,3.4375,3,2272,134,feet,jsons/VE125_randls_6_rotated.json,1708085,2107636,37,Man
46,701497,DepthScenes,duration_manipulation_targetAtFixation,jsons/VE125_randls_6_rotated.json,http://54.235.29.9/FacialAge/BNav_EC2/DepthDuration/v2_depth_duration_MTurk/v2_DepthDuration_HTML.html#402,402,1135,843,1920,1080,8-29-2022,11-24-5,47,depth_duration_stimuli/001094_2014-06-15_17-36-00_260595134347_rgbf000205-resize_0/001094_2014-06-15_17-36-00_260595134347_rgbf000205-resize_0-target.png,125,4.2175,4,2521,117,feet,jsons/VE125_randls_6_rotated.json,1708085,2107636,37,Man
47,701497,DepthScenes,duration_manipulation_targetAtFixation,jsons/VE125_randls_6_rotated.json,http://54.235.29.9/FacialAge/BNav_EC2/DepthDuration/v2_depth_duration_MTurk/v2_DepthDuration_HTML.html#402,402,1135,843,1920,1080,8-29-2022,11-24-5,48,depth_duration_stimuli/000692_2014-06-08_13-09-42_260595134347_rgbf000199-resize_2/000692_2014-06-08_13-09-42_260595134347_rgbf000199-resize_2-target.png,125,3.661,9,2141,127,feet,jsons/VE125_randls_6_rotated.json,1708085,2107636,37,Man
48,701497,DepthScenes,duration_manipulation_targetAtFixation,jsons/VE125_randls_6_rotated.json,http://54.235.29.9/FacialAge/BNav_EC2/DepthDuration/v2_depth_duration_MTurk/v2_DepthDuration_HTML.html#402,402,1135,843,1920,1080,8-29-2022,11-24-5,49,depth_duration_stimuli/001170_2014-06-17_15-43-44_260595134347_rgbf000096-resize_6/001170_2014-06-17_15-43-44_260595134347_rgbf000096-resize-original.jpg,125,1.1909999999999998,3,2025,126,feet,jsons/VE125_randls_6_rotated.json,1708085,2107636,37,Man
49,701497,DepthScenes,duration_manipulation_targetAtFixation,jsons/VE125_randls_6_rotated.json,http://54.235.29.9/FacialAge/BNav_EC2/DepthDuration/v2_depth_duration_MTurk/v2_DepthDuration_HTML.html#402,402,1135,843,1920,1080,8-29-2022,11-24-5,50,depth_duration_stimuli/000635_2014-06-08_16-38-42_260595134347_rgbf000106-resize_1/000635_2014-06-08_16-38-42_260595134347_rgbf000106-resize_1-target.png,125,2.074,5,1585,127,feet,jsons/VE125_randls_6_rotated.json,1708085,2107636,37,Man
50,701497,DepthScenes,duration_manipulation_targetAtFixation,jsons/VE125_randls_6_rotated.json,http://54.235.29.9/FacialAge/BNav_EC2/DepthDuration/v2_depth_duration_MTurk/v2_DepthDuration_HTML.html#402,402,1135,843,1920,1080,8-29-2022,11-24-5,51,depth_duration_stimuli/002279_2014-06-28_18-55-32_260595134347_rgbf000040-resize_5/002279_2014-06-28_18-55-32_260595134347_rgbf000040-resize_5-target.png,125,1.5043333333333,4,3105,125,feet,jsons/VE125_randls_6_rotated.json,1708085,2107636,37,Man
51,701497,DepthScenes,duration_manipulation_targetAtFixation,jsons/VE125_randls_6_rotated.json,http://54.235.29.9/FacialAge/BNav_EC2/DepthDuration/v2_depth_duration_MTurk/v2_DepthDuration_HTML.html#402,402,1135,843,1920,1080,8-29-2022,11-24-5,52,depth_duration_stimuli/000457_2014-06-08_16-52-43_260595134347_rgbf000199-resize_1/000457_2014-06-08_16-52-43_260595134347_rgbf000199-resize_1-target.png,125,3.6489999999999996,3,2435,0,feet,jsons/VE125_randls_6_rotated.json,1708085,2107636,37,Man
52,701497,DepthScenes,duration_manipulation_targetAtFixation,jsons/VE125_randls_6_rotated.json,http://54.235.29.9/FacialAge/BNav_EC2/DepthDuration/v2_depth_duration_MTurk/v2_DepthDuration_HTML.html#402,402,1135,843,1920,1080,8-29-2022,11-24-5,53,depth_duration_stimuli/000929_2014-06-09_16-33-19_260595134347_rgbf000139-resize_0/000929_2014-06-09_16-33-19_260595134347_rgbf000139-resize_0-target.png,125,2.8680000000000003,5,1721,124,feet,jsons/VE125_randls_6_rotated.json,1708085,2107636,37,Man
53,701497,DepthScenes,duration_manipulation_targetAtFixation,jsons/VE125_randls_6_rotated.json,http://54.235.29.9/FacialAge/BNav_EC2/DepthDuration/v2_depth_duration_MTurk/v2_DepthDuration_HTML.html#402,402,1135,843,1920,1080,8-29-2022,11-24-5,54,depth_duration_stimuli/002344_2014-06-28_20-06-29_260595134347_rgbf000030-resize_1/002344_2014-06-28_20-06-29_260595134347_rgbf000030-resize_1-target.png,125,1.5795,0,2448,124,feet,jsons/VE125_randls_6_rotated.json,1708085,2107636,37,Man
54,701497,DepthScenes,duration_manipulation_targetAtFixation,jsons/VE125_randls_6_rotated.json,http://54.235.29.9/FacialAge/BNav_EC2/DepthDuration/v2_depth_duration_MTurk/v2_DepthDuration_HTML.html#402,402,1135,843,1920,1080,8-29-2022,11-24-5,55,depth_duration_stimuli/002725_2014-06-22_11-47-51_094959634447_rgbf000070-resize_1/002725_2014-06-22_11-47-51_094959634447_rgbf000070-resize_1-target.png,125,2.195,7,2350,133,feet,jsons/VE125_randls_6_rotated.json,1708085,2107636,37,Man
55,701497,DepthScenes,duration_manipulation_targetAtFixation,jsons/VE125_randls_6_rotated.json,http://54.235.29.9/FacialAge/BNav_EC2/DepthDuration/v2_depth_duration_MTurk/v2_DepthDuration_HTML.html#402,402,1135,843,1920,1080,8-29-2022,11-24-5,56,depth_duration_stimuli/002639_2014-06-24_14-51-37_094959634447_rgbf000074-resize_4/002639_2014-06-24_14-51-37_094959634447_rgbf000074-resize_4-target.png,125,4.0375,5,1864,133,feet,jsons/VE125_randls_6_rotated.json,1708085,2107636,37,Man
56,701497,DepthScenes,duration_manipulation_targetAtFixation,jsons/VE125_randls_6_rotated.json,http://54.235.29.9/FacialAge/BNav_EC2/DepthDuration/v2_depth_duration_MTurk/v2_DepthDuration_HTML.html#402,402,1135,843,1920,1080,8-29-2022,11-24-5,57,depth_duration_stimuli/003292_2014-05-14_21-53-49_094959634447_rgbf000100-resize_2/003292_2014-05-14_21-53-49_094959634447_rgbf000100-resize_2-target.png,125,3.4815,4,2341,132,feet,jsons/VE125_randls_6_rotated.json,1708085,2107636,37,Man
57,701497,DepthScenes,duration_manipulation_targetAtFixation,jsons/VE125_randls_6_rotated.json,http://54.235.29.9/FacialAge/BNav_EC2/DepthDuration/v2_depth_duration_MTurk/v2_DepthDuration_HTML.html#402,402,1135,843,1920,1080,8-29-2022,11-24-5,58,depth_duration_stimuli/001136_2014-06-17_15-19-41_260595134347_rgbf000076-resize_3/001136_2014-06-17_15-19-41_260595134347_rgbf000076-resize_3-target.png,125,1.8655,3,2266,116,feet,jsons/VE125_randls_6_rotated.json,1708085,2107636,37,Man
58,701497,DepthScenes,duration_manipulation_targetAtFixation,jsons/VE125_randls_6_rotated.json,http://54.235.29.9/FacialAge/BNav_EC2/DepthDuration/v2_depth_duration_MTurk/v2_DepthDuration_HTML.html#402,402,1135,843,1920,1080,8-29-2022,11-24-5,59,depth_duration_stimuli/001164_2014-06-17_15-35-46_260595134347_rgbf000085-resize_3/001164_2014-06-17_15-35-46_260595134347_rgbf000085-resize_3-target.png,125,2.354,3,2847,117,feet,jsons/VE125_randls_6_rotated.json,1708085,2107636,37,Man
59,701497,DepthScenes,duration_manipulation_targetAtFixation,jsons/VE125_randls_6_rotated.json,http://54.235.29.9/FacialAge/BNav_EC2/DepthDuration/v2_depth_duration_MTurk/v2_DepthDuration_HTML.html#402,402,1135,843,1920,1080,8-29-2022,11-24-5,60,depth_duration_stimuli/000483_2014-06-09_20-41-45_260595134347_rgbf000116-resize_4/000483_2014-06-09_20-41-45_260595134347_rgbf000116-resize_4-target.png,125,1.337,5,2069,130,feet,jsons/VE125_randls_6_rotated.json,1708085,2107636,37,Man
60,701497,DepthScenes,duration_manipulation_targetAtFixation,jsons/VE125_randls_6_rotated.json,http://54.235.29.9/FacialAge/BNav_EC2/DepthDuration/v2_depth_duration_MTurk/v2_DepthDuration_HTML.html#402,402,1135,843,1920,1080,8-29-2022,11-24-5,61,depth_duration_stimuli/000469_2014-06-09_19-42-10_260595134347_rgbf000081-resize_1/000469_2014-06-09_19-42-10_260595134347_rgbf000081-resize_1-target.png,125,1.652,4,1761,125,feet,jsons/VE125_randls_6_rotated.json,1708085,2107636,37,Man
61,701497,DepthScenes,duration_manipulation_targetAtFixation,jsons/VE125_randls_6_rotated.json,http://54.235.29.9/FacialAge/BNav_EC2/DepthDuration/v2_depth_duration_MTurk/v2_DepthDuration_HTML.html#402,402,1135,843,1920,1080,8-29-2022,11-24-5,62,depth_duration_stimuli/000109_2014-05-14_23-41-52_260595134347_rgbf000035-resize_9/000109_2014-05-14_23-41-52_260595134347_rgbf000035-resize_9-target.png,125,1.3545,7,2503,122,feet,jsons/VE125_randls_6_rotated.json,1708085,2107636,37,Man
62,701497,DepthScenes,duration_manipulation_targetAtFixation,jsons/VE125_randls_6_rotated.json,http://54.235.29.9/FacialAge/BNav_EC2/DepthDuration/v2_depth_duration_MTurk/v2_DepthDuration_HTML.html#402,402,1135,843,1920,1080,8-29-2022,11-24-5,63,depth_duration_stimuli/000470_2014-06-09_19-42-40_260595134347_rgbf000094-resize_1/000470_2014-06-09_19-42-40_260595134347_rgbf000094-resize_1-target.png,125,1.831,4,2475,119,feet,jsons/VE125_randls_6_rotated.json,1708085,2107636,37,Man
63,701497,DepthScenes,duration_manipulation_targetAtFixation,jsons/VE125_randls_6_rotated.json,http://54.235.29.9/FacialAge/BNav_EC2/DepthDuration/v2_depth_duration_MTurk/v2_DepthDuration_HTML.html#402,402,1135,843,1920,1080,8-29-2022,11-24-5,64,depth_duration_stimuli/000549_2014-06-08_22-10-24_260595134347_rgbf000247-resize_3/000549_2014-06-08_22-10-24_260595134347_rgbf000247-resize_3-target.png,125,1.841,6,1728,120,feet,jsons/VE125_randls_6_rotated.json,1708085,2107636,37,Man
64,701497,DepthScenes,duration_manipulation_targetAtFixation,jsons/VE125_randls_6_rotated.json,http://54.235.29.9/FacialAge/BNav_EC2/DepthDuration/v2_depth_duration_MTurk/v2_DepthDuration_HTML.html#402,402,1135,843,1920,1080,8-29-2022,11-24-5,65,depth_duration_stimuli/001055_2014-06-08_18-45-35_260595134347_rgbf000111-resize_4/001055_2014-06-08_18-45-35_260595134347_rgbf000111-resize_4-target.png,125,2.4290000000000003,4,1730,132,feet,jsons/VE125_randls_6_rotated.json,1708085,2107636,37,Man
65,701497,DepthScenes,duration_manipulation_targetAtFixation,jsons/VE125_randls_6_rotated.json,http://54.235.29.9/FacialAge/BNav_EC2/DepthDuration/v2_depth_duration_MTurk/v2_DepthDuration_HTML.html#402,402,1135,843,1920,1080,8-29-2022,11-24-5,66,depth_duration_stimuli/001540_2014-06-20_17-01-05_260595134347_rgbf000086-resize_2/001540_2014-06-20_17-01-05_260595134347_rgbf000086-resize-original.jpg,125,1.459,4,1891,133,feet,jsons/VE125_randls_6_rotated.json,1708085,2107636,37,Man
66,701497,DepthScenes,duration_manipulation_targetAtFixation,jsons/VE125_randls_6_rotated.json,http://54.235.29.9/FacialAge/BNav_EC2/DepthDuration/v2_depth_duration_MTurk/v2_DepthDuration_HTML.html#402,402,1135,843,1920,1080,8-29-2022,11-24-5,67,depth_duration_stimuli/002660_2014-06-13_15-44-18_094959634447_rgbf001878-resize_2/002660_2014-06-13_15-44-18_094959634447_rgbf001878-resize_2-target.png,125,3.576,6,2175,118,feet,jsons/VE125_randls_6_rotated.json,1708085,2107636,37,Man
67,701497,DepthScenes,duration_manipulation_targetAtFixation,jsons/VE125_randls_6_rotated.json,http://54.235.29.9/FacialAge/BNav_EC2/DepthDuration/v2_depth_duration_MTurk/v2_DepthDuration_HTML.html#402,402,1135,843,1920,1080,8-29-2022,11-24-5,68,depth_duration_stimuli/002153_2014-06-25_21-27-18_260595134347_rgbf000038-resize_5/002153_2014-06-25_21-27-18_260595134347_rgbf000038-resize_5-target.png,125,2.505,4,1887,131,feet,jsons/VE125_randls_6_rotated.json,1708085,2107636,37,Man
68,701497,DepthScenes,duration_manipulation_targetAtFixation,jsons/VE125_randls_6_rotated.json,http://54.235.29.9/FacialAge/BNav_EC2/DepthDuration/v2_depth_duration_MTurk/v2_DepthDuration_HTML.html#402,402,1135,843,1920,1080,8-29-2022,11-24-5,69,depth_duration_stimuli/001617_2014-06-20_11-35-32_260595134347_rgbf000066-resize_1/001617_2014-06-20_11-35-32_260595134347_rgbf000066-resize_1-target.png,125,3.7910000000000004,5,1959,116,feet,jsons/VE125_randls_6_rotated.json,1708085,2107636,37,Man
69,701497,DepthScenes,duration_manipulation_targetAtFixation,jsons/VE125_randls_6_rotated.json,http://54.235.29.9/FacialAge/BNav_EC2/DepthDuration/v2_depth_duration_MTurk/v2_DepthDuration_HTML.html#402,402,1135,843,1920,1080,8-29-2022,11-24-5,70,depth_duration_stimuli/001806_2014-06-26_20-50-20_260595134347_rgbf000091-resize_1/001806_2014-06-26_20-50-20_260595134347_rgbf000091-resize_1-target.png,125,2.7305,4,1813,116,feet,jsons/VE125_randls_6_rotated.json,1708085,2107636,37,Man
70,701497,DepthScenes,duration_manipulation_targetAtFixation,jsons/VE125_randls_6_rotated.json,http://54.235.29.9/FacialAge/BNav_EC2/DepthDuration/v2_depth_duration_MTurk/v2_DepthDuration_HTML.html#402,402,1135,843,1920,1080,8-29-2022,11-24-5,71,depth_duration_stimuli/002467_2014-06-28_20-38-07_260595134347_rgbf000026-resize_2/002467_2014-06-28_20-38-07_260595134347_rgbf000026-resize_2-target.png,125,4.742,6,2113,126,feet,jsons/VE125_randls_6_rotated.json,1708085,2107636,37,Man
71,701497,DepthScenes,duration_manipulation_targetAtFixation,jsons/VE125_randls_6_rotated.json,http://54.235.29.9/FacialAge/BNav_EC2/DepthDuration/v2_depth_duration_MTurk/v2_DepthDuration_HTML.html#402,402,1135,843,1920,1080,8-29-2022,11-24-5,72,depth_duration_stimuli/002570_2014-06-24_13-59-54_094959634447_rgbf000059-resize_0/002570_2014-06-24_13-59-54_094959634447_rgbf000059-resize_0-target.png,125,4.037,6,1829,124,feet,jsons/VE125_randls_6_rotated.json,1708085,2107636,37,Man
72,701497,DepthScenes,duration_manipulation_targetAtFixation,jsons/VE125_randls_6_rotated.json,http://54.235.29.9/FacialAge/BNav_EC2/DepthDuration/v2_depth_duration_MTurk/v2_DepthDuration_HTML.html#402,402,1135,843,1920,1080,8-29-2022,11-24-5,73,depth_duration_stimuli/002805_2014-06-22_19-54-03_094959634447_rgbf000079-resize_1/002805_2014-06-22_19-54-03_094959634447_rgbf000079-resize_1-target.png,125,3.1439999999999997,4,1931,131,feet,jsons/VE125_randls_6_rotated.json,1708085,2107636,37,Man
73,701497,DepthScenes,duration_manipulation_targetAtFixation,jsons/VE125_randls_6_rotated.json,http://54.235.29.9/FacialAge/BNav_EC2/DepthDuration/v2_depth_duration_MTurk/v2_DepthDuration_HTML.html#402,402,1135,843,1920,1080,8-29-2022,11-24-5,74,depth_duration_stimuli/000906_2014-06-08_13-35-43_260595134347_rgbf000155-resize_1/000906_2014-06-08_13-35-43_260595134347_rgbf000155-resize_1-target.png,125,2.8489999999999998,7,3048,133,feet,jsons/VE125_randls_6_rotated.json,1708085,2107636,37,Man
74,701497,DepthScenes,duration_manipulation_targetAtFixation,jsons/VE125_randls_6_rotated.json,http://54.235.29.9/FacialAge/BNav_EC2/DepthDuration/v2_depth_duration_MTurk/v2_DepthDuration_HTML.html#402,402,1135,843,1920,1080,8-29-2022,11-24-5,75,depth_duration_stimuli/002414_2014-06-28_20-24-58_260595134347_rgbf000067-resize_4/002414_2014-06-28_20-24-58_260595134347_rgbf000067-resize_4-target.png,125,4.363,4,17268,124,feet,jsons/VE125_randls_6_rotated.json,1708085,2107636,37,Man
75,701497,DepthScenes,duration_manipulation_targetAtFixation,jsons/VE125_randls_6_rotated.json,http://54.235.29.9/FacialAge/BNav_EC2/DepthDuration/v2_depth_duration_MTurk/v2_DepthDuration_HTML.html#402,402,1135,843,1920,1080,8-29-2022,11-24-5,76,depth_duration_stimuli/000773_2014-06-08_22-24-54_260595134347_rgbf000093-resize_1/000773_2014-06-08_22-24-54_260595134347_rgbf000093-resize_1-target.png,125,4.973,4,27946,117,feet,jsons/VE125_randls_6_rotated.json,1708085,2107636,37,Man
76,701497,DepthScenes,duration_manipulation_targetAtFixation,jsons/VE125_randls_6_rotated.json,http://54.235.29.9/FacialAge/BNav_EC2/DepthDuration/v2_depth_duration_MTurk/v2_DepthDuration_HTML.html#402,402,1135,843,1920,1080,8-29-2022,11-24-5,77,depth_duration_stimuli/000709_2014-06-08_13-51-55_260595134347_rgbf000068-resize_3/000709_2014-06-08_13-51-55_260595134347_rgbf000068-resize_3-target.png,125,1.8030000000000002,6,1711,124,feet,jsons/VE125_randls_6_rotated.json,1708085,2107636,37,Man
77,701497,DepthScenes,duration_manipulation_targetAtFixation,jsons/VE125_randls_6_rotated.json,http://54.235.29.9/FacialAge/BNav_EC2/DepthDuration/v2_depth_duration_MTurk/v2_DepthDuration_HTML.html#402,402,1135,843,1920,1080,8-29-2022,11-24-5,78,depth_duration_stimuli/002057_2014-06-24_21-00-13_260595134347_rgbf000120-resize_1/002057_2014-06-24_21-00-13_260595134347_rgbf000120-resize_1-target.png,125,2.967,4,2793,125,feet,jsons/VE125_randls_6_rotated.json,1708085,2107636,37,Man
78,701497,DepthScenes,duration_manipulation_targetAtFixation,jsons/VE125_randls_6_rotated.json,http://54.235.29.9/FacialAge/BNav_EC2/DepthDuration/v2_depth_duration_MTurk/v2_DepthDuration_HTML.html#402,402,1135,843,1920,1080,8-29-2022,11-24-5,79,depth_duration_stimuli/002750_2014-06-22_19-08-03_094959634447_rgbf000094-resize_4/002750_2014-06-22_19-08-03_094959634447_rgbf000094-resize_4-target.png,125,2.354,3,105083,117,feet,jsons/VE125_randls_6_rotated.json,1708085,2107636,37,Man
79,701497,DepthScenes,duration_manipulation_targetAtFixation,jsons/VE125_randls_6_rotated.json,http://54.235.29.9/FacialAge/BNav_EC2/DepthDuration/v2_depth_duration_MTurk/v2_DepthDuration_HTML.html#402,402,1135,843,1920,1080,8-29-2022,11-24-5,80,depth_duration_stimuli/002549_2014-06-24_13-41-39_094959634447_rgbf000022-resize_3/002549_2014-06-24_13-41-39_094959634447_rgbf000022-resize_3-target.png,125,1.476,4,1961,116,feet,jsons/VE125_randls_6_rotated.json,1708085,2107636,37,Man
80,701497,DepthScenes,duration_manipulation_targetAtFixation,jsons/VE125_randls_6_rotated.json,http://54.235.29.9/FacialAge/BNav_EC2/DepthDuration/v2_depth_duration_MTurk/v2_DepthDuration_HTML.html#402,402,1135,843,1920,1080,8-29-2022,11-24-5,81,depth_duration_stimuli/003338_2014-05-20_11-01-23_094959634447_rgbf000051-resize_6/003338_2014-05-20_11-01-23_094959634447_rgbf000051-resize_6-target.png,125,1.693,3,1815,133,feet,jsons/VE125_randls_6_rotated.json,1708085,2107636,37,Man
81,701497,DepthScenes,duration_manipulation_targetAtFixation,jsons/VE125_randls_6_rotated.json,http://54.235.29.9/FacialAge/BNav_EC2/DepthDuration/v2_depth_duration_MTurk/v2_DepthDuration_HTML.html#402,402,1135,843,1920,1080,8-29-2022,11-24-5,82,depth_duration_stimuli/002509_2014-06-24_13-19-22_094959634447_rgbf000077-resize_0/002509_2014-06-24_13-19-22_094959634447_rgbf000077-resize_0-target.png,125,1.3065,2,1769,131,feet,jsons/VE125_randls_6_rotated.json,1708085,2107636,37,Man
82,701497,DepthScenes,duration_manipulation_targetAtFixation,jsons/VE125_randls_6_rotated.json,http://54.235.29.9/FacialAge/BNav_EC2/DepthDuration/v2_depth_duration_MTurk/v2_DepthDuration_HTML.html#402,402,1135,843,1920,1080,8-29-2022,11-24-5,83,depth_duration_stimuli/002657_2014-06-13_15-29-54_094959634447_rgbf000150-resize_1/002657_2014-06-13_15-29-54_094959634447_rgbf000150-resize_1-target.png,125,4.919,6,1677,117,feet,jsons/VE125_randls_6_rotated.json,1708085,2107636,37,Man
83,701497,DepthScenes,duration_manipulation_targetAtFixation,jsons/VE125_randls_6_rotated.json,http://54.235.29.9/FacialAge/BNav_EC2/DepthDuration/v2_depth_duration_MTurk/v2_DepthDuration_HTML.html#402,402,1135,843,1920,1080,8-29-2022,11-24-5,84,depth_duration_stimuli/002375_2014-06-28_20-13-44_260595134347_rgbf000032-resize_1/002375_2014-06-28_20-13-44_260595134347_rgbf000032-resize_1-target.png,125,4.0175,4,1628,133,feet,jsons/VE125_randls_6_rotated.json,1708085,2107636,37,Man
84,701497,DepthScenes,duration_manipulation_targetAtFixation,jsons/VE125_randls_6_rotated.json,http://54.235.29.9/FacialAge/BNav_EC2/DepthDuration/v2_depth_duration_MTurk/v2_DepthDuration_HTML.html#402,402,1135,843,1920,1080,8-29-2022,11-24-5,85,depth_duration_stimuli/001584_2014-06-20_11-07-43_260595134347_rgbf000002-resize_1/001584_2014-06-20_11-07-43_260595134347_rgbf000002-resize_1-target.png,125,3.53,6,1822,131,feet,jsons/VE125_randls_6_rotated.json,1708085,2107636,37,Man
85,701497,DepthScenes,duration_manipulation_targetAtFixation,jsons/VE125_randls_6_rotated.json,http://54.235.29.9/FacialAge/BNav_EC2/DepthDuration/v2_depth_duration_MTurk/v2_DepthDuration_HTML.html#402,402,1135,843,1920,1080,8-29-2022,11-24-5,86,depth_duration_stimuli/003621_2014-05-23_18-06-08_094959634447_rgbf000101-resize_1/003621_2014-05-23_18-06-08_094959634447_rgbf000101-resize_1-target.png,125,3.9835,6,1783,116,feet,jsons/VE125_randls_6_rotated.json,1708085,2107636,37,Man
86,701497,DepthScenes,duration_manipulation_targetAtFixation,jsons/VE125_randls_6_rotated.json,http://54.235.29.9/FacialAge/BNav_EC2/DepthDuration/v2_depth_duration_MTurk/v2_DepthDuration_HTML.html#402,402,1135,843,1920,1080,8-29-2022,11-24-5,87,depth_duration_stimuli/003081_2014-06-15_15-19-16_094959634447_rgbf000150-resize_1/003081_2014-06-15_15-19-16_094959634447_rgbf000150-resize_1-target.png,125,3.9125,6,1588,127,feet,jsons/VE125_randls_6_rotated.json,1708085,2107636,37,Man
87,701497,DepthScenes,duration_manipulation_targetAtFixation,jsons/VE125_randls_6_rotated.json,http://54.235.29.9/FacialAge/BNav_EC2/DepthDuration/v2_depth_duration_MTurk/v2_DepthDuration_HTML.html#402,402,1135,843,1920,1080,8-29-2022,11-24-5,88,depth_duration_stimuli/001417_2014-06-19_16-25-36_260595134347_rgbf000115-resize_5/001417_2014-06-19_16-25-36_260595134347_rgbf000115-resize_5-target.png,125,4.6255,5,22998,125,feet,jsons/VE125_randls_6_rotated.json,1708085,2107636,37,Man
88,701497,DepthScenes,duration_manipulation_targetAtFixation,jsons/VE125_randls_6_rotated.json,http://54.235.29.9/FacialAge/BNav_EC2/DepthDuration/v2_depth_duration_MTurk/v2_DepthDuration_HTML.html#402,402,1135,843,1920,1080,8-29-2022,11-24-5,89,depth_duration_stimuli/003079_2014-06-15_15-18-20_094959634447_rgbf000152-resize_8/003079_2014-06-15_15-18-20_094959634447_rgbf000152-resize_8-target.png,125,2.8775,8,2337,117,feet,jsons/VE125_randls_6_rotated.json,1708085,2107636,37,Man
89,701497,DepthScenes,duration_manipulation_targetAtFixation,jsons/VE125_randls_6_rotated.json,http://54.235.29.9/FacialAge/BNav_EC2/DepthDuration/v2_depth_duration_MTurk/v2_DepthDuration_HTML.html#402,402,1135,843,1920,1080,8-29-2022,11-24-5,90,depth_duration_stimuli/000506_2014-06-08_23-21-00_260595134347_rgbf000070-resize_7/000506_2014-06-08_23-21-00_260595134347_rgbf000070-resize_7-target.png,125,4.0585,5,2412,129,feet,jsons/VE125_randls_6_rotated.json,1708085,2107636,37,Man
90,701497,DepthScenes,duration_manipulation_targetAtFixation,jsons/VE125_randls_6_rotated.json,http://54.235.29.9/FacialAge/BNav_EC2/DepthDuration/v2_depth_duration_MTurk/v2_DepthDuration_HTML.html#402,402,1135,843,1920,1080,8-29-2022,11-24-5,91,depth_duration_stimuli/000677_2014-06-08_23-10-32_260595134347_rgbf000158-resize_6/000677_2014-06-08_23-10-32_260595134347_rgbf000158-resize_6-target.png,125,3.556,6,1683,132,feet,jsons/VE125_randls_6_rotated.json,1708085,2107636,37,Man
91,701497,DepthScenes,duration_manipulation_targetAtFixation,jsons/VE125_randls_6_rotated.json,http://54.235.29.9/FacialAge/BNav_EC2/DepthDuration/v2_depth_duration_MTurk/v2_DepthDuration_HTML.html#402,402,1135,843,1920,1080,8-29-2022,11-24-5,92,depth_duration_stimuli/001029_2014-06-08_13-17-57_260595134347_rgbf000065-resize_1/001029_2014-06-08_13-17-57_260595134347_rgbf000065-resize_1-target.png,125,3.0835,5,1833,134,feet,jsons/VE125_randls_6_rotated.json,1708085,2107636,37,Man
92,701497,DepthScenes,duration_manipulation_targetAtFixation,jsons/VE125_randls_6_rotated.json,http://54.235.29.9/FacialAge/BNav_EC2/DepthDuration/v2_depth_duration_MTurk/v2_DepthDuration_HTML.html#402,402,1135,843,1920,1080,8-29-2022,11-24-5,93,depth_duration_stimuli/001214_2014-06-17_16-13-55_260595134347_rgbf000111-resize_0/001214_2014-06-17_16-13-55_260595134347_rgbf000111-resize_0-target.png,125,2.6505,4,1854,111,feet,jsons/VE125_randls_6_rotated.json,1708085,2107636,37,Man
93,701497,DepthScenes,duration_manipulation_targetAtFixation,jsons/VE125_randls_6_rotated.json,http://54.235.29.9/FacialAge/BNav_EC2/DepthDuration/v2_depth_duration_MTurk/v2_DepthDuration_HTML.html#402,402,1135,843,1920,1080,8-29-2022,11-24-5,94,depth_duration_stimuli/000810_2014-06-08_17-20-01_260595134347_rgbf000105-resize_0/000810_2014-06-08_17-20-01_260595134347_rgbf000105-resize_0-target.png,125,1.4865,6,2050,114,feet,jsons/VE125_randls_6_rotated.json,1708085,2107636,37,Man
94,701497,DepthScenes,duration_manipulation_targetAtFixation,jsons/VE125_randls_6_rotated.json,http://54.235.29.9/FacialAge/BNav_EC2/DepthDuration/v2_depth_duration_MTurk/v2_DepthDuration_HTML.html#402,402,1135,843,1920,1080,8-29-2022,11-24-5,95,depth_duration_stimuli/003048_2014-06-15_13-49-43_094959634447_rgbf000150-resize_1/003048_2014-06-15_13-49-43_094959634447_rgbf000150-resize_1-target.png,125,4.0035,4,1945,110,feet,jsons/VE125_randls_6_rotated.json,1708085,2107636,37,Man
95,701497,DepthScenes,duration_manipulation_targetAtFixation,jsons/VE125_randls_6_rotated.json,http://54.235.29.9/FacialAge/BNav_EC2/DepthDuration/v2_depth_duration_MTurk/v2_DepthDuration_HTML.html#402,402,1135,843,1920,1080,8-29-2022,11-24-5,96,depth_duration_stimuli/002043_2014-06-24_20-29-38_260595134347_rgbf000039-resize_4/002043_2014-06-24_20-29-38_260595134347_rgbf000039-resize_4-target.png,125,2.8435,6,1882,119,feet,jsons/VE125_randls_6_rotated.json,1708085,2107636,37,Man
96,701497,DepthScenes,duration_manipulation_targetAtFixation,jsons/VE125_randls_6_rotated.json,http://54.235.29.9/FacialAge/BNav_EC2/DepthDuration/v2_depth_duration_MTurk/v2_DepthDuration_HTML.html#402,402,1135,843,1920,1080,8-29-2022,11-24-5,97,depth_duration_stimuli/002678_2014-06-13_16-15-32_094959634447_rgbf000151-resize_6/002678_2014-06-13_16-15-32_094959634447_rgbf000151-resize_6-target.png,125,2.1830000000000003,4,2803,132,feet,jsons/VE125_randls_6_rotated.json,1708085,2107636,37,Man
97,701497,DepthScenes,duration_manipulation_targetAtFixation,jsons/VE125_randls_6_rotated.json,http://54.235.29.9/FacialAge/BNav_EC2/DepthDuration/v2_depth_duration_MTurk/v2_DepthDuration_HTML.html#402,402,1135,843,1920,1080,8-29-2022,11-24-5,98,depth_duration_stimuli/000368_2014-06-09_15-53-01_260595134347_rgbf000155-resize_2/000368_2014-06-09_15-53-01_260595134347_rgbf000155-resize_2-target.png,125,2.4859999999999998,5,1903,117,feet,jsons/VE125_randls_6_rotated.json,1708085,2107636,37,Man
98,701497,DepthScenes,duration_manipulation_targetAtFixation,jsons/VE125_randls_6_rotated.json,http://54.235.29.9/FacialAge/BNav_EC2/DepthDuration/v2_depth_duration_MTurk/v2_DepthDuration_HTML.html#402,402,1135,843,1920,1080,8-29-2022,11-24-5,99,depth_duration_stimuli/001222_2014-06-17_16-24-06_260595134347_rgbf000073-resize_0/001222_2014-06-17_16-24-06_260595134347_rgbf000073-resize-original.jpg,125,1.4385,6,2639,120,feet,jsons/VE125_randls_6_rotated.json,1708085,2107636,37,Man
99,701497,DepthScenes,duration_manipulation_targetAtFixation,jsons/VE125_randls_6_rotated.json,http://54.235.29.9/FacialAge/BNav_EC2/DepthDuration/v2_depth_duration_MTurk/v2_DepthDuration_HTML.html#402,402,1135,843,1920,1080,8-29-2022,11-24-5,100,depth_duration_stimuli/003129_2014-05-12_10-48-10_094959634447_rgbf000100-resize_0/003129_2014-05-12_10-48-10_094959634447_rgbf000100-resize_0-target.png,125,4.9305,5,29969,127,feet,jsons/VE125_randls_6_rotated.json,1708085,2107636,37,Man
100,701497,DepthScenes,duration_manipulation_targetAtFixation,jsons/VE125_randls_6_rotated.json,http://54.235.29.9/FacialAge/BNav_EC2/DepthDuration/v2_depth_duration_MTurk/v2_DepthDuration_HTML.html#402,402,1135,843,1920,1080,8-29-2022,11-24-5,101,depth_duration_stimuli/000414_2014-06-04_19-49-13_260595134347_rgbf000044-resize_0/000414_2014-06-04_19-49-13_260595134347_rgbf000044-resize_0-target.png,125,4.329,9,2151,127,feet,jsons/VE125_randls_6_rotated.json,1708085,2107636,37,Man
101,701497,DepthScenes,duration_manipulation_targetAtFixation,jsons/VE125_randls_6_rotated.json,http://54.235.29.9/FacialAge/BNav_EC2/DepthDuration/v2_depth_duration_MTurk/v2_DepthDuration_HTML.html#402,402,1135,843,1920,1080,8-29-2022,11-24-5,102,depth_duration_stimuli/000665_2014-06-09_20-42-35_260595134347_rgbf000110-resize_1/000665_2014-06-09_20-42-35_260595134347_rgbf000110-resize_1-target.png,125,3.057,4,2671,124,feet,jsons/VE125_randls_6_rotated.json,1708085,2107636,37,Man
102,701497,DepthScenes,duration_manipulation_targetAtFixation,jsons/VE125_randls_6_rotated.json,http://54.235.29.9/FacialAge/BNav_EC2/DepthDuration/v2_depth_duration_MTurk/v2_DepthDuration_HTML.html#402,402,1135,843,1920,1080,8-29-2022,11-24-5,103,depth_duration_stimuli/001150_2014-06-17_15-27-34_260595134347_rgbf000108-resize_2/001150_2014-06-17_15-27-34_260595134347_rgbf000108-resize_2-target.png,125,4.0325,8,2089,126,feet,jsons/VE125_randls_6_rotated.json,1708085,2107636,37,Man
103,701497,DepthScenes,duration_manipulation_targetAtFixation,jsons/VE125_randls_6_rotated.json,http://54.235.29.9/FacialAge/BNav_EC2/DepthDuration/v2_depth_duration_MTurk/v2_DepthDuration_HTML.html#402,402,1135,843,1920,1080,8-29-2022,11-24-5,104,depth_duration_stimuli/000943_2014-06-09_19-31-07_260595134347_rgbf000128-resize_1/000943_2014-06-09_19-31-07_260595134347_rgbf000128-resize_1-target.png,125,1.9765,5,1896,125,feet,jsons/VE125_randls_6_rotated.json,1708085,2107636,37,Man
104,701497,DepthScenes,duration_manipulation_targetAtFixation,jsons/VE125_randls_6_rotated.json,http://54.235.29.9/FacialAge/BNav_EC2/DepthDuration/v2_depth_duration_MTurk/v2_DepthDuration_HTML.html#402,402,1135,843,1920,1080,8-29-2022,11-24-5,105,depth_duration_stimuli/003070_2014-06-15_14-58-27_094959634447_rgbf000150-resize_3/003070_2014-06-15_14-58-27_094959634447_rgbf000150-resize_3-target.png,125,2.9415,8,1988,118,feet,jsons/VE125_randls_6_rotated.json,1708085,2107636,37,Man
105,701497,DepthScenes,duration_manipulation_targetAtFixation,jsons/VE125_randls_6_rotated.json,http://54.235.29.9/FacialAge/BNav_EC2/DepthDuration/v2_depth_duration_MTurk/v2_DepthDuration_HTML.html#402,402,1135,843,1920,1080,8-29-2022,11-24-5,106,depth_duration_stimuli/002103_2014-06-25_20-00-40_260595134347_rgbf000049-resize_0/002103_2014-06-25_20-00-40_260595134347_rgbf000049-resize_0-target.png,125,4.105,5,1908,118,feet,jsons/VE125_randls_6_rotated.json,1708085,2107636,37,Man
106,701497,DepthScenes,duration_manipulation_targetAtFixation,jsons/VE125_randls_6_rotated.json,http://54.235.29.9/FacialAge/BNav_EC2/DepthDuration/v2_depth_duration_MTurk/v2_DepthDuration_HTML.html#402,402,1135,843,1920,1080,8-29-2022,11-24-5,107,depth_duration_stimuli/002039_2014-06-24_20-22-38_260595134347_rgbf000084-resize_1/002039_2014-06-24_20-22-38_260595134347_rgbf000084-resize_1-target.png,125,4.408,7,1944,125,feet,jsons/VE125_randls_6_rotated.json,1708085,2107636,37,Man
107,701497,DepthScenes,duration_manipulation_targetAtFixation,jsons/VE125_randls_6_rotated.json,http://54.235.29.9/FacialAge/BNav_EC2/DepthDuration/v2_depth_duration_MTurk/v2_DepthDuration_HTML.html#402,402,1135,843,1920,1080,8-29-2022,11-24-5,108,depth_duration_stimuli/003495_2014-05-21_16-01-51_094959634447_rgbf000100-resize_3/003495_2014-05-21_16-01-51_094959634447_rgbf000100-resize_3-target.png,125,1.6255,5,1563,114,feet,jsons/VE125_randls_6_rotated.json,1708085,2107636,37,Man
108,701497,DepthScenes,duration_manipulation_targetAtFixation,jsons/VE125_randls_6_rotated.json,http://54.235.29.9/FacialAge/BNav_EC2/DepthDuration/v2_depth_duration_MTurk/v2_DepthDuration_HTML.html#402,402,1135,843,1920,1080,8-29-2022,11-24-5,109,depth_duration_stimuli/001244_2014-06-17_16-47-45_260595134347_rgbf000030-resize_4/001244_2014-06-17_16-47-45_260595134347_rgbf000030-resize_4-target.png,125,2.0425,4,1765,133,feet,jsons/VE125_randls_6_rotated.json,1708085,2107636,37,Man
109,701497,DepthScenes,duration_manipulation_targetAtFixation,jsons/VE125_randls_6_rotated.json,http://54.235.29.9/FacialAge/BNav_EC2/DepthDuration/v2_depth_duration_MTurk/v2_DepthDuration_HTML.html#402,402,1135,843,1920,1080,8-29-2022,11-24-5,110,depth_duration_stimuli/000137_2014-05-20_17-04-49_260595134347_rgbf000120-resize_1/000137_2014-05-20_17-04-49_260595134347_rgbf000120-resize_1-target.png,125,3.786,2,13496,124,feet,jsons/VE125_randls_6_rotated.json,1708085,2107636,37,Man
110,701497,DepthScenes,duration_manipulation_targetAtFixation,jsons/VE125_randls_6_rotated.json,http://54.235.29.9/FacialAge/BNav_EC2/DepthDuration/v2_depth_duration_MTurk/v2_DepthDuration_HTML.html#402,402,1135,843,1920,1080,8-29-2022,11-24-5,111,depth_duration_stimuli/000736_2014-06-08_18-24-15_260595134347_rgbf000206-resize_3/000736_2014-06-08_18-24-15_260595134347_rgbf000206-resize_3-target.png,125,3.515,5,2812,125,feet,jsons/VE125_randls_6_rotated.json,1708085,2107636,37,Man
111,701497,DepthScenes,duration_manipulation_targetAtFixation,jsons/VE125_randls_6_rotated.json,http://54.235.29.9/FacialAge/BNav_EC2/DepthDuration/v2_depth_duration_MTurk/v2_DepthDuration_HTML.html#402,402,1135,843,1920,1080,8-29-2022,11-24-5,112,depth_duration_stimuli/000734_2014-06-08_17-39-11_260595134347_rgbf000128-resize_2/000734_2014-06-08_17-39-11_260595134347_rgbf000128-resize_2-target.png,125,4.098,5,6205,127,feet,jsons/VE125_randls_6_rotated.json,1708085,2107636,37,Man
112,701497,DepthScenes,duration_manipulation_targetAtFixation,jsons/VE125_randls_6_rotated.json,http://54.235.29.9/FacialAge/BNav_EC2/DepthDuration/v2_depth_duration_MTurk/v2_DepthDuration_HTML.html#402,402,1135,843,1920,1080,8-29-2022,11-24-5,113,depth_duration_stimuli/000739_2014-06-08_18-45-58_260595134347_rgbf000068-resize_1/000739_2014-06-08_18-45-58_260595134347_rgbf000068-resize_1-target.png,125,3.534,1,5009,116,feet,jsons/VE125_randls_6_rotated.json,1708085,2107636,37,Man
113,701497,DepthScenes,duration_manipulation_targetAtFixation,jsons/VE125_randls_6_rotated.json,http://54.235.29.9/FacialAge/BNav_EC2/DepthDuration/v2_depth_duration_MTurk/v2_DepthDuration_HTML.html#402,402,1135,843,1920,1080,8-29-2022,11-24-5,114,depth_duration_stimuli/001235_2014-06-17_16-37-36_260595134347_rgbf000084-resize_4/001235_2014-06-17_16-37-36_260595134347_rgbf000084-resize_4-target.png,125,3.6605,4,1680,132,feet,jsons/VE125_randls_6_rotated.json,1708085,2107636,37,Man
114,701497,DepthScenes,duration_manipulation_targetAtFixation,jsons/VE125_randls_6_rotated.json,http://54.235.29.9/FacialAge/BNav_EC2/DepthDuration/v2_depth_duration_MTurk/v2_DepthDuration_HTML.html#402,402,1135,843,1920,1080,8-29-2022,11-24-5,115,depth_duration_stimuli/000788_2014-06-08_22-34-36_260595134347_rgbf000131-resize_1/000788_2014-06-08_22-34-36_260595134347_rgbf000131-resize_1-target.png,125,3.359,3,1839,134,feet,jsons/VE125_randls_6_rotated.json,1708085,2107636,37,Man
115,701497,DepthScenes,duration_manipulation_targetAtFixation,jsons/VE125_randls_6_rotated.json,http://54.235.29.9/FacialAge/BNav_EC2/DepthDuration/v2_depth_duration_MTurk/v2_DepthDuration_HTML.html#402,402,1135,843,1920,1080,8-29-2022,11-24-5,116,depth_duration_stimuli/001392_2014-06-19_16-07-59_260595134347_rgbf000046-resize_1/001392_2014-06-19_16-07-59_260595134347_rgbf000046-resize_1-target.png,125,4.135,0,2343,116,feet,jsons/VE125_randls_6_rotated.json,1708085,2107636,37,Man
116,701497,DepthScenes,duration_manipulation_targetAtFixation,jsons/VE125_randls_6_rotated.json,http://54.235.29.9/FacialAge/BNav_EC2/DepthDuration/v2_depth_duration_MTurk/v2_DepthDuration_HTML.html#402,402,1135,843,1920,1080,8-29-2022,11-24-5,117,depth_duration_stimuli/001570_2014-06-20_17-21-09_260595134347_rgbf000135-resize_4/001570_2014-06-20_17-21-09_260595134347_rgbf000135-resize_4-target.png,125,4.467,7,1897,134,feet,jsons/VE125_randls_6_rotated.json,1708085,2107636,37,Man
117,701497,DepthScenes,duration_manipulation_targetAtFixation,jsons/VE125_randls_6_rotated.json,http://54.235.29.9/FacialAge/BNav_EC2/DepthDuration/v2_depth_duration_MTurk/v2_DepthDuration_HTML.html#402,402,1135,843,1920,1080,8-29-2022,11-24-5,118,depth_duration_stimuli/002323_2014-06-28_20-01-54_260595134347_rgbf000051-resize_4/002323_2014-06-28_20-01-54_260595134347_rgbf000051-resize_4-target.png,125,3.7310000000000003,3,71698,133,feet,jsons/VE125_randls_6_rotated.json,1708085,2107636,37,Man
118,701497,DepthScenes,duration_manipulation_targetAtFixation,jsons/VE125_randls_6_rotated.json,http://54.235.29.9/FacialAge/BNav_EC2/DepthDuration/v2_depth_duration_MTurk/v2_DepthDuration_HTML.html#402,402,1135,843,1920,1080,8-29-2022,11-24-5,119,depth_duration_stimuli/000917_2014-06-09_22-45-29_260595134347_rgbf000149-resize_3/000917_2014-06-09_22-45-29_260595134347_rgbf000149-resize_3-target.png,125,4.1865,5,1763,132,feet,jsons/VE125_randls_6_rotated.json,1708085,2107636,37,Man
119,701497,DepthScenes,duration_manipulation_targetAtFixation,jsons/VE125_randls_6_rotated.json,http://54.235.29.9/FacialAge/BNav_EC2/DepthDuration/v2_depth_duration_MTurk/v2_DepthDuration_HTML.html#402,402,1135,843,1920,1080,8-29-2022,11-24-5,120,depth_duration_stimuli/000787_2014-06-08_22-33-53_260595134347_rgbf000175-resize_1/000787_2014-06-08_22-33-53_260595134347_rgbf000175-resize-original.jpg,125,4.784,0,2266,134,feet,jsons/VE125_randls_6_rotated.json,1708085,2107636,37,Man
120,701497,DepthScenes,duration_manipulation_targetAtFixation,jsons/VE125_randls_6_rotated.json,http://54.235.29.9/FacialAge/BNav_EC2/DepthDuration/v2_depth_duration_MTurk/v2_DepthDuration_HTML.html#402,402,1135,843,1920,1080,8-29-2022,11-24-5,121,depth_duration_stimuli/001828_2014-06-26_21-40-03_260595134347_rgbf000024-resize_0/001828_2014-06-26_21-40-03_260595134347_rgbf000024-resize_0-target.png,125,4.8260000000000005,4,2072,123,feet,jsons/VE125_randls_6_rotated.json,1708085,2107636,37,Man
121,701497,DepthScenes,duration_manipulation_targetAtFixation,jsons/VE125_randls_6_rotated.json,http://54.235.29.9/FacialAge/BNav_EC2/DepthDuration/v2_depth_duration_MTurk/v2_DepthDuration_HTML.html#402,402,1135,843,1920,1080,8-29-2022,11-24-5,122,depth_duration_stimuli/000009_2014-05-26_14-32-05_260595134347_rgbf000034-resize_3/000009_2014-05-26_14-32-05_260595134347_rgbf000034-resize_3-target.png,125,3.8715,5,1669,116,feet,jsons/VE125_randls_6_rotated.json,1708085,2107636,37,Man
122,701497,DepthScenes,duration_manipulation_targetAtFixation,jsons/VE125_randls_6_rotated.json,http://54.235.29.9/FacialAge/BNav_EC2/DepthDuration/v2_depth_duration_MTurk/v2_DepthDuration_HTML.html#402,402,1135,843,1920,1080,8-29-2022,11-24-5,123,depth_duration_stimuli/002209_2014-06-28_18-36-10_260595134347_rgbf000051-resize_1/002209_2014-06-28_18-36-10_260595134347_rgbf000051-resize_1-target.png,125,2.057,4,2407,129,feet,jsons/VE125_randls_6_rotated.json,1708085,2107636,37,Man
123,701497,DepthScenes,duration_manipulation_targetAtFixation,jsons/VE125_randls_6_rotated.json,http://54.235.29.9/FacialAge/BNav_EC2/DepthDuration/v2_depth_duration_MTurk/v2_DepthDuration_HTML.html#402,402,1135,843,1920,1080,8-29-2022,11-24-5,124,depth_duration_stimuli/002763_2014-06-22_19-13-10_094959634447_rgbf000075-resize_4/002763_2014-06-22_19-13-10_094959634447_rgbf000075-resize_4-target.png,125,1.68375,3,1680,133,feet,jsons/VE125_randls_6_rotated.json,1708085,2107636,37,Man
124,701497,DepthScenes,duration_manipulation_targetAtFixation,jsons/VE125_randls_6_rotated.json,http://54.235.29.9/FacialAge/BNav_EC2/DepthDuration/v2_depth_duration_MTurk/v2_DepthDuration_HTML.html#402,402,1135,843,1920,1080,8-29-2022,11-24-5,125,depth_duration_stimuli/000780_2014-06-08_22-28-29_260595134347_rgbf000126-resize_1/000780_2014-06-08_22-28-29_260595134347_rgbf000126-resize_1-target.png,125,3.3825,4,2120,135,feet,jsons/VE125_randls_6_rotated.json,1708085,2107636,37,Man
125,701497,DepthScenes,duration_manipulation_targetAtFixation,jsons/VE125_randls_6_rotated.json,http://54.235.29.9/FacialAge/BNav_EC2/DepthDuration/v2_depth_duration_MTurk/v2_DepthDuration_HTML.html#402,402,1135,843,1920,1080,8-29-2022,11-24-5,126,depth_duration_stimuli/002445_2014-06-28_20-32-16_260595134347_rgbf000029-resize_4/002445_2014-06-28_20-32-16_260595134347_rgbf000029-resize_4-target.png,125,2.5315,2,1700,131,feet,jsons/VE125_randls_6_rotated.json,1708085,2107636,37,Man
126,701497,DepthScenes,duration_manipulation_targetAtFixation,jsons/VE125_randls_6_rotated.json,http://54.235.29.9/FacialAge/BNav_EC2/DepthDuration/v2_depth_duration_MTurk/v2_DepthDuration_HTML.html#402,402,1135,843,1920,1080,8-29-2022,11-24-5,127,depth_duration_stimuli/003010_2014-06-15_12-54-35_094959634447_rgbf000112-resize_0/003010_2014-06-15_12-54-35_094959634447_rgbf000112-resize_0-target.png,125,3.1185,4,2579,115,feet,jsons/VE125_randls_6_rotated.json,1708085,2107636,37,Man
127,701497,DepthScenes,duration_manipulation_targetAtFixation,jsons/VE125_randls_6_rotated.json,http://54.235.29.9/FacialAge/BNav_EC2/DepthDuration/v2_depth_duration_MTurk/v2_DepthDuration_HTML.html#402,402,1135,843,1920,1080,8-29-2022,11-24-5,128,depth_duration_stimuli/001810_2014-06-26_20-51-35_260595134347_rgbf000040-resize_3/001810_2014-06-26_20-51-35_260595134347_rgbf000040-resize_3-target.png,125,2.2525,4,55791,120,feet,jsons/VE125_randls_6_rotated.json,1708085,2107636,37,Man
128,701497,DepthScenes,duration_manipulation_targetAtFixation,jsons/VE125_randls_6_rotated.json,http://54.235.29.9/FacialAge/BNav_EC2/DepthDuration/v2_depth_duration_MTurk/v2_DepthDuration_HTML.html#402,402,1135,843,1920,1080,8-29-2022,11-24-5,129,depth_duration_stimuli/000927_2014-06-09_16-32-30_260595134347_rgbf000123-resize_3/000927_2014-06-09_16-32-30_260595134347_rgbf000123-resize_3-target.png,125,2.6785,4,10575,125,feet,jsons/VE125_randls_6_rotated.json,1708085,2107636,37,Man
129,701497,DepthScenes,duration_manipulation_targetAtFixation,jsons/VE125_randls_6_rotated.json,http://54.235.29.9/FacialAge/BNav_EC2/DepthDuration/v2_depth_duration_MTurk/v2_DepthDuration_HTML.html#402,402,1135,843,1920,1080,8-29-2022,11-24-5,130,depth_duration_stimuli/001110_2014-06-15_17-25-28_260595134347_rgbf000150-resize_1/001110_2014-06-15_17-25-28_260595134347_rgbf000150-resize_1-target.png,125,1.7115,4,1616,116,feet,jsons/VE125_randls_6_rotated.json,1708085,2107636,37,Man
130,701497,DepthScenes,duration_manipulation_targetAtFixation,jsons/VE125_randls_6_rotated.json,http://54.235.29.9/FacialAge/BNav_EC2/DepthDuration/v2_depth_duration_MTurk/v2_DepthDuration_HTML.html#402,402,1135,843,1920,1080,8-29-2022,11-24-5,131,depth_duration_stimuli/002637_2014-06-24_14-51-13_094959634447_rgbf000066-resize_4/002637_2014-06-24_14-51-13_094959634447_rgbf000066-resize_4-target.png,125,1.9955,3,1582,116,feet,jsons/VE125_randls_6_rotated.json,1708085,2107636,37,Man
131,701497,DepthScenes,duration_manipulation_targetAtFixation,jsons/VE125_randls_6_rotated.json,http://54.235.29.9/FacialAge/BNav_EC2/DepthDuration/v2_depth_duration_MTurk/v2_DepthDuration_HTML.html#402,402,1135,843,1920,1080,8-29-2022,11-24-5,132,depth_duration_stimuli/003534_2014-05-22_15-06-10_094959634447_rgbf000102-resize_4/003534_2014-05-22_15-06-10_094959634447_rgbf000102-resize_4-target.png,125,1.426,4,2894,132,feet,jsons/VE125_randls_6_rotated.json,1708085,2107636,37,Man
132,701497,DepthScenes,duration_manipulation_targetAtFixation,jsons/VE125_randls_6_rotated.json,http://54.235.29.9/FacialAge/BNav_EC2/DepthDuration/v2_depth_duration_MTurk/v2_DepthDuration_HTML.html#402,402,1135,843,1920,1080,8-29-2022,11-24-5,133,depth_duration_stimuli/003490_2014-05-21_15-50-11_094959634447_rgbf000101-resize_3/003490_2014-05-21_15-50-11_094959634447_rgbf000101-resize_3-target.png,125,3.6445,3,2064,134,feet,jsons/VE125_randls_6_rotated.json,1708085,2107636,37,Man
133,701497,DepthScenes,duration_manipulation_targetAtFixation,jsons/VE125_randls_6_rotated.json,http://54.235.29.9/FacialAge/BNav_EC2/DepthDuration/v2_depth_duration_MTurk/v2_DepthDuration_HTML.html#402,402,1135,843,1920,1080,8-29-2022,11-24-5,134,depth_duration_stimuli/001175_2014-06-17_15-45-55_260595134347_rgbf000129-resize_4/001175_2014-06-17_15-45-55_260595134347_rgbf000129-resize_4-target.png,125,4.255,0,2404,133,feet,jsons/VE125_randls_6_rotated.json,1708085,2107636,37,Man
134,701497,DepthScenes,duration_manipulation_targetAtFixation,jsons/VE125_randls_6_rotated.json,http://54.235.29.9/FacialAge/BNav_EC2/DepthDuration/v2_depth_duration_MTurk/v2_DepthDuration_HTML.html#402,402,1135,843,1920,1080,8-29-2022,11-24-5,135,depth_duration_stimuli/000375_2014-06-08_11-17-29_260595134347_rgbf000133-resize_2/000375_2014-06-08_11-17-29_260595134347_rgbf000133-resize-original.jpg,125,4.718,4,1854,127,feet,jsons/VE125_randls_6_rotated.json,1708085,2107636,37,Man
135,701497,DepthScenes,duration_manipulation_targetAtFixation,jsons/VE125_randls_6_rotated.json,http://54.235.29.9/FacialAge/BNav_EC2/DepthDuration/v2_depth_duration_MTurk/v2_DepthDuration_HTML.html#402,402,1135,843,1920,1080,8-29-2022,11-24-5,136,depth_duration_stimuli/000103_2014-05-14_22-01-17_260595134347_rgbf000152-resize_5/000103_2014-05-14_22-01-17_260595134347_rgbf000152-resize_5-target.png,125,1.993,4,1500,138,feet,jsons/VE125_randls_6_rotated.json,1708085,2107636,37,Man
136,701497,DepthScenes,duration_manipulation_targetAtFixation,jsons/VE125_randls_6_rotated.json,http://54.235.29.9/FacialAge/BNav_EC2/DepthDuration/v2_depth_duration_MTurk/v2_DepthDuration_HTML.html#402,402,1135,843,1920,1080,8-29-2022,11-24-5,137,depth_duration_stimuli/001555_2014-06-20_17-12-10_260595134347_rgbf000065-resize_4/001555_2014-06-20_17-12-10_260595134347_rgbf000065-resize_4-target.png,125,1.633,3,2043,133,feet,jsons/VE125_randls_6_rotated.json,1708085,2107636,37,Man
137,701497,DepthScenes,duration_manipulation_targetAtFixation,jsons/VE125_randls_6_rotated.json,http://54.235.29.9/FacialAge/BNav_EC2/DepthDuration/v2_depth_duration_MTurk/v2_DepthDuration_HTML.html#402,402,1135,843,1920,1080,8-29-2022,11-24-5,138,depth_duration_stimuli/002136_2014-06-25_21-18-03_260595134347_rgbf000109-resize_3/002136_2014-06-25_21-18-03_260595134347_rgbf000109-resize_3-target.png,125,1.9569999999999999,4,48667,131,feet,jsons/VE125_randls_6_rotated.json,1708085,2107636,37,Man
138,701497,DepthScenes,duration_manipulation_targetAtFixation,jsons/VE125_randls_6_rotated.json,http://54.235.29.9/FacialAge/BNav_EC2/DepthDuration/v2_depth_duration_MTurk/v2_DepthDuration_HTML.html#402,402,1135,843,1920,1080,8-29-2022,11-24-5,139,depth_duration_stimuli/002964_2014-06-08_17-46-11_094959634447_rgbf000091-resize_4/002964_2014-06-08_17-46-11_094959634447_rgbf000091-resize_4-target.png,125,1.6909999999999998,3,2752,118,feet,jsons/VE125_randls_6_rotated.json,1708085,2107636,37,Man
139,701497,DepthScenes,duration_manipulation_targetAtFixation,jsons/VE125_randls_6_rotated.json,http://54.235.29.9/FacialAge/BNav_EC2/DepthDuration/v2_depth_duration_MTurk/v2_DepthDuration_HTML.html#402,402,1135,843,1920,1080,8-29-2022,11-24-5,140,depth_duration_stimuli/002875_2014-06-01_15-19-00_094959634447_rgbf000151-resize_1/002875_2014-06-01_15-19-00_094959634447_rgbf000151-resize_1-target.png,125,1.9675,4,4242,124,feet,jsons/VE125_randls_6_rotated.json,1708085,2107636,37,Man
140,701497,DepthScenes,duration_manipulation_targetAtFixation,jsons/VE125_randls_6_rotated.json,http://54.235.29.9/FacialAge/BNav_EC2/DepthDuration/v2_depth_duration_MTurk/v2_DepthDuration_HTML.html#402,402,1135,843,1920,1080,8-29-2022,11-24-5,141,depth_duration_stimuli/001011_2014-06-08_23-18-54_260595134347_rgbf000044-resize_4/001011_2014-06-08_23-18-54_260595134347_rgbf000044-resize_4-target.png,125,2.4730000000000003,5,2278,124,feet,jsons/VE125_randls_6_rotated.json,1708085,2107636,37,Man
141,701497,DepthScenes,duration_manipulation_targetAtFixation,jsons/VE125_randls_6_rotated.json,http://54.235.29.9/FacialAge/BNav_EC2/DepthDuration/v2_depth_duration_MTurk/v2_DepthDuration_HTML.html#402,402,1135,843,1920,1080,8-29-2022,11-24-5,142,depth_duration_stimuli/002568_2014-06-24_13-59-21_094959634447_rgbf000062-resize_4/002568_2014-06-24_13-59-21_094959634447_rgbf000062-resize_4-target.png,125,3.015,4,43184,136,feet,jsons/VE125_randls_6_rotated.json,1708085,2107636,37,Man
142,701497,DepthScenes,duration_manipulation_targetAtFixation,jsons/VE125_randls_6_rotated.json,http://54.235.29.9/FacialAge/BNav_EC2/DepthDuration/v2_depth_duration_MTurk/v2_DepthDuration_HTML.html#402,402,1135,843,1920,1080,8-29-2022,11-24-5,143,depth_duration_stimuli/003492_2014-05-21_15-50-55_094959634447_rgbf000828-resize_1/003492_2014-05-21_15-50-55_094959634447_rgbf000828-resize_1-target.png,125,4.06875,3,7319,138,feet,jsons/VE125_randls_6_rotated.json,1708085,2107636,37,Man
143,701497,DepthScenes,duration_manipulation_targetAtFixation,jsons/VE125_randls_6_rotated.json,http://54.235.29.9/FacialAge/BNav_EC2/DepthDuration/v2_depth_duration_MTurk/v2_DepthDuration_HTML.html#402,402,1003,843,1920,1080,8-29-2022,11-24-5,144,depth_duration_stimuli/000691_2014-06-08_13-08-50_260595134347_rgbf000132-resize_3/000691_2014-06-08_13-08-50_260595134347_rgbf000132-resize_3-target.png,125,4.1530000000000005,4,3695,131,feet,jsons/VE125_randls_6_rotated.json,1708085,2107636,37,Man
144,701497,DepthScenes,duration_manipulation_targetAtFixation,jsons/VE125_randls_6_rotated.json,http://54.235.29.9/FacialAge/BNav_EC2/DepthDuration/v2_depth_duration_MTurk/v2_DepthDuration_HTML.html#402,402,1003,843,1920,1080,8-29-2022,11-24-5,145,depth_duration_stimuli/002213_2014-06-28_18-37-58_260595134347_rgbf000055-resize_1/002213_2014-06-28_18-37-58_260595134347_rgbf000055-resize_1-target.png,125,3.62,3,2272,124,feet,jsons/VE125_randls_6_rotated.json,1708085,2107636,37,Man
145,701497,DepthScenes,duration_manipulation_targetAtFixation,jsons/VE125_randls_6_rotated.json,http://54.235.29.9/FacialAge/BNav_EC2/DepthDuration/v2_depth_duration_MTurk/v2_DepthDuration_HTML.html#402,402,1003,843,1920,1080,8-29-2022,11-24-5,146,depth_duration_stimuli/002995_2014-06-15_12-31-26_094959634447_rgbf000150-resize_1/002995_2014-06-15_12-31-26_094959634447_rgbf000150-resize_1-target.png,125,3.8360000000000003,0,2704,113,feet,jsons/VE125_randls_6_rotated.json,1708085,2107636,37,Man
146,701497,DepthScenes,duration_manipulation_targetAtFixation,jsons/VE125_randls_6_rotated.json,http://54.235.29.9/FacialAge/BNav_EC2/DepthDuration/v2_depth_duration_MTurk/v2_DepthDuration_HTML.html#402,402,1003,843,1920,1080,8-29-2022,11-24-5,147,depth_duration_stimuli/002748_2014-06-22_19-07-22_094959634447_rgbf000078-resize_1/002748_2014-06-22_19-07-22_094959634447_rgbf000078-resize_1-target.png,125,4.6705,4,451917,125,feet,jsons/VE125_randls_6_rotated.json,1708085,2107636,37,Man
147,701497,DepthScenes,duration_manipulation_targetAtFixation,jsons/VE125_randls_6_rotated.json,http://54.235.29.9/FacialAge/BNav_EC2/DepthDuration/v2_depth_duration_MTurk/v2_DepthDuration_HTML.html#402,402,1003,843,1920,1080,8-29-2022,11-24-5,148,depth_duration_stimuli/001052_2014-06-08_18-24-54_260595134347_rgbf000130-resize_1/001052_2014-06-08_18-24-54_260595134347_rgbf000130-resize_1-target.png,125,4.1045,6,5923,124,feet,jsons/VE125_randls_6_rotated.json,1708085,2107636,37,Man
148,701497,DepthScenes,duration_manipulation_targetAtFixation,jsons/VE125_randls_6_rotated.json,http://54.235.29.9/FacialAge/BNav_EC2/DepthDuration/v2_depth_duration_MTurk/v2_DepthDuration_HTML.html#402,402,1003,843,1920,1080,8-29-2022,11-24-5,149,depth_duration_stimuli/002988_2014-06-15_12-24-20_094959634447_rgbf000150-resize_1/002988_2014-06-15_12-24-20_094959634447_rgbf000150-resize_1-target.png,125,4.7669999999999995,5,53933,126,feet,jsons/VE125_randls_6_rotated.json,1708085,2107636,37,Man
149,701497,DepthScenes,duration_manipulation_targetAtFixation,jsons/VE125_randls_6_rotated.json,http://54.235.29.9/FacialAge/BNav_EC2/DepthDuration/v2_depth_duration_MTurk/v2_DepthDuration_HTML.html#402,402,1003,843,1920,1080,8-29-2022,11-24-5,150,depth_duration_stimuli/001100_2014-06-15_17-46-26_260595134347_rgbf000225-resize_2/001100_2014-06-15_17-46-26_260595134347_rgbf000225-resize_2-target.png,125,2.24,2,5008,136,feet,jsons/VE125_randls_6_rotated.json,1708085,2107636,37,Man
150,701497,DepthScenes,duration_manipulation_targetAtFixation,jsons/VE125_randls_6_rotated.json,http://54.235.29.9/FacialAge/BNav_EC2/DepthDuration/v2_depth_duration_MTurk/v2_DepthDuration_HTML.html#402,402,1003,843,1920,1080,8-29-2022,11-24-5,151,depth_duration_stimuli/002784_2014-06-22_19-26-30_094959634447_rgbf000083-resize_3/002784_2014-06-22_19-26-30_094959634447_rgbf000083-resize_3-target.png,125,1.8046666666667,3,5605,124,feet,jsons/VE125_randls_6_rotated.json,1708085,2107636,37,Man
151,701497,DepthScenes,duration_manipulation_targetAtFixation,jsons/VE125_randls_6_rotated.json,http://54.235.29.9/FacialAge/BNav_EC2/DepthDuration/v2_depth_duration_MTurk/v2_DepthDuration_HTML.html#402,402,1003,843,1920,1080,8-29-2022,11-24-5,152,depth_duration_stimuli/000569_2014-06-09_22-51-47_260595134347_rgbf000141-resize_3/000569_2014-06-09_22-51-47_260595134347_rgbf000141-resize-original.jpg,125,4.512,2,3284,120,feet,jsons/VE125_randls_6_rotated.json,1708085,2107636,37,Man
152,701497,DepthScenes,duration_manipulation_targetAtFixation,jsons/VE125_randls_6_rotated.json,http://54.235.29.9/FacialAge/BNav_EC2/DepthDuration/v2_depth_duration_MTurk/v2_DepthDuration_HTML.html#402,402,1003,843,1920,1080,8-29-2022,11-24-5,153,depth_duration_stimuli/002758_2014-06-22_19-11-20_094959634447_rgbf000128-resize_1/002758_2014-06-22_19-11-20_094959634447_rgbf000128-resize_1-target.png,125,2.555,6,3236,116,feet,jsons/VE125_randls_6_rotated.json,1708085,2107636,37,Man
153,701497,DepthScenes,duration_manipulation_targetAtFixation,jsons/VE125_randls_6_rotated.json,http://54.235.29.9/FacialAge/BNav_EC2/DepthDuration/v2_depth_duration_MTurk/v2_DepthDuration_HTML.html#402,402,1003,843,1920,1080,8-29-2022,11-24-5,154,depth_duration_stimuli/002630_2014-06-24_14-47-50_094959634447_rgbf000055-resize_1/002630_2014-06-24_14-47-50_094959634447_rgbf000055-resize_1-target.png,125,3.0095,5,3697,131,feet,jsons/VE125_randls_6_rotated.json,1708085,2107636,37,Man
154,701497,DepthScenes,duration_manipulation_targetAtFixation,jsons/VE125_randls_6_rotated.json,http://54.235.29.9/FacialAge/BNav_EC2/DepthDuration/v2_depth_duration_MTurk/v2_DepthDuration_HTML.html#402,402,1003,843,1920,1080,8-29-2022,11-24-5,155,depth_duration_stimuli/001571_2014-06-20_17-21-32_260595134347_rgbf000089-resize_1/001571_2014-06-20_17-21-32_260595134347_rgbf000089-resize_1-target.png,125,1.86,4,3455,133,feet,jsons/VE125_randls_6_rotated.json,1708085,2107636,37,Man
155,701497,DepthScenes,duration_manipulation_targetAtFixation,jsons/VE125_randls_6_rotated.json,http://54.235.29.9/FacialAge/BNav_EC2/DepthDuration/v2_depth_duration_MTurk/v2_DepthDuration_HTML.html#402,402,1003,843,1920,1080,8-29-2022,11-24-5,156,depth_duration_stimuli/002272_2014-06-28_18-53-56_260595134347_rgbf000067-resize_2/002272_2014-06-28_18-53-56_260595134347_rgbf000067-resize_2-target.png,125,1.138,0,2517,115,feet,jsons/VE125_randls_6_rotated.json,1708085,2107636,37,Man
156,701497,DepthScenes,duration_manipulation_targetAtFixation,jsons/VE125_randls_6_rotated.json,http://54.235.29.9/FacialAge/BNav_EC2/DepthDuration/v2_depth_duration_MTurk/v2_DepthDuration_HTML.html#402,402,1003,843,1920,1080,8-29-2022,11-24-5,157,depth_duration_stimuli/001450_2014-06-19_17-02-03_260595134347_rgbf000203-resize_4/001450_2014-06-19_17-02-03_260595134347_rgbf000203-resize_4-target.png,125,4.0106666666667,4,3423,133,feet,jsons/VE125_randls_6_rotated.json,1708085,2107636,37,Man
157,701497,DepthScenes,duration_manipulation_targetAtFixation,jsons/VE125_randls_6_rotated.json,http://54.235.29.9/FacialAge/BNav_EC2/DepthDuration/v2_depth_duration_MTurk/v2_DepthDuration_HTML.html#402,402,1003,843,1920,1080,8-29-2022,11-24-5,158,depth_duration_stimuli/001449_2014-06-19_17-01-27_260595134347_rgbf000116-resize_2/001449_2014-06-19_17-01-27_260595134347_rgbf000116-resize_2-target.png,125,3.452,5,4035,118,feet,jsons/VE125_randls_6_rotated.json,1708085,2107636,37,Man
158,701497,DepthScenes,duration_manipulation_targetAtFixation,jsons/VE125_randls_6_rotated.json,http://54.235.29.9/FacialAge/BNav_EC2/DepthDuration/v2_depth_duration_MTurk/v2_DepthDuration_HTML.html#402,402,1003,843,1920,1080,8-29-2022,11-24-5,159,depth_duration_stimuli/002425_2014-06-28_20-27-29_260595134347_rgbf000031-resize_8/002425_2014-06-28_20-27-29_260595134347_rgbf000031-resize_8-target.png,125,3.8960000000000004,6,6193,120,feet,jsons/VE125_randls_6_rotated.json,1708085,2107636,37,Man
159,701497,DepthScenes,duration_manipulation_targetAtFixation,jsons/VE125_randls_6_rotated.json,http://54.235.29.9/FacialAge/BNav_EC2/DepthDuration/v2_depth_duration_MTurk/v2_DepthDuration_HTML.html#402,402,1003,843,1920,1080,8-29-2022,11-24-5,160,depth_duration_stimuli/000642_2014-06-08_16-59-25_260595134347_rgbf000098-resize_2/000642_2014-06-08_16-59-25_260595134347_rgbf000098-resize_2-target.png,125,2.8815,5,4204,127,feet,jsons/VE125_randls_6_rotated.json,1708085,2107636,37,Man
160,701497,DepthScenes,duration_manipulation_targetAtFixation,jsons/VE125_randls_6_rotated.json,http://54.235.29.9/FacialAge/BNav_EC2/DepthDuration/v2_depth_duration_MTurk/v2_DepthDuration_HTML.html#402,402,1003,843,1920,1080,8-29-2022,11-24-5,161,depth_duration_stimuli/003423_2014-05-21_10-23-26_094959634447_rgbf002665-resize_2/003423_2014-05-21_10-23-26_094959634447_rgbf002665-resize_2-target.png,125,3.2575,8,2938,132,feet,jsons/VE125_randls_6_rotated.json,1708085,2107636,37,Man
161,701497,DepthScenes,duration_manipulation_targetAtFixation,jsons/VE125_randls_6_rotated.json,http://54.235.29.9/FacialAge/BNav_EC2/DepthDuration/v2_depth_duration_MTurk/v2_DepthDuration_HTML.html#402,402,1003,843,1920,1080,8-29-2022,11-24-5,162,depth_duration_stimuli/002905_2014-06-03_18-04-43_094959634447_rgbf000151-resize_2/002905_2014-06-03_18-04-43_094959634447_rgbf000151-resize_2-target.png,125,2.0295,0,3500,118,feet,jsons/VE125_randls_6_rotated.json,1708085,2107636,37,Man
162,701497,DepthScenes,duration_manipulation_targetAtFixation,jsons/VE125_randls_6_rotated.json,http://54.235.29.9/FacialAge/BNav_EC2/DepthDuration/v2_depth_duration_MTurk/v2_DepthDuration_HTML.html#402,402,1003,843,1920,1080,8-29-2022,11-24-5,163,depth_duration_stimuli/000409_2014-06-04_19-23-33_260595134347_rgbf000067-resize_0/000409_2014-06-04_19-23-33_260595134347_rgbf000067-resize_0-target.png,125,3.7335,3,194392,129,feet,jsons/VE125_randls_6_rotated.json,1708085,2107636,37,Man
163,701497,DepthScenes,duration_manipulation_targetAtFixation,jsons/VE125_randls_6_rotated.json,http://54.235.29.9/FacialAge/BNav_EC2/DepthDuration/v2_depth_duration_MTurk/v2_DepthDuration_HTML.html#402,402,1003,843,1920,1080,8-29-2022,11-24-5,164,depth_duration_stimuli/002663_2014-06-13_15-50-26_094959634447_rgbf000075-resize_1/002663_2014-06-13_15-50-26_094959634447_rgbf000075-resize_1-target.png,125,4.7495,5,1924,124,feet,jsons/VE125_randls_6_rotated.json,1708085,2107636,37,Man
