,subjID,experimentName,versionName,sequenceName,url,selected_row,windowWidth,windowHeight,screenWidth,screenHeight,startDate,startTime,trial,stimulus,duration,actual_depth,depth_estimate,trial_RT,log_sceneDuration,unitSelection,seq_filepath,experimentTime,totalTime,age,gender
0,702027,DepthScenes,duration_manipulation_targetAtFixation,jsons/v1_VE250_randls_72_rotated.json,http://54.235.29.9/FacialAge/BNav_EC2/DepthDuration/v2_depth_duration_MTurk/v2_DepthDuration_HTML.html#371,371,1229,654,1536,960,9-18-2022,12-51-34,1,depth_duration_stimuli/002639_2014-06-24_14-51-37_094959634447_rgbf000074-resize_4/002639_2014-06-24_14-51-37_094959634447_rgbf000074-resize_4-target.png,250,4.0375,3.0,1866,251,feet,jsons/v1_VE250_randls_72_rotated.json,449785,575463,38,Man
1,702027,DepthScenes,duration_manipulation_targetAtFixation,jsons/v1_VE250_randls_72_rotated.json,http://54.235.29.9/FacialAge/BNav_EC2/DepthDuration/v2_depth_duration_MTurk/v2_DepthDuration_HTML.html#371,371,1229,654,1536,960,9-18-2022,12-51-34,2,depth_duration_stimuli/003292_2014-05-14_21-53-49_094959634447_rgbf000100-resize_2/003292_2014-05-14_21-53-49_094959634447_rgbf000100-resize_2-target.png,250,3.4815,3.0,1558,246,feet,jsons/v1_VE250_randls_72_rotated.json,449785,575463,38,Man
2,702027,DepthScenes,duration_manipulation_targetAtFixation,jsons/v1_VE250_randls_72_rotated.json,http://54.235.29.9/FacialAge/BNav_EC2/DepthDuration/v2_depth_duration_MTurk/v2_DepthDuration_HTML.html#371,371,1229,654,1536,960,9-18-2022,12-51-34,3,depth_duration_stimuli/000854_2014-06-09_19-43-13_260595134347_rgbf000066-resize_0/000854_2014-06-09_19-43-13_260595134347_rgbf000066-resize_0-target.png,250,3.068,2.5,2334,259,feet,jsons/v1_VE250_randls_72_rotated.json,449785,575463,38,Man
3,702027,DepthScenes,duration_manipulation_targetAtFixation,jsons/v1_VE250_randls_72_rotated.json,http://54.235.29.9/FacialAge/BNav_EC2/DepthDuration/v2_depth_duration_MTurk/v2_DepthDuration_HTML.html#371,371,1229,654,1536,960,9-18-2022,12-51-34,4,depth_duration_stimuli/000758_2014-06-08_22-05-08_260595134347_rgbf000085-resize_0/000758_2014-06-08_22-05-08_260595134347_rgbf000085-resize_0-target.png,250,3.3810000000000002,4.0,1563,256,feet,jsons/v1_VE250_randls_72_rotated.json,449785,575463,38,Man
4,702027,DepthScenes,duration_manipulation_targetAtFixation,jsons/v1_VE250_randls_72_rotated.json,http://54.235.29.9/FacialAge/BNav_EC2/DepthDuration/v2_depth_duration_MTurk/v2_DepthDuration_HTML.html#371,371,1229,654,1536,960,9-18-2022,12-51-34,5,depth_duration_stimuli/003010_2014-06-15_12-54-35_094959634447_rgbf000112-resize_0/003010_2014-06-15_12-54-35_094959634447_rgbf000112-resize_0-target.png,250,3.1185,5.0,1693,252,feet,jsons/v1_VE250_randls_72_rotated.json,449785,575463,38,Man
5,702027,DepthScenes,duration_manipulation_targetAtFixation,jsons/v1_VE250_randls_72_rotated.json,http://54.235.29.9/FacialAge/BNav_EC2/DepthDuration/v2_depth_duration_MTurk/v2_DepthDuration_HTML.html#371,371,1229,654,1536,960,9-18-2022,12-51-34,6,depth_duration_stimuli/001810_2014-06-26_20-51-35_260595134347_rgbf000040-resize_3/001810_2014-06-26_20-51-35_260595134347_rgbf000040-resize_3-target.png,250,2.2525,1.8,2577,247,feet,jsons/v1_VE250_randls_72_rotated.json,449785,575463,38,Man
6,702027,DepthScenes,duration_manipulation_targetAtFixation,jsons/v1_VE250_randls_72_rotated.json,http://54.235.29.9/FacialAge/BNav_EC2/DepthDuration/v2_depth_duration_MTurk/v2_DepthDuration_HTML.html#371,371,1229,654,1536,960,9-18-2022,12-51-34,7,depth_duration_stimuli/002678_2014-06-13_16-15-32_094959634447_rgbf000151-resize_6/002678_2014-06-13_16-15-32_094959634447_rgbf000151-resize_6-target.png,250,2.1830000000000003,2.25,2256,258,feet,jsons/v1_VE250_randls_72_rotated.json,449785,575463,38,Man
7,702027,DepthScenes,duration_manipulation_targetAtFixation,jsons/v1_VE250_randls_72_rotated.json,http://54.235.29.9/FacialAge/BNav_EC2/DepthDuration/v2_depth_duration_MTurk/v2_DepthDuration_HTML.html#371,371,1229,654,1536,960,9-18-2022,12-51-34,8,depth_duration_stimuli/000368_2014-06-09_15-53-01_260595134347_rgbf000155-resize_2/000368_2014-06-09_15-53-01_260595134347_rgbf000155-resize_2-target.png,250,2.4859999999999998,1.8,2424,261,feet,jsons/v1_VE250_randls_72_rotated.json,449785,575463,38,Man
8,702027,DepthScenes,duration_manipulation_targetAtFixation,jsons/v1_VE250_randls_72_rotated.json,http://54.235.29.9/FacialAge/BNav_EC2/DepthDuration/v2_depth_duration_MTurk/v2_DepthDuration_HTML.html#371,371,1229,654,1536,960,9-18-2022,12-51-34,9,depth_duration_stimuli/002209_2014-06-28_18-36-10_260595134347_rgbf000051-resize_1/002209_2014-06-28_18-36-10_260595134347_rgbf000051-resize_1-target.png,250,2.057,2.1,3169,246,feet,jsons/v1_VE250_randls_72_rotated.json,449785,575463,38,Man
9,702027,DepthScenes,duration_manipulation_targetAtFixation,jsons/v1_VE250_randls_72_rotated.json,http://54.235.29.9/FacialAge/BNav_EC2/DepthDuration/v2_depth_duration_MTurk/v2_DepthDuration_HTML.html#371,371,1229,654,1536,960,9-18-2022,12-51-34,10,depth_duration_stimuli/002763_2014-06-22_19-13-10_094959634447_rgbf000075-resize_4/002763_2014-06-22_19-13-10_094959634447_rgbf000075-resize_4-target.png,250,1.68375,2.5,2124,246,feet,jsons/v1_VE250_randls_72_rotated.json,449785,575463,38,Man
10,702027,DepthScenes,duration_manipulation_targetAtFixation,jsons/v1_VE250_randls_72_rotated.json,http://54.235.29.9/FacialAge/BNav_EC2/DepthDuration/v2_depth_duration_MTurk/v2_DepthDuration_HTML.html#371,371,1229,654,1536,960,9-18-2022,12-51-34,11,depth_duration_stimuli/001447_2014-06-19_17-00-32_260595134347_rgbf000082-resize_5/001447_2014-06-19_17-00-32_260595134347_rgbf000082-resize_5-target.png,250,4.13775,3.0,1476,247,feet,jsons/v1_VE250_randls_72_rotated.json,449785,575463,38,Man
11,702027,DepthScenes,duration_manipulation_targetAtFixation,jsons/v1_VE250_randls_72_rotated.json,http://54.235.29.9/FacialAge/BNav_EC2/DepthDuration/v2_depth_duration_MTurk/v2_DepthDuration_HTML.html#371,371,1229,654,1536,960,9-18-2022,12-51-34,12,depth_duration_stimuli/000447_2014-06-08_16-15-46_260595134347_rgbf000130-resize_1/000447_2014-06-08_16-15-46_260595134347_rgbf000130-resize_1-target.png,250,4.479,5.0,1594,259,feet,jsons/v1_VE250_randls_72_rotated.json,449785,575463,38,Man
12,702027,DepthScenes,duration_manipulation_targetAtFixation,jsons/v1_VE250_randls_72_rotated.json,http://54.235.29.9/FacialAge/BNav_EC2/DepthDuration/v2_depth_duration_MTurk/v2_DepthDuration_HTML.html#371,371,1229,654,1536,960,9-18-2022,12-51-34,13,depth_duration_stimuli/002444_2014-06-28_20-32-08_260595134347_rgbf000027-resize_0/002444_2014-06-28_20-32-08_260595134347_rgbf000027-resize_0-target.png,250,4.388999999999999,6.0,1418,257,feet,jsons/v1_VE250_randls_72_rotated.json,449785,575463,38,Man
13,702027,DepthScenes,duration_manipulation_targetAtFixation,jsons/v1_VE250_randls_72_rotated.json,http://54.235.29.9/FacialAge/BNav_EC2/DepthDuration/v2_depth_duration_MTurk/v2_DepthDuration_HTML.html#371,371,1229,654,1536,960,9-18-2022,12-51-34,14,depth_duration_stimuli/000436_2014-06-09_22-25-11_260595134347_rgbf000137-resize_1/000436_2014-06-09_22-25-11_260595134347_rgbf000137-resize_1-target.png,250,4.0705,6.5,3794,260,feet,jsons/v1_VE250_randls_72_rotated.json,449785,575463,38,Man
14,702027,DepthScenes,duration_manipulation_targetAtFixation,jsons/v1_VE250_randls_72_rotated.json,http://54.235.29.9/FacialAge/BNav_EC2/DepthDuration/v2_depth_duration_MTurk/v2_DepthDuration_HTML.html#371,371,1229,654,1536,960,9-18-2022,12-51-34,15,depth_duration_stimuli/000742_2014-06-08_18-48-09_260595134347_rgbf000164-resize_4/000742_2014-06-08_18-48-09_260595134347_rgbf000164-resize_4-target.png,250,4.632,7.0,1824,246,feet,jsons/v1_VE250_randls_72_rotated.json,449785,575463,38,Man
15,702027,DepthScenes,duration_manipulation_targetAtFixation,jsons/v1_VE250_randls_72_rotated.json,http://54.235.29.9/FacialAge/BNav_EC2/DepthDuration/v2_depth_duration_MTurk/v2_DepthDuration_HTML.html#371,371,1229,654,1536,960,9-18-2022,12-51-34,16,depth_duration_stimuli/001066_2014-06-08_22-03-20_260595134347_rgbf000066-resize_4/001066_2014-06-08_22-03-20_260595134347_rgbf000066-resize_4-target.png,250,4.2330000000000005,7.0,1889,262,feet,jsons/v1_VE250_randls_72_rotated.json,449785,575463,38,Man
16,702027,DepthScenes,duration_manipulation_targetAtFixation,jsons/v1_VE250_randls_72_rotated.json,http://54.235.29.9/FacialAge/BNav_EC2/DepthDuration/v2_depth_duration_MTurk/v2_DepthDuration_HTML.html#371,371,1229,654,1536,960,9-18-2022,12-51-34,17,depth_duration_stimuli/002467_2014-06-28_20-38-07_260595134347_rgbf000026-resize_2/002467_2014-06-28_20-38-07_260595134347_rgbf000026-resize_2-target.png,250,4.742,8.0,1938,246,feet,jsons/v1_VE250_randls_72_rotated.json,449785,575463,38,Man
17,702027,DepthScenes,duration_manipulation_targetAtFixation,jsons/v1_VE250_randls_72_rotated.json,http://54.235.29.9/FacialAge/BNav_EC2/DepthDuration/v2_depth_duration_MTurk/v2_DepthDuration_HTML.html#371,371,1229,654,1536,960,9-18-2022,12-51-34,18,depth_duration_stimuli/002570_2014-06-24_13-59-54_094959634447_rgbf000059-resize_0/002570_2014-06-24_13-59-54_094959634447_rgbf000059-resize_0-target.png,250,4.037,4.0,1476,251,feet,jsons/v1_VE250_randls_72_rotated.json,449785,575463,38,Man
18,702027,DepthScenes,duration_manipulation_targetAtFixation,jsons/v1_VE250_randls_72_rotated.json,http://54.235.29.9/FacialAge/BNav_EC2/DepthDuration/v2_depth_duration_MTurk/v2_DepthDuration_HTML.html#371,371,1229,654,1536,960,9-18-2022,12-51-34,19,depth_duration_stimuli/001498_2014-06-19_17-45-14_260595134347_rgbf000129-resize_4/001498_2014-06-19_17-45-14_260595134347_rgbf000129-resize-original.jpg,250,1.4075,0.0,2085,249,feet,jsons/v1_VE250_randls_72_rotated.json,449785,575463,38,Man
19,702027,DepthScenes,duration_manipulation_targetAtFixation,jsons/v1_VE250_randls_72_rotated.json,http://54.235.29.9/FacialAge/BNav_EC2/DepthDuration/v2_depth_duration_MTurk/v2_DepthDuration_HTML.html#371,371,1229,654,1536,960,9-18-2022,12-51-34,20,depth_duration_stimuli/001214_2014-06-17_16-13-55_260595134347_rgbf000111-resize_0/001214_2014-06-17_16-13-55_260595134347_rgbf000111-resize_0-target.png,250,2.6505,2.0,1438,244,feet,jsons/v1_VE250_randls_72_rotated.json,449785,575463,38,Man
20,702027,DepthScenes,duration_manipulation_targetAtFixation,jsons/v1_VE250_randls_72_rotated.json,http://54.235.29.9/FacialAge/BNav_EC2/DepthDuration/v2_depth_duration_MTurk/v2_DepthDuration_HTML.html#371,371,1229,654,1536,960,9-18-2022,12-51-34,21,depth_duration_stimuli/000810_2014-06-08_17-20-01_260595134347_rgbf000105-resize_0/000810_2014-06-08_17-20-01_260595134347_rgbf000105-resize_0-target.png,250,1.4865,3.0,1870,259,feet,jsons/v1_VE250_randls_72_rotated.json,449785,575463,38,Man
21,702027,DepthScenes,duration_manipulation_targetAtFixation,jsons/v1_VE250_randls_72_rotated.json,http://54.235.29.9/FacialAge/BNav_EC2/DepthDuration/v2_depth_duration_MTurk/v2_DepthDuration_HTML.html#371,371,1229,654,1536,960,9-18-2022,12-51-34,22,depth_duration_stimuli/002657_2014-06-13_15-29-54_094959634447_rgbf000150-resize_1/002657_2014-06-13_15-29-54_094959634447_rgbf000150-resize_1-target.png,250,4.919,4.0,1352,255,feet,jsons/v1_VE250_randls_72_rotated.json,449785,575463,38,Man
22,702027,DepthScenes,duration_manipulation_targetAtFixation,jsons/v1_VE250_randls_72_rotated.json,http://54.235.29.9/FacialAge/BNav_EC2/DepthDuration/v2_depth_duration_MTurk/v2_DepthDuration_HTML.html#371,371,1229,654,1536,960,9-18-2022,12-51-34,23,depth_duration_stimuli/002375_2014-06-28_20-13-44_260595134347_rgbf000032-resize_1/002375_2014-06-28_20-13-44_260595134347_rgbf000032-resize_1-target.png,250,4.0175,3.0,1455,257,feet,jsons/v1_VE250_randls_72_rotated.json,449785,575463,38,Man
23,702027,DepthScenes,duration_manipulation_targetAtFixation,jsons/v1_VE250_randls_72_rotated.json,http://54.235.29.9/FacialAge/BNav_EC2/DepthDuration/v2_depth_duration_MTurk/v2_DepthDuration_HTML.html#371,371,1229,654,1536,960,9-18-2022,12-51-34,24,depth_duration_stimuli/003081_2014-06-15_15-19-16_094959634447_rgbf000150-resize_1/003081_2014-06-15_15-19-16_094959634447_rgbf000150-resize_1-target.png,250,3.9125,6.7,2977,244,feet,jsons/v1_VE250_randls_72_rotated.json,449785,575463,38,Man
24,702027,DepthScenes,duration_manipulation_targetAtFixation,jsons/v1_VE250_randls_72_rotated.json,http://54.235.29.9/FacialAge/BNav_EC2/DepthDuration/v2_depth_duration_MTurk/v2_DepthDuration_HTML.html#371,371,1229,654,1536,960,9-18-2022,12-51-34,25,depth_duration_stimuli/001417_2014-06-19_16-25-36_260595134347_rgbf000115-resize_5/001417_2014-06-19_16-25-36_260595134347_rgbf000115-resize_5-target.png,250,4.6255,7.5,2583,245,feet,jsons/v1_VE250_randls_72_rotated.json,449785,575463,38,Man
25,702027,DepthScenes,duration_manipulation_targetAtFixation,jsons/v1_VE250_randls_72_rotated.json,http://54.235.29.9/FacialAge/BNav_EC2/DepthDuration/v2_depth_duration_MTurk/v2_DepthDuration_HTML.html#371,371,1229,654,1536,960,9-18-2022,12-51-34,26,depth_duration_stimuli/000483_2014-06-09_20-41-45_260595134347_rgbf000116-resize_4/000483_2014-06-09_20-41-45_260595134347_rgbf000116-resize_4-target.png,250,1.337,2.0,1628,262,feet,jsons/v1_VE250_randls_72_rotated.json,449785,575463,38,Man
26,702027,DepthScenes,duration_manipulation_targetAtFixation,jsons/v1_VE250_randls_72_rotated.json,http://54.235.29.9/FacialAge/BNav_EC2/DepthDuration/v2_depth_duration_MTurk/v2_DepthDuration_HTML.html#371,371,1229,654,1536,960,9-18-2022,12-51-34,27,depth_duration_stimuli/000469_2014-06-09_19-42-10_260595134347_rgbf000081-resize_1/000469_2014-06-09_19-42-10_260595134347_rgbf000081-resize_1-target.png,250,1.652,2.5,2309,261,feet,jsons/v1_VE250_randls_72_rotated.json,449785,575463,38,Man
27,702027,DepthScenes,duration_manipulation_targetAtFixation,jsons/v1_VE250_randls_72_rotated.json,http://54.235.29.9/FacialAge/BNav_EC2/DepthDuration/v2_depth_duration_MTurk/v2_DepthDuration_HTML.html#371,371,1229,654,1536,960,9-18-2022,12-51-34,28,depth_duration_stimuli/001132_2014-06-17_14-48-54_260595134347_rgbf000100-resize_2/001132_2014-06-17_14-48-54_260595134347_rgbf000100-resize_2-target.png,250,3.753,5.0,1656,262,feet,jsons/v1_VE250_randls_72_rotated.json,449785,575463,38,Man
28,702027,DepthScenes,duration_manipulation_targetAtFixation,jsons/v1_VE250_randls_72_rotated.json,http://54.235.29.9/FacialAge/BNav_EC2/DepthDuration/v2_depth_duration_MTurk/v2_DepthDuration_HTML.html#371,371,1229,654,1536,960,9-18-2022,12-51-34,29,depth_duration_stimuli/001133_2014-06-17_14-49-16_260595134347_rgbf000100-resize_0/001133_2014-06-17_14-49-16_260595134347_rgbf000100-resize_0-target.png,250,4.2115,10.0,1792,250,feet,jsons/v1_VE250_randls_72_rotated.json,449785,575463,38,Man
29,702027,DepthScenes,duration_manipulation_targetAtFixation,jsons/v1_VE250_randls_72_rotated.json,http://54.235.29.9/FacialAge/BNav_EC2/DepthDuration/v2_depth_duration_MTurk/v2_DepthDuration_HTML.html#371,371,1229,654,1536,960,9-18-2022,12-51-34,30,depth_duration_stimuli/002072_2014-06-24_21-48-06_260595134347_rgbf000115-resize_0/002072_2014-06-24_21-48-06_260595134347_rgbf000115-resize-original.jpg,250,4.702,0.0,1993,258,feet,jsons/v1_VE250_randls_72_rotated.json,449785,575463,38,Man
30,702027,DepthScenes,duration_manipulation_targetAtFixation,jsons/v1_VE250_randls_72_rotated.json,http://54.235.29.9/FacialAge/BNav_EC2/DepthDuration/v2_depth_duration_MTurk/v2_DepthDuration_HTML.html#371,371,1229,654,1536,960,9-18-2022,12-51-34,31,depth_duration_stimuli/000866_2014-06-09_20-45-42_260595134347_rgbf000139-resize_1/000866_2014-06-09_20-45-42_260595134347_rgbf000139-resize_1-target.png,250,3.2155,5.0,2046,246,feet,jsons/v1_VE250_randls_72_rotated.json,449785,575463,38,Man
31,702027,DepthScenes,duration_manipulation_targetAtFixation,jsons/v1_VE250_randls_72_rotated.json,http://54.235.29.9/FacialAge/BNav_EC2/DepthDuration/v2_depth_duration_MTurk/v2_DepthDuration_HTML.html#371,371,1229,654,1536,960,9-18-2022,12-51-34,32,depth_duration_stimuli/002989_2014-06-15_12-25-03_094959634447_rgbf000150-resize_3/002989_2014-06-15_12-25-03_094959634447_rgbf000150-resize_3-target.png,250,4.1975,4.0,1466,243,feet,jsons/v1_VE250_randls_72_rotated.json,449785,575463,38,Man
32,702027,DepthScenes,duration_manipulation_targetAtFixation,jsons/v1_VE250_randls_72_rotated.json,http://54.235.29.9/FacialAge/BNav_EC2/DepthDuration/v2_depth_duration_MTurk/v2_DepthDuration_HTML.html#371,371,1229,654,1536,960,9-18-2022,12-51-34,33,depth_duration_stimuli/000709_2014-06-08_13-51-55_260595134347_rgbf000068-resize_3/000709_2014-06-08_13-51-55_260595134347_rgbf000068-resize_3-target.png,250,1.8030000000000002,3.0,1474,246,feet,jsons/v1_VE250_randls_72_rotated.json,449785,575463,38,Man
33,702027,DepthScenes,duration_manipulation_targetAtFixation,jsons/v1_VE250_randls_72_rotated.json,http://54.235.29.9/FacialAge/BNav_EC2/DepthDuration/v2_depth_duration_MTurk/v2_DepthDuration_HTML.html#371,371,1229,654,1536,960,9-18-2022,12-51-34,34,depth_duration_stimuli/002057_2014-06-24_21-00-13_260595134347_rgbf000120-resize_1/002057_2014-06-24_21-00-13_260595134347_rgbf000120-resize_1-target.png,250,2.967,7.0,2135,259,feet,jsons/v1_VE250_randls_72_rotated.json,449785,575463,38,Man
34,702027,DepthScenes,duration_manipulation_targetAtFixation,jsons/v1_VE250_randls_72_rotated.json,http://54.235.29.9/FacialAge/BNav_EC2/DepthDuration/v2_depth_duration_MTurk/v2_DepthDuration_HTML.html#371,371,1229,654,1536,960,9-18-2022,12-51-34,35,depth_duration_stimuli/002323_2014-06-28_20-01-54_260595134347_rgbf000051-resize_4/002323_2014-06-28_20-01-54_260595134347_rgbf000051-resize_4-target.png,250,3.7310000000000003,11.0,1514,243,feet,jsons/v1_VE250_randls_72_rotated.json,449785,575463,38,Man
35,702027,DepthScenes,duration_manipulation_targetAtFixation,jsons/v1_VE250_randls_72_rotated.json,http://54.235.29.9/FacialAge/BNav_EC2/DepthDuration/v2_depth_duration_MTurk/v2_DepthDuration_HTML.html#371,371,1229,654,1536,960,9-18-2022,12-51-34,36,depth_duration_stimuli/000917_2014-06-09_22-45-29_260595134347_rgbf000149-resize_3/000917_2014-06-09_22-45-29_260595134347_rgbf000149-resize_3-target.png,250,4.1865,10.0,4390,247,feet,jsons/v1_VE250_randls_72_rotated.json,449785,575463,38,Man
36,702027,DepthScenes,duration_manipulation_targetAtFixation,jsons/v1_VE250_randls_72_rotated.json,http://54.235.29.9/FacialAge/BNav_EC2/DepthDuration/v2_depth_duration_MTurk/v2_DepthDuration_HTML.html#371,371,1229,654,1536,960,9-18-2022,12-51-34,37,depth_duration_stimuli/000549_2014-06-08_22-10-24_260595134347_rgbf000247-resize_3/000549_2014-06-08_22-10-24_260595134347_rgbf000247-resize_3-target.png,250,1.841,1.0,1666,259,feet,jsons/v1_VE250_randls_72_rotated.json,449785,575463,38,Man
37,702027,DepthScenes,duration_manipulation_targetAtFixation,jsons/v1_VE250_randls_72_rotated.json,http://54.235.29.9/FacialAge/BNav_EC2/DepthDuration/v2_depth_duration_MTurk/v2_DepthDuration_HTML.html#371,371,1229,654,1536,960,9-18-2022,12-51-34,38,depth_duration_stimuli/001055_2014-06-08_18-45-35_260595134347_rgbf000111-resize_4/001055_2014-06-08_18-45-35_260595134347_rgbf000111-resize_4-target.png,250,2.4290000000000003,6.8,2390,247,feet,jsons/v1_VE250_randls_72_rotated.json,449785,575463,38,Man
38,702027,DepthScenes,duration_manipulation_targetAtFixation,jsons/v1_VE250_randls_72_rotated.json,http://54.235.29.9/FacialAge/BNav_EC2/DepthDuration/v2_depth_duration_MTurk/v2_DepthDuration_HTML.html#371,371,1229,654,1536,960,9-18-2022,12-51-34,39,depth_duration_stimuli/002414_2014-06-28_20-24-58_260595134347_rgbf000067-resize_4/002414_2014-06-28_20-24-58_260595134347_rgbf000067-resize_4-target.png,250,4.363,9.0,2376,249,feet,jsons/v1_VE250_randls_72_rotated.json,449785,575463,38,Man
39,702027,DepthScenes,duration_manipulation_targetAtFixation,jsons/v1_VE250_randls_72_rotated.json,http://54.235.29.9/FacialAge/BNav_EC2/DepthDuration/v2_depth_duration_MTurk/v2_DepthDuration_HTML.html#371,371,1229,654,1536,960,9-18-2022,12-51-34,40,depth_duration_stimuli/000773_2014-06-08_22-24-54_260595134347_rgbf000093-resize_1/000773_2014-06-08_22-24-54_260595134347_rgbf000093-resize_1-target.png,250,4.973,9.5,2785,248,feet,jsons/v1_VE250_randls_72_rotated.json,449785,575463,38,Man
40,702027,DepthScenes,duration_manipulation_targetAtFixation,jsons/v1_VE250_randls_72_rotated.json,http://54.235.29.9/FacialAge/BNav_EC2/DepthDuration/v2_depth_duration_MTurk/v2_DepthDuration_HTML.html#371,371,1229,654,1536,960,9-18-2022,12-51-34,41,depth_duration_stimuli/002875_2014-06-01_15-19-00_094959634447_rgbf000151-resize_1/002875_2014-06-01_15-19-00_094959634447_rgbf000151-resize_1-target.png,250,1.9675,4.3,2170,246,feet,jsons/v1_VE250_randls_72_rotated.json,449785,575463,38,Man
41,702027,DepthScenes,duration_manipulation_targetAtFixation,jsons/v1_VE250_randls_72_rotated.json,http://54.235.29.9/FacialAge/BNav_EC2/DepthDuration/v2_depth_duration_MTurk/v2_DepthDuration_HTML.html#371,371,1229,654,1536,960,9-18-2022,12-51-34,42,depth_duration_stimuli/001011_2014-06-08_23-18-54_260595134347_rgbf000044-resize_4/001011_2014-06-08_23-18-54_260595134347_rgbf000044-resize_4-target.png,250,2.4730000000000003,5.6,2272,251,feet,jsons/v1_VE250_randls_72_rotated.json,449785,575463,38,Man
42,702027,DepthScenes,duration_manipulation_targetAtFixation,jsons/v1_VE250_randls_72_rotated.json,http://54.235.29.9/FacialAge/BNav_EC2/DepthDuration/v2_depth_duration_MTurk/v2_DepthDuration_HTML.html#371,371,1229,654,1536,960,9-18-2022,12-51-34,43,depth_duration_stimuli/001571_2014-06-20_17-21-32_260595134347_rgbf000089-resize_1/001571_2014-06-20_17-21-32_260595134347_rgbf000089-resize_1-target.png,250,1.86,3.3,2211,259,feet,jsons/v1_VE250_randls_72_rotated.json,449785,575463,38,Man
43,702027,DepthScenes,duration_manipulation_targetAtFixation,jsons/v1_VE250_randls_72_rotated.json,http://54.235.29.9/FacialAge/BNav_EC2/DepthDuration/v2_depth_duration_MTurk/v2_DepthDuration_HTML.html#371,371,1229,654,1536,960,9-18-2022,12-51-34,44,depth_duration_stimuli/002272_2014-06-28_18-53-56_260595134347_rgbf000067-resize_2/002272_2014-06-28_18-53-56_260595134347_rgbf000067-resize_2-target.png,250,1.138,1.7,2745,243,feet,jsons/v1_VE250_randls_72_rotated.json,449785,575463,38,Man
44,702027,DepthScenes,duration_manipulation_targetAtFixation,jsons/v1_VE250_randls_72_rotated.json,http://54.235.29.9/FacialAge/BNav_EC2/DepthDuration/v2_depth_duration_MTurk/v2_DepthDuration_HTML.html#371,371,1229,654,1536,960,9-18-2022,12-51-34,45,depth_duration_stimuli/000635_2014-06-08_16-38-42_260595134347_rgbf000106-resize_1/000635_2014-06-08_16-38-42_260595134347_rgbf000106-resize_1-target.png,250,2.074,3.0,1597,245,feet,jsons/v1_VE250_randls_72_rotated.json,449785,575463,38,Man
45,702027,DepthScenes,duration_manipulation_targetAtFixation,jsons/v1_VE250_randls_72_rotated.json,http://54.235.29.9/FacialAge/BNav_EC2/DepthDuration/v2_depth_duration_MTurk/v2_DepthDuration_HTML.html#371,371,1229,654,1536,960,9-18-2022,12-51-34,46,depth_duration_stimuli/002279_2014-06-28_18-55-32_260595134347_rgbf000040-resize_5/002279_2014-06-28_18-55-32_260595134347_rgbf000040-resize_5-target.png,250,1.5043333333333,2.6,2324,245,feet,jsons/v1_VE250_randls_72_rotated.json,449785,575463,38,Man
46,702027,DepthScenes,duration_manipulation_targetAtFixation,jsons/v1_VE250_randls_72_rotated.json,http://54.235.29.9/FacialAge/BNav_EC2/DepthDuration/v2_depth_duration_MTurk/v2_DepthDuration_HTML.html#371,371,1229,654,1536,960,9-18-2022,12-51-34,47,depth_duration_stimuli/002637_2014-06-24_14-51-13_094959634447_rgbf000066-resize_4/002637_2014-06-24_14-51-13_094959634447_rgbf000066-resize_4-target.png,250,1.9955,4.2,3246,246,feet,jsons/v1_VE250_randls_72_rotated.json,449785,575463,38,Man
47,702027,DepthScenes,duration_manipulation_targetAtFixation,jsons/v1_VE250_randls_72_rotated.json,http://54.235.29.9/FacialAge/BNav_EC2/DepthDuration/v2_depth_duration_MTurk/v2_DepthDuration_HTML.html#371,371,1229,654,1536,960,9-18-2022,12-51-34,48,depth_duration_stimuli/003534_2014-05-22_15-06-10_094959634447_rgbf000102-resize_4/003534_2014-05-22_15-06-10_094959634447_rgbf000102-resize_4-target.png,250,1.426,1.75,2604,259,feet,jsons/v1_VE250_randls_72_rotated.json,449785,575463,38,Man
48,702027,DepthScenes,duration_manipulation_targetAtFixation,jsons/v1_VE250_randls_72_rotated.json,http://54.235.29.9/FacialAge/BNav_EC2/DepthDuration/v2_depth_duration_MTurk/v2_DepthDuration_HTML.html#371,371,1229,654,1536,960,9-18-2022,12-51-34,49,depth_duration_stimuli/001170_2014-06-17_15-43-44_260595134347_rgbf000096-resize_6/001170_2014-06-17_15-43-44_260595134347_rgbf000096-resize-original.jpg,250,1.1909999999999998,0.0,3082,258,feet,jsons/v1_VE250_randls_72_rotated.json,449785,575463,38,Man
49,702027,DepthScenes,duration_manipulation_targetAtFixation,jsons/v1_VE250_randls_72_rotated.json,http://54.235.29.9/FacialAge/BNav_EC2/DepthDuration/v2_depth_duration_MTurk/v2_DepthDuration_HTML.html#371,371,1229,654,1536,960,9-18-2022,12-51-34,50,depth_duration_stimuli/003495_2014-05-21_16-01-51_094959634447_rgbf000100-resize_3/003495_2014-05-21_16-01-51_094959634447_rgbf000100-resize_3-target.png,250,1.6255,1.1,4261,242,feet,jsons/v1_VE250_randls_72_rotated.json,449785,575463,38,Man
50,702027,DepthScenes,duration_manipulation_targetAtFixation,jsons/v1_VE250_randls_72_rotated.json,http://54.235.29.9/FacialAge/BNav_EC2/DepthDuration/v2_depth_duration_MTurk/v2_DepthDuration_HTML.html#371,371,1229,654,1536,960,9-18-2022,12-51-34,51,depth_duration_stimuli/001244_2014-06-17_16-47-45_260595134347_rgbf000030-resize_4/001244_2014-06-17_16-47-45_260595134347_rgbf000030-resize_4-target.png,250,2.0425,3.9,3286,245,feet,jsons/v1_VE250_randls_72_rotated.json,449785,575463,38,Man
51,702027,DepthScenes,duration_manipulation_targetAtFixation,jsons/v1_VE250_randls_72_rotated.json,http://54.235.29.9/FacialAge/BNav_EC2/DepthDuration/v2_depth_duration_MTurk/v2_DepthDuration_HTML.html#371,371,1229,654,1536,960,9-18-2022,12-51-34,52,depth_duration_stimuli/002805_2014-06-22_19-54-03_094959634447_rgbf000079-resize_1/002805_2014-06-22_19-54-03_094959634447_rgbf000079-resize_1-target.png,250,3.1439999999999997,8.8,3777,245,feet,jsons/v1_VE250_randls_72_rotated.json,449785,575463,38,Man
52,702027,DepthScenes,duration_manipulation_targetAtFixation,jsons/v1_VE250_randls_72_rotated.json,http://54.235.29.9/FacialAge/BNav_EC2/DepthDuration/v2_depth_duration_MTurk/v2_DepthDuration_HTML.html#371,371,1229,654,1536,960,9-18-2022,12-51-34,53,depth_duration_stimuli/000906_2014-06-08_13-35-43_260595134347_rgbf000155-resize_1/000906_2014-06-08_13-35-43_260595134347_rgbf000155-resize_1-target.png,250,2.8489999999999998,6.9,2705,245,feet,jsons/v1_VE250_randls_72_rotated.json,449785,575463,38,Man
53,702027,DepthScenes,duration_manipulation_targetAtFixation,jsons/v1_VE250_randls_72_rotated.json,http://54.235.29.9/FacialAge/BNav_EC2/DepthDuration/v2_depth_duration_MTurk/v2_DepthDuration_HTML.html#371,371,1229,654,1536,960,9-18-2022,12-51-34,54,depth_duration_stimuli/003338_2014-05-20_11-01-23_094959634447_rgbf000051-resize_6/003338_2014-05-20_11-01-23_094959634447_rgbf000051-resize_6-target.png,250,1.693,2.3,3404,259,feet,jsons/v1_VE250_randls_72_rotated.json,449785,575463,38,Man
54,702027,DepthScenes,duration_manipulation_targetAtFixation,jsons/v1_VE250_randls_72_rotated.json,http://54.235.29.9/FacialAge/BNav_EC2/DepthDuration/v2_depth_duration_MTurk/v2_DepthDuration_HTML.html#371,371,1229,654,1536,960,9-18-2022,12-51-34,55,depth_duration_stimuli/002509_2014-06-24_13-19-22_094959634447_rgbf000077-resize_0/002509_2014-06-24_13-19-22_094959634447_rgbf000077-resize_0-target.png,250,1.3065,3.1,2554,247,feet,jsons/v1_VE250_randls_72_rotated.json,449785,575463,38,Man
55,702027,DepthScenes,duration_manipulation_targetAtFixation,jsons/v1_VE250_randls_72_rotated.json,http://54.235.29.9/FacialAge/BNav_EC2/DepthDuration/v2_depth_duration_MTurk/v2_DepthDuration_HTML.html#371,371,1229,654,1536,960,9-18-2022,12-51-34,56,depth_duration_stimuli/001094_2014-06-15_17-36-00_260595134347_rgbf000205-resize_0/001094_2014-06-15_17-36-00_260595134347_rgbf000205-resize_0-target.png,250,4.2175,7.1,2902,249,feet,jsons/v1_VE250_randls_72_rotated.json,449785,575463,38,Man
56,702027,DepthScenes,duration_manipulation_targetAtFixation,jsons/v1_VE250_randls_72_rotated.json,http://54.235.29.9/FacialAge/BNav_EC2/DepthDuration/v2_depth_duration_MTurk/v2_DepthDuration_HTML.html#371,371,1229,654,1536,960,9-18-2022,12-51-34,57,depth_duration_stimuli/000692_2014-06-08_13-09-42_260595134347_rgbf000199-resize_2/000692_2014-06-08_13-09-42_260595134347_rgbf000199-resize_2-target.png,250,3.661,8.23,2959,249,feet,jsons/v1_VE250_randls_72_rotated.json,449785,575463,38,Man
57,702027,DepthScenes,duration_manipulation_targetAtFixation,jsons/v1_VE250_randls_72_rotated.json,http://54.235.29.9/FacialAge/BNav_EC2/DepthDuration/v2_depth_duration_MTurk/v2_DepthDuration_HTML.html#371,371,1229,654,1536,960,9-18-2022,12-51-34,58,depth_duration_stimuli/000749_2014-06-08_21-55-06_260595134347_rgbf000070-resize_2/000749_2014-06-08_21-55-06_260595134347_rgbf000070-resize_2-target.png,250,2.331,5.1,2148,248,feet,jsons/v1_VE250_randls_72_rotated.json,449785,575463,38,Man
58,702027,DepthScenes,duration_manipulation_targetAtFixation,jsons/v1_VE250_randls_72_rotated.json,http://54.235.29.9/FacialAge/BNav_EC2/DepthDuration/v2_depth_duration_MTurk/v2_DepthDuration_HTML.html#371,371,1229,654,1536,960,9-18-2022,12-51-34,59,depth_duration_stimuli/002788_2014-06-22_19-36-03_094959634447_rgbf000088-resize_2/002788_2014-06-22_19-36-03_094959634447_rgbf000088-resize_2-target.png,250,1.6465,6.2,2925,258,feet,jsons/v1_VE250_randls_72_rotated.json,449785,575463,38,Man
59,702027,DepthScenes,duration_manipulation_targetAtFixation,jsons/v1_VE250_randls_72_rotated.json,http://54.235.29.9/FacialAge/BNav_EC2/DepthDuration/v2_depth_duration_MTurk/v2_DepthDuration_HTML.html#371,371,1229,654,1536,960,9-18-2022,12-51-34,60,depth_duration_stimuli/002103_2014-06-25_20-00-40_260595134347_rgbf000049-resize_0/002103_2014-06-25_20-00-40_260595134347_rgbf000049-resize_0-target.png,250,4.105,5.0,2066,260,feet,jsons/v1_VE250_randls_72_rotated.json,449785,575463,38,Man
60,702027,DepthScenes,duration_manipulation_targetAtFixation,jsons/v1_VE250_randls_72_rotated.json,http://54.235.29.9/FacialAge/BNav_EC2/DepthDuration/v2_depth_duration_MTurk/v2_DepthDuration_HTML.html#371,371,1229,654,1536,960,9-18-2022,12-51-34,61,depth_duration_stimuli/002039_2014-06-24_20-22-38_260595134347_rgbf000084-resize_1/002039_2014-06-24_20-22-38_260595134347_rgbf000084-resize_1-target.png,250,4.408,9.0,2061,246,feet,jsons/v1_VE250_randls_72_rotated.json,449785,575463,38,Man
61,702027,DepthScenes,duration_manipulation_targetAtFixation,jsons/v1_VE250_randls_72_rotated.json,http://54.235.29.9/FacialAge/BNav_EC2/DepthDuration/v2_depth_duration_MTurk/v2_DepthDuration_HTML.html#371,371,1229,654,1536,960,9-18-2022,12-51-34,62,depth_duration_stimuli/000780_2014-06-08_22-28-29_260595134347_rgbf000126-resize_1/000780_2014-06-08_22-28-29_260595134347_rgbf000126-resize_1-target.png,250,3.3825,6.0,2081,245,feet,jsons/v1_VE250_randls_72_rotated.json,449785,575463,38,Man
62,702027,DepthScenes,duration_manipulation_targetAtFixation,jsons/v1_VE250_randls_72_rotated.json,http://54.235.29.9/FacialAge/BNav_EC2/DepthDuration/v2_depth_duration_MTurk/v2_DepthDuration_HTML.html#371,371,1229,654,1536,960,9-18-2022,12-51-34,63,depth_duration_stimuli/002445_2014-06-28_20-32-16_260595134347_rgbf000029-resize_4/002445_2014-06-28_20-32-16_260595134347_rgbf000029-resize_4-target.png,250,2.5315,4.0,2022,244,feet,jsons/v1_VE250_randls_72_rotated.json,449785,575463,38,Man
63,702027,DepthScenes,duration_manipulation_targetAtFixation,jsons/v1_VE250_randls_72_rotated.json,http://54.235.29.9/FacialAge/BNav_EC2/DepthDuration/v2_depth_duration_MTurk/v2_DepthDuration_HTML.html#371,371,1229,654,1536,960,9-18-2022,12-51-34,64,depth_duration_stimuli/003228_2014-05-14_13-42-35_094959634447_rgbf000101-resize_1/003228_2014-05-14_13-42-35_094959634447_rgbf000101-resize_1-target.png,250,1.9680000000000002,3.3,2777,249,feet,jsons/v1_VE250_randls_72_rotated.json,449785,575463,38,Man
64,702027,DepthScenes,duration_manipulation_targetAtFixation,jsons/v1_VE250_randls_72_rotated.json,http://54.235.29.9/FacialAge/BNav_EC2/DepthDuration/v2_depth_duration_MTurk/v2_DepthDuration_HTML.html#371,371,1229,654,1536,960,9-18-2022,12-51-34,65,depth_duration_stimuli/002600_2014-06-24_14-27-04_094959634447_rgbf000074-resize_2/002600_2014-06-24_14-27-04_094959634447_rgbf000074-resize_2-target.png,250,2.7575,5.5,2756,245,feet,jsons/v1_VE250_randls_72_rotated.json,449785,575463,38,Man
65,702027,DepthScenes,duration_manipulation_targetAtFixation,jsons/v1_VE250_randls_72_rotated.json,http://54.235.29.9/FacialAge/BNav_EC2/DepthDuration/v2_depth_duration_MTurk/v2_DepthDuration_HTML.html#371,371,1229,654,1536,960,9-18-2022,12-51-34,66,depth_duration_stimuli/001540_2014-06-20_17-01-05_260595134347_rgbf000086-resize_2/001540_2014-06-20_17-01-05_260595134347_rgbf000086-resize-original.jpg,250,1.459,0.0,1671,243,feet,jsons/v1_VE250_randls_72_rotated.json,449785,575463,38,Man
66,702027,DepthScenes,duration_manipulation_targetAtFixation,jsons/v1_VE250_randls_72_rotated.json,http://54.235.29.9/FacialAge/BNav_EC2/DepthDuration/v2_depth_duration_MTurk/v2_DepthDuration_HTML.html#371,371,1229,654,1536,960,9-18-2022,12-51-34,67,depth_duration_stimuli/003048_2014-06-15_13-49-43_094959634447_rgbf000150-resize_1/003048_2014-06-15_13-49-43_094959634447_rgbf000150-resize_1-target.png,250,4.0035,6.9,3473,245,feet,jsons/v1_VE250_randls_72_rotated.json,449785,575463,38,Man
67,702027,DepthScenes,duration_manipulation_targetAtFixation,jsons/v1_VE250_randls_72_rotated.json,http://54.235.29.9/FacialAge/BNav_EC2/DepthDuration/v2_depth_duration_MTurk/v2_DepthDuration_HTML.html#371,371,1229,654,1536,960,9-18-2022,12-51-34,68,depth_duration_stimuli/002043_2014-06-24_20-29-38_260595134347_rgbf000039-resize_4/002043_2014-06-24_20-29-38_260595134347_rgbf000039-resize_4-target.png,250,2.8435,4.75,2835,263,feet,jsons/v1_VE250_randls_72_rotated.json,449785,575463,38,Man
68,702027,DepthScenes,duration_manipulation_targetAtFixation,jsons/v1_VE250_randls_72_rotated.json,http://54.235.29.9/FacialAge/BNav_EC2/DepthDuration/v2_depth_duration_MTurk/v2_DepthDuration_HTML.html#371,371,1229,654,1536,960,9-18-2022,12-51-34,69,depth_duration_stimuli/000137_2014-05-20_17-04-49_260595134347_rgbf000120-resize_1/000137_2014-05-20_17-04-49_260595134347_rgbf000120-resize_1-target.png,250,3.786,5.15,2740,258,feet,jsons/v1_VE250_randls_72_rotated.json,449785,575463,38,Man
69,702027,DepthScenes,duration_manipulation_targetAtFixation,jsons/v1_VE250_randls_72_rotated.json,http://54.235.29.9/FacialAge/BNav_EC2/DepthDuration/v2_depth_duration_MTurk/v2_DepthDuration_HTML.html#371,371,1229,654,1536,960,9-18-2022,12-51-34,70,depth_duration_stimuli/000736_2014-06-08_18-24-15_260595134347_rgbf000206-resize_3/000736_2014-06-08_18-24-15_260595134347_rgbf000206-resize_3-target.png,250,3.515,6.1,3926,244,feet,jsons/v1_VE250_randls_72_rotated.json,449785,575463,38,Man
70,702027,DepthScenes,duration_manipulation_targetAtFixation,jsons/v1_VE250_randls_72_rotated.json,http://54.235.29.9/FacialAge/BNav_EC2/DepthDuration/v2_depth_duration_MTurk/v2_DepthDuration_HTML.html#371,371,1229,654,1536,960,9-18-2022,12-51-34,71,depth_duration_stimuli/003423_2014-05-21_10-23-26_094959634447_rgbf002665-resize_2/003423_2014-05-21_10-23-26_094959634447_rgbf002665-resize_2-target.png,250,3.2575,88.0,3157,247,feet,jsons/v1_VE250_randls_72_rotated.json,449785,575463,38,Man
71,702027,DepthScenes,duration_manipulation_targetAtFixation,jsons/v1_VE250_randls_72_rotated.json,http://54.235.29.9/FacialAge/BNav_EC2/DepthDuration/v2_depth_duration_MTurk/v2_DepthDuration_HTML.html#371,371,1229,654,1536,960,9-18-2022,12-51-34,72,depth_duration_stimuli/002905_2014-06-03_18-04-43_094959634447_rgbf000151-resize_2/002905_2014-06-03_18-04-43_094959634447_rgbf000151-resize_2-target.png,250,2.0295,10.0,4278,259,feet,jsons/v1_VE250_randls_72_rotated.json,449785,575463,38,Man
72,702027,DepthScenes,duration_manipulation_targetAtFixation,jsons/v1_VE250_randls_72_rotated.json,http://54.235.29.9/FacialAge/BNav_EC2/DepthDuration/v2_depth_duration_MTurk/v2_DepthDuration_HTML.html#371,371,1229,654,1536,960,9-18-2022,12-51-34,73,depth_duration_stimuli/002660_2014-06-13_15-44-18_094959634447_rgbf001878-resize_2/002660_2014-06-13_15-44-18_094959634447_rgbf001878-resize_2-target.png,250,3.576,11.0,3192,246,feet,jsons/v1_VE250_randls_72_rotated.json,449785,575463,38,Man
73,702027,DepthScenes,duration_manipulation_targetAtFixation,jsons/v1_VE250_randls_72_rotated.json,http://54.235.29.9/FacialAge/BNav_EC2/DepthDuration/v2_depth_duration_MTurk/v2_DepthDuration_HTML.html#371,371,1229,654,1536,960,9-18-2022,12-51-34,74,depth_duration_stimuli/002153_2014-06-25_21-27-18_260595134347_rgbf000038-resize_5/002153_2014-06-25_21-27-18_260595134347_rgbf000038-resize_5-target.png,250,2.505,5.0,2103,243,feet,jsons/v1_VE250_randls_72_rotated.json,449785,575463,38,Man
74,702027,DepthScenes,duration_manipulation_targetAtFixation,jsons/v1_VE250_randls_72_rotated.json,http://54.235.29.9/FacialAge/BNav_EC2/DepthDuration/v2_depth_duration_MTurk/v2_DepthDuration_HTML.html#371,371,1229,654,1536,960,9-18-2022,12-51-34,75,depth_duration_stimuli/000556_2014-06-09_22-42-56_260595134347_rgbf000214-resize_1/000556_2014-06-09_22-42-56_260595134347_rgbf000214-resize_1-target.png,250,4.8415,7.0,2208,248,feet,jsons/v1_VE250_randls_72_rotated.json,449785,575463,38,Man
75,702027,DepthScenes,duration_manipulation_targetAtFixation,jsons/v1_VE250_randls_72_rotated.json,http://54.235.29.9/FacialAge/BNav_EC2/DepthDuration/v2_depth_duration_MTurk/v2_DepthDuration_HTML.html#371,371,1229,654,1536,960,9-18-2022,12-51-34,76,depth_duration_stimuli/001158_2014-06-17_15-32-16_260595134347_rgbf000138-resize_2/001158_2014-06-17_15-32-16_260595134347_rgbf000138-resize_2-target.png,250,4.5315,19.0,2670,244,feet,jsons/v1_VE250_randls_72_rotated.json,449785,575463,38,Man
76,702027,DepthScenes,duration_manipulation_targetAtFixation,jsons/v1_VE250_randls_72_rotated.json,http://54.235.29.9/FacialAge/BNav_EC2/DepthDuration/v2_depth_duration_MTurk/v2_DepthDuration_HTML.html#371,371,1229,654,1536,960,9-18-2022,12-51-34,77,depth_duration_stimuli/003079_2014-06-15_15-18-20_094959634447_rgbf000152-resize_8/003079_2014-06-15_15-18-20_094959634447_rgbf000152-resize_8-target.png,250,2.8775,8.0,1738,244,feet,jsons/v1_VE250_randls_72_rotated.json,449785,575463,38,Man
77,702027,DepthScenes,duration_manipulation_targetAtFixation,jsons/v1_VE250_randls_72_rotated.json,http://54.235.29.9/FacialAge/BNav_EC2/DepthDuration/v2_depth_duration_MTurk/v2_DepthDuration_HTML.html#371,371,1229,654,1536,960,9-18-2022,12-51-34,78,depth_duration_stimuli/000506_2014-06-08_23-21-00_260595134347_rgbf000070-resize_7/000506_2014-06-08_23-21-00_260595134347_rgbf000070-resize_7-target.png,250,4.0585,7.75,3953,263,feet,jsons/v1_VE250_randls_72_rotated.json,449785,575463,38,Man
78,702027,DepthScenes,duration_manipulation_targetAtFixation,jsons/v1_VE250_randls_72_rotated.json,http://54.235.29.9/FacialAge/BNav_EC2/DepthDuration/v2_depth_duration_MTurk/v2_DepthDuration_HTML.html#371,371,1229,654,1536,960,9-18-2022,12-51-34,79,depth_duration_stimuli/000943_2014-06-09_19-31-07_260595134347_rgbf000128-resize_1/000943_2014-06-09_19-31-07_260595134347_rgbf000128-resize_1-target.png,250,1.9765,5.5,2192,250,feet,jsons/v1_VE250_randls_72_rotated.json,449785,575463,38,Man
79,702027,DepthScenes,duration_manipulation_targetAtFixation,jsons/v1_VE250_randls_72_rotated.json,http://54.235.29.9/FacialAge/BNav_EC2/DepthDuration/v2_depth_duration_MTurk/v2_DepthDuration_HTML.html#371,371,1229,654,1536,960,9-18-2022,12-51-34,80,depth_duration_stimuli/003070_2014-06-15_14-58-27_094959634447_rgbf000150-resize_3/003070_2014-06-15_14-58-27_094959634447_rgbf000150-resize_3-target.png,250,2.9415,9.2,3247,246,feet,jsons/v1_VE250_randls_72_rotated.json,449785,575463,38,Man
80,702027,DepthScenes,duration_manipulation_targetAtFixation,jsons/v1_VE250_randls_72_rotated.json,http://54.235.29.9/FacialAge/BNav_EC2/DepthDuration/v2_depth_duration_MTurk/v2_DepthDuration_HTML.html#371,371,1229,654,1536,960,9-18-2022,12-51-34,81,depth_duration_stimuli/000677_2014-06-08_23-10-32_260595134347_rgbf000158-resize_6/000677_2014-06-08_23-10-32_260595134347_rgbf000158-resize_6-target.png,250,3.556,8.1,2279,249,feet,jsons/v1_VE250_randls_72_rotated.json,449785,575463,38,Man
81,702027,DepthScenes,duration_manipulation_targetAtFixation,jsons/v1_VE250_randls_72_rotated.json,http://54.235.29.9/FacialAge/BNav_EC2/DepthDuration/v2_depth_duration_MTurk/v2_DepthDuration_HTML.html#371,371,1229,654,1536,960,9-18-2022,12-51-34,82,depth_duration_stimuli/001029_2014-06-08_13-17-57_260595134347_rgbf000065-resize_1/001029_2014-06-08_13-17-57_260595134347_rgbf000065-resize_1-target.png,250,3.0835,6.0,2386,260,feet,jsons/v1_VE250_randls_72_rotated.json,449785,575463,38,Man
82,702027,DepthScenes,duration_manipulation_targetAtFixation,jsons/v1_VE250_randls_72_rotated.json,http://54.235.29.9/FacialAge/BNav_EC2/DepthDuration/v2_depth_duration_MTurk/v2_DepthDuration_HTML.html#371,371,1229,654,1536,960,9-18-2022,12-51-34,83,depth_duration_stimuli/000103_2014-05-14_22-01-17_260595134347_rgbf000152-resize_5/000103_2014-05-14_22-01-17_260595134347_rgbf000152-resize_5-target.png,250,1.993,4.0,1904,244,feet,jsons/v1_VE250_randls_72_rotated.json,449785,575463,38,Man
83,702027,DepthScenes,duration_manipulation_targetAtFixation,jsons/v1_VE250_randls_72_rotated.json,http://54.235.29.9/FacialAge/BNav_EC2/DepthDuration/v2_depth_duration_MTurk/v2_DepthDuration_HTML.html#371,371,1229,654,1536,960,9-18-2022,12-51-34,84,depth_duration_stimuli/001555_2014-06-20_17-12-10_260595134347_rgbf000065-resize_4/001555_2014-06-20_17-12-10_260595134347_rgbf000065-resize_4-target.png,250,1.633,3.0,1520,246,feet,jsons/v1_VE250_randls_72_rotated.json,449785,575463,38,Man
84,702027,DepthScenes,duration_manipulation_targetAtFixation,jsons/v1_VE250_randls_72_rotated.json,http://54.235.29.9/FacialAge/BNav_EC2/DepthDuration/v2_depth_duration_MTurk/v2_DepthDuration_HTML.html#371,371,1229,654,1536,960,9-18-2022,12-51-34,85,depth_duration_stimuli/001516_2014-06-20_16-25-09_260595134347_rgbf000076-resize_2/001516_2014-06-20_16-25-09_260595134347_rgbf000076-resize_2-target.png,250,1.7445,5.0,1612,248,feet,jsons/v1_VE250_randls_72_rotated.json,449785,575463,38,Man
85,702027,DepthScenes,duration_manipulation_targetAtFixation,jsons/v1_VE250_randls_72_rotated.json,http://54.235.29.9/FacialAge/BNav_EC2/DepthDuration/v2_depth_duration_MTurk/v2_DepthDuration_HTML.html#371,371,1229,654,1536,960,9-18-2022,12-51-34,86,depth_duration_stimuli/002118_2014-06-25_20-32-08_260595134347_rgbf000078-resize_1/002118_2014-06-25_20-32-08_260595134347_rgbf000078-resize_1-target.png,250,2.6460000000000004,7.0,2517,263,feet,jsons/v1_VE250_randls_72_rotated.json,449785,575463,38,Man
86,702027,DepthScenes,duration_manipulation_targetAtFixation,jsons/v1_VE250_randls_72_rotated.json,http://54.235.29.9/FacialAge/BNav_EC2/DepthDuration/v2_depth_duration_MTurk/v2_DepthDuration_HTML.html#371,371,1229,654,1536,960,9-18-2022,12-51-34,87,depth_duration_stimuli/002758_2014-06-22_19-11-20_094959634447_rgbf000128-resize_1/002758_2014-06-22_19-11-20_094959634447_rgbf000128-resize_1-target.png,250,2.555,6.0,2909,245,feet,jsons/v1_VE250_randls_72_rotated.json,449785,575463,38,Man
87,702027,DepthScenes,duration_manipulation_targetAtFixation,jsons/v1_VE250_randls_72_rotated.json,http://54.235.29.9/FacialAge/BNav_EC2/DepthDuration/v2_depth_duration_MTurk/v2_DepthDuration_HTML.html#371,371,1229,654,1536,960,9-18-2022,12-51-34,88,depth_duration_stimuli/002630_2014-06-24_14-47-50_094959634447_rgbf000055-resize_1/002630_2014-06-24_14-47-50_094959634447_rgbf000055-resize_1-target.png,250,3.0095,11.0,2617,246,feet,jsons/v1_VE250_randls_72_rotated.json,449785,575463,38,Man
88,702027,DepthScenes,duration_manipulation_targetAtFixation,jsons/v1_VE250_randls_72_rotated.json,http://54.235.29.9/FacialAge/BNav_EC2/DepthDuration/v2_depth_duration_MTurk/v2_DepthDuration_HTML.html#371,371,1229,654,1536,960,9-18-2022,12-51-34,89,depth_duration_stimuli/002425_2014-06-28_20-27-29_260595134347_rgbf000031-resize_8/002425_2014-06-28_20-27-29_260595134347_rgbf000031-resize_8-target.png,250,3.8960000000000004,12.0,1807,248,feet,jsons/v1_VE250_randls_72_rotated.json,449785,575463,38,Man
89,702027,DepthScenes,duration_manipulation_targetAtFixation,jsons/v1_VE250_randls_72_rotated.json,http://54.235.29.9/FacialAge/BNav_EC2/DepthDuration/v2_depth_duration_MTurk/v2_DepthDuration_HTML.html#371,371,1229,654,1536,960,9-18-2022,12-51-34,90,depth_duration_stimuli/000642_2014-06-08_16-59-25_260595134347_rgbf000098-resize_2/000642_2014-06-08_16-59-25_260595134347_rgbf000098-resize_2-target.png,250,2.8815,6.0,1896,263,feet,jsons/v1_VE250_randls_72_rotated.json,449785,575463,38,Man
90,702027,DepthScenes,duration_manipulation_targetAtFixation,jsons/v1_VE250_randls_72_rotated.json,http://54.235.29.9/FacialAge/BNav_EC2/DepthDuration/v2_depth_duration_MTurk/v2_DepthDuration_HTML.html#371,371,1229,654,1536,960,9-18-2022,12-51-34,91,depth_duration_stimuli/001828_2014-06-26_21-40-03_260595134347_rgbf000024-resize_0/001828_2014-06-26_21-40-03_260595134347_rgbf000024-resize_0-target.png,250,4.8260000000000005,11.0,2253,260,feet,jsons/v1_VE250_randls_72_rotated.json,449785,575463,38,Man
91,702027,DepthScenes,duration_manipulation_targetAtFixation,jsons/v1_VE250_randls_72_rotated.json,http://54.235.29.9/FacialAge/BNav_EC2/DepthDuration/v2_depth_duration_MTurk/v2_DepthDuration_HTML.html#371,371,1229,654,1536,960,9-18-2022,12-51-34,92,depth_duration_stimuli/000009_2014-05-26_14-32-05_260595134347_rgbf000034-resize_3/000009_2014-05-26_14-32-05_260595134347_rgbf000034-resize_3-target.png,250,3.8715,9.0,1989,261,feet,jsons/v1_VE250_randls_72_rotated.json,449785,575463,38,Man
92,702027,DepthScenes,duration_manipulation_targetAtFixation,jsons/v1_VE250_randls_72_rotated.json,http://54.235.29.9/FacialAge/BNav_EC2/DepthDuration/v2_depth_duration_MTurk/v2_DepthDuration_HTML.html#371,371,1229,654,1536,960,9-18-2022,12-51-34,93,depth_duration_stimuli/001032_2014-06-08_13-23-17_260595134347_rgbf000021-resize_3/001032_2014-06-08_13-23-17_260595134347_rgbf000021-resize_3-target.png,250,3.2725,4.0,1473,243,feet,jsons/v1_VE250_randls_72_rotated.json,449785,575463,38,Man
93,702027,DepthScenes,duration_manipulation_targetAtFixation,jsons/v1_VE250_randls_72_rotated.json,http://54.235.29.9/FacialAge/BNav_EC2/DepthDuration/v2_depth_duration_MTurk/v2_DepthDuration_HTML.html#371,371,1229,654,1536,960,9-18-2022,12-51-34,94,depth_duration_stimuli/001059_2014-06-08_21-53-27_260595134347_rgbf000061-resize_4/001059_2014-06-08_21-53-27_260595134347_rgbf000061-resize_4-target.png,250,2.4185,4.0,1632,245,feet,jsons/v1_VE250_randls_72_rotated.json,449785,575463,38,Man
94,702027,DepthScenes,duration_manipulation_targetAtFixation,jsons/v1_VE250_randls_72_rotated.json,http://54.235.29.9/FacialAge/BNav_EC2/DepthDuration/v2_depth_duration_MTurk/v2_DepthDuration_HTML.html#371,371,1229,654,1536,960,9-18-2022,12-51-34,95,depth_duration_stimuli/001584_2014-06-20_11-07-43_260595134347_rgbf000002-resize_1/001584_2014-06-20_11-07-43_260595134347_rgbf000002-resize_1-target.png,250,3.53,7.5,3498,247,feet,jsons/v1_VE250_randls_72_rotated.json,449785,575463,38,Man
95,702027,DepthScenes,duration_manipulation_targetAtFixation,jsons/v1_VE250_randls_72_rotated.json,http://54.235.29.9/FacialAge/BNav_EC2/DepthDuration/v2_depth_duration_MTurk/v2_DepthDuration_HTML.html#371,371,1229,654,1536,960,9-18-2022,12-51-34,96,depth_duration_stimuli/003621_2014-05-23_18-06-08_094959634447_rgbf000101-resize_1/003621_2014-05-23_18-06-08_094959634447_rgbf000101-resize_1-target.png,250,3.9835,8.4,2468,246,feet,jsons/v1_VE250_randls_72_rotated.json,449785,575463,38,Man
96,702027,DepthScenes,duration_manipulation_targetAtFixation,jsons/v1_VE250_randls_72_rotated.json,http://54.235.29.9/FacialAge/BNav_EC2/DepthDuration/v2_depth_duration_MTurk/v2_DepthDuration_HTML.html#371,371,1229,654,1536,960,9-18-2022,12-51-34,97,depth_duration_stimuli/002344_2014-06-28_20-06-29_260595134347_rgbf000030-resize_1/002344_2014-06-28_20-06-29_260595134347_rgbf000030-resize_1-target.png,250,1.5795,1.3,2846,246,feet,jsons/v1_VE250_randls_72_rotated.json,449785,575463,38,Man
97,702027,DepthScenes,duration_manipulation_targetAtFixation,jsons/v1_VE250_randls_72_rotated.json,http://54.235.29.9/FacialAge/BNav_EC2/DepthDuration/v2_depth_duration_MTurk/v2_DepthDuration_HTML.html#371,371,1229,654,1536,960,9-18-2022,12-51-34,98,depth_duration_stimuli/002725_2014-06-22_11-47-51_094959634447_rgbf000070-resize_1/002725_2014-06-22_11-47-51_094959634447_rgbf000070-resize_1-target.png,250,2.195,4.5,2809,245,feet,jsons/v1_VE250_randls_72_rotated.json,449785,575463,38,Man
98,702027,DepthScenes,duration_manipulation_targetAtFixation,jsons/v1_VE250_randls_72_rotated.json,http://54.235.29.9/FacialAge/BNav_EC2/DepthDuration/v2_depth_duration_MTurk/v2_DepthDuration_HTML.html#371,371,1229,654,1536,960,9-18-2022,12-51-34,99,depth_duration_stimuli/001222_2014-06-17_16-24-06_260595134347_rgbf000073-resize_0/001222_2014-06-17_16-24-06_260595134347_rgbf000073-resize-original.jpg,250,1.4385,0.0,2204,248,feet,jsons/v1_VE250_randls_72_rotated.json,449785,575463,38,Man
99,702027,DepthScenes,duration_manipulation_targetAtFixation,jsons/v1_VE250_randls_72_rotated.json,http://54.235.29.9/FacialAge/BNav_EC2/DepthDuration/v2_depth_duration_MTurk/v2_DepthDuration_HTML.html#371,371,1229,654,1536,960,9-18-2022,12-51-34,100,depth_duration_stimuli/002995_2014-06-15_12-31-26_094959634447_rgbf000150-resize_1/002995_2014-06-15_12-31-26_094959634447_rgbf000150-resize_1-target.png,250,3.8360000000000003,4.5,2357,247,feet,jsons/v1_VE250_randls_72_rotated.json,449785,575463,38,Man
100,702027,DepthScenes,duration_manipulation_targetAtFixation,jsons/v1_VE250_randls_72_rotated.json,http://54.235.29.9/FacialAge/BNav_EC2/DepthDuration/v2_depth_duration_MTurk/v2_DepthDuration_HTML.html#371,371,1229,654,1536,960,9-18-2022,12-51-34,101,depth_duration_stimuli/002748_2014-06-22_19-07-22_094959634447_rgbf000078-resize_1/002748_2014-06-22_19-07-22_094959634447_rgbf000078-resize_1-target.png,250,4.6705,12.0,2361,242,feet,jsons/v1_VE250_randls_72_rotated.json,449785,575463,38,Man
101,702027,DepthScenes,duration_manipulation_targetAtFixation,jsons/v1_VE250_randls_72_rotated.json,http://54.235.29.9/FacialAge/BNav_EC2/DepthDuration/v2_depth_duration_MTurk/v2_DepthDuration_HTML.html#371,371,1229,654,1536,960,9-18-2022,12-51-34,102,depth_duration_stimuli/001052_2014-06-08_18-24-54_260595134347_rgbf000130-resize_1/001052_2014-06-08_18-24-54_260595134347_rgbf000130-resize_1-target.png,250,4.1045,11.0,4017,249,feet,jsons/v1_VE250_randls_72_rotated.json,449785,575463,38,Man
102,702027,DepthScenes,duration_manipulation_targetAtFixation,jsons/v1_VE250_randls_72_rotated.json,http://54.235.29.9/FacialAge/BNav_EC2/DepthDuration/v2_depth_duration_MTurk/v2_DepthDuration_HTML.html#371,371,1229,654,1536,960,9-18-2022,12-51-34,103,depth_duration_stimuli/002988_2014-06-15_12-24-20_094959634447_rgbf000150-resize_1/002988_2014-06-15_12-24-20_094959634447_rgbf000150-resize_1-target.png,250,4.7669999999999995,13.0,1787,262,feet,jsons/v1_VE250_randls_72_rotated.json,449785,575463,38,Man
103,702027,DepthScenes,duration_manipulation_targetAtFixation,jsons/v1_VE250_randls_72_rotated.json,http://54.235.29.9/FacialAge/BNav_EC2/DepthDuration/v2_depth_duration_MTurk/v2_DepthDuration_HTML.html#371,371,1229,654,1536,960,9-18-2022,12-51-34,104,depth_duration_stimuli/001392_2014-06-19_16-07-59_260595134347_rgbf000046-resize_1/001392_2014-06-19_16-07-59_260595134347_rgbf000046-resize_1-target.png,250,4.135,15.0,2220,250,feet,jsons/v1_VE250_randls_72_rotated.json,449785,575463,38,Man
104,702027,DepthScenes,duration_manipulation_targetAtFixation,jsons/v1_VE250_randls_72_rotated.json,http://54.235.29.9/FacialAge/BNav_EC2/DepthDuration/v2_depth_duration_MTurk/v2_DepthDuration_HTML.html#371,371,1229,654,1536,960,9-18-2022,12-51-34,105,depth_duration_stimuli/001570_2014-06-20_17-21-09_260595134347_rgbf000135-resize_4/001570_2014-06-20_17-21-09_260595134347_rgbf000135-resize_4-target.png,250,4.467,12.0,3030,245,feet,jsons/v1_VE250_randls_72_rotated.json,449785,575463,38,Man
105,702027,DepthScenes,duration_manipulation_targetAtFixation,jsons/v1_VE250_randls_72_rotated.json,http://54.235.29.9/FacialAge/BNav_EC2/DepthDuration/v2_depth_duration_MTurk/v2_DepthDuration_HTML.html#371,371,1229,654,1536,960,9-18-2022,12-51-34,106,depth_duration_stimuli/001650_2014-06-20_12-09-00_260595134347_rgbf000087-resize_3/001650_2014-06-20_12-09-00_260595134347_rgbf000087-resize_3-target.png,250,1.9505,4.0,1797,246,feet,jsons/v1_VE250_randls_72_rotated.json,449785,575463,38,Man
106,702027,DepthScenes,duration_manipulation_targetAtFixation,jsons/v1_VE250_randls_72_rotated.json,http://54.235.29.9/FacialAge/BNav_EC2/DepthDuration/v2_depth_duration_MTurk/v2_DepthDuration_HTML.html#371,371,1229,654,1536,960,9-18-2022,12-51-34,107,depth_duration_stimuli/000682_2014-06-08_23-14-58_260595134347_rgbf000041-resize_5/000682_2014-06-08_23-14-58_260595134347_rgbf000041-resize_5-target.png,250,2.7239999999999998,5.0,1500,248,feet,jsons/v1_VE250_randls_72_rotated.json,449785,575463,38,Man
107,702027,DepthScenes,duration_manipulation_targetAtFixation,jsons/v1_VE250_randls_72_rotated.json,http://54.235.29.9/FacialAge/BNav_EC2/DepthDuration/v2_depth_duration_MTurk/v2_DepthDuration_HTML.html#371,371,1229,654,1536,960,9-18-2022,12-51-34,108,depth_duration_stimuli/002136_2014-06-25_21-18-03_260595134347_rgbf000109-resize_3/002136_2014-06-25_21-18-03_260595134347_rgbf000109-resize_3-target.png,250,1.9569999999999999,3.0,1472,258,feet,jsons/v1_VE250_randls_72_rotated.json,449785,575463,38,Man
108,702027,DepthScenes,duration_manipulation_targetAtFixation,jsons/v1_VE250_randls_72_rotated.json,http://54.235.29.9/FacialAge/BNav_EC2/DepthDuration/v2_depth_duration_MTurk/v2_DepthDuration_HTML.html#371,371,1229,654,1536,960,9-18-2022,12-51-34,109,depth_duration_stimuli/002964_2014-06-08_17-46-11_094959634447_rgbf000091-resize_4/002964_2014-06-08_17-46-11_094959634447_rgbf000091-resize_4-target.png,250,1.6909999999999998,1.0,1347,246,feet,jsons/v1_VE250_randls_72_rotated.json,449785,575463,38,Man
109,702027,DepthScenes,duration_manipulation_targetAtFixation,jsons/v1_VE250_randls_72_rotated.json,http://54.235.29.9/FacialAge/BNav_EC2/DepthDuration/v2_depth_duration_MTurk/v2_DepthDuration_HTML.html#371,371,1229,654,1536,960,9-18-2022,12-51-34,110,depth_duration_stimuli/002750_2014-06-22_19-08-03_094959634447_rgbf000094-resize_4/002750_2014-06-22_19-08-03_094959634447_rgbf000094-resize_4-target.png,250,2.354,4.0,1342,246,feet,jsons/v1_VE250_randls_72_rotated.json,449785,575463,38,Man
110,702027,DepthScenes,duration_manipulation_targetAtFixation,jsons/v1_VE250_randls_72_rotated.json,http://54.235.29.9/FacialAge/BNav_EC2/DepthDuration/v2_depth_duration_MTurk/v2_DepthDuration_HTML.html#371,371,1229,654,1536,960,9-18-2022,12-51-34,111,depth_duration_stimuli/002549_2014-06-24_13-41-39_094959634447_rgbf000022-resize_3/002549_2014-06-24_13-41-39_094959634447_rgbf000022-resize_3-target.png,250,1.476,3.0,1298,243,feet,jsons/v1_VE250_randls_72_rotated.json,449785,575463,38,Man
111,702027,DepthScenes,duration_manipulation_targetAtFixation,jsons/v1_VE250_randls_72_rotated.json,http://54.235.29.9/FacialAge/BNav_EC2/DepthDuration/v2_depth_duration_MTurk/v2_DepthDuration_HTML.html#371,371,1229,654,1536,960,9-18-2022,12-51-34,112,depth_duration_stimuli/000191_2014-05-12_17-07-38_260595134347_rgbf000199-resize_0/000191_2014-05-12_17-07-38_260595134347_rgbf000199-resize_0-target.png,250,3.7995,8.0,1921,261,feet,jsons/v1_VE250_randls_72_rotated.json,449785,575463,38,Man
112,702027,DepthScenes,duration_manipulation_targetAtFixation,jsons/v1_VE250_randls_72_rotated.json,http://54.235.29.9/FacialAge/BNav_EC2/DepthDuration/v2_depth_duration_MTurk/v2_DepthDuration_HTML.html#371,371,1229,654,1536,960,9-18-2022,12-51-34,113,depth_duration_stimuli/000493_2014-06-09_21-01-18_260595134347_rgbf000196-resize_3/000493_2014-06-09_21-01-18_260595134347_rgbf000196-resize_3-target.png,250,3.44,8.0,2173,249,feet,jsons/v1_VE250_randls_72_rotated.json,449785,575463,38,Man
113,702027,DepthScenes,duration_manipulation_targetAtFixation,jsons/v1_VE250_randls_72_rotated.json,http://54.235.29.9/FacialAge/BNav_EC2/DepthDuration/v2_depth_duration_MTurk/v2_DepthDuration_HTML.html#371,371,1229,654,1536,960,9-18-2022,12-51-34,114,depth_duration_stimuli/002953_2014-06-08_17-32-18_094959634447_rgbf000059-resize_5/002953_2014-06-08_17-32-18_094959634447_rgbf000059-resize_5-target.png,250,1.551,3.0,1366,246,feet,jsons/v1_VE250_randls_72_rotated.json,449785,575463,38,Man
114,702027,DepthScenes,duration_manipulation_targetAtFixation,jsons/v1_VE250_randls_72_rotated.json,http://54.235.29.9/FacialAge/BNav_EC2/DepthDuration/v2_depth_duration_MTurk/v2_DepthDuration_HTML.html#371,371,1229,654,1536,960,9-18-2022,12-51-34,115,depth_duration_stimuli/000878_2014-06-08_22-52-45_260595134347_rgbf000045-resize_2/000878_2014-06-08_22-52-45_260595134347_rgbf000045-resize_2-target.png,250,2.092,5.0,1789,256,feet,jsons/v1_VE250_randls_72_rotated.json,449785,575463,38,Man
115,702027,DepthScenes,duration_manipulation_targetAtFixation,jsons/v1_VE250_randls_72_rotated.json,http://54.235.29.9/FacialAge/BNav_EC2/DepthDuration/v2_depth_duration_MTurk/v2_DepthDuration_HTML.html#371,371,1229,654,1536,960,9-18-2022,12-51-34,116,depth_duration_stimuli/002199_2014-06-28_18-33-56_260595134347_rgbf000074-resize_0/002199_2014-06-28_18-33-56_260595134347_rgbf000074-resize_0-target.png,250,1.996,1.0,1619,246,feet,jsons/v1_VE250_randls_72_rotated.json,449785,575463,38,Man
116,702027,DepthScenes,duration_manipulation_targetAtFixation,jsons/v1_VE250_randls_72_rotated.json,http://54.235.29.9/FacialAge/BNav_EC2/DepthDuration/v2_depth_duration_MTurk/v2_DepthDuration_HTML.html#371,371,1229,654,1536,960,9-18-2022,12-51-34,117,depth_duration_stimuli/001056_2014-06-08_18-46-44_260595134347_rgbf000068-resize_0/001056_2014-06-08_18-46-44_260595134347_rgbf000068-resize_0-target.png,250,2.6625,4.0,1720,263,feet,jsons/v1_VE250_randls_72_rotated.json,449785,575463,38,Man
117,702027,DepthScenes,duration_manipulation_targetAtFixation,jsons/v1_VE250_randls_72_rotated.json,http://54.235.29.9/FacialAge/BNav_EC2/DepthDuration/v2_depth_duration_MTurk/v2_DepthDuration_HTML.html#371,371,1229,654,1536,960,9-18-2022,12-51-34,118,depth_duration_stimuli/001235_2014-06-17_16-37-36_260595134347_rgbf000084-resize_4/001235_2014-06-17_16-37-36_260595134347_rgbf000084-resize_4-target.png,250,3.6605,5.0,2824,251,feet,jsons/v1_VE250_randls_72_rotated.json,449785,575463,38,Man
118,702027,DepthScenes,duration_manipulation_targetAtFixation,jsons/v1_VE250_randls_72_rotated.json,http://54.235.29.9/FacialAge/BNav_EC2/DepthDuration/v2_depth_duration_MTurk/v2_DepthDuration_HTML.html#371,371,1229,654,1536,960,9-18-2022,12-51-34,119,depth_duration_stimuli/000788_2014-06-08_22-34-36_260595134347_rgbf000131-resize_1/000788_2014-06-08_22-34-36_260595134347_rgbf000131-resize_1-target.png,250,3.359,7.55,3797,244,feet,jsons/v1_VE250_randls_72_rotated.json,449785,575463,38,Man
119,702027,DepthScenes,duration_manipulation_targetAtFixation,jsons/v1_VE250_randls_72_rotated.json,http://54.235.29.9/FacialAge/BNav_EC2/DepthDuration/v2_depth_duration_MTurk/v2_DepthDuration_HTML.html#371,371,1229,654,1536,960,9-18-2022,12-51-34,120,depth_duration_stimuli/000787_2014-06-08_22-33-53_260595134347_rgbf000175-resize_1/000787_2014-06-08_22-33-53_260595134347_rgbf000175-resize-original.jpg,250,4.784,0.0,1926,248,feet,jsons/v1_VE250_randls_72_rotated.json,449785,575463,38,Man
120,702027,DepthScenes,duration_manipulation_targetAtFixation,jsons/v1_VE250_randls_72_rotated.json,http://54.235.29.9/FacialAge/BNav_EC2/DepthDuration/v2_depth_duration_MTurk/v2_DepthDuration_HTML.html#371,371,1229,654,1536,960,9-18-2022,12-51-34,121,depth_duration_stimuli/000691_2014-06-08_13-08-50_260595134347_rgbf000132-resize_3/000691_2014-06-08_13-08-50_260595134347_rgbf000132-resize_3-target.png,250,4.1530000000000005,8.0,1855,261,feet,jsons/v1_VE250_randls_72_rotated.json,449785,575463,38,Man
121,702027,DepthScenes,duration_manipulation_targetAtFixation,jsons/v1_VE250_randls_72_rotated.json,http://54.235.29.9/FacialAge/BNav_EC2/DepthDuration/v2_depth_duration_MTurk/v2_DepthDuration_HTML.html#371,371,1229,654,1536,960,9-18-2022,12-51-34,122,depth_duration_stimuli/002213_2014-06-28_18-37-58_260595134347_rgbf000055-resize_1/002213_2014-06-28_18-37-58_260595134347_rgbf000055-resize_1-target.png,250,3.62,13.0,2428,245,feet,jsons/v1_VE250_randls_72_rotated.json,449785,575463,38,Man
122,702027,DepthScenes,duration_manipulation_targetAtFixation,jsons/v1_VE250_randls_72_rotated.json,http://54.235.29.9/FacialAge/BNav_EC2/DepthDuration/v2_depth_duration_MTurk/v2_DepthDuration_HTML.html#371,371,1229,654,1536,960,9-18-2022,12-51-34,123,depth_duration_stimuli/003587_2014-05-23_16-48-02_094959634447_rgbf002384-resize_2/003587_2014-05-23_16-48-02_094959634447_rgbf002384-resize_2-target.png,250,1.357,1.23,3183,253,feet,jsons/v1_VE250_randls_72_rotated.json,449785,575463,38,Man
123,702027,DepthScenes,duration_manipulation_targetAtFixation,jsons/v1_VE250_randls_72_rotated.json,http://54.235.29.9/FacialAge/BNav_EC2/DepthDuration/v2_depth_duration_MTurk/v2_DepthDuration_HTML.html#371,371,1229,654,1536,960,9-18-2022,12-51-34,124,depth_duration_stimuli/001167_2014-06-17_15-38-07_260595134347_rgbf000108-resize_0/001167_2014-06-17_15-38-07_260595134347_rgbf000108-resize_0-target.png,250,1.8505,1.5,3159,245,feet,jsons/v1_VE250_randls_72_rotated.json,449785,575463,38,Man
124,702027,DepthScenes,duration_manipulation_targetAtFixation,jsons/v1_VE250_randls_72_rotated.json,http://54.235.29.9/FacialAge/BNav_EC2/DepthDuration/v2_depth_duration_MTurk/v2_DepthDuration_HTML.html#371,371,1229,654,1536,960,9-18-2022,12-51-34,125,depth_duration_stimuli/000734_2014-06-08_17-39-11_260595134347_rgbf000128-resize_2/000734_2014-06-08_17-39-11_260595134347_rgbf000128-resize_2-target.png,250,4.098,5.8,2845,245,feet,jsons/v1_VE250_randls_72_rotated.json,449785,575463,38,Man
125,702027,DepthScenes,duration_manipulation_targetAtFixation,jsons/v1_VE250_randls_72_rotated.json,http://54.235.29.9/FacialAge/BNav_EC2/DepthDuration/v2_depth_duration_MTurk/v2_DepthDuration_HTML.html#371,371,1229,654,1536,960,9-18-2022,12-51-34,126,depth_duration_stimuli/000739_2014-06-08_18-45-58_260595134347_rgbf000068-resize_1/000739_2014-06-08_18-45-58_260595134347_rgbf000068-resize_1-target.png,250,3.534,6.0,1787,244,feet,jsons/v1_VE250_randls_72_rotated.json,449785,575463,38,Man
126,702027,DepthScenes,duration_manipulation_targetAtFixation,jsons/v1_VE250_randls_72_rotated.json,http://54.235.29.9/FacialAge/BNav_EC2/DepthDuration/v2_depth_duration_MTurk/v2_DepthDuration_HTML.html#371,371,1229,654,1536,960,9-18-2022,12-51-34,127,depth_duration_stimuli/002545_2014-06-24_13-38-53_094959634447_rgbf000080-resize_4/002545_2014-06-24_13-38-53_094959634447_rgbf000080-resize_4-target.png,250,1.9205,5.0,1446,245,feet,jsons/v1_VE250_randls_72_rotated.json,449785,575463,38,Man
127,702027,DepthScenes,duration_manipulation_targetAtFixation,jsons/v1_VE250_randls_72_rotated.json,http://54.235.29.9/FacialAge/BNav_EC2/DepthDuration/v2_depth_duration_MTurk/v2_DepthDuration_HTML.html#371,371,1229,654,1536,960,9-18-2022,12-51-34,128,depth_duration_stimuli/001092_2014-06-15_17-34-58_260595134347_rgbf000171-resize_3/001092_2014-06-15_17-34-58_260595134347_rgbf000171-resize_3-target.png,250,2.6935,4.0,1478,260,feet,jsons/v1_VE250_randls_72_rotated.json,449785,575463,38,Man
128,702027,DepthScenes,duration_manipulation_targetAtFixation,jsons/v1_VE250_randls_72_rotated.json,http://54.235.29.9/FacialAge/BNav_EC2/DepthDuration/v2_depth_duration_MTurk/v2_DepthDuration_HTML.html#371,371,1229,654,1536,960,9-18-2022,12-51-34,129,depth_duration_stimuli/003083_2014-06-15_15-21-03_094959634447_rgbf000063-resize_1/003083_2014-06-15_15-21-03_094959634447_rgbf000063-resize_1-target.png,250,4.1405,12.0,2100,249,feet,jsons/v1_VE250_randls_72_rotated.json,449785,575463,38,Man
129,702027,DepthScenes,duration_manipulation_targetAtFixation,jsons/v1_VE250_randls_72_rotated.json,http://54.235.29.9/FacialAge/BNav_EC2/DepthDuration/v2_depth_duration_MTurk/v2_DepthDuration_HTML.html#371,371,1229,654,1536,960,9-18-2022,12-51-34,130,depth_duration_stimuli/000486_2014-06-09_20-47-20_260595134347_rgbf000143-resize_2/000486_2014-06-09_20-47-20_260595134347_rgbf000143-resize_2-target.png,250,4.8325,13.0,2847,246,feet,jsons/v1_VE250_randls_72_rotated.json,449785,575463,38,Man
130,702027,DepthScenes,duration_manipulation_targetAtFixation,jsons/v1_VE250_randls_72_rotated.json,http://54.235.29.9/FacialAge/BNav_EC2/DepthDuration/v2_depth_duration_MTurk/v2_DepthDuration_HTML.html#371,371,1229,654,1536,960,9-18-2022,12-51-34,131,depth_duration_stimuli/001815_2014-06-26_20-52-55_260595134347_rgbf000020-resize_0/001815_2014-06-26_20-52-55_260595134347_rgbf000020-resize_0-target.png,250,3.3865,11.0,1532,248,feet,jsons/v1_VE250_randls_72_rotated.json,449785,575463,38,Man
131,702027,DepthScenes,duration_manipulation_targetAtFixation,jsons/v1_VE250_randls_72_rotated.json,http://54.235.29.9/FacialAge/BNav_EC2/DepthDuration/v2_depth_duration_MTurk/v2_DepthDuration_HTML.html#371,371,1229,654,1536,960,9-18-2022,12-51-34,132,depth_duration_stimuli/001808_2014-06-26_20-50-58_260595134347_rgbf000029-resize_1/001808_2014-06-26_20-50-58_260595134347_rgbf000029-resize_1-target.png,250,4.249,10.0,2101,250,feet,jsons/v1_VE250_randls_72_rotated.json,449785,575463,38,Man
132,702027,DepthScenes,duration_manipulation_targetAtFixation,jsons/v1_VE250_randls_72_rotated.json,http://54.235.29.9/FacialAge/BNav_EC2/DepthDuration/v2_depth_duration_MTurk/v2_DepthDuration_HTML.html#371,371,1229,654,1536,960,9-18-2022,12-51-34,133,depth_duration_stimuli/001136_2014-06-17_15-19-41_260595134347_rgbf000076-resize_3/001136_2014-06-17_15-19-41_260595134347_rgbf000076-resize_3-target.png,250,1.8655,5.0,1931,260,feet,jsons/v1_VE250_randls_72_rotated.json,449785,575463,38,Man
133,702027,DepthScenes,duration_manipulation_targetAtFixation,jsons/v1_VE250_randls_72_rotated.json,http://54.235.29.9/FacialAge/BNav_EC2/DepthDuration/v2_depth_duration_MTurk/v2_DepthDuration_HTML.html#371,371,1229,654,1536,960,9-18-2022,12-51-34,134,depth_duration_stimuli/001164_2014-06-17_15-35-46_260595134347_rgbf000085-resize_3/001164_2014-06-17_15-35-46_260595134347_rgbf000085-resize_3-target.png,250,2.354,3.0,2057,260,feet,jsons/v1_VE250_randls_72_rotated.json,449785,575463,38,Man
134,702027,DepthScenes,duration_manipulation_targetAtFixation,jsons/v1_VE250_randls_72_rotated.json,http://54.235.29.9/FacialAge/BNav_EC2/DepthDuration/v2_depth_duration_MTurk/v2_DepthDuration_HTML.html#371,371,1229,654,1536,960,9-18-2022,12-51-34,135,depth_duration_stimuli/000375_2014-06-08_11-17-29_260595134347_rgbf000133-resize_2/000375_2014-06-08_11-17-29_260595134347_rgbf000133-resize-original.jpg,250,4.718,0.0,1830,242,feet,jsons/v1_VE250_randls_72_rotated.json,449785,575463,38,Man
135,702027,DepthScenes,duration_manipulation_targetAtFixation,jsons/v1_VE250_randls_72_rotated.json,http://54.235.29.9/FacialAge/BNav_EC2/DepthDuration/v2_depth_duration_MTurk/v2_DepthDuration_HTML.html#371,371,1229,654,1536,960,9-18-2022,12-51-34,136,depth_duration_stimuli/003129_2014-05-12_10-48-10_094959634447_rgbf000100-resize_0/003129_2014-05-12_10-48-10_094959634447_rgbf000100-resize_0-target.png,250,4.9305,11.0,2508,246,feet,jsons/v1_VE250_randls_72_rotated.json,449785,575463,38,Man
136,702027,DepthScenes,duration_manipulation_targetAtFixation,jsons/v1_VE250_randls_72_rotated.json,http://54.235.29.9/FacialAge/BNav_EC2/DepthDuration/v2_depth_duration_MTurk/v2_DepthDuration_HTML.html#371,371,1229,654,1536,960,9-18-2022,12-51-34,137,depth_duration_stimuli/000414_2014-06-04_19-49-13_260595134347_rgbf000044-resize_0/000414_2014-06-04_19-49-13_260595134347_rgbf000044-resize_0-target.png,250,4.329,14.0,1763,244,feet,jsons/v1_VE250_randls_72_rotated.json,449785,575463,38,Man
137,702027,DepthScenes,duration_manipulation_targetAtFixation,jsons/v1_VE250_randls_72_rotated.json,http://54.235.29.9/FacialAge/BNav_EC2/DepthDuration/v2_depth_duration_MTurk/v2_DepthDuration_HTML.html#371,371,1229,654,1536,960,9-18-2022,12-51-34,138,depth_duration_stimuli/001617_2014-06-20_11-35-32_260595134347_rgbf000066-resize_1/001617_2014-06-20_11-35-32_260595134347_rgbf000066-resize_1-target.png,250,3.7910000000000004,11.0,3833,246,feet,jsons/v1_VE250_randls_72_rotated.json,449785,575463,38,Man
138,702027,DepthScenes,duration_manipulation_targetAtFixation,jsons/v1_VE250_randls_72_rotated.json,http://54.235.29.9/FacialAge/BNav_EC2/DepthDuration/v2_depth_duration_MTurk/v2_DepthDuration_HTML.html#371,371,1229,654,1536,960,9-18-2022,12-51-34,139,depth_duration_stimuli/001806_2014-06-26_20-50-20_260595134347_rgbf000091-resize_1/001806_2014-06-26_20-50-20_260595134347_rgbf000091-resize_1-target.png,250,2.7305,4.0,1398,249,feet,jsons/v1_VE250_randls_72_rotated.json,449785,575463,38,Man
139,702027,DepthScenes,duration_manipulation_targetAtFixation,jsons/v1_VE250_randls_72_rotated.json,http://54.235.29.9/FacialAge/BNav_EC2/DepthDuration/v2_depth_duration_MTurk/v2_DepthDuration_HTML.html#371,371,1229,654,1536,960,9-18-2022,12-51-34,140,depth_duration_stimuli/002949_2014-06-26_15-57-42_094959634447_rgbf000079-resize_1/002949_2014-06-26_15-57-42_094959634447_rgbf000079-resize_1-target.png,250,1.8915,5.0,1370,245,feet,jsons/v1_VE250_randls_72_rotated.json,449785,575463,38,Man
140,702027,DepthScenes,duration_manipulation_targetAtFixation,jsons/v1_VE250_randls_72_rotated.json,http://54.235.29.9/FacialAge/BNav_EC2/DepthDuration/v2_depth_duration_MTurk/v2_DepthDuration_HTML.html#371,371,1229,654,1536,960,9-18-2022,12-51-34,141,depth_duration_stimuli/000522_2014-06-08_13-35-06_260595134347_rgbf000244-resize_1/000522_2014-06-08_13-35-06_260595134347_rgbf000244-resize_1-target.png,250,2.3715,2.0,1784,251,feet,jsons/v1_VE250_randls_72_rotated.json,449785,575463,38,Man
141,702027,DepthScenes,duration_manipulation_targetAtFixation,jsons/v1_VE250_randls_72_rotated.json,http://54.235.29.9/FacialAge/BNav_EC2/DepthDuration/v2_depth_duration_MTurk/v2_DepthDuration_HTML.html#371,371,1229,654,1536,960,9-18-2022,12-51-34,142,depth_duration_stimuli/000409_2014-06-04_19-23-33_260595134347_rgbf000067-resize_0/000409_2014-06-04_19-23-33_260595134347_rgbf000067-resize_0-target.png,250,3.7335,7.0,2233,260,feet,jsons/v1_VE250_randls_72_rotated.json,449785,575463,38,Man
142,702027,DepthScenes,duration_manipulation_targetAtFixation,jsons/v1_VE250_randls_72_rotated.json,http://54.235.29.9/FacialAge/BNav_EC2/DepthDuration/v2_depth_duration_MTurk/v2_DepthDuration_HTML.html#371,371,1229,654,1536,960,9-18-2022,12-51-34,143,depth_duration_stimuli/002663_2014-06-13_15-50-26_094959634447_rgbf000075-resize_1/002663_2014-06-13_15-50-26_094959634447_rgbf000075-resize_1-target.png,250,4.7495,8.0,1853,245,feet,jsons/v1_VE250_randls_72_rotated.json,449785,575463,38,Man
143,702027,DepthScenes,duration_manipulation_targetAtFixation,jsons/v1_VE250_randls_72_rotated.json,http://54.235.29.9/FacialAge/BNav_EC2/DepthDuration/v2_depth_duration_MTurk/v2_DepthDuration_HTML.html#371,371,1229,654,1536,960,9-18-2022,12-51-34,144,depth_duration_stimuli/000927_2014-06-09_16-32-30_260595134347_rgbf000123-resize_3/000927_2014-06-09_16-32-30_260595134347_rgbf000123-resize_3-target.png,250,2.6785,7.0,1422,244,feet,jsons/v1_VE250_randls_72_rotated.json,449785,575463,38,Man
144,702027,DepthScenes,duration_manipulation_targetAtFixation,jsons/v1_VE250_randls_72_rotated.json,http://54.235.29.9/FacialAge/BNav_EC2/DepthDuration/v2_depth_duration_MTurk/v2_DepthDuration_HTML.html#371,371,1229,654,1536,960,9-18-2022,12-51-34,145,depth_duration_stimuli/001110_2014-06-15_17-25-28_260595134347_rgbf000150-resize_1/001110_2014-06-15_17-25-28_260595134347_rgbf000150-resize_1-target.png,250,1.7115,5.0,1427,244,feet,jsons/v1_VE250_randls_72_rotated.json,449785,575463,38,Man
145,702027,DepthScenes,duration_manipulation_targetAtFixation,jsons/v1_VE250_randls_72_rotated.json,http://54.235.29.9/FacialAge/BNav_EC2/DepthDuration/v2_depth_duration_MTurk/v2_DepthDuration_HTML.html#371,371,1229,654,1536,960,9-18-2022,12-51-34,146,depth_duration_stimuli/003490_2014-05-21_15-50-11_094959634447_rgbf000101-resize_3/003490_2014-05-21_15-50-11_094959634447_rgbf000101-resize_3-target.png,250,3.6445,6.0,1491,247,feet,jsons/v1_VE250_randls_72_rotated.json,449785,575463,38,Man
146,702027,DepthScenes,duration_manipulation_targetAtFixation,jsons/v1_VE250_randls_72_rotated.json,http://54.235.29.9/FacialAge/BNav_EC2/DepthDuration/v2_depth_duration_MTurk/v2_DepthDuration_HTML.html#371,371,1229,654,1536,960,9-18-2022,12-51-34,147,depth_duration_stimuli/001175_2014-06-17_15-45-55_260595134347_rgbf000129-resize_4/001175_2014-06-17_15-45-55_260595134347_rgbf000129-resize_4-target.png,250,4.255,9.0,1784,259,feet,jsons/v1_VE250_randls_72_rotated.json,449785,575463,38,Man
147,702027,DepthScenes,duration_manipulation_targetAtFixation,jsons/v1_VE250_randls_72_rotated.json,http://54.235.29.9/FacialAge/BNav_EC2/DepthDuration/v2_depth_duration_MTurk/v2_DepthDuration_HTML.html#371,371,1229,654,1536,960,9-18-2022,12-51-34,148,depth_duration_stimuli/001100_2014-06-15_17-46-26_260595134347_rgbf000225-resize_2/001100_2014-06-15_17-46-26_260595134347_rgbf000225-resize_2-target.png,250,2.24,2.0,1903,248,feet,jsons/v1_VE250_randls_72_rotated.json,449785,575463,38,Man
148,702027,DepthScenes,duration_manipulation_targetAtFixation,jsons/v1_VE250_randls_72_rotated.json,http://54.235.29.9/FacialAge/BNav_EC2/DepthDuration/v2_depth_duration_MTurk/v2_DepthDuration_HTML.html#371,371,1229,654,1536,960,9-18-2022,12-51-34,149,depth_duration_stimuli/002784_2014-06-22_19-26-30_094959634447_rgbf000083-resize_3/002784_2014-06-22_19-26-30_094959634447_rgbf000083-resize_3-target.png,250,1.8046666666667,2.0,2761,244,feet,jsons/v1_VE250_randls_72_rotated.json,449785,575463,38,Man
149,702027,DepthScenes,duration_manipulation_targetAtFixation,jsons/v1_VE250_randls_72_rotated.json,http://54.235.29.9/FacialAge/BNav_EC2/DepthDuration/v2_depth_duration_MTurk/v2_DepthDuration_HTML.html#371,371,1229,654,1536,960,9-18-2022,12-51-34,150,depth_duration_stimuli/002568_2014-06-24_13-59-21_094959634447_rgbf000062-resize_4/002568_2014-06-24_13-59-21_094959634447_rgbf000062-resize_4-target.png,250,3.015,4.0,1475,245,feet,jsons/v1_VE250_randls_72_rotated.json,449785,575463,38,Man
150,702027,DepthScenes,duration_manipulation_targetAtFixation,jsons/v1_VE250_randls_72_rotated.json,http://54.235.29.9/FacialAge/BNav_EC2/DepthDuration/v2_depth_duration_MTurk/v2_DepthDuration_HTML.html#371,371,1229,654,1536,960,9-18-2022,12-51-34,151,depth_duration_stimuli/003492_2014-05-21_15-50-55_094959634447_rgbf000828-resize_1/003492_2014-05-21_15-50-55_094959634447_rgbf000828-resize_1-target.png,250,4.06875,10.5,2463,264,feet,jsons/v1_VE250_randls_72_rotated.json,449785,575463,38,Man
151,702027,DepthScenes,duration_manipulation_targetAtFixation,jsons/v1_VE250_randls_72_rotated.json,http://54.235.29.9/FacialAge/BNav_EC2/DepthDuration/v2_depth_duration_MTurk/v2_DepthDuration_HTML.html#371,371,1229,654,1536,960,9-18-2022,12-51-34,152,depth_duration_stimuli/000569_2014-06-09_22-51-47_260595134347_rgbf000141-resize_3/000569_2014-06-09_22-51-47_260595134347_rgbf000141-resize-original.jpg,250,4.512,10.0,3037,247,feet,jsons/v1_VE250_randls_72_rotated.json,449785,575463,38,Man
152,702027,DepthScenes,duration_manipulation_targetAtFixation,jsons/v1_VE250_randls_72_rotated.json,http://54.235.29.9/FacialAge/BNav_EC2/DepthDuration/v2_depth_duration_MTurk/v2_DepthDuration_HTML.html#371,371,1229,654,1536,960,9-18-2022,12-51-34,153,depth_duration_stimuli/002340_2014-06-28_20-05-46_260595134347_rgbf000113-resize_0/002340_2014-06-28_20-05-46_260595134347_rgbf000113-resize_0-target.png,250,2.4735,10.0,2104,247,feet,jsons/v1_VE250_randls_72_rotated.json,449785,575463,38,Man
153,702027,DepthScenes,duration_manipulation_targetAtFixation,jsons/v1_VE250_randls_72_rotated.json,http://54.235.29.9/FacialAge/BNav_EC2/DepthDuration/v2_depth_duration_MTurk/v2_DepthDuration_HTML.html#371,371,1229,654,1536,960,9-18-2022,12-51-34,154,depth_duration_stimuli/001016_2014-06-09_16-16-10_260595134347_rgbf000112-resize_5/001016_2014-06-09_16-16-10_260595134347_rgbf000112-resize_5-target.png,250,1.6565,5.0,1799,244,feet,jsons/v1_VE250_randls_72_rotated.json,449785,575463,38,Man
154,702027,DepthScenes,duration_manipulation_targetAtFixation,jsons/v1_VE250_randls_72_rotated.json,http://54.235.29.9/FacialAge/BNav_EC2/DepthDuration/v2_depth_duration_MTurk/v2_DepthDuration_HTML.html#371,371,1229,654,1536,960,9-18-2022,12-51-34,155,depth_duration_stimuli/000665_2014-06-09_20-42-35_260595134347_rgbf000110-resize_1/000665_2014-06-09_20-42-35_260595134347_rgbf000110-resize_1-target.png,250,3.057,6.0,1363,259,feet,jsons/v1_VE250_randls_72_rotated.json,449785,575463,38,Man
155,702027,DepthScenes,duration_manipulation_targetAtFixation,jsons/v1_VE250_randls_72_rotated.json,http://54.235.29.9/FacialAge/BNav_EC2/DepthDuration/v2_depth_duration_MTurk/v2_DepthDuration_HTML.html#371,371,1229,654,1536,960,9-18-2022,12-51-34,156,depth_duration_stimuli/001150_2014-06-17_15-27-34_260595134347_rgbf000108-resize_2/001150_2014-06-17_15-27-34_260595134347_rgbf000108-resize_2-target.png,250,4.0325,7.0,1606,246,feet,jsons/v1_VE250_randls_72_rotated.json,449785,575463,38,Man
156,702027,DepthScenes,duration_manipulation_targetAtFixation,jsons/v1_VE250_randls_72_rotated.json,http://54.235.29.9/FacialAge/BNav_EC2/DepthDuration/v2_depth_duration_MTurk/v2_DepthDuration_HTML.html#371,371,1229,654,1536,960,9-18-2022,12-51-34,157,depth_duration_stimuli/000109_2014-05-14_23-41-52_260595134347_rgbf000035-resize_9/000109_2014-05-14_23-41-52_260595134347_rgbf000035-resize_9-target.png,250,1.3545,3.0,1368,241,feet,jsons/v1_VE250_randls_72_rotated.json,449785,575463,38,Man
157,702027,DepthScenes,duration_manipulation_targetAtFixation,jsons/v1_VE250_randls_72_rotated.json,http://54.235.29.9/FacialAge/BNav_EC2/DepthDuration/v2_depth_duration_MTurk/v2_DepthDuration_HTML.html#371,371,1229,654,1536,960,9-18-2022,12-51-34,158,depth_duration_stimuli/000470_2014-06-09_19-42-40_260595134347_rgbf000094-resize_1/000470_2014-06-09_19-42-40_260595134347_rgbf000094-resize_1-target.png,250,1.831,3.0,1692,245,feet,jsons/v1_VE250_randls_72_rotated.json,449785,575463,38,Man
158,702027,DepthScenes,duration_manipulation_targetAtFixation,jsons/v1_VE250_randls_72_rotated.json,http://54.235.29.9/FacialAge/BNav_EC2/DepthDuration/v2_depth_duration_MTurk/v2_DepthDuration_HTML.html#371,371,1229,654,1536,960,9-18-2022,12-51-34,159,depth_duration_stimuli/000457_2014-06-08_16-52-43_260595134347_rgbf000199-resize_1/000457_2014-06-08_16-52-43_260595134347_rgbf000199-resize_1-target.png,250,3.6489999999999996,5.0,1446,253,feet,jsons/v1_VE250_randls_72_rotated.json,449785,575463,38,Man
159,702027,DepthScenes,duration_manipulation_targetAtFixation,jsons/v1_VE250_randls_72_rotated.json,http://54.235.29.9/FacialAge/BNav_EC2/DepthDuration/v2_depth_duration_MTurk/v2_DepthDuration_HTML.html#371,371,1229,654,1536,960,9-18-2022,12-51-34,160,depth_duration_stimuli/000929_2014-06-09_16-33-19_260595134347_rgbf000139-resize_0/000929_2014-06-09_16-33-19_260595134347_rgbf000139-resize_0-target.png,250,2.8680000000000003,6.5,2558,258,feet,jsons/v1_VE250_randls_72_rotated.json,449785,575463,38,Man
160,702027,DepthScenes,duration_manipulation_targetAtFixation,jsons/v1_VE250_randls_72_rotated.json,http://54.235.29.9/FacialAge/BNav_EC2/DepthDuration/v2_depth_duration_MTurk/v2_DepthDuration_HTML.html#371,371,1229,654,1536,960,9-18-2022,12-51-34,161,depth_duration_stimuli/000502_2014-06-08_23-02-32_260595134347_rgbf000063-resize_4/000502_2014-06-08_23-02-32_260595134347_rgbf000063-resize_4-target.png,250,2.431,4.0,2519,259,feet,jsons/v1_VE250_randls_72_rotated.json,449785,575463,38,Man
161,702027,DepthScenes,duration_manipulation_targetAtFixation,jsons/v1_VE250_randls_72_rotated.json,http://54.235.29.9/FacialAge/BNav_EC2/DepthDuration/v2_depth_duration_MTurk/v2_DepthDuration_HTML.html#371,371,1229,654,1536,960,9-18-2022,12-51-34,162,depth_duration_stimuli/001199_2014-06-17_16-03-48_260595134347_rgbf000077-resize_0/001199_2014-06-17_16-03-48_260595134347_rgbf000077-resize_0-target.png,250,3.4375,5.0,1489,245,feet,jsons/v1_VE250_randls_72_rotated.json,449785,575463,38,Man
162,702027,DepthScenes,duration_manipulation_targetAtFixation,jsons/v1_VE250_randls_72_rotated.json,http://54.235.29.9/FacialAge/BNav_EC2/DepthDuration/v2_depth_duration_MTurk/v2_DepthDuration_HTML.html#371,371,1229,654,1536,960,9-18-2022,12-51-34,163,depth_duration_stimuli/001450_2014-06-19_17-02-03_260595134347_rgbf000203-resize_4/001450_2014-06-19_17-02-03_260595134347_rgbf000203-resize_4-target.png,250,4.0106666666667,6.0,1333,246,feet,jsons/v1_VE250_randls_72_rotated.json,449785,575463,38,Man
163,702027,DepthScenes,duration_manipulation_targetAtFixation,jsons/v1_VE250_randls_72_rotated.json,http://54.235.29.9/FacialAge/BNav_EC2/DepthDuration/v2_depth_duration_MTurk/v2_DepthDuration_HTML.html#371,371,1229,654,1536,960,9-18-2022,12-51-34,164,depth_duration_stimuli/001449_2014-06-19_17-01-27_260595134347_rgbf000116-resize_2/001449_2014-06-19_17-01-27_260595134347_rgbf000116-resize_2-target.png,250,3.452,5.0,1283,250,feet,jsons/v1_VE250_randls_72_rotated.json,449785,575463,38,Man
