,subjID,experimentName,versionName,sequenceName,url,selected_row,windowWidth,windowHeight,screenWidth,screenHeight,startDate,startTime,trial,stimulus,duration,actual_depth,depth_estimate,trial_RT,log_sceneDuration,unitSelection,seq_filepath,experimentTime,totalTime,age,gender
0,702396,DepthScenes,duration_manipulation_targetAtFixation,jsons/VE125_randls_53_rotated.json,http://54.235.29.9/FacialAge/BNav_EC2/DepthDuration/v2_depth_duration_MTurk/v2_DepthDuration_HTML.html#154,154,613,247,1366,768,9-4-2022,8-18-21,1,depth_duration_stimuli/000635_2014-06-08_16-38-42_260595134347_rgbf000106-resize_1/000635_2014-06-08_16-38-42_260595134347_rgbf000106-resize_1-target.png,125,2.074,1,11662,50,meters,jsons/VE125_randls_53_rotated.json,1868736,2665129,35,Woman
1,702396,DepthScenes,duration_manipulation_targetAtFixation,jsons/VE125_randls_53_rotated.json,http://54.235.29.9/FacialAge/BNav_EC2/DepthDuration/v2_depth_duration_MTurk/v2_DepthDuration_HTML.html#154,154,613,247,1366,768,9-4-2022,8-18-21,2,depth_duration_stimuli/002279_2014-06-28_18-55-32_260595134347_rgbf000040-resize_5/002279_2014-06-28_18-55-32_260595134347_rgbf000040-resize_5-target.png,125,1.5043333333333,1,9130,170,meters,jsons/VE125_randls_53_rotated.json,1868736,2665129,35,Woman
2,702396,DepthScenes,duration_manipulation_targetAtFixation,jsons/VE125_randls_53_rotated.json,http://54.235.29.9/FacialAge/BNav_EC2/DepthDuration/v2_depth_duration_MTurk/v2_DepthDuration_HTML.html#154,154,613,247,1366,768,9-4-2022,8-18-21,3,depth_duration_stimuli/000677_2014-06-08_23-10-32_260595134347_rgbf000158-resize_6/000677_2014-06-08_23-10-32_260595134347_rgbf000158-resize_6-target.png,125,3.556,1,10243,111,meters,jsons/VE125_randls_53_rotated.json,1868736,2665129,35,Woman
3,702396,DepthScenes,duration_manipulation_targetAtFixation,jsons/VE125_randls_53_rotated.json,http://54.235.29.9/FacialAge/BNav_EC2/DepthDuration/v2_depth_duration_MTurk/v2_DepthDuration_HTML.html#154,154,613,247,1366,768,9-4-2022,8-18-21,4,depth_duration_stimuli/001029_2014-06-08_13-17-57_260595134347_rgbf000065-resize_1/001029_2014-06-08_13-17-57_260595134347_rgbf000065-resize_1-target.png,125,3.0835,1,8435,124,meters,jsons/VE125_randls_53_rotated.json,1868736,2665129,35,Woman
4,702396,DepthScenes,duration_manipulation_targetAtFixation,jsons/VE125_randls_53_rotated.json,http://54.235.29.9/FacialAge/BNav_EC2/DepthDuration/v2_depth_duration_MTurk/v2_DepthDuration_HTML.html#154,154,613,247,1366,768,9-4-2022,8-18-21,5,depth_duration_stimuli/003081_2014-06-15_15-19-16_094959634447_rgbf000150-resize_1/003081_2014-06-15_15-19-16_094959634447_rgbf000150-resize_1-target.png,125,3.9125,1,8504,139,meters,jsons/VE125_randls_53_rotated.json,1868736,2665129,35,Woman
5,702396,DepthScenes,duration_manipulation_targetAtFixation,jsons/VE125_randls_53_rotated.json,http://54.235.29.9/FacialAge/BNav_EC2/DepthDuration/v2_depth_duration_MTurk/v2_DepthDuration_HTML.html#154,154,613,247,1366,768,9-4-2022,8-18-21,6,depth_duration_stimuli/001417_2014-06-19_16-25-36_260595134347_rgbf000115-resize_5/001417_2014-06-19_16-25-36_260595134347_rgbf000115-resize_5-target.png,125,4.6255,2,27231,145,meters,jsons/VE125_randls_53_rotated.json,1868736,2665129,35,Woman
6,702396,DepthScenes,duration_manipulation_targetAtFixation,jsons/VE125_randls_53_rotated.json,http://54.235.29.9/FacialAge/BNav_EC2/DepthDuration/v2_depth_duration_MTurk/v2_DepthDuration_HTML.html#154,154,613,247,1366,768,9-4-2022,8-18-21,7,depth_duration_stimuli/000549_2014-06-08_22-10-24_260595134347_rgbf000247-resize_3/000549_2014-06-08_22-10-24_260595134347_rgbf000247-resize_3-target.png,125,1.841,1,15746,116,meters,jsons/VE125_randls_53_rotated.json,1868736,2665129,35,Woman
7,702396,DepthScenes,duration_manipulation_targetAtFixation,jsons/VE125_randls_53_rotated.json,http://54.235.29.9/FacialAge/BNav_EC2/DepthDuration/v2_depth_duration_MTurk/v2_DepthDuration_HTML.html#154,154,613,247,1366,768,9-4-2022,8-18-21,8,depth_duration_stimuli/001055_2014-06-08_18-45-35_260595134347_rgbf000111-resize_4/001055_2014-06-08_18-45-35_260595134347_rgbf000111-resize_4-target.png,125,2.4290000000000003,1,25682,43,meters,jsons/VE125_randls_53_rotated.json,1868736,2665129,35,Woman
8,702396,DepthScenes,duration_manipulation_targetAtFixation,jsons/VE125_randls_53_rotated.json,http://54.235.29.9/FacialAge/BNav_EC2/DepthDuration/v2_depth_duration_MTurk/v2_DepthDuration_HTML.html#154,154,613,247,1366,768,9-4-2022,8-18-21,9,depth_duration_stimuli/001650_2014-06-20_12-09-00_260595134347_rgbf000087-resize_3/001650_2014-06-20_12-09-00_260595134347_rgbf000087-resize_3-target.png,125,1.9505,1,8653,105,meters,jsons/VE125_randls_53_rotated.json,1868736,2665129,35,Woman
9,702396,DepthScenes,duration_manipulation_targetAtFixation,jsons/VE125_randls_53_rotated.json,http://54.235.29.9/FacialAge/BNav_EC2/DepthDuration/v2_depth_duration_MTurk/v2_DepthDuration_HTML.html#154,154,613,247,1366,768,9-4-2022,8-18-21,10,depth_duration_stimuli/000682_2014-06-08_23-14-58_260595134347_rgbf000041-resize_5/000682_2014-06-08_23-14-58_260595134347_rgbf000041-resize_5-target.png,125,2.7239999999999998,1,9898,124,meters,jsons/VE125_randls_53_rotated.json,1868736,2665129,35,Woman
10,702396,DepthScenes,duration_manipulation_targetAtFixation,jsons/VE125_randls_53_rotated.json,http://54.235.29.9/FacialAge/BNav_EC2/DepthDuration/v2_depth_duration_MTurk/v2_DepthDuration_HTML.html#154,154,613,247,1366,768,9-4-2022,8-18-21,11,depth_duration_stimuli/003490_2014-05-21_15-50-11_094959634447_rgbf000101-resize_3/003490_2014-05-21_15-50-11_094959634447_rgbf000101-resize_3-target.png,125,3.6445,1,12843,112,meters,jsons/VE125_randls_53_rotated.json,1868736,2665129,35,Woman
11,702396,DepthScenes,duration_manipulation_targetAtFixation,jsons/VE125_randls_53_rotated.json,http://54.235.29.9/FacialAge/BNav_EC2/DepthDuration/v2_depth_duration_MTurk/v2_DepthDuration_HTML.html#154,154,613,247,1366,768,9-4-2022,8-18-21,12,depth_duration_stimuli/001175_2014-06-17_15-45-55_260595134347_rgbf000129-resize_4/001175_2014-06-17_15-45-55_260595134347_rgbf000129-resize_4-target.png,125,4.255,1,11574,151,meters,jsons/VE125_randls_53_rotated.json,1868736,2665129,35,Woman
12,702396,DepthScenes,duration_manipulation_targetAtFixation,jsons/VE125_randls_53_rotated.json,http://54.235.29.9/FacialAge/BNav_EC2/DepthDuration/v2_depth_duration_MTurk/v2_DepthDuration_HTML.html#154,154,613,247,1366,768,9-4-2022,8-18-21,13,depth_duration_stimuli/001828_2014-06-26_21-40-03_260595134347_rgbf000024-resize_0/001828_2014-06-26_21-40-03_260595134347_rgbf000024-resize_0-target.png,125,4.8260000000000005,1,9806,131,meters,jsons/VE125_randls_53_rotated.json,1868736,2665129,35,Woman
13,702396,DepthScenes,duration_manipulation_targetAtFixation,jsons/VE125_randls_53_rotated.json,http://54.235.29.9/FacialAge/BNav_EC2/DepthDuration/v2_depth_duration_MTurk/v2_DepthDuration_HTML.html#154,154,613,247,1366,768,9-4-2022,8-18-21,14,depth_duration_stimuli/000009_2014-05-26_14-32-05_260595134347_rgbf000034-resize_3/000009_2014-05-26_14-32-05_260595134347_rgbf000034-resize_3-target.png,125,3.8715,2,9400,120,meters,jsons/VE125_randls_53_rotated.json,1868736,2665129,35,Woman
14,702396,DepthScenes,duration_manipulation_targetAtFixation,jsons/VE125_randls_53_rotated.json,http://54.235.29.9/FacialAge/BNav_EC2/DepthDuration/v2_depth_duration_MTurk/v2_DepthDuration_HTML.html#154,154,613,247,1366,768,9-4-2022,8-18-21,15,depth_duration_stimuli/002949_2014-06-26_15-57-42_094959634447_rgbf000079-resize_1/002949_2014-06-26_15-57-42_094959634447_rgbf000079-resize_1-target.png,125,1.8915,1,9599,114,meters,jsons/VE125_randls_53_rotated.json,1868736,2665129,35,Woman
15,702396,DepthScenes,duration_manipulation_targetAtFixation,jsons/VE125_randls_53_rotated.json,http://54.235.29.9/FacialAge/BNav_EC2/DepthDuration/v2_depth_duration_MTurk/v2_DepthDuration_HTML.html#154,154,613,247,1366,768,9-4-2022,8-18-21,16,depth_duration_stimuli/000522_2014-06-08_13-35-06_260595134347_rgbf000244-resize_1/000522_2014-06-08_13-35-06_260595134347_rgbf000244-resize_1-target.png,125,2.3715,1,11863,127,meters,jsons/VE125_randls_53_rotated.json,1868736,2665129,35,Woman
16,702396,DepthScenes,duration_manipulation_targetAtFixation,jsons/VE125_randls_53_rotated.json,http://54.235.29.9/FacialAge/BNav_EC2/DepthDuration/v2_depth_duration_MTurk/v2_DepthDuration_HTML.html#154,154,613,247,1366,768,9-4-2022,8-18-21,17,depth_duration_stimuli/003129_2014-05-12_10-48-10_094959634447_rgbf000100-resize_0/003129_2014-05-12_10-48-10_094959634447_rgbf000100-resize_0-target.png,125,4.9305,2,10536,124,meters,jsons/VE125_randls_53_rotated.json,1868736,2665129,35,Woman
17,702396,DepthScenes,duration_manipulation_targetAtFixation,jsons/VE125_randls_53_rotated.json,http://54.235.29.9/FacialAge/BNav_EC2/DepthDuration/v2_depth_duration_MTurk/v2_DepthDuration_HTML.html#154,154,613,247,1366,768,9-4-2022,8-18-21,18,depth_duration_stimuli/000414_2014-06-04_19-49-13_260595134347_rgbf000044-resize_0/000414_2014-06-04_19-49-13_260595134347_rgbf000044-resize_0-target.png,125,4.329,1,9209,127,meters,jsons/VE125_randls_53_rotated.json,1868736,2665129,35,Woman
18,702396,DepthScenes,duration_manipulation_targetAtFixation,jsons/VE125_randls_53_rotated.json,http://54.235.29.9/FacialAge/BNav_EC2/DepthDuration/v2_depth_duration_MTurk/v2_DepthDuration_HTML.html#154,154,613,247,1366,768,9-4-2022,8-18-21,19,depth_duration_stimuli/001498_2014-06-19_17-45-14_260595134347_rgbf000129-resize_4/001498_2014-06-19_17-45-14_260595134347_rgbf000129-resize-original.jpg,125,1.4075,1,8365,121,meters,jsons/VE125_randls_53_rotated.json,1868736,2665129,35,Woman
19,702396,DepthScenes,duration_manipulation_targetAtFixation,jsons/VE125_randls_53_rotated.json,http://54.235.29.9/FacialAge/BNav_EC2/DepthDuration/v2_depth_duration_MTurk/v2_DepthDuration_HTML.html#154,154,613,247,1366,768,9-4-2022,8-18-21,20,depth_duration_stimuli/002199_2014-06-28_18-33-56_260595134347_rgbf000074-resize_0/002199_2014-06-28_18-33-56_260595134347_rgbf000074-resize_0-target.png,125,1.996,1,8614,170,meters,jsons/VE125_randls_53_rotated.json,1868736,2665129,35,Woman
20,702396,DepthScenes,duration_manipulation_targetAtFixation,jsons/VE125_randls_53_rotated.json,http://54.235.29.9/FacialAge/BNav_EC2/DepthDuration/v2_depth_duration_MTurk/v2_DepthDuration_HTML.html#154,154,613,247,1366,768,9-4-2022,8-18-21,21,depth_duration_stimuli/001056_2014-06-08_18-46-44_260595134347_rgbf000068-resize_0/001056_2014-06-08_18-46-44_260595134347_rgbf000068-resize_0-target.png,125,2.6625,1,23541,251,meters,jsons/VE125_randls_53_rotated.json,1868736,2665129,35,Woman
21,702396,DepthScenes,duration_manipulation_targetAtFixation,jsons/VE125_randls_53_rotated.json,http://54.235.29.9/FacialAge/BNav_EC2/DepthDuration/v2_depth_duration_MTurk/v2_DepthDuration_HTML.html#154,154,613,247,1366,768,9-4-2022,8-18-21,22,depth_duration_stimuli/000191_2014-05-12_17-07-38_260595134347_rgbf000199-resize_0/000191_2014-05-12_17-07-38_260595134347_rgbf000199-resize_0-target.png,125,3.7995,2,10428,140,meters,jsons/VE125_randls_53_rotated.json,1868736,2665129,35,Woman
22,702396,DepthScenes,duration_manipulation_targetAtFixation,jsons/VE125_randls_53_rotated.json,http://54.235.29.9/FacialAge/BNav_EC2/DepthDuration/v2_depth_duration_MTurk/v2_DepthDuration_HTML.html#154,154,613,247,1366,768,9-4-2022,8-18-21,23,depth_duration_stimuli/000493_2014-06-09_21-01-18_260595134347_rgbf000196-resize_3/000493_2014-06-09_21-01-18_260595134347_rgbf000196-resize_3-target.png,125,3.44,2,10896,120,meters,jsons/VE125_randls_53_rotated.json,1868736,2665129,35,Woman
23,702396,DepthScenes,duration_manipulation_targetAtFixation,jsons/VE125_randls_53_rotated.json,http://54.235.29.9/FacialAge/BNav_EC2/DepthDuration/v2_depth_duration_MTurk/v2_DepthDuration_HTML.html#154,154,613,247,1366,768,9-4-2022,8-18-21,24,depth_duration_stimuli/002323_2014-06-28_20-01-54_260595134347_rgbf000051-resize_4/002323_2014-06-28_20-01-54_260595134347_rgbf000051-resize_4-target.png,125,3.7310000000000003,2,10682,121,meters,jsons/VE125_randls_53_rotated.json,1868736,2665129,35,Woman
24,702396,DepthScenes,duration_manipulation_targetAtFixation,jsons/VE125_randls_53_rotated.json,http://54.235.29.9/FacialAge/BNav_EC2/DepthDuration/v2_depth_duration_MTurk/v2_DepthDuration_HTML.html#154,154,613,247,1366,768,9-4-2022,8-18-21,25,depth_duration_stimuli/000917_2014-06-09_22-45-29_260595134347_rgbf000149-resize_3/000917_2014-06-09_22-45-29_260595134347_rgbf000149-resize_3-target.png,125,4.1865,1,11924,204,meters,jsons/VE125_randls_53_rotated.json,1868736,2665129,35,Woman
25,702396,DepthScenes,duration_manipulation_targetAtFixation,jsons/VE125_randls_53_rotated.json,http://54.235.29.9/FacialAge/BNav_EC2/DepthDuration/v2_depth_duration_MTurk/v2_DepthDuration_HTML.html#154,154,613,247,1366,768,9-4-2022,8-18-21,26,depth_duration_stimuli/002425_2014-06-28_20-27-29_260595134347_rgbf000031-resize_8/002425_2014-06-28_20-27-29_260595134347_rgbf000031-resize_8-target.png,125,3.8960000000000004,1,11373,121,meters,jsons/VE125_randls_53_rotated.json,1868736,2665129,35,Woman
26,702396,DepthScenes,duration_manipulation_targetAtFixation,jsons/VE125_randls_53_rotated.json,http://54.235.29.9/FacialAge/BNav_EC2/DepthDuration/v2_depth_duration_MTurk/v2_DepthDuration_HTML.html#154,154,613,247,1366,768,9-4-2022,8-18-21,27,depth_duration_stimuli/000642_2014-06-08_16-59-25_260595134347_rgbf000098-resize_2/000642_2014-06-08_16-59-25_260595134347_rgbf000098-resize_2-target.png,125,2.8815,1,10022,123,meters,jsons/VE125_randls_53_rotated.json,1868736,2665129,35,Woman
27,702396,DepthScenes,duration_manipulation_targetAtFixation,jsons/VE125_randls_53_rotated.json,http://54.235.29.9/FacialAge/BNav_EC2/DepthDuration/v2_depth_duration_MTurk/v2_DepthDuration_HTML.html#154,154,613,247,1366,768,9-4-2022,8-18-21,28,depth_duration_stimuli/003587_2014-05-23_16-48-02_094959634447_rgbf002384-resize_2/003587_2014-05-23_16-48-02_094959634447_rgbf002384-resize_2-target.png,125,1.357,1,8950,102,meters,jsons/VE125_randls_53_rotated.json,1868736,2665129,35,Woman
28,702396,DepthScenes,duration_manipulation_targetAtFixation,jsons/VE125_randls_53_rotated.json,http://54.235.29.9/FacialAge/BNav_EC2/DepthDuration/v2_depth_duration_MTurk/v2_DepthDuration_HTML.html#154,154,613,247,1366,768,9-4-2022,8-18-21,29,depth_duration_stimuli/001167_2014-06-17_15-38-07_260595134347_rgbf000108-resize_0/001167_2014-06-17_15-38-07_260595134347_rgbf000108-resize_0-target.png,125,1.8505,2,9254,125,meters,jsons/VE125_randls_53_rotated.json,1868736,2665129,35,Woman
29,702396,DepthScenes,duration_manipulation_targetAtFixation,jsons/VE125_randls_53_rotated.json,http://54.235.29.9/FacialAge/BNav_EC2/DepthDuration/v2_depth_duration_MTurk/v2_DepthDuration_HTML.html#154,154,613,247,1366,768,9-4-2022,8-18-21,30,depth_duration_stimuli/002072_2014-06-24_21-48-06_260595134347_rgbf000115-resize_0/002072_2014-06-24_21-48-06_260595134347_rgbf000115-resize-original.jpg,125,4.702,2,9641,131,meters,jsons/VE125_randls_53_rotated.json,1868736,2665129,35,Woman
30,702396,DepthScenes,duration_manipulation_targetAtFixation,jsons/VE125_randls_53_rotated.json,http://54.235.29.9/FacialAge/BNav_EC2/DepthDuration/v2_depth_duration_MTurk/v2_DepthDuration_HTML.html#154,154,613,247,1366,768,9-4-2022,8-18-21,31,depth_duration_stimuli/002545_2014-06-24_13-38-53_094959634447_rgbf000080-resize_4/002545_2014-06-24_13-38-53_094959634447_rgbf000080-resize_4-target.png,125,1.9205,2,9434,51,meters,jsons/VE125_randls_53_rotated.json,1868736,2665129,35,Woman
31,702396,DepthScenes,duration_manipulation_targetAtFixation,jsons/VE125_randls_53_rotated.json,http://54.235.29.9/FacialAge/BNav_EC2/DepthDuration/v2_depth_duration_MTurk/v2_DepthDuration_HTML.html#154,154,613,247,1366,768,9-4-2022,8-18-21,32,depth_duration_stimuli/001092_2014-06-15_17-34-58_260595134347_rgbf000171-resize_3/001092_2014-06-15_17-34-58_260595134347_rgbf000171-resize_3-target.png,125,2.6935,2,10817,121,meters,jsons/VE125_randls_53_rotated.json,1868736,2665129,35,Woman
32,702396,DepthScenes,duration_manipulation_targetAtFixation,jsons/VE125_randls_53_rotated.json,http://54.235.29.9/FacialAge/BNav_EC2/DepthDuration/v2_depth_duration_MTurk/v2_DepthDuration_HTML.html#154,154,613,247,1366,768,9-4-2022,8-18-21,33,depth_duration_stimuli/001214_2014-06-17_16-13-55_260595134347_rgbf000111-resize_0/001214_2014-06-17_16-13-55_260595134347_rgbf000111-resize_0-target.png,125,2.6505,1,10508,113,meters,jsons/VE125_randls_53_rotated.json,1868736,2665129,35,Woman
33,702396,DepthScenes,duration_manipulation_targetAtFixation,jsons/VE125_randls_53_rotated.json,http://54.235.29.9/FacialAge/BNav_EC2/DepthDuration/v2_depth_duration_MTurk/v2_DepthDuration_HTML.html#154,154,613,247,1366,768,9-4-2022,8-18-21,34,depth_duration_stimuli/000810_2014-06-08_17-20-01_260595134347_rgbf000105-resize_0/000810_2014-06-08_17-20-01_260595134347_rgbf000105-resize_0-target.png,125,1.4865,1,9116,115,meters,jsons/VE125_randls_53_rotated.json,1868736,2665129,35,Woman
34,702396,DepthScenes,duration_manipulation_targetAtFixation,jsons/VE125_randls_53_rotated.json,http://54.235.29.9/FacialAge/BNav_EC2/DepthDuration/v2_depth_duration_MTurk/v2_DepthDuration_HTML.html#154,154,613,247,1366,768,9-4-2022,8-18-21,35,depth_duration_stimuli/001052_2014-06-08_18-24-54_260595134347_rgbf000130-resize_1/001052_2014-06-08_18-24-54_260595134347_rgbf000130-resize_1-target.png,125,4.1045,2,8648,117,meters,jsons/VE125_randls_53_rotated.json,1868736,2665129,35,Woman
35,702396,DepthScenes,duration_manipulation_targetAtFixation,jsons/VE125_randls_53_rotated.json,http://54.235.29.9/FacialAge/BNav_EC2/DepthDuration/v2_depth_duration_MTurk/v2_DepthDuration_HTML.html#154,154,613,247,1366,768,9-4-2022,8-18-21,36,depth_duration_stimuli/002988_2014-06-15_12-24-20_094959634447_rgbf000150-resize_1/002988_2014-06-15_12-24-20_094959634447_rgbf000150-resize_1-target.png,125,4.7669999999999995,2,10056,126,meters,jsons/VE125_randls_53_rotated.json,1868736,2665129,35,Woman
36,702396,DepthScenes,duration_manipulation_targetAtFixation,jsons/VE125_randls_53_rotated.json,http://54.235.29.9/FacialAge/BNav_EC2/DepthDuration/v2_depth_duration_MTurk/v2_DepthDuration_HTML.html#154,154,613,247,1366,768,9-4-2022,8-18-21,37,depth_duration_stimuli/002637_2014-06-24_14-51-13_094959634447_rgbf000066-resize_4/002637_2014-06-24_14-51-13_094959634447_rgbf000066-resize_4-target.png,125,1.9955,2,10116,122,meters,jsons/VE125_randls_53_rotated.json,1868736,2665129,35,Woman
37,702396,DepthScenes,duration_manipulation_targetAtFixation,jsons/VE125_randls_53_rotated.json,http://54.235.29.9/FacialAge/BNav_EC2/DepthDuration/v2_depth_duration_MTurk/v2_DepthDuration_HTML.html#154,154,613,247,1366,768,9-4-2022,8-18-21,38,depth_duration_stimuli/003534_2014-05-22_15-06-10_094959634447_rgbf000102-resize_4/003534_2014-05-22_15-06-10_094959634447_rgbf000102-resize_4-target.png,125,1.426,2,9117,129,meters,jsons/VE125_randls_53_rotated.json,1868736,2665129,35,Woman
38,702396,DepthScenes,duration_manipulation_targetAtFixation,jsons/VE125_randls_53_rotated.json,http://54.235.29.9/FacialAge/BNav_EC2/DepthDuration/v2_depth_duration_MTurk/v2_DepthDuration_HTML.html#154,154,613,247,1366,768,9-4-2022,8-18-21,39,depth_duration_stimuli/000665_2014-06-09_20-42-35_260595134347_rgbf000110-resize_1/000665_2014-06-09_20-42-35_260595134347_rgbf000110-resize_1-target.png,125,3.057,1,9074,134,meters,jsons/VE125_randls_53_rotated.json,1868736,2665129,35,Woman
39,702396,DepthScenes,duration_manipulation_targetAtFixation,jsons/VE125_randls_53_rotated.json,http://54.235.29.9/FacialAge/BNav_EC2/DepthDuration/v2_depth_duration_MTurk/v2_DepthDuration_HTML.html#154,154,613,247,1366,768,9-4-2022,8-18-21,40,depth_duration_stimuli/001150_2014-06-17_15-27-34_260595134347_rgbf000108-resize_2/001150_2014-06-17_15-27-34_260595134347_rgbf000108-resize_2-target.png,125,4.0325,1,8812,95,meters,jsons/VE125_randls_53_rotated.json,1868736,2665129,35,Woman
40,702396,DepthScenes,duration_manipulation_targetAtFixation,jsons/VE125_randls_53_rotated.json,http://54.235.29.9/FacialAge/BNav_EC2/DepthDuration/v2_depth_duration_MTurk/v2_DepthDuration_HTML.html#154,154,613,247,1366,768,9-4-2022,8-18-21,41,depth_duration_stimuli/001617_2014-06-20_11-35-32_260595134347_rgbf000066-resize_1/001617_2014-06-20_11-35-32_260595134347_rgbf000066-resize_1-target.png,125,3.7910000000000004,1,8633,117,meters,jsons/VE125_randls_53_rotated.json,1868736,2665129,35,Woman
41,702396,DepthScenes,duration_manipulation_targetAtFixation,jsons/VE125_randls_53_rotated.json,http://54.235.29.9/FacialAge/BNav_EC2/DepthDuration/v2_depth_duration_MTurk/v2_DepthDuration_HTML.html#154,154,613,247,1366,768,9-4-2022,8-18-21,42,depth_duration_stimuli/001806_2014-06-26_20-50-20_260595134347_rgbf000091-resize_1/001806_2014-06-26_20-50-20_260595134347_rgbf000091-resize_1-target.png,125,2.7305,1,10552,124,meters,jsons/VE125_randls_53_rotated.json,1868736,2665129,35,Woman
42,702396,DepthScenes,duration_manipulation_targetAtFixation,jsons/VE125_randls_53_rotated.json,http://54.235.29.9/FacialAge/BNav_EC2/DepthDuration/v2_depth_duration_MTurk/v2_DepthDuration_HTML.html#154,154,613,247,1366,768,9-4-2022,8-18-21,43,depth_duration_stimuli/003083_2014-06-15_15-21-03_094959634447_rgbf000063-resize_1/003083_2014-06-15_15-21-03_094959634447_rgbf000063-resize_1-target.png,125,4.1405,2,14126,127,meters,jsons/VE125_randls_53_rotated.json,1868736,2665129,35,Woman
43,702396,DepthScenes,duration_manipulation_targetAtFixation,jsons/VE125_randls_53_rotated.json,http://54.235.29.9/FacialAge/BNav_EC2/DepthDuration/v2_depth_duration_MTurk/v2_DepthDuration_HTML.html#154,154,613,247,1366,768,9-4-2022,8-18-21,44,depth_duration_stimuli/000486_2014-06-09_20-47-20_260595134347_rgbf000143-resize_2/000486_2014-06-09_20-47-20_260595134347_rgbf000143-resize_2-target.png,125,4.8325,2,8145,121,meters,jsons/VE125_randls_53_rotated.json,1868736,2665129,35,Woman
44,702396,DepthScenes,duration_manipulation_targetAtFixation,jsons/VE125_randls_53_rotated.json,http://54.235.29.9/FacialAge/BNav_EC2/DepthDuration/v2_depth_duration_MTurk/v2_DepthDuration_HTML.html#154,154,613,247,1366,768,9-4-2022,8-18-21,45,depth_duration_stimuli/001815_2014-06-26_20-52-55_260595134347_rgbf000020-resize_0/001815_2014-06-26_20-52-55_260595134347_rgbf000020-resize_0-target.png,125,3.3865,2,15504,129,meters,jsons/VE125_randls_53_rotated.json,1868736,2665129,35,Woman
45,702396,DepthScenes,duration_manipulation_targetAtFixation,jsons/VE125_randls_53_rotated.json,http://54.235.29.9/FacialAge/BNav_EC2/DepthDuration/v2_depth_duration_MTurk/v2_DepthDuration_HTML.html#154,154,613,247,1366,768,9-4-2022,8-18-21,46,depth_duration_stimuli/001808_2014-06-26_20-50-58_260595134347_rgbf000029-resize_1/001808_2014-06-26_20-50-58_260595134347_rgbf000029-resize_1-target.png,125,4.249,2,11182,121,meters,jsons/VE125_randls_53_rotated.json,1868736,2665129,35,Woman
46,702396,DepthScenes,duration_manipulation_targetAtFixation,jsons/VE125_randls_53_rotated.json,http://54.235.29.9/FacialAge/BNav_EC2/DepthDuration/v2_depth_duration_MTurk/v2_DepthDuration_HTML.html#154,154,613,247,1366,768,9-4-2022,8-18-21,47,depth_duration_stimuli/002758_2014-06-22_19-11-20_094959634447_rgbf000128-resize_1/002758_2014-06-22_19-11-20_094959634447_rgbf000128-resize_1-target.png,125,2.555,2,7970,108,meters,jsons/VE125_randls_53_rotated.json,1868736,2665129,35,Woman
47,702396,DepthScenes,duration_manipulation_targetAtFixation,jsons/VE125_randls_53_rotated.json,http://54.235.29.9/FacialAge/BNav_EC2/DepthDuration/v2_depth_duration_MTurk/v2_DepthDuration_HTML.html#154,154,613,247,1366,768,9-4-2022,8-18-21,48,depth_duration_stimuli/002630_2014-06-24_14-47-50_094959634447_rgbf000055-resize_1/002630_2014-06-24_14-47-50_094959634447_rgbf000055-resize_1-target.png,125,3.0095,2,13105,151,meters,jsons/VE125_randls_53_rotated.json,1868736,2665129,35,Woman
48,702396,DepthScenes,duration_manipulation_targetAtFixation,jsons/VE125_randls_53_rotated.json,http://54.235.29.9/FacialAge/BNav_EC2/DepthDuration/v2_depth_duration_MTurk/v2_DepthDuration_HTML.html#154,154,613,247,1366,768,9-4-2022,8-18-21,49,depth_duration_stimuli/001170_2014-06-17_15-43-44_260595134347_rgbf000096-resize_6/001170_2014-06-17_15-43-44_260595134347_rgbf000096-resize-original.jpg,125,1.1909999999999998,2,8586,33,meters,jsons/VE125_randls_53_rotated.json,1868736,2665129,35,Woman
49,702396,DepthScenes,duration_manipulation_targetAtFixation,jsons/VE125_randls_53_rotated.json,http://54.235.29.9/FacialAge/BNav_EC2/DepthDuration/v2_depth_duration_MTurk/v2_DepthDuration_HTML.html#154,154,613,247,1366,768,9-4-2022,8-18-21,50,depth_duration_stimuli/002444_2014-06-28_20-32-08_260595134347_rgbf000027-resize_0/002444_2014-06-28_20-32-08_260595134347_rgbf000027-resize_0-target.png,125,4.388999999999999,2,14910,122,meters,jsons/VE125_randls_53_rotated.json,1868736,2665129,35,Woman
50,702396,DepthScenes,duration_manipulation_targetAtFixation,jsons/VE125_randls_53_rotated.json,http://54.235.29.9/FacialAge/BNav_EC2/DepthDuration/v2_depth_duration_MTurk/v2_DepthDuration_HTML.html#154,154,613,247,1366,768,9-4-2022,8-18-21,51,depth_duration_stimuli/000436_2014-06-09_22-25-11_260595134347_rgbf000137-resize_1/000436_2014-06-09_22-25-11_260595134347_rgbf000137-resize_1-target.png,125,4.0705,2,10055,170,meters,jsons/VE125_randls_53_rotated.json,1868736,2665129,35,Woman
51,702396,DepthScenes,duration_manipulation_targetAtFixation,jsons/VE125_randls_53_rotated.json,http://54.235.29.9/FacialAge/BNav_EC2/DepthDuration/v2_depth_duration_MTurk/v2_DepthDuration_HTML.html#154,154,613,247,1366,768,9-4-2022,8-18-21,52,depth_duration_stimuli/002209_2014-06-28_18-36-10_260595134347_rgbf000051-resize_1/002209_2014-06-28_18-36-10_260595134347_rgbf000051-resize_1-target.png,125,2.057,2,9001,123,meters,jsons/VE125_randls_53_rotated.json,1868736,2665129,35,Woman
52,702396,DepthScenes,duration_manipulation_targetAtFixation,jsons/VE125_randls_53_rotated.json,http://54.235.29.9/FacialAge/BNav_EC2/DepthDuration/v2_depth_duration_MTurk/v2_DepthDuration_HTML.html#154,154,613,247,1366,768,9-4-2022,8-18-21,53,depth_duration_stimuli/002763_2014-06-22_19-13-10_094959634447_rgbf000075-resize_4/002763_2014-06-22_19-13-10_094959634447_rgbf000075-resize_4-target.png,125,1.68375,1,11184,258,meters,jsons/VE125_randls_53_rotated.json,1868736,2665129,35,Woman
53,702396,DepthScenes,duration_manipulation_targetAtFixation,jsons/VE125_randls_53_rotated.json,http://54.235.29.9/FacialAge/BNav_EC2/DepthDuration/v2_depth_duration_MTurk/v2_DepthDuration_HTML.html#154,154,613,247,1366,768,9-4-2022,8-18-21,54,depth_duration_stimuli/000103_2014-05-14_22-01-17_260595134347_rgbf000152-resize_5/000103_2014-05-14_22-01-17_260595134347_rgbf000152-resize_5-target.png,125,1.993,1,10525,118,meters,jsons/VE125_randls_53_rotated.json,1868736,2665129,35,Woman
54,702396,DepthScenes,duration_manipulation_targetAtFixation,jsons/VE125_randls_53_rotated.json,http://54.235.29.9/FacialAge/BNav_EC2/DepthDuration/v2_depth_duration_MTurk/v2_DepthDuration_HTML.html#154,154,613,247,1366,768,9-4-2022,8-18-21,55,depth_duration_stimuli/001555_2014-06-20_17-12-10_260595134347_rgbf000065-resize_4/001555_2014-06-20_17-12-10_260595134347_rgbf000065-resize_4-target.png,125,1.633,1,9790,122,meters,jsons/VE125_randls_53_rotated.json,1868736,2665129,35,Woman
55,702396,DepthScenes,duration_manipulation_targetAtFixation,jsons/VE125_randls_53_rotated.json,http://54.235.29.9/FacialAge/BNav_EC2/DepthDuration/v2_depth_duration_MTurk/v2_DepthDuration_HTML.html#154,154,613,247,1366,768,9-4-2022,8-18-21,56,depth_duration_stimuli/002678_2014-06-13_16-15-32_094959634447_rgbf000151-resize_6/002678_2014-06-13_16-15-32_094959634447_rgbf000151-resize_6-target.png,125,2.1830000000000003,2,28299,125,meters,jsons/VE125_randls_53_rotated.json,1868736,2665129,35,Woman
56,702396,DepthScenes,duration_manipulation_targetAtFixation,jsons/VE125_randls_53_rotated.json,http://54.235.29.9/FacialAge/BNav_EC2/DepthDuration/v2_depth_duration_MTurk/v2_DepthDuration_HTML.html#154,154,613,247,1366,768,9-4-2022,8-18-21,57,depth_duration_stimuli/000368_2014-06-09_15-53-01_260595134347_rgbf000155-resize_2/000368_2014-06-09_15-53-01_260595134347_rgbf000155-resize_2-target.png,125,2.4859999999999998,2,9065,122,meters,jsons/VE125_randls_53_rotated.json,1868736,2665129,35,Woman
57,702396,DepthScenes,duration_manipulation_targetAtFixation,jsons/VE125_randls_53_rotated.json,http://54.235.29.9/FacialAge/BNav_EC2/DepthDuration/v2_depth_duration_MTurk/v2_DepthDuration_HTML.html#154,154,613,247,1366,768,9-4-2022,8-18-21,58,depth_duration_stimuli/001447_2014-06-19_17-00-32_260595134347_rgbf000082-resize_5/001447_2014-06-19_17-00-32_260595134347_rgbf000082-resize_5-target.png,125,4.13775,1,9847,119,meters,jsons/VE125_randls_53_rotated.json,1868736,2665129,35,Woman
58,702396,DepthScenes,duration_manipulation_targetAtFixation,jsons/VE125_randls_53_rotated.json,http://54.235.29.9/FacialAge/BNav_EC2/DepthDuration/v2_depth_duration_MTurk/v2_DepthDuration_HTML.html#154,154,613,247,1366,768,9-4-2022,8-18-21,59,depth_duration_stimuli/000447_2014-06-08_16-15-46_260595134347_rgbf000130-resize_1/000447_2014-06-08_16-15-46_260595134347_rgbf000130-resize_1-target.png,125,4.479,1,11462,121,meters,jsons/VE125_randls_53_rotated.json,1868736,2665129,35,Woman
59,702396,DepthScenes,duration_manipulation_targetAtFixation,jsons/VE125_randls_53_rotated.json,http://54.235.29.9/FacialAge/BNav_EC2/DepthDuration/v2_depth_duration_MTurk/v2_DepthDuration_HTML.html#154,154,613,247,1366,768,9-4-2022,8-18-21,60,depth_duration_stimuli/003079_2014-06-15_15-18-20_094959634447_rgbf000152-resize_8/003079_2014-06-15_15-18-20_094959634447_rgbf000152-resize_8-target.png,125,2.8775,2,10806,124,meters,jsons/VE125_randls_53_rotated.json,1868736,2665129,35,Woman
60,702396,DepthScenes,duration_manipulation_targetAtFixation,jsons/VE125_randls_53_rotated.json,http://54.235.29.9/FacialAge/BNav_EC2/DepthDuration/v2_depth_duration_MTurk/v2_DepthDuration_HTML.html#154,154,613,247,1366,768,9-4-2022,8-18-21,61,depth_duration_stimuli/000506_2014-06-08_23-21-00_260595134347_rgbf000070-resize_7/000506_2014-06-08_23-21-00_260595134347_rgbf000070-resize_7-target.png,125,4.0585,1,9090,156,meters,jsons/VE125_randls_53_rotated.json,1868736,2665129,35,Woman
61,702396,DepthScenes,duration_manipulation_targetAtFixation,jsons/VE125_randls_53_rotated.json,http://54.235.29.9/FacialAge/BNav_EC2/DepthDuration/v2_depth_duration_MTurk/v2_DepthDuration_HTML.html#154,154,613,247,1366,768,9-4-2022,8-18-21,62,depth_duration_stimuli/002340_2014-06-28_20-05-46_260595134347_rgbf000113-resize_0/002340_2014-06-28_20-05-46_260595134347_rgbf000113-resize_0-target.png,125,2.4735,1,10585,128,meters,jsons/VE125_randls_53_rotated.json,1868736,2665129,35,Woman
62,702396,DepthScenes,duration_manipulation_targetAtFixation,jsons/VE125_randls_53_rotated.json,http://54.235.29.9/FacialAge/BNav_EC2/DepthDuration/v2_depth_duration_MTurk/v2_DepthDuration_HTML.html#154,154,613,247,1366,768,9-4-2022,8-18-21,63,depth_duration_stimuli/001016_2014-06-09_16-16-10_260595134347_rgbf000112-resize_5/001016_2014-06-09_16-16-10_260595134347_rgbf000112-resize_5-target.png,125,1.6565,1,11231,183,meters,jsons/VE125_randls_53_rotated.json,1868736,2665129,35,Woman
63,702396,DepthScenes,duration_manipulation_targetAtFixation,jsons/VE125_randls_53_rotated.json,http://54.235.29.9/FacialAge/BNav_EC2/DepthDuration/v2_depth_duration_MTurk/v2_DepthDuration_HTML.html#154,154,613,247,1366,768,9-4-2022,8-18-21,64,depth_duration_stimuli/000734_2014-06-08_17-39-11_260595134347_rgbf000128-resize_2/000734_2014-06-08_17-39-11_260595134347_rgbf000128-resize_2-target.png,125,4.098,1,9935,302,meters,jsons/VE125_randls_53_rotated.json,1868736,2665129,35,Woman
64,702396,DepthScenes,duration_manipulation_targetAtFixation,jsons/VE125_randls_53_rotated.json,http://54.235.29.9/FacialAge/BNav_EC2/DepthDuration/v2_depth_duration_MTurk/v2_DepthDuration_HTML.html#154,154,613,247,1366,768,9-4-2022,8-18-21,65,depth_duration_stimuli/000739_2014-06-08_18-45-58_260595134347_rgbf000068-resize_1/000739_2014-06-08_18-45-58_260595134347_rgbf000068-resize_1-target.png,125,3.534,2,10466,315,meters,jsons/VE125_randls_53_rotated.json,1868736,2665129,35,Woman
65,702396,DepthScenes,duration_manipulation_targetAtFixation,jsons/VE125_randls_53_rotated.json,http://54.235.29.9/FacialAge/BNav_EC2/DepthDuration/v2_depth_duration_MTurk/v2_DepthDuration_HTML.html#154,154,613,247,1366,768,9-4-2022,8-18-21,66,depth_duration_stimuli/001540_2014-06-20_17-01-05_260595134347_rgbf000086-resize_2/001540_2014-06-20_17-01-05_260595134347_rgbf000086-resize-original.jpg,125,1.459,2,10406,182,meters,jsons/VE125_randls_53_rotated.json,1868736,2665129,35,Woman
66,702396,DepthScenes,duration_manipulation_targetAtFixation,jsons/VE125_randls_53_rotated.json,http://54.235.29.9/FacialAge/BNav_EC2/DepthDuration/v2_depth_duration_MTurk/v2_DepthDuration_HTML.html#154,154,613,247,1366,768,9-4-2022,8-18-21,67,depth_duration_stimuli/000502_2014-06-08_23-02-32_260595134347_rgbf000063-resize_4/000502_2014-06-08_23-02-32_260595134347_rgbf000063-resize_4-target.png,125,2.431,1,10874,116,meters,jsons/VE125_randls_53_rotated.json,1868736,2665129,35,Woman
67,702396,DepthScenes,duration_manipulation_targetAtFixation,jsons/VE125_randls_53_rotated.json,http://54.235.29.9/FacialAge/BNav_EC2/DepthDuration/v2_depth_duration_MTurk/v2_DepthDuration_HTML.html#154,154,613,247,1366,768,9-4-2022,8-18-21,68,depth_duration_stimuli/001199_2014-06-17_16-03-48_260595134347_rgbf000077-resize_0/001199_2014-06-17_16-03-48_260595134347_rgbf000077-resize_0-target.png,125,3.4375,2,10418,77,meters,jsons/VE125_randls_53_rotated.json,1868736,2665129,35,Woman
68,702396,DepthScenes,duration_manipulation_targetAtFixation,jsons/VE125_randls_53_rotated.json,http://54.235.29.9/FacialAge/BNav_EC2/DepthDuration/v2_depth_duration_MTurk/v2_DepthDuration_HTML.html#154,154,613,247,1366,768,9-4-2022,8-18-21,69,depth_duration_stimuli/000749_2014-06-08_21-55-06_260595134347_rgbf000070-resize_2/000749_2014-06-08_21-55-06_260595134347_rgbf000070-resize_2-target.png,125,2.331,1,9893,64,meters,jsons/VE125_randls_53_rotated.json,1868736,2665129,35,Woman
69,702396,DepthScenes,duration_manipulation_targetAtFixation,jsons/VE125_randls_53_rotated.json,http://54.235.29.9/FacialAge/BNav_EC2/DepthDuration/v2_depth_duration_MTurk/v2_DepthDuration_HTML.html#154,154,613,247,1366,768,9-4-2022,8-18-21,70,depth_duration_stimuli/002788_2014-06-22_19-36-03_094959634447_rgbf000088-resize_2/002788_2014-06-22_19-36-03_094959634447_rgbf000088-resize_2-target.png,125,1.6465,2,8410,49,meters,jsons/VE125_randls_53_rotated.json,1868736,2665129,35,Woman
70,702396,DepthScenes,duration_manipulation_targetAtFixation,jsons/VE125_randls_53_rotated.json,http://54.235.29.9/FacialAge/BNav_EC2/DepthDuration/v2_depth_duration_MTurk/v2_DepthDuration_HTML.html#154,154,613,247,1366,768,9-4-2022,8-18-21,71,depth_duration_stimuli/002995_2014-06-15_12-31-26_094959634447_rgbf000150-resize_1/002995_2014-06-15_12-31-26_094959634447_rgbf000150-resize_1-target.png,125,3.8360000000000003,1,11198,120,meters,jsons/VE125_randls_53_rotated.json,1868736,2665129,35,Woman
71,702396,DepthScenes,duration_manipulation_targetAtFixation,jsons/VE125_randls_53_rotated.json,http://54.235.29.9/FacialAge/BNav_EC2/DepthDuration/v2_depth_duration_MTurk/v2_DepthDuration_HTML.html#154,154,613,247,1366,768,9-4-2022,8-18-21,72,depth_duration_stimuli/002748_2014-06-22_19-07-22_094959634447_rgbf000078-resize_1/002748_2014-06-22_19-07-22_094959634447_rgbf000078-resize_1-target.png,125,4.6705,2,40738,2,meters,jsons/VE125_randls_53_rotated.json,1868736,2665129,35,Woman
72,702396,DepthScenes,duration_manipulation_targetAtFixation,jsons/VE125_randls_53_rotated.json,http://54.235.29.9/FacialAge/BNav_EC2/DepthDuration/v2_depth_duration_MTurk/v2_DepthDuration_HTML.html#154,154,613,247,1366,768,9-4-2022,8-18-21,73,depth_duration_stimuli/000709_2014-06-08_13-51-55_260595134347_rgbf000068-resize_3/000709_2014-06-08_13-51-55_260595134347_rgbf000068-resize_3-target.png,125,1.8030000000000002,2,124683,171,meters,jsons/VE125_randls_53_rotated.json,1868736,2665129,35,Woman
73,702396,DepthScenes,duration_manipulation_targetAtFixation,jsons/VE125_randls_53_rotated.json,http://54.235.29.9/FacialAge/BNav_EC2/DepthDuration/v2_depth_duration_MTurk/v2_DepthDuration_HTML.html#154,154,613,247,1366,768,9-4-2022,8-18-21,74,depth_duration_stimuli/002057_2014-06-24_21-00-13_260595134347_rgbf000120-resize_1/002057_2014-06-24_21-00-13_260595134347_rgbf000120-resize_1-target.png,125,2.967,2,20580,98,meters,jsons/VE125_randls_53_rotated.json,1868736,2665129,35,Woman
74,702396,DepthScenes,duration_manipulation_targetAtFixation,jsons/VE125_randls_53_rotated.json,http://54.235.29.9/FacialAge/BNav_EC2/DepthDuration/v2_depth_duration_MTurk/v2_DepthDuration_HTML.html#154,154,613,247,1366,768,9-4-2022,8-18-21,75,depth_duration_stimuli/000742_2014-06-08_18-48-09_260595134347_rgbf000164-resize_4/000742_2014-06-08_18-48-09_260595134347_rgbf000164-resize_4-target.png,125,4.632,1,14298,129,meters,jsons/VE125_randls_53_rotated.json,1868736,2665129,35,Woman
75,702396,DepthScenes,duration_manipulation_targetAtFixation,jsons/VE125_randls_53_rotated.json,http://54.235.29.9/FacialAge/BNav_EC2/DepthDuration/v2_depth_duration_MTurk/v2_DepthDuration_HTML.html#154,154,613,247,1366,768,9-4-2022,8-18-21,76,depth_duration_stimuli/001066_2014-06-08_22-03-20_260595134347_rgbf000066-resize_4/001066_2014-06-08_22-03-20_260595134347_rgbf000066-resize_4-target.png,125,4.2330000000000005,2,34455,8,meters,jsons/VE125_randls_53_rotated.json,1868736,2665129,35,Woman
76,702396,DepthScenes,duration_manipulation_targetAtFixation,jsons/VE125_randls_53_rotated.json,http://54.235.29.9/FacialAge/BNav_EC2/DepthDuration/v2_depth_duration_MTurk/v2_DepthDuration_HTML.html#154,154,613,247,1366,768,9-4-2022,8-18-21,77,depth_duration_stimuli/001516_2014-06-20_16-25-09_260595134347_rgbf000076-resize_2/001516_2014-06-20_16-25-09_260595134347_rgbf000076-resize_2-target.png,125,1.7445,2,27253,354,meters,jsons/VE125_randls_53_rotated.json,1868736,2665129,35,Woman
77,702396,DepthScenes,duration_manipulation_targetAtFixation,jsons/VE125_randls_53_rotated.json,http://54.235.29.9/FacialAge/BNav_EC2/DepthDuration/v2_depth_duration_MTurk/v2_DepthDuration_HTML.html#154,154,613,247,1366,768,9-4-2022,8-18-21,78,depth_duration_stimuli/002118_2014-06-25_20-32-08_260595134347_rgbf000078-resize_1/002118_2014-06-25_20-32-08_260595134347_rgbf000078-resize_1-target.png,125,2.6460000000000004,2,20373,131,meters,jsons/VE125_randls_53_rotated.json,1868736,2665129,35,Woman
78,702396,DepthScenes,duration_manipulation_targetAtFixation,jsons/VE125_randls_53_rotated.json,http://54.235.29.9/FacialAge/BNav_EC2/DepthDuration/v2_depth_duration_MTurk/v2_DepthDuration_HTML.html#154,154,613,247,1366,768,9-4-2022,8-18-21,79,depth_duration_stimuli/002657_2014-06-13_15-29-54_094959634447_rgbf000150-resize_1/002657_2014-06-13_15-29-54_094959634447_rgbf000150-resize_1-target.png,125,4.919,2,18837,126,meters,jsons/VE125_randls_53_rotated.json,1868736,2665129,35,Woman
79,702396,DepthScenes,duration_manipulation_targetAtFixation,jsons/VE125_randls_53_rotated.json,http://54.235.29.9/FacialAge/BNav_EC2/DepthDuration/v2_depth_duration_MTurk/v2_DepthDuration_HTML.html#154,154,613,247,1366,768,9-4-2022,8-18-21,80,depth_duration_stimuli/002375_2014-06-28_20-13-44_260595134347_rgbf000032-resize_1/002375_2014-06-28_20-13-44_260595134347_rgbf000032-resize_1-target.png,125,4.0175,0,27753,151,meters,jsons/VE125_randls_53_rotated.json,1868736,2665129,35,Woman
80,702396,DepthScenes,duration_manipulation_targetAtFixation,jsons/VE125_randls_53_rotated.json,http://54.235.29.9/FacialAge/BNav_EC2/DepthDuration/v2_depth_duration_MTurk/v2_DepthDuration_HTML.html#154,154,613,247,1366,768,9-4-2022,8-18-21,81,depth_duration_stimuli/000109_2014-05-14_23-41-52_260595134347_rgbf000035-resize_9/000109_2014-05-14_23-41-52_260595134347_rgbf000035-resize_9-target.png,125,1.3545,0,48644,404,meters,jsons/VE125_randls_53_rotated.json,1868736,2665129,35,Woman
81,702396,DepthScenes,duration_manipulation_targetAtFixation,jsons/VE125_randls_53_rotated.json,http://54.235.29.9/FacialAge/BNav_EC2/DepthDuration/v2_depth_duration_MTurk/v2_DepthDuration_HTML.html#154,154,613,247,1366,768,9-4-2022,8-18-21,82,depth_duration_stimuli/000470_2014-06-09_19-42-40_260595134347_rgbf000094-resize_1/000470_2014-06-09_19-42-40_260595134347_rgbf000094-resize_1-target.png,125,1.831,0,4879,232,meters,jsons/VE125_randls_53_rotated.json,1868736,2665129,35,Woman
82,702396,DepthScenes,duration_manipulation_targetAtFixation,jsons/VE125_randls_53_rotated.json,http://54.235.29.9/FacialAge/BNav_EC2/DepthDuration/v2_depth_duration_MTurk/v2_DepthDuration_HTML.html#154,154,613,247,1366,768,9-4-2022,8-18-21,83,depth_duration_stimuli/001571_2014-06-20_17-21-32_260595134347_rgbf000089-resize_1/001571_2014-06-20_17-21-32_260595134347_rgbf000089-resize_1-target.png,125,1.86,0,6795,169,meters,jsons/VE125_randls_53_rotated.json,1868736,2665129,35,Woman
83,702396,DepthScenes,duration_manipulation_targetAtFixation,jsons/VE125_randls_53_rotated.json,http://54.235.29.9/FacialAge/BNav_EC2/DepthDuration/v2_depth_duration_MTurk/v2_DepthDuration_HTML.html#154,154,613,247,1366,768,9-4-2022,8-18-21,84,depth_duration_stimuli/002272_2014-06-28_18-53-56_260595134347_rgbf000067-resize_2/002272_2014-06-28_18-53-56_260595134347_rgbf000067-resize_2-target.png,125,1.138,0,15111,115,meters,jsons/VE125_randls_53_rotated.json,1868736,2665129,35,Woman
84,702396,DepthScenes,duration_manipulation_targetAtFixation,jsons/VE125_randls_53_rotated.json,http://54.235.29.9/FacialAge/BNav_EC2/DepthDuration/v2_depth_duration_MTurk/v2_DepthDuration_HTML.html#154,154,613,247,1366,768,9-4-2022,8-18-21,85,depth_duration_stimuli/000556_2014-06-09_22-42-56_260595134347_rgbf000214-resize_1/000556_2014-06-09_22-42-56_260595134347_rgbf000214-resize_1-target.png,125,4.8415,0,7468,123,meters,jsons/VE125_randls_53_rotated.json,1868736,2665129,35,Woman
85,702396,DepthScenes,duration_manipulation_targetAtFixation,jsons/VE125_randls_53_rotated.json,http://54.235.29.9/FacialAge/BNav_EC2/DepthDuration/v2_depth_duration_MTurk/v2_DepthDuration_HTML.html#154,154,613,247,1366,768,9-4-2022,8-18-21,86,depth_duration_stimuli/001158_2014-06-17_15-32-16_260595134347_rgbf000138-resize_2/001158_2014-06-17_15-32-16_260595134347_rgbf000138-resize_2-target.png,125,4.5315,0,6304,122,meters,jsons/VE125_randls_53_rotated.json,1868736,2665129,35,Woman
86,702396,DepthScenes,duration_manipulation_targetAtFixation,jsons/VE125_randls_53_rotated.json,http://54.235.29.9/FacialAge/BNav_EC2/DepthDuration/v2_depth_duration_MTurk/v2_DepthDuration_HTML.html#154,154,613,247,1366,768,9-4-2022,8-18-21,87,depth_duration_stimuli/001100_2014-06-15_17-46-26_260595134347_rgbf000225-resize_2/001100_2014-06-15_17-46-26_260595134347_rgbf000225-resize_2-target.png,125,2.24,0,21609,127,meters,jsons/VE125_randls_53_rotated.json,1868736,2665129,35,Woman
87,702396,DepthScenes,duration_manipulation_targetAtFixation,jsons/VE125_randls_53_rotated.json,http://54.235.29.9/FacialAge/BNav_EC2/DepthDuration/v2_depth_duration_MTurk/v2_DepthDuration_HTML.html#154,154,613,247,1366,768,9-4-2022,8-18-21,88,depth_duration_stimuli/002784_2014-06-22_19-26-30_094959634447_rgbf000083-resize_3/002784_2014-06-22_19-26-30_094959634447_rgbf000083-resize_3-target.png,125,1.8046666666667,0,11150,106,meters,jsons/VE125_randls_53_rotated.json,1868736,2665129,35,Woman
88,702396,DepthScenes,duration_manipulation_targetAtFixation,jsons/VE125_randls_53_rotated.json,http://54.235.29.9/FacialAge/BNav_EC2/DepthDuration/v2_depth_duration_MTurk/v2_DepthDuration_HTML.html#154,154,613,247,1366,768,9-4-2022,8-18-21,89,depth_duration_stimuli/000854_2014-06-09_19-43-13_260595134347_rgbf000066-resize_0/000854_2014-06-09_19-43-13_260595134347_rgbf000066-resize_0-target.png,125,3.068,0,7132,121,meters,jsons/VE125_randls_53_rotated.json,1868736,2665129,35,Woman
89,702396,DepthScenes,duration_manipulation_targetAtFixation,jsons/VE125_randls_53_rotated.json,http://54.235.29.9/FacialAge/BNav_EC2/DepthDuration/v2_depth_duration_MTurk/v2_DepthDuration_HTML.html#154,154,613,247,1366,768,9-4-2022,8-18-21,90,depth_duration_stimuli/000758_2014-06-08_22-05-08_260595134347_rgbf000085-resize_0/000758_2014-06-08_22-05-08_260595134347_rgbf000085-resize_0-target.png,125,3.3810000000000002,0,7082,187,meters,jsons/VE125_randls_53_rotated.json,1868736,2665129,35,Woman
90,702396,DepthScenes,duration_manipulation_targetAtFixation,jsons/VE125_randls_53_rotated.json,http://54.235.29.9/FacialAge/BNav_EC2/DepthDuration/v2_depth_duration_MTurk/v2_DepthDuration_HTML.html#154,154,613,247,1366,768,9-4-2022,8-18-21,91,depth_duration_stimuli/001584_2014-06-20_11-07-43_260595134347_rgbf000002-resize_1/001584_2014-06-20_11-07-43_260595134347_rgbf000002-resize_1-target.png,125,3.53,0,7334,161,meters,jsons/VE125_randls_53_rotated.json,1868736,2665129,35,Woman
91,702396,DepthScenes,duration_manipulation_targetAtFixation,jsons/VE125_randls_53_rotated.json,http://54.235.29.9/FacialAge/BNav_EC2/DepthDuration/v2_depth_duration_MTurk/v2_DepthDuration_HTML.html#154,154,613,247,1366,768,9-4-2022,8-18-21,92,depth_duration_stimuli/003621_2014-05-23_18-06-08_094959634447_rgbf000101-resize_1/003621_2014-05-23_18-06-08_094959634447_rgbf000101-resize_1-target.png,125,3.9835,0,48159,122,meters,jsons/VE125_randls_53_rotated.json,1868736,2665129,35,Woman
92,702396,DepthScenes,duration_manipulation_targetAtFixation,jsons/VE125_randls_53_rotated.json,http://54.235.29.9/FacialAge/BNav_EC2/DepthDuration/v2_depth_duration_MTurk/v2_DepthDuration_HTML.html#154,154,613,247,1366,768,9-4-2022,8-18-21,93,depth_duration_stimuli/002467_2014-06-28_20-38-07_260595134347_rgbf000026-resize_2/002467_2014-06-28_20-38-07_260595134347_rgbf000026-resize_2-target.png,125,4.742,0,6228,129,meters,jsons/VE125_randls_53_rotated.json,1868736,2665129,35,Woman
93,702396,DepthScenes,duration_manipulation_targetAtFixation,jsons/VE125_randls_53_rotated.json,http://54.235.29.9/FacialAge/BNav_EC2/DepthDuration/v2_depth_duration_MTurk/v2_DepthDuration_HTML.html#154,154,613,247,1366,768,9-4-2022,8-18-21,94,depth_duration_stimuli/002570_2014-06-24_13-59-54_094959634447_rgbf000059-resize_0/002570_2014-06-24_13-59-54_094959634447_rgbf000059-resize_0-target.png,125,4.037,0,3129,129,meters,jsons/VE125_randls_53_rotated.json,1868736,2665129,35,Woman
94,702396,DepthScenes,duration_manipulation_targetAtFixation,jsons/VE125_randls_53_rotated.json,http://54.235.29.9/FacialAge/BNav_EC2/DepthDuration/v2_depth_duration_MTurk/v2_DepthDuration_HTML.html#154,154,613,247,1366,768,9-4-2022,8-18-21,95,depth_duration_stimuli/001450_2014-06-19_17-02-03_260595134347_rgbf000203-resize_4/001450_2014-06-19_17-02-03_260595134347_rgbf000203-resize_4-target.png,125,4.0106666666667,0,8514,134,meters,jsons/VE125_randls_53_rotated.json,1868736,2665129,35,Woman
95,702396,DepthScenes,duration_manipulation_targetAtFixation,jsons/VE125_randls_53_rotated.json,http://54.235.29.9/FacialAge/BNav_EC2/DepthDuration/v2_depth_duration_MTurk/v2_DepthDuration_HTML.html#154,154,613,247,1366,768,9-4-2022,8-18-21,96,depth_duration_stimuli/001449_2014-06-19_17-01-27_260595134347_rgbf000116-resize_2/001449_2014-06-19_17-01-27_260595134347_rgbf000116-resize_2-target.png,125,3.452,0,6076,123,meters,jsons/VE125_randls_53_rotated.json,1868736,2665129,35,Woman
96,702396,DepthScenes,duration_manipulation_targetAtFixation,jsons/VE125_randls_53_rotated.json,http://54.235.29.9/FacialAge/BNav_EC2/DepthDuration/v2_depth_duration_MTurk/v2_DepthDuration_HTML.html#154,154,613,247,1366,768,9-4-2022,8-18-21,97,depth_duration_stimuli/002136_2014-06-25_21-18-03_260595134347_rgbf000109-resize_3/002136_2014-06-25_21-18-03_260595134347_rgbf000109-resize_3-target.png,125,1.9569999999999999,0,2776,120,meters,jsons/VE125_randls_53_rotated.json,1868736,2665129,35,Woman
97,702396,DepthScenes,duration_manipulation_targetAtFixation,jsons/VE125_randls_53_rotated.json,http://54.235.29.9/FacialAge/BNav_EC2/DepthDuration/v2_depth_duration_MTurk/v2_DepthDuration_HTML.html#154,154,613,247,1366,768,9-4-2022,8-18-21,98,depth_duration_stimuli/002964_2014-06-08_17-46-11_094959634447_rgbf000091-resize_4/002964_2014-06-08_17-46-11_094959634447_rgbf000091-resize_4-target.png,125,1.6909999999999998,0,3519,166,meters,jsons/VE125_randls_53_rotated.json,1868736,2665129,35,Woman
98,702396,DepthScenes,duration_manipulation_targetAtFixation,jsons/VE125_randls_53_rotated.json,http://54.235.29.9/FacialAge/BNav_EC2/DepthDuration/v2_depth_duration_MTurk/v2_DepthDuration_HTML.html#154,154,613,247,1366,768,9-4-2022,8-18-21,99,depth_duration_stimuli/001222_2014-06-17_16-24-06_260595134347_rgbf000073-resize_0/001222_2014-06-17_16-24-06_260595134347_rgbf000073-resize-original.jpg,125,1.4385,0,7197,143,meters,jsons/VE125_randls_53_rotated.json,1868736,2665129,35,Woman
99,702396,DepthScenes,duration_manipulation_targetAtFixation,jsons/VE125_randls_53_rotated.json,http://54.235.29.9/FacialAge/BNav_EC2/DepthDuration/v2_depth_duration_MTurk/v2_DepthDuration_HTML.html#154,154,613,247,1366,768,9-4-2022,8-18-21,100,depth_duration_stimuli/000780_2014-06-08_22-28-29_260595134347_rgbf000126-resize_1/000780_2014-06-08_22-28-29_260595134347_rgbf000126-resize_1-target.png,125,3.3825,0,2803,125,meters,jsons/VE125_randls_53_rotated.json,1868736,2665129,35,Woman
100,702396,DepthScenes,duration_manipulation_targetAtFixation,jsons/VE125_randls_53_rotated.json,http://54.235.29.9/FacialAge/BNav_EC2/DepthDuration/v2_depth_duration_MTurk/v2_DepthDuration_HTML.html#154,154,613,247,1366,768,9-4-2022,8-18-21,101,depth_duration_stimuli/002445_2014-06-28_20-32-16_260595134347_rgbf000029-resize_4/002445_2014-06-28_20-32-16_260595134347_rgbf000029-resize_4-target.png,125,2.5315,0,2924,128,meters,jsons/VE125_randls_53_rotated.json,1868736,2665129,35,Woman
101,702396,DepthScenes,duration_manipulation_targetAtFixation,jsons/VE125_randls_53_rotated.json,http://54.235.29.9/FacialAge/BNav_EC2/DepthDuration/v2_depth_duration_MTurk/v2_DepthDuration_HTML.html#154,154,613,247,1366,768,9-4-2022,8-18-21,102,depth_duration_stimuli/002344_2014-06-28_20-06-29_260595134347_rgbf000030-resize_1/002344_2014-06-28_20-06-29_260595134347_rgbf000030-resize_1-target.png,125,1.5795,0,3128,114,meters,jsons/VE125_randls_53_rotated.json,1868736,2665129,35,Woman
102,702396,DepthScenes,duration_manipulation_targetAtFixation,jsons/VE125_randls_53_rotated.json,http://54.235.29.9/FacialAge/BNav_EC2/DepthDuration/v2_depth_duration_MTurk/v2_DepthDuration_HTML.html#154,154,613,247,1366,768,9-4-2022,8-18-21,103,depth_duration_stimuli/002725_2014-06-22_11-47-51_094959634447_rgbf000070-resize_1/002725_2014-06-22_11-47-51_094959634447_rgbf000070-resize_1-target.png,125,2.195,0,2713,110,meters,jsons/VE125_randls_53_rotated.json,1868736,2665129,35,Woman
103,702396,DepthScenes,duration_manipulation_targetAtFixation,jsons/VE125_randls_53_rotated.json,http://54.235.29.9/FacialAge/BNav_EC2/DepthDuration/v2_depth_duration_MTurk/v2_DepthDuration_HTML.html#154,154,613,247,1366,768,9-4-2022,8-18-21,104,depth_duration_stimuli/002414_2014-06-28_20-24-58_260595134347_rgbf000067-resize_4/002414_2014-06-28_20-24-58_260595134347_rgbf000067-resize_4-target.png,125,4.363,0,6777,132,meters,jsons/VE125_randls_53_rotated.json,1868736,2665129,35,Woman
104,702396,DepthScenes,duration_manipulation_targetAtFixation,jsons/VE125_randls_53_rotated.json,http://54.235.29.9/FacialAge/BNav_EC2/DepthDuration/v2_depth_duration_MTurk/v2_DepthDuration_HTML.html#154,154,613,247,1366,768,9-4-2022,8-18-21,105,depth_duration_stimuli/000773_2014-06-08_22-24-54_260595134347_rgbf000093-resize_1/000773_2014-06-08_22-24-54_260595134347_rgbf000093-resize_1-target.png,125,4.973,0,18673,127,meters,jsons/VE125_randls_53_rotated.json,1868736,2665129,35,Woman
105,702396,DepthScenes,duration_manipulation_targetAtFixation,jsons/VE125_randls_53_rotated.json,http://54.235.29.9/FacialAge/BNav_EC2/DepthDuration/v2_depth_duration_MTurk/v2_DepthDuration_HTML.html#154,154,613,247,1366,768,9-4-2022,8-18-21,106,depth_duration_stimuli/002805_2014-06-22_19-54-03_094959634447_rgbf000079-resize_1/002805_2014-06-22_19-54-03_094959634447_rgbf000079-resize_1-target.png,125,3.1439999999999997,0,61765,125,meters,jsons/VE125_randls_53_rotated.json,1868736,2665129,35,Woman
106,702396,DepthScenes,duration_manipulation_targetAtFixation,jsons/VE125_randls_53_rotated.json,http://54.235.29.9/FacialAge/BNav_EC2/DepthDuration/v2_depth_duration_MTurk/v2_DepthDuration_HTML.html#154,154,613,247,1366,768,9-4-2022,8-18-21,107,depth_duration_stimuli/000906_2014-06-08_13-35-43_260595134347_rgbf000155-resize_1/000906_2014-06-08_13-35-43_260595134347_rgbf000155-resize_1-target.png,125,2.8489999999999998,0,1895,122,meters,jsons/VE125_randls_53_rotated.json,1868736,2665129,35,Woman
107,702396,DepthScenes,duration_manipulation_targetAtFixation,jsons/VE125_randls_53_rotated.json,http://54.235.29.9/FacialAge/BNav_EC2/DepthDuration/v2_depth_duration_MTurk/v2_DepthDuration_HTML.html#154,154,613,247,1366,768,9-4-2022,8-18-21,108,depth_duration_stimuli/000409_2014-06-04_19-23-33_260595134347_rgbf000067-resize_0/000409_2014-06-04_19-23-33_260595134347_rgbf000067-resize_0-target.png,125,3.7335,0,1788,132,meters,jsons/VE125_randls_53_rotated.json,1868736,2665129,35,Woman
108,702396,DepthScenes,duration_manipulation_targetAtFixation,jsons/VE125_randls_53_rotated.json,http://54.235.29.9/FacialAge/BNav_EC2/DepthDuration/v2_depth_duration_MTurk/v2_DepthDuration_HTML.html#154,154,613,247,1366,768,9-4-2022,8-18-21,109,depth_duration_stimuli/002663_2014-06-13_15-50-26_094959634447_rgbf000075-resize_1/002663_2014-06-13_15-50-26_094959634447_rgbf000075-resize_1-target.png,125,4.7495,0,1671,123,meters,jsons/VE125_randls_53_rotated.json,1868736,2665129,35,Woman
109,702396,DepthScenes,duration_manipulation_targetAtFixation,jsons/VE125_randls_53_rotated.json,http://54.235.29.9/FacialAge/BNav_EC2/DepthDuration/v2_depth_duration_MTurk/v2_DepthDuration_HTML.html#154,154,613,247,1366,768,9-4-2022,8-18-21,110,depth_duration_stimuli/003423_2014-05-21_10-23-26_094959634447_rgbf002665-resize_2/003423_2014-05-21_10-23-26_094959634447_rgbf002665-resize_2-target.png,125,3.2575,0,1828,121,meters,jsons/VE125_randls_53_rotated.json,1868736,2665129,35,Woman
110,702396,DepthScenes,duration_manipulation_targetAtFixation,jsons/VE125_randls_53_rotated.json,http://54.235.29.9/FacialAge/BNav_EC2/DepthDuration/v2_depth_duration_MTurk/v2_DepthDuration_HTML.html#154,154,613,247,1366,768,9-4-2022,8-18-21,111,depth_duration_stimuli/002905_2014-06-03_18-04-43_094959634447_rgbf000151-resize_2/002905_2014-06-03_18-04-43_094959634447_rgbf000151-resize_2-target.png,125,2.0295,0,1632,126,meters,jsons/VE125_randls_53_rotated.json,1868736,2665129,35,Woman
111,702396,DepthScenes,duration_manipulation_targetAtFixation,jsons/VE125_randls_53_rotated.json,http://54.235.29.9/FacialAge/BNav_EC2/DepthDuration/v2_depth_duration_MTurk/v2_DepthDuration_HTML.html#154,154,613,247,1366,768,9-4-2022,8-18-21,112,depth_duration_stimuli/002639_2014-06-24_14-51-37_094959634447_rgbf000074-resize_4/002639_2014-06-24_14-51-37_094959634447_rgbf000074-resize_4-target.png,125,4.0375,0,1661,123,meters,jsons/VE125_randls_53_rotated.json,1868736,2665129,35,Woman
112,702396,DepthScenes,duration_manipulation_targetAtFixation,jsons/VE125_randls_53_rotated.json,http://54.235.29.9/FacialAge/BNav_EC2/DepthDuration/v2_depth_duration_MTurk/v2_DepthDuration_HTML.html#154,154,613,247,1366,768,9-4-2022,8-18-21,113,depth_duration_stimuli/003292_2014-05-14_21-53-49_094959634447_rgbf000100-resize_2/003292_2014-05-14_21-53-49_094959634447_rgbf000100-resize_2-target.png,125,3.4815,0,1739,122,meters,jsons/VE125_randls_53_rotated.json,1868736,2665129,35,Woman
113,702396,DepthScenes,duration_manipulation_targetAtFixation,jsons/VE125_randls_53_rotated.json,http://54.235.29.9/FacialAge/BNav_EC2/DepthDuration/v2_depth_duration_MTurk/v2_DepthDuration_HTML.html#154,154,613,247,1366,768,9-4-2022,8-18-21,114,depth_duration_stimuli/000943_2014-06-09_19-31-07_260595134347_rgbf000128-resize_1/000943_2014-06-09_19-31-07_260595134347_rgbf000128-resize_1-target.png,125,1.9765,0,2159,132,meters,jsons/VE125_randls_53_rotated.json,1868736,2665129,35,Woman
114,702396,DepthScenes,duration_manipulation_targetAtFixation,jsons/VE125_randls_53_rotated.json,http://54.235.29.9/FacialAge/BNav_EC2/DepthDuration/v2_depth_duration_MTurk/v2_DepthDuration_HTML.html#154,154,613,247,1366,768,9-4-2022,8-18-21,115,depth_duration_stimuli/003070_2014-06-15_14-58-27_094959634447_rgbf000150-resize_3/003070_2014-06-15_14-58-27_094959634447_rgbf000150-resize_3-target.png,125,2.9415,0,2200,128,meters,jsons/VE125_randls_53_rotated.json,1868736,2665129,35,Woman
115,702396,DepthScenes,duration_manipulation_targetAtFixation,jsons/VE125_randls_53_rotated.json,http://54.235.29.9/FacialAge/BNav_EC2/DepthDuration/v2_depth_duration_MTurk/v2_DepthDuration_HTML.html#154,154,613,247,1366,768,9-4-2022,8-18-21,116,depth_duration_stimuli/002750_2014-06-22_19-08-03_094959634447_rgbf000094-resize_4/002750_2014-06-22_19-08-03_094959634447_rgbf000094-resize_4-target.png,125,2.354,0,1822,122,meters,jsons/VE125_randls_53_rotated.json,1868736,2665129,35,Woman
116,702396,DepthScenes,duration_manipulation_targetAtFixation,jsons/VE125_randls_53_rotated.json,http://54.235.29.9/FacialAge/BNav_EC2/DepthDuration/v2_depth_duration_MTurk/v2_DepthDuration_HTML.html#154,154,613,247,1366,768,9-4-2022,8-18-21,117,depth_duration_stimuli/002549_2014-06-24_13-41-39_094959634447_rgbf000022-resize_3/002549_2014-06-24_13-41-39_094959634447_rgbf000022-resize_3-target.png,125,1.476,0,39268,130,meters,jsons/VE125_randls_53_rotated.json,1868736,2665129,35,Woman
117,702396,DepthScenes,duration_manipulation_targetAtFixation,jsons/VE125_randls_53_rotated.json,http://54.235.29.9/FacialAge/BNav_EC2/DepthDuration/v2_depth_duration_MTurk/v2_DepthDuration_HTML.html#154,154,613,247,1366,768,9-4-2022,8-18-21,118,depth_duration_stimuli/003010_2014-06-15_12-54-35_094959634447_rgbf000112-resize_0/003010_2014-06-15_12-54-35_094959634447_rgbf000112-resize_0-target.png,125,3.1185,0,1455,133,meters,jsons/VE125_randls_53_rotated.json,1868736,2665129,35,Woman
118,702396,DepthScenes,duration_manipulation_targetAtFixation,jsons/VE125_randls_53_rotated.json,http://54.235.29.9/FacialAge/BNav_EC2/DepthDuration/v2_depth_duration_MTurk/v2_DepthDuration_HTML.html#154,154,613,247,1366,768,9-4-2022,8-18-21,119,depth_duration_stimuli/001810_2014-06-26_20-51-35_260595134347_rgbf000040-resize_3/001810_2014-06-26_20-51-35_260595134347_rgbf000040-resize_3-target.png,125,2.2525,0,1676,124,meters,jsons/VE125_randls_53_rotated.json,1868736,2665129,35,Woman
119,702396,DepthScenes,duration_manipulation_targetAtFixation,jsons/VE125_randls_53_rotated.json,http://54.235.29.9/FacialAge/BNav_EC2/DepthDuration/v2_depth_duration_MTurk/v2_DepthDuration_HTML.html#154,154,613,247,1366,768,9-4-2022,8-18-21,120,depth_duration_stimuli/000787_2014-06-08_22-33-53_260595134347_rgbf000175-resize_1/000787_2014-06-08_22-33-53_260595134347_rgbf000175-resize-original.jpg,125,4.784,0,1562,126,meters,jsons/VE125_randls_53_rotated.json,1868736,2665129,35,Woman
120,702396,DepthScenes,duration_manipulation_targetAtFixation,jsons/VE125_randls_53_rotated.json,http://54.235.29.9/FacialAge/BNav_EC2/DepthDuration/v2_depth_duration_MTurk/v2_DepthDuration_HTML.html#154,154,613,247,1366,768,9-4-2022,8-18-21,121,depth_duration_stimuli/001392_2014-06-19_16-07-59_260595134347_rgbf000046-resize_1/001392_2014-06-19_16-07-59_260595134347_rgbf000046-resize_1-target.png,125,4.135,0,1606,123,meters,jsons/VE125_randls_53_rotated.json,1868736,2665129,35,Woman
121,702396,DepthScenes,duration_manipulation_targetAtFixation,jsons/VE125_randls_53_rotated.json,http://54.235.29.9/FacialAge/BNav_EC2/DepthDuration/v2_depth_duration_MTurk/v2_DepthDuration_HTML.html#154,154,613,247,1366,768,9-4-2022,8-18-21,122,depth_duration_stimuli/001570_2014-06-20_17-21-09_260595134347_rgbf000135-resize_4/001570_2014-06-20_17-21-09_260595134347_rgbf000135-resize_4-target.png,125,4.467,0,1497,123,meters,jsons/VE125_randls_53_rotated.json,1868736,2665129,35,Woman
122,702396,DepthScenes,duration_manipulation_targetAtFixation,jsons/VE125_randls_53_rotated.json,http://54.235.29.9/FacialAge/BNav_EC2/DepthDuration/v2_depth_duration_MTurk/v2_DepthDuration_HTML.html#154,154,613,247,1366,768,9-4-2022,8-18-21,123,depth_duration_stimuli/000483_2014-06-09_20-41-45_260595134347_rgbf000116-resize_4/000483_2014-06-09_20-41-45_260595134347_rgbf000116-resize_4-target.png,125,1.337,0,1326,128,meters,jsons/VE125_randls_53_rotated.json,1868736,2665129,35,Woman
123,702396,DepthScenes,duration_manipulation_targetAtFixation,jsons/VE125_randls_53_rotated.json,http://54.235.29.9/FacialAge/BNav_EC2/DepthDuration/v2_depth_duration_MTurk/v2_DepthDuration_HTML.html#154,154,613,247,1366,768,9-4-2022,8-18-21,124,depth_duration_stimuli/000469_2014-06-09_19-42-10_260595134347_rgbf000081-resize_1/000469_2014-06-09_19-42-10_260595134347_rgbf000081-resize_1-target.png,125,1.652,0,1201,123,meters,jsons/VE125_randls_53_rotated.json,1868736,2665129,35,Woman
124,702396,DepthScenes,duration_manipulation_targetAtFixation,jsons/VE125_randls_53_rotated.json,http://54.235.29.9/FacialAge/BNav_EC2/DepthDuration/v2_depth_duration_MTurk/v2_DepthDuration_HTML.html#154,154,613,247,1366,768,9-4-2022,8-18-21,125,depth_duration_stimuli/000137_2014-05-20_17-04-49_260595134347_rgbf000120-resize_1/000137_2014-05-20_17-04-49_260595134347_rgbf000120-resize_1-target.png,125,3.786,0,1423,123,meters,jsons/VE125_randls_53_rotated.json,1868736,2665129,35,Woman
125,702396,DepthScenes,duration_manipulation_targetAtFixation,jsons/VE125_randls_53_rotated.json,http://54.235.29.9/FacialAge/BNav_EC2/DepthDuration/v2_depth_duration_MTurk/v2_DepthDuration_HTML.html#154,154,613,247,1366,768,9-4-2022,8-18-21,126,depth_duration_stimuli/000736_2014-06-08_18-24-15_260595134347_rgbf000206-resize_3/000736_2014-06-08_18-24-15_260595134347_rgbf000206-resize_3-target.png,125,3.515,0,1568,125,meters,jsons/VE125_randls_53_rotated.json,1868736,2665129,35,Woman
126,702396,DepthScenes,duration_manipulation_targetAtFixation,jsons/VE125_randls_53_rotated.json,http://54.235.29.9/FacialAge/BNav_EC2/DepthDuration/v2_depth_duration_MTurk/v2_DepthDuration_HTML.html#154,154,613,247,1366,768,9-4-2022,8-18-21,127,depth_duration_stimuli/002568_2014-06-24_13-59-21_094959634447_rgbf000062-resize_4/002568_2014-06-24_13-59-21_094959634447_rgbf000062-resize_4-target.png,125,3.015,0,2656,125,meters,jsons/VE125_randls_53_rotated.json,1868736,2665129,35,Woman
127,702396,DepthScenes,duration_manipulation_targetAtFixation,jsons/VE125_randls_53_rotated.json,http://54.235.29.9/FacialAge/BNav_EC2/DepthDuration/v2_depth_duration_MTurk/v2_DepthDuration_HTML.html#154,154,613,247,1366,768,9-4-2022,8-18-21,128,depth_duration_stimuli/003492_2014-05-21_15-50-55_094959634447_rgbf000828-resize_1/003492_2014-05-21_15-50-55_094959634447_rgbf000828-resize_1-target.png,125,4.06875,0,1598,125,meters,jsons/VE125_randls_53_rotated.json,1868736,2665129,35,Woman
128,702396,DepthScenes,duration_manipulation_targetAtFixation,jsons/VE125_randls_53_rotated.json,http://54.235.29.9/FacialAge/BNav_EC2/DepthDuration/v2_depth_duration_MTurk/v2_DepthDuration_HTML.html#154,154,613,247,1366,768,9-4-2022,8-18-21,129,depth_duration_stimuli/001235_2014-06-17_16-37-36_260595134347_rgbf000084-resize_4/001235_2014-06-17_16-37-36_260595134347_rgbf000084-resize_4-target.png,125,3.6605,0,48146,141,meters,jsons/VE125_randls_53_rotated.json,1868736,2665129,35,Woman
129,702396,DepthScenes,duration_manipulation_targetAtFixation,jsons/VE125_randls_53_rotated.json,http://54.235.29.9/FacialAge/BNav_EC2/DepthDuration/v2_depth_duration_MTurk/v2_DepthDuration_HTML.html#154,154,613,247,1366,768,9-4-2022,8-18-21,130,depth_duration_stimuli/000788_2014-06-08_22-34-36_260595134347_rgbf000131-resize_1/000788_2014-06-08_22-34-36_260595134347_rgbf000131-resize_1-target.png,125,3.359,0,1836,130,meters,jsons/VE125_randls_53_rotated.json,1868736,2665129,35,Woman
130,702396,DepthScenes,duration_manipulation_targetAtFixation,jsons/VE125_randls_53_rotated.json,http://54.235.29.9/FacialAge/BNav_EC2/DepthDuration/v2_depth_duration_MTurk/v2_DepthDuration_HTML.html#154,154,613,247,1366,768,9-4-2022,8-18-21,131,depth_duration_stimuli/000866_2014-06-09_20-45-42_260595134347_rgbf000139-resize_1/000866_2014-06-09_20-45-42_260595134347_rgbf000139-resize_1-target.png,125,3.2155,0,1766,121,meters,jsons/VE125_randls_53_rotated.json,1868736,2665129,35,Woman
131,702396,DepthScenes,duration_manipulation_targetAtFixation,jsons/VE125_randls_53_rotated.json,http://54.235.29.9/FacialAge/BNav_EC2/DepthDuration/v2_depth_duration_MTurk/v2_DepthDuration_HTML.html#154,154,613,247,1366,768,9-4-2022,8-18-21,132,depth_duration_stimuli/002989_2014-06-15_12-25-03_094959634447_rgbf000150-resize_3/002989_2014-06-15_12-25-03_094959634447_rgbf000150-resize_3-target.png,125,4.1975,0,1767,122,meters,jsons/VE125_randls_53_rotated.json,1868736,2665129,35,Woman
132,702396,DepthScenes,duration_manipulation_targetAtFixation,jsons/VE125_randls_53_rotated.json,http://54.235.29.9/FacialAge/BNav_EC2/DepthDuration/v2_depth_duration_MTurk/v2_DepthDuration_HTML.html#154,154,613,247,1366,768,9-4-2022,8-18-21,133,depth_duration_stimuli/002660_2014-06-13_15-44-18_094959634447_rgbf001878-resize_2/002660_2014-06-13_15-44-18_094959634447_rgbf001878-resize_2-target.png,125,3.576,0,1534,124,meters,jsons/VE125_randls_53_rotated.json,1868736,2665129,35,Woman
133,702396,DepthScenes,duration_manipulation_targetAtFixation,jsons/VE125_randls_53_rotated.json,http://54.235.29.9/FacialAge/BNav_EC2/DepthDuration/v2_depth_duration_MTurk/v2_DepthDuration_HTML.html#154,154,613,247,1366,768,9-4-2022,8-18-21,134,depth_duration_stimuli/002153_2014-06-25_21-27-18_260595134347_rgbf000038-resize_5/002153_2014-06-25_21-27-18_260595134347_rgbf000038-resize_5-target.png,125,2.505,0,1629,124,meters,jsons/VE125_randls_53_rotated.json,1868736,2665129,35,Woman
134,702396,DepthScenes,duration_manipulation_targetAtFixation,jsons/VE125_randls_53_rotated.json,http://54.235.29.9/FacialAge/BNav_EC2/DepthDuration/v2_depth_duration_MTurk/v2_DepthDuration_HTML.html#154,154,613,247,1366,768,9-4-2022,8-18-21,135,depth_duration_stimuli/000375_2014-06-08_11-17-29_260595134347_rgbf000133-resize_2/000375_2014-06-08_11-17-29_260595134347_rgbf000133-resize-original.jpg,125,4.718,0,1585,122,meters,jsons/VE125_randls_53_rotated.json,1868736,2665129,35,Woman
135,702396,DepthScenes,duration_manipulation_targetAtFixation,jsons/VE125_randls_53_rotated.json,http://54.235.29.9/FacialAge/BNav_EC2/DepthDuration/v2_depth_duration_MTurk/v2_DepthDuration_HTML.html#154,154,613,247,1366,768,9-4-2022,8-18-21,136,depth_duration_stimuli/003338_2014-05-20_11-01-23_094959634447_rgbf000051-resize_6/003338_2014-05-20_11-01-23_094959634447_rgbf000051-resize_6-target.png,125,1.693,0,1622,118,meters,jsons/VE125_randls_53_rotated.json,1868736,2665129,35,Woman
136,702396,DepthScenes,duration_manipulation_targetAtFixation,jsons/VE125_randls_53_rotated.json,http://54.235.29.9/FacialAge/BNav_EC2/DepthDuration/v2_depth_duration_MTurk/v2_DepthDuration_HTML.html#154,154,613,247,1366,768,9-4-2022,8-18-21,137,depth_duration_stimuli/002509_2014-06-24_13-19-22_094959634447_rgbf000077-resize_0/002509_2014-06-24_13-19-22_094959634447_rgbf000077-resize_0-target.png,125,1.3065,0,1589,123,meters,jsons/VE125_randls_53_rotated.json,1868736,2665129,35,Woman
137,702396,DepthScenes,duration_manipulation_targetAtFixation,jsons/VE125_randls_53_rotated.json,http://54.235.29.9/FacialAge/BNav_EC2/DepthDuration/v2_depth_duration_MTurk/v2_DepthDuration_HTML.html#154,154,613,247,1366,768,9-4-2022,8-18-21,138,depth_duration_stimuli/003228_2014-05-14_13-42-35_094959634447_rgbf000101-resize_1/003228_2014-05-14_13-42-35_094959634447_rgbf000101-resize_1-target.png,125,1.9680000000000002,0,1655,122,meters,jsons/VE125_randls_53_rotated.json,1868736,2665129,35,Woman
138,702396,DepthScenes,duration_manipulation_targetAtFixation,jsons/VE125_randls_53_rotated.json,http://54.235.29.9/FacialAge/BNav_EC2/DepthDuration/v2_depth_duration_MTurk/v2_DepthDuration_HTML.html#154,154,613,247,1366,768,9-4-2022,8-18-21,139,depth_duration_stimuli/002600_2014-06-24_14-27-04_094959634447_rgbf000074-resize_2/002600_2014-06-24_14-27-04_094959634447_rgbf000074-resize_2-target.png,125,2.7575,0,1569,125,meters,jsons/VE125_randls_53_rotated.json,1868736,2665129,35,Woman
139,702396,DepthScenes,duration_manipulation_targetAtFixation,jsons/VE125_randls_53_rotated.json,http://54.235.29.9/FacialAge/BNav_EC2/DepthDuration/v2_depth_duration_MTurk/v2_DepthDuration_HTML.html#154,154,613,247,1366,768,9-4-2022,8-18-21,140,depth_duration_stimuli/001032_2014-06-08_13-23-17_260595134347_rgbf000021-resize_3/001032_2014-06-08_13-23-17_260595134347_rgbf000021-resize_3-target.png,125,3.2725,0,78168,130,meters,jsons/VE125_randls_53_rotated.json,1868736,2665129,35,Woman
140,702396,DepthScenes,duration_manipulation_targetAtFixation,jsons/VE125_randls_53_rotated.json,http://54.235.29.9/FacialAge/BNav_EC2/DepthDuration/v2_depth_duration_MTurk/v2_DepthDuration_HTML.html#154,154,613,247,1366,768,9-4-2022,8-18-21,141,depth_duration_stimuli/001059_2014-06-08_21-53-27_260595134347_rgbf000061-resize_4/001059_2014-06-08_21-53-27_260595134347_rgbf000061-resize_4-target.png,125,2.4185,0,1735,109,meters,jsons/VE125_randls_53_rotated.json,1868736,2665129,35,Woman
141,702396,DepthScenes,duration_manipulation_targetAtFixation,jsons/VE125_randls_53_rotated.json,http://54.235.29.9/FacialAge/BNav_EC2/DepthDuration/v2_depth_duration_MTurk/v2_DepthDuration_HTML.html#154,154,613,247,1366,768,9-4-2022,8-18-21,142,depth_duration_stimuli/001136_2014-06-17_15-19-41_260595134347_rgbf000076-resize_3/001136_2014-06-17_15-19-41_260595134347_rgbf000076-resize_3-target.png,125,1.8655,0,1816,122,meters,jsons/VE125_randls_53_rotated.json,1868736,2665129,35,Woman
142,702396,DepthScenes,duration_manipulation_targetAtFixation,jsons/VE125_randls_53_rotated.json,http://54.235.29.9/FacialAge/BNav_EC2/DepthDuration/v2_depth_duration_MTurk/v2_DepthDuration_HTML.html#154,154,613,247,1366,768,9-4-2022,8-18-21,143,depth_duration_stimuli/001164_2014-06-17_15-35-46_260595134347_rgbf000085-resize_3/001164_2014-06-17_15-35-46_260595134347_rgbf000085-resize_3-target.png,125,2.354,0,1695,122,meters,jsons/VE125_randls_53_rotated.json,1868736,2665129,35,Woman
143,702396,DepthScenes,duration_manipulation_targetAtFixation,jsons/VE125_randls_53_rotated.json,http://54.235.29.9/FacialAge/BNav_EC2/DepthDuration/v2_depth_duration_MTurk/v2_DepthDuration_HTML.html#154,154,613,247,1366,768,9-4-2022,8-18-21,144,depth_duration_stimuli/003048_2014-06-15_13-49-43_094959634447_rgbf000150-resize_1/003048_2014-06-15_13-49-43_094959634447_rgbf000150-resize_1-target.png,125,4.0035,0,1700,114,meters,jsons/VE125_randls_53_rotated.json,1868736,2665129,35,Woman
144,702396,DepthScenes,duration_manipulation_targetAtFixation,jsons/VE125_randls_53_rotated.json,http://54.235.29.9/FacialAge/BNav_EC2/DepthDuration/v2_depth_duration_MTurk/v2_DepthDuration_HTML.html#154,154,613,247,1366,768,9-4-2022,8-18-21,145,depth_duration_stimuli/002043_2014-06-24_20-29-38_260595134347_rgbf000039-resize_4/002043_2014-06-24_20-29-38_260595134347_rgbf000039-resize_4-target.png,125,2.8435,0,1729,125,meters,jsons/VE125_randls_53_rotated.json,1868736,2665129,35,Woman
145,702396,DepthScenes,duration_manipulation_targetAtFixation,jsons/VE125_randls_53_rotated.json,http://54.235.29.9/FacialAge/BNav_EC2/DepthDuration/v2_depth_duration_MTurk/v2_DepthDuration_HTML.html#154,154,613,247,1366,768,9-4-2022,8-18-21,146,depth_duration_stimuli/000927_2014-06-09_16-32-30_260595134347_rgbf000123-resize_3/000927_2014-06-09_16-32-30_260595134347_rgbf000123-resize_3-target.png,125,2.6785,0,1590,124,meters,jsons/VE125_randls_53_rotated.json,1868736,2665129,35,Woman
146,702396,DepthScenes,duration_manipulation_targetAtFixation,jsons/VE125_randls_53_rotated.json,http://54.235.29.9/FacialAge/BNav_EC2/DepthDuration/v2_depth_duration_MTurk/v2_DepthDuration_HTML.html#154,154,613,247,1366,768,9-4-2022,8-18-21,147,depth_duration_stimuli/001110_2014-06-15_17-25-28_260595134347_rgbf000150-resize_1/001110_2014-06-15_17-25-28_260595134347_rgbf000150-resize_1-target.png,125,1.7115,0,60654,123,meters,jsons/VE125_randls_53_rotated.json,1868736,2665129,35,Woman
147,702396,DepthScenes,duration_manipulation_targetAtFixation,jsons/VE125_randls_53_rotated.json,http://54.235.29.9/FacialAge/BNav_EC2/DepthDuration/v2_depth_duration_MTurk/v2_DepthDuration_HTML.html#154,154,613,247,1366,768,9-4-2022,8-18-21,148,depth_duration_stimuli/002875_2014-06-01_15-19-00_094959634447_rgbf000151-resize_1/002875_2014-06-01_15-19-00_094959634447_rgbf000151-resize_1-target.png,125,1.9675,0,1697,125,meters,jsons/VE125_randls_53_rotated.json,1868736,2665129,35,Woman
148,702396,DepthScenes,duration_manipulation_targetAtFixation,jsons/VE125_randls_53_rotated.json,http://54.235.29.9/FacialAge/BNav_EC2/DepthDuration/v2_depth_duration_MTurk/v2_DepthDuration_HTML.html#154,154,613,247,1366,768,9-4-2022,8-18-21,149,depth_duration_stimuli/001011_2014-06-08_23-18-54_260595134347_rgbf000044-resize_4/001011_2014-06-08_23-18-54_260595134347_rgbf000044-resize_4-target.png,125,2.4730000000000003,0,1635,139,meters,jsons/VE125_randls_53_rotated.json,1868736,2665129,35,Woman
149,702396,DepthScenes,duration_manipulation_targetAtFixation,jsons/VE125_randls_53_rotated.json,http://54.235.29.9/FacialAge/BNav_EC2/DepthDuration/v2_depth_duration_MTurk/v2_DepthDuration_HTML.html#154,154,613,247,1366,768,9-4-2022,8-18-21,150,depth_duration_stimuli/001132_2014-06-17_14-48-54_260595134347_rgbf000100-resize_2/001132_2014-06-17_14-48-54_260595134347_rgbf000100-resize_2-target.png,125,3.753,0,1844,124,meters,jsons/VE125_randls_53_rotated.json,1868736,2665129,35,Woman
150,702396,DepthScenes,duration_manipulation_targetAtFixation,jsons/VE125_randls_53_rotated.json,http://54.235.29.9/FacialAge/BNav_EC2/DepthDuration/v2_depth_duration_MTurk/v2_DepthDuration_HTML.html#154,154,613,247,1366,768,9-4-2022,8-18-21,151,depth_duration_stimuli/001133_2014-06-17_14-49-16_260595134347_rgbf000100-resize_0/001133_2014-06-17_14-49-16_260595134347_rgbf000100-resize_0-target.png,125,4.2115,0,1749,124,meters,jsons/VE125_randls_53_rotated.json,1868736,2665129,35,Woman
151,702396,DepthScenes,duration_manipulation_targetAtFixation,jsons/VE125_randls_53_rotated.json,http://54.235.29.9/FacialAge/BNav_EC2/DepthDuration/v2_depth_duration_MTurk/v2_DepthDuration_HTML.html#154,154,613,247,1366,768,9-4-2022,8-18-21,152,depth_duration_stimuli/000569_2014-06-09_22-51-47_260595134347_rgbf000141-resize_3/000569_2014-06-09_22-51-47_260595134347_rgbf000141-resize-original.jpg,125,4.512,0,1747,124,meters,jsons/VE125_randls_53_rotated.json,1868736,2665129,35,Woman
152,702396,DepthScenes,duration_manipulation_targetAtFixation,jsons/VE125_randls_53_rotated.json,http://54.235.29.9/FacialAge/BNav_EC2/DepthDuration/v2_depth_duration_MTurk/v2_DepthDuration_HTML.html#154,154,613,247,1366,768,9-4-2022,8-18-21,153,depth_duration_stimuli/000691_2014-06-08_13-08-50_260595134347_rgbf000132-resize_3/000691_2014-06-08_13-08-50_260595134347_rgbf000132-resize_3-target.png,125,4.1530000000000005,0,1517,124,meters,jsons/VE125_randls_53_rotated.json,1868736,2665129,35,Woman
153,702396,DepthScenes,duration_manipulation_targetAtFixation,jsons/VE125_randls_53_rotated.json,http://54.235.29.9/FacialAge/BNav_EC2/DepthDuration/v2_depth_duration_MTurk/v2_DepthDuration_HTML.html#154,154,613,247,1366,768,9-4-2022,8-18-21,154,depth_duration_stimuli/002213_2014-06-28_18-37-58_260595134347_rgbf000055-resize_1/002213_2014-06-28_18-37-58_260595134347_rgbf000055-resize_1-target.png,125,3.62,0,1644,119,meters,jsons/VE125_randls_53_rotated.json,1868736,2665129,35,Woman
154,702396,DepthScenes,duration_manipulation_targetAtFixation,jsons/VE125_randls_53_rotated.json,http://54.235.29.9/FacialAge/BNav_EC2/DepthDuration/v2_depth_duration_MTurk/v2_DepthDuration_HTML.html#154,154,613,247,1366,768,9-4-2022,8-18-21,155,depth_duration_stimuli/000457_2014-06-08_16-52-43_260595134347_rgbf000199-resize_1/000457_2014-06-08_16-52-43_260595134347_rgbf000199-resize_1-target.png,125,3.6489999999999996,0,1397,125,meters,jsons/VE125_randls_53_rotated.json,1868736,2665129,35,Woman
155,702396,DepthScenes,duration_manipulation_targetAtFixation,jsons/VE125_randls_53_rotated.json,http://54.235.29.9/FacialAge/BNav_EC2/DepthDuration/v2_depth_duration_MTurk/v2_DepthDuration_HTML.html#154,154,613,247,1366,768,9-4-2022,8-18-21,156,depth_duration_stimuli/000929_2014-06-09_16-33-19_260595134347_rgbf000139-resize_0/000929_2014-06-09_16-33-19_260595134347_rgbf000139-resize_0-target.png,125,2.8680000000000003,0,1583,127,meters,jsons/VE125_randls_53_rotated.json,1868736,2665129,35,Woman
156,702396,DepthScenes,duration_manipulation_targetAtFixation,jsons/VE125_randls_53_rotated.json,http://54.235.29.9/FacialAge/BNav_EC2/DepthDuration/v2_depth_duration_MTurk/v2_DepthDuration_HTML.html#154,154,613,247,1366,768,9-4-2022,8-18-21,157,depth_duration_stimuli/002103_2014-06-25_20-00-40_260595134347_rgbf000049-resize_0/002103_2014-06-25_20-00-40_260595134347_rgbf000049-resize_0-target.png,125,4.105,0,1438,120,meters,jsons/VE125_randls_53_rotated.json,1868736,2665129,35,Woman
157,702396,DepthScenes,duration_manipulation_targetAtFixation,jsons/VE125_randls_53_rotated.json,http://54.235.29.9/FacialAge/BNav_EC2/DepthDuration/v2_depth_duration_MTurk/v2_DepthDuration_HTML.html#154,154,613,247,1366,768,9-4-2022,8-18-21,158,depth_duration_stimuli/002039_2014-06-24_20-22-38_260595134347_rgbf000084-resize_1/002039_2014-06-24_20-22-38_260595134347_rgbf000084-resize_1-target.png,125,4.408,0,2927,125,meters,jsons/VE125_randls_53_rotated.json,1868736,2665129,35,Woman
158,702396,DepthScenes,duration_manipulation_targetAtFixation,jsons/VE125_randls_53_rotated.json,http://54.235.29.9/FacialAge/BNav_EC2/DepthDuration/v2_depth_duration_MTurk/v2_DepthDuration_HTML.html#154,154,613,247,1366,768,9-4-2022,8-18-21,159,depth_duration_stimuli/001094_2014-06-15_17-36-00_260595134347_rgbf000205-resize_0/001094_2014-06-15_17-36-00_260595134347_rgbf000205-resize_0-target.png,125,4.2175,0,2970,122,meters,jsons/VE125_randls_53_rotated.json,1868736,2665129,35,Woman
159,702396,DepthScenes,duration_manipulation_targetAtFixation,jsons/VE125_randls_53_rotated.json,http://54.235.29.9/FacialAge/BNav_EC2/DepthDuration/v2_depth_duration_MTurk/v2_DepthDuration_HTML.html#154,154,613,247,1366,768,9-4-2022,8-18-21,160,depth_duration_stimuli/000692_2014-06-08_13-09-42_260595134347_rgbf000199-resize_2/000692_2014-06-08_13-09-42_260595134347_rgbf000199-resize_2-target.png,125,3.661,0,3014,168,meters,jsons/VE125_randls_53_rotated.json,1868736,2665129,35,Woman
160,702396,DepthScenes,duration_manipulation_targetAtFixation,jsons/VE125_randls_53_rotated.json,http://54.235.29.9/FacialAge/BNav_EC2/DepthDuration/v2_depth_duration_MTurk/v2_DepthDuration_HTML.html#154,154,613,247,1366,768,9-4-2022,8-18-21,161,depth_duration_stimuli/002953_2014-06-08_17-32-18_094959634447_rgbf000059-resize_5/002953_2014-06-08_17-32-18_094959634447_rgbf000059-resize_5-target.png,125,1.551,0,6839,125,meters,jsons/VE125_randls_53_rotated.json,1868736,2665129,35,Woman
161,702396,DepthScenes,duration_manipulation_targetAtFixation,jsons/VE125_randls_53_rotated.json,http://54.235.29.9/FacialAge/BNav_EC2/DepthDuration/v2_depth_duration_MTurk/v2_DepthDuration_HTML.html#154,154,613,247,1366,768,9-4-2022,8-18-21,162,depth_duration_stimuli/000878_2014-06-08_22-52-45_260595134347_rgbf000045-resize_2/000878_2014-06-08_22-52-45_260595134347_rgbf000045-resize_2-target.png,125,2.092,0,4335,124,meters,jsons/VE125_randls_53_rotated.json,1868736,2665129,35,Woman
162,702396,DepthScenes,duration_manipulation_targetAtFixation,jsons/VE125_randls_53_rotated.json,http://54.235.29.9/FacialAge/BNav_EC2/DepthDuration/v2_depth_duration_MTurk/v2_DepthDuration_HTML.html#154,154,613,247,1366,768,9-4-2022,8-18-21,163,depth_duration_stimuli/003495_2014-05-21_16-01-51_094959634447_rgbf000100-resize_3/003495_2014-05-21_16-01-51_094959634447_rgbf000100-resize_3-target.png,125,1.6255,0,6157,122,meters,jsons/VE125_randls_53_rotated.json,1868736,2665129,35,Woman
163,702396,DepthScenes,duration_manipulation_targetAtFixation,jsons/VE125_randls_53_rotated.json,http://54.235.29.9/FacialAge/BNav_EC2/DepthDuration/v2_depth_duration_MTurk/v2_DepthDuration_HTML.html#154,154,613,247,1366,768,9-4-2022,8-18-21,164,depth_duration_stimuli/001244_2014-06-17_16-47-45_260595134347_rgbf000030-resize_4/001244_2014-06-17_16-47-45_260595134347_rgbf000030-resize_4-target.png,125,2.0425,0,1761,107,meters,jsons/VE125_randls_53_rotated.json,1868736,2665129,35,Woman
