,subjID,experimentName,versionName,sequenceName,url,selected_row,windowWidth,windowHeight,screenWidth,screenHeight,startDate,startTime,trial,stimulus,duration,actual_depth,depth_estimate,trial_RT,log_sceneDuration,unitSelection,seq_filepath,experimentTime,totalTime,age,gender
0,705085,DepthScenes,duration_manipulation_targetAtFixation,jsons/v1_VE250_randls_45.json,http://54.235.29.9/FacialAge/BNav_EC2/DepthDuration/v2_depth_duration_MTurk/v2_DepthDuration_HTML.html#137,137,1920,975,1920,1080,8-29-2022,14-41-19,1,depth_duration_stimuli/001158_2014-06-17_15-32-16_260595134347_rgbf000138-resize_2/001158_2014-06-17_15-32-16_260595134347_rgbf000138-resize_2-target.png,250,4.5315,12,3060,263,feet,jsons/v1_VE250_randls_45.json,642503,819301,45,Man
1,705085,DepthScenes,duration_manipulation_targetAtFixation,jsons/v1_VE250_randls_45.json,http://54.235.29.9/FacialAge/BNav_EC2/DepthDuration/v2_depth_duration_MTurk/v2_DepthDuration_HTML.html#137,137,1920,975,1920,1080,8-29-2022,14-41-19,2,depth_duration_stimuli/000556_2014-06-09_22-42-56_260595134347_rgbf000214-resize_1/000556_2014-06-09_22-42-56_260595134347_rgbf000214-resize_1-target.png,250,4.8415,10,3002,262,feet,jsons/v1_VE250_randls_45.json,642503,819301,45,Man
2,705085,DepthScenes,duration_manipulation_targetAtFixation,jsons/v1_VE250_randls_45.json,http://54.235.29.9/FacialAge/BNav_EC2/DepthDuration/v2_depth_duration_MTurk/v2_DepthDuration_HTML.html#137,137,1920,975,1920,1080,8-29-2022,14-41-19,3,depth_duration_stimuli/001110_2014-06-15_17-25-28_260595134347_rgbf000150-resize_1/001110_2014-06-15_17-25-28_260595134347_rgbf000150-resize_1-target.png,250,1.7115,6,2640,247,feet,jsons/v1_VE250_randls_45.json,642503,819301,45,Man
3,705085,DepthScenes,duration_manipulation_targetAtFixation,jsons/v1_VE250_randls_45.json,http://54.235.29.9/FacialAge/BNav_EC2/DepthDuration/v2_depth_duration_MTurk/v2_DepthDuration_HTML.html#137,137,1920,975,1920,1080,8-29-2022,14-41-19,4,depth_duration_stimuli/000927_2014-06-09_16-32-30_260595134347_rgbf000123-resize_3/000927_2014-06-09_16-32-30_260595134347_rgbf000123-resize_3-target.png,250,2.6785,8,2476,265,feet,jsons/v1_VE250_randls_45.json,642503,819301,45,Man
4,705085,DepthScenes,duration_manipulation_targetAtFixation,jsons/v1_VE250_randls_45.json,http://54.235.29.9/FacialAge/BNav_EC2/DepthDuration/v2_depth_duration_MTurk/v2_DepthDuration_HTML.html#137,137,1920,975,1920,1080,8-29-2022,14-41-19,5,depth_duration_stimuli/000906_2014-06-08_13-35-43_260595134347_rgbf000155-resize_1/000906_2014-06-08_13-35-43_260595134347_rgbf000155-resize_1-target.png,250,2.8489999999999998,10,3119,238,feet,jsons/v1_VE250_randls_45.json,642503,819301,45,Man
5,705085,DepthScenes,duration_manipulation_targetAtFixation,jsons/v1_VE250_randls_45.json,http://54.235.29.9/FacialAge/BNav_EC2/DepthDuration/v2_depth_duration_MTurk/v2_DepthDuration_HTML.html#137,137,1920,975,1920,1080,8-29-2022,14-41-19,6,depth_duration_stimuli/002805_2014-06-22_19-54-03_094959634447_rgbf000079-resize_1/002805_2014-06-22_19-54-03_094959634447_rgbf000079-resize_1-target.png,250,3.1439999999999997,14,3203,243,feet,jsons/v1_VE250_randls_45.json,642503,819301,45,Man
6,705085,DepthScenes,duration_manipulation_targetAtFixation,jsons/v1_VE250_randls_45.json,http://54.235.29.9/FacialAge/BNav_EC2/DepthDuration/v2_depth_duration_MTurk/v2_DepthDuration_HTML.html#137,137,1920,975,1920,1080,8-29-2022,14-41-19,7,depth_duration_stimuli/001808_2014-06-26_20-50-58_260595134347_rgbf000029-resize_1/001808_2014-06-26_20-50-58_260595134347_rgbf000029-resize_1-target.png,250,4.249,12,2742,248,feet,jsons/v1_VE250_randls_45.json,642503,819301,45,Man
7,705085,DepthScenes,duration_manipulation_targetAtFixation,jsons/v1_VE250_randls_45.json,http://54.235.29.9/FacialAge/BNav_EC2/DepthDuration/v2_depth_duration_MTurk/v2_DepthDuration_HTML.html#137,137,1920,975,1920,1080,8-29-2022,14-41-19,8,depth_duration_stimuli/001815_2014-06-26_20-52-55_260595134347_rgbf000020-resize_0/001815_2014-06-26_20-52-55_260595134347_rgbf000020-resize_0-target.png,250,3.3865,10,3264,243,feet,jsons/v1_VE250_randls_45.json,642503,819301,45,Man
8,705085,DepthScenes,duration_manipulation_targetAtFixation,jsons/v1_VE250_randls_45.json,http://54.235.29.9/FacialAge/BNav_EC2/DepthDuration/v2_depth_duration_MTurk/v2_DepthDuration_HTML.html#137,137,1920,975,1920,1080,8-29-2022,14-41-19,9,depth_duration_stimuli/001449_2014-06-19_17-01-27_260595134347_rgbf000116-resize_2/001449_2014-06-19_17-01-27_260595134347_rgbf000116-resize_2-target.png,250,3.452,8,3152,249,feet,jsons/v1_VE250_randls_45.json,642503,819301,45,Man
9,705085,DepthScenes,duration_manipulation_targetAtFixation,jsons/v1_VE250_randls_45.json,http://54.235.29.9/FacialAge/BNav_EC2/DepthDuration/v2_depth_duration_MTurk/v2_DepthDuration_HTML.html#137,137,1920,975,1920,1080,8-29-2022,14-41-19,10,depth_duration_stimuli/001450_2014-06-19_17-02-03_260595134347_rgbf000203-resize_4/001450_2014-06-19_17-02-03_260595134347_rgbf000203-resize_4-target.png,250,4.0106666666667,14,3249,264,feet,jsons/v1_VE250_randls_45.json,642503,819301,45,Man
10,705085,DepthScenes,duration_manipulation_targetAtFixation,jsons/v1_VE250_randls_45.json,http://54.235.29.9/FacialAge/BNav_EC2/DepthDuration/v2_depth_duration_MTurk/v2_DepthDuration_HTML.html#137,137,1920,975,1920,1080,8-29-2022,14-41-19,11,depth_duration_stimuli/000642_2014-06-08_16-59-25_260595134347_rgbf000098-resize_2/000642_2014-06-08_16-59-25_260595134347_rgbf000098-resize_2-target.png,250,2.8815,4,3219,248,feet,jsons/v1_VE250_randls_45.json,642503,819301,45,Man
11,705085,DepthScenes,duration_manipulation_targetAtFixation,jsons/v1_VE250_randls_45.json,http://54.235.29.9/FacialAge/BNav_EC2/DepthDuration/v2_depth_duration_MTurk/v2_DepthDuration_HTML.html#137,137,1920,975,1920,1080,8-29-2022,14-41-19,12,depth_duration_stimuli/002425_2014-06-28_20-27-29_260595134347_rgbf000031-resize_8/002425_2014-06-28_20-27-29_260595134347_rgbf000031-resize_8-target.png,250,3.8960000000000004,10,3465,250,feet,jsons/v1_VE250_randls_45.json,642503,819301,45,Man
12,705085,DepthScenes,duration_manipulation_targetAtFixation,jsons/v1_VE250_randls_45.json,http://54.235.29.9/FacialAge/BNav_EC2/DepthDuration/v2_depth_duration_MTurk/v2_DepthDuration_HTML.html#137,137,1920,975,1920,1080,8-29-2022,14-41-19,13,depth_duration_stimuli/000569_2014-06-09_22-51-47_260595134347_rgbf000141-resize_3/000569_2014-06-09_22-51-47_260595134347_rgbf000141-resize-original.jpg,250,4.512,0,3231,246,feet,jsons/v1_VE250_randls_45.json,642503,819301,45,Man
13,705085,DepthScenes,duration_manipulation_targetAtFixation,jsons/v1_VE250_randls_45.json,http://54.235.29.9/FacialAge/BNav_EC2/DepthDuration/v2_depth_duration_MTurk/v2_DepthDuration_HTML.html#137,137,1920,975,1920,1080,8-29-2022,14-41-19,14,depth_duration_stimuli/003292_2014-05-14_21-53-49_094959634447_rgbf000100-resize_2/003292_2014-05-14_21-53-49_094959634447_rgbf000100-resize_2-target.png,250,3.4815,6,2557,249,feet,jsons/v1_VE250_randls_45.json,642503,819301,45,Man
14,705085,DepthScenes,duration_manipulation_targetAtFixation,jsons/v1_VE250_randls_45.json,http://54.235.29.9/FacialAge/BNav_EC2/DepthDuration/v2_depth_duration_MTurk/v2_DepthDuration_HTML.html#137,137,1920,975,1920,1080,8-29-2022,14-41-19,15,depth_duration_stimuli/002639_2014-06-24_14-51-37_094959634447_rgbf000074-resize_4/002639_2014-06-24_14-51-37_094959634447_rgbf000074-resize_4-target.png,250,4.0375,10,3213,264,feet,jsons/v1_VE250_randls_45.json,642503,819301,45,Man
15,705085,DepthScenes,duration_manipulation_targetAtFixation,jsons/v1_VE250_randls_45.json,http://54.235.29.9/FacialAge/BNav_EC2/DepthDuration/v2_depth_duration_MTurk/v2_DepthDuration_HTML.html#137,137,1920,975,1920,1080,8-29-2022,14-41-19,16,depth_duration_stimuli/002570_2014-06-24_13-59-54_094959634447_rgbf000059-resize_0/002570_2014-06-24_13-59-54_094959634447_rgbf000059-resize_0-target.png,250,4.037,8,2567,249,feet,jsons/v1_VE250_randls_45.json,642503,819301,45,Man
16,705085,DepthScenes,duration_manipulation_targetAtFixation,jsons/v1_VE250_randls_45.json,http://54.235.29.9/FacialAge/BNav_EC2/DepthDuration/v2_depth_duration_MTurk/v2_DepthDuration_HTML.html#137,137,1920,975,1920,1080,8-29-2022,14-41-19,17,depth_duration_stimuli/002467_2014-06-28_20-38-07_260595134347_rgbf000026-resize_2/002467_2014-06-28_20-38-07_260595134347_rgbf000026-resize_2-target.png,250,4.742,12,2686,239,feet,jsons/v1_VE250_randls_45.json,642503,819301,45,Man
17,705085,DepthScenes,duration_manipulation_targetAtFixation,jsons/v1_VE250_randls_45.json,http://54.235.29.9/FacialAge/BNav_EC2/DepthDuration/v2_depth_duration_MTurk/v2_DepthDuration_HTML.html#137,137,1920,975,1920,1080,8-29-2022,14-41-19,18,depth_duration_stimuli/002057_2014-06-24_21-00-13_260595134347_rgbf000120-resize_1/002057_2014-06-24_21-00-13_260595134347_rgbf000120-resize_1-target.png,250,2.967,10,3246,250,feet,jsons/v1_VE250_randls_45.json,642503,819301,45,Man
18,705085,DepthScenes,duration_manipulation_targetAtFixation,jsons/v1_VE250_randls_45.json,http://54.235.29.9/FacialAge/BNav_EC2/DepthDuration/v2_depth_duration_MTurk/v2_DepthDuration_HTML.html#137,137,1920,975,1920,1080,8-29-2022,14-41-19,19,depth_duration_stimuli/000709_2014-06-08_13-51-55_260595134347_rgbf000068-resize_3/000709_2014-06-08_13-51-55_260595134347_rgbf000068-resize_3-target.png,250,1.8030000000000002,4,3079,247,feet,jsons/v1_VE250_randls_45.json,642503,819301,45,Man
19,705085,DepthScenes,duration_manipulation_targetAtFixation,jsons/v1_VE250_randls_45.json,http://54.235.29.9/FacialAge/BNav_EC2/DepthDuration/v2_depth_duration_MTurk/v2_DepthDuration_HTML.html#137,137,1920,975,1920,1080,8-29-2022,14-41-19,20,depth_duration_stimuli/000773_2014-06-08_22-24-54_260595134347_rgbf000093-resize_1/000773_2014-06-08_22-24-54_260595134347_rgbf000093-resize_1-target.png,250,4.973,10,3301,248,feet,jsons/v1_VE250_randls_45.json,642503,819301,45,Man
20,705085,DepthScenes,duration_manipulation_targetAtFixation,jsons/v1_VE250_randls_45.json,http://54.235.29.9/FacialAge/BNav_EC2/DepthDuration/v2_depth_duration_MTurk/v2_DepthDuration_HTML.html#137,137,1920,975,1920,1080,8-29-2022,14-41-19,21,depth_duration_stimuli/002414_2014-06-28_20-24-58_260595134347_rgbf000067-resize_4/002414_2014-06-28_20-24-58_260595134347_rgbf000067-resize_4-target.png,250,4.363,12,2798,246,feet,jsons/v1_VE250_randls_45.json,642503,819301,45,Man
21,705085,DepthScenes,duration_manipulation_targetAtFixation,jsons/v1_VE250_randls_45.json,http://54.235.29.9/FacialAge/BNav_EC2/DepthDuration/v2_depth_duration_MTurk/v2_DepthDuration_HTML.html#137,137,1920,975,1920,1080,8-29-2022,14-41-19,22,depth_duration_stimuli/000414_2014-06-04_19-49-13_260595134347_rgbf000044-resize_0/000414_2014-06-04_19-49-13_260595134347_rgbf000044-resize_0-target.png,250,4.329,14,3349,249,feet,jsons/v1_VE250_randls_45.json,642503,819301,45,Man
22,705085,DepthScenes,duration_manipulation_targetAtFixation,jsons/v1_VE250_randls_45.json,http://54.235.29.9/FacialAge/BNav_EC2/DepthDuration/v2_depth_duration_MTurk/v2_DepthDuration_HTML.html#137,137,1920,975,1920,1080,8-29-2022,14-41-19,23,depth_duration_stimuli/003129_2014-05-12_10-48-10_094959634447_rgbf000100-resize_0/003129_2014-05-12_10-48-10_094959634447_rgbf000100-resize_0-target.png,250,4.9305,16,3492,251,feet,jsons/v1_VE250_randls_45.json,642503,819301,45,Man
23,705085,DepthScenes,duration_manipulation_targetAtFixation,jsons/v1_VE250_randls_45.json,http://54.235.29.9/FacialAge/BNav_EC2/DepthDuration/v2_depth_duration_MTurk/v2_DepthDuration_HTML.html#137,137,1920,975,1920,1080,8-29-2022,14-41-19,24,depth_duration_stimuli/002988_2014-06-15_12-24-20_094959634447_rgbf000150-resize_1/002988_2014-06-15_12-24-20_094959634447_rgbf000150-resize_1-target.png,250,4.7669999999999995,15,3440,258,feet,jsons/v1_VE250_randls_45.json,642503,819301,45,Man
24,705085,DepthScenes,duration_manipulation_targetAtFixation,jsons/v1_VE250_randls_45.json,http://54.235.29.9/FacialAge/BNav_EC2/DepthDuration/v2_depth_duration_MTurk/v2_DepthDuration_HTML.html#137,137,1920,975,1920,1080,8-29-2022,14-41-19,25,depth_duration_stimuli/001052_2014-06-08_18-24-54_260595134347_rgbf000130-resize_1/001052_2014-06-08_18-24-54_260595134347_rgbf000130-resize_1-target.png,250,4.1045,12,2994,263,feet,jsons/v1_VE250_randls_45.json,642503,819301,45,Man
25,705085,DepthScenes,duration_manipulation_targetAtFixation,jsons/v1_VE250_randls_45.json,http://54.235.29.9/FacialAge/BNav_EC2/DepthDuration/v2_depth_duration_MTurk/v2_DepthDuration_HTML.html#137,137,1920,975,1920,1080,8-29-2022,14-41-19,26,depth_duration_stimuli/003492_2014-05-21_15-50-55_094959634447_rgbf000828-resize_1/003492_2014-05-21_15-50-55_094959634447_rgbf000828-resize_1-target.png,250,4.06875,16,3446,249,feet,jsons/v1_VE250_randls_45.json,642503,819301,45,Man
26,705085,DepthScenes,duration_manipulation_targetAtFixation,jsons/v1_VE250_randls_45.json,http://54.235.29.9/FacialAge/BNav_EC2/DepthDuration/v2_depth_duration_MTurk/v2_DepthDuration_HTML.html#137,137,1920,975,1920,1080,8-29-2022,14-41-19,27,depth_duration_stimuli/002568_2014-06-24_13-59-21_094959634447_rgbf000062-resize_4/002568_2014-06-24_13-59-21_094959634447_rgbf000062-resize_4-target.png,250,3.015,12,2743,252,feet,jsons/v1_VE250_randls_45.json,642503,819301,45,Man
27,705085,DepthScenes,duration_manipulation_targetAtFixation,jsons/v1_VE250_randls_45.json,http://54.235.29.9/FacialAge/BNav_EC2/DepthDuration/v2_depth_duration_MTurk/v2_DepthDuration_HTML.html#137,137,1920,975,1920,1080,8-29-2022,14-41-19,28,depth_duration_stimuli/002118_2014-06-25_20-32-08_260595134347_rgbf000078-resize_1/002118_2014-06-25_20-32-08_260595134347_rgbf000078-resize_1-target.png,250,2.6460000000000004,5,3039,249,feet,jsons/v1_VE250_randls_45.json,642503,819301,45,Man
28,705085,DepthScenes,duration_manipulation_targetAtFixation,jsons/v1_VE250_randls_45.json,http://54.235.29.9/FacialAge/BNav_EC2/DepthDuration/v2_depth_duration_MTurk/v2_DepthDuration_HTML.html#137,137,1920,975,1920,1080,8-29-2022,14-41-19,29,depth_duration_stimuli/001516_2014-06-20_16-25-09_260595134347_rgbf000076-resize_2/001516_2014-06-20_16-25-09_260595134347_rgbf000076-resize_2-target.png,250,1.7445,6,7611,245,feet,jsons/v1_VE250_randls_45.json,642503,819301,45,Man
29,705085,DepthScenes,duration_manipulation_targetAtFixation,jsons/v1_VE250_randls_45.json,http://54.235.29.9/FacialAge/BNav_EC2/DepthDuration/v2_depth_duration_MTurk/v2_DepthDuration_HTML.html#137,137,1920,975,1920,1080,8-29-2022,14-41-19,30,depth_duration_stimuli/000375_2014-06-08_11-17-29_260595134347_rgbf000133-resize_2/000375_2014-06-08_11-17-29_260595134347_rgbf000133-resize-original.jpg,250,4.718,0,3479,261,feet,jsons/v1_VE250_randls_45.json,642503,819301,45,Man
30,705085,DepthScenes,duration_manipulation_targetAtFixation,jsons/v1_VE250_randls_45.json,http://54.235.29.9/FacialAge/BNav_EC2/DepthDuration/v2_depth_duration_MTurk/v2_DepthDuration_HTML.html#137,137,1920,975,1920,1080,8-29-2022,14-41-19,31,depth_duration_stimuli/003534_2014-05-22_15-06-10_094959634447_rgbf000102-resize_4/003534_2014-05-22_15-06-10_094959634447_rgbf000102-resize_4-target.png,250,1.426,2,2737,253,feet,jsons/v1_VE250_randls_45.json,642503,819301,45,Man
31,705085,DepthScenes,duration_manipulation_targetAtFixation,jsons/v1_VE250_randls_45.json,http://54.235.29.9/FacialAge/BNav_EC2/DepthDuration/v2_depth_duration_MTurk/v2_DepthDuration_HTML.html#137,137,1920,975,1920,1080,8-29-2022,14-41-19,32,depth_duration_stimuli/002637_2014-06-24_14-51-13_094959634447_rgbf000066-resize_4/002637_2014-06-24_14-51-13_094959634447_rgbf000066-resize_4-target.png,250,1.9955,5,2956,249,feet,jsons/v1_VE250_randls_45.json,642503,819301,45,Man
32,705085,DepthScenes,duration_manipulation_targetAtFixation,jsons/v1_VE250_randls_45.json,http://54.235.29.9/FacialAge/BNav_EC2/DepthDuration/v2_depth_duration_MTurk/v2_DepthDuration_HTML.html#137,137,1920,975,1920,1080,8-29-2022,14-41-19,33,depth_duration_stimuli/002600_2014-06-24_14-27-04_094959634447_rgbf000074-resize_2/002600_2014-06-24_14-27-04_094959634447_rgbf000074-resize_2-target.png,250,2.7575,6,2950,256,feet,jsons/v1_VE250_randls_45.json,642503,819301,45,Man
33,705085,DepthScenes,duration_manipulation_targetAtFixation,jsons/v1_VE250_randls_45.json,http://54.235.29.9/FacialAge/BNav_EC2/DepthDuration/v2_depth_duration_MTurk/v2_DepthDuration_HTML.html#137,137,1920,975,1920,1080,8-29-2022,14-41-19,34,depth_duration_stimuli/003228_2014-05-14_13-42-35_094959634447_rgbf000101-resize_1/003228_2014-05-14_13-42-35_094959634447_rgbf000101-resize_1-target.png,250,1.9680000000000002,3,2596,258,feet,jsons/v1_VE250_randls_45.json,642503,819301,45,Man
34,705085,DepthScenes,duration_manipulation_targetAtFixation,jsons/v1_VE250_randls_45.json,http://54.235.29.9/FacialAge/BNav_EC2/DepthDuration/v2_depth_duration_MTurk/v2_DepthDuration_HTML.html#137,137,1920,975,1920,1080,8-29-2022,14-41-19,35,depth_duration_stimuli/000736_2014-06-08_18-24-15_260595134347_rgbf000206-resize_3/000736_2014-06-08_18-24-15_260595134347_rgbf000206-resize_3-target.png,250,3.515,6,2813,252,feet,jsons/v1_VE250_randls_45.json,642503,819301,45,Man
35,705085,DepthScenes,duration_manipulation_targetAtFixation,jsons/v1_VE250_randls_45.json,http://54.235.29.9/FacialAge/BNav_EC2/DepthDuration/v2_depth_duration_MTurk/v2_DepthDuration_HTML.html#137,137,1920,975,1920,1080,8-29-2022,14-41-19,36,depth_duration_stimuli/000137_2014-05-20_17-04-49_260595134347_rgbf000120-resize_1/000137_2014-05-20_17-04-49_260595134347_rgbf000120-resize_1-target.png,250,3.786,10,5111,262,feet,jsons/v1_VE250_randls_45.json,642503,819301,45,Man
36,705085,DepthScenes,duration_manipulation_targetAtFixation,jsons/v1_VE250_randls_45.json,http://54.235.29.9/FacialAge/BNav_EC2/DepthDuration/v2_depth_duration_MTurk/v2_DepthDuration_HTML.html#137,137,1920,975,1920,1080,8-29-2022,14-41-19,37,depth_duration_stimuli/001555_2014-06-20_17-12-10_260595134347_rgbf000065-resize_4/001555_2014-06-20_17-12-10_260595134347_rgbf000065-resize_4-target.png,250,1.633,2,2784,261,feet,jsons/v1_VE250_randls_45.json,642503,819301,45,Man
37,705085,DepthScenes,duration_manipulation_targetAtFixation,jsons/v1_VE250_randls_45.json,http://54.235.29.9/FacialAge/BNav_EC2/DepthDuration/v2_depth_duration_MTurk/v2_DepthDuration_HTML.html#137,137,1920,975,1920,1080,8-29-2022,14-41-19,38,depth_duration_stimuli/000103_2014-05-14_22-01-17_260595134347_rgbf000152-resize_5/000103_2014-05-14_22-01-17_260595134347_rgbf000152-resize_5-target.png,250,1.993,6,3776,249,feet,jsons/v1_VE250_randls_45.json,642503,819301,45,Man
38,705085,DepthScenes,duration_manipulation_targetAtFixation,jsons/v1_VE250_randls_45.json,http://54.235.29.9/FacialAge/BNav_EC2/DepthDuration/v2_depth_duration_MTurk/v2_DepthDuration_HTML.html#137,137,1920,975,1920,1080,8-29-2022,14-41-19,39,depth_duration_stimuli/000522_2014-06-08_13-35-06_260595134347_rgbf000244-resize_1/000522_2014-06-08_13-35-06_260595134347_rgbf000244-resize_1-target.png,250,2.3715,2,2767,250,feet,jsons/v1_VE250_randls_45.json,642503,819301,45,Man
39,705085,DepthScenes,duration_manipulation_targetAtFixation,jsons/v1_VE250_randls_45.json,http://54.235.29.9/FacialAge/BNav_EC2/DepthDuration/v2_depth_duration_MTurk/v2_DepthDuration_HTML.html#137,137,1920,975,1920,1080,8-29-2022,14-41-19,40,depth_duration_stimuli/002949_2014-06-26_15-57-42_094959634447_rgbf000079-resize_1/002949_2014-06-26_15-57-42_094959634447_rgbf000079-resize_1-target.png,250,1.8915,4,3125,250,feet,jsons/v1_VE250_randls_45.json,642503,819301,45,Man
40,705085,DepthScenes,duration_manipulation_targetAtFixation,jsons/v1_VE250_randls_45.json,http://54.235.29.9/FacialAge/BNav_EC2/DepthDuration/v2_depth_duration_MTurk/v2_DepthDuration_HTML.html#137,137,1920,975,1920,1080,8-29-2022,14-41-19,41,depth_duration_stimuli/001059_2014-06-08_21-53-27_260595134347_rgbf000061-resize_4/001059_2014-06-08_21-53-27_260595134347_rgbf000061-resize_4-target.png,250,2.4185,6,2911,258,feet,jsons/v1_VE250_randls_45.json,642503,819301,45,Man
41,705085,DepthScenes,duration_manipulation_targetAtFixation,jsons/v1_VE250_randls_45.json,http://54.235.29.9/FacialAge/BNav_EC2/DepthDuration/v2_depth_duration_MTurk/v2_DepthDuration_HTML.html#137,137,1920,975,1920,1080,8-29-2022,14-41-19,42,depth_duration_stimuli/001032_2014-06-08_13-23-17_260595134347_rgbf000021-resize_3/001032_2014-06-08_13-23-17_260595134347_rgbf000021-resize_3-target.png,250,3.2725,6,3234,251,feet,jsons/v1_VE250_randls_45.json,642503,819301,45,Man
42,705085,DepthScenes,duration_manipulation_targetAtFixation,jsons/v1_VE250_randls_45.json,http://54.235.29.9/FacialAge/BNav_EC2/DepthDuration/v2_depth_duration_MTurk/v2_DepthDuration_HTML.html#137,137,1920,975,1920,1080,8-29-2022,14-41-19,43,depth_duration_stimuli/001806_2014-06-26_20-50-20_260595134347_rgbf000091-resize_1/001806_2014-06-26_20-50-20_260595134347_rgbf000091-resize_1-target.png,250,2.7305,3,2461,251,feet,jsons/v1_VE250_randls_45.json,642503,819301,45,Man
43,705085,DepthScenes,duration_manipulation_targetAtFixation,jsons/v1_VE250_randls_45.json,http://54.235.29.9/FacialAge/BNav_EC2/DepthDuration/v2_depth_duration_MTurk/v2_DepthDuration_HTML.html#137,137,1920,975,1920,1080,8-29-2022,14-41-19,44,depth_duration_stimuli/001617_2014-06-20_11-35-32_260595134347_rgbf000066-resize_1/001617_2014-06-20_11-35-32_260595134347_rgbf000066-resize_1-target.png,250,3.7910000000000004,10,4868,261,feet,jsons/v1_VE250_randls_45.json,642503,819301,45,Man
44,705085,DepthScenes,duration_manipulation_targetAtFixation,jsons/v1_VE250_randls_45.json,http://54.235.29.9/FacialAge/BNav_EC2/DepthDuration/v2_depth_duration_MTurk/v2_DepthDuration_HTML.html#137,137,1920,975,1920,1080,8-29-2022,14-41-19,45,depth_duration_stimuli/000787_2014-06-08_22-33-53_260595134347_rgbf000175-resize_1/000787_2014-06-08_22-33-53_260595134347_rgbf000175-resize-original.jpg,250,4.784,0,5504,258,feet,jsons/v1_VE250_randls_45.json,642503,819301,45,Man
45,705085,DepthScenes,duration_manipulation_targetAtFixation,jsons/v1_VE250_randls_45.json,http://54.235.29.9/FacialAge/BNav_EC2/DepthDuration/v2_depth_duration_MTurk/v2_DepthDuration_HTML.html#137,137,1920,975,1920,1080,8-29-2022,14-41-19,46,depth_duration_stimuli/002725_2014-06-22_11-47-51_094959634447_rgbf000070-resize_1/002725_2014-06-22_11-47-51_094959634447_rgbf000070-resize_1-target.png,250,2.195,8,2950,247,feet,jsons/v1_VE250_randls_45.json,642503,819301,45,Man
46,705085,DepthScenes,duration_manipulation_targetAtFixation,jsons/v1_VE250_randls_45.json,http://54.235.29.9/FacialAge/BNav_EC2/DepthDuration/v2_depth_duration_MTurk/v2_DepthDuration_HTML.html#137,137,1920,975,1920,1080,8-29-2022,14-41-19,47,depth_duration_stimuli/002344_2014-06-28_20-06-29_260595134347_rgbf000030-resize_1/002344_2014-06-28_20-06-29_260595134347_rgbf000030-resize_1-target.png,250,1.5795,2,2837,249,feet,jsons/v1_VE250_randls_45.json,642503,819301,45,Man
47,705085,DepthScenes,duration_manipulation_targetAtFixation,jsons/v1_VE250_randls_45.json,http://54.235.29.9/FacialAge/BNav_EC2/DepthDuration/v2_depth_duration_MTurk/v2_DepthDuration_HTML.html#137,137,1920,975,1920,1080,8-29-2022,14-41-19,48,depth_duration_stimuli/000486_2014-06-09_20-47-20_260595134347_rgbf000143-resize_2/000486_2014-06-09_20-47-20_260595134347_rgbf000143-resize_2-target.png,250,4.8325,8,2665,250,feet,jsons/v1_VE250_randls_45.json,642503,819301,45,Man
48,705085,DepthScenes,duration_manipulation_targetAtFixation,jsons/v1_VE250_randls_45.json,http://54.235.29.9/FacialAge/BNav_EC2/DepthDuration/v2_depth_duration_MTurk/v2_DepthDuration_HTML.html#137,137,1920,975,1920,1080,8-29-2022,14-41-19,49,depth_duration_stimuli/003083_2014-06-15_15-21-03_094959634447_rgbf000063-resize_1/003083_2014-06-15_15-21-03_094959634447_rgbf000063-resize_1-target.png,250,4.1405,12,2957,251,feet,jsons/v1_VE250_randls_45.json,642503,819301,45,Man
49,705085,DepthScenes,duration_manipulation_targetAtFixation,jsons/v1_VE250_randls_45.json,http://54.235.29.9/FacialAge/BNav_EC2/DepthDuration/v2_depth_duration_MTurk/v2_DepthDuration_HTML.html#137,137,1920,975,1920,1080,8-29-2022,14-41-19,50,depth_duration_stimuli/001244_2014-06-17_16-47-45_260595134347_rgbf000030-resize_4/001244_2014-06-17_16-47-45_260595134347_rgbf000030-resize_4-target.png,250,2.0425,5,2793,263,feet,jsons/v1_VE250_randls_45.json,642503,819301,45,Man
50,705085,DepthScenes,duration_manipulation_targetAtFixation,jsons/v1_VE250_randls_45.json,http://54.235.29.9/FacialAge/BNav_EC2/DepthDuration/v2_depth_duration_MTurk/v2_DepthDuration_HTML.html#137,137,1920,975,1920,1080,8-29-2022,14-41-19,51,depth_duration_stimuli/003495_2014-05-21_16-01-51_094959634447_rgbf000100-resize_3/003495_2014-05-21_16-01-51_094959634447_rgbf000100-resize_3-target.png,250,1.6255,3,2752,236,feet,jsons/v1_VE250_randls_45.json,642503,819301,45,Man
51,705085,DepthScenes,duration_manipulation_targetAtFixation,jsons/v1_VE250_randls_45.json,http://54.235.29.9/FacialAge/BNav_EC2/DepthDuration/v2_depth_duration_MTurk/v2_DepthDuration_HTML.html#137,137,1920,975,1920,1080,8-29-2022,14-41-19,52,depth_duration_stimuli/002788_2014-06-22_19-36-03_094959634447_rgbf000088-resize_2/002788_2014-06-22_19-36-03_094959634447_rgbf000088-resize_2-target.png,250,1.6465,7,3002,262,feet,jsons/v1_VE250_randls_45.json,642503,819301,45,Man
52,705085,DepthScenes,duration_manipulation_targetAtFixation,jsons/v1_VE250_randls_45.json,http://54.235.29.9/FacialAge/BNav_EC2/DepthDuration/v2_depth_duration_MTurk/v2_DepthDuration_HTML.html#137,137,1920,975,1920,1080,8-29-2022,14-41-19,53,depth_duration_stimuli/000749_2014-06-08_21-55-06_260595134347_rgbf000070-resize_2/000749_2014-06-08_21-55-06_260595134347_rgbf000070-resize_2-target.png,250,2.331,4,2733,248,feet,jsons/v1_VE250_randls_45.json,642503,819301,45,Man
53,705085,DepthScenes,duration_manipulation_targetAtFixation,jsons/v1_VE250_randls_45.json,http://54.235.29.9/FacialAge/BNav_EC2/DepthDuration/v2_depth_duration_MTurk/v2_DepthDuration_HTML.html#137,137,1920,975,1920,1080,8-29-2022,14-41-19,54,depth_duration_stimuli/002763_2014-06-22_19-13-10_094959634447_rgbf000075-resize_4/002763_2014-06-22_19-13-10_094959634447_rgbf000075-resize_4-target.png,250,1.68375,3,3140,251,feet,jsons/v1_VE250_randls_45.json,642503,819301,45,Man
54,705085,DepthScenes,duration_manipulation_targetAtFixation,jsons/v1_VE250_randls_45.json,http://54.235.29.9/FacialAge/BNav_EC2/DepthDuration/v2_depth_duration_MTurk/v2_DepthDuration_HTML.html#137,137,1920,975,1920,1080,8-29-2022,14-41-19,55,depth_duration_stimuli/002209_2014-06-28_18-36-10_260595134347_rgbf000051-resize_1/002209_2014-06-28_18-36-10_260595134347_rgbf000051-resize_1-target.png,250,2.057,2,2557,235,feet,jsons/v1_VE250_randls_45.json,642503,819301,45,Man
55,705085,DepthScenes,duration_manipulation_targetAtFixation,jsons/v1_VE250_randls_45.json,http://54.235.29.9/FacialAge/BNav_EC2/DepthDuration/v2_depth_duration_MTurk/v2_DepthDuration_HTML.html#137,137,1920,975,1920,1080,8-29-2022,14-41-19,56,depth_duration_stimuli/000436_2014-06-09_22-25-11_260595134347_rgbf000137-resize_1/000436_2014-06-09_22-25-11_260595134347_rgbf000137-resize_1-target.png,250,4.0705,12,2768,250,feet,jsons/v1_VE250_randls_45.json,642503,819301,45,Man
56,705085,DepthScenes,duration_manipulation_targetAtFixation,jsons/v1_VE250_randls_45.json,http://54.235.29.9/FacialAge/BNav_EC2/DepthDuration/v2_depth_duration_MTurk/v2_DepthDuration_HTML.html#137,137,1920,975,1920,1080,8-29-2022,14-41-19,57,depth_duration_stimuli/002444_2014-06-28_20-32-08_260595134347_rgbf000027-resize_0/002444_2014-06-28_20-32-08_260595134347_rgbf000027-resize_0-target.png,250,4.388999999999999,14,3061,250,feet,jsons/v1_VE250_randls_45.json,642503,819301,45,Man
57,705085,DepthScenes,duration_manipulation_targetAtFixation,jsons/v1_VE250_randls_45.json,http://54.235.29.9/FacialAge/BNav_EC2/DepthDuration/v2_depth_duration_MTurk/v2_DepthDuration_HTML.html#137,137,1920,975,1920,1080,8-29-2022,14-41-19,58,depth_duration_stimuli/000810_2014-06-08_17-20-01_260595134347_rgbf000105-resize_0/000810_2014-06-08_17-20-01_260595134347_rgbf000105-resize_0-target.png,250,1.4865,6,3443,247,feet,jsons/v1_VE250_randls_45.json,642503,819301,45,Man
58,705085,DepthScenes,duration_manipulation_targetAtFixation,jsons/v1_VE250_randls_45.json,http://54.235.29.9/FacialAge/BNav_EC2/DepthDuration/v2_depth_duration_MTurk/v2_DepthDuration_HTML.html#137,137,1920,975,1920,1080,8-29-2022,14-41-19,59,depth_duration_stimuli/001214_2014-06-17_16-13-55_260595134347_rgbf000111-resize_0/001214_2014-06-17_16-13-55_260595134347_rgbf000111-resize_0-target.png,250,2.6505,4,2874,248,feet,jsons/v1_VE250_randls_45.json,642503,819301,45,Man
59,705085,DepthScenes,duration_manipulation_targetAtFixation,jsons/v1_VE250_randls_45.json,http://54.235.29.9/FacialAge/BNav_EC2/DepthDuration/v2_depth_duration_MTurk/v2_DepthDuration_HTML.html#137,137,1920,975,1920,1080,8-29-2022,14-41-19,60,depth_duration_stimuli/000682_2014-06-08_23-14-58_260595134347_rgbf000041-resize_5/000682_2014-06-08_23-14-58_260595134347_rgbf000041-resize_5-target.png,250,2.7239999999999998,5,3396,265,feet,jsons/v1_VE250_randls_45.json,642503,819301,45,Man
60,705085,DepthScenes,duration_manipulation_targetAtFixation,jsons/v1_VE250_randls_45.json,http://54.235.29.9/FacialAge/BNav_EC2/DepthDuration/v2_depth_duration_MTurk/v2_DepthDuration_HTML.html#137,137,1920,975,1920,1080,8-29-2022,14-41-19,61,depth_duration_stimuli/001650_2014-06-20_12-09-00_260595134347_rgbf000087-resize_3/001650_2014-06-20_12-09-00_260595134347_rgbf000087-resize_3-target.png,250,1.9505,2,2470,250,feet,jsons/v1_VE250_randls_45.json,642503,819301,45,Man
61,705085,DepthScenes,duration_manipulation_targetAtFixation,jsons/v1_VE250_randls_45.json,http://54.235.29.9/FacialAge/BNav_EC2/DepthDuration/v2_depth_duration_MTurk/v2_DepthDuration_HTML.html#137,137,1920,975,1920,1080,8-29-2022,14-41-19,62,depth_duration_stimuli/001133_2014-06-17_14-49-16_260595134347_rgbf000100-resize_0/001133_2014-06-17_14-49-16_260595134347_rgbf000100-resize_0-target.png,250,4.2115,10,3840,249,feet,jsons/v1_VE250_randls_45.json,642503,819301,45,Man
62,705085,DepthScenes,duration_manipulation_targetAtFixation,jsons/v1_VE250_randls_45.json,http://54.235.29.9/FacialAge/BNav_EC2/DepthDuration/v2_depth_duration_MTurk/v2_DepthDuration_HTML.html#137,137,1920,975,1920,1080,8-29-2022,14-41-19,63,depth_duration_stimuli/001132_2014-06-17_14-48-54_260595134347_rgbf000100-resize_2/001132_2014-06-17_14-48-54_260595134347_rgbf000100-resize_2-target.png,250,3.753,12,3028,250,feet,jsons/v1_VE250_randls_45.json,642503,819301,45,Man
63,705085,DepthScenes,duration_manipulation_targetAtFixation,jsons/v1_VE250_randls_45.json,http://54.235.29.9/FacialAge/BNav_EC2/DepthDuration/v2_depth_duration_MTurk/v2_DepthDuration_HTML.html#137,137,1920,975,1920,1080,8-29-2022,14-41-19,64,depth_duration_stimuli/002043_2014-06-24_20-29-38_260595134347_rgbf000039-resize_4/002043_2014-06-24_20-29-38_260595134347_rgbf000039-resize_4-target.png,250,2.8435,8,3069,251,feet,jsons/v1_VE250_randls_45.json,642503,819301,45,Man
64,705085,DepthScenes,duration_manipulation_targetAtFixation,jsons/v1_VE250_randls_45.json,http://54.235.29.9/FacialAge/BNav_EC2/DepthDuration/v2_depth_duration_MTurk/v2_DepthDuration_HTML.html#137,137,1920,975,1920,1080,8-29-2022,14-41-19,65,depth_duration_stimuli/003048_2014-06-15_13-49-43_094959634447_rgbf000150-resize_1/003048_2014-06-15_13-49-43_094959634447_rgbf000150-resize_1-target.png,250,4.0035,12,2799,260,feet,jsons/v1_VE250_randls_45.json,642503,819301,45,Man
65,705085,DepthScenes,duration_manipulation_targetAtFixation,jsons/v1_VE250_randls_45.json,http://54.235.29.9/FacialAge/BNav_EC2/DepthDuration/v2_depth_duration_MTurk/v2_DepthDuration_HTML.html#137,137,1920,975,1920,1080,8-29-2022,14-41-19,66,depth_duration_stimuli/001222_2014-06-17_16-24-06_260595134347_rgbf000073-resize_0/001222_2014-06-17_16-24-06_260595134347_rgbf000073-resize-original.jpg,250,1.4385,0,2843,249,feet,jsons/v1_VE250_randls_45.json,642503,819301,45,Man
66,705085,DepthScenes,duration_manipulation_targetAtFixation,jsons/v1_VE250_randls_45.json,http://54.235.29.9/FacialAge/BNav_EC2/DepthDuration/v2_depth_duration_MTurk/v2_DepthDuration_HTML.html#137,137,1920,975,1920,1080,8-29-2022,14-41-19,67,depth_duration_stimuli/002213_2014-06-28_18-37-58_260595134347_rgbf000055-resize_1/002213_2014-06-28_18-37-58_260595134347_rgbf000055-resize_1-target.png,250,3.62,14,3080,249,feet,jsons/v1_VE250_randls_45.json,642503,819301,45,Man
67,705085,DepthScenes,duration_manipulation_targetAtFixation,jsons/v1_VE250_randls_45.json,http://54.235.29.9/FacialAge/BNav_EC2/DepthDuration/v2_depth_duration_MTurk/v2_DepthDuration_HTML.html#137,137,1920,975,1920,1080,8-29-2022,14-41-19,68,depth_duration_stimuli/000691_2014-06-08_13-08-50_260595134347_rgbf000132-resize_3/000691_2014-06-08_13-08-50_260595134347_rgbf000132-resize_3-target.png,250,4.1530000000000005,10,3643,246,feet,jsons/v1_VE250_randls_45.json,642503,819301,45,Man
68,705085,DepthScenes,duration_manipulation_targetAtFixation,jsons/v1_VE250_randls_45.json,http://54.235.29.9/FacialAge/BNav_EC2/DepthDuration/v2_depth_duration_MTurk/v2_DepthDuration_HTML.html#137,137,1920,975,1920,1080,8-29-2022,14-41-19,69,depth_duration_stimuli/000929_2014-06-09_16-33-19_260595134347_rgbf000139-resize_0/000929_2014-06-09_16-33-19_260595134347_rgbf000139-resize_0-target.png,250,2.8680000000000003,5,2853,242,feet,jsons/v1_VE250_randls_45.json,642503,819301,45,Man
69,705085,DepthScenes,duration_manipulation_targetAtFixation,jsons/v1_VE250_randls_45.json,http://54.235.29.9/FacialAge/BNav_EC2/DepthDuration/v2_depth_duration_MTurk/v2_DepthDuration_HTML.html#137,137,1920,975,1920,1080,8-29-2022,14-41-19,70,depth_duration_stimuli/000457_2014-06-08_16-52-43_260595134347_rgbf000199-resize_1/000457_2014-06-08_16-52-43_260595134347_rgbf000199-resize_1-target.png,250,3.6489999999999996,6,2798,247,feet,jsons/v1_VE250_randls_45.json,642503,819301,45,Man
70,705085,DepthScenes,duration_manipulation_targetAtFixation,jsons/v1_VE250_randls_45.json,http://54.235.29.9/FacialAge/BNav_EC2/DepthDuration/v2_depth_duration_MTurk/v2_DepthDuration_HTML.html#137,137,1920,975,1920,1080,8-29-2022,14-41-19,71,depth_duration_stimuli/000788_2014-06-08_22-34-36_260595134347_rgbf000131-resize_1/000788_2014-06-08_22-34-36_260595134347_rgbf000131-resize_1-target.png,250,3.359,4,2769,236,feet,jsons/v1_VE250_randls_45.json,642503,819301,45,Man
71,705085,DepthScenes,duration_manipulation_targetAtFixation,jsons/v1_VE250_randls_45.json,http://54.235.29.9/FacialAge/BNav_EC2/DepthDuration/v2_depth_duration_MTurk/v2_DepthDuration_HTML.html#137,137,1920,975,1920,1080,8-29-2022,14-41-19,72,depth_duration_stimuli/001235_2014-06-17_16-37-36_260595134347_rgbf000084-resize_4/001235_2014-06-17_16-37-36_260595134347_rgbf000084-resize_4-target.png,250,3.6605,8,3036,258,feet,jsons/v1_VE250_randls_45.json,642503,819301,45,Man
72,705085,DepthScenes,duration_manipulation_targetAtFixation,jsons/v1_VE250_randls_45.json,http://54.235.29.9/FacialAge/BNav_EC2/DepthDuration/v2_depth_duration_MTurk/v2_DepthDuration_HTML.html#137,137,1920,975,1920,1080,8-29-2022,14-41-19,73,depth_duration_stimuli/001011_2014-06-08_23-18-54_260595134347_rgbf000044-resize_4/001011_2014-06-08_23-18-54_260595134347_rgbf000044-resize_4-target.png,250,2.4730000000000003,6,2761,248,feet,jsons/v1_VE250_randls_45.json,642503,819301,45,Man
73,705085,DepthScenes,duration_manipulation_targetAtFixation,jsons/v1_VE250_randls_45.json,http://54.235.29.9/FacialAge/BNav_EC2/DepthDuration/v2_depth_duration_MTurk/v2_DepthDuration_HTML.html#137,137,1920,975,1920,1080,8-29-2022,14-41-19,74,depth_duration_stimuli/002875_2014-06-01_15-19-00_094959634447_rgbf000151-resize_1/002875_2014-06-01_15-19-00_094959634447_rgbf000151-resize_1-target.png,250,1.9675,4,2814,250,feet,jsons/v1_VE250_randls_45.json,642503,819301,45,Man
74,705085,DepthScenes,duration_manipulation_targetAtFixation,jsons/v1_VE250_randls_45.json,http://54.235.29.9/FacialAge/BNav_EC2/DepthDuration/v2_depth_duration_MTurk/v2_DepthDuration_HTML.html#137,137,1920,975,1920,1080,8-29-2022,14-41-19,75,depth_duration_stimuli/002039_2014-06-24_20-22-38_260595134347_rgbf000084-resize_1/002039_2014-06-24_20-22-38_260595134347_rgbf000084-resize_1-target.png,250,4.408,10,3394,248,feet,jsons/v1_VE250_randls_45.json,642503,819301,45,Man
75,705085,DepthScenes,duration_manipulation_targetAtFixation,jsons/v1_VE250_randls_45.json,http://54.235.29.9/FacialAge/BNav_EC2/DepthDuration/v2_depth_duration_MTurk/v2_DepthDuration_HTML.html#137,137,1920,975,1920,1080,8-29-2022,14-41-19,76,depth_duration_stimuli/002103_2014-06-25_20-00-40_260595134347_rgbf000049-resize_0/002103_2014-06-25_20-00-40_260595134347_rgbf000049-resize_0-target.png,250,4.105,8,2939,248,feet,jsons/v1_VE250_randls_45.json,642503,819301,45,Man
76,705085,DepthScenes,duration_manipulation_targetAtFixation,jsons/v1_VE250_randls_45.json,http://54.235.29.9/FacialAge/BNav_EC2/DepthDuration/v2_depth_duration_MTurk/v2_DepthDuration_HTML.html#137,137,1920,975,1920,1080,8-29-2022,14-41-19,77,depth_duration_stimuli/002549_2014-06-24_13-41-39_094959634447_rgbf000022-resize_3/002549_2014-06-24_13-41-39_094959634447_rgbf000022-resize_3-target.png,250,1.476,2,2754,253,feet,jsons/v1_VE250_randls_45.json,642503,819301,45,Man
77,705085,DepthScenes,duration_manipulation_targetAtFixation,jsons/v1_VE250_randls_45.json,http://54.235.29.9/FacialAge/BNav_EC2/DepthDuration/v2_depth_duration_MTurk/v2_DepthDuration_HTML.html#137,137,1920,975,1920,1080,8-29-2022,14-41-19,78,depth_duration_stimuli/002750_2014-06-22_19-08-03_094959634447_rgbf000094-resize_4/002750_2014-06-22_19-08-03_094959634447_rgbf000094-resize_4-target.png,250,2.354,6,5495,260,feet,jsons/v1_VE250_randls_45.json,642503,819301,45,Man
78,705085,DepthScenes,duration_manipulation_targetAtFixation,jsons/v1_VE250_randls_45.json,http://54.235.29.9/FacialAge/BNav_EC2/DepthDuration/v2_depth_duration_MTurk/v2_DepthDuration_HTML.html#137,137,1920,975,1920,1080,8-29-2022,14-41-19,79,depth_duration_stimuli/000758_2014-06-08_22-05-08_260595134347_rgbf000085-resize_0/000758_2014-06-08_22-05-08_260595134347_rgbf000085-resize_0-target.png,250,3.3810000000000002,10,3371,249,feet,jsons/v1_VE250_randls_45.json,642503,819301,45,Man
79,705085,DepthScenes,duration_manipulation_targetAtFixation,jsons/v1_VE250_randls_45.json,http://54.235.29.9/FacialAge/BNav_EC2/DepthDuration/v2_depth_duration_MTurk/v2_DepthDuration_HTML.html#137,137,1920,975,1920,1080,8-29-2022,14-41-19,80,depth_duration_stimuli/000854_2014-06-09_19-43-13_260595134347_rgbf000066-resize_0/000854_2014-06-09_19-43-13_260595134347_rgbf000066-resize_0-target.png,250,3.068,6,2914,250,feet,jsons/v1_VE250_randls_45.json,642503,819301,45,Man
80,705085,DepthScenes,duration_manipulation_targetAtFixation,jsons/v1_VE250_randls_45.json,http://54.235.29.9/FacialAge/BNav_EC2/DepthDuration/v2_depth_duration_MTurk/v2_DepthDuration_HTML.html#137,137,1920,975,1920,1080,8-29-2022,14-41-19,81,depth_duration_stimuli/000470_2014-06-09_19-42-40_260595134347_rgbf000094-resize_1/000470_2014-06-09_19-42-40_260595134347_rgbf000094-resize_1-target.png,250,1.831,3,2518,255,feet,jsons/v1_VE250_randls_45.json,642503,819301,45,Man
81,705085,DepthScenes,duration_manipulation_targetAtFixation,jsons/v1_VE250_randls_45.json,http://54.235.29.9/FacialAge/BNav_EC2/DepthDuration/v2_depth_duration_MTurk/v2_DepthDuration_HTML.html#137,137,1920,975,1920,1080,8-29-2022,14-41-19,82,depth_duration_stimuli/000109_2014-05-14_23-41-52_260595134347_rgbf000035-resize_9/000109_2014-05-14_23-41-52_260595134347_rgbf000035-resize_9-target.png,250,1.3545,2,2773,251,feet,jsons/v1_VE250_randls_45.json,642503,819301,45,Man
82,705085,DepthScenes,duration_manipulation_targetAtFixation,jsons/v1_VE250_randls_45.json,http://54.235.29.9/FacialAge/BNav_EC2/DepthDuration/v2_depth_duration_MTurk/v2_DepthDuration_HTML.html#137,137,1920,975,1920,1080,8-29-2022,14-41-19,83,depth_duration_stimuli/002663_2014-06-13_15-50-26_094959634447_rgbf000075-resize_1/002663_2014-06-13_15-50-26_094959634447_rgbf000075-resize_1-target.png,250,4.7495,8,3323,254,feet,jsons/v1_VE250_randls_45.json,642503,819301,45,Man
83,705085,DepthScenes,duration_manipulation_targetAtFixation,jsons/v1_VE250_randls_45.json,http://54.235.29.9/FacialAge/BNav_EC2/DepthDuration/v2_depth_duration_MTurk/v2_DepthDuration_HTML.html#137,137,1920,975,1920,1080,8-29-2022,14-41-19,84,depth_duration_stimuli/000409_2014-06-04_19-23-33_260595134347_rgbf000067-resize_0/000409_2014-06-04_19-23-33_260595134347_rgbf000067-resize_0-target.png,250,3.7335,7,2748,250,feet,jsons/v1_VE250_randls_45.json,642503,819301,45,Man
84,705085,DepthScenes,duration_manipulation_targetAtFixation,jsons/v1_VE250_randls_45.json,http://54.235.29.9/FacialAge/BNav_EC2/DepthDuration/v2_depth_duration_MTurk/v2_DepthDuration_HTML.html#137,137,1920,975,1920,1080,8-29-2022,14-41-19,85,depth_duration_stimuli/001417_2014-06-19_16-25-36_260595134347_rgbf000115-resize_5/001417_2014-06-19_16-25-36_260595134347_rgbf000115-resize_5-target.png,250,4.6255,12,3007,249,feet,jsons/v1_VE250_randls_45.json,642503,819301,45,Man
85,705085,DepthScenes,duration_manipulation_targetAtFixation,jsons/v1_VE250_randls_45.json,http://54.235.29.9/FacialAge/BNav_EC2/DepthDuration/v2_depth_duration_MTurk/v2_DepthDuration_HTML.html#137,137,1920,975,1920,1080,8-29-2022,14-41-19,86,depth_duration_stimuli/003081_2014-06-15_15-19-16_094959634447_rgbf000150-resize_1/003081_2014-06-15_15-19-16_094959634447_rgbf000150-resize_1-target.png,250,3.9125,10,3214,250,feet,jsons/v1_VE250_randls_45.json,642503,819301,45,Man
86,705085,DepthScenes,duration_manipulation_targetAtFixation,jsons/v1_VE250_randls_45.json,http://54.235.29.9/FacialAge/BNav_EC2/DepthDuration/v2_depth_duration_MTurk/v2_DepthDuration_HTML.html#137,137,1920,975,1920,1080,8-29-2022,14-41-19,87,depth_duration_stimuli/002375_2014-06-28_20-13-44_260595134347_rgbf000032-resize_1/002375_2014-06-28_20-13-44_260595134347_rgbf000032-resize_1-target.png,250,4.0175,10,3955,243,feet,jsons/v1_VE250_randls_45.json,642503,819301,45,Man
87,705085,DepthScenes,duration_manipulation_targetAtFixation,jsons/v1_VE250_randls_45.json,http://54.235.29.9/FacialAge/BNav_EC2/DepthDuration/v2_depth_duration_MTurk/v2_DepthDuration_HTML.html#137,137,1920,975,1920,1080,8-29-2022,14-41-19,88,depth_duration_stimuli/002657_2014-06-13_15-29-54_094959634447_rgbf000150-resize_1/002657_2014-06-13_15-29-54_094959634447_rgbf000150-resize_1-target.png,250,4.919,12,3781,235,feet,jsons/v1_VE250_randls_45.json,642503,819301,45,Man
88,705085,DepthScenes,duration_manipulation_targetAtFixation,jsons/v1_VE250_randls_45.json,http://54.235.29.9/FacialAge/BNav_EC2/DepthDuration/v2_depth_duration_MTurk/v2_DepthDuration_HTML.html#137,137,1920,975,1920,1080,8-29-2022,14-41-19,89,depth_duration_stimuli/001810_2014-06-26_20-51-35_260595134347_rgbf000040-resize_3/001810_2014-06-26_20-51-35_260595134347_rgbf000040-resize_3-target.png,250,2.2525,3,10481,251,feet,jsons/v1_VE250_randls_45.json,642503,819301,45,Man
89,705085,DepthScenes,duration_manipulation_targetAtFixation,jsons/v1_VE250_randls_45.json,http://54.235.29.9/FacialAge/BNav_EC2/DepthDuration/v2_depth_duration_MTurk/v2_DepthDuration_HTML.html#137,137,1920,975,1920,1080,8-29-2022,14-41-19,90,depth_duration_stimuli/003010_2014-06-15_12-54-35_094959634447_rgbf000112-resize_0/003010_2014-06-15_12-54-35_094959634447_rgbf000112-resize_0-target.png,250,3.1185,14,3749,253,feet,jsons/v1_VE250_randls_45.json,642503,819301,45,Man
90,705085,DepthScenes,duration_manipulation_targetAtFixation,jsons/v1_VE250_randls_45.json,http://54.235.29.9/FacialAge/BNav_EC2/DepthDuration/v2_depth_duration_MTurk/v2_DepthDuration_HTML.html#137,137,1920,975,1920,1080,8-29-2022,14-41-19,91,depth_duration_stimuli/002784_2014-06-22_19-26-30_094959634447_rgbf000083-resize_3/002784_2014-06-22_19-26-30_094959634447_rgbf000083-resize_3-target.png,250,1.8046666666667,3,2785,250,feet,jsons/v1_VE250_randls_45.json,642503,819301,45,Man
91,705085,DepthScenes,duration_manipulation_targetAtFixation,jsons/v1_VE250_randls_45.json,http://54.235.29.9/FacialAge/BNav_EC2/DepthDuration/v2_depth_duration_MTurk/v2_DepthDuration_HTML.html#137,137,1920,975,1920,1080,8-29-2022,14-41-19,92,depth_duration_stimuli/001100_2014-06-15_17-46-26_260595134347_rgbf000225-resize_2/001100_2014-06-15_17-46-26_260595134347_rgbf000225-resize_2-target.png,250,2.24,2,2797,254,feet,jsons/v1_VE250_randls_45.json,642503,819301,45,Man
92,705085,DepthScenes,duration_manipulation_targetAtFixation,jsons/v1_VE250_randls_45.json,http://54.235.29.9/FacialAge/BNav_EC2/DepthDuration/v2_depth_duration_MTurk/v2_DepthDuration_HTML.html#137,137,1920,975,1920,1080,8-29-2022,14-41-19,93,depth_duration_stimuli/002509_2014-06-24_13-19-22_094959634447_rgbf000077-resize_0/002509_2014-06-24_13-19-22_094959634447_rgbf000077-resize_0-target.png,250,1.3065,3,2846,260,feet,jsons/v1_VE250_randls_45.json,642503,819301,45,Man
93,705085,DepthScenes,duration_manipulation_targetAtFixation,jsons/v1_VE250_randls_45.json,http://54.235.29.9/FacialAge/BNav_EC2/DepthDuration/v2_depth_duration_MTurk/v2_DepthDuration_HTML.html#137,137,1920,975,1920,1080,8-29-2022,14-41-19,94,depth_duration_stimuli/003338_2014-05-20_11-01-23_094959634447_rgbf000051-resize_6/003338_2014-05-20_11-01-23_094959634447_rgbf000051-resize_6-target.png,250,1.693,4,2710,249,feet,jsons/v1_VE250_randls_45.json,642503,819301,45,Man
94,705085,DepthScenes,duration_manipulation_targetAtFixation,jsons/v1_VE250_randls_45.json,http://54.235.29.9/FacialAge/BNav_EC2/DepthDuration/v2_depth_duration_MTurk/v2_DepthDuration_HTML.html#137,137,1920,975,1920,1080,8-29-2022,14-41-19,95,depth_duration_stimuli/000739_2014-06-08_18-45-58_260595134347_rgbf000068-resize_1/000739_2014-06-08_18-45-58_260595134347_rgbf000068-resize_1-target.png,250,3.534,12,3171,248,feet,jsons/v1_VE250_randls_45.json,642503,819301,45,Man
95,705085,DepthScenes,duration_manipulation_targetAtFixation,jsons/v1_VE250_randls_45.json,http://54.235.29.9/FacialAge/BNav_EC2/DepthDuration/v2_depth_duration_MTurk/v2_DepthDuration_HTML.html#137,137,1920,975,1920,1080,8-29-2022,14-41-19,96,depth_duration_stimuli/000734_2014-06-08_17-39-11_260595134347_rgbf000128-resize_2/000734_2014-06-08_17-39-11_260595134347_rgbf000128-resize_2-target.png,250,4.098,8,2954,247,feet,jsons/v1_VE250_randls_45.json,642503,819301,45,Man
96,705085,DepthScenes,duration_manipulation_targetAtFixation,jsons/v1_VE250_randls_45.json,http://54.235.29.9/FacialAge/BNav_EC2/DepthDuration/v2_depth_duration_MTurk/v2_DepthDuration_HTML.html#137,137,1920,975,1920,1080,8-29-2022,14-41-19,97,depth_duration_stimuli/001570_2014-06-20_17-21-09_260595134347_rgbf000135-resize_4/001570_2014-06-20_17-21-09_260595134347_rgbf000135-resize_4-target.png,250,4.467,15,3204,247,feet,jsons/v1_VE250_randls_45.json,642503,819301,45,Man
97,705085,DepthScenes,duration_manipulation_targetAtFixation,jsons/v1_VE250_randls_45.json,http://54.235.29.9/FacialAge/BNav_EC2/DepthDuration/v2_depth_duration_MTurk/v2_DepthDuration_HTML.html#137,137,1920,975,1920,1080,8-29-2022,14-41-19,98,depth_duration_stimuli/001392_2014-06-19_16-07-59_260595134347_rgbf000046-resize_1/001392_2014-06-19_16-07-59_260595134347_rgbf000046-resize_1-target.png,250,4.135,16,3386,240,feet,jsons/v1_VE250_randls_45.json,642503,819301,45,Man
98,705085,DepthScenes,duration_manipulation_targetAtFixation,jsons/v1_VE250_randls_45.json,http://54.235.29.9/FacialAge/BNav_EC2/DepthDuration/v2_depth_duration_MTurk/v2_DepthDuration_HTML.html#137,137,1920,975,1920,1080,8-29-2022,14-41-19,99,depth_duration_stimuli/001540_2014-06-20_17-01-05_260595134347_rgbf000086-resize_2/001540_2014-06-20_17-01-05_260595134347_rgbf000086-resize-original.jpg,250,1.459,0,3090,262,feet,jsons/v1_VE250_randls_45.json,642503,819301,45,Man
99,705085,DepthScenes,duration_manipulation_targetAtFixation,jsons/v1_VE250_randls_45.json,http://54.235.29.9/FacialAge/BNav_EC2/DepthDuration/v2_depth_duration_MTurk/v2_DepthDuration_HTML.html#137,137,1920,975,1920,1080,8-29-2022,14-41-19,100,depth_duration_stimuli/000493_2014-06-09_21-01-18_260595134347_rgbf000196-resize_3/000493_2014-06-09_21-01-18_260595134347_rgbf000196-resize_3-target.png,250,3.44,6,3122,249,feet,jsons/v1_VE250_randls_45.json,642503,819301,45,Man
100,705085,DepthScenes,duration_manipulation_targetAtFixation,jsons/v1_VE250_randls_45.json,http://54.235.29.9/FacialAge/BNav_EC2/DepthDuration/v2_depth_duration_MTurk/v2_DepthDuration_HTML.html#137,137,1920,975,1920,1080,8-29-2022,14-41-19,101,depth_duration_stimuli/000191_2014-05-12_17-07-38_260595134347_rgbf000199-resize_0/000191_2014-05-12_17-07-38_260595134347_rgbf000199-resize_0-target.png,250,3.7995,10,4038,249,feet,jsons/v1_VE250_randls_45.json,642503,819301,45,Man
101,705085,DepthScenes,duration_manipulation_targetAtFixation,jsons/v1_VE250_randls_45.json,http://54.235.29.9/FacialAge/BNav_EC2/DepthDuration/v2_depth_duration_MTurk/v2_DepthDuration_HTML.html#137,137,1920,975,1920,1080,8-29-2022,14-41-19,102,depth_duration_stimuli/001175_2014-06-17_15-45-55_260595134347_rgbf000129-resize_4/001175_2014-06-17_15-45-55_260595134347_rgbf000129-resize_4-target.png,250,4.255,14,3215,256,feet,jsons/v1_VE250_randls_45.json,642503,819301,45,Man
102,705085,DepthScenes,duration_manipulation_targetAtFixation,jsons/v1_VE250_randls_45.json,http://54.235.29.9/FacialAge/BNav_EC2/DepthDuration/v2_depth_duration_MTurk/v2_DepthDuration_HTML.html#137,137,1920,975,1920,1080,8-29-2022,14-41-19,103,depth_duration_stimuli/003490_2014-05-21_15-50-11_094959634447_rgbf000101-resize_3/003490_2014-05-21_15-50-11_094959634447_rgbf000101-resize_3-target.png,250,3.6445,10,3410,248,feet,jsons/v1_VE250_randls_45.json,642503,819301,45,Man
103,705085,DepthScenes,duration_manipulation_targetAtFixation,jsons/v1_VE250_randls_45.json,http://54.235.29.9/FacialAge/BNav_EC2/DepthDuration/v2_depth_duration_MTurk/v2_DepthDuration_HTML.html#137,137,1920,975,1920,1080,8-29-2022,14-41-19,104,depth_duration_stimuli/001199_2014-06-17_16-03-48_260595134347_rgbf000077-resize_0/001199_2014-06-17_16-03-48_260595134347_rgbf000077-resize_0-target.png,250,3.4375,12,2915,242,feet,jsons/v1_VE250_randls_45.json,642503,819301,45,Man
104,705085,DepthScenes,duration_manipulation_targetAtFixation,jsons/v1_VE250_randls_45.json,http://54.235.29.9/FacialAge/BNav_EC2/DepthDuration/v2_depth_duration_MTurk/v2_DepthDuration_HTML.html#137,137,1920,975,1920,1080,8-29-2022,14-41-19,105,depth_duration_stimuli/000502_2014-06-08_23-02-32_260595134347_rgbf000063-resize_4/000502_2014-06-08_23-02-32_260595134347_rgbf000063-resize_4-target.png,250,2.431,3,2677,255,feet,jsons/v1_VE250_randls_45.json,642503,819301,45,Man
105,705085,DepthScenes,duration_manipulation_targetAtFixation,jsons/v1_VE250_randls_45.json,http://54.235.29.9/FacialAge/BNav_EC2/DepthDuration/v2_depth_duration_MTurk/v2_DepthDuration_HTML.html#137,137,1920,975,1920,1080,8-29-2022,14-41-19,106,depth_duration_stimuli/001016_2014-06-09_16-16-10_260595134347_rgbf000112-resize_5/001016_2014-06-09_16-16-10_260595134347_rgbf000112-resize_5-target.png,250,1.6565,7,3106,250,feet,jsons/v1_VE250_randls_45.json,642503,819301,45,Man
106,705085,DepthScenes,duration_manipulation_targetAtFixation,jsons/v1_VE250_randls_45.json,http://54.235.29.9/FacialAge/BNav_EC2/DepthDuration/v2_depth_duration_MTurk/v2_DepthDuration_HTML.html#137,137,1920,975,1920,1080,8-29-2022,14-41-19,107,depth_duration_stimuli/002340_2014-06-28_20-05-46_260595134347_rgbf000113-resize_0/002340_2014-06-28_20-05-46_260595134347_rgbf000113-resize_0-target.png,250,2.4735,8,2776,249,feet,jsons/v1_VE250_randls_45.json,642503,819301,45,Man
107,705085,DepthScenes,duration_manipulation_targetAtFixation,jsons/v1_VE250_randls_45.json,http://54.235.29.9/FacialAge/BNav_EC2/DepthDuration/v2_depth_duration_MTurk/v2_DepthDuration_HTML.html#137,137,1920,975,1920,1080,8-29-2022,14-41-19,108,depth_duration_stimuli/002630_2014-06-24_14-47-50_094959634447_rgbf000055-resize_1/002630_2014-06-24_14-47-50_094959634447_rgbf000055-resize_1-target.png,250,3.0095,10,3318,248,feet,jsons/v1_VE250_randls_45.json,642503,819301,45,Man
108,705085,DepthScenes,duration_manipulation_targetAtFixation,jsons/v1_VE250_randls_45.json,http://54.235.29.9/FacialAge/BNav_EC2/DepthDuration/v2_depth_duration_MTurk/v2_DepthDuration_HTML.html#137,137,1920,975,1920,1080,8-29-2022,14-41-19,109,depth_duration_stimuli/002758_2014-06-22_19-11-20_094959634447_rgbf000128-resize_1/002758_2014-06-22_19-11-20_094959634447_rgbf000128-resize_1-target.png,250,2.555,4,2664,247,feet,jsons/v1_VE250_randls_45.json,642503,819301,45,Man
109,705085,DepthScenes,duration_manipulation_targetAtFixation,jsons/v1_VE250_randls_45.json,http://54.235.29.9/FacialAge/BNav_EC2/DepthDuration/v2_depth_duration_MTurk/v2_DepthDuration_HTML.html#137,137,1920,975,1920,1080,8-29-2022,14-41-19,110,depth_duration_stimuli/000917_2014-06-09_22-45-29_260595134347_rgbf000149-resize_3/000917_2014-06-09_22-45-29_260595134347_rgbf000149-resize_3-target.png,250,4.1865,12,2955,254,feet,jsons/v1_VE250_randls_45.json,642503,819301,45,Man
110,705085,DepthScenes,duration_manipulation_targetAtFixation,jsons/v1_VE250_randls_45.json,http://54.235.29.9/FacialAge/BNav_EC2/DepthDuration/v2_depth_duration_MTurk/v2_DepthDuration_HTML.html#137,137,1920,975,1920,1080,8-29-2022,14-41-19,111,depth_duration_stimuli/002323_2014-06-28_20-01-54_260595134347_rgbf000051-resize_4/002323_2014-06-28_20-01-54_260595134347_rgbf000051-resize_4-target.png,250,3.7310000000000003,10,3376,253,feet,jsons/v1_VE250_randls_45.json,642503,819301,45,Man
111,705085,DepthScenes,duration_manipulation_targetAtFixation,jsons/v1_VE250_randls_45.json,http://54.235.29.9/FacialAge/BNav_EC2/DepthDuration/v2_depth_duration_MTurk/v2_DepthDuration_HTML.html#137,137,1920,975,1920,1080,8-29-2022,14-41-19,112,depth_duration_stimuli/001055_2014-06-08_18-45-35_260595134347_rgbf000111-resize_4/001055_2014-06-08_18-45-35_260595134347_rgbf000111-resize_4-target.png,250,2.4290000000000003,12,40780,260,feet,jsons/v1_VE250_randls_45.json,642503,819301,45,Man
112,705085,DepthScenes,duration_manipulation_targetAtFixation,jsons/v1_VE250_randls_45.json,http://54.235.29.9/FacialAge/BNav_EC2/DepthDuration/v2_depth_duration_MTurk/v2_DepthDuration_HTML.html#137,137,1920,975,1920,1080,8-29-2022,14-41-19,113,depth_duration_stimuli/000549_2014-06-08_22-10-24_260595134347_rgbf000247-resize_3/000549_2014-06-08_22-10-24_260595134347_rgbf000247-resize_3-target.png,250,1.841,2,2682,250,feet,jsons/v1_VE250_randls_45.json,642503,819301,45,Man
113,705085,DepthScenes,duration_manipulation_targetAtFixation,jsons/v1_VE250_randls_45.json,http://54.235.29.9/FacialAge/BNav_EC2/DepthDuration/v2_depth_duration_MTurk/v2_DepthDuration_HTML.html#137,137,1920,975,1920,1080,8-29-2022,14-41-19,114,depth_duration_stimuli/000469_2014-06-09_19-42-10_260595134347_rgbf000081-resize_1/000469_2014-06-09_19-42-10_260595134347_rgbf000081-resize_1-target.png,250,1.652,3,2434,255,feet,jsons/v1_VE250_randls_45.json,642503,819301,45,Man
114,705085,DepthScenes,duration_manipulation_targetAtFixation,jsons/v1_VE250_randls_45.json,http://54.235.29.9/FacialAge/BNav_EC2/DepthDuration/v2_depth_duration_MTurk/v2_DepthDuration_HTML.html#137,137,1920,975,1920,1080,8-29-2022,14-41-19,115,depth_duration_stimuli/000483_2014-06-09_20-41-45_260595134347_rgbf000116-resize_4/000483_2014-06-09_20-41-45_260595134347_rgbf000116-resize_4-target.png,250,1.337,2,2316,258,feet,jsons/v1_VE250_randls_45.json,642503,819301,45,Man
115,705085,DepthScenes,duration_manipulation_targetAtFixation,jsons/v1_VE250_randls_45.json,http://54.235.29.9/FacialAge/BNav_EC2/DepthDuration/v2_depth_duration_MTurk/v2_DepthDuration_HTML.html#137,137,1920,975,1920,1080,8-29-2022,14-41-19,116,depth_duration_stimuli/001170_2014-06-17_15-43-44_260595134347_rgbf000096-resize_6/001170_2014-06-17_15-43-44_260595134347_rgbf000096-resize-original.jpg,250,1.1909999999999998,0,3031,247,feet,jsons/v1_VE250_randls_45.json,642503,819301,45,Man
116,705085,DepthScenes,duration_manipulation_targetAtFixation,jsons/v1_VE250_randls_45.json,http://54.235.29.9/FacialAge/BNav_EC2/DepthDuration/v2_depth_duration_MTurk/v2_DepthDuration_HTML.html#137,137,1920,975,1920,1080,8-29-2022,14-41-19,117,depth_duration_stimuli/002964_2014-06-08_17-46-11_094959634447_rgbf000091-resize_4/002964_2014-06-08_17-46-11_094959634447_rgbf000091-resize_4-target.png,250,1.6909999999999998,2,2647,249,feet,jsons/v1_VE250_randls_45.json,642503,819301,45,Man
117,705085,DepthScenes,duration_manipulation_targetAtFixation,jsons/v1_VE250_randls_45.json,http://54.235.29.9/FacialAge/BNav_EC2/DepthDuration/v2_depth_duration_MTurk/v2_DepthDuration_HTML.html#137,137,1920,975,1920,1080,8-29-2022,14-41-19,118,depth_duration_stimuli/002136_2014-06-25_21-18-03_260595134347_rgbf000109-resize_3/002136_2014-06-25_21-18-03_260595134347_rgbf000109-resize_3-target.png,250,1.9569999999999999,5,2765,249,feet,jsons/v1_VE250_randls_45.json,642503,819301,45,Man
118,705085,DepthScenes,duration_manipulation_targetAtFixation,jsons/v1_VE250_randls_45.json,http://54.235.29.9/FacialAge/BNav_EC2/DepthDuration/v2_depth_duration_MTurk/v2_DepthDuration_HTML.html#137,137,1920,975,1920,1080,8-29-2022,14-41-19,119,depth_duration_stimuli/001056_2014-06-08_18-46-44_260595134347_rgbf000068-resize_0/001056_2014-06-08_18-46-44_260595134347_rgbf000068-resize_0-target.png,250,2.6625,8,2724,264,feet,jsons/v1_VE250_randls_45.json,642503,819301,45,Man
119,705085,DepthScenes,duration_manipulation_targetAtFixation,jsons/v1_VE250_randls_45.json,http://54.235.29.9/FacialAge/BNav_EC2/DepthDuration/v2_depth_duration_MTurk/v2_DepthDuration_HTML.html#137,137,1920,975,1920,1080,8-29-2022,14-41-19,120,depth_duration_stimuli/002199_2014-06-28_18-33-56_260595134347_rgbf000074-resize_0/002199_2014-06-28_18-33-56_260595134347_rgbf000074-resize_0-target.png,250,1.996,2,2800,246,feet,jsons/v1_VE250_randls_45.json,642503,819301,45,Man
120,705085,DepthScenes,duration_manipulation_targetAtFixation,jsons/v1_VE250_randls_45.json,http://54.235.29.9/FacialAge/BNav_EC2/DepthDuration/v2_depth_duration_MTurk/v2_DepthDuration_HTML.html#137,137,1920,975,1920,1080,8-29-2022,14-41-19,121,depth_duration_stimuli/001167_2014-06-17_15-38-07_260595134347_rgbf000108-resize_0/001167_2014-06-17_15-38-07_260595134347_rgbf000108-resize_0-target.png,250,1.8505,3,2623,249,feet,jsons/v1_VE250_randls_45.json,642503,819301,45,Man
121,705085,DepthScenes,duration_manipulation_targetAtFixation,jsons/v1_VE250_randls_45.json,http://54.235.29.9/FacialAge/BNav_EC2/DepthDuration/v2_depth_duration_MTurk/v2_DepthDuration_HTML.html#137,137,1920,975,1920,1080,8-29-2022,14-41-19,122,depth_duration_stimuli/003587_2014-05-23_16-48-02_094959634447_rgbf002384-resize_2/003587_2014-05-23_16-48-02_094959634447_rgbf002384-resize_2-target.png,250,1.357,2,3110,253,feet,jsons/v1_VE250_randls_45.json,642503,819301,45,Man
122,705085,DepthScenes,duration_manipulation_targetAtFixation,jsons/v1_VE250_randls_45.json,http://54.235.29.9/FacialAge/BNav_EC2/DepthDuration/v2_depth_duration_MTurk/v2_DepthDuration_HTML.html#137,137,1920,975,1920,1080,8-29-2022,14-41-19,123,depth_duration_stimuli/002279_2014-06-28_18-55-32_260595134347_rgbf000040-resize_5/002279_2014-06-28_18-55-32_260595134347_rgbf000040-resize_5-target.png,250,1.5043333333333,3,2780,251,feet,jsons/v1_VE250_randls_45.json,642503,819301,45,Man
123,705085,DepthScenes,duration_manipulation_targetAtFixation,jsons/v1_VE250_randls_45.json,http://54.235.29.9/FacialAge/BNav_EC2/DepthDuration/v2_depth_duration_MTurk/v2_DepthDuration_HTML.html#137,137,1920,975,1920,1080,8-29-2022,14-41-19,124,depth_duration_stimuli/000635_2014-06-08_16-38-42_260595134347_rgbf000106-resize_1/000635_2014-06-08_16-38-42_260595134347_rgbf000106-resize_1-target.png,250,2.074,9,2917,249,feet,jsons/v1_VE250_randls_45.json,642503,819301,45,Man
124,705085,DepthScenes,duration_manipulation_targetAtFixation,jsons/v1_VE250_randls_45.json,http://54.235.29.9/FacialAge/BNav_EC2/DepthDuration/v2_depth_duration_MTurk/v2_DepthDuration_HTML.html#137,137,1920,975,1920,1080,8-29-2022,14-41-19,125,depth_duration_stimuli/002153_2014-06-25_21-27-18_260595134347_rgbf000038-resize_5/002153_2014-06-25_21-27-18_260595134347_rgbf000038-resize_5-target.png,250,2.505,6,2773,253,feet,jsons/v1_VE250_randls_45.json,642503,819301,45,Man
125,705085,DepthScenes,duration_manipulation_targetAtFixation,jsons/v1_VE250_randls_45.json,http://54.235.29.9/FacialAge/BNav_EC2/DepthDuration/v2_depth_duration_MTurk/v2_DepthDuration_HTML.html#137,137,1920,975,1920,1080,8-29-2022,14-41-19,126,depth_duration_stimuli/002660_2014-06-13_15-44-18_094959634447_rgbf001878-resize_2/002660_2014-06-13_15-44-18_094959634447_rgbf001878-resize_2-target.png,250,3.576,10,3645,249,feet,jsons/v1_VE250_randls_45.json,642503,819301,45,Man
126,705085,DepthScenes,duration_manipulation_targetAtFixation,jsons/v1_VE250_randls_45.json,http://54.235.29.9/FacialAge/BNav_EC2/DepthDuration/v2_depth_duration_MTurk/v2_DepthDuration_HTML.html#137,137,1920,975,1920,1080,8-29-2022,14-41-19,127,depth_duration_stimuli/000447_2014-06-08_16-15-46_260595134347_rgbf000130-resize_1/000447_2014-06-08_16-15-46_260595134347_rgbf000130-resize_1-target.png,250,4.479,9,2668,241,feet,jsons/v1_VE250_randls_45.json,642503,819301,45,Man
127,705085,DepthScenes,duration_manipulation_targetAtFixation,jsons/v1_VE250_randls_45.json,http://54.235.29.9/FacialAge/BNav_EC2/DepthDuration/v2_depth_duration_MTurk/v2_DepthDuration_HTML.html#137,137,1920,975,1920,1080,8-29-2022,14-41-19,128,depth_duration_stimuli/001447_2014-06-19_17-00-32_260595134347_rgbf000082-resize_5/001447_2014-06-19_17-00-32_260595134347_rgbf000082-resize_5-target.png,250,4.13775,10,4193,249,feet,jsons/v1_VE250_randls_45.json,642503,819301,45,Man
128,705085,DepthScenes,duration_manipulation_targetAtFixation,jsons/v1_VE250_randls_45.json,http://54.235.29.9/FacialAge/BNav_EC2/DepthDuration/v2_depth_duration_MTurk/v2_DepthDuration_HTML.html#137,137,1920,975,1920,1080,8-29-2022,14-41-19,129,depth_duration_stimuli/001092_2014-06-15_17-34-58_260595134347_rgbf000171-resize_3/001092_2014-06-15_17-34-58_260595134347_rgbf000171-resize_3-target.png,250,2.6935,6,2873,249,feet,jsons/v1_VE250_randls_45.json,642503,819301,45,Man
129,705085,DepthScenes,duration_manipulation_targetAtFixation,jsons/v1_VE250_randls_45.json,http://54.235.29.9/FacialAge/BNav_EC2/DepthDuration/v2_depth_duration_MTurk/v2_DepthDuration_HTML.html#137,137,1920,975,1920,1080,8-29-2022,14-41-19,130,depth_duration_stimuli/002545_2014-06-24_13-38-53_094959634447_rgbf000080-resize_4/002545_2014-06-24_13-38-53_094959634447_rgbf000080-resize_4-target.png,250,1.9205,7,2666,249,feet,jsons/v1_VE250_randls_45.json,642503,819301,45,Man
130,705085,DepthScenes,duration_manipulation_targetAtFixation,jsons/v1_VE250_randls_45.json,http://54.235.29.9/FacialAge/BNav_EC2/DepthDuration/v2_depth_duration_MTurk/v2_DepthDuration_HTML.html#137,137,1920,975,1920,1080,8-29-2022,14-41-19,131,depth_duration_stimuli/000692_2014-06-08_13-09-42_260595134347_rgbf000199-resize_2/000692_2014-06-08_13-09-42_260595134347_rgbf000199-resize_2-target.png,250,3.661,12,2819,249,feet,jsons/v1_VE250_randls_45.json,642503,819301,45,Man
131,705085,DepthScenes,duration_manipulation_targetAtFixation,jsons/v1_VE250_randls_45.json,http://54.235.29.9/FacialAge/BNav_EC2/DepthDuration/v2_depth_duration_MTurk/v2_DepthDuration_HTML.html#137,137,1920,975,1920,1080,8-29-2022,14-41-19,132,depth_duration_stimuli/001094_2014-06-15_17-36-00_260595134347_rgbf000205-resize_0/001094_2014-06-15_17-36-00_260595134347_rgbf000205-resize_0-target.png,250,4.2175,14,3447,250,feet,jsons/v1_VE250_randls_45.json,642503,819301,45,Man
132,705085,DepthScenes,duration_manipulation_targetAtFixation,jsons/v1_VE250_randls_45.json,http://54.235.29.9/FacialAge/BNav_EC2/DepthDuration/v2_depth_duration_MTurk/v2_DepthDuration_HTML.html#137,137,1920,975,1920,1080,8-29-2022,14-41-19,133,depth_duration_stimuli/000878_2014-06-08_22-52-45_260595134347_rgbf000045-resize_2/000878_2014-06-08_22-52-45_260595134347_rgbf000045-resize_2-target.png,250,2.092,8,4297,258,feet,jsons/v1_VE250_randls_45.json,642503,819301,45,Man
133,705085,DepthScenes,duration_manipulation_targetAtFixation,jsons/v1_VE250_randls_45.json,http://54.235.29.9/FacialAge/BNav_EC2/DepthDuration/v2_depth_duration_MTurk/v2_DepthDuration_HTML.html#137,137,1920,975,1920,1080,8-29-2022,14-41-19,134,depth_duration_stimuli/002953_2014-06-08_17-32-18_094959634447_rgbf000059-resize_5/002953_2014-06-08_17-32-18_094959634447_rgbf000059-resize_5-target.png,250,1.551,2,2590,247,feet,jsons/v1_VE250_randls_45.json,642503,819301,45,Man
134,705085,DepthScenes,duration_manipulation_targetAtFixation,jsons/v1_VE250_randls_45.json,http://54.235.29.9/FacialAge/BNav_EC2/DepthDuration/v2_depth_duration_MTurk/v2_DepthDuration_HTML.html#137,137,1920,975,1920,1080,8-29-2022,14-41-19,135,depth_duration_stimuli/002072_2014-06-24_21-48-06_260595134347_rgbf000115-resize_0/002072_2014-06-24_21-48-06_260595134347_rgbf000115-resize-original.jpg,250,4.702,0,2681,253,feet,jsons/v1_VE250_randls_45.json,642503,819301,45,Man
135,705085,DepthScenes,duration_manipulation_targetAtFixation,jsons/v1_VE250_randls_45.json,http://54.235.29.9/FacialAge/BNav_EC2/DepthDuration/v2_depth_duration_MTurk/v2_DepthDuration_HTML.html#137,137,1920,975,1920,1080,8-29-2022,14-41-19,136,depth_duration_stimuli/002905_2014-06-03_18-04-43_094959634447_rgbf000151-resize_2/002905_2014-06-03_18-04-43_094959634447_rgbf000151-resize_2-target.png,250,2.0295,4,2662,258,feet,jsons/v1_VE250_randls_45.json,642503,819301,45,Man
136,705085,DepthScenes,duration_manipulation_targetAtFixation,jsons/v1_VE250_randls_45.json,http://54.235.29.9/FacialAge/BNav_EC2/DepthDuration/v2_depth_duration_MTurk/v2_DepthDuration_HTML.html#137,137,1920,975,1920,1080,8-29-2022,14-41-19,137,depth_duration_stimuli/003423_2014-05-21_10-23-26_094959634447_rgbf002665-resize_2/003423_2014-05-21_10-23-26_094959634447_rgbf002665-resize_2-target.png,250,3.2575,10,3285,247,feet,jsons/v1_VE250_randls_45.json,642503,819301,45,Man
137,705085,DepthScenes,duration_manipulation_targetAtFixation,jsons/v1_VE250_randls_45.json,http://54.235.29.9/FacialAge/BNav_EC2/DepthDuration/v2_depth_duration_MTurk/v2_DepthDuration_HTML.html#137,137,1920,975,1920,1080,8-29-2022,14-41-19,138,depth_duration_stimuli/001029_2014-06-08_13-17-57_260595134347_rgbf000065-resize_1/001029_2014-06-08_13-17-57_260595134347_rgbf000065-resize_1-target.png,250,3.0835,8,2816,248,feet,jsons/v1_VE250_randls_45.json,642503,819301,45,Man
138,705085,DepthScenes,duration_manipulation_targetAtFixation,jsons/v1_VE250_randls_45.json,http://54.235.29.9/FacialAge/BNav_EC2/DepthDuration/v2_depth_duration_MTurk/v2_DepthDuration_HTML.html#137,137,1920,975,1920,1080,8-29-2022,14-41-19,139,depth_duration_stimuli/000677_2014-06-08_23-10-32_260595134347_rgbf000158-resize_6/000677_2014-06-08_23-10-32_260595134347_rgbf000158-resize_6-target.png,250,3.556,8,4895,247,feet,jsons/v1_VE250_randls_45.json,642503,819301,45,Man
139,705085,DepthScenes,duration_manipulation_targetAtFixation,jsons/v1_VE250_randls_45.json,http://54.235.29.9/FacialAge/BNav_EC2/DepthDuration/v2_depth_duration_MTurk/v2_DepthDuration_HTML.html#137,137,1920,975,1920,1080,8-29-2022,14-41-19,140,depth_duration_stimuli/002989_2014-06-15_12-25-03_094959634447_rgbf000150-resize_3/002989_2014-06-15_12-25-03_094959634447_rgbf000150-resize_3-target.png,250,4.1975,14,3259,249,feet,jsons/v1_VE250_randls_45.json,642503,819301,45,Man
140,705085,DepthScenes,duration_manipulation_targetAtFixation,jsons/v1_VE250_randls_45.json,http://54.235.29.9/FacialAge/BNav_EC2/DepthDuration/v2_depth_duration_MTurk/v2_DepthDuration_HTML.html#137,137,1920,975,1920,1080,8-29-2022,14-41-19,141,depth_duration_stimuli/000866_2014-06-09_20-45-42_260595134347_rgbf000139-resize_1/000866_2014-06-09_20-45-42_260595134347_rgbf000139-resize_1-target.png,250,3.2155,8,3172,265,feet,jsons/v1_VE250_randls_45.json,642503,819301,45,Man
141,705085,DepthScenes,duration_manipulation_targetAtFixation,jsons/v1_VE250_randls_45.json,http://54.235.29.9/FacialAge/BNav_EC2/DepthDuration/v2_depth_duration_MTurk/v2_DepthDuration_HTML.html#137,137,1920,975,1920,1080,8-29-2022,14-41-19,142,depth_duration_stimuli/001150_2014-06-17_15-27-34_260595134347_rgbf000108-resize_2/001150_2014-06-17_15-27-34_260595134347_rgbf000108-resize_2-target.png,250,4.0325,10,3312,249,feet,jsons/v1_VE250_randls_45.json,642503,819301,45,Man
142,705085,DepthScenes,duration_manipulation_targetAtFixation,jsons/v1_VE250_randls_45.json,http://54.235.29.9/FacialAge/BNav_EC2/DepthDuration/v2_depth_duration_MTurk/v2_DepthDuration_HTML.html#137,137,1920,975,1920,1080,8-29-2022,14-41-19,143,depth_duration_stimuli/000665_2014-06-09_20-42-35_260595134347_rgbf000110-resize_1/000665_2014-06-09_20-42-35_260595134347_rgbf000110-resize_1-target.png,250,3.057,6,2619,236,feet,jsons/v1_VE250_randls_45.json,642503,819301,45,Man
143,705085,DepthScenes,duration_manipulation_targetAtFixation,jsons/v1_VE250_randls_45.json,http://54.235.29.9/FacialAge/BNav_EC2/DepthDuration/v2_depth_duration_MTurk/v2_DepthDuration_HTML.html#137,137,1920,975,1920,1080,8-29-2022,14-41-19,144,depth_duration_stimuli/001066_2014-06-08_22-03-20_260595134347_rgbf000066-resize_4/001066_2014-06-08_22-03-20_260595134347_rgbf000066-resize_4-target.png,250,4.2330000000000005,15,3312,250,feet,jsons/v1_VE250_randls_45.json,642503,819301,45,Man
144,705085,DepthScenes,duration_manipulation_targetAtFixation,jsons/v1_VE250_randls_45.json,http://54.235.29.9/FacialAge/BNav_EC2/DepthDuration/v2_depth_duration_MTurk/v2_DepthDuration_HTML.html#137,137,1920,975,1920,1080,8-29-2022,14-41-19,145,depth_duration_stimuli/000742_2014-06-08_18-48-09_260595134347_rgbf000164-resize_4/000742_2014-06-08_18-48-09_260595134347_rgbf000164-resize_4-target.png,250,4.632,14,3238,250,feet,jsons/v1_VE250_randls_45.json,642503,819301,45,Man
145,705085,DepthScenes,duration_manipulation_targetAtFixation,jsons/v1_VE250_randls_45.json,http://54.235.29.9/FacialAge/BNav_EC2/DepthDuration/v2_depth_duration_MTurk/v2_DepthDuration_HTML.html#137,137,1920,975,1920,1080,8-29-2022,14-41-19,146,depth_duration_stimuli/001498_2014-06-19_17-45-14_260595134347_rgbf000129-resize_4/001498_2014-06-19_17-45-14_260595134347_rgbf000129-resize-original.jpg,250,1.4075,0,2560,256,feet,jsons/v1_VE250_randls_45.json,642503,819301,45,Man
146,705085,DepthScenes,duration_manipulation_targetAtFixation,jsons/v1_VE250_randls_45.json,http://54.235.29.9/FacialAge/BNav_EC2/DepthDuration/v2_depth_duration_MTurk/v2_DepthDuration_HTML.html#137,137,1920,975,1920,1080,8-29-2022,14-41-19,147,depth_duration_stimuli/000506_2014-06-08_23-21-00_260595134347_rgbf000070-resize_7/000506_2014-06-08_23-21-00_260595134347_rgbf000070-resize_7-target.png,250,4.0585,8,5330,252,feet,jsons/v1_VE250_randls_45.json,642503,819301,45,Man
147,705085,DepthScenes,duration_manipulation_targetAtFixation,jsons/v1_VE250_randls_45.json,http://54.235.29.9/FacialAge/BNav_EC2/DepthDuration/v2_depth_duration_MTurk/v2_DepthDuration_HTML.html#137,137,1920,975,1920,1080,8-29-2022,14-41-19,148,depth_duration_stimuli/003079_2014-06-15_15-18-20_094959634447_rgbf000152-resize_8/003079_2014-06-15_15-18-20_094959634447_rgbf000152-resize_8-target.png,250,2.8775,15,6308,250,feet,jsons/v1_VE250_randls_45.json,642503,819301,45,Man
148,705085,DepthScenes,duration_manipulation_targetAtFixation,jsons/v1_VE250_randls_45.json,http://54.235.29.9/FacialAge/BNav_EC2/DepthDuration/v2_depth_duration_MTurk/v2_DepthDuration_HTML.html#137,137,1920,975,1920,1080,8-29-2022,14-41-19,149,depth_duration_stimuli/001164_2014-06-17_15-35-46_260595134347_rgbf000085-resize_3/001164_2014-06-17_15-35-46_260595134347_rgbf000085-resize_3-target.png,250,2.354,6,3787,255,feet,jsons/v1_VE250_randls_45.json,642503,819301,45,Man
149,705085,DepthScenes,duration_manipulation_targetAtFixation,jsons/v1_VE250_randls_45.json,http://54.235.29.9/FacialAge/BNav_EC2/DepthDuration/v2_depth_duration_MTurk/v2_DepthDuration_HTML.html#137,137,1920,975,1920,1080,8-29-2022,14-41-19,150,depth_duration_stimuli/001136_2014-06-17_15-19-41_260595134347_rgbf000076-resize_3/001136_2014-06-17_15-19-41_260595134347_rgbf000076-resize_3-target.png,250,1.8655,5,2604,248,feet,jsons/v1_VE250_randls_45.json,642503,819301,45,Man
150,705085,DepthScenes,duration_manipulation_targetAtFixation,jsons/v1_VE250_randls_45.json,http://54.235.29.9/FacialAge/BNav_EC2/DepthDuration/v2_depth_duration_MTurk/v2_DepthDuration_HTML.html#137,137,1920,975,1920,1080,8-29-2022,14-41-19,151,depth_duration_stimuli/000368_2014-06-09_15-53-01_260595134347_rgbf000155-resize_2/000368_2014-06-09_15-53-01_260595134347_rgbf000155-resize_2-target.png,250,2.4859999999999998,4,2870,263,feet,jsons/v1_VE250_randls_45.json,642503,819301,45,Man
151,705085,DepthScenes,duration_manipulation_targetAtFixation,jsons/v1_VE250_randls_45.json,http://54.235.29.9/FacialAge/BNav_EC2/DepthDuration/v2_depth_duration_MTurk/v2_DepthDuration_HTML.html#137,137,1920,975,1920,1080,8-29-2022,14-41-19,152,depth_duration_stimuli/002678_2014-06-13_16-15-32_094959634447_rgbf000151-resize_6/002678_2014-06-13_16-15-32_094959634447_rgbf000151-resize_6-target.png,250,2.1830000000000003,8,2872,249,feet,jsons/v1_VE250_randls_45.json,642503,819301,45,Man
152,705085,DepthScenes,duration_manipulation_targetAtFixation,jsons/v1_VE250_randls_45.json,http://54.235.29.9/FacialAge/BNav_EC2/DepthDuration/v2_depth_duration_MTurk/v2_DepthDuration_HTML.html#137,137,1920,975,1920,1080,8-29-2022,14-41-19,153,depth_duration_stimuli/003621_2014-05-23_18-06-08_094959634447_rgbf000101-resize_1/003621_2014-05-23_18-06-08_094959634447_rgbf000101-resize_1-target.png,250,3.9835,10,3308,247,feet,jsons/v1_VE250_randls_45.json,642503,819301,45,Man
153,705085,DepthScenes,duration_manipulation_targetAtFixation,jsons/v1_VE250_randls_45.json,http://54.235.29.9/FacialAge/BNav_EC2/DepthDuration/v2_depth_duration_MTurk/v2_DepthDuration_HTML.html#137,137,1920,975,1920,1080,8-29-2022,14-41-19,154,depth_duration_stimuli/001584_2014-06-20_11-07-43_260595134347_rgbf000002-resize_1/001584_2014-06-20_11-07-43_260595134347_rgbf000002-resize_1-target.png,250,3.53,9,2715,250,feet,jsons/v1_VE250_randls_45.json,642503,819301,45,Man
154,705085,DepthScenes,duration_manipulation_targetAtFixation,jsons/v1_VE250_randls_45.json,http://54.235.29.9/FacialAge/BNav_EC2/DepthDuration/v2_depth_duration_MTurk/v2_DepthDuration_HTML.html#137,137,1920,975,1920,1080,8-29-2022,14-41-19,155,depth_duration_stimuli/000009_2014-05-26_14-32-05_260595134347_rgbf000034-resize_3/000009_2014-05-26_14-32-05_260595134347_rgbf000034-resize_3-target.png,250,3.8715,12,2788,247,feet,jsons/v1_VE250_randls_45.json,642503,819301,45,Man
155,705085,DepthScenes,duration_manipulation_targetAtFixation,jsons/v1_VE250_randls_45.json,http://54.235.29.9/FacialAge/BNav_EC2/DepthDuration/v2_depth_duration_MTurk/v2_DepthDuration_HTML.html#137,137,1920,975,1920,1080,8-29-2022,14-41-19,156,depth_duration_stimuli/001828_2014-06-26_21-40-03_260595134347_rgbf000024-resize_0/001828_2014-06-26_21-40-03_260595134347_rgbf000024-resize_0-target.png,250,4.8260000000000005,14,2862,236,feet,jsons/v1_VE250_randls_45.json,642503,819301,45,Man
156,705085,DepthScenes,duration_manipulation_targetAtFixation,jsons/v1_VE250_randls_45.json,http://54.235.29.9/FacialAge/BNav_EC2/DepthDuration/v2_depth_duration_MTurk/v2_DepthDuration_HTML.html#137,137,1920,975,1920,1080,8-29-2022,14-41-19,157,depth_duration_stimuli/002445_2014-06-28_20-32-16_260595134347_rgbf000029-resize_4/002445_2014-06-28_20-32-16_260595134347_rgbf000029-resize_4-target.png,250,2.5315,4,2740,254,feet,jsons/v1_VE250_randls_45.json,642503,819301,45,Man
157,705085,DepthScenes,duration_manipulation_targetAtFixation,jsons/v1_VE250_randls_45.json,http://54.235.29.9/FacialAge/BNav_EC2/DepthDuration/v2_depth_duration_MTurk/v2_DepthDuration_HTML.html#137,137,1920,975,1920,1080,8-29-2022,14-41-19,158,depth_duration_stimuli/000780_2014-06-08_22-28-29_260595134347_rgbf000126-resize_1/000780_2014-06-08_22-28-29_260595134347_rgbf000126-resize_1-target.png,250,3.3825,6,2759,251,feet,jsons/v1_VE250_randls_45.json,642503,819301,45,Man
158,705085,DepthScenes,duration_manipulation_targetAtFixation,jsons/v1_VE250_randls_45.json,http://54.235.29.9/FacialAge/BNav_EC2/DepthDuration/v2_depth_duration_MTurk/v2_DepthDuration_HTML.html#137,137,1920,975,1920,1080,8-29-2022,14-41-19,159,depth_duration_stimuli/002748_2014-06-22_19-07-22_094959634447_rgbf000078-resize_1/002748_2014-06-22_19-07-22_094959634447_rgbf000078-resize_1-target.png,250,4.6705,12,3016,235,feet,jsons/v1_VE250_randls_45.json,642503,819301,45,Man
159,705085,DepthScenes,duration_manipulation_targetAtFixation,jsons/v1_VE250_randls_45.json,http://54.235.29.9/FacialAge/BNav_EC2/DepthDuration/v2_depth_duration_MTurk/v2_DepthDuration_HTML.html#137,137,1920,975,1920,1080,8-29-2022,14-41-19,160,depth_duration_stimuli/002995_2014-06-15_12-31-26_094959634447_rgbf000150-resize_1/002995_2014-06-15_12-31-26_094959634447_rgbf000150-resize_1-target.png,250,3.8360000000000003,10,3450,248,feet,jsons/v1_VE250_randls_45.json,642503,819301,45,Man
160,705085,DepthScenes,duration_manipulation_targetAtFixation,jsons/v1_VE250_randls_45.json,http://54.235.29.9/FacialAge/BNav_EC2/DepthDuration/v2_depth_duration_MTurk/v2_DepthDuration_HTML.html#137,137,1920,975,1920,1080,8-29-2022,14-41-19,161,depth_duration_stimuli/002272_2014-06-28_18-53-56_260595134347_rgbf000067-resize_2/002272_2014-06-28_18-53-56_260595134347_rgbf000067-resize_2-target.png,250,1.138,2,2650,250,feet,jsons/v1_VE250_randls_45.json,642503,819301,45,Man
161,705085,DepthScenes,duration_manipulation_targetAtFixation,jsons/v1_VE250_randls_45.json,http://54.235.29.9/FacialAge/BNav_EC2/DepthDuration/v2_depth_duration_MTurk/v2_DepthDuration_HTML.html#137,137,1920,975,1920,1080,8-29-2022,14-41-19,162,depth_duration_stimuli/001571_2014-06-20_17-21-32_260595134347_rgbf000089-resize_1/001571_2014-06-20_17-21-32_260595134347_rgbf000089-resize_1-target.png,250,1.86,4,3043,248,feet,jsons/v1_VE250_randls_45.json,642503,819301,45,Man
162,705085,DepthScenes,duration_manipulation_targetAtFixation,jsons/v1_VE250_randls_45.json,http://54.235.29.9/FacialAge/BNav_EC2/DepthDuration/v2_depth_duration_MTurk/v2_DepthDuration_HTML.html#137,137,1920,975,1920,1080,8-29-2022,14-41-19,163,depth_duration_stimuli/003070_2014-06-15_14-58-27_094959634447_rgbf000150-resize_3/003070_2014-06-15_14-58-27_094959634447_rgbf000150-resize_3-target.png,250,2.9415,6,2729,250,feet,jsons/v1_VE250_randls_45.json,642503,819301,45,Man
163,705085,DepthScenes,duration_manipulation_targetAtFixation,jsons/v1_VE250_randls_45.json,http://54.235.29.9/FacialAge/BNav_EC2/DepthDuration/v2_depth_duration_MTurk/v2_DepthDuration_HTML.html#137,137,1920,975,1920,1080,8-29-2022,14-41-19,164,depth_duration_stimuli/000943_2014-06-09_19-31-07_260595134347_rgbf000128-resize_1/000943_2014-06-09_19-31-07_260595134347_rgbf000128-resize_1-target.png,250,1.9765,3,2434,249,feet,jsons/v1_VE250_randls_45.json,642503,819301,45,Man
