,subjID,experimentName,versionName,sequenceName,url,selected_row,windowWidth,windowHeight,screenWidth,screenHeight,startDate,startTime,trial,stimulus,duration,actual_depth,depth_estimate,trial_RT,log_sceneDuration,unitSelection,seq_filepath,experimentTime,totalTime,age,gender
0,705460,DepthScenes,duration_manipulation_targetAtFixation,jsons/v1_VE1000_randls_21.json,http://54.235.29.9/FacialAge/BNav_EC2/DepthDuration/v2_depth_duration_MTurk/v2_DepthDuration_HTML.html#7,7,1364,625,1364,768,8-22-2022,8-2-14,1,depth_duration_stimuli/000009_2014-05-26_14-32-05_260595134347_rgbf000034-resize_3/000009_2014-05-26_14-32-05_260595134347_rgbf000034-resize_3-target.png,1000,3.8715,2,8292,1150,meters,jsons/v1_VE1000_randls_21.json,1266095,1402365,30,Woman
1,705460,DepthScenes,duration_manipulation_targetAtFixation,jsons/v1_VE1000_randls_21.json,http://54.235.29.9/FacialAge/BNav_EC2/DepthDuration/v2_depth_duration_MTurk/v2_DepthDuration_HTML.html#7,7,1364,625,1364,768,8-22-2022,8-2-14,2,depth_duration_stimuli/001828_2014-06-26_21-40-03_260595134347_rgbf000024-resize_0/001828_2014-06-26_21-40-03_260595134347_rgbf000024-resize_0-target.png,1000,4.8260000000000005,3,7572,992,meters,jsons/v1_VE1000_randls_21.json,1266095,1402365,30,Woman
2,705460,DepthScenes,duration_manipulation_targetAtFixation,jsons/v1_VE1000_randls_21.json,http://54.235.29.9/FacialAge/BNav_EC2/DepthDuration/v2_depth_duration_MTurk/v2_DepthDuration_HTML.html#7,7,1364,625,1364,768,8-22-2022,8-2-14,3,depth_duration_stimuli/001056_2014-06-08_18-46-44_260595134347_rgbf000068-resize_0/001056_2014-06-08_18-46-44_260595134347_rgbf000068-resize_0-target.png,1000,2.6625,1,20044,999,meters,jsons/v1_VE1000_randls_21.json,1266095,1402365,30,Woman
3,705460,DepthScenes,duration_manipulation_targetAtFixation,jsons/v1_VE1000_randls_21.json,http://54.235.29.9/FacialAge/BNav_EC2/DepthDuration/v2_depth_duration_MTurk/v2_DepthDuration_HTML.html#7,7,1364,625,1364,768,8-22-2022,8-2-14,4,depth_duration_stimuli/002199_2014-06-28_18-33-56_260595134347_rgbf000074-resize_0/002199_2014-06-28_18-33-56_260595134347_rgbf000074-resize_0-target.png,1000,1.996,10,12852,982,meters,jsons/v1_VE1000_randls_21.json,1266095,1402365,30,Woman
4,705460,DepthScenes,duration_manipulation_targetAtFixation,jsons/v1_VE1000_randls_21.json,http://54.235.29.9/FacialAge/BNav_EC2/DepthDuration/v2_depth_duration_MTurk/v2_DepthDuration_HTML.html#7,7,1364,625,1364,768,8-22-2022,8-2-14,5,depth_duration_stimuli/000469_2014-06-09_19-42-10_260595134347_rgbf000081-resize_1/000469_2014-06-09_19-42-10_260595134347_rgbf000081-resize_1-target.png,1000,1.652,10,6577,999,meters,jsons/v1_VE1000_randls_21.json,1266095,1402365,30,Woman
5,705460,DepthScenes,duration_manipulation_targetAtFixation,jsons/v1_VE1000_randls_21.json,http://54.235.29.9/FacialAge/BNav_EC2/DepthDuration/v2_depth_duration_MTurk/v2_DepthDuration_HTML.html#7,7,1364,625,1364,768,8-22-2022,8-2-14,6,depth_duration_stimuli/000483_2014-06-09_20-41-45_260595134347_rgbf000116-resize_4/000483_2014-06-09_20-41-45_260595134347_rgbf000116-resize_4-target.png,1000,1.337,20,19639,1000,meters,jsons/v1_VE1000_randls_21.json,1266095,1402365,30,Woman
6,705460,DepthScenes,duration_manipulation_targetAtFixation,jsons/v1_VE1000_randls_21.json,http://54.235.29.9/FacialAge/BNav_EC2/DepthDuration/v2_depth_duration_MTurk/v2_DepthDuration_HTML.html#7,7,1364,625,1364,768,8-22-2022,8-2-14,7,depth_duration_stimuli/001175_2014-06-17_15-45-55_260595134347_rgbf000129-resize_4/001175_2014-06-17_15-45-55_260595134347_rgbf000129-resize_4-target.png,1000,4.255,10,6342,993,meters,jsons/v1_VE1000_randls_21.json,1266095,1402365,30,Woman
7,705460,DepthScenes,duration_manipulation_targetAtFixation,jsons/v1_VE1000_randls_21.json,http://54.235.29.9/FacialAge/BNav_EC2/DepthDuration/v2_depth_duration_MTurk/v2_DepthDuration_HTML.html#7,7,1364,625,1364,768,8-22-2022,8-2-14,8,depth_duration_stimuli/003490_2014-05-21_15-50-11_094959634447_rgbf000101-resize_3/003490_2014-05-21_15-50-11_094959634447_rgbf000101-resize_3-target.png,1000,3.6445,10,9023,1001,meters,jsons/v1_VE1000_randls_21.json,1266095,1402365,30,Woman
8,705460,DepthScenes,duration_manipulation_targetAtFixation,jsons/v1_VE1000_randls_21.json,http://54.235.29.9/FacialAge/BNav_EC2/DepthDuration/v2_depth_duration_MTurk/v2_DepthDuration_HTML.html#7,7,1364,625,1364,768,8-22-2022,8-2-14,9,depth_duration_stimuli/002509_2014-06-24_13-19-22_094959634447_rgbf000077-resize_0/002509_2014-06-24_13-19-22_094959634447_rgbf000077-resize_0-target.png,1000,1.3065,3,7500,998,meters,jsons/v1_VE1000_randls_21.json,1266095,1402365,30,Woman
9,705460,DepthScenes,duration_manipulation_targetAtFixation,jsons/v1_VE1000_randls_21.json,http://54.235.29.9/FacialAge/BNav_EC2/DepthDuration/v2_depth_duration_MTurk/v2_DepthDuration_HTML.html#7,7,1364,625,1364,768,8-22-2022,8-2-14,10,depth_duration_stimuli/003338_2014-05-20_11-01-23_094959634447_rgbf000051-resize_6/003338_2014-05-20_11-01-23_094959634447_rgbf000051-resize_6-target.png,1000,1.693,2,5855,1001,meters,jsons/v1_VE1000_randls_21.json,1266095,1402365,30,Woman
10,705460,DepthScenes,duration_manipulation_targetAtFixation,jsons/v1_VE1000_randls_21.json,http://54.235.29.9/FacialAge/BNav_EC2/DepthDuration/v2_depth_duration_MTurk/v2_DepthDuration_HTML.html#7,7,1364,625,1364,768,8-22-2022,8-2-14,11,depth_duration_stimuli/000493_2014-06-09_21-01-18_260595134347_rgbf000196-resize_3/000493_2014-06-09_21-01-18_260595134347_rgbf000196-resize_3-target.png,1000,3.44,10,6074,998,meters,jsons/v1_VE1000_randls_21.json,1266095,1402365,30,Woman
11,705460,DepthScenes,duration_manipulation_targetAtFixation,jsons/v1_VE1000_randls_21.json,http://54.235.29.9/FacialAge/BNav_EC2/DepthDuration/v2_depth_duration_MTurk/v2_DepthDuration_HTML.html#7,7,1364,625,1364,768,8-22-2022,8-2-14,12,depth_duration_stimuli/000191_2014-05-12_17-07-38_260595134347_rgbf000199-resize_0/000191_2014-05-12_17-07-38_260595134347_rgbf000199-resize_0-target.png,1000,3.7995,10,6205,1000,meters,jsons/v1_VE1000_randls_21.json,1266095,1402365,30,Woman
12,705460,DepthScenes,duration_manipulation_targetAtFixation,jsons/v1_VE1000_randls_21.json,http://54.235.29.9/FacialAge/BNav_EC2/DepthDuration/v2_depth_duration_MTurk/v2_DepthDuration_HTML.html#7,7,1364,625,1364,768,8-22-2022,8-2-14,13,depth_duration_stimuli/000569_2014-06-09_22-51-47_260595134347_rgbf000141-resize_3/000569_2014-06-09_22-51-47_260595134347_rgbf000141-resize-original.jpg,1000,4.512,10,8526,1002,meters,jsons/v1_VE1000_randls_21.json,1266095,1402365,30,Woman
13,705460,DepthScenes,duration_manipulation_targetAtFixation,jsons/v1_VE1000_randls_21.json,http://54.235.29.9/FacialAge/BNav_EC2/DepthDuration/v2_depth_duration_MTurk/v2_DepthDuration_HTML.html#7,7,1364,625,1364,768,8-22-2022,8-2-14,14,depth_duration_stimuli/001555_2014-06-20_17-12-10_260595134347_rgbf000065-resize_4/001555_2014-06-20_17-12-10_260595134347_rgbf000065-resize_4-target.png,1000,1.633,2,5825,1000,meters,jsons/v1_VE1000_randls_21.json,1266095,1402365,30,Woman
14,705460,DepthScenes,duration_manipulation_targetAtFixation,jsons/v1_VE1000_randls_21.json,http://54.235.29.9/FacialAge/BNav_EC2/DepthDuration/v2_depth_duration_MTurk/v2_DepthDuration_HTML.html#7,7,1364,625,1364,768,8-22-2022,8-2-14,15,depth_duration_stimuli/000103_2014-05-14_22-01-17_260595134347_rgbf000152-resize_5/000103_2014-05-14_22-01-17_260595134347_rgbf000152-resize_5-target.png,1000,1.993,8,6447,999,meters,jsons/v1_VE1000_randls_21.json,1266095,1402365,30,Woman
15,705460,DepthScenes,duration_manipulation_targetAtFixation,jsons/v1_VE1000_randls_21.json,http://54.235.29.9/FacialAge/BNav_EC2/DepthDuration/v2_depth_duration_MTurk/v2_DepthDuration_HTML.html#7,7,1364,625,1364,768,8-22-2022,8-2-14,16,depth_duration_stimuli/000642_2014-06-08_16-59-25_260595134347_rgbf000098-resize_2/000642_2014-06-08_16-59-25_260595134347_rgbf000098-resize_2-target.png,1000,2.8815,6,5513,974,meters,jsons/v1_VE1000_randls_21.json,1266095,1402365,30,Woman
16,705460,DepthScenes,duration_manipulation_targetAtFixation,jsons/v1_VE1000_randls_21.json,http://54.235.29.9/FacialAge/BNav_EC2/DepthDuration/v2_depth_duration_MTurk/v2_DepthDuration_HTML.html#7,7,1364,625,1364,768,8-22-2022,8-2-14,17,depth_duration_stimuli/002425_2014-06-28_20-27-29_260595134347_rgbf000031-resize_8/002425_2014-06-28_20-27-29_260595134347_rgbf000031-resize_8-target.png,1000,3.8960000000000004,5,5797,997,meters,jsons/v1_VE1000_randls_21.json,1266095,1402365,30,Woman
17,705460,DepthScenes,duration_manipulation_targetAtFixation,jsons/v1_VE1000_randls_21.json,http://54.235.29.9/FacialAge/BNav_EC2/DepthDuration/v2_depth_duration_MTurk/v2_DepthDuration_HTML.html#7,7,1364,625,1364,768,8-22-2022,8-2-14,18,depth_duration_stimuli/001449_2014-06-19_17-01-27_260595134347_rgbf000116-resize_2/001449_2014-06-19_17-01-27_260595134347_rgbf000116-resize_2-target.png,1000,3.452,6,6107,1001,meters,jsons/v1_VE1000_randls_21.json,1266095,1402365,30,Woman
18,705460,DepthScenes,duration_manipulation_targetAtFixation,jsons/v1_VE1000_randls_21.json,http://54.235.29.9/FacialAge/BNav_EC2/DepthDuration/v2_depth_duration_MTurk/v2_DepthDuration_HTML.html#7,7,1364,625,1364,768,8-22-2022,8-2-14,19,depth_duration_stimuli/001450_2014-06-19_17-02-03_260595134347_rgbf000203-resize_4/001450_2014-06-19_17-02-03_260595134347_rgbf000203-resize_4-target.png,1000,4.0106666666667,2,6163,1000,meters,jsons/v1_VE1000_randls_21.json,1266095,1402365,30,Woman
19,705460,DepthScenes,duration_manipulation_targetAtFixation,jsons/v1_VE1000_randls_21.json,http://54.235.29.9/FacialAge/BNav_EC2/DepthDuration/v2_depth_duration_MTurk/v2_DepthDuration_HTML.html#7,7,1364,625,1364,768,8-22-2022,8-2-14,20,depth_duration_stimuli/001055_2014-06-08_18-45-35_260595134347_rgbf000111-resize_4/001055_2014-06-08_18-45-35_260595134347_rgbf000111-resize_4-target.png,1000,2.4290000000000003,2,7594,999,meters,jsons/v1_VE1000_randls_21.json,1266095,1402365,30,Woman
20,705460,DepthScenes,duration_manipulation_targetAtFixation,jsons/v1_VE1000_randls_21.json,http://54.235.29.9/FacialAge/BNav_EC2/DepthDuration/v2_depth_duration_MTurk/v2_DepthDuration_HTML.html#7,7,1364,625,1364,768,8-22-2022,8-2-14,21,depth_duration_stimuli/000549_2014-06-08_22-10-24_260595134347_rgbf000247-resize_3/000549_2014-06-08_22-10-24_260595134347_rgbf000247-resize_3-target.png,1000,1.841,6,5282,999,meters,jsons/v1_VE1000_randls_21.json,1266095,1402365,30,Woman
21,705460,DepthScenes,duration_manipulation_targetAtFixation,jsons/v1_VE1000_randls_21.json,http://54.235.29.9/FacialAge/BNav_EC2/DepthDuration/v2_depth_duration_MTurk/v2_DepthDuration_HTML.html#7,7,1364,625,1364,768,8-22-2022,8-2-14,22,depth_duration_stimuli/001011_2014-06-08_23-18-54_260595134347_rgbf000044-resize_4/001011_2014-06-08_23-18-54_260595134347_rgbf000044-resize_4-target.png,1000,2.4730000000000003,2,8227,997,meters,jsons/v1_VE1000_randls_21.json,1266095,1402365,30,Woman
22,705460,DepthScenes,duration_manipulation_targetAtFixation,jsons/v1_VE1000_randls_21.json,http://54.235.29.9/FacialAge/BNav_EC2/DepthDuration/v2_depth_duration_MTurk/v2_DepthDuration_HTML.html#7,7,1364,625,1364,768,8-22-2022,8-2-14,23,depth_duration_stimuli/002875_2014-06-01_15-19-00_094959634447_rgbf000151-resize_1/002875_2014-06-01_15-19-00_094959634447_rgbf000151-resize_1-target.png,1000,1.9675,8,6718,1014,meters,jsons/v1_VE1000_randls_21.json,1266095,1402365,30,Woman
23,705460,DepthScenes,duration_manipulation_targetAtFixation,jsons/v1_VE1000_randls_21.json,http://54.235.29.9/FacialAge/BNav_EC2/DepthDuration/v2_depth_duration_MTurk/v2_DepthDuration_HTML.html#7,7,1364,625,1364,768,8-22-2022,8-2-14,24,depth_duration_stimuli/000758_2014-06-08_22-05-08_260595134347_rgbf000085-resize_0/000758_2014-06-08_22-05-08_260595134347_rgbf000085-resize_0-target.png,1000,3.3810000000000002,4,7030,998,meters,jsons/v1_VE1000_randls_21.json,1266095,1402365,30,Woman
24,705460,DepthScenes,duration_manipulation_targetAtFixation,jsons/v1_VE1000_randls_21.json,http://54.235.29.9/FacialAge/BNav_EC2/DepthDuration/v2_depth_duration_MTurk/v2_DepthDuration_HTML.html#7,7,1364,625,1364,768,8-22-2022,8-2-14,25,depth_duration_stimuli/000854_2014-06-09_19-43-13_260595134347_rgbf000066-resize_0/000854_2014-06-09_19-43-13_260595134347_rgbf000066-resize_0-target.png,1000,3.068,10,4970,999,meters,jsons/v1_VE1000_randls_21.json,1266095,1402365,30,Woman
25,705460,DepthScenes,duration_manipulation_targetAtFixation,jsons/v1_VE1000_randls_21.json,http://54.235.29.9/FacialAge/BNav_EC2/DepthDuration/v2_depth_duration_MTurk/v2_DepthDuration_HTML.html#7,7,1364,625,1364,768,8-22-2022,8-2-14,26,depth_duration_stimuli/000470_2014-06-09_19-42-40_260595134347_rgbf000094-resize_1/000470_2014-06-09_19-42-40_260595134347_rgbf000094-resize_1-target.png,1000,1.831,10,7815,1041,meters,jsons/v1_VE1000_randls_21.json,1266095,1402365,30,Woman
26,705460,DepthScenes,duration_manipulation_targetAtFixation,jsons/v1_VE1000_randls_21.json,http://54.235.29.9/FacialAge/BNav_EC2/DepthDuration/v2_depth_duration_MTurk/v2_DepthDuration_HTML.html#7,7,1364,625,1364,768,8-22-2022,8-2-14,27,depth_duration_stimuli/000109_2014-05-14_23-41-52_260595134347_rgbf000035-resize_9/000109_2014-05-14_23-41-52_260595134347_rgbf000035-resize_9-target.png,1000,1.3545,10,7194,999,meters,jsons/v1_VE1000_randls_21.json,1266095,1402365,30,Woman
27,705460,DepthScenes,duration_manipulation_targetAtFixation,jsons/v1_VE1000_randls_21.json,http://54.235.29.9/FacialAge/BNav_EC2/DepthDuration/v2_depth_duration_MTurk/v2_DepthDuration_HTML.html#7,7,1364,625,1364,768,8-22-2022,8-2-14,28,depth_duration_stimuli/001244_2014-06-17_16-47-45_260595134347_rgbf000030-resize_4/001244_2014-06-17_16-47-45_260595134347_rgbf000030-resize_4-target.png,1000,2.0425,2,4543,992,meters,jsons/v1_VE1000_randls_21.json,1266095,1402365,30,Woman
28,705460,DepthScenes,duration_manipulation_targetAtFixation,jsons/v1_VE1000_randls_21.json,http://54.235.29.9/FacialAge/BNav_EC2/DepthDuration/v2_depth_duration_MTurk/v2_DepthDuration_HTML.html#7,7,1364,625,1364,768,8-22-2022,8-2-14,29,depth_duration_stimuli/003495_2014-05-21_16-01-51_094959634447_rgbf000100-resize_3/003495_2014-05-21_16-01-51_094959634447_rgbf000100-resize_3-target.png,1000,1.6255,20,5326,991,meters,jsons/v1_VE1000_randls_21.json,1266095,1402365,30,Woman
29,705460,DepthScenes,duration_manipulation_targetAtFixation,jsons/v1_VE1000_randls_21.json,http://54.235.29.9/FacialAge/BNav_EC2/DepthDuration/v2_depth_duration_MTurk/v2_DepthDuration_HTML.html#7,7,1364,625,1364,768,8-22-2022,8-2-14,30,depth_duration_stimuli/000375_2014-06-08_11-17-29_260595134347_rgbf000133-resize_2/000375_2014-06-08_11-17-29_260595134347_rgbf000133-resize-original.jpg,1000,4.718,3,5313,875,meters,jsons/v1_VE1000_randls_21.json,1266095,1402365,30,Woman
30,705460,DepthScenes,duration_manipulation_targetAtFixation,jsons/v1_VE1000_randls_21.json,http://54.235.29.9/FacialAge/BNav_EC2/DepthDuration/v2_depth_duration_MTurk/v2_DepthDuration_HTML.html#7,7,1364,625,1364,768,8-22-2022,8-2-14,31,depth_duration_stimuli/002905_2014-06-03_18-04-43_094959634447_rgbf000151-resize_2/002905_2014-06-03_18-04-43_094959634447_rgbf000151-resize_2-target.png,1000,2.0295,10,4015,1002,meters,jsons/v1_VE1000_randls_21.json,1266095,1402365,30,Woman
31,705460,DepthScenes,duration_manipulation_targetAtFixation,jsons/v1_VE1000_randls_21.json,http://54.235.29.9/FacialAge/BNav_EC2/DepthDuration/v2_depth_duration_MTurk/v2_DepthDuration_HTML.html#7,7,1364,625,1364,768,8-22-2022,8-2-14,32,depth_duration_stimuli/003423_2014-05-21_10-23-26_094959634447_rgbf002665-resize_2/003423_2014-05-21_10-23-26_094959634447_rgbf002665-resize_2-target.png,1000,3.2575,3,6110,1002,meters,jsons/v1_VE1000_randls_21.json,1266095,1402365,30,Woman
32,705460,DepthScenes,duration_manipulation_targetAtFixation,jsons/v1_VE1000_randls_21.json,http://54.235.29.9/FacialAge/BNav_EC2/DepthDuration/v2_depth_duration_MTurk/v2_DepthDuration_HTML.html#7,7,1364,625,1364,768,8-22-2022,8-2-14,33,depth_duration_stimuli/002118_2014-06-25_20-32-08_260595134347_rgbf000078-resize_1/002118_2014-06-25_20-32-08_260595134347_rgbf000078-resize_1-target.png,1000,2.6460000000000004,10,10653,994,meters,jsons/v1_VE1000_randls_21.json,1266095,1402365,30,Woman
33,705460,DepthScenes,duration_manipulation_targetAtFixation,jsons/v1_VE1000_randls_21.json,http://54.235.29.9/FacialAge/BNav_EC2/DepthDuration/v2_depth_duration_MTurk/v2_DepthDuration_HTML.html#7,7,1364,625,1364,768,8-22-2022,8-2-14,34,depth_duration_stimuli/001516_2014-06-20_16-25-09_260595134347_rgbf000076-resize_2/001516_2014-06-20_16-25-09_260595134347_rgbf000076-resize_2-target.png,1000,1.7445,10,6086,999,meters,jsons/v1_VE1000_randls_21.json,1266095,1402365,30,Woman
34,705460,DepthScenes,duration_manipulation_targetAtFixation,jsons/v1_VE1000_randls_21.json,http://54.235.29.9/FacialAge/BNav_EC2/DepthDuration/v2_depth_duration_MTurk/v2_DepthDuration_HTML.html#7,7,1364,625,1364,768,8-22-2022,8-2-14,35,depth_duration_stimuli/002153_2014-06-25_21-27-18_260595134347_rgbf000038-resize_5/002153_2014-06-25_21-27-18_260595134347_rgbf000038-resize_5-target.png,1000,2.505,10,5458,987,meters,jsons/v1_VE1000_randls_21.json,1266095,1402365,30,Woman
35,705460,DepthScenes,duration_manipulation_targetAtFixation,jsons/v1_VE1000_randls_21.json,http://54.235.29.9/FacialAge/BNav_EC2/DepthDuration/v2_depth_duration_MTurk/v2_DepthDuration_HTML.html#7,7,1364,625,1364,768,8-22-2022,8-2-14,36,depth_duration_stimuli/002660_2014-06-13_15-44-18_094959634447_rgbf001878-resize_2/002660_2014-06-13_15-44-18_094959634447_rgbf001878-resize_2-target.png,1000,3.576,10,4965,1122,meters,jsons/v1_VE1000_randls_21.json,1266095,1402365,30,Woman
36,705460,DepthScenes,duration_manipulation_targetAtFixation,jsons/v1_VE1000_randls_21.json,http://54.235.29.9/FacialAge/BNav_EC2/DepthDuration/v2_depth_duration_MTurk/v2_DepthDuration_HTML.html#7,7,1364,625,1364,768,8-22-2022,8-2-14,37,depth_duration_stimuli/002600_2014-06-24_14-27-04_094959634447_rgbf000074-resize_2/002600_2014-06-24_14-27-04_094959634447_rgbf000074-resize_2-target.png,1000,2.7575,7,17969,999,meters,jsons/v1_VE1000_randls_21.json,1266095,1402365,30,Woman
37,705460,DepthScenes,duration_manipulation_targetAtFixation,jsons/v1_VE1000_randls_21.json,http://54.235.29.9/FacialAge/BNav_EC2/DepthDuration/v2_depth_duration_MTurk/v2_DepthDuration_HTML.html#7,7,1364,625,1364,768,8-22-2022,8-2-14,38,depth_duration_stimuli/003228_2014-05-14_13-42-35_094959634447_rgbf000101-resize_1/003228_2014-05-14_13-42-35_094959634447_rgbf000101-resize_1-target.png,1000,1.9680000000000002,6,4526,1000,meters,jsons/v1_VE1000_randls_21.json,1266095,1402365,30,Woman
38,705460,DepthScenes,duration_manipulation_targetAtFixation,jsons/v1_VE1000_randls_21.json,http://54.235.29.9/FacialAge/BNav_EC2/DepthDuration/v2_depth_duration_MTurk/v2_DepthDuration_HTML.html#7,7,1364,625,1364,768,8-22-2022,8-2-14,39,depth_duration_stimuli/002964_2014-06-08_17-46-11_094959634447_rgbf000091-resize_4/002964_2014-06-08_17-46-11_094959634447_rgbf000091-resize_4-target.png,1000,1.6909999999999998,4,12795,968,meters,jsons/v1_VE1000_randls_21.json,1266095,1402365,30,Woman
39,705460,DepthScenes,duration_manipulation_targetAtFixation,jsons/v1_VE1000_randls_21.json,http://54.235.29.9/FacialAge/BNav_EC2/DepthDuration/v2_depth_duration_MTurk/v2_DepthDuration_HTML.html#7,7,1364,625,1364,768,8-22-2022,8-2-14,40,depth_duration_stimuli/002136_2014-06-25_21-18-03_260595134347_rgbf000109-resize_3/002136_2014-06-25_21-18-03_260595134347_rgbf000109-resize_3-target.png,1000,1.9569999999999999,5,7976,999,meters,jsons/v1_VE1000_randls_21.json,1266095,1402365,30,Woman
40,705460,DepthScenes,duration_manipulation_targetAtFixation,jsons/v1_VE1000_randls_21.json,http://54.235.29.9/FacialAge/BNav_EC2/DepthDuration/v2_depth_duration_MTurk/v2_DepthDuration_HTML.html#7,7,1364,625,1364,768,8-22-2022,8-2-14,41,depth_duration_stimuli/003070_2014-06-15_14-58-27_094959634447_rgbf000150-resize_3/003070_2014-06-15_14-58-27_094959634447_rgbf000150-resize_3-target.png,1000,2.9415,50,7280,998,meters,jsons/v1_VE1000_randls_21.json,1266095,1402365,30,Woman
41,705460,DepthScenes,duration_manipulation_targetAtFixation,jsons/v1_VE1000_randls_21.json,http://54.235.29.9/FacialAge/BNav_EC2/DepthDuration/v2_depth_duration_MTurk/v2_DepthDuration_HTML.html#7,7,1364,625,1364,768,8-22-2022,8-2-14,42,depth_duration_stimuli/000943_2014-06-09_19-31-07_260595134347_rgbf000128-resize_1/000943_2014-06-09_19-31-07_260595134347_rgbf000128-resize_1-target.png,1000,1.9765,10,6552,981,meters,jsons/v1_VE1000_randls_21.json,1266095,1402365,30,Woman
42,705460,DepthScenes,duration_manipulation_targetAtFixation,jsons/v1_VE1000_randls_21.json,http://54.235.29.9/FacialAge/BNav_EC2/DepthDuration/v2_depth_duration_MTurk/v2_DepthDuration_HTML.html#7,7,1364,625,1364,768,8-22-2022,8-2-14,43,depth_duration_stimuli/001150_2014-06-17_15-27-34_260595134347_rgbf000108-resize_2/001150_2014-06-17_15-27-34_260595134347_rgbf000108-resize_2-target.png,1000,4.0325,20,5096,968,meters,jsons/v1_VE1000_randls_21.json,1266095,1402365,30,Woman
43,705460,DepthScenes,duration_manipulation_targetAtFixation,jsons/v1_VE1000_randls_21.json,http://54.235.29.9/FacialAge/BNav_EC2/DepthDuration/v2_depth_duration_MTurk/v2_DepthDuration_HTML.html#7,7,1364,625,1364,768,8-22-2022,8-2-14,44,depth_duration_stimuli/000665_2014-06-09_20-42-35_260595134347_rgbf000110-resize_1/000665_2014-06-09_20-42-35_260595134347_rgbf000110-resize_1-target.png,1000,3.057,5,5975,1007,meters,jsons/v1_VE1000_randls_21.json,1266095,1402365,30,Woman
44,705460,DepthScenes,duration_manipulation_targetAtFixation,jsons/v1_VE1000_randls_21.json,http://54.235.29.9/FacialAge/BNav_EC2/DepthDuration/v2_depth_duration_MTurk/v2_DepthDuration_HTML.html#7,7,1364,625,1364,768,8-22-2022,8-2-14,45,depth_duration_stimuli/000787_2014-06-08_22-33-53_260595134347_rgbf000175-resize_1/000787_2014-06-08_22-33-53_260595134347_rgbf000175-resize-original.jpg,1000,4.784,7,6102,999,meters,jsons/v1_VE1000_randls_21.json,1266095,1402365,30,Woman
45,705460,DepthScenes,duration_manipulation_targetAtFixation,jsons/v1_VE1000_randls_21.json,http://54.235.29.9/FacialAge/BNav_EC2/DepthDuration/v2_depth_duration_MTurk/v2_DepthDuration_HTML.html#7,7,1364,625,1364,768,8-22-2022,8-2-14,46,depth_duration_stimuli/001092_2014-06-15_17-34-58_260595134347_rgbf000171-resize_3/001092_2014-06-15_17-34-58_260595134347_rgbf000171-resize_3-target.png,1000,2.6935,5,4160,998,meters,jsons/v1_VE1000_randls_21.json,1266095,1402365,30,Woman
46,705460,DepthScenes,duration_manipulation_targetAtFixation,jsons/v1_VE1000_randls_21.json,http://54.235.29.9/FacialAge/BNav_EC2/DepthDuration/v2_depth_duration_MTurk/v2_DepthDuration_HTML.html#7,7,1364,625,1364,768,8-22-2022,8-2-14,47,depth_duration_stimuli/002545_2014-06-24_13-38-53_094959634447_rgbf000080-resize_4/002545_2014-06-24_13-38-53_094959634447_rgbf000080-resize_4-target.png,1000,1.9205,3,3815,856,meters,jsons/v1_VE1000_randls_21.json,1266095,1402365,30,Woman
47,705460,DepthScenes,duration_manipulation_targetAtFixation,jsons/v1_VE1000_randls_21.json,http://54.235.29.9/FacialAge/BNav_EC2/DepthDuration/v2_depth_duration_MTurk/v2_DepthDuration_HTML.html#7,7,1364,625,1364,768,8-22-2022,8-2-14,48,depth_duration_stimuli/002445_2014-06-28_20-32-16_260595134347_rgbf000029-resize_4/002445_2014-06-28_20-32-16_260595134347_rgbf000029-resize_4-target.png,1000,2.5315,5,6341,997,meters,jsons/v1_VE1000_randls_21.json,1266095,1402365,30,Woman
48,705460,DepthScenes,duration_manipulation_targetAtFixation,jsons/v1_VE1000_randls_21.json,http://54.235.29.9/FacialAge/BNav_EC2/DepthDuration/v2_depth_duration_MTurk/v2_DepthDuration_HTML.html#7,7,1364,625,1364,768,8-22-2022,8-2-14,49,depth_duration_stimuli/000780_2014-06-08_22-28-29_260595134347_rgbf000126-resize_1/000780_2014-06-08_22-28-29_260595134347_rgbf000126-resize_1-target.png,1000,3.3825,4,6328,999,meters,jsons/v1_VE1000_randls_21.json,1266095,1402365,30,Woman
49,705460,DepthScenes,duration_manipulation_targetAtFixation,jsons/v1_VE1000_randls_21.json,http://54.235.29.9/FacialAge/BNav_EC2/DepthDuration/v2_depth_duration_MTurk/v2_DepthDuration_HTML.html#7,7,1364,625,1364,768,8-22-2022,8-2-14,50,depth_duration_stimuli/001059_2014-06-08_21-53-27_260595134347_rgbf000061-resize_4/001059_2014-06-08_21-53-27_260595134347_rgbf000061-resize_4-target.png,1000,2.4185,5,3807,998,meters,jsons/v1_VE1000_randls_21.json,1266095,1402365,30,Woman
50,705460,DepthScenes,duration_manipulation_targetAtFixation,jsons/v1_VE1000_randls_21.json,http://54.235.29.9/FacialAge/BNav_EC2/DepthDuration/v2_depth_duration_MTurk/v2_DepthDuration_HTML.html#7,7,1364,625,1364,768,8-22-2022,8-2-14,51,depth_duration_stimuli/001032_2014-06-08_13-23-17_260595134347_rgbf000021-resize_3/001032_2014-06-08_13-23-17_260595134347_rgbf000021-resize_3-target.png,1000,3.2725,5,6684,999,meters,jsons/v1_VE1000_randls_21.json,1266095,1402365,30,Woman
51,705460,DepthScenes,duration_manipulation_targetAtFixation,jsons/v1_VE1000_randls_21.json,http://54.235.29.9/FacialAge/BNav_EC2/DepthDuration/v2_depth_duration_MTurk/v2_DepthDuration_HTML.html#7,7,1364,625,1364,768,8-22-2022,8-2-14,52,depth_duration_stimuli/003492_2014-05-21_15-50-55_094959634447_rgbf000828-resize_1/003492_2014-05-21_15-50-55_094959634447_rgbf000828-resize_1-target.png,1000,4.06875,10,5530,955,meters,jsons/v1_VE1000_randls_21.json,1266095,1402365,30,Woman
52,705460,DepthScenes,duration_manipulation_targetAtFixation,jsons/v1_VE1000_randls_21.json,http://54.235.29.9/FacialAge/BNav_EC2/DepthDuration/v2_depth_duration_MTurk/v2_DepthDuration_HTML.html#7,7,1364,625,1364,768,8-22-2022,8-2-14,53,depth_duration_stimuli/002568_2014-06-24_13-59-21_094959634447_rgbf000062-resize_4/002568_2014-06-24_13-59-21_094959634447_rgbf000062-resize_4-target.png,1000,3.015,30,5213,998,meters,jsons/v1_VE1000_randls_21.json,1266095,1402365,30,Woman
53,705460,DepthScenes,duration_manipulation_targetAtFixation,jsons/v1_VE1000_randls_21.json,http://54.235.29.9/FacialAge/BNav_EC2/DepthDuration/v2_depth_duration_MTurk/v2_DepthDuration_HTML.html#7,7,1364,625,1364,768,8-22-2022,8-2-14,54,depth_duration_stimuli/000447_2014-06-08_16-15-46_260595134347_rgbf000130-resize_1/000447_2014-06-08_16-15-46_260595134347_rgbf000130-resize_1-target.png,1000,4.479,10,8310,1002,meters,jsons/v1_VE1000_randls_21.json,1266095,1402365,30,Woman
54,705460,DepthScenes,duration_manipulation_targetAtFixation,jsons/v1_VE1000_randls_21.json,http://54.235.29.9/FacialAge/BNav_EC2/DepthDuration/v2_depth_duration_MTurk/v2_DepthDuration_HTML.html#7,7,1364,625,1364,768,8-22-2022,8-2-14,55,depth_duration_stimuli/001447_2014-06-19_17-00-32_260595134347_rgbf000082-resize_5/001447_2014-06-19_17-00-32_260595134347_rgbf000082-resize_5-target.png,1000,4.13775,30,4858,990,meters,jsons/v1_VE1000_randls_21.json,1266095,1402365,30,Woman
55,705460,DepthScenes,duration_manipulation_targetAtFixation,jsons/v1_VE1000_randls_21.json,http://54.235.29.9/FacialAge/BNav_EC2/DepthDuration/v2_depth_duration_MTurk/v2_DepthDuration_HTML.html#7,7,1364,625,1364,768,8-22-2022,8-2-14,56,depth_duration_stimuli/003292_2014-05-14_21-53-49_094959634447_rgbf000100-resize_2/003292_2014-05-14_21-53-49_094959634447_rgbf000100-resize_2-target.png,1000,3.4815,10,9982,1002,meters,jsons/v1_VE1000_randls_21.json,1266095,1402365,30,Woman
56,705460,DepthScenes,duration_manipulation_targetAtFixation,jsons/v1_VE1000_randls_21.json,http://54.235.29.9/FacialAge/BNav_EC2/DepthDuration/v2_depth_duration_MTurk/v2_DepthDuration_HTML.html#7,7,1364,625,1364,768,8-22-2022,8-2-14,57,depth_duration_stimuli/002639_2014-06-24_14-51-37_094959634447_rgbf000074-resize_4/002639_2014-06-24_14-51-37_094959634447_rgbf000074-resize_4-target.png,1000,4.0375,2,6059,999,meters,jsons/v1_VE1000_randls_21.json,1266095,1402365,30,Woman
57,705460,DepthScenes,duration_manipulation_targetAtFixation,jsons/v1_VE1000_randls_21.json,http://54.235.29.9/FacialAge/BNav_EC2/DepthDuration/v2_depth_duration_MTurk/v2_DepthDuration_HTML.html#7,7,1364,625,1364,768,8-22-2022,8-2-14,58,depth_duration_stimuli/002057_2014-06-24_21-00-13_260595134347_rgbf000120-resize_1/002057_2014-06-24_21-00-13_260595134347_rgbf000120-resize_1-target.png,1000,2.967,3,8164,1000,meters,jsons/v1_VE1000_randls_21.json,1266095,1402365,30,Woman
58,705460,DepthScenes,duration_manipulation_targetAtFixation,jsons/v1_VE1000_randls_21.json,http://54.235.29.9/FacialAge/BNav_EC2/DepthDuration/v2_depth_duration_MTurk/v2_DepthDuration_HTML.html#7,7,1364,625,1364,768,8-22-2022,8-2-14,59,depth_duration_stimuli/000709_2014-06-08_13-51-55_260595134347_rgbf000068-resize_3/000709_2014-06-08_13-51-55_260595134347_rgbf000068-resize_3-target.png,1000,1.8030000000000002,6,6066,1003,meters,jsons/v1_VE1000_randls_21.json,1266095,1402365,30,Woman
59,705460,DepthScenes,duration_manipulation_targetAtFixation,jsons/v1_VE1000_randls_21.json,http://54.235.29.9/FacialAge/BNav_EC2/DepthDuration/v2_depth_duration_MTurk/v2_DepthDuration_HTML.html#7,7,1364,625,1364,768,8-22-2022,8-2-14,60,depth_duration_stimuli/000736_2014-06-08_18-24-15_260595134347_rgbf000206-resize_3/000736_2014-06-08_18-24-15_260595134347_rgbf000206-resize_3-target.png,1000,3.515,3,7040,1008,meters,jsons/v1_VE1000_randls_21.json,1266095,1402365,30,Woman
60,705460,DepthScenes,duration_manipulation_targetAtFixation,jsons/v1_VE1000_randls_21.json,http://54.235.29.9/FacialAge/BNav_EC2/DepthDuration/v2_depth_duration_MTurk/v2_DepthDuration_HTML.html#7,7,1364,625,1364,768,8-22-2022,8-2-14,61,depth_duration_stimuli/000137_2014-05-20_17-04-49_260595134347_rgbf000120-resize_1/000137_2014-05-20_17-04-49_260595134347_rgbf000120-resize_1-target.png,1000,3.786,4,3907,976,meters,jsons/v1_VE1000_randls_21.json,1266095,1402365,30,Woman
61,705460,DepthScenes,duration_manipulation_targetAtFixation,jsons/v1_VE1000_randls_21.json,http://54.235.29.9/FacialAge/BNav_EC2/DepthDuration/v2_depth_duration_MTurk/v2_DepthDuration_HTML.html#7,7,1364,625,1364,768,8-22-2022,8-2-14,62,depth_duration_stimuli/000788_2014-06-08_22-34-36_260595134347_rgbf000131-resize_1/000788_2014-06-08_22-34-36_260595134347_rgbf000131-resize_1-target.png,1000,3.359,5,4795,998,meters,jsons/v1_VE1000_randls_21.json,1266095,1402365,30,Woman
62,705460,DepthScenes,duration_manipulation_targetAtFixation,jsons/v1_VE1000_randls_21.json,http://54.235.29.9/FacialAge/BNav_EC2/DepthDuration/v2_depth_duration_MTurk/v2_DepthDuration_HTML.html#7,7,1364,625,1364,768,8-22-2022,8-2-14,63,depth_duration_stimuli/001235_2014-06-17_16-37-36_260595134347_rgbf000084-resize_4/001235_2014-06-17_16-37-36_260595134347_rgbf000084-resize_4-target.png,1000,3.6605,3,6930,999,meters,jsons/v1_VE1000_randls_21.json,1266095,1402365,30,Woman
63,705460,DepthScenes,duration_manipulation_targetAtFixation,jsons/v1_VE1000_randls_21.json,http://54.235.29.9/FacialAge/BNav_EC2/DepthDuration/v2_depth_duration_MTurk/v2_DepthDuration_HTML.html#7,7,1364,625,1364,768,8-22-2022,8-2-14,64,depth_duration_stimuli/002272_2014-06-28_18-53-56_260595134347_rgbf000067-resize_2/002272_2014-06-28_18-53-56_260595134347_rgbf000067-resize_2-target.png,1000,1.138,2,6451,1000,meters,jsons/v1_VE1000_randls_21.json,1266095,1402365,30,Woman
64,705460,DepthScenes,duration_manipulation_targetAtFixation,jsons/v1_VE1000_randls_21.json,http://54.235.29.9/FacialAge/BNav_EC2/DepthDuration/v2_depth_duration_MTurk/v2_DepthDuration_HTML.html#7,7,1364,625,1364,768,8-22-2022,8-2-14,65,depth_duration_stimuli/001571_2014-06-20_17-21-32_260595134347_rgbf000089-resize_1/001571_2014-06-20_17-21-32_260595134347_rgbf000089-resize_1-target.png,1000,1.86,5,4237,1012,meters,jsons/v1_VE1000_randls_21.json,1266095,1402365,30,Woman
65,705460,DepthScenes,duration_manipulation_targetAtFixation,jsons/v1_VE1000_randls_21.json,http://54.235.29.9/FacialAge/BNav_EC2/DepthDuration/v2_depth_duration_MTurk/v2_DepthDuration_HTML.html#7,7,1364,625,1364,768,8-22-2022,8-2-14,66,depth_duration_stimuli/001222_2014-06-17_16-24-06_260595134347_rgbf000073-resize_0/001222_2014-06-17_16-24-06_260595134347_rgbf000073-resize-original.jpg,1000,1.4385,8,6747,1000,meters,jsons/v1_VE1000_randls_21.json,1266095,1402365,30,Woman
66,705460,DepthScenes,duration_manipulation_targetAtFixation,jsons/v1_VE1000_randls_21.json,http://54.235.29.9/FacialAge/BNav_EC2/DepthDuration/v2_depth_duration_MTurk/v2_DepthDuration_HTML.html#7,7,1364,625,1364,768,8-22-2022,8-2-14,67,depth_duration_stimuli/000739_2014-06-08_18-45-58_260595134347_rgbf000068-resize_1/000739_2014-06-08_18-45-58_260595134347_rgbf000068-resize_1-target.png,1000,3.534,5,6309,984,meters,jsons/v1_VE1000_randls_21.json,1266095,1402365,30,Woman
67,705460,DepthScenes,duration_manipulation_targetAtFixation,jsons/v1_VE1000_randls_21.json,http://54.235.29.9/FacialAge/BNav_EC2/DepthDuration/v2_depth_duration_MTurk/v2_DepthDuration_HTML.html#7,7,1364,625,1364,768,8-22-2022,8-2-14,68,depth_duration_stimuli/000734_2014-06-08_17-39-11_260595134347_rgbf000128-resize_2/000734_2014-06-08_17-39-11_260595134347_rgbf000128-resize_2-target.png,1000,4.098,7,4782,993,meters,jsons/v1_VE1000_randls_21.json,1266095,1402365,30,Woman
68,705460,DepthScenes,duration_manipulation_targetAtFixation,jsons/v1_VE1000_randls_21.json,http://54.235.29.9/FacialAge/BNav_EC2/DepthDuration/v2_depth_duration_MTurk/v2_DepthDuration_HTML.html#7,7,1364,625,1364,768,8-22-2022,8-2-14,69,depth_duration_stimuli/001016_2014-06-09_16-16-10_260595134347_rgbf000112-resize_5/001016_2014-06-09_16-16-10_260595134347_rgbf000112-resize_5-target.png,1000,1.6565,10,8135,1041,meters,jsons/v1_VE1000_randls_21.json,1266095,1402365,30,Woman
69,705460,DepthScenes,duration_manipulation_targetAtFixation,jsons/v1_VE1000_randls_21.json,http://54.235.29.9/FacialAge/BNav_EC2/DepthDuration/v2_depth_duration_MTurk/v2_DepthDuration_HTML.html#7,7,1364,625,1364,768,8-22-2022,8-2-14,70,depth_duration_stimuli/002340_2014-06-28_20-05-46_260595134347_rgbf000113-resize_0/002340_2014-06-28_20-05-46_260595134347_rgbf000113-resize_0-target.png,1000,2.4735,12,6120,1001,meters,jsons/v1_VE1000_randls_21.json,1266095,1402365,30,Woman
70,705460,DepthScenes,duration_manipulation_targetAtFixation,jsons/v1_VE1000_randls_21.json,http://54.235.29.9/FacialAge/BNav_EC2/DepthDuration/v2_depth_duration_MTurk/v2_DepthDuration_HTML.html#7,7,1364,625,1364,768,8-22-2022,8-2-14,71,depth_duration_stimuli/001110_2014-06-15_17-25-28_260595134347_rgbf000150-resize_1/001110_2014-06-15_17-25-28_260595134347_rgbf000150-resize_1-target.png,1000,1.7115,20,4489,998,meters,jsons/v1_VE1000_randls_21.json,1266095,1402365,30,Woman
71,705460,DepthScenes,duration_manipulation_targetAtFixation,jsons/v1_VE1000_randls_21.json,http://54.235.29.9/FacialAge/BNav_EC2/DepthDuration/v2_depth_duration_MTurk/v2_DepthDuration_HTML.html#7,7,1364,625,1364,768,8-22-2022,8-2-14,72,depth_duration_stimuli/000927_2014-06-09_16-32-30_260595134347_rgbf000123-resize_3/000927_2014-06-09_16-32-30_260595134347_rgbf000123-resize_3-target.png,1000,2.6785,2,5659,1010,meters,jsons/v1_VE1000_randls_21.json,1266095,1402365,30,Woman
72,705460,DepthScenes,duration_manipulation_targetAtFixation,jsons/v1_VE1000_randls_21.json,http://54.235.29.9/FacialAge/BNav_EC2/DepthDuration/v2_depth_duration_MTurk/v2_DepthDuration_HTML.html#7,7,1364,625,1364,768,8-22-2022,8-2-14,73,depth_duration_stimuli/002375_2014-06-28_20-13-44_260595134347_rgbf000032-resize_1/002375_2014-06-28_20-13-44_260595134347_rgbf000032-resize_1-target.png,1000,4.0175,20,4102,959,meters,jsons/v1_VE1000_randls_21.json,1266095,1402365,30,Woman
73,705460,DepthScenes,duration_manipulation_targetAtFixation,jsons/v1_VE1000_randls_21.json,http://54.235.29.9/FacialAge/BNav_EC2/DepthDuration/v2_depth_duration_MTurk/v2_DepthDuration_HTML.html#7,7,1364,625,1364,768,8-22-2022,8-2-14,74,depth_duration_stimuli/002657_2014-06-13_15-29-54_094959634447_rgbf000150-resize_1/002657_2014-06-13_15-29-54_094959634447_rgbf000150-resize_1-target.png,1000,4.919,3,7551,1011,meters,jsons/v1_VE1000_randls_21.json,1266095,1402365,30,Woman
74,705460,DepthScenes,duration_manipulation_targetAtFixation,jsons/v1_VE1000_randls_21.json,http://54.235.29.9/FacialAge/BNav_EC2/DepthDuration/v2_depth_duration_MTurk/v2_DepthDuration_HTML.html#7,7,1364,625,1364,768,8-22-2022,8-2-14,75,depth_duration_stimuli/000773_2014-06-08_22-24-54_260595134347_rgbf000093-resize_1/000773_2014-06-08_22-24-54_260595134347_rgbf000093-resize_1-target.png,1000,4.973,10,4832,999,meters,jsons/v1_VE1000_randls_21.json,1266095,1402365,30,Woman
75,705460,DepthScenes,duration_manipulation_targetAtFixation,jsons/v1_VE1000_randls_21.json,http://54.235.29.9/FacialAge/BNav_EC2/DepthDuration/v2_depth_duration_MTurk/v2_DepthDuration_HTML.html#7,7,1364,625,1364,768,8-22-2022,8-2-14,76,depth_duration_stimuli/002414_2014-06-28_20-24-58_260595134347_rgbf000067-resize_4/002414_2014-06-28_20-24-58_260595134347_rgbf000067-resize_4-target.png,1000,4.363,10,4470,873,meters,jsons/v1_VE1000_randls_21.json,1266095,1402365,30,Woman
76,705460,DepthScenes,duration_manipulation_targetAtFixation,jsons/v1_VE1000_randls_21.json,http://54.235.29.9/FacialAge/BNav_EC2/DepthDuration/v2_depth_duration_MTurk/v2_DepthDuration_HTML.html#7,7,1364,625,1364,768,8-22-2022,8-2-14,77,depth_duration_stimuli/000436_2014-06-09_22-25-11_260595134347_rgbf000137-resize_1/000436_2014-06-09_22-25-11_260595134347_rgbf000137-resize_1-target.png,1000,4.0705,10,4583,985,meters,jsons/v1_VE1000_randls_21.json,1266095,1402365,30,Woman
77,705460,DepthScenes,duration_manipulation_targetAtFixation,jsons/v1_VE1000_randls_21.json,http://54.235.29.9/FacialAge/BNav_EC2/DepthDuration/v2_depth_duration_MTurk/v2_DepthDuration_HTML.html#7,7,1364,625,1364,768,8-22-2022,8-2-14,78,depth_duration_stimuli/002444_2014-06-28_20-32-08_260595134347_rgbf000027-resize_0/002444_2014-06-28_20-32-08_260595134347_rgbf000027-resize_0-target.png,1000,4.388999999999999,10,6501,1080,meters,jsons/v1_VE1000_randls_21.json,1266095,1402365,30,Woman
78,705460,DepthScenes,duration_manipulation_targetAtFixation,jsons/v1_VE1000_randls_21.json,http://54.235.29.9/FacialAge/BNav_EC2/DepthDuration/v2_depth_duration_MTurk/v2_DepthDuration_HTML.html#7,7,1364,625,1364,768,8-22-2022,8-2-14,79,depth_duration_stimuli/002570_2014-06-24_13-59-54_094959634447_rgbf000059-resize_0/002570_2014-06-24_13-59-54_094959634447_rgbf000059-resize_0-target.png,1000,4.037,1,16929,1002,meters,jsons/v1_VE1000_randls_21.json,1266095,1402365,30,Woman
79,705460,DepthScenes,duration_manipulation_targetAtFixation,jsons/v1_VE1000_randls_21.json,http://54.235.29.9/FacialAge/BNav_EC2/DepthDuration/v2_depth_duration_MTurk/v2_DepthDuration_HTML.html#7,7,1364,625,1364,768,8-22-2022,8-2-14,80,depth_duration_stimuli/002467_2014-06-28_20-38-07_260595134347_rgbf000026-resize_2/002467_2014-06-28_20-38-07_260595134347_rgbf000026-resize_2-target.png,1000,4.742,4,5350,1005,meters,jsons/v1_VE1000_randls_21.json,1266095,1402365,30,Woman
80,705460,DepthScenes,duration_manipulation_targetAtFixation,jsons/v1_VE1000_randls_21.json,http://54.235.29.9/FacialAge/BNav_EC2/DepthDuration/v2_depth_duration_MTurk/v2_DepthDuration_HTML.html#7,7,1364,625,1364,768,8-22-2022,8-2-14,81,depth_duration_stimuli/002725_2014-06-22_11-47-51_094959634447_rgbf000070-resize_1/002725_2014-06-22_11-47-51_094959634447_rgbf000070-resize_1-target.png,1000,2.195,3,4239,999,meters,jsons/v1_VE1000_randls_21.json,1266095,1402365,30,Woman
81,705460,DepthScenes,duration_manipulation_targetAtFixation,jsons/v1_VE1000_randls_21.json,http://54.235.29.9/FacialAge/BNav_EC2/DepthDuration/v2_depth_duration_MTurk/v2_DepthDuration_HTML.html#7,7,1364,625,1364,768,8-22-2022,8-2-14,82,depth_duration_stimuli/002344_2014-06-28_20-06-29_260595134347_rgbf000030-resize_1/002344_2014-06-28_20-06-29_260595134347_rgbf000030-resize_1-target.png,1000,1.5795,3,3803,1002,meters,jsons/v1_VE1000_randls_21.json,1266095,1402365,30,Woman
82,705460,DepthScenes,duration_manipulation_targetAtFixation,jsons/v1_VE1000_randls_21.json,http://54.235.29.9/FacialAge/BNav_EC2/DepthDuration/v2_depth_duration_MTurk/v2_DepthDuration_HTML.html#7,7,1364,625,1364,768,8-22-2022,8-2-14,83,depth_duration_stimuli/003534_2014-05-22_15-06-10_094959634447_rgbf000102-resize_4/003534_2014-05-22_15-06-10_094959634447_rgbf000102-resize_4-target.png,1000,1.426,4,5891,997,meters,jsons/v1_VE1000_randls_21.json,1266095,1402365,30,Woman
83,705460,DepthScenes,duration_manipulation_targetAtFixation,jsons/v1_VE1000_randls_21.json,http://54.235.29.9/FacialAge/BNav_EC2/DepthDuration/v2_depth_duration_MTurk/v2_DepthDuration_HTML.html#7,7,1364,625,1364,768,8-22-2022,8-2-14,84,depth_duration_stimuli/002637_2014-06-24_14-51-13_094959634447_rgbf000066-resize_4/002637_2014-06-24_14-51-13_094959634447_rgbf000066-resize_4-target.png,1000,1.9955,10,7433,1013,meters,jsons/v1_VE1000_randls_21.json,1266095,1402365,30,Woman
84,705460,DepthScenes,duration_manipulation_targetAtFixation,jsons/v1_VE1000_randls_21.json,http://54.235.29.9/FacialAge/BNav_EC2/DepthDuration/v2_depth_duration_MTurk/v2_DepthDuration_HTML.html#7,7,1364,625,1364,768,8-22-2022,8-2-14,85,depth_duration_stimuli/000878_2014-06-08_22-52-45_260595134347_rgbf000045-resize_2/000878_2014-06-08_22-52-45_260595134347_rgbf000045-resize_2-target.png,1000,2.092,10,6530,998,meters,jsons/v1_VE1000_randls_21.json,1266095,1402365,30,Woman
85,705460,DepthScenes,duration_manipulation_targetAtFixation,jsons/v1_VE1000_randls_21.json,http://54.235.29.9/FacialAge/BNav_EC2/DepthDuration/v2_depth_duration_MTurk/v2_DepthDuration_HTML.html#7,7,1364,625,1364,768,8-22-2022,8-2-14,86,depth_duration_stimuli/002953_2014-06-08_17-32-18_094959634447_rgbf000059-resize_5/002953_2014-06-08_17-32-18_094959634447_rgbf000059-resize_5-target.png,1000,1.551,10,3534,1019,meters,jsons/v1_VE1000_randls_21.json,1266095,1402365,30,Woman
86,705460,DepthScenes,duration_manipulation_targetAtFixation,jsons/v1_VE1000_randls_21.json,http://54.235.29.9/FacialAge/BNav_EC2/DepthDuration/v2_depth_duration_MTurk/v2_DepthDuration_HTML.html#7,7,1364,625,1364,768,8-22-2022,8-2-14,87,depth_duration_stimuli/001133_2014-06-17_14-49-16_260595134347_rgbf000100-resize_0/001133_2014-06-17_14-49-16_260595134347_rgbf000100-resize_0-target.png,1000,4.2115,2,5552,1003,meters,jsons/v1_VE1000_randls_21.json,1266095,1402365,30,Woman
87,705460,DepthScenes,duration_manipulation_targetAtFixation,jsons/v1_VE1000_randls_21.json,http://54.235.29.9/FacialAge/BNav_EC2/DepthDuration/v2_depth_duration_MTurk/v2_DepthDuration_HTML.html#7,7,1364,625,1364,768,8-22-2022,8-2-14,88,depth_duration_stimuli/001132_2014-06-17_14-48-54_260595134347_rgbf000100-resize_2/001132_2014-06-17_14-48-54_260595134347_rgbf000100-resize_2-target.png,1000,3.753,10,6652,998,meters,jsons/v1_VE1000_randls_21.json,1266095,1402365,30,Woman
88,705460,DepthScenes,duration_manipulation_targetAtFixation,jsons/v1_VE1000_randls_21.json,http://54.235.29.9/FacialAge/BNav_EC2/DepthDuration/v2_depth_duration_MTurk/v2_DepthDuration_HTML.html#7,7,1364,625,1364,768,8-22-2022,8-2-14,89,depth_duration_stimuli/002788_2014-06-22_19-36-03_094959634447_rgbf000088-resize_2/002788_2014-06-22_19-36-03_094959634447_rgbf000088-resize_2-target.png,1000,1.6465,10,34903,1001,meters,jsons/v1_VE1000_randls_21.json,1266095,1402365,30,Woman
89,705460,DepthScenes,duration_manipulation_targetAtFixation,jsons/v1_VE1000_randls_21.json,http://54.235.29.9/FacialAge/BNav_EC2/DepthDuration/v2_depth_duration_MTurk/v2_DepthDuration_HTML.html#7,7,1364,625,1364,768,8-22-2022,8-2-14,90,depth_duration_stimuli/000749_2014-06-08_21-55-06_260595134347_rgbf000070-resize_2/000749_2014-06-08_21-55-06_260595134347_rgbf000070-resize_2-target.png,1000,2.331,20,3776,1004,meters,jsons/v1_VE1000_randls_21.json,1266095,1402365,30,Woman
90,705460,DepthScenes,duration_manipulation_targetAtFixation,jsons/v1_VE1000_randls_21.json,http://54.235.29.9/FacialAge/BNav_EC2/DepthDuration/v2_depth_duration_MTurk/v2_DepthDuration_HTML.html#7,7,1364,625,1364,768,8-22-2022,8-2-14,91,depth_duration_stimuli/002988_2014-06-15_12-24-20_094959634447_rgbf000150-resize_1/002988_2014-06-15_12-24-20_094959634447_rgbf000150-resize_1-target.png,1000,4.7669999999999995,2,3333,999,meters,jsons/v1_VE1000_randls_21.json,1266095,1402365,30,Woman
91,705460,DepthScenes,duration_manipulation_targetAtFixation,jsons/v1_VE1000_randls_21.json,http://54.235.29.9/FacialAge/BNav_EC2/DepthDuration/v2_depth_duration_MTurk/v2_DepthDuration_HTML.html#7,7,1364,625,1364,768,8-22-2022,8-2-14,92,depth_duration_stimuli/001052_2014-06-08_18-24-54_260595134347_rgbf000130-resize_1/001052_2014-06-08_18-24-54_260595134347_rgbf000130-resize_1-target.png,1000,4.1045,5,3224,1093,meters,jsons/v1_VE1000_randls_21.json,1266095,1402365,30,Woman
92,705460,DepthScenes,duration_manipulation_targetAtFixation,jsons/v1_VE1000_randls_21.json,http://54.235.29.9/FacialAge/BNav_EC2/DepthDuration/v2_depth_duration_MTurk/v2_DepthDuration_HTML.html#7,7,1364,625,1364,768,8-22-2022,8-2-14,93,depth_duration_stimuli/000368_2014-06-09_15-53-01_260595134347_rgbf000155-resize_2/000368_2014-06-09_15-53-01_260595134347_rgbf000155-resize_2-target.png,1000,2.4859999999999998,2,5607,993,meters,jsons/v1_VE1000_randls_21.json,1266095,1402365,30,Woman
93,705460,DepthScenes,duration_manipulation_targetAtFixation,jsons/v1_VE1000_randls_21.json,http://54.235.29.9/FacialAge/BNav_EC2/DepthDuration/v2_depth_duration_MTurk/v2_DepthDuration_HTML.html#7,7,1364,625,1364,768,8-22-2022,8-2-14,94,depth_duration_stimuli/002678_2014-06-13_16-15-32_094959634447_rgbf000151-resize_6/002678_2014-06-13_16-15-32_094959634447_rgbf000151-resize_6-target.png,1000,2.1830000000000003,2,23296,999,meters,jsons/v1_VE1000_randls_21.json,1266095,1402365,30,Woman
94,705460,DepthScenes,duration_manipulation_targetAtFixation,jsons/v1_VE1000_randls_21.json,http://54.235.29.9/FacialAge/BNav_EC2/DepthDuration/v2_depth_duration_MTurk/v2_DepthDuration_HTML.html#7,7,1364,625,1364,768,8-22-2022,8-2-14,95,depth_duration_stimuli/001066_2014-06-08_22-03-20_260595134347_rgbf000066-resize_4/001066_2014-06-08_22-03-20_260595134347_rgbf000066-resize_4-target.png,1000,4.2330000000000005,4,3687,1000,meters,jsons/v1_VE1000_randls_21.json,1266095,1402365,30,Woman
95,705460,DepthScenes,duration_manipulation_targetAtFixation,jsons/v1_VE1000_randls_21.json,http://54.235.29.9/FacialAge/BNav_EC2/DepthDuration/v2_depth_duration_MTurk/v2_DepthDuration_HTML.html#7,7,1364,625,1364,768,8-22-2022,8-2-14,96,depth_duration_stimuli/000742_2014-06-08_18-48-09_260595134347_rgbf000164-resize_4/000742_2014-06-08_18-48-09_260595134347_rgbf000164-resize_4-target.png,1000,4.632,7,4714,1006,meters,jsons/v1_VE1000_randls_21.json,1266095,1402365,30,Woman
96,705460,DepthScenes,duration_manipulation_targetAtFixation,jsons/v1_VE1000_randls_21.json,http://54.235.29.9/FacialAge/BNav_EC2/DepthDuration/v2_depth_duration_MTurk/v2_DepthDuration_HTML.html#7,7,1364,625,1364,768,8-22-2022,8-2-14,97,depth_duration_stimuli/001808_2014-06-26_20-50-58_260595134347_rgbf000029-resize_1/001808_2014-06-26_20-50-58_260595134347_rgbf000029-resize_1-target.png,1000,4.249,8,4632,1005,meters,jsons/v1_VE1000_randls_21.json,1266095,1402365,30,Woman
97,705460,DepthScenes,duration_manipulation_targetAtFixation,jsons/v1_VE1000_randls_21.json,http://54.235.29.9/FacialAge/BNav_EC2/DepthDuration/v2_depth_duration_MTurk/v2_DepthDuration_HTML.html#7,7,1364,625,1364,768,8-22-2022,8-2-14,98,depth_duration_stimuli/001815_2014-06-26_20-52-55_260595134347_rgbf000020-resize_0/001815_2014-06-26_20-52-55_260595134347_rgbf000020-resize_0-target.png,1000,3.3865,5,4319,1041,meters,jsons/v1_VE1000_randls_21.json,1266095,1402365,30,Woman
98,705460,DepthScenes,duration_manipulation_targetAtFixation,jsons/v1_VE1000_randls_21.json,http://54.235.29.9/FacialAge/BNav_EC2/DepthDuration/v2_depth_duration_MTurk/v2_DepthDuration_HTML.html#7,7,1364,625,1364,768,8-22-2022,8-2-14,99,depth_duration_stimuli/001540_2014-06-20_17-01-05_260595134347_rgbf000086-resize_2/001540_2014-06-20_17-01-05_260595134347_rgbf000086-resize-original.jpg,1000,1.459,7,3460,999,meters,jsons/v1_VE1000_randls_21.json,1266095,1402365,30,Woman
99,705460,DepthScenes,duration_manipulation_targetAtFixation,jsons/v1_VE1000_randls_21.json,http://54.235.29.9/FacialAge/BNav_EC2/DepthDuration/v2_depth_duration_MTurk/v2_DepthDuration_HTML.html#7,7,1364,625,1364,768,8-22-2022,8-2-14,100,depth_duration_stimuli/002763_2014-06-22_19-13-10_094959634447_rgbf000075-resize_4/002763_2014-06-22_19-13-10_094959634447_rgbf000075-resize_4-target.png,1000,1.68375,10,5372,1001,meters,jsons/v1_VE1000_randls_21.json,1266095,1402365,30,Woman
100,705460,DepthScenes,duration_manipulation_targetAtFixation,jsons/v1_VE1000_randls_21.json,http://54.235.29.9/FacialAge/BNav_EC2/DepthDuration/v2_depth_duration_MTurk/v2_DepthDuration_HTML.html#7,7,1364,625,1364,768,8-22-2022,8-2-14,101,depth_duration_stimuli/002209_2014-06-28_18-36-10_260595134347_rgbf000051-resize_1/002209_2014-06-28_18-36-10_260595134347_rgbf000051-resize_1-target.png,1000,2.057,20,3626,1001,meters,jsons/v1_VE1000_randls_21.json,1266095,1402365,30,Woman
101,705460,DepthScenes,duration_manipulation_targetAtFixation,jsons/v1_VE1000_randls_21.json,http://54.235.29.9/FacialAge/BNav_EC2/DepthDuration/v2_depth_duration_MTurk/v2_DepthDuration_HTML.html#7,7,1364,625,1364,768,8-22-2022,8-2-14,102,depth_duration_stimuli/000682_2014-06-08_23-14-58_260595134347_rgbf000041-resize_5/000682_2014-06-08_23-14-58_260595134347_rgbf000041-resize_5-target.png,1000,2.7239999999999998,10,5259,914,meters,jsons/v1_VE1000_randls_21.json,1266095,1402365,30,Woman
102,705460,DepthScenes,duration_manipulation_targetAtFixation,jsons/v1_VE1000_randls_21.json,http://54.235.29.9/FacialAge/BNav_EC2/DepthDuration/v2_depth_duration_MTurk/v2_DepthDuration_HTML.html#7,7,1364,625,1364,768,8-22-2022,8-2-14,103,depth_duration_stimuli/001650_2014-06-20_12-09-00_260595134347_rgbf000087-resize_3/001650_2014-06-20_12-09-00_260595134347_rgbf000087-resize_3-target.png,1000,1.9505,5,9930,1006,meters,jsons/v1_VE1000_randls_21.json,1266095,1402365,30,Woman
103,705460,DepthScenes,duration_manipulation_targetAtFixation,jsons/v1_VE1000_randls_21.json,http://54.235.29.9/FacialAge/BNav_EC2/DepthDuration/v2_depth_duration_MTurk/v2_DepthDuration_HTML.html#7,7,1364,625,1364,768,8-22-2022,8-2-14,104,depth_duration_stimuli/001164_2014-06-17_15-35-46_260595134347_rgbf000085-resize_3/001164_2014-06-17_15-35-46_260595134347_rgbf000085-resize_3-target.png,1000,2.354,8,6929,992,meters,jsons/v1_VE1000_randls_21.json,1266095,1402365,30,Woman
104,705460,DepthScenes,duration_manipulation_targetAtFixation,jsons/v1_VE1000_randls_21.json,http://54.235.29.9/FacialAge/BNav_EC2/DepthDuration/v2_depth_duration_MTurk/v2_DepthDuration_HTML.html#7,7,1364,625,1364,768,8-22-2022,8-2-14,105,depth_duration_stimuli/001136_2014-06-17_15-19-41_260595134347_rgbf000076-resize_3/001136_2014-06-17_15-19-41_260595134347_rgbf000076-resize_3-target.png,1000,1.8655,4,5323,990,meters,jsons/v1_VE1000_randls_21.json,1266095,1402365,30,Woman
105,705460,DepthScenes,duration_manipulation_targetAtFixation,jsons/v1_VE1000_randls_21.json,http://54.235.29.9/FacialAge/BNav_EC2/DepthDuration/v2_depth_duration_MTurk/v2_DepthDuration_HTML.html#7,7,1364,625,1364,768,8-22-2022,8-2-14,106,depth_duration_stimuli/002039_2014-06-24_20-22-38_260595134347_rgbf000084-resize_1/002039_2014-06-24_20-22-38_260595134347_rgbf000084-resize_1-target.png,1000,4.408,9,5332,1015,meters,jsons/v1_VE1000_randls_21.json,1266095,1402365,30,Woman
106,705460,DepthScenes,duration_manipulation_targetAtFixation,jsons/v1_VE1000_randls_21.json,http://54.235.29.9/FacialAge/BNav_EC2/DepthDuration/v2_depth_duration_MTurk/v2_DepthDuration_HTML.html#7,7,1364,625,1364,768,8-22-2022,8-2-14,107,depth_duration_stimuli/002103_2014-06-25_20-00-40_260595134347_rgbf000049-resize_0/002103_2014-06-25_20-00-40_260595134347_rgbf000049-resize_0-target.png,1000,4.105,6,6966,997,meters,jsons/v1_VE1000_randls_21.json,1266095,1402365,30,Woman
107,705460,DepthScenes,duration_manipulation_targetAtFixation,jsons/v1_VE1000_randls_21.json,http://54.235.29.9/FacialAge/BNav_EC2/DepthDuration/v2_depth_duration_MTurk/v2_DepthDuration_HTML.html#7,7,1364,625,1364,768,8-22-2022,8-2-14,108,depth_duration_stimuli/001158_2014-06-17_15-32-16_260595134347_rgbf000138-resize_2/001158_2014-06-17_15-32-16_260595134347_rgbf000138-resize_2-target.png,1000,4.5315,1,3714,1000,meters,jsons/v1_VE1000_randls_21.json,1266095,1402365,30,Woman
108,705460,DepthScenes,duration_manipulation_targetAtFixation,jsons/v1_VE1000_randls_21.json,http://54.235.29.9/FacialAge/BNav_EC2/DepthDuration/v2_depth_duration_MTurk/v2_DepthDuration_HTML.html#7,7,1364,625,1364,768,8-22-2022,8-2-14,109,depth_duration_stimuli/000556_2014-06-09_22-42-56_260595134347_rgbf000214-resize_1/000556_2014-06-09_22-42-56_260595134347_rgbf000214-resize_1-target.png,1000,4.8415,8,5499,999,meters,jsons/v1_VE1000_randls_21.json,1266095,1402365,30,Woman
109,705460,DepthScenes,duration_manipulation_targetAtFixation,jsons/v1_VE1000_randls_21.json,http://54.235.29.9/FacialAge/BNav_EC2/DepthDuration/v2_depth_duration_MTurk/v2_DepthDuration_HTML.html#7,7,1364,625,1364,768,8-22-2022,8-2-14,110,depth_duration_stimuli/002549_2014-06-24_13-41-39_094959634447_rgbf000022-resize_3/002549_2014-06-24_13-41-39_094959634447_rgbf000022-resize_3-target.png,1000,1.476,8,5012,1006,meters,jsons/v1_VE1000_randls_21.json,1266095,1402365,30,Woman
110,705460,DepthScenes,duration_manipulation_targetAtFixation,jsons/v1_VE1000_randls_21.json,http://54.235.29.9/FacialAge/BNav_EC2/DepthDuration/v2_depth_duration_MTurk/v2_DepthDuration_HTML.html#7,7,1364,625,1364,768,8-22-2022,8-2-14,111,depth_duration_stimuli/002750_2014-06-22_19-08-03_094959634447_rgbf000094-resize_4/002750_2014-06-22_19-08-03_094959634447_rgbf000094-resize_4-target.png,1000,2.354,8,4520,986,meters,jsons/v1_VE1000_randls_21.json,1266095,1402365,30,Woman
111,705460,DepthScenes,duration_manipulation_targetAtFixation,jsons/v1_VE1000_randls_21.json,http://54.235.29.9/FacialAge/BNav_EC2/DepthDuration/v2_depth_duration_MTurk/v2_DepthDuration_HTML.html#7,7,1364,625,1364,768,8-22-2022,8-2-14,112,depth_duration_stimuli/001570_2014-06-20_17-21-09_260595134347_rgbf000135-resize_4/001570_2014-06-20_17-21-09_260595134347_rgbf000135-resize_4-target.png,1000,4.467,7,5451,998,meters,jsons/v1_VE1000_randls_21.json,1266095,1402365,30,Woman
112,705460,DepthScenes,duration_manipulation_targetAtFixation,jsons/v1_VE1000_randls_21.json,http://54.235.29.9/FacialAge/BNav_EC2/DepthDuration/v2_depth_duration_MTurk/v2_DepthDuration_HTML.html#7,7,1364,625,1364,768,8-22-2022,8-2-14,113,depth_duration_stimuli/001392_2014-06-19_16-07-59_260595134347_rgbf000046-resize_1/001392_2014-06-19_16-07-59_260595134347_rgbf000046-resize_1-target.png,1000,4.135,5,4298,999,meters,jsons/v1_VE1000_randls_21.json,1266095,1402365,30,Woman
113,705460,DepthScenes,duration_manipulation_targetAtFixation,jsons/v1_VE1000_randls_21.json,http://54.235.29.9/FacialAge/BNav_EC2/DepthDuration/v2_depth_duration_MTurk/v2_DepthDuration_HTML.html#7,7,1364,625,1364,768,8-22-2022,8-2-14,114,depth_duration_stimuli/001810_2014-06-26_20-51-35_260595134347_rgbf000040-resize_3/001810_2014-06-26_20-51-35_260595134347_rgbf000040-resize_3-target.png,1000,2.2525,7,4826,994,meters,jsons/v1_VE1000_randls_21.json,1266095,1402365,30,Woman
114,705460,DepthScenes,duration_manipulation_targetAtFixation,jsons/v1_VE1000_randls_21.json,http://54.235.29.9/FacialAge/BNav_EC2/DepthDuration/v2_depth_duration_MTurk/v2_DepthDuration_HTML.html#7,7,1364,625,1364,768,8-22-2022,8-2-14,115,depth_duration_stimuli/003010_2014-06-15_12-54-35_094959634447_rgbf000112-resize_0/003010_2014-06-15_12-54-35_094959634447_rgbf000112-resize_0-target.png,1000,3.1185,7,16303,1040,meters,jsons/v1_VE1000_randls_21.json,1266095,1402365,30,Woman
115,705460,DepthScenes,duration_manipulation_targetAtFixation,jsons/v1_VE1000_randls_21.json,http://54.235.29.9/FacialAge/BNav_EC2/DepthDuration/v2_depth_duration_MTurk/v2_DepthDuration_HTML.html#7,7,1364,625,1364,768,8-22-2022,8-2-14,116,depth_duration_stimuli/001170_2014-06-17_15-43-44_260595134347_rgbf000096-resize_6/001170_2014-06-17_15-43-44_260595134347_rgbf000096-resize-original.jpg,1000,1.1909999999999998,7,5872,998,meters,jsons/v1_VE1000_randls_21.json,1266095,1402365,30,Woman
116,705460,DepthScenes,duration_manipulation_targetAtFixation,jsons/v1_VE1000_randls_21.json,http://54.235.29.9/FacialAge/BNav_EC2/DepthDuration/v2_depth_duration_MTurk/v2_DepthDuration_HTML.html#7,7,1364,625,1364,768,8-22-2022,8-2-14,117,depth_duration_stimuli/003621_2014-05-23_18-06-08_094959634447_rgbf000101-resize_1/003621_2014-05-23_18-06-08_094959634447_rgbf000101-resize_1-target.png,1000,3.9835,9,7507,1090,meters,jsons/v1_VE1000_randls_21.json,1266095,1402365,30,Woman
117,705460,DepthScenes,duration_manipulation_targetAtFixation,jsons/v1_VE1000_randls_21.json,http://54.235.29.9/FacialAge/BNav_EC2/DepthDuration/v2_depth_duration_MTurk/v2_DepthDuration_HTML.html#7,7,1364,625,1364,768,8-22-2022,8-2-14,118,depth_duration_stimuli/001584_2014-06-20_11-07-43_260595134347_rgbf000002-resize_1/001584_2014-06-20_11-07-43_260595134347_rgbf000002-resize_1-target.png,1000,3.53,2,5803,846,meters,jsons/v1_VE1000_randls_21.json,1266095,1402365,30,Woman
118,705460,DepthScenes,duration_manipulation_targetAtFixation,jsons/v1_VE1000_randls_21.json,http://54.235.29.9/FacialAge/BNav_EC2/DepthDuration/v2_depth_duration_MTurk/v2_DepthDuration_HTML.html#7,7,1364,625,1364,768,8-22-2022,8-2-14,119,depth_duration_stimuli/002663_2014-06-13_15-50-26_094959634447_rgbf000075-resize_1/002663_2014-06-13_15-50-26_094959634447_rgbf000075-resize_1-target.png,1000,4.7495,2,6569,1038,meters,jsons/v1_VE1000_randls_21.json,1266095,1402365,30,Woman
119,705460,DepthScenes,duration_manipulation_targetAtFixation,jsons/v1_VE1000_randls_21.json,http://54.235.29.9/FacialAge/BNav_EC2/DepthDuration/v2_depth_duration_MTurk/v2_DepthDuration_HTML.html#7,7,1364,625,1364,768,8-22-2022,8-2-14,120,depth_duration_stimuli/000409_2014-06-04_19-23-33_260595134347_rgbf000067-resize_0/000409_2014-06-04_19-23-33_260595134347_rgbf000067-resize_0-target.png,1000,3.7335,5,5478,1028,meters,jsons/v1_VE1000_randls_21.json,1266095,1402365,30,Woman
120,705460,DepthScenes,duration_manipulation_targetAtFixation,jsons/v1_VE1000_randls_21.json,http://54.235.29.9/FacialAge/BNav_EC2/DepthDuration/v2_depth_duration_MTurk/v2_DepthDuration_HTML.html#7,7,1364,625,1364,768,8-22-2022,8-2-14,121,depth_duration_stimuli/000917_2014-06-09_22-45-29_260595134347_rgbf000149-resize_3/000917_2014-06-09_22-45-29_260595134347_rgbf000149-resize_3-target.png,1000,4.1865,7,4949,994,meters,jsons/v1_VE1000_randls_21.json,1266095,1402365,30,Woman
121,705460,DepthScenes,duration_manipulation_targetAtFixation,jsons/v1_VE1000_randls_21.json,http://54.235.29.9/FacialAge/BNav_EC2/DepthDuration/v2_depth_duration_MTurk/v2_DepthDuration_HTML.html#7,7,1364,625,1364,768,8-22-2022,8-2-14,122,depth_duration_stimuli/002323_2014-06-28_20-01-54_260595134347_rgbf000051-resize_4/002323_2014-06-28_20-01-54_260595134347_rgbf000051-resize_4-target.png,1000,3.7310000000000003,52,4242,961,meters,jsons/v1_VE1000_randls_21.json,1266095,1402365,30,Woman
122,705460,DepthScenes,duration_manipulation_targetAtFixation,jsons/v1_VE1000_randls_21.json,http://54.235.29.9/FacialAge/BNav_EC2/DepthDuration/v2_depth_duration_MTurk/v2_DepthDuration_HTML.html#7,7,1364,625,1364,768,8-22-2022,8-2-14,123,depth_duration_stimuli/001167_2014-06-17_15-38-07_260595134347_rgbf000108-resize_0/001167_2014-06-17_15-38-07_260595134347_rgbf000108-resize_0-target.png,1000,1.8505,4,6512,942,meters,jsons/v1_VE1000_randls_21.json,1266095,1402365,30,Woman
123,705460,DepthScenes,duration_manipulation_targetAtFixation,jsons/v1_VE1000_randls_21.json,http://54.235.29.9/FacialAge/BNav_EC2/DepthDuration/v2_depth_duration_MTurk/v2_DepthDuration_HTML.html#7,7,1364,625,1364,768,8-22-2022,8-2-14,124,depth_duration_stimuli/003587_2014-05-23_16-48-02_094959634447_rgbf002384-resize_2/003587_2014-05-23_16-48-02_094959634447_rgbf002384-resize_2-target.png,1000,1.357,9,5301,976,meters,jsons/v1_VE1000_randls_21.json,1266095,1402365,30,Woman
124,705460,DepthScenes,duration_manipulation_targetAtFixation,jsons/v1_VE1000_randls_21.json,http://54.235.29.9/FacialAge/BNav_EC2/DepthDuration/v2_depth_duration_MTurk/v2_DepthDuration_HTML.html#7,7,1364,625,1364,768,8-22-2022,8-2-14,125,depth_duration_stimuli/002748_2014-06-22_19-07-22_094959634447_rgbf000078-resize_1/002748_2014-06-22_19-07-22_094959634447_rgbf000078-resize_1-target.png,1000,4.6705,5,4474,998,meters,jsons/v1_VE1000_randls_21.json,1266095,1402365,30,Woman
125,705460,DepthScenes,duration_manipulation_targetAtFixation,jsons/v1_VE1000_randls_21.json,http://54.235.29.9/FacialAge/BNav_EC2/DepthDuration/v2_depth_duration_MTurk/v2_DepthDuration_HTML.html#7,7,1364,625,1364,768,8-22-2022,8-2-14,126,depth_duration_stimuli/002995_2014-06-15_12-31-26_094959634447_rgbf000150-resize_1/002995_2014-06-15_12-31-26_094959634447_rgbf000150-resize_1-target.png,1000,3.8360000000000003,7,5087,998,meters,jsons/v1_VE1000_randls_21.json,1266095,1402365,30,Woman
126,705460,DepthScenes,duration_manipulation_targetAtFixation,jsons/v1_VE1000_randls_21.json,http://54.235.29.9/FacialAge/BNav_EC2/DepthDuration/v2_depth_duration_MTurk/v2_DepthDuration_HTML.html#7,7,1364,625,1364,768,8-22-2022,8-2-14,127,depth_duration_stimuli/002989_2014-06-15_12-25-03_094959634447_rgbf000150-resize_3/002989_2014-06-15_12-25-03_094959634447_rgbf000150-resize_3-target.png,1000,4.1975,7,5259,990,meters,jsons/v1_VE1000_randls_21.json,1266095,1402365,30,Woman
127,705460,DepthScenes,duration_manipulation_targetAtFixation,jsons/v1_VE1000_randls_21.json,http://54.235.29.9/FacialAge/BNav_EC2/DepthDuration/v2_depth_duration_MTurk/v2_DepthDuration_HTML.html#7,7,1364,625,1364,768,8-22-2022,8-2-14,128,depth_duration_stimuli/000866_2014-06-09_20-45-42_260595134347_rgbf000139-resize_1/000866_2014-06-09_20-45-42_260595134347_rgbf000139-resize_1-target.png,1000,3.2155,5,12935,1100,meters,jsons/v1_VE1000_randls_21.json,1266095,1402365,30,Woman
128,705460,DepthScenes,duration_manipulation_targetAtFixation,jsons/v1_VE1000_randls_21.json,http://54.235.29.9/FacialAge/BNav_EC2/DepthDuration/v2_depth_duration_MTurk/v2_DepthDuration_HTML.html#7,7,1364,625,1364,768,8-22-2022,8-2-14,129,depth_duration_stimuli/001029_2014-06-08_13-17-57_260595134347_rgbf000065-resize_1/001029_2014-06-08_13-17-57_260595134347_rgbf000065-resize_1-target.png,1000,3.0835,7,6208,1000,meters,jsons/v1_VE1000_randls_21.json,1266095,1402365,30,Woman
129,705460,DepthScenes,duration_manipulation_targetAtFixation,jsons/v1_VE1000_randls_21.json,http://54.235.29.9/FacialAge/BNav_EC2/DepthDuration/v2_depth_duration_MTurk/v2_DepthDuration_HTML.html#7,7,1364,625,1364,768,8-22-2022,8-2-14,130,depth_duration_stimuli/000677_2014-06-08_23-10-32_260595134347_rgbf000158-resize_6/000677_2014-06-08_23-10-32_260595134347_rgbf000158-resize_6-target.png,1000,3.556,8,4552,997,meters,jsons/v1_VE1000_randls_21.json,1266095,1402365,30,Woman
130,705460,DepthScenes,duration_manipulation_targetAtFixation,jsons/v1_VE1000_randls_21.json,http://54.235.29.9/FacialAge/BNav_EC2/DepthDuration/v2_depth_duration_MTurk/v2_DepthDuration_HTML.html#7,7,1364,625,1364,768,8-22-2022,8-2-14,131,depth_duration_stimuli/000906_2014-06-08_13-35-43_260595134347_rgbf000155-resize_1/000906_2014-06-08_13-35-43_260595134347_rgbf000155-resize_1-target.png,1000,2.8489999999999998,7,5445,991,meters,jsons/v1_VE1000_randls_21.json,1266095,1402365,30,Woman
131,705460,DepthScenes,duration_manipulation_targetAtFixation,jsons/v1_VE1000_randls_21.json,http://54.235.29.9/FacialAge/BNav_EC2/DepthDuration/v2_depth_duration_MTurk/v2_DepthDuration_HTML.html#7,7,1364,625,1364,768,8-22-2022,8-2-14,132,depth_duration_stimuli/002805_2014-06-22_19-54-03_094959634447_rgbf000079-resize_1/002805_2014-06-22_19-54-03_094959634447_rgbf000079-resize_1-target.png,1000,3.1439999999999997,8,3115,1003,meters,jsons/v1_VE1000_randls_21.json,1266095,1402365,30,Woman
132,705460,DepthScenes,duration_manipulation_targetAtFixation,jsons/v1_VE1000_randls_21.json,http://54.235.29.9/FacialAge/BNav_EC2/DepthDuration/v2_depth_duration_MTurk/v2_DepthDuration_HTML.html#7,7,1364,625,1364,768,8-22-2022,8-2-14,133,depth_duration_stimuli/001417_2014-06-19_16-25-36_260595134347_rgbf000115-resize_5/001417_2014-06-19_16-25-36_260595134347_rgbf000115-resize_5-target.png,1000,4.6255,2,4802,1065,meters,jsons/v1_VE1000_randls_21.json,1266095,1402365,30,Woman
133,705460,DepthScenes,duration_manipulation_targetAtFixation,jsons/v1_VE1000_randls_21.json,http://54.235.29.9/FacialAge/BNav_EC2/DepthDuration/v2_depth_duration_MTurk/v2_DepthDuration_HTML.html#7,7,1364,625,1364,768,8-22-2022,8-2-14,134,depth_duration_stimuli/003081_2014-06-15_15-19-16_094959634447_rgbf000150-resize_1/003081_2014-06-15_15-19-16_094959634447_rgbf000150-resize_1-target.png,1000,3.9125,1,9210,1002,meters,jsons/v1_VE1000_randls_21.json,1266095,1402365,30,Woman
134,705460,DepthScenes,duration_manipulation_targetAtFixation,jsons/v1_VE1000_randls_21.json,http://54.235.29.9/FacialAge/BNav_EC2/DepthDuration/v2_depth_duration_MTurk/v2_DepthDuration_HTML.html#7,7,1364,625,1364,768,8-22-2022,8-2-14,135,depth_duration_stimuli/002072_2014-06-24_21-48-06_260595134347_rgbf000115-resize_0/002072_2014-06-24_21-48-06_260595134347_rgbf000115-resize-original.jpg,1000,4.702,3,26010,999,meters,jsons/v1_VE1000_randls_21.json,1266095,1402365,30,Woman
135,705460,DepthScenes,duration_manipulation_targetAtFixation,jsons/v1_VE1000_randls_21.json,http://54.235.29.9/FacialAge/BNav_EC2/DepthDuration/v2_depth_duration_MTurk/v2_DepthDuration_HTML.html#7,7,1364,625,1364,768,8-22-2022,8-2-14,136,depth_duration_stimuli/000486_2014-06-09_20-47-20_260595134347_rgbf000143-resize_2/000486_2014-06-09_20-47-20_260595134347_rgbf000143-resize_2-target.png,1000,4.8325,3,13338,1003,meters,jsons/v1_VE1000_randls_21.json,1266095,1402365,30,Woman
136,705460,DepthScenes,duration_manipulation_targetAtFixation,jsons/v1_VE1000_randls_21.json,http://54.235.29.9/FacialAge/BNav_EC2/DepthDuration/v2_depth_duration_MTurk/v2_DepthDuration_HTML.html#7,7,1364,625,1364,768,8-22-2022,8-2-14,137,depth_duration_stimuli/003083_2014-06-15_15-21-03_094959634447_rgbf000063-resize_1/003083_2014-06-15_15-21-03_094959634447_rgbf000063-resize_1-target.png,1000,4.1405,3,5383,1002,meters,jsons/v1_VE1000_randls_21.json,1266095,1402365,30,Woman
137,705460,DepthScenes,duration_manipulation_targetAtFixation,jsons/v1_VE1000_randls_21.json,http://54.235.29.9/FacialAge/BNav_EC2/DepthDuration/v2_depth_duration_MTurk/v2_DepthDuration_HTML.html#7,7,1364,625,1364,768,8-22-2022,8-2-14,138,depth_duration_stimuli/002043_2014-06-24_20-29-38_260595134347_rgbf000039-resize_4/002043_2014-06-24_20-29-38_260595134347_rgbf000039-resize_4-target.png,1000,2.8435,3,14511,997,meters,jsons/v1_VE1000_randls_21.json,1266095,1402365,30,Woman
138,705460,DepthScenes,duration_manipulation_targetAtFixation,jsons/v1_VE1000_randls_21.json,http://54.235.29.9/FacialAge/BNav_EC2/DepthDuration/v2_depth_duration_MTurk/v2_DepthDuration_HTML.html#7,7,1364,625,1364,768,8-22-2022,8-2-14,139,depth_duration_stimuli/003048_2014-06-15_13-49-43_094959634447_rgbf000150-resize_1/003048_2014-06-15_13-49-43_094959634447_rgbf000150-resize_1-target.png,1000,4.0035,9,6859,1011,meters,jsons/v1_VE1000_randls_21.json,1266095,1402365,30,Woman
139,705460,DepthScenes,duration_manipulation_targetAtFixation,jsons/v1_VE1000_randls_21.json,http://54.235.29.9/FacialAge/BNav_EC2/DepthDuration/v2_depth_duration_MTurk/v2_DepthDuration_HTML.html#7,7,1364,625,1364,768,8-22-2022,8-2-14,140,depth_duration_stimuli/002213_2014-06-28_18-37-58_260595134347_rgbf000055-resize_1/002213_2014-06-28_18-37-58_260595134347_rgbf000055-resize_1-target.png,1000,3.62,3,11864,998,meters,jsons/v1_VE1000_randls_21.json,1266095,1402365,30,Woman
140,705460,DepthScenes,duration_manipulation_targetAtFixation,jsons/v1_VE1000_randls_21.json,http://54.235.29.9/FacialAge/BNav_EC2/DepthDuration/v2_depth_duration_MTurk/v2_DepthDuration_HTML.html#7,7,1364,625,1364,768,8-22-2022,8-2-14,141,depth_duration_stimuli/000691_2014-06-08_13-08-50_260595134347_rgbf000132-resize_3/000691_2014-06-08_13-08-50_260595134347_rgbf000132-resize_3-target.png,1000,4.1530000000000005,6,24024,969,meters,jsons/v1_VE1000_randls_21.json,1266095,1402365,30,Woman
141,705460,DepthScenes,duration_manipulation_targetAtFixation,jsons/v1_VE1000_randls_21.json,http://54.235.29.9/FacialAge/BNav_EC2/DepthDuration/v2_depth_duration_MTurk/v2_DepthDuration_HTML.html#7,7,1364,625,1364,768,8-22-2022,8-2-14,142,depth_duration_stimuli/001806_2014-06-26_20-50-20_260595134347_rgbf000091-resize_1/001806_2014-06-26_20-50-20_260595134347_rgbf000091-resize_1-target.png,1000,2.7305,10,10015,984,meters,jsons/v1_VE1000_randls_21.json,1266095,1402365,30,Woman
142,705460,DepthScenes,duration_manipulation_targetAtFixation,jsons/v1_VE1000_randls_21.json,http://54.235.29.9/FacialAge/BNav_EC2/DepthDuration/v2_depth_duration_MTurk/v2_DepthDuration_HTML.html#7,7,1364,625,1364,768,8-22-2022,8-2-14,143,depth_duration_stimuli/001617_2014-06-20_11-35-32_260595134347_rgbf000066-resize_1/001617_2014-06-20_11-35-32_260595134347_rgbf000066-resize_1-target.png,1000,3.7910000000000004,20,13893,941,meters,jsons/v1_VE1000_randls_21.json,1266095,1402365,30,Woman
143,705460,DepthScenes,duration_manipulation_targetAtFixation,jsons/v1_VE1000_randls_21.json,http://54.235.29.9/FacialAge/BNav_EC2/DepthDuration/v2_depth_duration_MTurk/v2_DepthDuration_HTML.html#7,7,1364,625,1364,768,8-22-2022,8-2-14,144,depth_duration_stimuli/000506_2014-06-08_23-21-00_260595134347_rgbf000070-resize_7/000506_2014-06-08_23-21-00_260595134347_rgbf000070-resize_7-target.png,1000,4.0585,20,4808,998,meters,jsons/v1_VE1000_randls_21.json,1266095,1402365,30,Woman
144,705460,DepthScenes,duration_manipulation_targetAtFixation,jsons/v1_VE1000_randls_21.json,http://54.235.29.9/FacialAge/BNav_EC2/DepthDuration/v2_depth_duration_MTurk/v2_DepthDuration_HTML.html#7,7,1364,625,1364,768,8-22-2022,8-2-14,145,depth_duration_stimuli/003079_2014-06-15_15-18-20_094959634447_rgbf000152-resize_8/003079_2014-06-15_15-18-20_094959634447_rgbf000152-resize_8-target.png,1000,2.8775,30,11066,995,meters,jsons/v1_VE1000_randls_21.json,1266095,1402365,30,Woman
145,705460,DepthScenes,duration_manipulation_targetAtFixation,jsons/v1_VE1000_randls_21.json,http://54.235.29.9/FacialAge/BNav_EC2/DepthDuration/v2_depth_duration_MTurk/v2_DepthDuration_HTML.html#7,7,1364,625,1364,768,8-22-2022,8-2-14,146,depth_duration_stimuli/001498_2014-06-19_17-45-14_260595134347_rgbf000129-resize_4/001498_2014-06-19_17-45-14_260595134347_rgbf000129-resize-original.jpg,1000,1.4075,2,6220,1002,meters,jsons/v1_VE1000_randls_21.json,1266095,1402365,30,Woman
146,705460,DepthScenes,duration_manipulation_targetAtFixation,jsons/v1_VE1000_randls_21.json,http://54.235.29.9/FacialAge/BNav_EC2/DepthDuration/v2_depth_duration_MTurk/v2_DepthDuration_HTML.html#7,7,1364,625,1364,768,8-22-2022,8-2-14,147,depth_duration_stimuli/002784_2014-06-22_19-26-30_094959634447_rgbf000083-resize_3/002784_2014-06-22_19-26-30_094959634447_rgbf000083-resize_3-target.png,1000,1.8046666666667,3,5456,1015,meters,jsons/v1_VE1000_randls_21.json,1266095,1402365,30,Woman
147,705460,DepthScenes,duration_manipulation_targetAtFixation,jsons/v1_VE1000_randls_21.json,http://54.235.29.9/FacialAge/BNav_EC2/DepthDuration/v2_depth_duration_MTurk/v2_DepthDuration_HTML.html#7,7,1364,625,1364,768,8-22-2022,8-2-14,148,depth_duration_stimuli/001100_2014-06-15_17-46-26_260595134347_rgbf000225-resize_2/001100_2014-06-15_17-46-26_260595134347_rgbf000225-resize_2-target.png,1000,2.24,5,10120,978,meters,jsons/v1_VE1000_randls_21.json,1266095,1402365,30,Woman
148,705460,DepthScenes,duration_manipulation_targetAtFixation,jsons/v1_VE1000_randls_21.json,http://54.235.29.9/FacialAge/BNav_EC2/DepthDuration/v2_depth_duration_MTurk/v2_DepthDuration_HTML.html#7,7,1364,625,1364,768,8-22-2022,8-2-14,149,depth_duration_stimuli/000692_2014-06-08_13-09-42_260595134347_rgbf000199-resize_2/000692_2014-06-08_13-09-42_260595134347_rgbf000199-resize_2-target.png,1000,3.661,5,8670,1164,meters,jsons/v1_VE1000_randls_21.json,1266095,1402365,30,Woman
149,705460,DepthScenes,duration_manipulation_targetAtFixation,jsons/v1_VE1000_randls_21.json,http://54.235.29.9/FacialAge/BNav_EC2/DepthDuration/v2_depth_duration_MTurk/v2_DepthDuration_HTML.html#7,7,1364,625,1364,768,8-22-2022,8-2-14,150,depth_duration_stimuli/001094_2014-06-15_17-36-00_260595134347_rgbf000205-resize_0/001094_2014-06-15_17-36-00_260595134347_rgbf000205-resize_0-target.png,1000,4.2175,6,9276,1003,meters,jsons/v1_VE1000_randls_21.json,1266095,1402365,30,Woman
150,705460,DepthScenes,duration_manipulation_targetAtFixation,jsons/v1_VE1000_randls_21.json,http://54.235.29.9/FacialAge/BNav_EC2/DepthDuration/v2_depth_duration_MTurk/v2_DepthDuration_HTML.html#7,7,1364,625,1364,768,8-22-2022,8-2-14,151,depth_duration_stimuli/001199_2014-06-17_16-03-48_260595134347_rgbf000077-resize_0/001199_2014-06-17_16-03-48_260595134347_rgbf000077-resize_0-target.png,1000,3.4375,9,11230,1080,meters,jsons/v1_VE1000_randls_21.json,1266095,1402365,30,Woman
151,705460,DepthScenes,duration_manipulation_targetAtFixation,jsons/v1_VE1000_randls_21.json,http://54.235.29.9/FacialAge/BNav_EC2/DepthDuration/v2_depth_duration_MTurk/v2_DepthDuration_HTML.html#7,7,1364,625,1364,768,8-22-2022,8-2-14,152,depth_duration_stimuli/000502_2014-06-08_23-02-32_260595134347_rgbf000063-resize_4/000502_2014-06-08_23-02-32_260595134347_rgbf000063-resize_4-target.png,1000,2.431,6,4964,997,meters,jsons/v1_VE1000_randls_21.json,1266095,1402365,30,Woman
152,705460,DepthScenes,duration_manipulation_targetAtFixation,jsons/v1_VE1000_randls_21.json,http://54.235.29.9/FacialAge/BNav_EC2/DepthDuration/v2_depth_duration_MTurk/v2_DepthDuration_HTML.html#7,7,1364,625,1364,768,8-22-2022,8-2-14,153,depth_duration_stimuli/002630_2014-06-24_14-47-50_094959634447_rgbf000055-resize_1/002630_2014-06-24_14-47-50_094959634447_rgbf000055-resize_1-target.png,1000,3.0095,9,4704,1008,meters,jsons/v1_VE1000_randls_21.json,1266095,1402365,30,Woman
153,705460,DepthScenes,duration_manipulation_targetAtFixation,jsons/v1_VE1000_randls_21.json,http://54.235.29.9/FacialAge/BNav_EC2/DepthDuration/v2_depth_duration_MTurk/v2_DepthDuration_HTML.html#7,7,1364,625,1364,768,8-22-2022,8-2-14,154,depth_duration_stimuli/002758_2014-06-22_19-11-20_094959634447_rgbf000128-resize_1/002758_2014-06-22_19-11-20_094959634447_rgbf000128-resize_1-target.png,1000,2.555,6,5880,1081,meters,jsons/v1_VE1000_randls_21.json,1266095,1402365,30,Woman
154,705460,DepthScenes,duration_manipulation_targetAtFixation,jsons/v1_VE1000_randls_21.json,http://54.235.29.9/FacialAge/BNav_EC2/DepthDuration/v2_depth_duration_MTurk/v2_DepthDuration_HTML.html#7,7,1364,625,1364,768,8-22-2022,8-2-14,155,depth_duration_stimuli/000810_2014-06-08_17-20-01_260595134347_rgbf000105-resize_0/000810_2014-06-08_17-20-01_260595134347_rgbf000105-resize_0-target.png,1000,1.4865,10,6536,961,meters,jsons/v1_VE1000_randls_21.json,1266095,1402365,30,Woman
155,705460,DepthScenes,duration_manipulation_targetAtFixation,jsons/v1_VE1000_randls_21.json,http://54.235.29.9/FacialAge/BNav_EC2/DepthDuration/v2_depth_duration_MTurk/v2_DepthDuration_HTML.html#7,7,1364,625,1364,768,8-22-2022,8-2-14,156,depth_duration_stimuli/001214_2014-06-17_16-13-55_260595134347_rgbf000111-resize_0/001214_2014-06-17_16-13-55_260595134347_rgbf000111-resize_0-target.png,1000,2.6505,3,10039,997,meters,jsons/v1_VE1000_randls_21.json,1266095,1402365,30,Woman
156,705460,DepthScenes,duration_manipulation_targetAtFixation,jsons/v1_VE1000_randls_21.json,http://54.235.29.9/FacialAge/BNav_EC2/DepthDuration/v2_depth_duration_MTurk/v2_DepthDuration_HTML.html#7,7,1364,625,1364,768,8-22-2022,8-2-14,157,depth_duration_stimuli/000929_2014-06-09_16-33-19_260595134347_rgbf000139-resize_0/000929_2014-06-09_16-33-19_260595134347_rgbf000139-resize_0-target.png,1000,2.8680000000000003,4,14401,998,meters,jsons/v1_VE1000_randls_21.json,1266095,1402365,30,Woman
157,705460,DepthScenes,duration_manipulation_targetAtFixation,jsons/v1_VE1000_randls_21.json,http://54.235.29.9/FacialAge/BNav_EC2/DepthDuration/v2_depth_duration_MTurk/v2_DepthDuration_HTML.html#7,7,1364,625,1364,768,8-22-2022,8-2-14,158,depth_duration_stimuli/000457_2014-06-08_16-52-43_260595134347_rgbf000199-resize_1/000457_2014-06-08_16-52-43_260595134347_rgbf000199-resize_1-target.png,1000,3.6489999999999996,2,5355,995,meters,jsons/v1_VE1000_randls_21.json,1266095,1402365,30,Woman
158,705460,DepthScenes,duration_manipulation_targetAtFixation,jsons/v1_VE1000_randls_21.json,http://54.235.29.9/FacialAge/BNav_EC2/DepthDuration/v2_depth_duration_MTurk/v2_DepthDuration_HTML.html#7,7,1364,625,1364,768,8-22-2022,8-2-14,159,depth_duration_stimuli/002279_2014-06-28_18-55-32_260595134347_rgbf000040-resize_5/002279_2014-06-28_18-55-32_260595134347_rgbf000040-resize_5-target.png,1000,1.5043333333333,7,4904,999,meters,jsons/v1_VE1000_randls_21.json,1266095,1402365,30,Woman
159,705460,DepthScenes,duration_manipulation_targetAtFixation,jsons/v1_VE1000_randls_21.json,http://54.235.29.9/FacialAge/BNav_EC2/DepthDuration/v2_depth_duration_MTurk/v2_DepthDuration_HTML.html#7,7,1364,625,1364,768,8-22-2022,8-2-14,160,depth_duration_stimuli/000635_2014-06-08_16-38-42_260595134347_rgbf000106-resize_1/000635_2014-06-08_16-38-42_260595134347_rgbf000106-resize_1-target.png,1000,2.074,2,4201,988,meters,jsons/v1_VE1000_randls_21.json,1266095,1402365,30,Woman
160,705460,DepthScenes,duration_manipulation_targetAtFixation,jsons/v1_VE1000_randls_21.json,http://54.235.29.9/FacialAge/BNav_EC2/DepthDuration/v2_depth_duration_MTurk/v2_DepthDuration_HTML.html#7,7,1364,625,1364,768,8-22-2022,8-2-14,161,depth_duration_stimuli/000414_2014-06-04_19-49-13_260595134347_rgbf000044-resize_0/000414_2014-06-04_19-49-13_260595134347_rgbf000044-resize_0-target.png,1000,4.329,3,5094,998,meters,jsons/v1_VE1000_randls_21.json,1266095,1402365,30,Woman
161,705460,DepthScenes,duration_manipulation_targetAtFixation,jsons/v1_VE1000_randls_21.json,http://54.235.29.9/FacialAge/BNav_EC2/DepthDuration/v2_depth_duration_MTurk/v2_DepthDuration_HTML.html#7,7,1364,625,1364,768,8-22-2022,8-2-14,162,depth_duration_stimuli/003129_2014-05-12_10-48-10_094959634447_rgbf000100-resize_0/003129_2014-05-12_10-48-10_094959634447_rgbf000100-resize_0-target.png,1000,4.9305,10,5512,990,meters,jsons/v1_VE1000_randls_21.json,1266095,1402365,30,Woman
162,705460,DepthScenes,duration_manipulation_targetAtFixation,jsons/v1_VE1000_randls_21.json,http://54.235.29.9/FacialAge/BNav_EC2/DepthDuration/v2_depth_duration_MTurk/v2_DepthDuration_HTML.html#7,7,1364,625,1364,768,8-22-2022,8-2-14,163,depth_duration_stimuli/000522_2014-06-08_13-35-06_260595134347_rgbf000244-resize_1/000522_2014-06-08_13-35-06_260595134347_rgbf000244-resize_1-target.png,1000,2.3715,30,4642,1010,meters,jsons/v1_VE1000_randls_21.json,1266095,1402365,30,Woman
163,705460,DepthScenes,duration_manipulation_targetAtFixation,jsons/v1_VE1000_randls_21.json,http://54.235.29.9/FacialAge/BNav_EC2/DepthDuration/v2_depth_duration_MTurk/v2_DepthDuration_HTML.html#7,7,1364,625,1364,768,8-22-2022,8-2-14,164,depth_duration_stimuli/002949_2014-06-26_15-57-42_094959634447_rgbf000079-resize_1/002949_2014-06-26_15-57-42_094959634447_rgbf000079-resize_1-target.png,1000,1.8915,20,5785,987,meters,jsons/v1_VE1000_randls_21.json,1266095,1402365,30,Woman
