,subjID,experimentName,versionName,sequenceName,url,selected_row,windowWidth,windowHeight,screenWidth,screenHeight,startDate,startTime,trial,stimulus,duration,actual_depth,depth_estimate,trial_RT,log_sceneDuration,unitSelection,seq_filepath,experimentTime,totalTime,age,gender
0,705900,DepthScenes,duration_manipulation_targetAtFixation,jsons/VE125_randls_27_rotated.json,http://54.235.29.9/FacialAge/BNav_EC2/DepthDuration/v2_depth_duration_MTurk/v2_DepthDuration_HTML.html#110,110,1440,789,1440,900,8-21-2022,8-38-11,1,depth_duration_stimuli/003079_2014-06-15_15-18-20_094959634447_rgbf000152-resize_8/003079_2014-06-15_15-18-20_094959634447_rgbf000152-resize_8-target.png,125,2.8775,5,3672,122,meters,jsons/VE125_randls_27_rotated.json,1216263,1980304,25,Woman
1,705900,DepthScenes,duration_manipulation_targetAtFixation,jsons/VE125_randls_27_rotated.json,http://54.235.29.9/FacialAge/BNav_EC2/DepthDuration/v2_depth_duration_MTurk/v2_DepthDuration_HTML.html#110,110,1440,789,1440,900,8-21-2022,8-38-11,2,depth_duration_stimuli/000506_2014-06-08_23-21-00_260595134347_rgbf000070-resize_7/000506_2014-06-08_23-21-00_260595134347_rgbf000070-resize_7-target.png,125,4.0585,6,4251,120,meters,jsons/VE125_randls_27_rotated.json,1216263,1980304,25,Woman
2,705900,DepthScenes,duration_manipulation_targetAtFixation,jsons/VE125_randls_27_rotated.json,http://54.235.29.9/FacialAge/BNav_EC2/DepthDuration/v2_depth_duration_MTurk/v2_DepthDuration_HTML.html#110,110,1440,789,1440,900,8-21-2022,8-38-11,3,depth_duration_stimuli/003081_2014-06-15_15-19-16_094959634447_rgbf000150-resize_1/003081_2014-06-15_15-19-16_094959634447_rgbf000150-resize_1-target.png,125,3.9125,5,2486,129,meters,jsons/VE125_randls_27_rotated.json,1216263,1980304,25,Woman
3,705900,DepthScenes,duration_manipulation_targetAtFixation,jsons/VE125_randls_27_rotated.json,http://54.235.29.9/FacialAge/BNav_EC2/DepthDuration/v2_depth_duration_MTurk/v2_DepthDuration_HTML.html#110,110,1440,789,1440,900,8-21-2022,8-38-11,4,depth_duration_stimuli/001417_2014-06-19_16-25-36_260595134347_rgbf000115-resize_5/001417_2014-06-19_16-25-36_260595134347_rgbf000115-resize_5-target.png,125,4.6255,0,6388,129,meters,jsons/VE125_randls_27_rotated.json,1216263,1980304,25,Woman
4,705900,DepthScenes,duration_manipulation_targetAtFixation,jsons/VE125_randls_27_rotated.json,http://54.235.29.9/FacialAge/BNav_EC2/DepthDuration/v2_depth_duration_MTurk/v2_DepthDuration_HTML.html#110,110,1440,789,1440,900,8-21-2022,8-38-11,5,depth_duration_stimuli/001094_2014-06-15_17-36-00_260595134347_rgbf000205-resize_0/001094_2014-06-15_17-36-00_260595134347_rgbf000205-resize_0-target.png,125,4.2175,6,5715,131,meters,jsons/VE125_randls_27_rotated.json,1216263,1980304,25,Woman
5,705900,DepthScenes,duration_manipulation_targetAtFixation,jsons/VE125_randls_27_rotated.json,http://54.235.29.9/FacialAge/BNav_EC2/DepthDuration/v2_depth_duration_MTurk/v2_DepthDuration_HTML.html#110,110,1440,789,1440,900,8-21-2022,8-38-11,6,depth_duration_stimuli/000692_2014-06-08_13-09-42_260595134347_rgbf000199-resize_2/000692_2014-06-08_13-09-42_260595134347_rgbf000199-resize_2-target.png,125,3.661,6,28569,132,meters,jsons/VE125_randls_27_rotated.json,1216263,1980304,25,Woman
6,705900,DepthScenes,duration_manipulation_targetAtFixation,jsons/VE125_randls_27_rotated.json,http://54.235.29.9/FacialAge/BNav_EC2/DepthDuration/v2_depth_duration_MTurk/v2_DepthDuration_HTML.html#110,110,1440,789,1440,900,8-21-2022,8-38-11,7,depth_duration_stimuli/002209_2014-06-28_18-36-10_260595134347_rgbf000051-resize_1/002209_2014-06-28_18-36-10_260595134347_rgbf000051-resize_1-target.png,125,2.057,6,15115,125,meters,jsons/VE125_randls_27_rotated.json,1216263,1980304,25,Woman
7,705900,DepthScenes,duration_manipulation_targetAtFixation,jsons/VE125_randls_27_rotated.json,http://54.235.29.9/FacialAge/BNav_EC2/DepthDuration/v2_depth_duration_MTurk/v2_DepthDuration_HTML.html#110,110,1440,789,1440,900,8-21-2022,8-38-11,8,depth_duration_stimuli/002763_2014-06-22_19-13-10_094959634447_rgbf000075-resize_4/002763_2014-06-22_19-13-10_094959634447_rgbf000075-resize_4-target.png,125,1.68375,8,3075,131,meters,jsons/VE125_randls_27_rotated.json,1216263,1980304,25,Woman
8,705900,DepthScenes,duration_manipulation_targetAtFixation,jsons/VE125_randls_27_rotated.json,http://54.235.29.9/FacialAge/BNav_EC2/DepthDuration/v2_depth_duration_MTurk/v2_DepthDuration_HTML.html#110,110,1440,789,1440,900,8-21-2022,8-38-11,9,depth_duration_stimuli/000866_2014-06-09_20-45-42_260595134347_rgbf000139-resize_1/000866_2014-06-09_20-45-42_260595134347_rgbf000139-resize_1-target.png,125,3.2155,5,2546,129,meters,jsons/VE125_randls_27_rotated.json,1216263,1980304,25,Woman
9,705900,DepthScenes,duration_manipulation_targetAtFixation,jsons/VE125_randls_27_rotated.json,http://54.235.29.9/FacialAge/BNav_EC2/DepthDuration/v2_depth_duration_MTurk/v2_DepthDuration_HTML.html#110,110,1440,789,1440,900,8-21-2022,8-38-11,10,depth_duration_stimuli/002989_2014-06-15_12-25-03_094959634447_rgbf000150-resize_3/002989_2014-06-15_12-25-03_094959634447_rgbf000150-resize_3-target.png,125,4.1975,8,4242,127,meters,jsons/VE125_randls_27_rotated.json,1216263,1980304,25,Woman
10,705900,DepthScenes,duration_manipulation_targetAtFixation,jsons/VE125_randls_27_rotated.json,http://54.235.29.9/FacialAge/BNav_EC2/DepthDuration/v2_depth_duration_MTurk/v2_DepthDuration_HTML.html#110,110,1440,789,1440,900,8-21-2022,8-38-11,11,depth_duration_stimuli/002660_2014-06-13_15-44-18_094959634447_rgbf001878-resize_2/002660_2014-06-13_15-44-18_094959634447_rgbf001878-resize_2-target.png,125,3.576,8,2267,125,meters,jsons/VE125_randls_27_rotated.json,1216263,1980304,25,Woman
11,705900,DepthScenes,duration_manipulation_targetAtFixation,jsons/VE125_randls_27_rotated.json,http://54.235.29.9/FacialAge/BNav_EC2/DepthDuration/v2_depth_duration_MTurk/v2_DepthDuration_HTML.html#110,110,1440,789,1440,900,8-21-2022,8-38-11,12,depth_duration_stimuli/002153_2014-06-25_21-27-18_260595134347_rgbf000038-resize_5/002153_2014-06-25_21-27-18_260595134347_rgbf000038-resize_5-target.png,125,2.505,2,2267,125,meters,jsons/VE125_randls_27_rotated.json,1216263,1980304,25,Woman
12,705900,DepthScenes,duration_manipulation_targetAtFixation,jsons/VE125_randls_27_rotated.json,http://54.235.29.9/FacialAge/BNav_EC2/DepthDuration/v2_depth_duration_MTurk/v2_DepthDuration_HTML.html#110,110,1440,789,1440,900,8-21-2022,8-38-11,13,depth_duration_stimuli/002425_2014-06-28_20-27-29_260595134347_rgbf000031-resize_8/002425_2014-06-28_20-27-29_260595134347_rgbf000031-resize_8-target.png,125,3.8960000000000004,5,2739,126,meters,jsons/VE125_randls_27_rotated.json,1216263,1980304,25,Woman
13,705900,DepthScenes,duration_manipulation_targetAtFixation,jsons/VE125_randls_27_rotated.json,http://54.235.29.9/FacialAge/BNav_EC2/DepthDuration/v2_depth_duration_MTurk/v2_DepthDuration_HTML.html#110,110,1440,789,1440,900,8-21-2022,8-38-11,14,depth_duration_stimuli/000642_2014-06-08_16-59-25_260595134347_rgbf000098-resize_2/000642_2014-06-08_16-59-25_260595134347_rgbf000098-resize_2-target.png,125,2.8815,4,2370,125,meters,jsons/VE125_randls_27_rotated.json,1216263,1980304,25,Woman
14,705900,DepthScenes,duration_manipulation_targetAtFixation,jsons/VE125_randls_27_rotated.json,http://54.235.29.9/FacialAge/BNav_EC2/DepthDuration/v2_depth_duration_MTurk/v2_DepthDuration_HTML.html#110,110,1440,789,1440,900,8-21-2022,8-38-11,15,depth_duration_stimuli/002875_2014-06-01_15-19-00_094959634447_rgbf000151-resize_1/002875_2014-06-01_15-19-00_094959634447_rgbf000151-resize_1-target.png,125,1.9675,12,9753,131,meters,jsons/VE125_randls_27_rotated.json,1216263,1980304,25,Woman
15,705900,DepthScenes,duration_manipulation_targetAtFixation,jsons/VE125_randls_27_rotated.json,http://54.235.29.9/FacialAge/BNav_EC2/DepthDuration/v2_depth_duration_MTurk/v2_DepthDuration_HTML.html#110,110,1440,789,1440,900,8-21-2022,8-38-11,16,depth_duration_stimuli/001011_2014-06-08_23-18-54_260595134347_rgbf000044-resize_4/001011_2014-06-08_23-18-54_260595134347_rgbf000044-resize_4-target.png,125,2.4730000000000003,8,2611,126,meters,jsons/VE125_randls_27_rotated.json,1216263,1980304,25,Woman
16,705900,DepthScenes,duration_manipulation_targetAtFixation,jsons/VE125_randls_27_rotated.json,http://54.235.29.9/FacialAge/BNav_EC2/DepthDuration/v2_depth_duration_MTurk/v2_DepthDuration_HTML.html#110,110,1440,789,1440,900,8-21-2022,8-38-11,17,depth_duration_stimuli/002568_2014-06-24_13-59-21_094959634447_rgbf000062-resize_4/002568_2014-06-24_13-59-21_094959634447_rgbf000062-resize_4-target.png,125,3.015,5,2603,123,meters,jsons/VE125_randls_27_rotated.json,1216263,1980304,25,Woman
17,705900,DepthScenes,duration_manipulation_targetAtFixation,jsons/VE125_randls_27_rotated.json,http://54.235.29.9/FacialAge/BNav_EC2/DepthDuration/v2_depth_duration_MTurk/v2_DepthDuration_HTML.html#110,110,1440,789,1440,900,8-21-2022,8-38-11,18,depth_duration_stimuli/003492_2014-05-21_15-50-55_094959634447_rgbf000828-resize_1/003492_2014-05-21_15-50-55_094959634447_rgbf000828-resize_1-target.png,125,4.06875,6,2482,129,meters,jsons/VE125_randls_27_rotated.json,1216263,1980304,25,Woman
18,705900,DepthScenes,duration_manipulation_targetAtFixation,jsons/VE125_randls_27_rotated.json,http://54.235.29.9/FacialAge/BNav_EC2/DepthDuration/v2_depth_duration_MTurk/v2_DepthDuration_HTML.html#110,110,1440,789,1440,900,8-21-2022,8-38-11,19,depth_duration_stimuli/001498_2014-06-19_17-45-14_260595134347_rgbf000129-resize_4/001498_2014-06-19_17-45-14_260595134347_rgbf000129-resize-original.jpg,125,1.4075,5,2395,125,meters,jsons/VE125_randls_27_rotated.json,1216263,1980304,25,Woman
19,705900,DepthScenes,duration_manipulation_targetAtFixation,jsons/VE125_randls_27_rotated.json,http://54.235.29.9/FacialAge/BNav_EC2/DepthDuration/v2_depth_duration_MTurk/v2_DepthDuration_HTML.html#110,110,1440,789,1440,900,8-21-2022,8-38-11,20,depth_duration_stimuli/002467_2014-06-28_20-38-07_260595134347_rgbf000026-resize_2/002467_2014-06-28_20-38-07_260595134347_rgbf000026-resize_2-target.png,125,4.742,8,2448,125,meters,jsons/VE125_randls_27_rotated.json,1216263,1980304,25,Woman
20,705900,DepthScenes,duration_manipulation_targetAtFixation,jsons/VE125_randls_27_rotated.json,http://54.235.29.9/FacialAge/BNav_EC2/DepthDuration/v2_depth_duration_MTurk/v2_DepthDuration_HTML.html#110,110,1440,789,1440,900,8-21-2022,8-38-11,21,depth_duration_stimuli/002570_2014-06-24_13-59-54_094959634447_rgbf000059-resize_0/002570_2014-06-24_13-59-54_094959634447_rgbf000059-resize_0-target.png,125,4.037,4,3466,119,meters,jsons/VE125_randls_27_rotated.json,1216263,1980304,25,Woman
21,705900,DepthScenes,duration_manipulation_targetAtFixation,jsons/VE125_randls_27_rotated.json,http://54.235.29.9/FacialAge/BNav_EC2/DepthDuration/v2_depth_duration_MTurk/v2_DepthDuration_HTML.html#110,110,1440,789,1440,900,8-21-2022,8-38-11,22,depth_duration_stimuli/000734_2014-06-08_17-39-11_260595134347_rgbf000128-resize_2/000734_2014-06-08_17-39-11_260595134347_rgbf000128-resize_2-target.png,125,4.098,20,2923,124,meters,jsons/VE125_randls_27_rotated.json,1216263,1980304,25,Woman
22,705900,DepthScenes,duration_manipulation_targetAtFixation,jsons/VE125_randls_27_rotated.json,http://54.235.29.9/FacialAge/BNav_EC2/DepthDuration/v2_depth_duration_MTurk/v2_DepthDuration_HTML.html#110,110,1440,789,1440,900,8-21-2022,8-38-11,23,depth_duration_stimuli/000739_2014-06-08_18-45-58_260595134347_rgbf000068-resize_1/000739_2014-06-08_18-45-58_260595134347_rgbf000068-resize_1-target.png,125,3.534,10,2644,118,meters,jsons/VE125_randls_27_rotated.json,1216263,1980304,25,Woman
23,705900,DepthScenes,duration_manipulation_targetAtFixation,jsons/VE125_randls_27_rotated.json,http://54.235.29.9/FacialAge/BNav_EC2/DepthDuration/v2_depth_duration_MTurk/v2_DepthDuration_HTML.html#110,110,1440,789,1440,900,8-21-2022,8-38-11,24,depth_duration_stimuli/002199_2014-06-28_18-33-56_260595134347_rgbf000074-resize_0/002199_2014-06-28_18-33-56_260595134347_rgbf000074-resize_0-target.png,125,1.996,6,2761,129,meters,jsons/VE125_randls_27_rotated.json,1216263,1980304,25,Woman
24,705900,DepthScenes,duration_manipulation_targetAtFixation,jsons/VE125_randls_27_rotated.json,http://54.235.29.9/FacialAge/BNav_EC2/DepthDuration/v2_depth_duration_MTurk/v2_DepthDuration_HTML.html#110,110,1440,789,1440,900,8-21-2022,8-38-11,25,depth_duration_stimuli/001056_2014-06-08_18-46-44_260595134347_rgbf000068-resize_0/001056_2014-06-08_18-46-44_260595134347_rgbf000068-resize_0-target.png,125,2.6625,15,2851,134,meters,jsons/VE125_randls_27_rotated.json,1216263,1980304,25,Woman
25,705900,DepthScenes,duration_manipulation_targetAtFixation,jsons/VE125_randls_27_rotated.json,http://54.235.29.9/FacialAge/BNav_EC2/DepthDuration/v2_depth_duration_MTurk/v2_DepthDuration_HTML.html#110,110,1440,789,1440,900,8-21-2022,8-38-11,26,depth_duration_stimuli/000943_2014-06-09_19-31-07_260595134347_rgbf000128-resize_1/000943_2014-06-09_19-31-07_260595134347_rgbf000128-resize_1-target.png,125,1.9765,4,5582,119,meters,jsons/VE125_randls_27_rotated.json,1216263,1980304,25,Woman
26,705900,DepthScenes,duration_manipulation_targetAtFixation,jsons/VE125_randls_27_rotated.json,http://54.235.29.9/FacialAge/BNav_EC2/DepthDuration/v2_depth_duration_MTurk/v2_DepthDuration_HTML.html#110,110,1440,789,1440,900,8-21-2022,8-38-11,27,depth_duration_stimuli/003070_2014-06-15_14-58-27_094959634447_rgbf000150-resize_3/003070_2014-06-15_14-58-27_094959634447_rgbf000150-resize_3-target.png,125,2.9415,7,2197,123,meters,jsons/VE125_randls_27_rotated.json,1216263,1980304,25,Woman
27,705900,DepthScenes,duration_manipulation_targetAtFixation,jsons/VE125_randls_27_rotated.json,http://54.235.29.9/FacialAge/BNav_EC2/DepthDuration/v2_depth_duration_MTurk/v2_DepthDuration_HTML.html#110,110,1440,789,1440,900,8-21-2022,8-38-11,28,depth_duration_stimuli/002750_2014-06-22_19-08-03_094959634447_rgbf000094-resize_4/002750_2014-06-22_19-08-03_094959634447_rgbf000094-resize_4-target.png,125,2.354,10,2659,132,meters,jsons/VE125_randls_27_rotated.json,1216263,1980304,25,Woman
28,705900,DepthScenes,duration_manipulation_targetAtFixation,jsons/VE125_randls_27_rotated.json,http://54.235.29.9/FacialAge/BNav_EC2/DepthDuration/v2_depth_duration_MTurk/v2_DepthDuration_HTML.html#110,110,1440,789,1440,900,8-21-2022,8-38-11,29,depth_duration_stimuli/002549_2014-06-24_13-41-39_094959634447_rgbf000022-resize_3/002549_2014-06-24_13-41-39_094959634447_rgbf000022-resize_3-target.png,125,1.476,5,115969,118,meters,jsons/VE125_randls_27_rotated.json,1216263,1980304,25,Woman
29,705900,DepthScenes,duration_manipulation_targetAtFixation,jsons/VE125_randls_27_rotated.json,http://54.235.29.9/FacialAge/BNav_EC2/DepthDuration/v2_depth_duration_MTurk/v2_DepthDuration_HTML.html#110,110,1440,789,1440,900,8-21-2022,8-38-11,30,depth_duration_stimuli/002072_2014-06-24_21-48-06_260595134347_rgbf000115-resize_0/002072_2014-06-24_21-48-06_260595134347_rgbf000115-resize-original.jpg,125,4.702,8,49388,126,meters,jsons/VE125_randls_27_rotated.json,1216263,1980304,25,Woman
30,705900,DepthScenes,duration_manipulation_targetAtFixation,jsons/VE125_randls_27_rotated.json,http://54.235.29.9/FacialAge/BNav_EC2/DepthDuration/v2_depth_duration_MTurk/v2_DepthDuration_HTML.html#110,110,1440,789,1440,900,8-21-2022,8-38-11,31,depth_duration_stimuli/003083_2014-06-15_15-21-03_094959634447_rgbf000063-resize_1/003083_2014-06-15_15-21-03_094959634447_rgbf000063-resize_1-target.png,125,4.1405,10,3496,115,meters,jsons/VE125_randls_27_rotated.json,1216263,1980304,25,Woman
31,705900,DepthScenes,duration_manipulation_targetAtFixation,jsons/VE125_randls_27_rotated.json,http://54.235.29.9/FacialAge/BNav_EC2/DepthDuration/v2_depth_duration_MTurk/v2_DepthDuration_HTML.html#110,110,1440,789,1440,900,8-21-2022,8-38-11,32,depth_duration_stimuli/000486_2014-06-09_20-47-20_260595134347_rgbf000143-resize_2/000486_2014-06-09_20-47-20_260595134347_rgbf000143-resize_2-target.png,125,4.8325,5,3692,130,meters,jsons/VE125_randls_27_rotated.json,1216263,1980304,25,Woman
32,705900,DepthScenes,duration_manipulation_targetAtFixation,jsons/VE125_randls_27_rotated.json,http://54.235.29.9/FacialAge/BNav_EC2/DepthDuration/v2_depth_duration_MTurk/v2_DepthDuration_HTML.html#110,110,1440,789,1440,900,8-21-2022,8-38-11,33,depth_duration_stimuli/002444_2014-06-28_20-32-08_260595134347_rgbf000027-resize_0/002444_2014-06-28_20-32-08_260595134347_rgbf000027-resize_0-target.png,125,4.388999999999999,1,3106,121,meters,jsons/VE125_randls_27_rotated.json,1216263,1980304,25,Woman
33,705900,DepthScenes,duration_manipulation_targetAtFixation,jsons/VE125_randls_27_rotated.json,http://54.235.29.9/FacialAge/BNav_EC2/DepthDuration/v2_depth_duration_MTurk/v2_DepthDuration_HTML.html#110,110,1440,789,1440,900,8-21-2022,8-38-11,34,depth_duration_stimuli/000436_2014-06-09_22-25-11_260595134347_rgbf000137-resize_1/000436_2014-06-09_22-25-11_260595134347_rgbf000137-resize_1-target.png,125,4.0705,5,3466,125,meters,jsons/VE125_randls_27_rotated.json,1216263,1980304,25,Woman
34,705900,DepthScenes,duration_manipulation_targetAtFixation,jsons/VE125_randls_27_rotated.json,http://54.235.29.9/FacialAge/BNav_EC2/DepthDuration/v2_depth_duration_MTurk/v2_DepthDuration_HTML.html#110,110,1440,789,1440,900,8-21-2022,8-38-11,35,depth_duration_stimuli/000502_2014-06-08_23-02-32_260595134347_rgbf000063-resize_4/000502_2014-06-08_23-02-32_260595134347_rgbf000063-resize_4-target.png,125,2.431,8,53294,130,meters,jsons/VE125_randls_27_rotated.json,1216263,1980304,25,Woman
35,705900,DepthScenes,duration_manipulation_targetAtFixation,jsons/VE125_randls_27_rotated.json,http://54.235.29.9/FacialAge/BNav_EC2/DepthDuration/v2_depth_duration_MTurk/v2_DepthDuration_HTML.html#110,110,1440,789,1440,900,8-21-2022,8-38-11,36,depth_duration_stimuli/001199_2014-06-17_16-03-48_260595134347_rgbf000077-resize_0/001199_2014-06-17_16-03-48_260595134347_rgbf000077-resize_0-target.png,125,3.4375,10,3205,128,meters,jsons/VE125_randls_27_rotated.json,1216263,1980304,25,Woman
36,705900,DepthScenes,duration_manipulation_targetAtFixation,jsons/VE125_randls_27_rotated.json,http://54.235.29.9/FacialAge/BNav_EC2/DepthDuration/v2_depth_duration_MTurk/v2_DepthDuration_HTML.html#110,110,1440,789,1440,900,8-21-2022,8-38-11,37,depth_duration_stimuli/001136_2014-06-17_15-19-41_260595134347_rgbf000076-resize_3/001136_2014-06-17_15-19-41_260595134347_rgbf000076-resize_3-target.png,125,1.8655,5,93859,119,meters,jsons/VE125_randls_27_rotated.json,1216263,1980304,25,Woman
37,705900,DepthScenes,duration_manipulation_targetAtFixation,jsons/VE125_randls_27_rotated.json,http://54.235.29.9/FacialAge/BNav_EC2/DepthDuration/v2_depth_duration_MTurk/v2_DepthDuration_HTML.html#110,110,1440,789,1440,900,8-21-2022,8-38-11,38,depth_duration_stimuli/001164_2014-06-17_15-35-46_260595134347_rgbf000085-resize_3/001164_2014-06-17_15-35-46_260595134347_rgbf000085-resize_3-target.png,125,2.354,3,7586,122,meters,jsons/VE125_randls_27_rotated.json,1216263,1980304,25,Woman
38,705900,DepthScenes,duration_manipulation_targetAtFixation,jsons/VE125_randls_27_rotated.json,http://54.235.29.9/FacialAge/BNav_EC2/DepthDuration/v2_depth_duration_MTurk/v2_DepthDuration_HTML.html#110,110,1440,789,1440,900,8-21-2022,8-38-11,39,depth_duration_stimuli/003129_2014-05-12_10-48-10_094959634447_rgbf000100-resize_0/003129_2014-05-12_10-48-10_094959634447_rgbf000100-resize_0-target.png,125,4.9305,5,2437,122,meters,jsons/VE125_randls_27_rotated.json,1216263,1980304,25,Woman
39,705900,DepthScenes,duration_manipulation_targetAtFixation,jsons/VE125_randls_27_rotated.json,http://54.235.29.9/FacialAge/BNav_EC2/DepthDuration/v2_depth_duration_MTurk/v2_DepthDuration_HTML.html#110,110,1440,789,1440,900,8-21-2022,8-38-11,40,depth_duration_stimuli/000414_2014-06-04_19-49-13_260595134347_rgbf000044-resize_0/000414_2014-06-04_19-49-13_260595134347_rgbf000044-resize_0-target.png,125,4.329,5,2362,124,meters,jsons/VE125_randls_27_rotated.json,1216263,1980304,25,Woman
40,705900,DepthScenes,duration_manipulation_targetAtFixation,jsons/VE125_randls_27_rotated.json,http://54.235.29.9/FacialAge/BNav_EC2/DepthDuration/v2_depth_duration_MTurk/v2_DepthDuration_HTML.html#110,110,1440,789,1440,900,8-21-2022,8-38-11,41,depth_duration_stimuli/000191_2014-05-12_17-07-38_260595134347_rgbf000199-resize_0/000191_2014-05-12_17-07-38_260595134347_rgbf000199-resize_0-target.png,125,3.7995,7,2692,126,meters,jsons/VE125_randls_27_rotated.json,1216263,1980304,25,Woman
41,705900,DepthScenes,duration_manipulation_targetAtFixation,jsons/VE125_randls_27_rotated.json,http://54.235.29.9/FacialAge/BNav_EC2/DepthDuration/v2_depth_duration_MTurk/v2_DepthDuration_HTML.html#110,110,1440,789,1440,900,8-21-2022,8-38-11,42,depth_duration_stimuli/000493_2014-06-09_21-01-18_260595134347_rgbf000196-resize_3/000493_2014-06-09_21-01-18_260595134347_rgbf000196-resize_3-target.png,125,3.44,5,2427,130,meters,jsons/VE125_randls_27_rotated.json,1216263,1980304,25,Woman
42,705900,DepthScenes,duration_manipulation_targetAtFixation,jsons/VE125_randls_27_rotated.json,http://54.235.29.9/FacialAge/BNav_EC2/DepthDuration/v2_depth_duration_MTurk/v2_DepthDuration_HTML.html#110,110,1440,789,1440,900,8-21-2022,8-38-11,43,depth_duration_stimuli/001828_2014-06-26_21-40-03_260595134347_rgbf000024-resize_0/001828_2014-06-26_21-40-03_260595134347_rgbf000024-resize_0-target.png,125,4.8260000000000005,8,13933,126,meters,jsons/VE125_randls_27_rotated.json,1216263,1980304,25,Woman
43,705900,DepthScenes,duration_manipulation_targetAtFixation,jsons/VE125_randls_27_rotated.json,http://54.235.29.9/FacialAge/BNav_EC2/DepthDuration/v2_depth_duration_MTurk/v2_DepthDuration_HTML.html#110,110,1440,789,1440,900,8-21-2022,8-38-11,44,depth_duration_stimuli/000009_2014-05-26_14-32-05_260595134347_rgbf000034-resize_3/000009_2014-05-26_14-32-05_260595134347_rgbf000034-resize_3-target.png,125,3.8715,5,24681,123,meters,jsons/VE125_randls_27_rotated.json,1216263,1980304,25,Woman
44,705900,DepthScenes,duration_manipulation_targetAtFixation,jsons/VE125_randls_27_rotated.json,http://54.235.29.9/FacialAge/BNav_EC2/DepthDuration/v2_depth_duration_MTurk/v2_DepthDuration_HTML.html#110,110,1440,789,1440,900,8-21-2022,8-38-11,45,depth_duration_stimuli/002995_2014-06-15_12-31-26_094959634447_rgbf000150-resize_1/002995_2014-06-15_12-31-26_094959634447_rgbf000150-resize_1-target.png,125,3.8360000000000003,8,10867,131,meters,jsons/VE125_randls_27_rotated.json,1216263,1980304,25,Woman
45,705900,DepthScenes,duration_manipulation_targetAtFixation,jsons/VE125_randls_27_rotated.json,http://54.235.29.9/FacialAge/BNav_EC2/DepthDuration/v2_depth_duration_MTurk/v2_DepthDuration_HTML.html#110,110,1440,789,1440,900,8-21-2022,8-38-11,46,depth_duration_stimuli/002748_2014-06-22_19-07-22_094959634447_rgbf000078-resize_1/002748_2014-06-22_19-07-22_094959634447_rgbf000078-resize_1-target.png,125,4.6705,10,3035,129,meters,jsons/VE125_randls_27_rotated.json,1216263,1980304,25,Woman
46,705900,DepthScenes,duration_manipulation_targetAtFixation,jsons/VE125_randls_27_rotated.json,http://54.235.29.9/FacialAge/BNav_EC2/DepthDuration/v2_depth_duration_MTurk/v2_DepthDuration_HTML.html#110,110,1440,789,1440,900,8-21-2022,8-38-11,47,depth_duration_stimuli/000780_2014-06-08_22-28-29_260595134347_rgbf000126-resize_1/000780_2014-06-08_22-28-29_260595134347_rgbf000126-resize_1-target.png,125,3.3825,8,12521,123,meters,jsons/VE125_randls_27_rotated.json,1216263,1980304,25,Woman
47,705900,DepthScenes,duration_manipulation_targetAtFixation,jsons/VE125_randls_27_rotated.json,http://54.235.29.9/FacialAge/BNav_EC2/DepthDuration/v2_depth_duration_MTurk/v2_DepthDuration_HTML.html#110,110,1440,789,1440,900,8-21-2022,8-38-11,48,depth_duration_stimuli/002445_2014-06-28_20-32-16_260595134347_rgbf000029-resize_4/002445_2014-06-28_20-32-16_260595134347_rgbf000029-resize_4-target.png,125,2.5315,5,2771,121,meters,jsons/VE125_randls_27_rotated.json,1216263,1980304,25,Woman
48,705900,DepthScenes,duration_manipulation_targetAtFixation,jsons/VE125_randls_27_rotated.json,http://54.235.29.9/FacialAge/BNav_EC2/DepthDuration/v2_depth_duration_MTurk/v2_DepthDuration_HTML.html#110,110,1440,789,1440,900,8-21-2022,8-38-11,49,depth_duration_stimuli/001170_2014-06-17_15-43-44_260595134347_rgbf000096-resize_6/001170_2014-06-17_15-43-44_260595134347_rgbf000096-resize-original.jpg,125,1.1909999999999998,20,3217,131,meters,jsons/VE125_randls_27_rotated.json,1216263,1980304,25,Woman
49,705900,DepthScenes,duration_manipulation_targetAtFixation,jsons/VE125_randls_27_rotated.json,http://54.235.29.9/FacialAge/BNav_EC2/DepthDuration/v2_depth_duration_MTurk/v2_DepthDuration_HTML.html#110,110,1440,789,1440,900,8-21-2022,8-38-11,50,depth_duration_stimuli/003423_2014-05-21_10-23-26_094959634447_rgbf002665-resize_2/003423_2014-05-21_10-23-26_094959634447_rgbf002665-resize_2-target.png,125,3.2575,12,7058,124,meters,jsons/VE125_randls_27_rotated.json,1216263,1980304,25,Woman
50,705900,DepthScenes,duration_manipulation_targetAtFixation,jsons/VE125_randls_27_rotated.json,http://54.235.29.9/FacialAge/BNav_EC2/DepthDuration/v2_depth_duration_MTurk/v2_DepthDuration_HTML.html#110,110,1440,789,1440,900,8-21-2022,8-38-11,51,depth_duration_stimuli/002905_2014-06-03_18-04-43_094959634447_rgbf000151-resize_2/002905_2014-06-03_18-04-43_094959634447_rgbf000151-resize_2-target.png,125,2.0295,8,3441,123,meters,jsons/VE125_randls_27_rotated.json,1216263,1980304,25,Woman
51,705900,DepthScenes,duration_manipulation_targetAtFixation,jsons/VE125_randls_27_rotated.json,http://54.235.29.9/FacialAge/BNav_EC2/DepthDuration/v2_depth_duration_MTurk/v2_DepthDuration_HTML.html#110,110,1440,789,1440,900,8-21-2022,8-38-11,52,depth_duration_stimuli/000137_2014-05-20_17-04-49_260595134347_rgbf000120-resize_1/000137_2014-05-20_17-04-49_260595134347_rgbf000120-resize_1-target.png,125,3.786,4,4027,119,meters,jsons/VE125_randls_27_rotated.json,1216263,1980304,25,Woman
52,705900,DepthScenes,duration_manipulation_targetAtFixation,jsons/VE125_randls_27_rotated.json,http://54.235.29.9/FacialAge/BNav_EC2/DepthDuration/v2_depth_duration_MTurk/v2_DepthDuration_HTML.html#110,110,1440,789,1440,900,8-21-2022,8-38-11,53,depth_duration_stimuli/000736_2014-06-08_18-24-15_260595134347_rgbf000206-resize_3/000736_2014-06-08_18-24-15_260595134347_rgbf000206-resize_3-target.png,125,3.515,5,7314,123,meters,jsons/VE125_randls_27_rotated.json,1216263,1980304,25,Woman
53,705900,DepthScenes,duration_manipulation_targetAtFixation,jsons/VE125_randls_27_rotated.json,http://54.235.29.9/FacialAge/BNav_EC2/DepthDuration/v2_depth_duration_MTurk/v2_DepthDuration_HTML.html#110,110,1440,789,1440,900,8-21-2022,8-38-11,54,depth_duration_stimuli/002758_2014-06-22_19-11-20_094959634447_rgbf000128-resize_1/002758_2014-06-22_19-11-20_094959634447_rgbf000128-resize_1-target.png,125,2.555,7,2987,125,meters,jsons/VE125_randls_27_rotated.json,1216263,1980304,25,Woman
54,705900,DepthScenes,duration_manipulation_targetAtFixation,jsons/VE125_randls_27_rotated.json,http://54.235.29.9/FacialAge/BNav_EC2/DepthDuration/v2_depth_duration_MTurk/v2_DepthDuration_HTML.html#110,110,1440,789,1440,900,8-21-2022,8-38-11,55,depth_duration_stimuli/002630_2014-06-24_14-47-50_094959634447_rgbf000055-resize_1/002630_2014-06-24_14-47-50_094959634447_rgbf000055-resize_1-target.png,125,3.0095,10,3601,132,meters,jsons/VE125_randls_27_rotated.json,1216263,1980304,25,Woman
55,705900,DepthScenes,duration_manipulation_targetAtFixation,jsons/VE125_randls_27_rotated.json,http://54.235.29.9/FacialAge/BNav_EC2/DepthDuration/v2_depth_duration_MTurk/v2_DepthDuration_HTML.html#110,110,1440,789,1440,900,8-21-2022,8-38-11,56,depth_duration_stimuli/000742_2014-06-08_18-48-09_260595134347_rgbf000164-resize_4/000742_2014-06-08_18-48-09_260595134347_rgbf000164-resize_4-target.png,125,4.632,6,20207,127,meters,jsons/VE125_randls_27_rotated.json,1216263,1980304,25,Woman
56,705900,DepthScenes,duration_manipulation_targetAtFixation,jsons/VE125_randls_27_rotated.json,http://54.235.29.9/FacialAge/BNav_EC2/DepthDuration/v2_depth_duration_MTurk/v2_DepthDuration_HTML.html#110,110,1440,789,1440,900,8-21-2022,8-38-11,57,depth_duration_stimuli/001066_2014-06-08_22-03-20_260595134347_rgbf000066-resize_4/001066_2014-06-08_22-03-20_260595134347_rgbf000066-resize_4-target.png,125,4.2330000000000005,10,6905,129,meters,jsons/VE125_randls_27_rotated.json,1216263,1980304,25,Woman
57,705900,DepthScenes,duration_manipulation_targetAtFixation,jsons/VE125_randls_27_rotated.json,http://54.235.29.9/FacialAge/BNav_EC2/DepthDuration/v2_depth_duration_MTurk/v2_DepthDuration_HTML.html#110,110,1440,789,1440,900,8-21-2022,8-38-11,58,depth_duration_stimuli/002678_2014-06-13_16-15-32_094959634447_rgbf000151-resize_6/002678_2014-06-13_16-15-32_094959634447_rgbf000151-resize_6-target.png,125,2.1830000000000003,5,14863,129,meters,jsons/VE125_randls_27_rotated.json,1216263,1980304,25,Woman
58,705900,DepthScenes,duration_manipulation_targetAtFixation,jsons/VE125_randls_27_rotated.json,http://54.235.29.9/FacialAge/BNav_EC2/DepthDuration/v2_depth_duration_MTurk/v2_DepthDuration_HTML.html#110,110,1440,789,1440,900,8-21-2022,8-38-11,59,depth_duration_stimuli/000368_2014-06-09_15-53-01_260595134347_rgbf000155-resize_2/000368_2014-06-09_15-53-01_260595134347_rgbf000155-resize_2-target.png,125,2.4859999999999998,5,52780,119,meters,jsons/VE125_randls_27_rotated.json,1216263,1980304,25,Woman
59,705900,DepthScenes,duration_manipulation_targetAtFixation,jsons/VE125_randls_27_rotated.json,http://54.235.29.9/FacialAge/BNav_EC2/DepthDuration/v2_depth_duration_MTurk/v2_DepthDuration_HTML.html#110,110,1440,789,1440,900,8-21-2022,8-38-11,60,depth_duration_stimuli/003495_2014-05-21_16-01-51_094959634447_rgbf000100-resize_3/003495_2014-05-21_16-01-51_094959634447_rgbf000100-resize_3-target.png,125,1.6255,8,3418,117,meters,jsons/VE125_randls_27_rotated.json,1216263,1980304,25,Woman
60,705900,DepthScenes,duration_manipulation_targetAtFixation,jsons/VE125_randls_27_rotated.json,http://54.235.29.9/FacialAge/BNav_EC2/DepthDuration/v2_depth_duration_MTurk/v2_DepthDuration_HTML.html#110,110,1440,789,1440,900,8-21-2022,8-38-11,61,depth_duration_stimuli/001244_2014-06-17_16-47-45_260595134347_rgbf000030-resize_4/001244_2014-06-17_16-47-45_260595134347_rgbf000030-resize_4-target.png,125,2.0425,5,4323,125,meters,jsons/VE125_randls_27_rotated.json,1216263,1980304,25,Woman
61,705900,DepthScenes,duration_manipulation_targetAtFixation,jsons/VE125_randls_27_rotated.json,http://54.235.29.9/FacialAge/BNav_EC2/DepthDuration/v2_depth_duration_MTurk/v2_DepthDuration_HTML.html#110,110,1440,789,1440,900,8-21-2022,8-38-11,62,depth_duration_stimuli/000854_2014-06-09_19-43-13_260595134347_rgbf000066-resize_0/000854_2014-06-09_19-43-13_260595134347_rgbf000066-resize_0-target.png,125,3.068,8,2404,123,meters,jsons/VE125_randls_27_rotated.json,1216263,1980304,25,Woman
62,705900,DepthScenes,duration_manipulation_targetAtFixation,jsons/VE125_randls_27_rotated.json,http://54.235.29.9/FacialAge/BNav_EC2/DepthDuration/v2_depth_duration_MTurk/v2_DepthDuration_HTML.html#110,110,1440,789,1440,900,8-21-2022,8-38-11,63,depth_duration_stimuli/000758_2014-06-08_22-05-08_260595134347_rgbf000085-resize_0/000758_2014-06-08_22-05-08_260595134347_rgbf000085-resize_0-target.png,125,3.3810000000000002,10,2534,120,meters,jsons/VE125_randls_27_rotated.json,1216263,1980304,25,Woman
63,705900,DepthScenes,duration_manipulation_targetAtFixation,jsons/VE125_randls_27_rotated.json,http://54.235.29.9/FacialAge/BNav_EC2/DepthDuration/v2_depth_duration_MTurk/v2_DepthDuration_HTML.html#110,110,1440,789,1440,900,8-21-2022,8-38-11,64,depth_duration_stimuli/001584_2014-06-20_11-07-43_260595134347_rgbf000002-resize_1/001584_2014-06-20_11-07-43_260595134347_rgbf000002-resize_1-target.png,125,3.53,12,3891,127,meters,jsons/VE125_randls_27_rotated.json,1216263,1980304,25,Woman
64,705900,DepthScenes,duration_manipulation_targetAtFixation,jsons/VE125_randls_27_rotated.json,http://54.235.29.9/FacialAge/BNav_EC2/DepthDuration/v2_depth_duration_MTurk/v2_DepthDuration_HTML.html#110,110,1440,789,1440,900,8-21-2022,8-38-11,65,depth_duration_stimuli/003621_2014-05-23_18-06-08_094959634447_rgbf000101-resize_1/003621_2014-05-23_18-06-08_094959634447_rgbf000101-resize_1-target.png,125,3.9835,15,5011,124,meters,jsons/VE125_randls_27_rotated.json,1216263,1980304,25,Woman
65,705900,DepthScenes,duration_manipulation_targetAtFixation,jsons/VE125_randls_27_rotated.json,http://54.235.29.9/FacialAge/BNav_EC2/DepthDuration/v2_depth_duration_MTurk/v2_DepthDuration_HTML.html#110,110,1440,789,1440,900,8-21-2022,8-38-11,66,depth_duration_stimuli/001540_2014-06-20_17-01-05_260595134347_rgbf000086-resize_2/001540_2014-06-20_17-01-05_260595134347_rgbf000086-resize-original.jpg,125,1.459,0,3122,131,meters,jsons/VE125_randls_27_rotated.json,1216263,1980304,25,Woman
66,705900,DepthScenes,duration_manipulation_targetAtFixation,jsons/VE125_randls_27_rotated.json,http://54.235.29.9/FacialAge/BNav_EC2/DepthDuration/v2_depth_duration_MTurk/v2_DepthDuration_HTML.html#110,110,1440,789,1440,900,8-21-2022,8-38-11,67,depth_duration_stimuli/001617_2014-06-20_11-35-32_260595134347_rgbf000066-resize_1/001617_2014-06-20_11-35-32_260595134347_rgbf000066-resize_1-target.png,125,3.7910000000000004,15,2872,122,meters,jsons/VE125_randls_27_rotated.json,1216263,1980304,25,Woman
67,705900,DepthScenes,duration_manipulation_targetAtFixation,jsons/VE125_randls_27_rotated.json,http://54.235.29.9/FacialAge/BNav_EC2/DepthDuration/v2_depth_duration_MTurk/v2_DepthDuration_HTML.html#110,110,1440,789,1440,900,8-21-2022,8-38-11,68,depth_duration_stimuli/001806_2014-06-26_20-50-20_260595134347_rgbf000091-resize_1/001806_2014-06-26_20-50-20_260595134347_rgbf000091-resize_1-target.png,125,2.7305,10,5284,131,meters,jsons/VE125_randls_27_rotated.json,1216263,1980304,25,Woman
68,705900,DepthScenes,duration_manipulation_targetAtFixation,jsons/VE125_randls_27_rotated.json,http://54.235.29.9/FacialAge/BNav_EC2/DepthDuration/v2_depth_duration_MTurk/v2_DepthDuration_HTML.html#110,110,1440,789,1440,900,8-21-2022,8-38-11,69,depth_duration_stimuli/000556_2014-06-09_22-42-56_260595134347_rgbf000214-resize_1/000556_2014-06-09_22-42-56_260595134347_rgbf000214-resize_1-target.png,125,4.8415,15,12256,131,meters,jsons/VE125_randls_27_rotated.json,1216263,1980304,25,Woman
69,705900,DepthScenes,duration_manipulation_targetAtFixation,jsons/VE125_randls_27_rotated.json,http://54.235.29.9/FacialAge/BNav_EC2/DepthDuration/v2_depth_duration_MTurk/v2_DepthDuration_HTML.html#110,110,1440,789,1440,900,8-21-2022,8-38-11,70,depth_duration_stimuli/001158_2014-06-17_15-32-16_260595134347_rgbf000138-resize_2/001158_2014-06-17_15-32-16_260595134347_rgbf000138-resize_2-target.png,125,4.5315,8,4732,125,meters,jsons/VE125_randls_27_rotated.json,1216263,1980304,25,Woman
70,705900,DepthScenes,duration_manipulation_targetAtFixation,jsons/VE125_randls_27_rotated.json,http://54.235.29.9/FacialAge/BNav_EC2/DepthDuration/v2_depth_duration_MTurk/v2_DepthDuration_HTML.html#110,110,1440,789,1440,900,8-21-2022,8-38-11,71,depth_duration_stimuli/000635_2014-06-08_16-38-42_260595134347_rgbf000106-resize_1/000635_2014-06-08_16-38-42_260595134347_rgbf000106-resize_1-target.png,125,2.074,15,3052,117,meters,jsons/VE125_randls_27_rotated.json,1216263,1980304,25,Woman
71,705900,DepthScenes,duration_manipulation_targetAtFixation,jsons/VE125_randls_27_rotated.json,http://54.235.29.9/FacialAge/BNav_EC2/DepthDuration/v2_depth_duration_MTurk/v2_DepthDuration_HTML.html#110,110,1440,789,1440,900,8-21-2022,8-38-11,72,depth_duration_stimuli/002279_2014-06-28_18-55-32_260595134347_rgbf000040-resize_5/002279_2014-06-28_18-55-32_260595134347_rgbf000040-resize_5-target.png,125,1.5043333333333,4,3371,125,meters,jsons/VE125_randls_27_rotated.json,1216263,1980304,25,Woman
72,705900,DepthScenes,duration_manipulation_targetAtFixation,jsons/VE125_randls_27_rotated.json,http://54.235.29.9/FacialAge/BNav_EC2/DepthDuration/v2_depth_duration_MTurk/v2_DepthDuration_HTML.html#110,110,1440,789,1440,900,8-21-2022,8-38-11,73,depth_duration_stimuli/002637_2014-06-24_14-51-13_094959634447_rgbf000066-resize_4/002637_2014-06-24_14-51-13_094959634447_rgbf000066-resize_4-target.png,125,1.9955,15,5129,129,meters,jsons/VE125_randls_27_rotated.json,1216263,1980304,25,Woman
73,705900,DepthScenes,duration_manipulation_targetAtFixation,jsons/VE125_randls_27_rotated.json,http://54.235.29.9/FacialAge/BNav_EC2/DepthDuration/v2_depth_duration_MTurk/v2_DepthDuration_HTML.html#110,110,1440,789,1440,900,8-21-2022,8-38-11,74,depth_duration_stimuli/003534_2014-05-22_15-06-10_094959634447_rgbf000102-resize_4/003534_2014-05-22_15-06-10_094959634447_rgbf000102-resize_4-target.png,125,1.426,20,3011,128,meters,jsons/VE125_randls_27_rotated.json,1216263,1980304,25,Woman
74,705900,DepthScenes,duration_manipulation_targetAtFixation,jsons/VE125_randls_27_rotated.json,http://54.235.29.9/FacialAge/BNav_EC2/DepthDuration/v2_depth_duration_MTurk/v2_DepthDuration_HTML.html#110,110,1440,789,1440,900,8-21-2022,8-38-11,75,depth_duration_stimuli/000409_2014-06-04_19-23-33_260595134347_rgbf000067-resize_0/000409_2014-06-04_19-23-33_260595134347_rgbf000067-resize_0-target.png,125,3.7335,15,2699,124,meters,jsons/VE125_randls_27_rotated.json,1216263,1980304,25,Woman
75,705900,DepthScenes,duration_manipulation_targetAtFixation,jsons/VE125_randls_27_rotated.json,http://54.235.29.9/FacialAge/BNav_EC2/DepthDuration/v2_depth_duration_MTurk/v2_DepthDuration_HTML.html#110,110,1440,789,1440,900,8-21-2022,8-38-11,76,depth_duration_stimuli/002663_2014-06-13_15-50-26_094959634447_rgbf000075-resize_1/002663_2014-06-13_15-50-26_094959634447_rgbf000075-resize_1-target.png,125,4.7495,10,2546,118,meters,jsons/VE125_randls_27_rotated.json,1216263,1980304,25,Woman
76,705900,DepthScenes,duration_manipulation_targetAtFixation,jsons/VE125_randls_27_rotated.json,http://54.235.29.9/FacialAge/BNav_EC2/DepthDuration/v2_depth_duration_MTurk/v2_DepthDuration_HTML.html#110,110,1440,789,1440,900,8-21-2022,8-38-11,77,depth_duration_stimuli/003010_2014-06-15_12-54-35_094959634447_rgbf000112-resize_0/003010_2014-06-15_12-54-35_094959634447_rgbf000112-resize_0-target.png,125,3.1185,15,3150,125,meters,jsons/VE125_randls_27_rotated.json,1216263,1980304,25,Woman
77,705900,DepthScenes,duration_manipulation_targetAtFixation,jsons/VE125_randls_27_rotated.json,http://54.235.29.9/FacialAge/BNav_EC2/DepthDuration/v2_depth_duration_MTurk/v2_DepthDuration_HTML.html#110,110,1440,789,1440,900,8-21-2022,8-38-11,78,depth_duration_stimuli/001810_2014-06-26_20-51-35_260595134347_rgbf000040-resize_3/001810_2014-06-26_20-51-35_260595134347_rgbf000040-resize_3-target.png,125,2.2525,30,2884,118,meters,jsons/VE125_randls_27_rotated.json,1216263,1980304,25,Woman
78,705900,DepthScenes,duration_manipulation_targetAtFixation,jsons/VE125_randls_27_rotated.json,http://54.235.29.9/FacialAge/BNav_EC2/DepthDuration/v2_depth_duration_MTurk/v2_DepthDuration_HTML.html#110,110,1440,789,1440,900,8-21-2022,8-38-11,79,depth_duration_stimuli/001214_2014-06-17_16-13-55_260595134347_rgbf000111-resize_0/001214_2014-06-17_16-13-55_260595134347_rgbf000111-resize_0-target.png,125,2.6505,20,2570,124,meters,jsons/VE125_randls_27_rotated.json,1216263,1980304,25,Woman
79,705900,DepthScenes,duration_manipulation_targetAtFixation,jsons/VE125_randls_27_rotated.json,http://54.235.29.9/FacialAge/BNav_EC2/DepthDuration/v2_depth_duration_MTurk/v2_DepthDuration_HTML.html#110,110,1440,789,1440,900,8-21-2022,8-38-11,80,depth_duration_stimuli/000810_2014-06-08_17-20-01_260595134347_rgbf000105-resize_0/000810_2014-06-08_17-20-01_260595134347_rgbf000105-resize_0-target.png,125,1.4865,20,2852,119,meters,jsons/VE125_randls_27_rotated.json,1216263,1980304,25,Woman
80,705900,DepthScenes,duration_manipulation_targetAtFixation,jsons/VE125_randls_27_rotated.json,http://54.235.29.9/FacialAge/BNav_EC2/DepthDuration/v2_depth_duration_MTurk/v2_DepthDuration_HTML.html#110,110,1440,789,1440,900,8-21-2022,8-38-11,81,depth_duration_stimuli/000103_2014-05-14_22-01-17_260595134347_rgbf000152-resize_5/000103_2014-05-14_22-01-17_260595134347_rgbf000152-resize_5-target.png,125,1.993,50,2580,125,meters,jsons/VE125_randls_27_rotated.json,1216263,1980304,25,Woman
81,705900,DepthScenes,duration_manipulation_targetAtFixation,jsons/VE125_randls_27_rotated.json,http://54.235.29.9/FacialAge/BNav_EC2/DepthDuration/v2_depth_duration_MTurk/v2_DepthDuration_HTML.html#110,110,1440,789,1440,900,8-21-2022,8-38-11,82,depth_duration_stimuli/001555_2014-06-20_17-12-10_260595134347_rgbf000065-resize_4/001555_2014-06-20_17-12-10_260595134347_rgbf000065-resize_4-target.png,125,1.633,16,3652,117,meters,jsons/VE125_randls_27_rotated.json,1216263,1980304,25,Woman
82,705900,DepthScenes,duration_manipulation_targetAtFixation,jsons/VE125_randls_27_rotated.json,http://54.235.29.9/FacialAge/BNav_EC2/DepthDuration/v2_depth_duration_MTurk/v2_DepthDuration_HTML.html#110,110,1440,789,1440,900,8-21-2022,8-38-11,83,depth_duration_stimuli/001132_2014-06-17_14-48-54_260595134347_rgbf000100-resize_2/001132_2014-06-17_14-48-54_260595134347_rgbf000100-resize_2-target.png,125,3.753,16,4540,120,meters,jsons/VE125_randls_27_rotated.json,1216263,1980304,25,Woman
83,705900,DepthScenes,duration_manipulation_targetAtFixation,jsons/VE125_randls_27_rotated.json,http://54.235.29.9/FacialAge/BNav_EC2/DepthDuration/v2_depth_duration_MTurk/v2_DepthDuration_HTML.html#110,110,1440,789,1440,900,8-21-2022,8-38-11,84,depth_duration_stimuli/001133_2014-06-17_14-49-16_260595134347_rgbf000100-resize_0/001133_2014-06-17_14-49-16_260595134347_rgbf000100-resize_0-target.png,125,4.2115,30,3309,126,meters,jsons/VE125_randls_27_rotated.json,1216263,1980304,25,Woman
84,705900,DepthScenes,duration_manipulation_targetAtFixation,jsons/VE125_randls_27_rotated.json,http://54.235.29.9/FacialAge/BNav_EC2/DepthDuration/v2_depth_duration_MTurk/v2_DepthDuration_HTML.html#110,110,1440,789,1440,900,8-21-2022,8-38-11,85,depth_duration_stimuli/002323_2014-06-28_20-01-54_260595134347_rgbf000051-resize_4/002323_2014-06-28_20-01-54_260595134347_rgbf000051-resize_4-target.png,125,3.7310000000000003,50,3080,122,meters,jsons/VE125_randls_27_rotated.json,1216263,1980304,25,Woman
85,705900,DepthScenes,duration_manipulation_targetAtFixation,jsons/VE125_randls_27_rotated.json,http://54.235.29.9/FacialAge/BNav_EC2/DepthDuration/v2_depth_duration_MTurk/v2_DepthDuration_HTML.html#110,110,1440,789,1440,900,8-21-2022,8-38-11,86,depth_duration_stimuli/000917_2014-06-09_22-45-29_260595134347_rgbf000149-resize_3/000917_2014-06-09_22-45-29_260595134347_rgbf000149-resize_3-target.png,125,4.1865,12,9882,120,meters,jsons/VE125_randls_27_rotated.json,1216263,1980304,25,Woman
86,705900,DepthScenes,duration_manipulation_targetAtFixation,jsons/VE125_randls_27_rotated.json,http://54.235.29.9/FacialAge/BNav_EC2/DepthDuration/v2_depth_duration_MTurk/v2_DepthDuration_HTML.html#110,110,1440,789,1440,900,8-21-2022,8-38-11,87,depth_duration_stimuli/002545_2014-06-24_13-38-53_094959634447_rgbf000080-resize_4/002545_2014-06-24_13-38-53_094959634447_rgbf000080-resize_4-target.png,125,1.9205,10,2523,116,meters,jsons/VE125_randls_27_rotated.json,1216263,1980304,25,Woman
87,705900,DepthScenes,duration_manipulation_targetAtFixation,jsons/VE125_randls_27_rotated.json,http://54.235.29.9/FacialAge/BNav_EC2/DepthDuration/v2_depth_duration_MTurk/v2_DepthDuration_HTML.html#110,110,1440,789,1440,900,8-21-2022,8-38-11,88,depth_duration_stimuli/001092_2014-06-15_17-34-58_260595134347_rgbf000171-resize_3/001092_2014-06-15_17-34-58_260595134347_rgbf000171-resize_3-target.png,125,2.6935,2,3102,119,meters,jsons/VE125_randls_27_rotated.json,1216263,1980304,25,Woman
88,705900,DepthScenes,duration_manipulation_targetAtFixation,jsons/VE125_randls_27_rotated.json,http://54.235.29.9/FacialAge/BNav_EC2/DepthDuration/v2_depth_duration_MTurk/v2_DepthDuration_HTML.html#110,110,1440,789,1440,900,8-21-2022,8-38-11,89,depth_duration_stimuli/002344_2014-06-28_20-06-29_260595134347_rgbf000030-resize_1/002344_2014-06-28_20-06-29_260595134347_rgbf000030-resize_1-target.png,125,1.5795,10,15025,126,meters,jsons/VE125_randls_27_rotated.json,1216263,1980304,25,Woman
89,705900,DepthScenes,duration_manipulation_targetAtFixation,jsons/VE125_randls_27_rotated.json,http://54.235.29.9/FacialAge/BNav_EC2/DepthDuration/v2_depth_duration_MTurk/v2_DepthDuration_HTML.html#110,110,1440,789,1440,900,8-21-2022,8-38-11,90,depth_duration_stimuli/002725_2014-06-22_11-47-51_094959634447_rgbf000070-resize_1/002725_2014-06-22_11-47-51_094959634447_rgbf000070-resize_1-target.png,125,2.195,10,2466,117,meters,jsons/VE125_randls_27_rotated.json,1216263,1980304,25,Woman
90,705900,DepthScenes,duration_manipulation_targetAtFixation,jsons/VE125_randls_27_rotated.json,http://54.235.29.9/FacialAge/BNav_EC2/DepthDuration/v2_depth_duration_MTurk/v2_DepthDuration_HTML.html#110,110,1440,789,1440,900,8-21-2022,8-38-11,91,depth_duration_stimuli/001450_2014-06-19_17-02-03_260595134347_rgbf000203-resize_4/001450_2014-06-19_17-02-03_260595134347_rgbf000203-resize_4-target.png,125,4.0106666666667,12,2282,130,meters,jsons/VE125_randls_27_rotated.json,1216263,1980304,25,Woman
91,705900,DepthScenes,duration_manipulation_targetAtFixation,jsons/VE125_randls_27_rotated.json,http://54.235.29.9/FacialAge/BNav_EC2/DepthDuration/v2_depth_duration_MTurk/v2_DepthDuration_HTML.html#110,110,1440,789,1440,900,8-21-2022,8-38-11,92,depth_duration_stimuli/001449_2014-06-19_17-01-27_260595134347_rgbf000116-resize_2/001449_2014-06-19_17-01-27_260595134347_rgbf000116-resize_2-target.png,125,3.452,15,3163,117,meters,jsons/VE125_randls_27_rotated.json,1216263,1980304,25,Woman
92,705900,DepthScenes,duration_manipulation_targetAtFixation,jsons/VE125_randls_27_rotated.json,http://54.235.29.9/FacialAge/BNav_EC2/DepthDuration/v2_depth_duration_MTurk/v2_DepthDuration_HTML.html#110,110,1440,789,1440,900,8-21-2022,8-38-11,93,depth_duration_stimuli/000457_2014-06-08_16-52-43_260595134347_rgbf000199-resize_1/000457_2014-06-08_16-52-43_260595134347_rgbf000199-resize_1-target.png,125,3.6489999999999996,16,6443,132,meters,jsons/VE125_randls_27_rotated.json,1216263,1980304,25,Woman
93,705900,DepthScenes,duration_manipulation_targetAtFixation,jsons/VE125_randls_27_rotated.json,http://54.235.29.9/FacialAge/BNav_EC2/DepthDuration/v2_depth_duration_MTurk/v2_DepthDuration_HTML.html#110,110,1440,789,1440,900,8-21-2022,8-38-11,94,depth_duration_stimuli/000929_2014-06-09_16-33-19_260595134347_rgbf000139-resize_0/000929_2014-06-09_16-33-19_260595134347_rgbf000139-resize_0-target.png,125,2.8680000000000003,12,3067,124,meters,jsons/VE125_randls_27_rotated.json,1216263,1980304,25,Woman
94,705900,DepthScenes,duration_manipulation_targetAtFixation,jsons/VE125_randls_27_rotated.json,http://54.235.29.9/FacialAge/BNav_EC2/DepthDuration/v2_depth_duration_MTurk/v2_DepthDuration_HTML.html#110,110,1440,789,1440,900,8-21-2022,8-38-11,95,depth_duration_stimuli/001235_2014-06-17_16-37-36_260595134347_rgbf000084-resize_4/001235_2014-06-17_16-37-36_260595134347_rgbf000084-resize_4-target.png,125,3.6605,5,3043,125,meters,jsons/VE125_randls_27_rotated.json,1216263,1980304,25,Woman
95,705900,DepthScenes,duration_manipulation_targetAtFixation,jsons/VE125_randls_27_rotated.json,http://54.235.29.9/FacialAge/BNav_EC2/DepthDuration/v2_depth_duration_MTurk/v2_DepthDuration_HTML.html#110,110,1440,789,1440,900,8-21-2022,8-38-11,96,depth_duration_stimuli/000788_2014-06-08_22-34-36_260595134347_rgbf000131-resize_1/000788_2014-06-08_22-34-36_260595134347_rgbf000131-resize_1-target.png,125,3.359,4,10379,124,meters,jsons/VE125_randls_27_rotated.json,1216263,1980304,25,Woman
96,705900,DepthScenes,duration_manipulation_targetAtFixation,jsons/VE125_randls_27_rotated.json,http://54.235.29.9/FacialAge/BNav_EC2/DepthDuration/v2_depth_duration_MTurk/v2_DepthDuration_HTML.html#110,110,1440,789,1440,900,8-21-2022,8-38-11,97,depth_duration_stimuli/000927_2014-06-09_16-32-30_260595134347_rgbf000123-resize_3/000927_2014-06-09_16-32-30_260595134347_rgbf000123-resize_3-target.png,125,2.6785,10,3723,125,meters,jsons/VE125_randls_27_rotated.json,1216263,1980304,25,Woman
97,705900,DepthScenes,duration_manipulation_targetAtFixation,jsons/VE125_randls_27_rotated.json,http://54.235.29.9/FacialAge/BNav_EC2/DepthDuration/v2_depth_duration_MTurk/v2_DepthDuration_HTML.html#110,110,1440,789,1440,900,8-21-2022,8-38-11,98,depth_duration_stimuli/001110_2014-06-15_17-25-28_260595134347_rgbf000150-resize_1/001110_2014-06-15_17-25-28_260595134347_rgbf000150-resize_1-target.png,125,1.7115,5,2467,125,meters,jsons/VE125_randls_27_rotated.json,1216263,1980304,25,Woman
98,705900,DepthScenes,duration_manipulation_targetAtFixation,jsons/VE125_randls_27_rotated.json,http://54.235.29.9/FacialAge/BNav_EC2/DepthDuration/v2_depth_duration_MTurk/v2_DepthDuration_HTML.html#110,110,1440,789,1440,900,8-21-2022,8-38-11,99,depth_duration_stimuli/001222_2014-06-17_16-24-06_260595134347_rgbf000073-resize_0/001222_2014-06-17_16-24-06_260595134347_rgbf000073-resize-original.jpg,125,1.4385,20,4801,123,meters,jsons/VE125_randls_27_rotated.json,1216263,1980304,25,Woman
99,705900,DepthScenes,duration_manipulation_targetAtFixation,jsons/VE125_randls_27_rotated.json,http://54.235.29.9/FacialAge/BNav_EC2/DepthDuration/v2_depth_duration_MTurk/v2_DepthDuration_HTML.html#110,110,1440,789,1440,900,8-21-2022,8-38-11,100,depth_duration_stimuli/003587_2014-05-23_16-48-02_094959634447_rgbf002384-resize_2/003587_2014-05-23_16-48-02_094959634447_rgbf002384-resize_2-target.png,125,1.357,5,2419,125,meters,jsons/VE125_randls_27_rotated.json,1216263,1980304,25,Woman
100,705900,DepthScenes,duration_manipulation_targetAtFixation,jsons/VE125_randls_27_rotated.json,http://54.235.29.9/FacialAge/BNav_EC2/DepthDuration/v2_depth_duration_MTurk/v2_DepthDuration_HTML.html#110,110,1440,789,1440,900,8-21-2022,8-38-11,101,depth_duration_stimuli/001167_2014-06-17_15-38-07_260595134347_rgbf000108-resize_0/001167_2014-06-17_15-38-07_260595134347_rgbf000108-resize_0-target.png,125,1.8505,10,2515,119,meters,jsons/VE125_randls_27_rotated.json,1216263,1980304,25,Woman
101,705900,DepthScenes,duration_manipulation_targetAtFixation,jsons/VE125_randls_27_rotated.json,http://54.235.29.9/FacialAge/BNav_EC2/DepthDuration/v2_depth_duration_MTurk/v2_DepthDuration_HTML.html#110,110,1440,789,1440,900,8-21-2022,8-38-11,102,depth_duration_stimuli/001571_2014-06-20_17-21-32_260595134347_rgbf000089-resize_1/001571_2014-06-20_17-21-32_260595134347_rgbf000089-resize_1-target.png,125,1.86,12,2927,129,meters,jsons/VE125_randls_27_rotated.json,1216263,1980304,25,Woman
102,705900,DepthScenes,duration_manipulation_targetAtFixation,jsons/VE125_randls_27_rotated.json,http://54.235.29.9/FacialAge/BNav_EC2/DepthDuration/v2_depth_duration_MTurk/v2_DepthDuration_HTML.html#110,110,1440,789,1440,900,8-21-2022,8-38-11,103,depth_duration_stimuli/002272_2014-06-28_18-53-56_260595134347_rgbf000067-resize_2/002272_2014-06-28_18-53-56_260595134347_rgbf000067-resize_2-target.png,125,1.138,15,2955,132,meters,jsons/VE125_randls_27_rotated.json,1216263,1980304,25,Woman
103,705900,DepthScenes,duration_manipulation_targetAtFixation,jsons/VE125_randls_27_rotated.json,http://54.235.29.9/FacialAge/BNav_EC2/DepthDuration/v2_depth_duration_MTurk/v2_DepthDuration_HTML.html#110,110,1440,789,1440,900,8-21-2022,8-38-11,104,depth_duration_stimuli/000665_2014-06-09_20-42-35_260595134347_rgbf000110-resize_1/000665_2014-06-09_20-42-35_260595134347_rgbf000110-resize_1-target.png,125,3.057,13,3475,126,meters,jsons/VE125_randls_27_rotated.json,1216263,1980304,25,Woman
104,705900,DepthScenes,duration_manipulation_targetAtFixation,jsons/VE125_randls_27_rotated.json,http://54.235.29.9/FacialAge/BNav_EC2/DepthDuration/v2_depth_duration_MTurk/v2_DepthDuration_HTML.html#110,110,1440,789,1440,900,8-21-2022,8-38-11,105,depth_duration_stimuli/001150_2014-06-17_15-27-34_260595134347_rgbf000108-resize_2/001150_2014-06-17_15-27-34_260595134347_rgbf000108-resize_2-target.png,125,4.0325,15,3075,126,meters,jsons/VE125_randls_27_rotated.json,1216263,1980304,25,Woman
105,705900,DepthScenes,duration_manipulation_targetAtFixation,jsons/VE125_randls_27_rotated.json,http://54.235.29.9/FacialAge/BNav_EC2/DepthDuration/v2_depth_duration_MTurk/v2_DepthDuration_HTML.html#110,110,1440,789,1440,900,8-21-2022,8-38-11,106,depth_duration_stimuli/000109_2014-05-14_23-41-52_260595134347_rgbf000035-resize_9/000109_2014-05-14_23-41-52_260595134347_rgbf000035-resize_9-target.png,125,1.3545,3,15766,128,meters,jsons/VE125_randls_27_rotated.json,1216263,1980304,25,Woman
106,705900,DepthScenes,duration_manipulation_targetAtFixation,jsons/VE125_randls_27_rotated.json,http://54.235.29.9/FacialAge/BNav_EC2/DepthDuration/v2_depth_duration_MTurk/v2_DepthDuration_HTML.html#110,110,1440,789,1440,900,8-21-2022,8-38-11,107,depth_duration_stimuli/000470_2014-06-09_19-42-40_260595134347_rgbf000094-resize_1/000470_2014-06-09_19-42-40_260595134347_rgbf000094-resize_1-target.png,125,1.831,15,4387,125,meters,jsons/VE125_randls_27_rotated.json,1216263,1980304,25,Woman
107,705900,DepthScenes,duration_manipulation_targetAtFixation,jsons/VE125_randls_27_rotated.json,http://54.235.29.9/FacialAge/BNav_EC2/DepthDuration/v2_depth_duration_MTurk/v2_DepthDuration_HTML.html#110,110,1440,789,1440,900,8-21-2022,8-38-11,108,depth_duration_stimuli/002953_2014-06-08_17-32-18_094959634447_rgbf000059-resize_5/002953_2014-06-08_17-32-18_094959634447_rgbf000059-resize_5-target.png,125,1.551,6,19711,126,meters,jsons/VE125_randls_27_rotated.json,1216263,1980304,25,Woman
108,705900,DepthScenes,duration_manipulation_targetAtFixation,jsons/VE125_randls_27_rotated.json,http://54.235.29.9/FacialAge/BNav_EC2/DepthDuration/v2_depth_duration_MTurk/v2_DepthDuration_HTML.html#110,110,1440,789,1440,900,8-21-2022,8-38-11,109,depth_duration_stimuli/000878_2014-06-08_22-52-45_260595134347_rgbf000045-resize_2/000878_2014-06-08_22-52-45_260595134347_rgbf000045-resize_2-target.png,125,2.092,0,2819,125,meters,jsons/VE125_randls_27_rotated.json,1216263,1980304,25,Woman
109,705900,DepthScenes,duration_manipulation_targetAtFixation,jsons/VE125_randls_27_rotated.json,http://54.235.29.9/FacialAge/BNav_EC2/DepthDuration/v2_depth_duration_MTurk/v2_DepthDuration_HTML.html#110,110,1440,789,1440,900,8-21-2022,8-38-11,110,depth_duration_stimuli/000677_2014-06-08_23-10-32_260595134347_rgbf000158-resize_6/000677_2014-06-08_23-10-32_260595134347_rgbf000158-resize_6-target.png,125,3.556,5,2523,120,meters,jsons/VE125_randls_27_rotated.json,1216263,1980304,25,Woman
110,705900,DepthScenes,duration_manipulation_targetAtFixation,jsons/VE125_randls_27_rotated.json,http://54.235.29.9/FacialAge/BNav_EC2/DepthDuration/v2_depth_duration_MTurk/v2_DepthDuration_HTML.html#110,110,1440,789,1440,900,8-21-2022,8-38-11,111,depth_duration_stimuli/001029_2014-06-08_13-17-57_260595134347_rgbf000065-resize_1/001029_2014-06-08_13-17-57_260595134347_rgbf000065-resize_1-target.png,125,3.0835,12,2772,116,meters,jsons/VE125_randls_27_rotated.json,1216263,1980304,25,Woman
111,705900,DepthScenes,duration_manipulation_targetAtFixation,jsons/VE125_randls_27_rotated.json,http://54.235.29.9/FacialAge/BNav_EC2/DepthDuration/v2_depth_duration_MTurk/v2_DepthDuration_HTML.html#110,110,1440,789,1440,900,8-21-2022,8-38-11,112,depth_duration_stimuli/001100_2014-06-15_17-46-26_260595134347_rgbf000225-resize_2/001100_2014-06-15_17-46-26_260595134347_rgbf000225-resize_2-target.png,125,2.24,10,2825,131,meters,jsons/VE125_randls_27_rotated.json,1216263,1980304,25,Woman
112,705900,DepthScenes,duration_manipulation_targetAtFixation,jsons/VE125_randls_27_rotated.json,http://54.235.29.9/FacialAge/BNav_EC2/DepthDuration/v2_depth_duration_MTurk/v2_DepthDuration_HTML.html#110,110,1440,789,1440,900,8-21-2022,8-38-11,113,depth_duration_stimuli/002784_2014-06-22_19-26-30_094959634447_rgbf000083-resize_3/002784_2014-06-22_19-26-30_094959634447_rgbf000083-resize_3-target.png,125,1.8046666666667,2,2826,123,meters,jsons/VE125_randls_27_rotated.json,1216263,1980304,25,Woman
113,705900,DepthScenes,duration_manipulation_targetAtFixation,jsons/VE125_randls_27_rotated.json,http://54.235.29.9/FacialAge/BNav_EC2/DepthDuration/v2_depth_duration_MTurk/v2_DepthDuration_HTML.html#110,110,1440,789,1440,900,8-21-2022,8-38-11,114,depth_duration_stimuli/003228_2014-05-14_13-42-35_094959634447_rgbf000101-resize_1/003228_2014-05-14_13-42-35_094959634447_rgbf000101-resize_1-target.png,125,1.9680000000000002,12,2788,120,meters,jsons/VE125_randls_27_rotated.json,1216263,1980304,25,Woman
114,705900,DepthScenes,duration_manipulation_targetAtFixation,jsons/VE125_randls_27_rotated.json,http://54.235.29.9/FacialAge/BNav_EC2/DepthDuration/v2_depth_duration_MTurk/v2_DepthDuration_HTML.html#110,110,1440,789,1440,900,8-21-2022,8-38-11,115,depth_duration_stimuli/002600_2014-06-24_14-27-04_094959634447_rgbf000074-resize_2/002600_2014-06-24_14-27-04_094959634447_rgbf000074-resize_2-target.png,125,2.7575,10,9270,119,meters,jsons/VE125_randls_27_rotated.json,1216263,1980304,25,Woman
115,705900,DepthScenes,duration_manipulation_targetAtFixation,jsons/VE125_randls_27_rotated.json,http://54.235.29.9/FacialAge/BNav_EC2/DepthDuration/v2_depth_duration_MTurk/v2_DepthDuration_HTML.html#110,110,1440,789,1440,900,8-21-2022,8-38-11,116,depth_duration_stimuli/003048_2014-06-15_13-49-43_094959634447_rgbf000150-resize_1/003048_2014-06-15_13-49-43_094959634447_rgbf000150-resize_1-target.png,125,4.0035,0,3371,124,meters,jsons/VE125_randls_27_rotated.json,1216263,1980304,25,Woman
116,705900,DepthScenes,duration_manipulation_targetAtFixation,jsons/VE125_randls_27_rotated.json,http://54.235.29.9/FacialAge/BNav_EC2/DepthDuration/v2_depth_duration_MTurk/v2_DepthDuration_HTML.html#110,110,1440,789,1440,900,8-21-2022,8-38-11,117,depth_duration_stimuli/002043_2014-06-24_20-29-38_260595134347_rgbf000039-resize_4/002043_2014-06-24_20-29-38_260595134347_rgbf000039-resize_4-target.png,125,2.8435,0,3119,120,meters,jsons/VE125_randls_27_rotated.json,1216263,1980304,25,Woman
117,705900,DepthScenes,duration_manipulation_targetAtFixation,jsons/VE125_randls_27_rotated.json,http://54.235.29.9/FacialAge/BNav_EC2/DepthDuration/v2_depth_duration_MTurk/v2_DepthDuration_HTML.html#110,110,1440,789,1440,900,8-21-2022,8-38-11,118,depth_duration_stimuli/002103_2014-06-25_20-00-40_260595134347_rgbf000049-resize_0/002103_2014-06-25_20-00-40_260595134347_rgbf000049-resize_0-target.png,125,4.105,5,3434,133,meters,jsons/VE125_randls_27_rotated.json,1216263,1980304,25,Woman
118,705900,DepthScenes,duration_manipulation_targetAtFixation,jsons/VE125_randls_27_rotated.json,http://54.235.29.9/FacialAge/BNav_EC2/DepthDuration/v2_depth_duration_MTurk/v2_DepthDuration_HTML.html#110,110,1440,789,1440,900,8-21-2022,8-38-11,119,depth_duration_stimuli/002039_2014-06-24_20-22-38_260595134347_rgbf000084-resize_1/002039_2014-06-24_20-22-38_260595134347_rgbf000084-resize_1-target.png,125,4.408,0,2955,125,meters,jsons/VE125_randls_27_rotated.json,1216263,1980304,25,Woman
119,705900,DepthScenes,duration_manipulation_targetAtFixation,jsons/VE125_randls_27_rotated.json,http://54.235.29.9/FacialAge/BNav_EC2/DepthDuration/v2_depth_duration_MTurk/v2_DepthDuration_HTML.html#110,110,1440,789,1440,900,8-21-2022,8-38-11,120,depth_duration_stimuli/000787_2014-06-08_22-33-53_260595134347_rgbf000175-resize_1/000787_2014-06-08_22-33-53_260595134347_rgbf000175-resize-original.jpg,125,4.784,12,3833,122,meters,jsons/VE125_randls_27_rotated.json,1216263,1980304,25,Woman
120,705900,DepthScenes,duration_manipulation_targetAtFixation,jsons/VE125_randls_27_rotated.json,http://54.235.29.9/FacialAge/BNav_EC2/DepthDuration/v2_depth_duration_MTurk/v2_DepthDuration_HTML.html#110,110,1440,789,1440,900,8-21-2022,8-38-11,121,depth_duration_stimuli/000709_2014-06-08_13-51-55_260595134347_rgbf000068-resize_3/000709_2014-06-08_13-51-55_260595134347_rgbf000068-resize_3-target.png,125,1.8030000000000002,10,3154,117,meters,jsons/VE125_randls_27_rotated.json,1216263,1980304,25,Woman
121,705900,DepthScenes,duration_manipulation_targetAtFixation,jsons/VE125_randls_27_rotated.json,http://54.235.29.9/FacialAge/BNav_EC2/DepthDuration/v2_depth_duration_MTurk/v2_DepthDuration_HTML.html#110,110,1440,789,1440,900,8-21-2022,8-38-11,122,depth_duration_stimuli/002057_2014-06-24_21-00-13_260595134347_rgbf000120-resize_1/002057_2014-06-24_21-00-13_260595134347_rgbf000120-resize_1-target.png,125,2.967,5,2891,133,meters,jsons/VE125_randls_27_rotated.json,1216263,1980304,25,Woman
122,705900,DepthScenes,duration_manipulation_targetAtFixation,jsons/VE125_randls_27_rotated.json,http://54.235.29.9/FacialAge/BNav_EC2/DepthDuration/v2_depth_duration_MTurk/v2_DepthDuration_HTML.html#110,110,1440,789,1440,900,8-21-2022,8-38-11,123,depth_duration_stimuli/002949_2014-06-26_15-57-42_094959634447_rgbf000079-resize_1/002949_2014-06-26_15-57-42_094959634447_rgbf000079-resize_1-target.png,125,1.8915,5,2442,123,meters,jsons/VE125_randls_27_rotated.json,1216263,1980304,25,Woman
123,705900,DepthScenes,duration_manipulation_targetAtFixation,jsons/VE125_randls_27_rotated.json,http://54.235.29.9/FacialAge/BNav_EC2/DepthDuration/v2_depth_duration_MTurk/v2_DepthDuration_HTML.html#110,110,1440,789,1440,900,8-21-2022,8-38-11,124,depth_duration_stimuli/000522_2014-06-08_13-35-06_260595134347_rgbf000244-resize_1/000522_2014-06-08_13-35-06_260595134347_rgbf000244-resize_1-target.png,125,2.3715,10,6877,119,meters,jsons/VE125_randls_27_rotated.json,1216263,1980304,25,Woman
124,705900,DepthScenes,duration_manipulation_targetAtFixation,jsons/VE125_randls_27_rotated.json,http://54.235.29.9/FacialAge/BNav_EC2/DepthDuration/v2_depth_duration_MTurk/v2_DepthDuration_HTML.html#110,110,1440,789,1440,900,8-21-2022,8-38-11,125,depth_duration_stimuli/001516_2014-06-20_16-25-09_260595134347_rgbf000076-resize_2/001516_2014-06-20_16-25-09_260595134347_rgbf000076-resize_2-target.png,125,1.7445,0,2922,124,meters,jsons/VE125_randls_27_rotated.json,1216263,1980304,25,Woman
125,705900,DepthScenes,duration_manipulation_targetAtFixation,jsons/VE125_randls_27_rotated.json,http://54.235.29.9/FacialAge/BNav_EC2/DepthDuration/v2_depth_duration_MTurk/v2_DepthDuration_HTML.html#110,110,1440,789,1440,900,8-21-2022,8-38-11,126,depth_duration_stimuli/002118_2014-06-25_20-32-08_260595134347_rgbf000078-resize_1/002118_2014-06-25_20-32-08_260595134347_rgbf000078-resize_1-target.png,125,2.6460000000000004,12,3443,127,meters,jsons/VE125_randls_27_rotated.json,1216263,1980304,25,Woman
126,705900,DepthScenes,duration_manipulation_targetAtFixation,jsons/VE125_randls_27_rotated.json,http://54.235.29.9/FacialAge/BNav_EC2/DepthDuration/v2_depth_duration_MTurk/v2_DepthDuration_HTML.html#110,110,1440,789,1440,900,8-21-2022,8-38-11,127,depth_duration_stimuli/002657_2014-06-13_15-29-54_094959634447_rgbf000150-resize_1/002657_2014-06-13_15-29-54_094959634447_rgbf000150-resize_1-target.png,125,4.919,0,2899,124,meters,jsons/VE125_randls_27_rotated.json,1216263,1980304,25,Woman
127,705900,DepthScenes,duration_manipulation_targetAtFixation,jsons/VE125_randls_27_rotated.json,http://54.235.29.9/FacialAge/BNav_EC2/DepthDuration/v2_depth_duration_MTurk/v2_DepthDuration_HTML.html#110,110,1440,789,1440,900,8-21-2022,8-38-11,128,depth_duration_stimuli/002375_2014-06-28_20-13-44_260595134347_rgbf000032-resize_1/002375_2014-06-28_20-13-44_260595134347_rgbf000032-resize_1-target.png,125,4.0175,0,2539,130,meters,jsons/VE125_randls_27_rotated.json,1216263,1980304,25,Woman
128,705900,DepthScenes,duration_manipulation_targetAtFixation,jsons/VE125_randls_27_rotated.json,http://54.235.29.9/FacialAge/BNav_EC2/DepthDuration/v2_depth_duration_MTurk/v2_DepthDuration_HTML.html#110,110,1440,789,1440,900,8-21-2022,8-38-11,129,depth_duration_stimuli/002414_2014-06-28_20-24-58_260595134347_rgbf000067-resize_4/002414_2014-06-28_20-24-58_260595134347_rgbf000067-resize_4-target.png,125,4.363,12,3027,124,meters,jsons/VE125_randls_27_rotated.json,1216263,1980304,25,Woman
129,705900,DepthScenes,duration_manipulation_targetAtFixation,jsons/VE125_randls_27_rotated.json,http://54.235.29.9/FacialAge/BNav_EC2/DepthDuration/v2_depth_duration_MTurk/v2_DepthDuration_HTML.html#110,110,1440,789,1440,900,8-21-2022,8-38-11,130,depth_duration_stimuli/000773_2014-06-08_22-24-54_260595134347_rgbf000093-resize_1/000773_2014-06-08_22-24-54_260595134347_rgbf000093-resize_1-target.png,125,4.973,5,2811,124,meters,jsons/VE125_randls_27_rotated.json,1216263,1980304,25,Woman
130,705900,DepthScenes,duration_manipulation_targetAtFixation,jsons/VE125_randls_27_rotated.json,http://54.235.29.9/FacialAge/BNav_EC2/DepthDuration/v2_depth_duration_MTurk/v2_DepthDuration_HTML.html#110,110,1440,789,1440,900,8-21-2022,8-38-11,131,depth_duration_stimuli/001650_2014-06-20_12-09-00_260595134347_rgbf000087-resize_3/001650_2014-06-20_12-09-00_260595134347_rgbf000087-resize_3-target.png,125,1.9505,6,2855,120,meters,jsons/VE125_randls_27_rotated.json,1216263,1980304,25,Woman
131,705900,DepthScenes,duration_manipulation_targetAtFixation,jsons/VE125_randls_27_rotated.json,http://54.235.29.9/FacialAge/BNav_EC2/DepthDuration/v2_depth_duration_MTurk/v2_DepthDuration_HTML.html#110,110,1440,789,1440,900,8-21-2022,8-38-11,132,depth_duration_stimuli/000682_2014-06-08_23-14-58_260595134347_rgbf000041-resize_5/000682_2014-06-08_23-14-58_260595134347_rgbf000041-resize_5-target.png,125,2.7239999999999998,5,2642,116,meters,jsons/VE125_randls_27_rotated.json,1216263,1980304,25,Woman
132,705900,DepthScenes,duration_manipulation_targetAtFixation,jsons/VE125_randls_27_rotated.json,http://54.235.29.9/FacialAge/BNav_EC2/DepthDuration/v2_depth_duration_MTurk/v2_DepthDuration_HTML.html#110,110,1440,789,1440,900,8-21-2022,8-38-11,133,depth_duration_stimuli/000691_2014-06-08_13-08-50_260595134347_rgbf000132-resize_3/000691_2014-06-08_13-08-50_260595134347_rgbf000132-resize_3-target.png,125,4.1530000000000005,4,8143,129,meters,jsons/VE125_randls_27_rotated.json,1216263,1980304,25,Woman
133,705900,DepthScenes,duration_manipulation_targetAtFixation,jsons/VE125_randls_27_rotated.json,http://54.235.29.9/FacialAge/BNav_EC2/DepthDuration/v2_depth_duration_MTurk/v2_DepthDuration_HTML.html#110,110,1440,789,1440,900,8-21-2022,8-38-11,134,depth_duration_stimuli/002213_2014-06-28_18-37-58_260595134347_rgbf000055-resize_1/002213_2014-06-28_18-37-58_260595134347_rgbf000055-resize_1-target.png,125,3.62,8,3087,124,meters,jsons/VE125_randls_27_rotated.json,1216263,1980304,25,Woman
134,705900,DepthScenes,duration_manipulation_targetAtFixation,jsons/VE125_randls_27_rotated.json,http://54.235.29.9/FacialAge/BNav_EC2/DepthDuration/v2_depth_duration_MTurk/v2_DepthDuration_HTML.html#110,110,1440,789,1440,900,8-21-2022,8-38-11,135,depth_duration_stimuli/000375_2014-06-08_11-17-29_260595134347_rgbf000133-resize_2/000375_2014-06-08_11-17-29_260595134347_rgbf000133-resize-original.jpg,125,4.718,6,3421,120,meters,jsons/VE125_randls_27_rotated.json,1216263,1980304,25,Woman
135,705900,DepthScenes,duration_manipulation_targetAtFixation,jsons/VE125_randls_27_rotated.json,http://54.235.29.9/FacialAge/BNav_EC2/DepthDuration/v2_depth_duration_MTurk/v2_DepthDuration_HTML.html#110,110,1440,789,1440,900,8-21-2022,8-38-11,136,depth_duration_stimuli/002805_2014-06-22_19-54-03_094959634447_rgbf000079-resize_1/002805_2014-06-22_19-54-03_094959634447_rgbf000079-resize_1-target.png,125,3.1439999999999997,12,3123,124,meters,jsons/VE125_randls_27_rotated.json,1216263,1980304,25,Woman
136,705900,DepthScenes,duration_manipulation_targetAtFixation,jsons/VE125_randls_27_rotated.json,http://54.235.29.9/FacialAge/BNav_EC2/DepthDuration/v2_depth_duration_MTurk/v2_DepthDuration_HTML.html#110,110,1440,789,1440,900,8-21-2022,8-38-11,137,depth_duration_stimuli/000906_2014-06-08_13-35-43_260595134347_rgbf000155-resize_1/000906_2014-06-08_13-35-43_260595134347_rgbf000155-resize_1-target.png,125,2.8489999999999998,4,7490,125,meters,jsons/VE125_randls_27_rotated.json,1216263,1980304,25,Woman
137,705900,DepthScenes,duration_manipulation_targetAtFixation,jsons/VE125_randls_27_rotated.json,http://54.235.29.9/FacialAge/BNav_EC2/DepthDuration/v2_depth_duration_MTurk/v2_DepthDuration_HTML.html#110,110,1440,789,1440,900,8-21-2022,8-38-11,138,depth_duration_stimuli/001032_2014-06-08_13-23-17_260595134347_rgbf000021-resize_3/001032_2014-06-08_13-23-17_260595134347_rgbf000021-resize_3-target.png,125,3.2725,8,3171,128,meters,jsons/VE125_randls_27_rotated.json,1216263,1980304,25,Woman
138,705900,DepthScenes,duration_manipulation_targetAtFixation,jsons/VE125_randls_27_rotated.json,http://54.235.29.9/FacialAge/BNav_EC2/DepthDuration/v2_depth_duration_MTurk/v2_DepthDuration_HTML.html#110,110,1440,789,1440,900,8-21-2022,8-38-11,139,depth_duration_stimuli/001059_2014-06-08_21-53-27_260595134347_rgbf000061-resize_4/001059_2014-06-08_21-53-27_260595134347_rgbf000061-resize_4-target.png,125,2.4185,12,3434,119,meters,jsons/VE125_randls_27_rotated.json,1216263,1980304,25,Woman
139,705900,DepthScenes,duration_manipulation_targetAtFixation,jsons/VE125_randls_27_rotated.json,http://54.235.29.9/FacialAge/BNav_EC2/DepthDuration/v2_depth_duration_MTurk/v2_DepthDuration_HTML.html#110,110,1440,789,1440,900,8-21-2022,8-38-11,140,depth_duration_stimuli/001815_2014-06-26_20-52-55_260595134347_rgbf000020-resize_0/001815_2014-06-26_20-52-55_260595134347_rgbf000020-resize_0-target.png,125,3.3865,15,5488,122,meters,jsons/VE125_randls_27_rotated.json,1216263,1980304,25,Woman
140,705900,DepthScenes,duration_manipulation_targetAtFixation,jsons/VE125_randls_27_rotated.json,http://54.235.29.9/FacialAge/BNav_EC2/DepthDuration/v2_depth_duration_MTurk/v2_DepthDuration_HTML.html#110,110,1440,789,1440,900,8-21-2022,8-38-11,141,depth_duration_stimuli/001808_2014-06-26_20-50-58_260595134347_rgbf000029-resize_1/001808_2014-06-26_20-50-58_260595134347_rgbf000029-resize_1-target.png,125,4.249,5,11106,124,meters,jsons/VE125_randls_27_rotated.json,1216263,1980304,25,Woman
141,705900,DepthScenes,duration_manipulation_targetAtFixation,jsons/VE125_randls_27_rotated.json,http://54.235.29.9/FacialAge/BNav_EC2/DepthDuration/v2_depth_duration_MTurk/v2_DepthDuration_HTML.html#110,110,1440,789,1440,900,8-21-2022,8-38-11,142,depth_duration_stimuli/002136_2014-06-25_21-18-03_260595134347_rgbf000109-resize_3/002136_2014-06-25_21-18-03_260595134347_rgbf000109-resize_3-target.png,125,1.9569999999999999,10,2907,117,meters,jsons/VE125_randls_27_rotated.json,1216263,1980304,25,Woman
142,705900,DepthScenes,duration_manipulation_targetAtFixation,jsons/VE125_randls_27_rotated.json,http://54.235.29.9/FacialAge/BNav_EC2/DepthDuration/v2_depth_duration_MTurk/v2_DepthDuration_HTML.html#110,110,1440,789,1440,900,8-21-2022,8-38-11,143,depth_duration_stimuli/002964_2014-06-08_17-46-11_094959634447_rgbf000091-resize_4/002964_2014-06-08_17-46-11_094959634447_rgbf000091-resize_4-target.png,125,1.6909999999999998,5,3378,119,meters,jsons/VE125_randls_27_rotated.json,1216263,1980304,25,Woman
143,705900,DepthScenes,duration_manipulation_targetAtFixation,jsons/VE125_randls_27_rotated.json,http://54.235.29.9/FacialAge/BNav_EC2/DepthDuration/v2_depth_duration_MTurk/v2_DepthDuration_HTML.html#110,110,1440,789,1440,900,8-21-2022,8-38-11,144,depth_duration_stimuli/002639_2014-06-24_14-51-37_094959634447_rgbf000074-resize_4/002639_2014-06-24_14-51-37_094959634447_rgbf000074-resize_4-target.png,125,4.0375,12,3835,128,meters,jsons/VE125_randls_27_rotated.json,1216263,1980304,25,Woman
144,705900,DepthScenes,duration_manipulation_targetAtFixation,jsons/VE125_randls_27_rotated.json,http://54.235.29.9/FacialAge/BNav_EC2/DepthDuration/v2_depth_duration_MTurk/v2_DepthDuration_HTML.html#110,110,1440,789,1440,900,8-21-2022,8-38-11,145,depth_duration_stimuli/003292_2014-05-14_21-53-49_094959634447_rgbf000100-resize_2/003292_2014-05-14_21-53-49_094959634447_rgbf000100-resize_2-target.png,125,3.4815,15,2728,122,meters,jsons/VE125_randls_27_rotated.json,1216263,1980304,25,Woman
145,705900,DepthScenes,duration_manipulation_targetAtFixation,jsons/VE125_randls_27_rotated.json,http://54.235.29.9/FacialAge/BNav_EC2/DepthDuration/v2_depth_duration_MTurk/v2_DepthDuration_HTML.html#110,110,1440,789,1440,900,8-21-2022,8-38-11,146,depth_duration_stimuli/003338_2014-05-20_11-01-23_094959634447_rgbf000051-resize_6/003338_2014-05-20_11-01-23_094959634447_rgbf000051-resize_6-target.png,125,1.693,10,3851,132,meters,jsons/VE125_randls_27_rotated.json,1216263,1980304,25,Woman
146,705900,DepthScenes,duration_manipulation_targetAtFixation,jsons/VE125_randls_27_rotated.json,http://54.235.29.9/FacialAge/BNav_EC2/DepthDuration/v2_depth_duration_MTurk/v2_DepthDuration_HTML.html#110,110,1440,789,1440,900,8-21-2022,8-38-11,147,depth_duration_stimuli/002509_2014-06-24_13-19-22_094959634447_rgbf000077-resize_0/002509_2014-06-24_13-19-22_094959634447_rgbf000077-resize_0-target.png,125,1.3065,8,2959,121,meters,jsons/VE125_randls_27_rotated.json,1216263,1980304,25,Woman
147,705900,DepthScenes,duration_manipulation_targetAtFixation,jsons/VE125_randls_27_rotated.json,http://54.235.29.9/FacialAge/BNav_EC2/DepthDuration/v2_depth_duration_MTurk/v2_DepthDuration_HTML.html#110,110,1440,789,1440,900,8-21-2022,8-38-11,148,depth_duration_stimuli/000549_2014-06-08_22-10-24_260595134347_rgbf000247-resize_3/000549_2014-06-08_22-10-24_260595134347_rgbf000247-resize_3-target.png,125,1.841,0,2683,126,meters,jsons/VE125_randls_27_rotated.json,1216263,1980304,25,Woman
148,705900,DepthScenes,duration_manipulation_targetAtFixation,jsons/VE125_randls_27_rotated.json,http://54.235.29.9/FacialAge/BNav_EC2/DepthDuration/v2_depth_duration_MTurk/v2_DepthDuration_HTML.html#110,110,1440,789,1440,900,8-21-2022,8-38-11,149,depth_duration_stimuli/001055_2014-06-08_18-45-35_260595134347_rgbf000111-resize_4/001055_2014-06-08_18-45-35_260595134347_rgbf000111-resize_4-target.png,125,2.4290000000000003,6,6309,123,meters,jsons/VE125_randls_27_rotated.json,1216263,1980304,25,Woman
149,705900,DepthScenes,duration_manipulation_targetAtFixation,jsons/VE125_randls_27_rotated.json,http://54.235.29.9/FacialAge/BNav_EC2/DepthDuration/v2_depth_duration_MTurk/v2_DepthDuration_HTML.html#110,110,1440,789,1440,900,8-21-2022,8-38-11,150,depth_duration_stimuli/001052_2014-06-08_18-24-54_260595134347_rgbf000130-resize_1/001052_2014-06-08_18-24-54_260595134347_rgbf000130-resize_1-target.png,125,4.1045,12,3147,119,meters,jsons/VE125_randls_27_rotated.json,1216263,1980304,25,Woman
150,705900,DepthScenes,duration_manipulation_targetAtFixation,jsons/VE125_randls_27_rotated.json,http://54.235.29.9/FacialAge/BNav_EC2/DepthDuration/v2_depth_duration_MTurk/v2_DepthDuration_HTML.html#110,110,1440,789,1440,900,8-21-2022,8-38-11,151,depth_duration_stimuli/002988_2014-06-15_12-24-20_094959634447_rgbf000150-resize_1/002988_2014-06-15_12-24-20_094959634447_rgbf000150-resize_1-target.png,125,4.7669999999999995,5,28627,124,meters,jsons/VE125_randls_27_rotated.json,1216263,1980304,25,Woman
151,705900,DepthScenes,duration_manipulation_targetAtFixation,jsons/VE125_randls_27_rotated.json,http://54.235.29.9/FacialAge/BNav_EC2/DepthDuration/v2_depth_duration_MTurk/v2_DepthDuration_HTML.html#110,110,1440,789,1440,900,8-21-2022,8-38-11,152,depth_duration_stimuli/000569_2014-06-09_22-51-47_260595134347_rgbf000141-resize_3/000569_2014-06-09_22-51-47_260595134347_rgbf000141-resize-original.jpg,125,4.512,0,2611,125,meters,jsons/VE125_randls_27_rotated.json,1216263,1980304,25,Woman
152,705900,DepthScenes,duration_manipulation_targetAtFixation,jsons/VE125_randls_27_rotated.json,http://54.235.29.9/FacialAge/BNav_EC2/DepthDuration/v2_depth_duration_MTurk/v2_DepthDuration_HTML.html#110,110,1440,789,1440,900,8-21-2022,8-38-11,153,depth_duration_stimuli/001392_2014-06-19_16-07-59_260595134347_rgbf000046-resize_1/001392_2014-06-19_16-07-59_260595134347_rgbf000046-resize_1-target.png,125,4.135,10,3011,119,meters,jsons/VE125_randls_27_rotated.json,1216263,1980304,25,Woman
153,705900,DepthScenes,duration_manipulation_targetAtFixation,jsons/VE125_randls_27_rotated.json,http://54.235.29.9/FacialAge/BNav_EC2/DepthDuration/v2_depth_duration_MTurk/v2_DepthDuration_HTML.html#110,110,1440,789,1440,900,8-21-2022,8-38-11,154,depth_duration_stimuli/001570_2014-06-20_17-21-09_260595134347_rgbf000135-resize_4/001570_2014-06-20_17-21-09_260595134347_rgbf000135-resize_4-target.png,125,4.467,5,3490,116,meters,jsons/VE125_randls_27_rotated.json,1216263,1980304,25,Woman
154,705900,DepthScenes,duration_manipulation_targetAtFixation,jsons/VE125_randls_27_rotated.json,http://54.235.29.9/FacialAge/BNav_EC2/DepthDuration/v2_depth_duration_MTurk/v2_DepthDuration_HTML.html#110,110,1440,789,1440,900,8-21-2022,8-38-11,155,depth_duration_stimuli/001447_2014-06-19_17-00-32_260595134347_rgbf000082-resize_5/001447_2014-06-19_17-00-32_260595134347_rgbf000082-resize_5-target.png,125,4.13775,10,2434,127,meters,jsons/VE125_randls_27_rotated.json,1216263,1980304,25,Woman
155,705900,DepthScenes,duration_manipulation_targetAtFixation,jsons/VE125_randls_27_rotated.json,http://54.235.29.9/FacialAge/BNav_EC2/DepthDuration/v2_depth_duration_MTurk/v2_DepthDuration_HTML.html#110,110,1440,789,1440,900,8-21-2022,8-38-11,156,depth_duration_stimuli/000447_2014-06-08_16-15-46_260595134347_rgbf000130-resize_1/000447_2014-06-08_16-15-46_260595134347_rgbf000130-resize_1-target.png,125,4.479,5,2369,133,meters,jsons/VE125_randls_27_rotated.json,1216263,1980304,25,Woman
156,705900,DepthScenes,duration_manipulation_targetAtFixation,jsons/VE125_randls_27_rotated.json,http://54.235.29.9/FacialAge/BNav_EC2/DepthDuration/v2_depth_duration_MTurk/v2_DepthDuration_HTML.html#110,110,1440,789,1440,900,8-21-2022,8-38-11,157,depth_duration_stimuli/002340_2014-06-28_20-05-46_260595134347_rgbf000113-resize_0/002340_2014-06-28_20-05-46_260595134347_rgbf000113-resize_0-target.png,125,2.4735,15,2429,119,meters,jsons/VE125_randls_27_rotated.json,1216263,1980304,25,Woman
157,705900,DepthScenes,duration_manipulation_targetAtFixation,jsons/VE125_randls_27_rotated.json,http://54.235.29.9/FacialAge/BNav_EC2/DepthDuration/v2_depth_duration_MTurk/v2_DepthDuration_HTML.html#110,110,1440,789,1440,900,8-21-2022,8-38-11,158,depth_duration_stimuli/001016_2014-06-09_16-16-10_260595134347_rgbf000112-resize_5/001016_2014-06-09_16-16-10_260595134347_rgbf000112-resize_5-target.png,125,1.6565,8,2451,118,meters,jsons/VE125_randls_27_rotated.json,1216263,1980304,25,Woman
158,705900,DepthScenes,duration_manipulation_targetAtFixation,jsons/VE125_randls_27_rotated.json,http://54.235.29.9/FacialAge/BNav_EC2/DepthDuration/v2_depth_duration_MTurk/v2_DepthDuration_HTML.html#110,110,1440,789,1440,900,8-21-2022,8-38-11,159,depth_duration_stimuli/003490_2014-05-21_15-50-11_094959634447_rgbf000101-resize_3/003490_2014-05-21_15-50-11_094959634447_rgbf000101-resize_3-target.png,125,3.6445,5,2589,118,meters,jsons/VE125_randls_27_rotated.json,1216263,1980304,25,Woman
159,705900,DepthScenes,duration_manipulation_targetAtFixation,jsons/VE125_randls_27_rotated.json,http://54.235.29.9/FacialAge/BNav_EC2/DepthDuration/v2_depth_duration_MTurk/v2_DepthDuration_HTML.html#110,110,1440,789,1440,900,8-21-2022,8-38-11,160,depth_duration_stimuli/001175_2014-06-17_15-45-55_260595134347_rgbf000129-resize_4/001175_2014-06-17_15-45-55_260595134347_rgbf000129-resize_4-target.png,125,4.255,5,4835,132,meters,jsons/VE125_randls_27_rotated.json,1216263,1980304,25,Woman
160,705900,DepthScenes,duration_manipulation_targetAtFixation,jsons/VE125_randls_27_rotated.json,http://54.235.29.9/FacialAge/BNav_EC2/DepthDuration/v2_depth_duration_MTurk/v2_DepthDuration_HTML.html#110,110,1440,789,1440,900,8-21-2022,8-38-11,161,depth_duration_stimuli/000749_2014-06-08_21-55-06_260595134347_rgbf000070-resize_2/000749_2014-06-08_21-55-06_260595134347_rgbf000070-resize_2-target.png,125,2.331,8,3846,119,meters,jsons/VE125_randls_27_rotated.json,1216263,1980304,25,Woman
161,705900,DepthScenes,duration_manipulation_targetAtFixation,jsons/VE125_randls_27_rotated.json,http://54.235.29.9/FacialAge/BNav_EC2/DepthDuration/v2_depth_duration_MTurk/v2_DepthDuration_HTML.html#110,110,1440,789,1440,900,8-21-2022,8-38-11,162,depth_duration_stimuli/002788_2014-06-22_19-36-03_094959634447_rgbf000088-resize_2/002788_2014-06-22_19-36-03_094959634447_rgbf000088-resize_2-target.png,125,1.6465,0,3915,125,meters,jsons/VE125_randls_27_rotated.json,1216263,1980304,25,Woman
162,705900,DepthScenes,duration_manipulation_targetAtFixation,jsons/VE125_randls_27_rotated.json,http://54.235.29.9/FacialAge/BNav_EC2/DepthDuration/v2_depth_duration_MTurk/v2_DepthDuration_HTML.html#110,110,1440,789,1440,900,8-21-2022,8-38-11,163,depth_duration_stimuli/000483_2014-06-09_20-41-45_260595134347_rgbf000116-resize_4/000483_2014-06-09_20-41-45_260595134347_rgbf000116-resize_4-target.png,125,1.337,5,3467,125,meters,jsons/VE125_randls_27_rotated.json,1216263,1980304,25,Woman
163,705900,DepthScenes,duration_manipulation_targetAtFixation,jsons/VE125_randls_27_rotated.json,http://54.235.29.9/FacialAge/BNav_EC2/DepthDuration/v2_depth_duration_MTurk/v2_DepthDuration_HTML.html#110,110,1440,789,1440,900,8-21-2022,8-38-11,164,depth_duration_stimuli/000469_2014-06-09_19-42-10_260595134347_rgbf000081-resize_1/000469_2014-06-09_19-42-10_260595134347_rgbf000081-resize_1-target.png,125,1.652,0,4074,129,meters,jsons/VE125_randls_27_rotated.json,1216263,1980304,25,Woman
