,subjID,experimentName,versionName,sequenceName,url,selected_row,windowWidth,windowHeight,screenWidth,screenHeight,startDate,startTime,trial,stimulus,duration,actual_depth,depth_estimate,trial_RT,log_sceneDuration,unitSelection,seq_filepath,experimentTime,totalTime,age,gender
0,709749,DepthScenes,duration_manipulation_targetAtFixation,jsons/VE125_randls_30_rotated.json,http://54.235.29.9/FacialAge/BNav_EC2/DepthDuration/v2_depth_duration_MTurk/v2_DepthDuration_HTML.html#44,44,2133,1002,1920,1080,8-21-2022,8-47-22,1,depth_duration_stimuli/002657_2014-06-13_15-29-54_094959634447_rgbf000150-resize_1/002657_2014-06-13_15-29-54_094959634447_rgbf000150-resize_1-target.png,125,4.919,3.0,4970,123,feet,jsons/VE125_randls_30_rotated.json,505961,728261,43,Woman
1,709749,DepthScenes,duration_manipulation_targetAtFixation,jsons/VE125_randls_30_rotated.json,http://54.235.29.9/FacialAge/BNav_EC2/DepthDuration/v2_depth_duration_MTurk/v2_DepthDuration_HTML.html#44,44,2133,1002,1920,1080,8-21-2022,8-47-22,2,depth_duration_stimuli/002375_2014-06-28_20-13-44_260595134347_rgbf000032-resize_1/002375_2014-06-28_20-13-44_260595134347_rgbf000032-resize_1-target.png,125,4.0175,2.5,3811,124,feet,jsons/VE125_randls_30_rotated.json,505961,728261,43,Woman
2,709749,DepthScenes,duration_manipulation_targetAtFixation,jsons/VE125_randls_30_rotated.json,http://54.235.29.9/FacialAge/BNav_EC2/DepthDuration/v2_depth_duration_MTurk/v2_DepthDuration_HTML.html#44,44,2133,1002,1920,1080,8-21-2022,8-47-22,3,depth_duration_stimuli/000749_2014-06-08_21-55-06_260595134347_rgbf000070-resize_2/000749_2014-06-08_21-55-06_260595134347_rgbf000070-resize_2-target.png,125,2.331,4.0,3153,147,feet,jsons/VE125_randls_30_rotated.json,505961,728261,43,Woman
3,709749,DepthScenes,duration_manipulation_targetAtFixation,jsons/VE125_randls_30_rotated.json,http://54.235.29.9/FacialAge/BNav_EC2/DepthDuration/v2_depth_duration_MTurk/v2_DepthDuration_HTML.html#44,44,2133,1002,1920,1080,8-21-2022,8-47-22,4,depth_duration_stimuli/002788_2014-06-22_19-36-03_094959634447_rgbf000088-resize_2/002788_2014-06-22_19-36-03_094959634447_rgbf000088-resize_2-target.png,125,1.6465,3.7,6212,123,feet,jsons/VE125_randls_30_rotated.json,505961,728261,43,Woman
4,709749,DepthScenes,duration_manipulation_targetAtFixation,jsons/VE125_randls_30_rotated.json,http://54.235.29.9/FacialAge/BNav_EC2/DepthDuration/v2_depth_duration_MTurk/v2_DepthDuration_HTML.html#44,44,2133,1002,1920,1080,8-21-2022,8-47-22,5,depth_duration_stimuli/000502_2014-06-08_23-02-32_260595134347_rgbf000063-resize_4/000502_2014-06-08_23-02-32_260595134347_rgbf000063-resize_4-target.png,125,2.431,3.0,3757,123,feet,jsons/VE125_randls_30_rotated.json,505961,728261,43,Woman
5,709749,DepthScenes,duration_manipulation_targetAtFixation,jsons/VE125_randls_30_rotated.json,http://54.235.29.9/FacialAge/BNav_EC2/DepthDuration/v2_depth_duration_MTurk/v2_DepthDuration_HTML.html#44,44,2133,1002,1920,1080,8-21-2022,8-47-22,6,depth_duration_stimuli/001199_2014-06-17_16-03-48_260595134347_rgbf000077-resize_0/001199_2014-06-17_16-03-48_260595134347_rgbf000077-resize_0-target.png,125,3.4375,5.0,3162,123,feet,jsons/VE125_randls_30_rotated.json,505961,728261,43,Woman
6,709749,DepthScenes,duration_manipulation_targetAtFixation,jsons/VE125_randls_30_rotated.json,http://54.235.29.9/FacialAge/BNav_EC2/DepthDuration/v2_depth_duration_MTurk/v2_DepthDuration_HTML.html#44,44,2133,1002,1920,1080,8-21-2022,8-47-22,7,depth_duration_stimuli/002953_2014-06-08_17-32-18_094959634447_rgbf000059-resize_5/002953_2014-06-08_17-32-18_094959634447_rgbf000059-resize_5-target.png,125,1.551,2.0,3136,124,feet,jsons/VE125_randls_30_rotated.json,505961,728261,43,Woman
7,709749,DepthScenes,duration_manipulation_targetAtFixation,jsons/VE125_randls_30_rotated.json,http://54.235.29.9/FacialAge/BNav_EC2/DepthDuration/v2_depth_duration_MTurk/v2_DepthDuration_HTML.html#44,44,2133,1002,1920,1080,8-21-2022,8-47-22,8,depth_duration_stimuli/000878_2014-06-08_22-52-45_260595134347_rgbf000045-resize_2/000878_2014-06-08_22-52-45_260595134347_rgbf000045-resize_2-target.png,125,2.092,5.0,7530,124,feet,jsons/VE125_randls_30_rotated.json,505961,728261,43,Woman
8,709749,DepthScenes,duration_manipulation_targetAtFixation,jsons/VE125_randls_30_rotated.json,http://54.235.29.9/FacialAge/BNav_EC2/DepthDuration/v2_depth_duration_MTurk/v2_DepthDuration_HTML.html#44,44,2133,1002,1920,1080,8-21-2022,8-47-22,9,depth_duration_stimuli/000927_2014-06-09_16-32-30_260595134347_rgbf000123-resize_3/000927_2014-06-09_16-32-30_260595134347_rgbf000123-resize_3-target.png,125,2.6785,5.0,2725,125,feet,jsons/VE125_randls_30_rotated.json,505961,728261,43,Woman
9,709749,DepthScenes,duration_manipulation_targetAtFixation,jsons/VE125_randls_30_rotated.json,http://54.235.29.9/FacialAge/BNav_EC2/DepthDuration/v2_depth_duration_MTurk/v2_DepthDuration_HTML.html#44,44,2133,1002,1920,1080,8-21-2022,8-47-22,10,depth_duration_stimuli/001110_2014-06-15_17-25-28_260595134347_rgbf000150-resize_1/001110_2014-06-15_17-25-28_260595134347_rgbf000150-resize_1-target.png,125,1.7115,3.0,2443,121,feet,jsons/VE125_randls_30_rotated.json,505961,728261,43,Woman
10,709749,DepthScenes,duration_manipulation_targetAtFixation,jsons/VE125_randls_30_rotated.json,http://54.235.29.9/FacialAge/BNav_EC2/DepthDuration/v2_depth_duration_MTurk/v2_DepthDuration_HTML.html#44,44,2133,1002,1920,1080,8-21-2022,8-47-22,11,depth_duration_stimuli/002949_2014-06-26_15-57-42_094959634447_rgbf000079-resize_1/002949_2014-06-26_15-57-42_094959634447_rgbf000079-resize_1-target.png,125,1.8915,2.0,2932,125,feet,jsons/VE125_randls_30_rotated.json,505961,728261,43,Woman
11,709749,DepthScenes,duration_manipulation_targetAtFixation,jsons/VE125_randls_30_rotated.json,http://54.235.29.9/FacialAge/BNav_EC2/DepthDuration/v2_depth_duration_MTurk/v2_DepthDuration_HTML.html#44,44,2133,1002,1920,1080,8-21-2022,8-47-22,12,depth_duration_stimuli/000522_2014-06-08_13-35-06_260595134347_rgbf000244-resize_1/000522_2014-06-08_13-35-06_260595134347_rgbf000244-resize_1-target.png,125,2.3715,4.0,2943,125,feet,jsons/VE125_randls_30_rotated.json,505961,728261,43,Woman
12,709749,DepthScenes,duration_manipulation_targetAtFixation,jsons/VE125_randls_30_rotated.json,http://54.235.29.9/FacialAge/BNav_EC2/DepthDuration/v2_depth_duration_MTurk/v2_DepthDuration_HTML.html#44,44,2133,1002,1920,1080,8-21-2022,8-47-22,13,depth_duration_stimuli/002805_2014-06-22_19-54-03_094959634447_rgbf000079-resize_1/002805_2014-06-22_19-54-03_094959634447_rgbf000079-resize_1-target.png,125,3.1439999999999997,5.0,3001,125,feet,jsons/VE125_randls_30_rotated.json,505961,728261,43,Woman
13,709749,DepthScenes,duration_manipulation_targetAtFixation,jsons/VE125_randls_30_rotated.json,http://54.235.29.9/FacialAge/BNav_EC2/DepthDuration/v2_depth_duration_MTurk/v2_DepthDuration_HTML.html#44,44,2133,1002,1920,1080,8-21-2022,8-47-22,14,depth_duration_stimuli/000906_2014-06-08_13-35-43_260595134347_rgbf000155-resize_1/000906_2014-06-08_13-35-43_260595134347_rgbf000155-resize_1-target.png,125,2.8489999999999998,5.0,2455,124,feet,jsons/VE125_randls_30_rotated.json,505961,728261,43,Woman
14,709749,DepthScenes,duration_manipulation_targetAtFixation,jsons/VE125_randls_30_rotated.json,http://54.235.29.9/FacialAge/BNav_EC2/DepthDuration/v2_depth_duration_MTurk/v2_DepthDuration_HTML.html#44,44,2133,1002,1920,1080,8-21-2022,8-47-22,15,depth_duration_stimuli/000677_2014-06-08_23-10-32_260595134347_rgbf000158-resize_6/000677_2014-06-08_23-10-32_260595134347_rgbf000158-resize_6-target.png,125,3.556,4.0,3793,124,feet,jsons/VE125_randls_30_rotated.json,505961,728261,43,Woman
15,709749,DepthScenes,duration_manipulation_targetAtFixation,jsons/VE125_randls_30_rotated.json,http://54.235.29.9/FacialAge/BNav_EC2/DepthDuration/v2_depth_duration_MTurk/v2_DepthDuration_HTML.html#44,44,2133,1002,1920,1080,8-21-2022,8-47-22,16,depth_duration_stimuli/001029_2014-06-08_13-17-57_260595134347_rgbf000065-resize_1/001029_2014-06-08_13-17-57_260595134347_rgbf000065-resize_1-target.png,125,3.0835,5.5,3115,122,feet,jsons/VE125_randls_30_rotated.json,505961,728261,43,Woman
16,709749,DepthScenes,duration_manipulation_targetAtFixation,jsons/VE125_randls_30_rotated.json,http://54.235.29.9/FacialAge/BNav_EC2/DepthDuration/v2_depth_duration_MTurk/v2_DepthDuration_HTML.html#44,44,2133,1002,1920,1080,8-21-2022,8-47-22,17,depth_duration_stimuli/002414_2014-06-28_20-24-58_260595134347_rgbf000067-resize_4/002414_2014-06-28_20-24-58_260595134347_rgbf000067-resize_4-target.png,125,4.363,3.8,4309,125,feet,jsons/VE125_randls_30_rotated.json,505961,728261,43,Woman
17,709749,DepthScenes,duration_manipulation_targetAtFixation,jsons/VE125_randls_30_rotated.json,http://54.235.29.9/FacialAge/BNav_EC2/DepthDuration/v2_depth_duration_MTurk/v2_DepthDuration_HTML.html#44,44,2133,1002,1920,1080,8-21-2022,8-47-22,18,depth_duration_stimuli/000773_2014-06-08_22-24-54_260595134347_rgbf000093-resize_1/000773_2014-06-08_22-24-54_260595134347_rgbf000093-resize_1-target.png,125,4.973,3.5,4755,125,feet,jsons/VE125_randls_30_rotated.json,505961,728261,43,Woman
18,709749,DepthScenes,duration_manipulation_targetAtFixation,jsons/VE125_randls_30_rotated.json,http://54.235.29.9/FacialAge/BNav_EC2/DepthDuration/v2_depth_duration_MTurk/v2_DepthDuration_HTML.html#44,44,2133,1002,1920,1080,8-21-2022,8-47-22,19,depth_duration_stimuli/001498_2014-06-19_17-45-14_260595134347_rgbf000129-resize_4/001498_2014-06-19_17-45-14_260595134347_rgbf000129-resize-original.jpg,125,1.4075,0.0,3200,124,feet,jsons/VE125_randls_30_rotated.json,505961,728261,43,Woman
19,709749,DepthScenes,duration_manipulation_targetAtFixation,jsons/VE125_randls_30_rotated.json,http://54.235.29.9/FacialAge/BNav_EC2/DepthDuration/v2_depth_duration_MTurk/v2_DepthDuration_HTML.html#44,44,2133,1002,1920,1080,8-21-2022,8-47-22,20,depth_duration_stimuli/002323_2014-06-28_20-01-54_260595134347_rgbf000051-resize_4/002323_2014-06-28_20-01-54_260595134347_rgbf000051-resize_4-target.png,125,3.7310000000000003,4.0,2880,125,feet,jsons/VE125_randls_30_rotated.json,505961,728261,43,Woman
20,709749,DepthScenes,duration_manipulation_targetAtFixation,jsons/VE125_randls_30_rotated.json,http://54.235.29.9/FacialAge/BNav_EC2/DepthDuration/v2_depth_duration_MTurk/v2_DepthDuration_HTML.html#44,44,2133,1002,1920,1080,8-21-2022,8-47-22,21,depth_duration_stimuli/000917_2014-06-09_22-45-29_260595134347_rgbf000149-resize_3/000917_2014-06-09_22-45-29_260595134347_rgbf000149-resize_3-target.png,125,4.1865,4.5,3089,124,feet,jsons/VE125_randls_30_rotated.json,505961,728261,43,Woman
21,709749,DepthScenes,duration_manipulation_targetAtFixation,jsons/VE125_randls_30_rotated.json,http://54.235.29.9/FacialAge/BNav_EC2/DepthDuration/v2_depth_duration_MTurk/v2_DepthDuration_HTML.html#44,44,2133,1002,1920,1080,8-21-2022,8-47-22,22,depth_duration_stimuli/000409_2014-06-04_19-23-33_260595134347_rgbf000067-resize_0/000409_2014-06-04_19-23-33_260595134347_rgbf000067-resize_0-target.png,125,3.7335,3.0,3015,124,feet,jsons/VE125_randls_30_rotated.json,505961,728261,43,Woman
22,709749,DepthScenes,duration_manipulation_targetAtFixation,jsons/VE125_randls_30_rotated.json,http://54.235.29.9/FacialAge/BNav_EC2/DepthDuration/v2_depth_duration_MTurk/v2_DepthDuration_HTML.html#44,44,2133,1002,1920,1080,8-21-2022,8-47-22,23,depth_duration_stimuli/002663_2014-06-13_15-50-26_094959634447_rgbf000075-resize_1/002663_2014-06-13_15-50-26_094959634447_rgbf000075-resize_1-target.png,125,4.7495,4.0,2616,123,feet,jsons/VE125_randls_30_rotated.json,505961,728261,43,Woman
23,709749,DepthScenes,duration_manipulation_targetAtFixation,jsons/VE125_randls_30_rotated.json,http://54.235.29.9/FacialAge/BNav_EC2/DepthDuration/v2_depth_duration_MTurk/v2_DepthDuration_HTML.html#44,44,2133,1002,1920,1080,8-21-2022,8-47-22,24,depth_duration_stimuli/003495_2014-05-21_16-01-51_094959634447_rgbf000100-resize_3/003495_2014-05-21_16-01-51_094959634447_rgbf000100-resize_3-target.png,125,1.6255,2.5,2837,126,feet,jsons/VE125_randls_30_rotated.json,505961,728261,43,Woman
24,709749,DepthScenes,duration_manipulation_targetAtFixation,jsons/VE125_randls_30_rotated.json,http://54.235.29.9/FacialAge/BNav_EC2/DepthDuration/v2_depth_duration_MTurk/v2_DepthDuration_HTML.html#44,44,2133,1002,1920,1080,8-21-2022,8-47-22,25,depth_duration_stimuli/001244_2014-06-17_16-47-45_260595134347_rgbf000030-resize_4/001244_2014-06-17_16-47-45_260595134347_rgbf000030-resize_4-target.png,125,2.0425,3.5,3773,128,feet,jsons/VE125_randls_30_rotated.json,505961,728261,43,Woman
25,709749,DepthScenes,duration_manipulation_targetAtFixation,jsons/VE125_randls_30_rotated.json,http://54.235.29.9/FacialAge/BNav_EC2/DepthDuration/v2_depth_duration_MTurk/v2_DepthDuration_HTML.html#44,44,2133,1002,1920,1080,8-21-2022,8-47-22,26,depth_duration_stimuli/003228_2014-05-14_13-42-35_094959634447_rgbf000101-resize_1/003228_2014-05-14_13-42-35_094959634447_rgbf000101-resize_1-target.png,125,1.9680000000000002,3.0,2982,123,feet,jsons/VE125_randls_30_rotated.json,505961,728261,43,Woman
26,709749,DepthScenes,duration_manipulation_targetAtFixation,jsons/VE125_randls_30_rotated.json,http://54.235.29.9/FacialAge/BNav_EC2/DepthDuration/v2_depth_duration_MTurk/v2_DepthDuration_HTML.html#44,44,2133,1002,1920,1080,8-21-2022,8-47-22,27,depth_duration_stimuli/002600_2014-06-24_14-27-04_094959634447_rgbf000074-resize_2/002600_2014-06-24_14-27-04_094959634447_rgbf000074-resize_2-target.png,125,2.7575,3.0,2132,123,feet,jsons/VE125_randls_30_rotated.json,505961,728261,43,Woman
27,709749,DepthScenes,duration_manipulation_targetAtFixation,jsons/VE125_randls_30_rotated.json,http://54.235.29.9/FacialAge/BNav_EC2/DepthDuration/v2_depth_duration_MTurk/v2_DepthDuration_HTML.html#44,44,2133,1002,1920,1080,8-21-2022,8-47-22,28,depth_duration_stimuli/002545_2014-06-24_13-38-53_094959634447_rgbf000080-resize_4/002545_2014-06-24_13-38-53_094959634447_rgbf000080-resize_4-target.png,125,1.9205,4.0,2151,125,feet,jsons/VE125_randls_30_rotated.json,505961,728261,43,Woman
28,709749,DepthScenes,duration_manipulation_targetAtFixation,jsons/VE125_randls_30_rotated.json,http://54.235.29.9/FacialAge/BNav_EC2/DepthDuration/v2_depth_duration_MTurk/v2_DepthDuration_HTML.html#44,44,2133,1002,1920,1080,8-21-2022,8-47-22,29,depth_duration_stimuli/001092_2014-06-15_17-34-58_260595134347_rgbf000171-resize_3/001092_2014-06-15_17-34-58_260595134347_rgbf000171-resize_3-target.png,125,2.6935,3.0,2437,125,feet,jsons/VE125_randls_30_rotated.json,505961,728261,43,Woman
29,709749,DepthScenes,duration_manipulation_targetAtFixation,jsons/VE125_randls_30_rotated.json,http://54.235.29.9/FacialAge/BNav_EC2/DepthDuration/v2_depth_duration_MTurk/v2_DepthDuration_HTML.html#44,44,2133,1002,1920,1080,8-21-2022,8-47-22,30,depth_duration_stimuli/002072_2014-06-24_21-48-06_260595134347_rgbf000115-resize_0/002072_2014-06-24_21-48-06_260595134347_rgbf000115-resize-original.jpg,125,4.702,0.0,2375,124,feet,jsons/VE125_randls_30_rotated.json,505961,728261,43,Woman
30,709749,DepthScenes,duration_manipulation_targetAtFixation,jsons/VE125_randls_30_rotated.json,http://54.235.29.9/FacialAge/BNav_EC2/DepthDuration/v2_depth_duration_MTurk/v2_DepthDuration_HTML.html#44,44,2133,1002,1920,1080,8-21-2022,8-47-22,31,depth_duration_stimuli/000457_2014-06-08_16-52-43_260595134347_rgbf000199-resize_1/000457_2014-06-08_16-52-43_260595134347_rgbf000199-resize_1-target.png,125,3.6489999999999996,4.0,2901,124,feet,jsons/VE125_randls_30_rotated.json,505961,728261,43,Woman
31,709749,DepthScenes,duration_manipulation_targetAtFixation,jsons/VE125_randls_30_rotated.json,http://54.235.29.9/FacialAge/BNav_EC2/DepthDuration/v2_depth_duration_MTurk/v2_DepthDuration_HTML.html#44,44,2133,1002,1920,1080,8-21-2022,8-47-22,32,depth_duration_stimuli/000929_2014-06-09_16-33-19_260595134347_rgbf000139-resize_0/000929_2014-06-09_16-33-19_260595134347_rgbf000139-resize_0-target.png,125,2.8680000000000003,4.0,2934,124,feet,jsons/VE125_randls_30_rotated.json,505961,728261,43,Woman
32,709749,DepthScenes,duration_manipulation_targetAtFixation,jsons/VE125_randls_30_rotated.json,http://54.235.29.9/FacialAge/BNav_EC2/DepthDuration/v2_depth_duration_MTurk/v2_DepthDuration_HTML.html#44,44,2133,1002,1920,1080,8-21-2022,8-47-22,33,depth_duration_stimuli/003048_2014-06-15_13-49-43_094959634447_rgbf000150-resize_1/003048_2014-06-15_13-49-43_094959634447_rgbf000150-resize_1-target.png,125,4.0035,5.0,2880,124,feet,jsons/VE125_randls_30_rotated.json,505961,728261,43,Woman
33,709749,DepthScenes,duration_manipulation_targetAtFixation,jsons/VE125_randls_30_rotated.json,http://54.235.29.9/FacialAge/BNav_EC2/DepthDuration/v2_depth_duration_MTurk/v2_DepthDuration_HTML.html#44,44,2133,1002,1920,1080,8-21-2022,8-47-22,34,depth_duration_stimuli/002043_2014-06-24_20-29-38_260595134347_rgbf000039-resize_4/002043_2014-06-24_20-29-38_260595134347_rgbf000039-resize_4-target.png,125,2.8435,4.0,2038,122,feet,jsons/VE125_randls_30_rotated.json,505961,728261,43,Woman
34,709749,DepthScenes,duration_manipulation_targetAtFixation,jsons/VE125_randls_30_rotated.json,http://54.235.29.9/FacialAge/BNav_EC2/DepthDuration/v2_depth_duration_MTurk/v2_DepthDuration_HTML.html#44,44,2133,1002,1920,1080,8-21-2022,8-47-22,35,depth_duration_stimuli/002637_2014-06-24_14-51-13_094959634447_rgbf000066-resize_4/002637_2014-06-24_14-51-13_094959634447_rgbf000066-resize_4-target.png,125,1.9955,4.0,1821,125,feet,jsons/VE125_randls_30_rotated.json,505961,728261,43,Woman
35,709749,DepthScenes,duration_manipulation_targetAtFixation,jsons/VE125_randls_30_rotated.json,http://54.235.29.9/FacialAge/BNav_EC2/DepthDuration/v2_depth_duration_MTurk/v2_DepthDuration_HTML.html#44,44,2133,1002,1920,1080,8-21-2022,8-47-22,36,depth_duration_stimuli/003534_2014-05-22_15-06-10_094959634447_rgbf000102-resize_4/003534_2014-05-22_15-06-10_094959634447_rgbf000102-resize_4-target.png,125,1.426,1.0,4764,125,feet,jsons/VE125_randls_30_rotated.json,505961,728261,43,Woman
36,709749,DepthScenes,duration_manipulation_targetAtFixation,jsons/VE125_randls_30_rotated.json,http://54.235.29.9/FacialAge/BNav_EC2/DepthDuration/v2_depth_duration_MTurk/v2_DepthDuration_HTML.html#44,44,2133,1002,1920,1080,8-21-2022,8-47-22,37,depth_duration_stimuli/003423_2014-05-21_10-23-26_094959634447_rgbf002665-resize_2/003423_2014-05-21_10-23-26_094959634447_rgbf002665-resize_2-target.png,125,3.2575,1.0,2627,125,feet,jsons/VE125_randls_30_rotated.json,505961,728261,43,Woman
37,709749,DepthScenes,duration_manipulation_targetAtFixation,jsons/VE125_randls_30_rotated.json,http://54.235.29.9/FacialAge/BNav_EC2/DepthDuration/v2_depth_duration_MTurk/v2_DepthDuration_HTML.html#44,44,2133,1002,1920,1080,8-21-2022,8-47-22,38,depth_duration_stimuli/002905_2014-06-03_18-04-43_094959634447_rgbf000151-resize_2/002905_2014-06-03_18-04-43_094959634447_rgbf000151-resize_2-target.png,125,2.0295,3.0,2220,124,feet,jsons/VE125_randls_30_rotated.json,505961,728261,43,Woman
38,709749,DepthScenes,duration_manipulation_targetAtFixation,jsons/VE125_randls_30_rotated.json,http://54.235.29.9/FacialAge/BNav_EC2/DepthDuration/v2_depth_duration_MTurk/v2_DepthDuration_HTML.html#44,44,2133,1002,1920,1080,8-21-2022,8-47-22,39,depth_duration_stimuli/002568_2014-06-24_13-59-21_094959634447_rgbf000062-resize_4/002568_2014-06-24_13-59-21_094959634447_rgbf000062-resize_4-target.png,125,3.015,4.0,2287,126,feet,jsons/VE125_randls_30_rotated.json,505961,728261,43,Woman
39,709749,DepthScenes,duration_manipulation_targetAtFixation,jsons/VE125_randls_30_rotated.json,http://54.235.29.9/FacialAge/BNav_EC2/DepthDuration/v2_depth_duration_MTurk/v2_DepthDuration_HTML.html#44,44,2133,1002,1920,1080,8-21-2022,8-47-22,40,depth_duration_stimuli/003492_2014-05-21_15-50-55_094959634447_rgbf000828-resize_1/003492_2014-05-21_15-50-55_094959634447_rgbf000828-resize_1-target.png,125,4.06875,4.0,2376,125,feet,jsons/VE125_randls_30_rotated.json,505961,728261,43,Woman
40,709749,DepthScenes,duration_manipulation_targetAtFixation,jsons/VE125_randls_30_rotated.json,http://54.235.29.9/FacialAge/BNav_EC2/DepthDuration/v2_depth_duration_MTurk/v2_DepthDuration_HTML.html#44,44,2133,1002,1920,1080,8-21-2022,8-47-22,41,depth_duration_stimuli/001815_2014-06-26_20-52-55_260595134347_rgbf000020-resize_0/001815_2014-06-26_20-52-55_260595134347_rgbf000020-resize_0-target.png,125,3.3865,6.0,2740,123,feet,jsons/VE125_randls_30_rotated.json,505961,728261,43,Woman
41,709749,DepthScenes,duration_manipulation_targetAtFixation,jsons/VE125_randls_30_rotated.json,http://54.235.29.9/FacialAge/BNav_EC2/DepthDuration/v2_depth_duration_MTurk/v2_DepthDuration_HTML.html#44,44,2133,1002,1920,1080,8-21-2022,8-47-22,42,depth_duration_stimuli/001808_2014-06-26_20-50-58_260595134347_rgbf000029-resize_1/001808_2014-06-26_20-50-58_260595134347_rgbf000029-resize_1-target.png,125,4.249,4.0,3236,123,feet,jsons/VE125_randls_30_rotated.json,505961,728261,43,Woman
42,709749,DepthScenes,duration_manipulation_targetAtFixation,jsons/VE125_randls_30_rotated.json,http://54.235.29.9/FacialAge/BNav_EC2/DepthDuration/v2_depth_duration_MTurk/v2_DepthDuration_HTML.html#44,44,2133,1002,1920,1080,8-21-2022,8-47-22,43,depth_duration_stimuli/001447_2014-06-19_17-00-32_260595134347_rgbf000082-resize_5/001447_2014-06-19_17-00-32_260595134347_rgbf000082-resize_5-target.png,125,4.13775,4.0,4375,125,feet,jsons/VE125_randls_30_rotated.json,505961,728261,43,Woman
43,709749,DepthScenes,duration_manipulation_targetAtFixation,jsons/VE125_randls_30_rotated.json,http://54.235.29.9/FacialAge/BNav_EC2/DepthDuration/v2_depth_duration_MTurk/v2_DepthDuration_HTML.html#44,44,2133,1002,1920,1080,8-21-2022,8-47-22,44,depth_duration_stimuli/000447_2014-06-08_16-15-46_260595134347_rgbf000130-resize_1/000447_2014-06-08_16-15-46_260595134347_rgbf000130-resize_1-target.png,125,4.479,5.0,2438,124,feet,jsons/VE125_randls_30_rotated.json,505961,728261,43,Woman
44,709749,DepthScenes,duration_manipulation_targetAtFixation,jsons/VE125_randls_30_rotated.json,http://54.235.29.9/FacialAge/BNav_EC2/DepthDuration/v2_depth_duration_MTurk/v2_DepthDuration_HTML.html#44,44,2133,1002,1920,1080,8-21-2022,8-47-22,45,depth_duration_stimuli/000483_2014-06-09_20-41-45_260595134347_rgbf000116-resize_4/000483_2014-06-09_20-41-45_260595134347_rgbf000116-resize_4-target.png,125,1.337,5.0,2435,125,feet,jsons/VE125_randls_30_rotated.json,505961,728261,43,Woman
45,709749,DepthScenes,duration_manipulation_targetAtFixation,jsons/VE125_randls_30_rotated.json,http://54.235.29.9/FacialAge/BNav_EC2/DepthDuration/v2_depth_duration_MTurk/v2_DepthDuration_HTML.html#44,44,2133,1002,1920,1080,8-21-2022,8-47-22,46,depth_duration_stimuli/000469_2014-06-09_19-42-10_260595134347_rgbf000081-resize_1/000469_2014-06-09_19-42-10_260595134347_rgbf000081-resize_1-target.png,125,1.652,4.0,2448,125,feet,jsons/VE125_randls_30_rotated.json,505961,728261,43,Woman
46,709749,DepthScenes,duration_manipulation_targetAtFixation,jsons/VE125_randls_30_rotated.json,http://54.235.29.9/FacialAge/BNav_EC2/DepthDuration/v2_depth_duration_MTurk/v2_DepthDuration_HTML.html#44,44,2133,1002,1920,1080,8-21-2022,8-47-22,47,depth_duration_stimuli/002995_2014-06-15_12-31-26_094959634447_rgbf000150-resize_1/002995_2014-06-15_12-31-26_094959634447_rgbf000150-resize_1-target.png,125,3.8360000000000003,4.0,1951,124,feet,jsons/VE125_randls_30_rotated.json,505961,728261,43,Woman
47,709749,DepthScenes,duration_manipulation_targetAtFixation,jsons/VE125_randls_30_rotated.json,http://54.235.29.9/FacialAge/BNav_EC2/DepthDuration/v2_depth_duration_MTurk/v2_DepthDuration_HTML.html#44,44,2133,1002,1920,1080,8-21-2022,8-47-22,48,depth_duration_stimuli/002748_2014-06-22_19-07-22_094959634447_rgbf000078-resize_1/002748_2014-06-22_19-07-22_094959634447_rgbf000078-resize_1-target.png,125,4.6705,5.0,2183,125,feet,jsons/VE125_randls_30_rotated.json,505961,728261,43,Woman
48,709749,DepthScenes,duration_manipulation_targetAtFixation,jsons/VE125_randls_30_rotated.json,http://54.235.29.9/FacialAge/BNav_EC2/DepthDuration/v2_depth_duration_MTurk/v2_DepthDuration_HTML.html#44,44,2133,1002,1920,1080,8-21-2022,8-47-22,49,depth_duration_stimuli/001170_2014-06-17_15-43-44_260595134347_rgbf000096-resize_6/001170_2014-06-17_15-43-44_260595134347_rgbf000096-resize-original.jpg,125,1.1909999999999998,0.0,3256,126,feet,jsons/VE125_randls_30_rotated.json,505961,728261,43,Woman
49,709749,DepthScenes,duration_manipulation_targetAtFixation,jsons/VE125_randls_30_rotated.json,http://54.235.29.9/FacialAge/BNav_EC2/DepthDuration/v2_depth_duration_MTurk/v2_DepthDuration_HTML.html#44,44,2133,1002,1920,1080,8-21-2022,8-47-22,50,depth_duration_stimuli/001392_2014-06-19_16-07-59_260595134347_rgbf000046-resize_1/001392_2014-06-19_16-07-59_260595134347_rgbf000046-resize_1-target.png,125,4.135,7.0,3636,124,feet,jsons/VE125_randls_30_rotated.json,505961,728261,43,Woman
50,709749,DepthScenes,duration_manipulation_targetAtFixation,jsons/VE125_randls_30_rotated.json,http://54.235.29.9/FacialAge/BNav_EC2/DepthDuration/v2_depth_duration_MTurk/v2_DepthDuration_HTML.html#44,44,2133,1002,1920,1080,8-21-2022,8-47-22,51,depth_duration_stimuli/001570_2014-06-20_17-21-09_260595134347_rgbf000135-resize_4/001570_2014-06-20_17-21-09_260595134347_rgbf000135-resize_4-target.png,125,4.467,4.0,2554,125,feet,jsons/VE125_randls_30_rotated.json,505961,728261,43,Woman
51,709749,DepthScenes,duration_manipulation_targetAtFixation,jsons/VE125_randls_30_rotated.json,http://54.235.29.9/FacialAge/BNav_EC2/DepthDuration/v2_depth_duration_MTurk/v2_DepthDuration_HTML.html#44,44,2133,1002,1920,1080,8-21-2022,8-47-22,52,depth_duration_stimuli/000742_2014-06-08_18-48-09_260595134347_rgbf000164-resize_4/000742_2014-06-08_18-48-09_260595134347_rgbf000164-resize_4-target.png,125,4.632,4.0,2031,124,feet,jsons/VE125_randls_30_rotated.json,505961,728261,43,Woman
52,709749,DepthScenes,duration_manipulation_targetAtFixation,jsons/VE125_randls_30_rotated.json,http://54.235.29.9/FacialAge/BNav_EC2/DepthDuration/v2_depth_duration_MTurk/v2_DepthDuration_HTML.html#44,44,2133,1002,1920,1080,8-21-2022,8-47-22,53,depth_duration_stimuli/001066_2014-06-08_22-03-20_260595134347_rgbf000066-resize_4/001066_2014-06-08_22-03-20_260595134347_rgbf000066-resize_4-target.png,125,4.2330000000000005,5.0,1832,124,feet,jsons/VE125_randls_30_rotated.json,505961,728261,43,Woman
53,709749,DepthScenes,duration_manipulation_targetAtFixation,jsons/VE125_randls_30_rotated.json,http://54.235.29.9/FacialAge/BNav_EC2/DepthDuration/v2_depth_duration_MTurk/v2_DepthDuration_HTML.html#44,44,2133,1002,1920,1080,8-21-2022,8-47-22,54,depth_duration_stimuli/003081_2014-06-15_15-19-16_094959634447_rgbf000150-resize_1/003081_2014-06-15_15-19-16_094959634447_rgbf000150-resize_1-target.png,125,3.9125,5.0,1628,124,feet,jsons/VE125_randls_30_rotated.json,505961,728261,43,Woman
54,709749,DepthScenes,duration_manipulation_targetAtFixation,jsons/VE125_randls_30_rotated.json,http://54.235.29.9/FacialAge/BNav_EC2/DepthDuration/v2_depth_duration_MTurk/v2_DepthDuration_HTML.html#44,44,2133,1002,1920,1080,8-21-2022,8-47-22,55,depth_duration_stimuli/001417_2014-06-19_16-25-36_260595134347_rgbf000115-resize_5/001417_2014-06-19_16-25-36_260595134347_rgbf000115-resize_5-target.png,125,4.6255,3.0,2888,123,feet,jsons/VE125_randls_30_rotated.json,505961,728261,43,Woman
55,709749,DepthScenes,duration_manipulation_targetAtFixation,jsons/VE125_randls_30_rotated.json,http://54.235.29.9/FacialAge/BNav_EC2/DepthDuration/v2_depth_duration_MTurk/v2_DepthDuration_HTML.html#44,44,2133,1002,1920,1080,8-21-2022,8-47-22,56,depth_duration_stimuli/000866_2014-06-09_20-45-42_260595134347_rgbf000139-resize_1/000866_2014-06-09_20-45-42_260595134347_rgbf000139-resize_1-target.png,125,3.2155,5.0,2009,124,feet,jsons/VE125_randls_30_rotated.json,505961,728261,43,Woman
56,709749,DepthScenes,duration_manipulation_targetAtFixation,jsons/VE125_randls_30_rotated.json,http://54.235.29.9/FacialAge/BNav_EC2/DepthDuration/v2_depth_duration_MTurk/v2_DepthDuration_HTML.html#44,44,2133,1002,1920,1080,8-21-2022,8-47-22,57,depth_duration_stimuli/002989_2014-06-15_12-25-03_094959634447_rgbf000150-resize_3/002989_2014-06-15_12-25-03_094959634447_rgbf000150-resize_3-target.png,125,4.1975,5.0,1746,124,feet,jsons/VE125_randls_30_rotated.json,505961,728261,43,Woman
57,709749,DepthScenes,duration_manipulation_targetAtFixation,jsons/VE125_randls_30_rotated.json,http://54.235.29.9/FacialAge/BNav_EC2/DepthDuration/v2_depth_duration_MTurk/v2_DepthDuration_HTML.html#44,44,2133,1002,1920,1080,8-21-2022,8-47-22,58,depth_duration_stimuli/001450_2014-06-19_17-02-03_260595134347_rgbf000203-resize_4/001450_2014-06-19_17-02-03_260595134347_rgbf000203-resize_4-target.png,125,4.0106666666667,4.0,1806,125,feet,jsons/VE125_randls_30_rotated.json,505961,728261,43,Woman
58,709749,DepthScenes,duration_manipulation_targetAtFixation,jsons/VE125_randls_30_rotated.json,http://54.235.29.9/FacialAge/BNav_EC2/DepthDuration/v2_depth_duration_MTurk/v2_DepthDuration_HTML.html#44,44,2133,1002,1920,1080,8-21-2022,8-47-22,59,depth_duration_stimuli/001449_2014-06-19_17-01-27_260595134347_rgbf000116-resize_2/001449_2014-06-19_17-01-27_260595134347_rgbf000116-resize_2-target.png,125,3.452,4.0,1668,125,feet,jsons/VE125_randls_30_rotated.json,505961,728261,43,Woman
59,709749,DepthScenes,duration_manipulation_targetAtFixation,jsons/VE125_randls_30_rotated.json,http://54.235.29.9/FacialAge/BNav_EC2/DepthDuration/v2_depth_duration_MTurk/v2_DepthDuration_HTML.html#44,44,2133,1002,1920,1080,8-21-2022,8-47-22,60,depth_duration_stimuli/001214_2014-06-17_16-13-55_260595134347_rgbf000111-resize_0/001214_2014-06-17_16-13-55_260595134347_rgbf000111-resize_0-target.png,125,2.6505,2.0,3402,123,feet,jsons/VE125_randls_30_rotated.json,505961,728261,43,Woman
60,709749,DepthScenes,duration_manipulation_targetAtFixation,jsons/VE125_randls_30_rotated.json,http://54.235.29.9/FacialAge/BNav_EC2/DepthDuration/v2_depth_duration_MTurk/v2_DepthDuration_HTML.html#44,44,2133,1002,1920,1080,8-21-2022,8-47-22,61,depth_duration_stimuli/000810_2014-06-08_17-20-01_260595134347_rgbf000105-resize_0/000810_2014-06-08_17-20-01_260595134347_rgbf000105-resize_0-target.png,125,1.4865,2.0,2445,125,feet,jsons/VE125_randls_30_rotated.json,505961,728261,43,Woman
61,709749,DepthScenes,duration_manipulation_targetAtFixation,jsons/VE125_randls_30_rotated.json,http://54.235.29.9/FacialAge/BNav_EC2/DepthDuration/v2_depth_duration_MTurk/v2_DepthDuration_HTML.html#44,44,2133,1002,1920,1080,8-21-2022,8-47-22,62,depth_duration_stimuli/002750_2014-06-22_19-08-03_094959634447_rgbf000094-resize_4/002750_2014-06-22_19-08-03_094959634447_rgbf000094-resize_4-target.png,125,2.354,4.0,2562,125,feet,jsons/VE125_randls_30_rotated.json,505961,728261,43,Woman
62,709749,DepthScenes,duration_manipulation_targetAtFixation,jsons/VE125_randls_30_rotated.json,http://54.235.29.9/FacialAge/BNav_EC2/DepthDuration/v2_depth_duration_MTurk/v2_DepthDuration_HTML.html#44,44,2133,1002,1920,1080,8-21-2022,8-47-22,63,depth_duration_stimuli/002549_2014-06-24_13-41-39_094959634447_rgbf000022-resize_3/002549_2014-06-24_13-41-39_094959634447_rgbf000022-resize_3-target.png,125,1.476,3.0,3232,123,feet,jsons/VE125_randls_30_rotated.json,505961,728261,43,Woman
63,709749,DepthScenes,duration_manipulation_targetAtFixation,jsons/VE125_randls_30_rotated.json,http://54.235.29.9/FacialAge/BNav_EC2/DepthDuration/v2_depth_duration_MTurk/v2_DepthDuration_HTML.html#44,44,2133,1002,1920,1080,8-21-2022,8-47-22,64,depth_duration_stimuli/003587_2014-05-23_16-48-02_094959634447_rgbf002384-resize_2/003587_2014-05-23_16-48-02_094959634447_rgbf002384-resize_2-target.png,125,1.357,3.0,1978,124,feet,jsons/VE125_randls_30_rotated.json,505961,728261,43,Woman
64,709749,DepthScenes,duration_manipulation_targetAtFixation,jsons/VE125_randls_30_rotated.json,http://54.235.29.9/FacialAge/BNav_EC2/DepthDuration/v2_depth_duration_MTurk/v2_DepthDuration_HTML.html#44,44,2133,1002,1920,1080,8-21-2022,8-47-22,65,depth_duration_stimuli/001167_2014-06-17_15-38-07_260595134347_rgbf000108-resize_0/001167_2014-06-17_15-38-07_260595134347_rgbf000108-resize_0-target.png,125,1.8505,3.0,1621,126,feet,jsons/VE125_randls_30_rotated.json,505961,728261,43,Woman
65,709749,DepthScenes,duration_manipulation_targetAtFixation,jsons/VE125_randls_30_rotated.json,http://54.235.29.9/FacialAge/BNav_EC2/DepthDuration/v2_depth_duration_MTurk/v2_DepthDuration_HTML.html#44,44,2133,1002,1920,1080,8-21-2022,8-47-22,66,depth_duration_stimuli/001540_2014-06-20_17-01-05_260595134347_rgbf000086-resize_2/001540_2014-06-20_17-01-05_260595134347_rgbf000086-resize-original.jpg,125,1.459,0.0,2811,125,feet,jsons/VE125_randls_30_rotated.json,505961,728261,43,Woman
66,709749,DepthScenes,duration_manipulation_targetAtFixation,jsons/VE125_randls_30_rotated.json,http://54.235.29.9/FacialAge/BNav_EC2/DepthDuration/v2_depth_duration_MTurk/v2_DepthDuration_HTML.html#44,44,2133,1002,1920,1080,8-21-2022,8-47-22,67,depth_duration_stimuli/000691_2014-06-08_13-08-50_260595134347_rgbf000132-resize_3/000691_2014-06-08_13-08-50_260595134347_rgbf000132-resize_3-target.png,125,4.1530000000000005,3.0,2214,125,feet,jsons/VE125_randls_30_rotated.json,505961,728261,43,Woman
67,709749,DepthScenes,duration_manipulation_targetAtFixation,jsons/VE125_randls_30_rotated.json,http://54.235.29.9/FacialAge/BNav_EC2/DepthDuration/v2_depth_duration_MTurk/v2_DepthDuration_HTML.html#44,44,2133,1002,1920,1080,8-21-2022,8-47-22,68,depth_duration_stimuli/002213_2014-06-28_18-37-58_260595134347_rgbf000055-resize_1/002213_2014-06-28_18-37-58_260595134347_rgbf000055-resize_1-target.png,125,3.62,4.0,1961,123,feet,jsons/VE125_randls_30_rotated.json,505961,728261,43,Woman
68,709749,DepthScenes,duration_manipulation_targetAtFixation,jsons/VE125_randls_30_rotated.json,http://54.235.29.9/FacialAge/BNav_EC2/DepthDuration/v2_depth_duration_MTurk/v2_DepthDuration_HTML.html#44,44,2133,1002,1920,1080,8-21-2022,8-47-22,69,depth_duration_stimuli/001828_2014-06-26_21-40-03_260595134347_rgbf000024-resize_0/001828_2014-06-26_21-40-03_260595134347_rgbf000024-resize_0-target.png,125,4.8260000000000005,4.0,1760,126,feet,jsons/VE125_randls_30_rotated.json,505961,728261,43,Woman
69,709749,DepthScenes,duration_manipulation_targetAtFixation,jsons/VE125_randls_30_rotated.json,http://54.235.29.9/FacialAge/BNav_EC2/DepthDuration/v2_depth_duration_MTurk/v2_DepthDuration_HTML.html#44,44,2133,1002,1920,1080,8-21-2022,8-47-22,70,depth_duration_stimuli/000009_2014-05-26_14-32-05_260595134347_rgbf000034-resize_3/000009_2014-05-26_14-32-05_260595134347_rgbf000034-resize_3-target.png,125,3.8715,5.0,3860,125,feet,jsons/VE125_randls_30_rotated.json,505961,728261,43,Woman
70,709749,DepthScenes,duration_manipulation_targetAtFixation,jsons/VE125_randls_30_rotated.json,http://54.235.29.9/FacialAge/BNav_EC2/DepthDuration/v2_depth_duration_MTurk/v2_DepthDuration_HTML.html#44,44,2133,1002,1920,1080,8-21-2022,8-47-22,71,depth_duration_stimuli/003083_2014-06-15_15-21-03_094959634447_rgbf000063-resize_1/003083_2014-06-15_15-21-03_094959634447_rgbf000063-resize_1-target.png,125,4.1405,5.0,2646,123,feet,jsons/VE125_randls_30_rotated.json,505961,728261,43,Woman
71,709749,DepthScenes,duration_manipulation_targetAtFixation,jsons/VE125_randls_30_rotated.json,http://54.235.29.9/FacialAge/BNav_EC2/DepthDuration/v2_depth_duration_MTurk/v2_DepthDuration_HTML.html#44,44,2133,1002,1920,1080,8-21-2022,8-47-22,72,depth_duration_stimuli/000486_2014-06-09_20-47-20_260595134347_rgbf000143-resize_2/000486_2014-06-09_20-47-20_260595134347_rgbf000143-resize_2-target.png,125,4.8325,5.0,1854,124,feet,jsons/VE125_randls_30_rotated.json,505961,728261,43,Woman
72,709749,DepthScenes,duration_manipulation_targetAtFixation,jsons/VE125_randls_30_rotated.json,http://54.235.29.9/FacialAge/BNav_EC2/DepthDuration/v2_depth_duration_MTurk/v2_DepthDuration_HTML.html#44,44,2133,1002,1920,1080,8-21-2022,8-47-22,73,depth_duration_stimuli/000943_2014-06-09_19-31-07_260595134347_rgbf000128-resize_1/000943_2014-06-09_19-31-07_260595134347_rgbf000128-resize_1-target.png,125,1.9765,5.0,1937,125,feet,jsons/VE125_randls_30_rotated.json,505961,728261,43,Woman
73,709749,DepthScenes,duration_manipulation_targetAtFixation,jsons/VE125_randls_30_rotated.json,http://54.235.29.9/FacialAge/BNav_EC2/DepthDuration/v2_depth_duration_MTurk/v2_DepthDuration_HTML.html#44,44,2133,1002,1920,1080,8-21-2022,8-47-22,74,depth_duration_stimuli/003070_2014-06-15_14-58-27_094959634447_rgbf000150-resize_3/003070_2014-06-15_14-58-27_094959634447_rgbf000150-resize_3-target.png,125,2.9415,5.0,1899,123,feet,jsons/VE125_randls_30_rotated.json,505961,728261,43,Woman
74,709749,DepthScenes,duration_manipulation_targetAtFixation,jsons/VE125_randls_30_rotated.json,http://54.235.29.9/FacialAge/BNav_EC2/DepthDuration/v2_depth_duration_MTurk/v2_DepthDuration_HTML.html#44,44,2133,1002,1920,1080,8-21-2022,8-47-22,75,depth_duration_stimuli/002199_2014-06-28_18-33-56_260595134347_rgbf000074-resize_0/002199_2014-06-28_18-33-56_260595134347_rgbf000074-resize_0-target.png,125,1.996,3.0,4606,123,feet,jsons/VE125_randls_30_rotated.json,505961,728261,43,Woman
75,709749,DepthScenes,duration_manipulation_targetAtFixation,jsons/VE125_randls_30_rotated.json,http://54.235.29.9/FacialAge/BNav_EC2/DepthDuration/v2_depth_duration_MTurk/v2_DepthDuration_HTML.html#44,44,2133,1002,1920,1080,8-21-2022,8-47-22,76,depth_duration_stimuli/001056_2014-06-08_18-46-44_260595134347_rgbf000068-resize_0/001056_2014-06-08_18-46-44_260595134347_rgbf000068-resize_0-target.png,125,2.6625,3.0,2209,124,feet,jsons/VE125_randls_30_rotated.json,505961,728261,43,Woman
76,709749,DepthScenes,duration_manipulation_targetAtFixation,jsons/VE125_randls_30_rotated.json,http://54.235.29.9/FacialAge/BNav_EC2/DepthDuration/v2_depth_duration_MTurk/v2_DepthDuration_HTML.html#44,44,2133,1002,1920,1080,8-21-2022,8-47-22,77,depth_duration_stimuli/001571_2014-06-20_17-21-32_260595134347_rgbf000089-resize_1/001571_2014-06-20_17-21-32_260595134347_rgbf000089-resize_1-target.png,125,1.86,3.0,1864,126,feet,jsons/VE125_randls_30_rotated.json,505961,728261,43,Woman
77,709749,DepthScenes,duration_manipulation_targetAtFixation,jsons/VE125_randls_30_rotated.json,http://54.235.29.9/FacialAge/BNav_EC2/DepthDuration/v2_depth_duration_MTurk/v2_DepthDuration_HTML.html#44,44,2133,1002,1920,1080,8-21-2022,8-47-22,78,depth_duration_stimuli/002272_2014-06-28_18-53-56_260595134347_rgbf000067-resize_2/002272_2014-06-28_18-53-56_260595134347_rgbf000067-resize_2-target.png,125,1.138,3.0,1690,125,feet,jsons/VE125_randls_30_rotated.json,505961,728261,43,Woman
78,709749,DepthScenes,duration_manipulation_targetAtFixation,jsons/VE125_randls_30_rotated.json,http://54.235.29.9/FacialAge/BNav_EC2/DepthDuration/v2_depth_duration_MTurk/v2_DepthDuration_HTML.html#44,44,2133,1002,1920,1080,8-21-2022,8-47-22,79,depth_duration_stimuli/001235_2014-06-17_16-37-36_260595134347_rgbf000084-resize_4/001235_2014-06-17_16-37-36_260595134347_rgbf000084-resize_4-target.png,125,3.6605,4.0,1979,125,feet,jsons/VE125_randls_30_rotated.json,505961,728261,43,Woman
79,709749,DepthScenes,duration_manipulation_targetAtFixation,jsons/VE125_randls_30_rotated.json,http://54.235.29.9/FacialAge/BNav_EC2/DepthDuration/v2_depth_duration_MTurk/v2_DepthDuration_HTML.html#44,44,2133,1002,1920,1080,8-21-2022,8-47-22,80,depth_duration_stimuli/000788_2014-06-08_22-34-36_260595134347_rgbf000131-resize_1/000788_2014-06-08_22-34-36_260595134347_rgbf000131-resize_1-target.png,125,3.359,4.0,1589,131,feet,jsons/VE125_randls_30_rotated.json,505961,728261,43,Woman
80,709749,DepthScenes,duration_manipulation_targetAtFixation,jsons/VE125_randls_30_rotated.json,http://54.235.29.9/FacialAge/BNav_EC2/DepthDuration/v2_depth_duration_MTurk/v2_DepthDuration_HTML.html#44,44,2133,1002,1920,1080,8-21-2022,8-47-22,81,depth_duration_stimuli/003490_2014-05-21_15-50-11_094959634447_rgbf000101-resize_3/003490_2014-05-21_15-50-11_094959634447_rgbf000101-resize_3-target.png,125,3.6445,4.0,1953,125,feet,jsons/VE125_randls_30_rotated.json,505961,728261,43,Woman
81,709749,DepthScenes,duration_manipulation_targetAtFixation,jsons/VE125_randls_30_rotated.json,http://54.235.29.9/FacialAge/BNav_EC2/DepthDuration/v2_depth_duration_MTurk/v2_DepthDuration_HTML.html#44,44,2133,1002,1920,1080,8-21-2022,8-47-22,82,depth_duration_stimuli/001175_2014-06-17_15-45-55_260595134347_rgbf000129-resize_4/001175_2014-06-17_15-45-55_260595134347_rgbf000129-resize_4-target.png,125,4.255,5.0,2007,125,feet,jsons/VE125_randls_30_rotated.json,505961,728261,43,Woman
82,709749,DepthScenes,duration_manipulation_targetAtFixation,jsons/VE125_randls_30_rotated.json,http://54.235.29.9/FacialAge/BNav_EC2/DepthDuration/v2_depth_duration_MTurk/v2_DepthDuration_HTML.html#44,44,2133,1002,1920,1080,8-21-2022,8-47-22,83,depth_duration_stimuli/000780_2014-06-08_22-28-29_260595134347_rgbf000126-resize_1/000780_2014-06-08_22-28-29_260595134347_rgbf000126-resize_1-target.png,125,3.3825,5.0,1613,126,feet,jsons/VE125_randls_30_rotated.json,505961,728261,43,Woman
83,709749,DepthScenes,duration_manipulation_targetAtFixation,jsons/VE125_randls_30_rotated.json,http://54.235.29.9/FacialAge/BNav_EC2/DepthDuration/v2_depth_duration_MTurk/v2_DepthDuration_HTML.html#44,44,2133,1002,1920,1080,8-21-2022,8-47-22,84,depth_duration_stimuli/002445_2014-06-28_20-32-16_260595134347_rgbf000029-resize_4/002445_2014-06-28_20-32-16_260595134347_rgbf000029-resize_4-target.png,125,2.5315,3.0,2304,125,feet,jsons/VE125_randls_30_rotated.json,505961,728261,43,Woman
84,709749,DepthScenes,duration_manipulation_targetAtFixation,jsons/VE125_randls_30_rotated.json,http://54.235.29.9/FacialAge/BNav_EC2/DepthDuration/v2_depth_duration_MTurk/v2_DepthDuration_HTML.html#44,44,2133,1002,1920,1080,8-21-2022,8-47-22,85,depth_duration_stimuli/000191_2014-05-12_17-07-38_260595134347_rgbf000199-resize_0/000191_2014-05-12_17-07-38_260595134347_rgbf000199-resize_0-target.png,125,3.7995,6.0,2623,123,feet,jsons/VE125_randls_30_rotated.json,505961,728261,43,Woman
85,709749,DepthScenes,duration_manipulation_targetAtFixation,jsons/VE125_randls_30_rotated.json,http://54.235.29.9/FacialAge/BNav_EC2/DepthDuration/v2_depth_duration_MTurk/v2_DepthDuration_HTML.html#44,44,2133,1002,1920,1080,8-21-2022,8-47-22,86,depth_duration_stimuli/000493_2014-06-09_21-01-18_260595134347_rgbf000196-resize_3/000493_2014-06-09_21-01-18_260595134347_rgbf000196-resize_3-target.png,125,3.44,4.0,1940,126,feet,jsons/VE125_randls_30_rotated.json,505961,728261,43,Woman
86,709749,DepthScenes,duration_manipulation_targetAtFixation,jsons/VE125_randls_30_rotated.json,http://54.235.29.9/FacialAge/BNav_EC2/DepthDuration/v2_depth_duration_MTurk/v2_DepthDuration_HTML.html#44,44,2133,1002,1920,1080,8-21-2022,8-47-22,87,depth_duration_stimuli/002678_2014-06-13_16-15-32_094959634447_rgbf000151-resize_6/002678_2014-06-13_16-15-32_094959634447_rgbf000151-resize_6-target.png,125,2.1830000000000003,4.0,1760,124,feet,jsons/VE125_randls_30_rotated.json,505961,728261,43,Woman
87,709749,DepthScenes,duration_manipulation_targetAtFixation,jsons/VE125_randls_30_rotated.json,http://54.235.29.9/FacialAge/BNav_EC2/DepthDuration/v2_depth_duration_MTurk/v2_DepthDuration_HTML.html#44,44,2133,1002,1920,1080,8-21-2022,8-47-22,88,depth_duration_stimuli/000368_2014-06-09_15-53-01_260595134347_rgbf000155-resize_2/000368_2014-06-09_15-53-01_260595134347_rgbf000155-resize_2-target.png,125,2.4859999999999998,3.0,1946,125,feet,jsons/VE125_randls_30_rotated.json,505961,728261,43,Woman
88,709749,DepthScenes,duration_manipulation_targetAtFixation,jsons/VE125_randls_30_rotated.json,http://54.235.29.9/FacialAge/BNav_EC2/DepthDuration/v2_depth_duration_MTurk/v2_DepthDuration_HTML.html#44,44,2133,1002,1920,1080,8-21-2022,8-47-22,89,depth_duration_stimuli/000734_2014-06-08_17-39-11_260595134347_rgbf000128-resize_2/000734_2014-06-08_17-39-11_260595134347_rgbf000128-resize_2-target.png,125,4.098,3.0,1521,124,feet,jsons/VE125_randls_30_rotated.json,505961,728261,43,Woman
89,709749,DepthScenes,duration_manipulation_targetAtFixation,jsons/VE125_randls_30_rotated.json,http://54.235.29.9/FacialAge/BNav_EC2/DepthDuration/v2_depth_duration_MTurk/v2_DepthDuration_HTML.html#44,44,2133,1002,1920,1080,8-21-2022,8-47-22,90,depth_duration_stimuli/000739_2014-06-08_18-45-58_260595134347_rgbf000068-resize_1/000739_2014-06-08_18-45-58_260595134347_rgbf000068-resize_1-target.png,125,3.534,3.0,1737,124,feet,jsons/VE125_randls_30_rotated.json,505961,728261,43,Woman
90,709749,DepthScenes,duration_manipulation_targetAtFixation,jsons/VE125_randls_30_rotated.json,http://54.235.29.9/FacialAge/BNav_EC2/DepthDuration/v2_depth_duration_MTurk/v2_DepthDuration_HTML.html#44,44,2133,1002,1920,1080,8-21-2022,8-47-22,91,depth_duration_stimuli/001516_2014-06-20_16-25-09_260595134347_rgbf000076-resize_2/001516_2014-06-20_16-25-09_260595134347_rgbf000076-resize_2-target.png,125,1.7445,4.0,2116,125,feet,jsons/VE125_randls_30_rotated.json,505961,728261,43,Woman
91,709749,DepthScenes,duration_manipulation_targetAtFixation,jsons/VE125_randls_30_rotated.json,http://54.235.29.9/FacialAge/BNav_EC2/DepthDuration/v2_depth_duration_MTurk/v2_DepthDuration_HTML.html#44,44,2133,1002,1920,1080,8-21-2022,8-47-22,92,depth_duration_stimuli/002118_2014-06-25_20-32-08_260595134347_rgbf000078-resize_1/002118_2014-06-25_20-32-08_260595134347_rgbf000078-resize_1-target.png,125,2.6460000000000004,3.0,1636,123,feet,jsons/VE125_randls_30_rotated.json,505961,728261,43,Woman
92,709749,DepthScenes,duration_manipulation_targetAtFixation,jsons/VE125_randls_30_rotated.json,http://54.235.29.9/FacialAge/BNav_EC2/DepthDuration/v2_depth_duration_MTurk/v2_DepthDuration_HTML.html#44,44,2133,1002,1920,1080,8-21-2022,8-47-22,93,depth_duration_stimuli/000854_2014-06-09_19-43-13_260595134347_rgbf000066-resize_0/000854_2014-06-09_19-43-13_260595134347_rgbf000066-resize_0-target.png,125,3.068,3.0,1782,124,feet,jsons/VE125_randls_30_rotated.json,505961,728261,43,Woman
93,709749,DepthScenes,duration_manipulation_targetAtFixation,jsons/VE125_randls_30_rotated.json,http://54.235.29.9/FacialAge/BNav_EC2/DepthDuration/v2_depth_duration_MTurk/v2_DepthDuration_HTML.html#44,44,2133,1002,1920,1080,8-21-2022,8-47-22,94,depth_duration_stimuli/000758_2014-06-08_22-05-08_260595134347_rgbf000085-resize_0/000758_2014-06-08_22-05-08_260595134347_rgbf000085-resize_0-target.png,125,3.3810000000000002,5.0,2400,123,feet,jsons/VE125_randls_30_rotated.json,505961,728261,43,Woman
94,709749,DepthScenes,duration_manipulation_targetAtFixation,jsons/VE125_randls_30_rotated.json,http://54.235.29.9/FacialAge/BNav_EC2/DepthDuration/v2_depth_duration_MTurk/v2_DepthDuration_HTML.html#44,44,2133,1002,1920,1080,8-21-2022,8-47-22,95,depth_duration_stimuli/000556_2014-06-09_22-42-56_260595134347_rgbf000214-resize_1/000556_2014-06-09_22-42-56_260595134347_rgbf000214-resize_1-target.png,125,4.8415,4.0,1682,123,feet,jsons/VE125_randls_30_rotated.json,505961,728261,43,Woman
95,709749,DepthScenes,duration_manipulation_targetAtFixation,jsons/VE125_randls_30_rotated.json,http://54.235.29.9/FacialAge/BNav_EC2/DepthDuration/v2_depth_duration_MTurk/v2_DepthDuration_HTML.html#44,44,2133,1002,1920,1080,8-21-2022,8-47-22,96,depth_duration_stimuli/001158_2014-06-17_15-32-16_260595134347_rgbf000138-resize_2/001158_2014-06-17_15-32-16_260595134347_rgbf000138-resize_2-target.png,125,4.5315,4.0,4215,125,feet,jsons/VE125_randls_30_rotated.json,505961,728261,43,Woman
96,709749,DepthScenes,duration_manipulation_targetAtFixation,jsons/VE125_randls_30_rotated.json,http://54.235.29.9/FacialAge/BNav_EC2/DepthDuration/v2_depth_duration_MTurk/v2_DepthDuration_HTML.html#44,44,2133,1002,1920,1080,8-21-2022,8-47-22,97,depth_duration_stimuli/003129_2014-05-12_10-48-10_094959634447_rgbf000100-resize_0/003129_2014-05-12_10-48-10_094959634447_rgbf000100-resize_0-target.png,125,4.9305,3.0,2716,122,feet,jsons/VE125_randls_30_rotated.json,505961,728261,43,Woman
97,709749,DepthScenes,duration_manipulation_targetAtFixation,jsons/VE125_randls_30_rotated.json,http://54.235.29.9/FacialAge/BNav_EC2/DepthDuration/v2_depth_duration_MTurk/v2_DepthDuration_HTML.html#44,44,2133,1002,1920,1080,8-21-2022,8-47-22,98,depth_duration_stimuli/000414_2014-06-04_19-49-13_260595134347_rgbf000044-resize_0/000414_2014-06-04_19-49-13_260595134347_rgbf000044-resize_0-target.png,125,4.329,5.0,1906,123,feet,jsons/VE125_randls_30_rotated.json,505961,728261,43,Woman
98,709749,DepthScenes,duration_manipulation_targetAtFixation,jsons/VE125_randls_30_rotated.json,http://54.235.29.9/FacialAge/BNav_EC2/DepthDuration/v2_depth_duration_MTurk/v2_DepthDuration_HTML.html#44,44,2133,1002,1920,1080,8-21-2022,8-47-22,99,depth_duration_stimuli/001222_2014-06-17_16-24-06_260595134347_rgbf000073-resize_0/001222_2014-06-17_16-24-06_260595134347_rgbf000073-resize-original.jpg,125,1.4385,0.0,3137,123,feet,jsons/VE125_randls_30_rotated.json,505961,728261,43,Woman
99,709749,DepthScenes,duration_manipulation_targetAtFixation,jsons/VE125_randls_30_rotated.json,http://54.235.29.9/FacialAge/BNav_EC2/DepthDuration/v2_depth_duration_MTurk/v2_DepthDuration_HTML.html#44,44,2133,1002,1920,1080,8-21-2022,8-47-22,100,depth_duration_stimuli/002340_2014-06-28_20-05-46_260595134347_rgbf000113-resize_0/002340_2014-06-28_20-05-46_260595134347_rgbf000113-resize_0-target.png,125,2.4735,7.0,4300,123,feet,jsons/VE125_randls_30_rotated.json,505961,728261,43,Woman
100,709749,DepthScenes,duration_manipulation_targetAtFixation,jsons/VE125_randls_30_rotated.json,http://54.235.29.9/FacialAge/BNav_EC2/DepthDuration/v2_depth_duration_MTurk/v2_DepthDuration_HTML.html#44,44,2133,1002,1920,1080,8-21-2022,8-47-22,101,depth_duration_stimuli/001016_2014-06-09_16-16-10_260595134347_rgbf000112-resize_5/001016_2014-06-09_16-16-10_260595134347_rgbf000112-resize_5-target.png,125,1.6565,4.0,2335,123,feet,jsons/VE125_randls_30_rotated.json,505961,728261,43,Woman
101,709749,DepthScenes,duration_manipulation_targetAtFixation,jsons/VE125_randls_30_rotated.json,http://54.235.29.9/FacialAge/BNav_EC2/DepthDuration/v2_depth_duration_MTurk/v2_DepthDuration_HTML.html#44,44,2133,1002,1920,1080,8-21-2022,8-47-22,102,depth_duration_stimuli/002136_2014-06-25_21-18-03_260595134347_rgbf000109-resize_3/002136_2014-06-25_21-18-03_260595134347_rgbf000109-resize_3-target.png,125,1.9569999999999999,3.0,2264,126,feet,jsons/VE125_randls_30_rotated.json,505961,728261,43,Woman
102,709749,DepthScenes,duration_manipulation_targetAtFixation,jsons/VE125_randls_30_rotated.json,http://54.235.29.9/FacialAge/BNav_EC2/DepthDuration/v2_depth_duration_MTurk/v2_DepthDuration_HTML.html#44,44,2133,1002,1920,1080,8-21-2022,8-47-22,103,depth_duration_stimuli/002964_2014-06-08_17-46-11_094959634447_rgbf000091-resize_4/002964_2014-06-08_17-46-11_094959634447_rgbf000091-resize_4-target.png,125,1.6909999999999998,3.0,1768,124,feet,jsons/VE125_randls_30_rotated.json,505961,728261,43,Woman
103,709749,DepthScenes,duration_manipulation_targetAtFixation,jsons/VE125_randls_30_rotated.json,http://54.235.29.9/FacialAge/BNav_EC2/DepthDuration/v2_depth_duration_MTurk/v2_DepthDuration_HTML.html#44,44,2133,1002,1920,1080,8-21-2022,8-47-22,104,depth_duration_stimuli/001100_2014-06-15_17-46-26_260595134347_rgbf000225-resize_2/001100_2014-06-15_17-46-26_260595134347_rgbf000225-resize_2-target.png,125,2.24,3.0,2189,124,feet,jsons/VE125_randls_30_rotated.json,505961,728261,43,Woman
104,709749,DepthScenes,duration_manipulation_targetAtFixation,jsons/VE125_randls_30_rotated.json,http://54.235.29.9/FacialAge/BNav_EC2/DepthDuration/v2_depth_duration_MTurk/v2_DepthDuration_HTML.html#44,44,2133,1002,1920,1080,8-21-2022,8-47-22,105,depth_duration_stimuli/002784_2014-06-22_19-26-30_094959634447_rgbf000083-resize_3/002784_2014-06-22_19-26-30_094959634447_rgbf000083-resize_3-target.png,125,1.8046666666667,2.0,4564,125,feet,jsons/VE125_randls_30_rotated.json,505961,728261,43,Woman
105,709749,DepthScenes,duration_manipulation_targetAtFixation,jsons/VE125_randls_30_rotated.json,http://54.235.29.9/FacialAge/BNav_EC2/DepthDuration/v2_depth_duration_MTurk/v2_DepthDuration_HTML.html#44,44,2133,1002,1920,1080,8-21-2022,8-47-22,106,depth_duration_stimuli/002425_2014-06-28_20-27-29_260595134347_rgbf000031-resize_8/002425_2014-06-28_20-27-29_260595134347_rgbf000031-resize_8-target.png,125,3.8960000000000004,4.0,2935,123,feet,jsons/VE125_randls_30_rotated.json,505961,728261,43,Woman
106,709749,DepthScenes,duration_manipulation_targetAtFixation,jsons/VE125_randls_30_rotated.json,http://54.235.29.9/FacialAge/BNav_EC2/DepthDuration/v2_depth_duration_MTurk/v2_DepthDuration_HTML.html#44,44,2133,1002,1920,1080,8-21-2022,8-47-22,107,depth_duration_stimuli/000642_2014-06-08_16-59-25_260595134347_rgbf000098-resize_2/000642_2014-06-08_16-59-25_260595134347_rgbf000098-resize_2-target.png,125,2.8815,3.0,2246,124,feet,jsons/VE125_randls_30_rotated.json,505961,728261,43,Woman
107,709749,DepthScenes,duration_manipulation_targetAtFixation,jsons/VE125_randls_30_rotated.json,http://54.235.29.9/FacialAge/BNav_EC2/DepthDuration/v2_depth_duration_MTurk/v2_DepthDuration_HTML.html#44,44,2133,1002,1920,1080,8-21-2022,8-47-22,108,depth_duration_stimuli/001650_2014-06-20_12-09-00_260595134347_rgbf000087-resize_3/001650_2014-06-20_12-09-00_260595134347_rgbf000087-resize_3-target.png,125,1.9505,3.0,1528,124,feet,jsons/VE125_randls_30_rotated.json,505961,728261,43,Woman
108,709749,DepthScenes,duration_manipulation_targetAtFixation,jsons/VE125_randls_30_rotated.json,http://54.235.29.9/FacialAge/BNav_EC2/DepthDuration/v2_depth_duration_MTurk/v2_DepthDuration_HTML.html#44,44,2133,1002,1920,1080,8-21-2022,8-47-22,109,depth_duration_stimuli/000682_2014-06-08_23-14-58_260595134347_rgbf000041-resize_5/000682_2014-06-08_23-14-58_260595134347_rgbf000041-resize_5-target.png,125,2.7239999999999998,4.0,2114,124,feet,jsons/VE125_randls_30_rotated.json,505961,728261,43,Woman
109,709749,DepthScenes,duration_manipulation_targetAtFixation,jsons/VE125_randls_30_rotated.json,http://54.235.29.9/FacialAge/BNav_EC2/DepthDuration/v2_depth_duration_MTurk/v2_DepthDuration_HTML.html#44,44,2133,1002,1920,1080,8-21-2022,8-47-22,110,depth_duration_stimuli/000709_2014-06-08_13-51-55_260595134347_rgbf000068-resize_3/000709_2014-06-08_13-51-55_260595134347_rgbf000068-resize_3-target.png,125,1.8030000000000002,5.0,2540,124,feet,jsons/VE125_randls_30_rotated.json,505961,728261,43,Woman
110,709749,DepthScenes,duration_manipulation_targetAtFixation,jsons/VE125_randls_30_rotated.json,http://54.235.29.9/FacialAge/BNav_EC2/DepthDuration/v2_depth_duration_MTurk/v2_DepthDuration_HTML.html#44,44,2133,1002,1920,1080,8-21-2022,8-47-22,111,depth_duration_stimuli/002057_2014-06-24_21-00-13_260595134347_rgbf000120-resize_1/002057_2014-06-24_21-00-13_260595134347_rgbf000120-resize_1-target.png,125,2.967,5.0,1862,124,feet,jsons/VE125_randls_30_rotated.json,505961,728261,43,Woman
111,709749,DepthScenes,duration_manipulation_targetAtFixation,jsons/VE125_randls_30_rotated.json,http://54.235.29.9/FacialAge/BNav_EC2/DepthDuration/v2_depth_duration_MTurk/v2_DepthDuration_HTML.html#44,44,2133,1002,1920,1080,8-21-2022,8-47-22,112,depth_duration_stimuli/000137_2014-05-20_17-04-49_260595134347_rgbf000120-resize_1/000137_2014-05-20_17-04-49_260595134347_rgbf000120-resize_1-target.png,125,3.786,5.0,1781,123,feet,jsons/VE125_randls_30_rotated.json,505961,728261,43,Woman
112,709749,DepthScenes,duration_manipulation_targetAtFixation,jsons/VE125_randls_30_rotated.json,http://54.235.29.9/FacialAge/BNav_EC2/DepthDuration/v2_depth_duration_MTurk/v2_DepthDuration_HTML.html#44,44,2133,1002,1920,1080,8-21-2022,8-47-22,113,depth_duration_stimuli/000736_2014-06-08_18-24-15_260595134347_rgbf000206-resize_3/000736_2014-06-08_18-24-15_260595134347_rgbf000206-resize_3-target.png,125,3.515,4.0,1884,125,feet,jsons/VE125_randls_30_rotated.json,505961,728261,43,Woman
113,709749,DepthScenes,duration_manipulation_targetAtFixation,jsons/VE125_randls_30_rotated.json,http://54.235.29.9/FacialAge/BNav_EC2/DepthDuration/v2_depth_duration_MTurk/v2_DepthDuration_HTML.html#44,44,2133,1002,1920,1080,8-21-2022,8-47-22,114,depth_duration_stimuli/003338_2014-05-20_11-01-23_094959634447_rgbf000051-resize_6/003338_2014-05-20_11-01-23_094959634447_rgbf000051-resize_6-target.png,125,1.693,4.0,1924,125,feet,jsons/VE125_randls_30_rotated.json,505961,728261,43,Woman
114,709749,DepthScenes,duration_manipulation_targetAtFixation,jsons/VE125_randls_30_rotated.json,http://54.235.29.9/FacialAge/BNav_EC2/DepthDuration/v2_depth_duration_MTurk/v2_DepthDuration_HTML.html#44,44,2133,1002,1920,1080,8-21-2022,8-47-22,115,depth_duration_stimuli/002509_2014-06-24_13-19-22_094959634447_rgbf000077-resize_0/002509_2014-06-24_13-19-22_094959634447_rgbf000077-resize_0-target.png,125,1.3065,3.0,2762,126,feet,jsons/VE125_randls_30_rotated.json,505961,728261,43,Woman
115,709749,DepthScenes,duration_manipulation_targetAtFixation,jsons/VE125_randls_30_rotated.json,http://54.235.29.9/FacialAge/BNav_EC2/DepthDuration/v2_depth_duration_MTurk/v2_DepthDuration_HTML.html#44,44,2133,1002,1920,1080,8-21-2022,8-47-22,116,depth_duration_stimuli/003010_2014-06-15_12-54-35_094959634447_rgbf000112-resize_0/003010_2014-06-15_12-54-35_094959634447_rgbf000112-resize_0-target.png,125,3.1185,0.0,2741,124,feet,jsons/VE125_randls_30_rotated.json,505961,728261,43,Woman
116,709749,DepthScenes,duration_manipulation_targetAtFixation,jsons/VE125_randls_30_rotated.json,http://54.235.29.9/FacialAge/BNav_EC2/DepthDuration/v2_depth_duration_MTurk/v2_DepthDuration_HTML.html#44,44,2133,1002,1920,1080,8-21-2022,8-47-22,117,depth_duration_stimuli/001810_2014-06-26_20-51-35_260595134347_rgbf000040-resize_3/001810_2014-06-26_20-51-35_260595134347_rgbf000040-resize_3-target.png,125,2.2525,4.0,2436,125,feet,jsons/VE125_randls_30_rotated.json,505961,728261,43,Woman
117,709749,DepthScenes,duration_manipulation_targetAtFixation,jsons/VE125_randls_30_rotated.json,http://54.235.29.9/FacialAge/BNav_EC2/DepthDuration/v2_depth_duration_MTurk/v2_DepthDuration_HTML.html#44,44,2133,1002,1920,1080,8-21-2022,8-47-22,118,depth_duration_stimuli/000549_2014-06-08_22-10-24_260595134347_rgbf000247-resize_3/000549_2014-06-08_22-10-24_260595134347_rgbf000247-resize_3-target.png,125,1.841,3.0,2862,125,feet,jsons/VE125_randls_30_rotated.json,505961,728261,43,Woman
118,709749,DepthScenes,duration_manipulation_targetAtFixation,jsons/VE125_randls_30_rotated.json,http://54.235.29.9/FacialAge/BNav_EC2/DepthDuration/v2_depth_duration_MTurk/v2_DepthDuration_HTML.html#44,44,2133,1002,1920,1080,8-21-2022,8-47-22,119,depth_duration_stimuli/001055_2014-06-08_18-45-35_260595134347_rgbf000111-resize_4/001055_2014-06-08_18-45-35_260595134347_rgbf000111-resize_4-target.png,125,2.4290000000000003,4.0,2405,124,feet,jsons/VE125_randls_30_rotated.json,505961,728261,43,Woman
119,709749,DepthScenes,duration_manipulation_targetAtFixation,jsons/VE125_randls_30_rotated.json,http://54.235.29.9/FacialAge/BNav_EC2/DepthDuration/v2_depth_duration_MTurk/v2_DepthDuration_HTML.html#44,44,2133,1002,1920,1080,8-21-2022,8-47-22,120,depth_duration_stimuli/000787_2014-06-08_22-33-53_260595134347_rgbf000175-resize_1/000787_2014-06-08_22-33-53_260595134347_rgbf000175-resize-original.jpg,125,4.784,0.0,3627,125,feet,jsons/VE125_randls_30_rotated.json,505961,728261,43,Woman
120,709749,DepthScenes,duration_manipulation_targetAtFixation,jsons/VE125_randls_30_rotated.json,http://54.235.29.9/FacialAge/BNav_EC2/DepthDuration/v2_depth_duration_MTurk/v2_DepthDuration_HTML.html#44,44,2133,1002,1920,1080,8-21-2022,8-47-22,121,depth_duration_stimuli/002639_2014-06-24_14-51-37_094959634447_rgbf000074-resize_4/002639_2014-06-24_14-51-37_094959634447_rgbf000074-resize_4-target.png,125,4.0375,4.0,2799,126,feet,jsons/VE125_randls_30_rotated.json,505961,728261,43,Woman
121,709749,DepthScenes,duration_manipulation_targetAtFixation,jsons/VE125_randls_30_rotated.json,http://54.235.29.9/FacialAge/BNav_EC2/DepthDuration/v2_depth_duration_MTurk/v2_DepthDuration_HTML.html#44,44,2133,1002,1920,1080,8-21-2022,8-47-22,122,depth_duration_stimuli/003292_2014-05-14_21-53-49_094959634447_rgbf000100-resize_2/003292_2014-05-14_21-53-49_094959634447_rgbf000100-resize_2-target.png,125,3.4815,4.0,2656,124,feet,jsons/VE125_randls_30_rotated.json,505961,728261,43,Woman
122,709749,DepthScenes,duration_manipulation_targetAtFixation,jsons/VE125_randls_30_rotated.json,http://54.235.29.9/FacialAge/BNav_EC2/DepthDuration/v2_depth_duration_MTurk/v2_DepthDuration_HTML.html#44,44,2133,1002,1920,1080,8-21-2022,8-47-22,123,depth_duration_stimuli/002875_2014-06-01_15-19-00_094959634447_rgbf000151-resize_1/002875_2014-06-01_15-19-00_094959634447_rgbf000151-resize_1-target.png,125,1.9675,4.0,1846,125,feet,jsons/VE125_randls_30_rotated.json,505961,728261,43,Woman
123,709749,DepthScenes,duration_manipulation_targetAtFixation,jsons/VE125_randls_30_rotated.json,http://54.235.29.9/FacialAge/BNav_EC2/DepthDuration/v2_depth_duration_MTurk/v2_DepthDuration_HTML.html#44,44,2133,1002,1920,1080,8-21-2022,8-47-22,124,depth_duration_stimuli/001011_2014-06-08_23-18-54_260595134347_rgbf000044-resize_4/001011_2014-06-08_23-18-54_260595134347_rgbf000044-resize_4-target.png,125,2.4730000000000003,5.0,2155,123,feet,jsons/VE125_randls_30_rotated.json,505961,728261,43,Woman
124,709749,DepthScenes,duration_manipulation_targetAtFixation,jsons/VE125_randls_30_rotated.json,http://54.235.29.9/FacialAge/BNav_EC2/DepthDuration/v2_depth_duration_MTurk/v2_DepthDuration_HTML.html#44,44,2133,1002,1920,1080,8-21-2022,8-47-22,125,depth_duration_stimuli/002209_2014-06-28_18-36-10_260595134347_rgbf000051-resize_1/002209_2014-06-28_18-36-10_260595134347_rgbf000051-resize_1-target.png,125,2.057,4.0,2086,126,feet,jsons/VE125_randls_30_rotated.json,505961,728261,43,Woman
125,709749,DepthScenes,duration_manipulation_targetAtFixation,jsons/VE125_randls_30_rotated.json,http://54.235.29.9/FacialAge/BNav_EC2/DepthDuration/v2_depth_duration_MTurk/v2_DepthDuration_HTML.html#44,44,2133,1002,1920,1080,8-21-2022,8-47-22,126,depth_duration_stimuli/002763_2014-06-22_19-13-10_094959634447_rgbf000075-resize_4/002763_2014-06-22_19-13-10_094959634447_rgbf000075-resize_4-target.png,125,1.68375,0.0,2172,124,feet,jsons/VE125_randls_30_rotated.json,505961,728261,43,Woman
126,709749,DepthScenes,duration_manipulation_targetAtFixation,jsons/VE125_randls_30_rotated.json,http://54.235.29.9/FacialAge/BNav_EC2/DepthDuration/v2_depth_duration_MTurk/v2_DepthDuration_HTML.html#44,44,2133,1002,1920,1080,8-21-2022,8-47-22,127,depth_duration_stimuli/002660_2014-06-13_15-44-18_094959634447_rgbf001878-resize_2/002660_2014-06-13_15-44-18_094959634447_rgbf001878-resize_2-target.png,125,3.576,4.0,2064,125,feet,jsons/VE125_randls_30_rotated.json,505961,728261,43,Woman
127,709749,DepthScenes,duration_manipulation_targetAtFixation,jsons/VE125_randls_30_rotated.json,http://54.235.29.9/FacialAge/BNav_EC2/DepthDuration/v2_depth_duration_MTurk/v2_DepthDuration_HTML.html#44,44,2133,1002,1920,1080,8-21-2022,8-47-22,128,depth_duration_stimuli/002153_2014-06-25_21-27-18_260595134347_rgbf000038-resize_5/002153_2014-06-25_21-27-18_260595134347_rgbf000038-resize_5-target.png,125,2.505,3.0,3175,124,feet,jsons/VE125_randls_30_rotated.json,505961,728261,43,Woman
128,709749,DepthScenes,duration_manipulation_targetAtFixation,jsons/VE125_randls_30_rotated.json,http://54.235.29.9/FacialAge/BNav_EC2/DepthDuration/v2_depth_duration_MTurk/v2_DepthDuration_HTML.html#44,44,2133,1002,1920,1080,8-21-2022,8-47-22,129,depth_duration_stimuli/002344_2014-06-28_20-06-29_260595134347_rgbf000030-resize_1/002344_2014-06-28_20-06-29_260595134347_rgbf000030-resize_1-target.png,125,1.5795,3.0,1714,125,feet,jsons/VE125_randls_30_rotated.json,505961,728261,43,Woman
129,709749,DepthScenes,duration_manipulation_targetAtFixation,jsons/VE125_randls_30_rotated.json,http://54.235.29.9/FacialAge/BNav_EC2/DepthDuration/v2_depth_duration_MTurk/v2_DepthDuration_HTML.html#44,44,2133,1002,1920,1080,8-21-2022,8-47-22,130,depth_duration_stimuli/002725_2014-06-22_11-47-51_094959634447_rgbf000070-resize_1/002725_2014-06-22_11-47-51_094959634447_rgbf000070-resize_1-target.png,125,2.195,4.0,1815,124,feet,jsons/VE125_randls_30_rotated.json,505961,728261,43,Woman
130,709749,DepthScenes,duration_manipulation_targetAtFixation,jsons/VE125_randls_30_rotated.json,http://54.235.29.9/FacialAge/BNav_EC2/DepthDuration/v2_depth_duration_MTurk/v2_DepthDuration_HTML.html#44,44,2133,1002,1920,1080,8-21-2022,8-47-22,131,depth_duration_stimuli/002103_2014-06-25_20-00-40_260595134347_rgbf000049-resize_0/002103_2014-06-25_20-00-40_260595134347_rgbf000049-resize_0-target.png,125,4.105,4.0,1575,123,feet,jsons/VE125_randls_30_rotated.json,505961,728261,43,Woman
131,709749,DepthScenes,duration_manipulation_targetAtFixation,jsons/VE125_randls_30_rotated.json,http://54.235.29.9/FacialAge/BNav_EC2/DepthDuration/v2_depth_duration_MTurk/v2_DepthDuration_HTML.html#44,44,2133,1002,1920,1080,8-21-2022,8-47-22,132,depth_duration_stimuli/002039_2014-06-24_20-22-38_260595134347_rgbf000084-resize_1/002039_2014-06-24_20-22-38_260595134347_rgbf000084-resize_1-target.png,125,4.408,4.0,2632,123,feet,jsons/VE125_randls_30_rotated.json,505961,728261,43,Woman
132,709749,DepthScenes,duration_manipulation_targetAtFixation,jsons/VE125_randls_30_rotated.json,http://54.235.29.9/FacialAge/BNav_EC2/DepthDuration/v2_depth_duration_MTurk/v2_DepthDuration_HTML.html#44,44,2133,1002,1920,1080,8-21-2022,8-47-22,133,depth_duration_stimuli/000665_2014-06-09_20-42-35_260595134347_rgbf000110-resize_1/000665_2014-06-09_20-42-35_260595134347_rgbf000110-resize_1-target.png,125,3.057,4.0,1914,123,feet,jsons/VE125_randls_30_rotated.json,505961,728261,43,Woman
133,709749,DepthScenes,duration_manipulation_targetAtFixation,jsons/VE125_randls_30_rotated.json,http://54.235.29.9/FacialAge/BNav_EC2/DepthDuration/v2_depth_duration_MTurk/v2_DepthDuration_HTML.html#44,44,2133,1002,1920,1080,8-21-2022,8-47-22,134,depth_duration_stimuli/001150_2014-06-17_15-27-34_260595134347_rgbf000108-resize_2/001150_2014-06-17_15-27-34_260595134347_rgbf000108-resize_2-target.png,125,4.0325,5.0,2838,125,feet,jsons/VE125_randls_30_rotated.json,505961,728261,43,Woman
134,709749,DepthScenes,duration_manipulation_targetAtFixation,jsons/VE125_randls_30_rotated.json,http://54.235.29.9/FacialAge/BNav_EC2/DepthDuration/v2_depth_duration_MTurk/v2_DepthDuration_HTML.html#44,44,2133,1002,1920,1080,8-21-2022,8-47-22,135,depth_duration_stimuli/000375_2014-06-08_11-17-29_260595134347_rgbf000133-resize_2/000375_2014-06-08_11-17-29_260595134347_rgbf000133-resize-original.jpg,125,4.718,0.0,2398,125,feet,jsons/VE125_randls_30_rotated.json,505961,728261,43,Woman
135,709749,DepthScenes,duration_manipulation_targetAtFixation,jsons/VE125_randls_30_rotated.json,http://54.235.29.9/FacialAge/BNav_EC2/DepthDuration/v2_depth_duration_MTurk/v2_DepthDuration_HTML.html#44,44,2133,1002,1920,1080,8-21-2022,8-47-22,136,depth_duration_stimuli/002758_2014-06-22_19-11-20_094959634447_rgbf000128-resize_1/002758_2014-06-22_19-11-20_094959634447_rgbf000128-resize_1-target.png,125,2.555,0.0,1789,125,feet,jsons/VE125_randls_30_rotated.json,505961,728261,43,Woman
136,709749,DepthScenes,duration_manipulation_targetAtFixation,jsons/VE125_randls_30_rotated.json,http://54.235.29.9/FacialAge/BNav_EC2/DepthDuration/v2_depth_duration_MTurk/v2_DepthDuration_HTML.html#44,44,2133,1002,1920,1080,8-21-2022,8-47-22,137,depth_duration_stimuli/002630_2014-06-24_14-47-50_094959634447_rgbf000055-resize_1/002630_2014-06-24_14-47-50_094959634447_rgbf000055-resize_1-target.png,125,3.0095,4.0,1933,124,feet,jsons/VE125_randls_30_rotated.json,505961,728261,43,Woman
137,709749,DepthScenes,duration_manipulation_targetAtFixation,jsons/VE125_randls_30_rotated.json,http://54.235.29.9/FacialAge/BNav_EC2/DepthDuration/v2_depth_duration_MTurk/v2_DepthDuration_HTML.html#44,44,2133,1002,1920,1080,8-21-2022,8-47-22,138,depth_duration_stimuli/002444_2014-06-28_20-32-08_260595134347_rgbf000027-resize_0/002444_2014-06-28_20-32-08_260595134347_rgbf000027-resize_0-target.png,125,4.388999999999999,4.0,1708,123,feet,jsons/VE125_randls_30_rotated.json,505961,728261,43,Woman
138,709749,DepthScenes,duration_manipulation_targetAtFixation,jsons/VE125_randls_30_rotated.json,http://54.235.29.9/FacialAge/BNav_EC2/DepthDuration/v2_depth_duration_MTurk/v2_DepthDuration_HTML.html#44,44,2133,1002,1920,1080,8-21-2022,8-47-22,139,depth_duration_stimuli/000436_2014-06-09_22-25-11_260595134347_rgbf000137-resize_1/000436_2014-06-09_22-25-11_260595134347_rgbf000137-resize_1-target.png,125,4.0705,4.0,2098,127,feet,jsons/VE125_randls_30_rotated.json,505961,728261,43,Woman
139,709749,DepthScenes,duration_manipulation_targetAtFixation,jsons/VE125_randls_30_rotated.json,http://54.235.29.9/FacialAge/BNav_EC2/DepthDuration/v2_depth_duration_MTurk/v2_DepthDuration_HTML.html#44,44,2133,1002,1920,1080,8-21-2022,8-47-22,140,depth_duration_stimuli/001132_2014-06-17_14-48-54_260595134347_rgbf000100-resize_2/001132_2014-06-17_14-48-54_260595134347_rgbf000100-resize_2-target.png,125,3.753,3.0,2867,124,feet,jsons/VE125_randls_30_rotated.json,505961,728261,43,Woman
140,709749,DepthScenes,duration_manipulation_targetAtFixation,jsons/VE125_randls_30_rotated.json,http://54.235.29.9/FacialAge/BNav_EC2/DepthDuration/v2_depth_duration_MTurk/v2_DepthDuration_HTML.html#44,44,2133,1002,1920,1080,8-21-2022,8-47-22,141,depth_duration_stimuli/001133_2014-06-17_14-49-16_260595134347_rgbf000100-resize_0/001133_2014-06-17_14-49-16_260595134347_rgbf000100-resize_0-target.png,125,4.2115,3.0,1649,125,feet,jsons/VE125_randls_30_rotated.json,505961,728261,43,Woman
141,709749,DepthScenes,duration_manipulation_targetAtFixation,jsons/VE125_randls_30_rotated.json,http://54.235.29.9/FacialAge/BNav_EC2/DepthDuration/v2_depth_duration_MTurk/v2_DepthDuration_HTML.html#44,44,2133,1002,1920,1080,8-21-2022,8-47-22,142,depth_duration_stimuli/000103_2014-05-14_22-01-17_260595134347_rgbf000152-resize_5/000103_2014-05-14_22-01-17_260595134347_rgbf000152-resize_5-target.png,125,1.993,5.0,2117,123,feet,jsons/VE125_randls_30_rotated.json,505961,728261,43,Woman
142,709749,DepthScenes,duration_manipulation_targetAtFixation,jsons/VE125_randls_30_rotated.json,http://54.235.29.9/FacialAge/BNav_EC2/DepthDuration/v2_depth_duration_MTurk/v2_DepthDuration_HTML.html#44,44,2133,1002,1920,1080,8-21-2022,8-47-22,143,depth_duration_stimuli/001555_2014-06-20_17-12-10_260595134347_rgbf000065-resize_4/001555_2014-06-20_17-12-10_260595134347_rgbf000065-resize_4-target.png,125,1.633,3.0,2048,124,feet,jsons/VE125_randls_30_rotated.json,505961,728261,43,Woman
143,709749,DepthScenes,duration_manipulation_targetAtFixation,jsons/VE125_randls_30_rotated.json,http://54.235.29.9/FacialAge/BNav_EC2/DepthDuration/v2_depth_duration_MTurk/v2_DepthDuration_HTML.html#44,44,2133,1002,1920,1080,8-21-2022,8-47-22,144,depth_duration_stimuli/001584_2014-06-20_11-07-43_260595134347_rgbf000002-resize_1/001584_2014-06-20_11-07-43_260595134347_rgbf000002-resize_1-target.png,125,3.53,3.0,1874,123,feet,jsons/VE125_randls_30_rotated.json,505961,728261,43,Woman
144,709749,DepthScenes,duration_manipulation_targetAtFixation,jsons/VE125_randls_30_rotated.json,http://54.235.29.9/FacialAge/BNav_EC2/DepthDuration/v2_depth_duration_MTurk/v2_DepthDuration_HTML.html#44,44,2133,1002,1920,1080,8-21-2022,8-47-22,145,depth_duration_stimuli/003621_2014-05-23_18-06-08_094959634447_rgbf000101-resize_1/003621_2014-05-23_18-06-08_094959634447_rgbf000101-resize_1-target.png,125,3.9835,4.0,2320,122,feet,jsons/VE125_randls_30_rotated.json,505961,728261,43,Woman
145,709749,DepthScenes,duration_manipulation_targetAtFixation,jsons/VE125_randls_30_rotated.json,http://54.235.29.9/FacialAge/BNav_EC2/DepthDuration/v2_depth_duration_MTurk/v2_DepthDuration_HTML.html#44,44,2133,1002,1920,1080,8-21-2022,8-47-22,146,depth_duration_stimuli/001052_2014-06-08_18-24-54_260595134347_rgbf000130-resize_1/001052_2014-06-08_18-24-54_260595134347_rgbf000130-resize_1-target.png,125,4.1045,6.0,2701,125,feet,jsons/VE125_randls_30_rotated.json,505961,728261,43,Woman
146,709749,DepthScenes,duration_manipulation_targetAtFixation,jsons/VE125_randls_30_rotated.json,http://54.235.29.9/FacialAge/BNav_EC2/DepthDuration/v2_depth_duration_MTurk/v2_DepthDuration_HTML.html#44,44,2133,1002,1920,1080,8-21-2022,8-47-22,147,depth_duration_stimuli/002988_2014-06-15_12-24-20_094959634447_rgbf000150-resize_1/002988_2014-06-15_12-24-20_094959634447_rgbf000150-resize_1-target.png,125,4.7669999999999995,6.0,2824,123,feet,jsons/VE125_randls_30_rotated.json,505961,728261,43,Woman
147,709749,DepthScenes,duration_manipulation_targetAtFixation,jsons/VE125_randls_30_rotated.json,http://54.235.29.9/FacialAge/BNav_EC2/DepthDuration/v2_depth_duration_MTurk/v2_DepthDuration_HTML.html#44,44,2133,1002,1920,1080,8-21-2022,8-47-22,148,depth_duration_stimuli/001094_2014-06-15_17-36-00_260595134347_rgbf000205-resize_0/001094_2014-06-15_17-36-00_260595134347_rgbf000205-resize_0-target.png,125,4.2175,4.0,1969,124,feet,jsons/VE125_randls_30_rotated.json,505961,728261,43,Woman
148,709749,DepthScenes,duration_manipulation_targetAtFixation,jsons/VE125_randls_30_rotated.json,http://54.235.29.9/FacialAge/BNav_EC2/DepthDuration/v2_depth_duration_MTurk/v2_DepthDuration_HTML.html#44,44,2133,1002,1920,1080,8-21-2022,8-47-22,149,depth_duration_stimuli/000692_2014-06-08_13-09-42_260595134347_rgbf000199-resize_2/000692_2014-06-08_13-09-42_260595134347_rgbf000199-resize_2-target.png,125,3.661,4.0,1605,125,feet,jsons/VE125_randls_30_rotated.json,505961,728261,43,Woman
149,709749,DepthScenes,duration_manipulation_targetAtFixation,jsons/VE125_randls_30_rotated.json,http://54.235.29.9/FacialAge/BNav_EC2/DepthDuration/v2_depth_duration_MTurk/v2_DepthDuration_HTML.html#44,44,2133,1002,1920,1080,8-21-2022,8-47-22,150,depth_duration_stimuli/000109_2014-05-14_23-41-52_260595134347_rgbf000035-resize_9/000109_2014-05-14_23-41-52_260595134347_rgbf000035-resize_9-target.png,125,1.3545,3.0,2693,120,feet,jsons/VE125_randls_30_rotated.json,505961,728261,43,Woman
150,709749,DepthScenes,duration_manipulation_targetAtFixation,jsons/VE125_randls_30_rotated.json,http://54.235.29.9/FacialAge/BNav_EC2/DepthDuration/v2_depth_duration_MTurk/v2_DepthDuration_HTML.html#44,44,2133,1002,1920,1080,8-21-2022,8-47-22,151,depth_duration_stimuli/000470_2014-06-09_19-42-40_260595134347_rgbf000094-resize_1/000470_2014-06-09_19-42-40_260595134347_rgbf000094-resize_1-target.png,125,1.831,3.0,1628,123,feet,jsons/VE125_randls_30_rotated.json,505961,728261,43,Woman
151,709749,DepthScenes,duration_manipulation_targetAtFixation,jsons/VE125_randls_30_rotated.json,http://54.235.29.9/FacialAge/BNav_EC2/DepthDuration/v2_depth_duration_MTurk/v2_DepthDuration_HTML.html#44,44,2133,1002,1920,1080,8-21-2022,8-47-22,152,depth_duration_stimuli/000569_2014-06-09_22-51-47_260595134347_rgbf000141-resize_3/000569_2014-06-09_22-51-47_260595134347_rgbf000141-resize-original.jpg,125,4.512,0.0,3129,124,feet,jsons/VE125_randls_30_rotated.json,505961,728261,43,Woman
152,709749,DepthScenes,duration_manipulation_targetAtFixation,jsons/VE125_randls_30_rotated.json,http://54.235.29.9/FacialAge/BNav_EC2/DepthDuration/v2_depth_duration_MTurk/v2_DepthDuration_HTML.html#44,44,2133,1002,1920,1080,8-21-2022,8-47-22,153,depth_duration_stimuli/000635_2014-06-08_16-38-42_260595134347_rgbf000106-resize_1/000635_2014-06-08_16-38-42_260595134347_rgbf000106-resize_1-target.png,125,2.074,0.0,2048,126,feet,jsons/VE125_randls_30_rotated.json,505961,728261,43,Woman
153,709749,DepthScenes,duration_manipulation_targetAtFixation,jsons/VE125_randls_30_rotated.json,http://54.235.29.9/FacialAge/BNav_EC2/DepthDuration/v2_depth_duration_MTurk/v2_DepthDuration_HTML.html#44,44,2133,1002,1920,1080,8-21-2022,8-47-22,154,depth_duration_stimuli/002279_2014-06-28_18-55-32_260595134347_rgbf000040-resize_5/002279_2014-06-28_18-55-32_260595134347_rgbf000040-resize_5-target.png,125,1.5043333333333,3.0,2638,124,feet,jsons/VE125_randls_30_rotated.json,505961,728261,43,Woman
154,709749,DepthScenes,duration_manipulation_targetAtFixation,jsons/VE125_randls_30_rotated.json,http://54.235.29.9/FacialAge/BNav_EC2/DepthDuration/v2_depth_duration_MTurk/v2_DepthDuration_HTML.html#44,44,2133,1002,1920,1080,8-21-2022,8-47-22,155,depth_duration_stimuli/001032_2014-06-08_13-23-17_260595134347_rgbf000021-resize_3/001032_2014-06-08_13-23-17_260595134347_rgbf000021-resize_3-target.png,125,3.2725,3.0,1643,124,feet,jsons/VE125_randls_30_rotated.json,505961,728261,43,Woman
155,709749,DepthScenes,duration_manipulation_targetAtFixation,jsons/VE125_randls_30_rotated.json,http://54.235.29.9/FacialAge/BNav_EC2/DepthDuration/v2_depth_duration_MTurk/v2_DepthDuration_HTML.html#44,44,2133,1002,1920,1080,8-21-2022,8-47-22,156,depth_duration_stimuli/001059_2014-06-08_21-53-27_260595134347_rgbf000061-resize_4/001059_2014-06-08_21-53-27_260595134347_rgbf000061-resize_4-target.png,125,2.4185,3.0,1726,123,feet,jsons/VE125_randls_30_rotated.json,505961,728261,43,Woman
156,709749,DepthScenes,duration_manipulation_targetAtFixation,jsons/VE125_randls_30_rotated.json,http://54.235.29.9/FacialAge/BNav_EC2/DepthDuration/v2_depth_duration_MTurk/v2_DepthDuration_HTML.html#44,44,2133,1002,1920,1080,8-21-2022,8-47-22,157,depth_duration_stimuli/001136_2014-06-17_15-19-41_260595134347_rgbf000076-resize_3/001136_2014-06-17_15-19-41_260595134347_rgbf000076-resize_3-target.png,125,1.8655,4.0,1995,124,feet,jsons/VE125_randls_30_rotated.json,505961,728261,43,Woman
157,709749,DepthScenes,duration_manipulation_targetAtFixation,jsons/VE125_randls_30_rotated.json,http://54.235.29.9/FacialAge/BNav_EC2/DepthDuration/v2_depth_duration_MTurk/v2_DepthDuration_HTML.html#44,44,2133,1002,1920,1080,8-21-2022,8-47-22,158,depth_duration_stimuli/001164_2014-06-17_15-35-46_260595134347_rgbf000085-resize_3/001164_2014-06-17_15-35-46_260595134347_rgbf000085-resize_3-target.png,125,2.354,5.0,4726,124,feet,jsons/VE125_randls_30_rotated.json,505961,728261,43,Woman
158,709749,DepthScenes,duration_manipulation_targetAtFixation,jsons/VE125_randls_30_rotated.json,http://54.235.29.9/FacialAge/BNav_EC2/DepthDuration/v2_depth_duration_MTurk/v2_DepthDuration_HTML.html#44,44,2133,1002,1920,1080,8-21-2022,8-47-22,159,depth_duration_stimuli/001617_2014-06-20_11-35-32_260595134347_rgbf000066-resize_1/001617_2014-06-20_11-35-32_260595134347_rgbf000066-resize_1-target.png,125,3.7910000000000004,5.0,1907,123,feet,jsons/VE125_randls_30_rotated.json,505961,728261,43,Woman
159,709749,DepthScenes,duration_manipulation_targetAtFixation,jsons/VE125_randls_30_rotated.json,http://54.235.29.9/FacialAge/BNav_EC2/DepthDuration/v2_depth_duration_MTurk/v2_DepthDuration_HTML.html#44,44,2133,1002,1920,1080,8-21-2022,8-47-22,160,depth_duration_stimuli/001806_2014-06-26_20-50-20_260595134347_rgbf000091-resize_1/001806_2014-06-26_20-50-20_260595134347_rgbf000091-resize_1-target.png,125,2.7305,3.0,3044,125,feet,jsons/VE125_randls_30_rotated.json,505961,728261,43,Woman
160,709749,DepthScenes,duration_manipulation_targetAtFixation,jsons/VE125_randls_30_rotated.json,http://54.235.29.9/FacialAge/BNav_EC2/DepthDuration/v2_depth_duration_MTurk/v2_DepthDuration_HTML.html#44,44,2133,1002,1920,1080,8-21-2022,8-47-22,161,depth_duration_stimuli/003079_2014-06-15_15-18-20_094959634447_rgbf000152-resize_8/003079_2014-06-15_15-18-20_094959634447_rgbf000152-resize_8-target.png,125,2.8775,6.0,4668,125,feet,jsons/VE125_randls_30_rotated.json,505961,728261,43,Woman
161,709749,DepthScenes,duration_manipulation_targetAtFixation,jsons/VE125_randls_30_rotated.json,http://54.235.29.9/FacialAge/BNav_EC2/DepthDuration/v2_depth_duration_MTurk/v2_DepthDuration_HTML.html#44,44,2133,1002,1920,1080,8-21-2022,8-47-22,162,depth_duration_stimuli/000506_2014-06-08_23-21-00_260595134347_rgbf000070-resize_7/000506_2014-06-08_23-21-00_260595134347_rgbf000070-resize_7-target.png,125,4.0585,5.0,3399,125,feet,jsons/VE125_randls_30_rotated.json,505961,728261,43,Woman
162,709749,DepthScenes,duration_manipulation_targetAtFixation,jsons/VE125_randls_30_rotated.json,http://54.235.29.9/FacialAge/BNav_EC2/DepthDuration/v2_depth_duration_MTurk/v2_DepthDuration_HTML.html#44,44,2133,1002,1920,1080,8-21-2022,8-47-22,163,depth_duration_stimuli/002467_2014-06-28_20-38-07_260595134347_rgbf000026-resize_2/002467_2014-06-28_20-38-07_260595134347_rgbf000026-resize_2-target.png,125,4.742,5.0,1542,123,feet,jsons/VE125_randls_30_rotated.json,505961,728261,43,Woman
163,709749,DepthScenes,duration_manipulation_targetAtFixation,jsons/VE125_randls_30_rotated.json,http://54.235.29.9/FacialAge/BNav_EC2/DepthDuration/v2_depth_duration_MTurk/v2_DepthDuration_HTML.html#44,44,2133,1002,1920,1080,8-21-2022,8-47-22,164,depth_duration_stimuli/002570_2014-06-24_13-59-54_094959634447_rgbf000059-resize_0/002570_2014-06-24_13-59-54_094959634447_rgbf000059-resize_0-target.png,125,4.037,1.0,3904,123,feet,jsons/VE125_randls_30_rotated.json,505961,728261,43,Woman
