,subjID,experimentName,versionName,sequenceName,url,selected_row,windowWidth,windowHeight,screenWidth,screenHeight,startDate,startTime,trial,stimulus,duration,actual_depth,depth_estimate,trial_RT,log_sceneDuration,unitSelection,seq_filepath,experimentTime,totalTime,age,gender
0,710702,DepthScenes,duration_manipulation_targetAtFixation,jsons/v1_VE250_randls_41.json,http://54.235.29.9/FacialAge/BNav_EC2/DepthDuration/v2_depth_duration_MTurk/v2_DepthDuration_HTML.html#403,403,1366,625,1366,768,8-29-2022,10-54-59,1,depth_duration_stimuli/002213_2014-06-28_18-37-58_260595134347_rgbf000055-resize_1/002213_2014-06-28_18-37-58_260595134347_rgbf000055-resize_1-target.png,250,3.62,2,3075,249,feet,jsons/v1_VE250_randls_41.json,872439,1024566,32,Man
1,710702,DepthScenes,duration_manipulation_targetAtFixation,jsons/v1_VE250_randls_41.json,http://54.235.29.9/FacialAge/BNav_EC2/DepthDuration/v2_depth_duration_MTurk/v2_DepthDuration_HTML.html#403,403,1366,625,1366,768,8-29-2022,10-54-59,2,depth_duration_stimuli/000691_2014-06-08_13-08-50_260595134347_rgbf000132-resize_3/000691_2014-06-08_13-08-50_260595134347_rgbf000132-resize_3-target.png,250,4.1530000000000005,3,3300,251,feet,jsons/v1_VE250_randls_41.json,872439,1024566,32,Man
2,710702,DepthScenes,duration_manipulation_targetAtFixation,jsons/v1_VE250_randls_41.json,http://54.235.29.9/FacialAge/BNav_EC2/DepthDuration/v2_depth_duration_MTurk/v2_DepthDuration_HTML.html#403,403,1366,625,1366,768,8-29-2022,10-54-59,3,depth_duration_stimuli/001055_2014-06-08_18-45-35_260595134347_rgbf000111-resize_4/001055_2014-06-08_18-45-35_260595134347_rgbf000111-resize_4-target.png,250,2.4290000000000003,5,2786,234,feet,jsons/v1_VE250_randls_41.json,872439,1024566,32,Man
3,710702,DepthScenes,duration_manipulation_targetAtFixation,jsons/v1_VE250_randls_41.json,http://54.235.29.9/FacialAge/BNav_EC2/DepthDuration/v2_depth_duration_MTurk/v2_DepthDuration_HTML.html#403,403,1366,625,1366,768,8-29-2022,10-54-59,4,depth_duration_stimuli/000549_2014-06-08_22-10-24_260595134347_rgbf000247-resize_3/000549_2014-06-08_22-10-24_260595134347_rgbf000247-resize_3-target.png,250,1.841,3,2879,240,feet,jsons/v1_VE250_randls_41.json,872439,1024566,32,Man
4,710702,DepthScenes,duration_manipulation_targetAtFixation,jsons/v1_VE250_randls_41.json,http://54.235.29.9/FacialAge/BNav_EC2/DepthDuration/v2_depth_duration_MTurk/v2_DepthDuration_HTML.html#403,403,1366,625,1366,768,8-29-2022,10-54-59,5,depth_duration_stimuli/002509_2014-06-24_13-19-22_094959634447_rgbf000077-resize_0/002509_2014-06-24_13-19-22_094959634447_rgbf000077-resize_0-target.png,250,1.3065,3,2540,261,feet,jsons/v1_VE250_randls_41.json,872439,1024566,32,Man
5,710702,DepthScenes,duration_manipulation_targetAtFixation,jsons/v1_VE250_randls_41.json,http://54.235.29.9/FacialAge/BNav_EC2/DepthDuration/v2_depth_duration_MTurk/v2_DepthDuration_HTML.html#403,403,1366,625,1366,768,8-29-2022,10-54-59,6,depth_duration_stimuli/003338_2014-05-20_11-01-23_094959634447_rgbf000051-resize_6/003338_2014-05-20_11-01-23_094959634447_rgbf000051-resize_6-target.png,250,1.693,5,2337,249,feet,jsons/v1_VE250_randls_41.json,872439,1024566,32,Man
6,710702,DepthScenes,duration_manipulation_targetAtFixation,jsons/v1_VE250_randls_41.json,http://54.235.29.9/FacialAge/BNav_EC2/DepthDuration/v2_depth_duration_MTurk/v2_DepthDuration_HTML.html#403,403,1366,625,1366,768,8-29-2022,10-54-59,7,depth_duration_stimuli/001167_2014-06-17_15-38-07_260595134347_rgbf000108-resize_0/001167_2014-06-17_15-38-07_260595134347_rgbf000108-resize_0-target.png,250,1.8505,5,2356,243,feet,jsons/v1_VE250_randls_41.json,872439,1024566,32,Man
7,710702,DepthScenes,duration_manipulation_targetAtFixation,jsons/v1_VE250_randls_41.json,http://54.235.29.9/FacialAge/BNav_EC2/DepthDuration/v2_depth_duration_MTurk/v2_DepthDuration_HTML.html#403,403,1366,625,1366,768,8-29-2022,10-54-59,8,depth_duration_stimuli/003587_2014-05-23_16-48-02_094959634447_rgbf002384-resize_2/003587_2014-05-23_16-48-02_094959634447_rgbf002384-resize_2-target.png,250,1.357,3,3087,247,feet,jsons/v1_VE250_randls_41.json,872439,1024566,32,Man
8,710702,DepthScenes,duration_manipulation_targetAtFixation,jsons/v1_VE250_randls_41.json,http://54.235.29.9/FacialAge/BNav_EC2/DepthDuration/v2_depth_duration_MTurk/v2_DepthDuration_HTML.html#403,403,1366,625,1366,768,8-29-2022,10-54-59,9,depth_duration_stimuli/002445_2014-06-28_20-32-16_260595134347_rgbf000029-resize_4/002445_2014-06-28_20-32-16_260595134347_rgbf000029-resize_4-target.png,250,2.5315,5,2509,246,feet,jsons/v1_VE250_randls_41.json,872439,1024566,32,Man
9,710702,DepthScenes,duration_manipulation_targetAtFixation,jsons/v1_VE250_randls_41.json,http://54.235.29.9/FacialAge/BNav_EC2/DepthDuration/v2_depth_duration_MTurk/v2_DepthDuration_HTML.html#403,403,1366,625,1366,768,8-29-2022,10-54-59,10,depth_duration_stimuli/000780_2014-06-08_22-28-29_260595134347_rgbf000126-resize_1/000780_2014-06-08_22-28-29_260595134347_rgbf000126-resize_1-target.png,250,3.3825,5,6193,313,feet,jsons/v1_VE250_randls_41.json,872439,1024566,32,Man
10,710702,DepthScenes,duration_manipulation_targetAtFixation,jsons/v1_VE250_randls_41.json,http://54.235.29.9/FacialAge/BNav_EC2/DepthDuration/v2_depth_duration_MTurk/v2_DepthDuration_HTML.html#403,403,1366,625,1366,768,8-29-2022,10-54-59,11,depth_duration_stimuli/000929_2014-06-09_16-33-19_260595134347_rgbf000139-resize_0/000929_2014-06-09_16-33-19_260595134347_rgbf000139-resize_0-target.png,250,2.8680000000000003,5,3291,243,feet,jsons/v1_VE250_randls_41.json,872439,1024566,32,Man
11,710702,DepthScenes,duration_manipulation_targetAtFixation,jsons/v1_VE250_randls_41.json,http://54.235.29.9/FacialAge/BNav_EC2/DepthDuration/v2_depth_duration_MTurk/v2_DepthDuration_HTML.html#403,403,1366,625,1366,768,8-29-2022,10-54-59,12,depth_duration_stimuli/000457_2014-06-08_16-52-43_260595134347_rgbf000199-resize_1/000457_2014-06-08_16-52-43_260595134347_rgbf000199-resize_1-target.png,250,3.6489999999999996,6,3319,250,feet,jsons/v1_VE250_randls_41.json,872439,1024566,32,Man
12,710702,DepthScenes,duration_manipulation_targetAtFixation,jsons/v1_VE250_randls_41.json,http://54.235.29.9/FacialAge/BNav_EC2/DepthDuration/v2_depth_duration_MTurk/v2_DepthDuration_HTML.html#403,403,1366,625,1366,768,8-29-2022,10-54-59,13,depth_duration_stimuli/000569_2014-06-09_22-51-47_260595134347_rgbf000141-resize_3/000569_2014-06-09_22-51-47_260595134347_rgbf000141-resize-original.jpg,250,4.512,0,3015,241,feet,jsons/v1_VE250_randls_41.json,872439,1024566,32,Man
13,710702,DepthScenes,duration_manipulation_targetAtFixation,jsons/v1_VE250_randls_41.json,http://54.235.29.9/FacialAge/BNav_EC2/DepthDuration/v2_depth_duration_MTurk/v2_DepthDuration_HTML.html#403,403,1366,625,1366,768,8-29-2022,10-54-59,14,depth_duration_stimuli/000447_2014-06-08_16-15-46_260595134347_rgbf000130-resize_1/000447_2014-06-08_16-15-46_260595134347_rgbf000130-resize_1-target.png,250,4.479,5,2857,249,feet,jsons/v1_VE250_randls_41.json,872439,1024566,32,Man
14,710702,DepthScenes,duration_manipulation_targetAtFixation,jsons/v1_VE250_randls_41.json,http://54.235.29.9/FacialAge/BNav_EC2/DepthDuration/v2_depth_duration_MTurk/v2_DepthDuration_HTML.html#403,403,1366,625,1366,768,8-29-2022,10-54-59,15,depth_duration_stimuli/001447_2014-06-19_17-00-32_260595134347_rgbf000082-resize_5/001447_2014-06-19_17-00-32_260595134347_rgbf000082-resize_5-target.png,250,4.13775,5,2777,166,feet,jsons/v1_VE250_randls_41.json,872439,1024566,32,Man
15,710702,DepthScenes,duration_manipulation_targetAtFixation,jsons/v1_VE250_randls_41.json,http://54.235.29.9/FacialAge/BNav_EC2/DepthDuration/v2_depth_duration_MTurk/v2_DepthDuration_HTML.html#403,403,1366,625,1366,768,8-29-2022,10-54-59,16,depth_duration_stimuli/002375_2014-06-28_20-13-44_260595134347_rgbf000032-resize_1/002375_2014-06-28_20-13-44_260595134347_rgbf000032-resize_1-target.png,250,4.0175,5,2713,275,feet,jsons/v1_VE250_randls_41.json,872439,1024566,32,Man
16,710702,DepthScenes,duration_manipulation_targetAtFixation,jsons/v1_VE250_randls_41.json,http://54.235.29.9/FacialAge/BNav_EC2/DepthDuration/v2_depth_duration_MTurk/v2_DepthDuration_HTML.html#403,403,1366,625,1366,768,8-29-2022,10-54-59,17,depth_duration_stimuli/002657_2014-06-13_15-29-54_094959634447_rgbf000150-resize_1/002657_2014-06-13_15-29-54_094959634447_rgbf000150-resize_1-target.png,250,4.919,5,2369,250,feet,jsons/v1_VE250_randls_41.json,872439,1024566,32,Man
17,710702,DepthScenes,duration_manipulation_targetAtFixation,jsons/v1_VE250_randls_41.json,http://54.235.29.9/FacialAge/BNav_EC2/DepthDuration/v2_depth_duration_MTurk/v2_DepthDuration_HTML.html#403,403,1366,625,1366,768,8-29-2022,10-54-59,18,depth_duration_stimuli/001016_2014-06-09_16-16-10_260595134347_rgbf000112-resize_5/001016_2014-06-09_16-16-10_260595134347_rgbf000112-resize_5-target.png,250,1.6565,6,4122,244,feet,jsons/v1_VE250_randls_41.json,872439,1024566,32,Man
18,710702,DepthScenes,duration_manipulation_targetAtFixation,jsons/v1_VE250_randls_41.json,http://54.235.29.9/FacialAge/BNav_EC2/DepthDuration/v2_depth_duration_MTurk/v2_DepthDuration_HTML.html#403,403,1366,625,1366,768,8-29-2022,10-54-59,19,depth_duration_stimuli/002340_2014-06-28_20-05-46_260595134347_rgbf000113-resize_0/002340_2014-06-28_20-05-46_260595134347_rgbf000113-resize_0-target.png,250,2.4735,6,2876,240,feet,jsons/v1_VE250_randls_41.json,872439,1024566,32,Man
19,710702,DepthScenes,duration_manipulation_targetAtFixation,jsons/v1_VE250_randls_41.json,http://54.235.29.9/FacialAge/BNav_EC2/DepthDuration/v2_depth_duration_MTurk/v2_DepthDuration_HTML.html#403,403,1366,625,1366,768,8-29-2022,10-54-59,20,depth_duration_stimuli/002788_2014-06-22_19-36-03_094959634447_rgbf000088-resize_2/002788_2014-06-22_19-36-03_094959634447_rgbf000088-resize_2-target.png,250,1.6465,5,288321,251,feet,jsons/v1_VE250_randls_41.json,872439,1024566,32,Man
20,710702,DepthScenes,duration_manipulation_targetAtFixation,jsons/v1_VE250_randls_41.json,http://54.235.29.9/FacialAge/BNav_EC2/DepthDuration/v2_depth_duration_MTurk/v2_DepthDuration_HTML.html#403,403,1366,625,1366,768,8-29-2022,10-54-59,21,depth_duration_stimuli/000749_2014-06-08_21-55-06_260595134347_rgbf000070-resize_2/000749_2014-06-08_21-55-06_260595134347_rgbf000070-resize_2-target.png,250,2.331,5,2297,251,feet,jsons/v1_VE250_randls_41.json,872439,1024566,32,Man
21,710702,DepthScenes,duration_manipulation_targetAtFixation,jsons/v1_VE250_randls_41.json,http://54.235.29.9/FacialAge/BNav_EC2/DepthDuration/v2_depth_duration_MTurk/v2_DepthDuration_HTML.html#403,403,1366,625,1366,768,8-29-2022,10-54-59,22,depth_duration_stimuli/000436_2014-06-09_22-25-11_260595134347_rgbf000137-resize_1/000436_2014-06-09_22-25-11_260595134347_rgbf000137-resize_1-target.png,250,4.0705,5,2579,258,feet,jsons/v1_VE250_randls_41.json,872439,1024566,32,Man
22,710702,DepthScenes,duration_manipulation_targetAtFixation,jsons/v1_VE250_randls_41.json,http://54.235.29.9/FacialAge/BNav_EC2/DepthDuration/v2_depth_duration_MTurk/v2_DepthDuration_HTML.html#403,403,1366,625,1366,768,8-29-2022,10-54-59,23,depth_duration_stimuli/002444_2014-06-28_20-32-08_260595134347_rgbf000027-resize_0/002444_2014-06-28_20-32-08_260595134347_rgbf000027-resize_0-target.png,250,4.388999999999999,6,2724,246,feet,jsons/v1_VE250_randls_41.json,872439,1024566,32,Man
23,710702,DepthScenes,duration_manipulation_targetAtFixation,jsons/v1_VE250_randls_41.json,http://54.235.29.9/FacialAge/BNav_EC2/DepthDuration/v2_depth_duration_MTurk/v2_DepthDuration_HTML.html#403,403,1366,625,1366,768,8-29-2022,10-54-59,24,depth_duration_stimuli/002600_2014-06-24_14-27-04_094959634447_rgbf000074-resize_2/002600_2014-06-24_14-27-04_094959634447_rgbf000074-resize_2-target.png,250,2.7575,3,4116,244,feet,jsons/v1_VE250_randls_41.json,872439,1024566,32,Man
24,710702,DepthScenes,duration_manipulation_targetAtFixation,jsons/v1_VE250_randls_41.json,http://54.235.29.9/FacialAge/BNav_EC2/DepthDuration/v2_depth_duration_MTurk/v2_DepthDuration_HTML.html#403,403,1366,625,1366,768,8-29-2022,10-54-59,25,depth_duration_stimuli/003228_2014-05-14_13-42-35_094959634447_rgbf000101-resize_1/003228_2014-05-14_13-42-35_094959634447_rgbf000101-resize_1-target.png,250,1.9680000000000002,3,2462,238,feet,jsons/v1_VE250_randls_41.json,872439,1024566,32,Man
25,710702,DepthScenes,duration_manipulation_targetAtFixation,jsons/v1_VE250_randls_41.json,http://54.235.29.9/FacialAge/BNav_EC2/DepthDuration/v2_depth_duration_MTurk/v2_DepthDuration_HTML.html#403,403,1366,625,1366,768,8-29-2022,10-54-59,26,depth_duration_stimuli/001175_2014-06-17_15-45-55_260595134347_rgbf000129-resize_4/001175_2014-06-17_15-45-55_260595134347_rgbf000129-resize_4-target.png,250,4.255,6,5328,243,feet,jsons/v1_VE250_randls_41.json,872439,1024566,32,Man
26,710702,DepthScenes,duration_manipulation_targetAtFixation,jsons/v1_VE250_randls_41.json,http://54.235.29.9/FacialAge/BNav_EC2/DepthDuration/v2_depth_duration_MTurk/v2_DepthDuration_HTML.html#403,403,1366,625,1366,768,8-29-2022,10-54-59,27,depth_duration_stimuli/003490_2014-05-21_15-50-11_094959634447_rgbf000101-resize_3/003490_2014-05-21_15-50-11_094959634447_rgbf000101-resize_3-target.png,250,3.6445,6,3062,250,feet,jsons/v1_VE250_randls_41.json,872439,1024566,32,Man
27,710702,DepthScenes,duration_manipulation_targetAtFixation,jsons/v1_VE250_randls_41.json,http://54.235.29.9/FacialAge/BNav_EC2/DepthDuration/v2_depth_duration_MTurk/v2_DepthDuration_HTML.html#403,403,1366,625,1366,768,8-29-2022,10-54-59,28,depth_duration_stimuli/001164_2014-06-17_15-35-46_260595134347_rgbf000085-resize_3/001164_2014-06-17_15-35-46_260595134347_rgbf000085-resize_3-target.png,250,2.354,4,3122,257,feet,jsons/v1_VE250_randls_41.json,872439,1024566,32,Man
28,710702,DepthScenes,duration_manipulation_targetAtFixation,jsons/v1_VE250_randls_41.json,http://54.235.29.9/FacialAge/BNav_EC2/DepthDuration/v2_depth_duration_MTurk/v2_DepthDuration_HTML.html#403,403,1366,625,1366,768,8-29-2022,10-54-59,29,depth_duration_stimuli/001136_2014-06-17_15-19-41_260595134347_rgbf000076-resize_3/001136_2014-06-17_15-19-41_260595134347_rgbf000076-resize_3-target.png,250,1.8655,7,2997,277,feet,jsons/v1_VE250_randls_41.json,872439,1024566,32,Man
29,710702,DepthScenes,duration_manipulation_targetAtFixation,jsons/v1_VE250_randls_41.json,http://54.235.29.9/FacialAge/BNav_EC2/DepthDuration/v2_depth_duration_MTurk/v2_DepthDuration_HTML.html#403,403,1366,625,1366,768,8-29-2022,10-54-59,30,depth_duration_stimuli/000375_2014-06-08_11-17-29_260595134347_rgbf000133-resize_2/000375_2014-06-08_11-17-29_260595134347_rgbf000133-resize-original.jpg,250,4.718,0,2559,252,feet,jsons/v1_VE250_randls_41.json,872439,1024566,32,Man
30,710702,DepthScenes,duration_manipulation_targetAtFixation,jsons/v1_VE250_randls_41.json,http://54.235.29.9/FacialAge/BNav_EC2/DepthDuration/v2_depth_duration_MTurk/v2_DepthDuration_HTML.html#403,403,1366,625,1366,768,8-29-2022,10-54-59,31,depth_duration_stimuli/002748_2014-06-22_19-07-22_094959634447_rgbf000078-resize_1/002748_2014-06-22_19-07-22_094959634447_rgbf000078-resize_1-target.png,250,4.6705,8,4210,273,feet,jsons/v1_VE250_randls_41.json,872439,1024566,32,Man
31,710702,DepthScenes,duration_manipulation_targetAtFixation,jsons/v1_VE250_randls_41.json,http://54.235.29.9/FacialAge/BNav_EC2/DepthDuration/v2_depth_duration_MTurk/v2_DepthDuration_HTML.html#403,403,1366,625,1366,768,8-29-2022,10-54-59,32,depth_duration_stimuli/002995_2014-06-15_12-31-26_094959634447_rgbf000150-resize_1/002995_2014-06-15_12-31-26_094959634447_rgbf000150-resize_1-target.png,250,3.8360000000000003,8,2101,259,feet,jsons/v1_VE250_randls_41.json,872439,1024566,32,Man
32,710702,DepthScenes,duration_manipulation_targetAtFixation,jsons/v1_VE250_randls_41.json,http://54.235.29.9/FacialAge/BNav_EC2/DepthDuration/v2_depth_duration_MTurk/v2_DepthDuration_HTML.html#403,403,1366,625,1366,768,8-29-2022,10-54-59,33,depth_duration_stimuli/000810_2014-06-08_17-20-01_260595134347_rgbf000105-resize_0/000810_2014-06-08_17-20-01_260595134347_rgbf000105-resize_0-target.png,250,1.4865,5,4907,343,feet,jsons/v1_VE250_randls_41.json,872439,1024566,32,Man
33,710702,DepthScenes,duration_manipulation_targetAtFixation,jsons/v1_VE250_randls_41.json,http://54.235.29.9/FacialAge/BNav_EC2/DepthDuration/v2_depth_duration_MTurk/v2_DepthDuration_HTML.html#403,403,1366,625,1366,768,8-29-2022,10-54-59,34,depth_duration_stimuli/001214_2014-06-17_16-13-55_260595134347_rgbf000111-resize_0/001214_2014-06-17_16-13-55_260595134347_rgbf000111-resize_0-target.png,250,2.6505,3,2819,259,feet,jsons/v1_VE250_randls_41.json,872439,1024566,32,Man
34,710702,DepthScenes,duration_manipulation_targetAtFixation,jsons/v1_VE250_randls_41.json,http://54.235.29.9/FacialAge/BNav_EC2/DepthDuration/v2_depth_duration_MTurk/v2_DepthDuration_HTML.html#403,403,1366,625,1366,768,8-29-2022,10-54-59,35,depth_duration_stimuli/001150_2014-06-17_15-27-34_260595134347_rgbf000108-resize_2/001150_2014-06-17_15-27-34_260595134347_rgbf000108-resize_2-target.png,250,4.0325,8,2526,250,feet,jsons/v1_VE250_randls_41.json,872439,1024566,32,Man
35,710702,DepthScenes,duration_manipulation_targetAtFixation,jsons/v1_VE250_randls_41.json,http://54.235.29.9/FacialAge/BNav_EC2/DepthDuration/v2_depth_duration_MTurk/v2_DepthDuration_HTML.html#403,403,1366,625,1366,768,8-29-2022,10-54-59,36,depth_duration_stimuli/000665_2014-06-09_20-42-35_260595134347_rgbf000110-resize_1/000665_2014-06-09_20-42-35_260595134347_rgbf000110-resize_1-target.png,250,3.057,8,2094,242,feet,jsons/v1_VE250_randls_41.json,872439,1024566,32,Man
36,710702,DepthScenes,duration_manipulation_targetAtFixation,jsons/v1_VE250_randls_41.json,http://54.235.29.9/FacialAge/BNav_EC2/DepthDuration/v2_depth_duration_MTurk/v2_DepthDuration_HTML.html#403,403,1366,625,1366,768,8-29-2022,10-54-59,37,depth_duration_stimuli/003292_2014-05-14_21-53-49_094959634447_rgbf000100-resize_2/003292_2014-05-14_21-53-49_094959634447_rgbf000100-resize_2-target.png,250,3.4815,8,2380,239,feet,jsons/v1_VE250_randls_41.json,872439,1024566,32,Man
37,710702,DepthScenes,duration_manipulation_targetAtFixation,jsons/v1_VE250_randls_41.json,http://54.235.29.9/FacialAge/BNav_EC2/DepthDuration/v2_depth_duration_MTurk/v2_DepthDuration_HTML.html#403,403,1366,625,1366,768,8-29-2022,10-54-59,38,depth_duration_stimuli/002639_2014-06-24_14-51-37_094959634447_rgbf000074-resize_4/002639_2014-06-24_14-51-37_094959634447_rgbf000074-resize_4-target.png,250,4.0375,8,3519,253,feet,jsons/v1_VE250_randls_41.json,872439,1024566,32,Man
38,710702,DepthScenes,duration_manipulation_targetAtFixation,jsons/v1_VE250_randls_41.json,http://54.235.29.9/FacialAge/BNav_EC2/DepthDuration/v2_depth_duration_MTurk/v2_DepthDuration_HTML.html#403,403,1366,625,1366,768,8-29-2022,10-54-59,39,depth_duration_stimuli/001555_2014-06-20_17-12-10_260595134347_rgbf000065-resize_4/001555_2014-06-20_17-12-10_260595134347_rgbf000065-resize_4-target.png,250,1.633,2,2570,254,feet,jsons/v1_VE250_randls_41.json,872439,1024566,32,Man
39,710702,DepthScenes,duration_manipulation_targetAtFixation,jsons/v1_VE250_randls_41.json,http://54.235.29.9/FacialAge/BNav_EC2/DepthDuration/v2_depth_duration_MTurk/v2_DepthDuration_HTML.html#403,403,1366,625,1366,768,8-29-2022,10-54-59,40,depth_duration_stimuli/000103_2014-05-14_22-01-17_260595134347_rgbf000152-resize_5/000103_2014-05-14_22-01-17_260595134347_rgbf000152-resize_5-target.png,250,1.993,6,4432,246,feet,jsons/v1_VE250_randls_41.json,872439,1024566,32,Man
40,710702,DepthScenes,duration_manipulation_targetAtFixation,jsons/v1_VE250_randls_41.json,http://54.235.29.9/FacialAge/BNav_EC2/DepthDuration/v2_depth_duration_MTurk/v2_DepthDuration_HTML.html#403,403,1366,625,1366,768,8-29-2022,10-54-59,41,depth_duration_stimuli/001158_2014-06-17_15-32-16_260595134347_rgbf000138-resize_2/001158_2014-06-17_15-32-16_260595134347_rgbf000138-resize_2-target.png,250,4.5315,8,2832,245,feet,jsons/v1_VE250_randls_41.json,872439,1024566,32,Man
41,710702,DepthScenes,duration_manipulation_targetAtFixation,jsons/v1_VE250_randls_41.json,http://54.235.29.9/FacialAge/BNav_EC2/DepthDuration/v2_depth_duration_MTurk/v2_DepthDuration_HTML.html#403,403,1366,625,1366,768,8-29-2022,10-54-59,42,depth_duration_stimuli/000556_2014-06-09_22-42-56_260595134347_rgbf000214-resize_1/000556_2014-06-09_22-42-56_260595134347_rgbf000214-resize_1-target.png,250,4.8415,3,2745,251,feet,jsons/v1_VE250_randls_41.json,872439,1024566,32,Man
42,710702,DepthScenes,duration_manipulation_targetAtFixation,jsons/v1_VE250_randls_41.json,http://54.235.29.9/FacialAge/BNav_EC2/DepthDuration/v2_depth_duration_MTurk/v2_DepthDuration_HTML.html#403,403,1366,625,1366,768,8-29-2022,10-54-59,43,depth_duration_stimuli/002905_2014-06-03_18-04-43_094959634447_rgbf000151-resize_2/002905_2014-06-03_18-04-43_094959634447_rgbf000151-resize_2-target.png,250,2.0295,3,2356,132,feet,jsons/v1_VE250_randls_41.json,872439,1024566,32,Man
43,710702,DepthScenes,duration_manipulation_targetAtFixation,jsons/v1_VE250_randls_41.json,http://54.235.29.9/FacialAge/BNav_EC2/DepthDuration/v2_depth_duration_MTurk/v2_DepthDuration_HTML.html#403,403,1366,625,1366,768,8-29-2022,10-54-59,44,depth_duration_stimuli/003423_2014-05-21_10-23-26_094959634447_rgbf002665-resize_2/003423_2014-05-21_10-23-26_094959634447_rgbf002665-resize_2-target.png,250,3.2575,3,4650,250,feet,jsons/v1_VE250_randls_41.json,872439,1024566,32,Man
44,710702,DepthScenes,duration_manipulation_targetAtFixation,jsons/v1_VE250_randls_41.json,http://54.235.29.9/FacialAge/BNav_EC2/DepthDuration/v2_depth_duration_MTurk/v2_DepthDuration_HTML.html#403,403,1366,625,1366,768,8-29-2022,10-54-59,45,depth_duration_stimuli/000787_2014-06-08_22-33-53_260595134347_rgbf000175-resize_1/000787_2014-06-08_22-33-53_260595134347_rgbf000175-resize-original.jpg,250,4.784,3,2323,17,feet,jsons/v1_VE250_randls_41.json,872439,1024566,32,Man
45,710702,DepthScenes,duration_manipulation_targetAtFixation,jsons/v1_VE250_randls_41.json,http://54.235.29.9/FacialAge/BNav_EC2/DepthDuration/v2_depth_duration_MTurk/v2_DepthDuration_HTML.html#403,403,1366,625,1366,768,8-29-2022,10-54-59,46,depth_duration_stimuli/001570_2014-06-20_17-21-09_260595134347_rgbf000135-resize_4/001570_2014-06-20_17-21-09_260595134347_rgbf000135-resize_4-target.png,250,4.467,6,2908,247,feet,jsons/v1_VE250_randls_41.json,872439,1024566,32,Man
46,710702,DepthScenes,duration_manipulation_targetAtFixation,jsons/v1_VE250_randls_41.json,http://54.235.29.9/FacialAge/BNav_EC2/DepthDuration/v2_depth_duration_MTurk/v2_DepthDuration_HTML.html#403,403,1366,625,1366,768,8-29-2022,10-54-59,47,depth_duration_stimuli/001392_2014-06-19_16-07-59_260595134347_rgbf000046-resize_1/001392_2014-06-19_16-07-59_260595134347_rgbf000046-resize_1-target.png,250,4.135,6,2821,238,feet,jsons/v1_VE250_randls_41.json,872439,1024566,32,Man
47,710702,DepthScenes,duration_manipulation_targetAtFixation,jsons/v1_VE250_randls_41.json,http://54.235.29.9/FacialAge/BNav_EC2/DepthDuration/v2_depth_duration_MTurk/v2_DepthDuration_HTML.html#403,403,1366,625,1366,768,8-29-2022,10-54-59,48,depth_duration_stimuli/001806_2014-06-26_20-50-20_260595134347_rgbf000091-resize_1/001806_2014-06-26_20-50-20_260595134347_rgbf000091-resize_1-target.png,250,2.7305,3,2559,249,feet,jsons/v1_VE250_randls_41.json,872439,1024566,32,Man
48,710702,DepthScenes,duration_manipulation_targetAtFixation,jsons/v1_VE250_randls_41.json,http://54.235.29.9/FacialAge/BNav_EC2/DepthDuration/v2_depth_duration_MTurk/v2_DepthDuration_HTML.html#403,403,1366,625,1366,768,8-29-2022,10-54-59,49,depth_duration_stimuli/001617_2014-06-20_11-35-32_260595134347_rgbf000066-resize_1/001617_2014-06-20_11-35-32_260595134347_rgbf000066-resize_1-target.png,250,3.7910000000000004,6,2671,243,feet,jsons/v1_VE250_randls_41.json,872439,1024566,32,Man
49,710702,DepthScenes,duration_manipulation_targetAtFixation,jsons/v1_VE250_randls_41.json,http://54.235.29.9/FacialAge/BNav_EC2/DepthDuration/v2_depth_duration_MTurk/v2_DepthDuration_HTML.html#403,403,1366,625,1366,768,8-29-2022,10-54-59,50,depth_duration_stimuli/000470_2014-06-09_19-42-40_260595134347_rgbf000094-resize_1/000470_2014-06-09_19-42-40_260595134347_rgbf000094-resize_1-target.png,250,1.831,3,2461,248,feet,jsons/v1_VE250_randls_41.json,872439,1024566,32,Man
50,710702,DepthScenes,duration_manipulation_targetAtFixation,jsons/v1_VE250_randls_41.json,http://54.235.29.9/FacialAge/BNav_EC2/DepthDuration/v2_depth_duration_MTurk/v2_DepthDuration_HTML.html#403,403,1366,625,1366,768,8-29-2022,10-54-59,51,depth_duration_stimuli/000109_2014-05-14_23-41-52_260595134347_rgbf000035-resize_9/000109_2014-05-14_23-41-52_260595134347_rgbf000035-resize_9-target.png,250,1.3545,3,3120,250,feet,jsons/v1_VE250_randls_41.json,872439,1024566,32,Man
51,710702,DepthScenes,duration_manipulation_targetAtFixation,jsons/v1_VE250_randls_41.json,http://54.235.29.9/FacialAge/BNav_EC2/DepthDuration/v2_depth_duration_MTurk/v2_DepthDuration_HTML.html#403,403,1366,625,1366,768,8-29-2022,10-54-59,52,depth_duration_stimuli/002663_2014-06-13_15-50-26_094959634447_rgbf000075-resize_1/002663_2014-06-13_15-50-26_094959634447_rgbf000075-resize_1-target.png,250,4.7495,6,2967,250,feet,jsons/v1_VE250_randls_41.json,872439,1024566,32,Man
52,710702,DepthScenes,duration_manipulation_targetAtFixation,jsons/v1_VE250_randls_41.json,http://54.235.29.9/FacialAge/BNav_EC2/DepthDuration/v2_depth_duration_MTurk/v2_DepthDuration_HTML.html#403,403,1366,625,1366,768,8-29-2022,10-54-59,53,depth_duration_stimuli/000409_2014-06-04_19-23-33_260595134347_rgbf000067-resize_0/000409_2014-06-04_19-23-33_260595134347_rgbf000067-resize_0-target.png,250,3.7335,5,2030,249,feet,jsons/v1_VE250_randls_41.json,872439,1024566,32,Man
53,710702,DepthScenes,duration_manipulation_targetAtFixation,jsons/v1_VE250_randls_41.json,http://54.235.29.9/FacialAge/BNav_EC2/DepthDuration/v2_depth_duration_MTurk/v2_DepthDuration_HTML.html#403,403,1366,625,1366,768,8-29-2022,10-54-59,54,depth_duration_stimuli/002118_2014-06-25_20-32-08_260595134347_rgbf000078-resize_1/002118_2014-06-25_20-32-08_260595134347_rgbf000078-resize_1-target.png,250,2.6460000000000004,3,2313,245,feet,jsons/v1_VE250_randls_41.json,872439,1024566,32,Man
54,710702,DepthScenes,duration_manipulation_targetAtFixation,jsons/v1_VE250_randls_41.json,http://54.235.29.9/FacialAge/BNav_EC2/DepthDuration/v2_depth_duration_MTurk/v2_DepthDuration_HTML.html#403,403,1366,625,1366,768,8-29-2022,10-54-59,55,depth_duration_stimuli/001516_2014-06-20_16-25-09_260595134347_rgbf000076-resize_2/001516_2014-06-20_16-25-09_260595134347_rgbf000076-resize_2-target.png,250,1.7445,6,2882,244,feet,jsons/v1_VE250_randls_41.json,872439,1024566,32,Man
55,710702,DepthScenes,duration_manipulation_targetAtFixation,jsons/v1_VE250_randls_41.json,http://54.235.29.9/FacialAge/BNav_EC2/DepthDuration/v2_depth_duration_MTurk/v2_DepthDuration_HTML.html#403,403,1366,625,1366,768,8-29-2022,10-54-59,56,depth_duration_stimuli/002039_2014-06-24_20-22-38_260595134347_rgbf000084-resize_1/002039_2014-06-24_20-22-38_260595134347_rgbf000084-resize_1-target.png,250,4.408,6,2013,236,feet,jsons/v1_VE250_randls_41.json,872439,1024566,32,Man
56,710702,DepthScenes,duration_manipulation_targetAtFixation,jsons/v1_VE250_randls_41.json,http://54.235.29.9/FacialAge/BNav_EC2/DepthDuration/v2_depth_duration_MTurk/v2_DepthDuration_HTML.html#403,403,1366,625,1366,768,8-29-2022,10-54-59,57,depth_duration_stimuli/002103_2014-06-25_20-00-40_260595134347_rgbf000049-resize_0/002103_2014-06-25_20-00-40_260595134347_rgbf000049-resize_0-target.png,250,4.105,5,2801,265,feet,jsons/v1_VE250_randls_41.json,872439,1024566,32,Man
57,710702,DepthScenes,duration_manipulation_targetAtFixation,jsons/v1_VE250_randls_41.json,http://54.235.29.9/FacialAge/BNav_EC2/DepthDuration/v2_depth_duration_MTurk/v2_DepthDuration_HTML.html#403,403,1366,625,1366,768,8-29-2022,10-54-59,58,depth_duration_stimuli/001066_2014-06-08_22-03-20_260595134347_rgbf000066-resize_4/001066_2014-06-08_22-03-20_260595134347_rgbf000066-resize_4-target.png,250,4.2330000000000005,0,3066,247,feet,jsons/v1_VE250_randls_41.json,872439,1024566,32,Man
58,710702,DepthScenes,duration_manipulation_targetAtFixation,jsons/v1_VE250_randls_41.json,http://54.235.29.9/FacialAge/BNav_EC2/DepthDuration/v2_depth_duration_MTurk/v2_DepthDuration_HTML.html#403,403,1366,625,1366,768,8-29-2022,10-54-59,59,depth_duration_stimuli/000742_2014-06-08_18-48-09_260595134347_rgbf000164-resize_4/000742_2014-06-08_18-48-09_260595134347_rgbf000164-resize_4-target.png,250,4.632,6,3146,237,feet,jsons/v1_VE250_randls_41.json,872439,1024566,32,Man
59,710702,DepthScenes,duration_manipulation_targetAtFixation,jsons/v1_VE250_randls_41.json,http://54.235.29.9/FacialAge/BNav_EC2/DepthDuration/v2_depth_duration_MTurk/v2_DepthDuration_HTML.html#403,403,1366,625,1366,768,8-29-2022,10-54-59,60,depth_duration_stimuli/000493_2014-06-09_21-01-18_260595134347_rgbf000196-resize_3/000493_2014-06-09_21-01-18_260595134347_rgbf000196-resize_3-target.png,250,3.44,5,2236,341,feet,jsons/v1_VE250_randls_41.json,872439,1024566,32,Man
60,710702,DepthScenes,duration_manipulation_targetAtFixation,jsons/v1_VE250_randls_41.json,http://54.235.29.9/FacialAge/BNav_EC2/DepthDuration/v2_depth_duration_MTurk/v2_DepthDuration_HTML.html#403,403,1366,625,1366,768,8-29-2022,10-54-59,61,depth_duration_stimuli/000191_2014-05-12_17-07-38_260595134347_rgbf000199-resize_0/000191_2014-05-12_17-07-38_260595134347_rgbf000199-resize_0-target.png,250,3.7995,8,2480,248,feet,jsons/v1_VE250_randls_41.json,872439,1024566,32,Man
61,710702,DepthScenes,duration_manipulation_targetAtFixation,jsons/v1_VE250_randls_41.json,http://54.235.29.9/FacialAge/BNav_EC2/DepthDuration/v2_depth_duration_MTurk/v2_DepthDuration_HTML.html#403,403,1366,625,1366,768,8-29-2022,10-54-59,62,depth_duration_stimuli/002279_2014-06-28_18-55-32_260595134347_rgbf000040-resize_5/002279_2014-06-28_18-55-32_260595134347_rgbf000040-resize_5-target.png,250,1.5043333333333,6,2578,255,feet,jsons/v1_VE250_randls_41.json,872439,1024566,32,Man
62,710702,DepthScenes,duration_manipulation_targetAtFixation,jsons/v1_VE250_randls_41.json,http://54.235.29.9/FacialAge/BNav_EC2/DepthDuration/v2_depth_duration_MTurk/v2_DepthDuration_HTML.html#403,403,1366,625,1366,768,8-29-2022,10-54-59,63,depth_duration_stimuli/000635_2014-06-08_16-38-42_260595134347_rgbf000106-resize_1/000635_2014-06-08_16-38-42_260595134347_rgbf000106-resize_1-target.png,250,2.074,6,2118,193,feet,jsons/v1_VE250_randls_41.json,872439,1024566,32,Man
63,710702,DepthScenes,duration_manipulation_targetAtFixation,jsons/v1_VE250_randls_41.json,http://54.235.29.9/FacialAge/BNav_EC2/DepthDuration/v2_depth_duration_MTurk/v2_DepthDuration_HTML.html#403,403,1366,625,1366,768,8-29-2022,10-54-59,64,depth_duration_stimuli/000009_2014-05-26_14-32-05_260595134347_rgbf000034-resize_3/000009_2014-05-26_14-32-05_260595134347_rgbf000034-resize_3-target.png,250,3.8715,6,2276,259,feet,jsons/v1_VE250_randls_41.json,872439,1024566,32,Man
64,710702,DepthScenes,duration_manipulation_targetAtFixation,jsons/v1_VE250_randls_41.json,http://54.235.29.9/FacialAge/BNav_EC2/DepthDuration/v2_depth_duration_MTurk/v2_DepthDuration_HTML.html#403,403,1366,625,1366,768,8-29-2022,10-54-59,65,depth_duration_stimuli/001828_2014-06-26_21-40-03_260595134347_rgbf000024-resize_0/001828_2014-06-26_21-40-03_260595134347_rgbf000024-resize_0-target.png,250,4.8260000000000005,6,2663,255,feet,jsons/v1_VE250_randls_41.json,872439,1024566,32,Man
65,710702,DepthScenes,duration_manipulation_targetAtFixation,jsons/v1_VE250_randls_41.json,http://54.235.29.9/FacialAge/BNav_EC2/DepthDuration/v2_depth_duration_MTurk/v2_DepthDuration_HTML.html#403,403,1366,625,1366,768,8-29-2022,10-54-59,66,depth_duration_stimuli/001222_2014-06-17_16-24-06_260595134347_rgbf000073-resize_0/001222_2014-06-17_16-24-06_260595134347_rgbf000073-resize-original.jpg,250,1.4385,0,2252,229,feet,jsons/v1_VE250_randls_41.json,872439,1024566,32,Man
66,710702,DepthScenes,duration_manipulation_targetAtFixation,jsons/v1_VE250_randls_41.json,http://54.235.29.9/FacialAge/BNav_EC2/DepthDuration/v2_depth_duration_MTurk/v2_DepthDuration_HTML.html#403,403,1366,625,1366,768,8-29-2022,10-54-59,67,depth_duration_stimuli/000736_2014-06-08_18-24-15_260595134347_rgbf000206-resize_3/000736_2014-06-08_18-24-15_260595134347_rgbf000206-resize_3-target.png,250,3.515,5,2262,235,feet,jsons/v1_VE250_randls_41.json,872439,1024566,32,Man
67,710702,DepthScenes,duration_manipulation_targetAtFixation,jsons/v1_VE250_randls_41.json,http://54.235.29.9/FacialAge/BNav_EC2/DepthDuration/v2_depth_duration_MTurk/v2_DepthDuration_HTML.html#403,403,1366,625,1366,768,8-29-2022,10-54-59,68,depth_duration_stimuli/000137_2014-05-20_17-04-49_260595134347_rgbf000120-resize_1/000137_2014-05-20_17-04-49_260595134347_rgbf000120-resize_1-target.png,250,3.786,5,2388,256,feet,jsons/v1_VE250_randls_41.json,872439,1024566,32,Man
68,710702,DepthScenes,duration_manipulation_targetAtFixation,jsons/v1_VE250_randls_41.json,http://54.235.29.9/FacialAge/BNav_EC2/DepthDuration/v2_depth_duration_MTurk/v2_DepthDuration_HTML.html#403,403,1366,625,1366,768,8-29-2022,10-54-59,69,depth_duration_stimuli/001810_2014-06-26_20-51-35_260595134347_rgbf000040-resize_3/001810_2014-06-26_20-51-35_260595134347_rgbf000040-resize_3-target.png,250,2.2525,6,2766,248,feet,jsons/v1_VE250_randls_41.json,872439,1024566,32,Man
69,710702,DepthScenes,duration_manipulation_targetAtFixation,jsons/v1_VE250_randls_41.json,http://54.235.29.9/FacialAge/BNav_EC2/DepthDuration/v2_depth_duration_MTurk/v2_DepthDuration_HTML.html#403,403,1366,625,1366,768,8-29-2022,10-54-59,70,depth_duration_stimuli/003010_2014-06-15_12-54-35_094959634447_rgbf000112-resize_0/003010_2014-06-15_12-54-35_094959634447_rgbf000112-resize_0-target.png,250,3.1185,0,3112,248,feet,jsons/v1_VE250_randls_41.json,872439,1024566,32,Man
70,710702,DepthScenes,duration_manipulation_targetAtFixation,jsons/v1_VE250_randls_41.json,http://54.235.29.9/FacialAge/BNav_EC2/DepthDuration/v2_depth_duration_MTurk/v2_DepthDuration_HTML.html#403,403,1366,625,1366,768,8-29-2022,10-54-59,71,depth_duration_stimuli/002057_2014-06-24_21-00-13_260595134347_rgbf000120-resize_1/002057_2014-06-24_21-00-13_260595134347_rgbf000120-resize_1-target.png,250,2.967,6,2745,251,feet,jsons/v1_VE250_randls_41.json,872439,1024566,32,Man
71,710702,DepthScenes,duration_manipulation_targetAtFixation,jsons/v1_VE250_randls_41.json,http://54.235.29.9/FacialAge/BNav_EC2/DepthDuration/v2_depth_duration_MTurk/v2_DepthDuration_HTML.html#403,403,1366,625,1366,768,8-29-2022,10-54-59,72,depth_duration_stimuli/000709_2014-06-08_13-51-55_260595134347_rgbf000068-resize_3/000709_2014-06-08_13-51-55_260595134347_rgbf000068-resize_3-target.png,250,1.8030000000000002,7,2925,234,feet,jsons/v1_VE250_randls_41.json,872439,1024566,32,Man
72,710702,DepthScenes,duration_manipulation_targetAtFixation,jsons/v1_VE250_randls_41.json,http://54.235.29.9/FacialAge/BNav_EC2/DepthDuration/v2_depth_duration_MTurk/v2_DepthDuration_HTML.html#403,403,1366,625,1366,768,8-29-2022,10-54-59,73,depth_duration_stimuli/000788_2014-06-08_22-34-36_260595134347_rgbf000131-resize_1/000788_2014-06-08_22-34-36_260595134347_rgbf000131-resize_1-target.png,250,3.359,3,2617,244,feet,jsons/v1_VE250_randls_41.json,872439,1024566,32,Man
73,710702,DepthScenes,duration_manipulation_targetAtFixation,jsons/v1_VE250_randls_41.json,http://54.235.29.9/FacialAge/BNav_EC2/DepthDuration/v2_depth_duration_MTurk/v2_DepthDuration_HTML.html#403,403,1366,625,1366,768,8-29-2022,10-54-59,74,depth_duration_stimuli/001235_2014-06-17_16-37-36_260595134347_rgbf000084-resize_4/001235_2014-06-17_16-37-36_260595134347_rgbf000084-resize_4-target.png,250,3.6605,5,2198,247,feet,jsons/v1_VE250_randls_41.json,872439,1024566,32,Man
74,710702,DepthScenes,duration_manipulation_targetAtFixation,jsons/v1_VE250_randls_41.json,http://54.235.29.9/FacialAge/BNav_EC2/DepthDuration/v2_depth_duration_MTurk/v2_DepthDuration_HTML.html#403,403,1366,625,1366,768,8-29-2022,10-54-59,75,depth_duration_stimuli/002784_2014-06-22_19-26-30_094959634447_rgbf000083-resize_3/002784_2014-06-22_19-26-30_094959634447_rgbf000083-resize_3-target.png,250,1.8046666666667,2,2460,260,feet,jsons/v1_VE250_randls_41.json,872439,1024566,32,Man
75,710702,DepthScenes,duration_manipulation_targetAtFixation,jsons/v1_VE250_randls_41.json,http://54.235.29.9/FacialAge/BNav_EC2/DepthDuration/v2_depth_duration_MTurk/v2_DepthDuration_HTML.html#403,403,1366,625,1366,768,8-29-2022,10-54-59,76,depth_duration_stimuli/001100_2014-06-15_17-46-26_260595134347_rgbf000225-resize_2/001100_2014-06-15_17-46-26_260595134347_rgbf000225-resize_2-target.png,250,2.24,3,2558,486,feet,jsons/v1_VE250_randls_41.json,872439,1024566,32,Man
76,710702,DepthScenes,duration_manipulation_targetAtFixation,jsons/v1_VE250_randls_41.json,http://54.235.29.9/FacialAge/BNav_EC2/DepthDuration/v2_depth_duration_MTurk/v2_DepthDuration_HTML.html#403,403,1366,625,1366,768,8-29-2022,10-54-59,77,depth_duration_stimuli/002043_2014-06-24_20-29-38_260595134347_rgbf000039-resize_4/002043_2014-06-24_20-29-38_260595134347_rgbf000039-resize_4-target.png,250,2.8435,5,2792,257,feet,jsons/v1_VE250_randls_41.json,872439,1024566,32,Man
77,710702,DepthScenes,duration_manipulation_targetAtFixation,jsons/v1_VE250_randls_41.json,http://54.235.29.9/FacialAge/BNav_EC2/DepthDuration/v2_depth_duration_MTurk/v2_DepthDuration_HTML.html#403,403,1366,625,1366,768,8-29-2022,10-54-59,78,depth_duration_stimuli/003048_2014-06-15_13-49-43_094959634447_rgbf000150-resize_1/003048_2014-06-15_13-49-43_094959634447_rgbf000150-resize_1-target.png,250,4.0035,6,2660,233,feet,jsons/v1_VE250_randls_41.json,872439,1024566,32,Man
78,710702,DepthScenes,duration_manipulation_targetAtFixation,jsons/v1_VE250_randls_41.json,http://54.235.29.9/FacialAge/BNav_EC2/DepthDuration/v2_depth_duration_MTurk/v2_DepthDuration_HTML.html#403,403,1366,625,1366,768,8-29-2022,10-54-59,79,depth_duration_stimuli/000906_2014-06-08_13-35-43_260595134347_rgbf000155-resize_1/000906_2014-06-08_13-35-43_260595134347_rgbf000155-resize_1-target.png,250,2.8489999999999998,6,2865,243,feet,jsons/v1_VE250_randls_41.json,872439,1024566,32,Man
79,710702,DepthScenes,duration_manipulation_targetAtFixation,jsons/v1_VE250_randls_41.json,http://54.235.29.9/FacialAge/BNav_EC2/DepthDuration/v2_depth_duration_MTurk/v2_DepthDuration_HTML.html#403,403,1366,625,1366,768,8-29-2022,10-54-59,80,depth_duration_stimuli/002805_2014-06-22_19-54-03_094959634447_rgbf000079-resize_1/002805_2014-06-22_19-54-03_094959634447_rgbf000079-resize_1-target.png,250,3.1439999999999997,6,2949,251,feet,jsons/v1_VE250_randls_41.json,872439,1024566,32,Man
80,710702,DepthScenes,duration_manipulation_targetAtFixation,jsons/v1_VE250_randls_41.json,http://54.235.29.9/FacialAge/BNav_EC2/DepthDuration/v2_depth_duration_MTurk/v2_DepthDuration_HTML.html#403,403,1366,625,1366,768,8-29-2022,10-54-59,81,depth_duration_stimuli/000773_2014-06-08_22-24-54_260595134347_rgbf000093-resize_1/000773_2014-06-08_22-24-54_260595134347_rgbf000093-resize_1-target.png,250,4.973,5,2542,233,feet,jsons/v1_VE250_randls_41.json,872439,1024566,32,Man
81,710702,DepthScenes,duration_manipulation_targetAtFixation,jsons/v1_VE250_randls_41.json,http://54.235.29.9/FacialAge/BNav_EC2/DepthDuration/v2_depth_duration_MTurk/v2_DepthDuration_HTML.html#403,403,1366,625,1366,768,8-29-2022,10-54-59,82,depth_duration_stimuli/002414_2014-06-28_20-24-58_260595134347_rgbf000067-resize_4/002414_2014-06-28_20-24-58_260595134347_rgbf000067-resize_4-target.png,250,4.363,6,2599,246,feet,jsons/v1_VE250_randls_41.json,872439,1024566,32,Man
82,710702,DepthScenes,duration_manipulation_targetAtFixation,jsons/v1_VE250_randls_41.json,http://54.235.29.9/FacialAge/BNav_EC2/DepthDuration/v2_depth_duration_MTurk/v2_DepthDuration_HTML.html#403,403,1366,625,1366,768,8-29-2022,10-54-59,83,depth_duration_stimuli/003492_2014-05-21_15-50-55_094959634447_rgbf000828-resize_1/003492_2014-05-21_15-50-55_094959634447_rgbf000828-resize_1-target.png,250,4.06875,6,2239,247,feet,jsons/v1_VE250_randls_41.json,872439,1024566,32,Man
83,710702,DepthScenes,duration_manipulation_targetAtFixation,jsons/v1_VE250_randls_41.json,http://54.235.29.9/FacialAge/BNav_EC2/DepthDuration/v2_depth_duration_MTurk/v2_DepthDuration_HTML.html#403,403,1366,625,1366,768,8-29-2022,10-54-59,84,depth_duration_stimuli/002568_2014-06-24_13-59-21_094959634447_rgbf000062-resize_4/002568_2014-06-24_13-59-21_094959634447_rgbf000062-resize_4-target.png,250,3.015,5,1855,239,feet,jsons/v1_VE250_randls_41.json,872439,1024566,32,Man
84,710702,DepthScenes,duration_manipulation_targetAtFixation,jsons/v1_VE250_randls_41.json,http://54.235.29.9/FacialAge/BNav_EC2/DepthDuration/v2_depth_duration_MTurk/v2_DepthDuration_HTML.html#403,403,1366,625,1366,768,8-29-2022,10-54-59,85,depth_duration_stimuli/000642_2014-06-08_16-59-25_260595134347_rgbf000098-resize_2/000642_2014-06-08_16-59-25_260595134347_rgbf000098-resize_2-target.png,250,2.8815,6,2498,247,feet,jsons/v1_VE250_randls_41.json,872439,1024566,32,Man
85,710702,DepthScenes,duration_manipulation_targetAtFixation,jsons/v1_VE250_randls_41.json,http://54.235.29.9/FacialAge/BNav_EC2/DepthDuration/v2_depth_duration_MTurk/v2_DepthDuration_HTML.html#403,403,1366,625,1366,768,8-29-2022,10-54-59,86,depth_duration_stimuli/002425_2014-06-28_20-27-29_260595134347_rgbf000031-resize_8/002425_2014-06-28_20-27-29_260595134347_rgbf000031-resize_8-target.png,250,3.8960000000000004,6,1982,235,feet,jsons/v1_VE250_randls_41.json,872439,1024566,32,Man
86,710702,DepthScenes,duration_manipulation_targetAtFixation,jsons/v1_VE250_randls_41.json,http://54.235.29.9/FacialAge/BNav_EC2/DepthDuration/v2_depth_duration_MTurk/v2_DepthDuration_HTML.html#403,403,1366,625,1366,768,8-29-2022,10-54-59,87,depth_duration_stimuli/001244_2014-06-17_16-47-45_260595134347_rgbf000030-resize_4/001244_2014-06-17_16-47-45_260595134347_rgbf000030-resize_4-target.png,250,2.0425,6,2529,260,feet,jsons/v1_VE250_randls_41.json,872439,1024566,32,Man
87,710702,DepthScenes,duration_manipulation_targetAtFixation,jsons/v1_VE250_randls_41.json,http://54.235.29.9/FacialAge/BNav_EC2/DepthDuration/v2_depth_duration_MTurk/v2_DepthDuration_HTML.html#403,403,1366,625,1366,768,8-29-2022,10-54-59,88,depth_duration_stimuli/003495_2014-05-21_16-01-51_094959634447_rgbf000100-resize_3/003495_2014-05-21_16-01-51_094959634447_rgbf000100-resize_3-target.png,250,1.6255,5,2158,261,feet,jsons/v1_VE250_randls_41.json,872439,1024566,32,Man
88,710702,DepthScenes,duration_manipulation_targetAtFixation,jsons/v1_VE250_randls_41.json,http://54.235.29.9/FacialAge/BNav_EC2/DepthDuration/v2_depth_duration_MTurk/v2_DepthDuration_HTML.html#403,403,1366,625,1366,768,8-29-2022,10-54-59,89,depth_duration_stimuli/001110_2014-06-15_17-25-28_260595134347_rgbf000150-resize_1/001110_2014-06-15_17-25-28_260595134347_rgbf000150-resize_1-target.png,250,1.7115,8,3019,252,feet,jsons/v1_VE250_randls_41.json,872439,1024566,32,Man
89,710702,DepthScenes,duration_manipulation_targetAtFixation,jsons/v1_VE250_randls_41.json,http://54.235.29.9/FacialAge/BNav_EC2/DepthDuration/v2_depth_duration_MTurk/v2_DepthDuration_HTML.html#403,403,1366,625,1366,768,8-29-2022,10-54-59,90,depth_duration_stimuli/000927_2014-06-09_16-32-30_260595134347_rgbf000123-resize_3/000927_2014-06-09_16-32-30_260595134347_rgbf000123-resize_3-target.png,250,2.6785,6,2212,229,feet,jsons/v1_VE250_randls_41.json,872439,1024566,32,Man
90,710702,DepthScenes,duration_manipulation_targetAtFixation,jsons/v1_VE250_randls_41.json,http://54.235.29.9/FacialAge/BNav_EC2/DepthDuration/v2_depth_duration_MTurk/v2_DepthDuration_HTML.html#403,403,1366,625,1366,768,8-29-2022,10-54-59,91,depth_duration_stimuli/000414_2014-06-04_19-49-13_260595134347_rgbf000044-resize_0/000414_2014-06-04_19-49-13_260595134347_rgbf000044-resize_0-target.png,250,4.329,8,2832,249,feet,jsons/v1_VE250_randls_41.json,872439,1024566,32,Man
91,710702,DepthScenes,duration_manipulation_targetAtFixation,jsons/v1_VE250_randls_41.json,http://54.235.29.9/FacialAge/BNav_EC2/DepthDuration/v2_depth_duration_MTurk/v2_DepthDuration_HTML.html#403,403,1366,625,1366,768,8-29-2022,10-54-59,92,depth_duration_stimuli/003129_2014-05-12_10-48-10_094959634447_rgbf000100-resize_0/003129_2014-05-12_10-48-10_094959634447_rgbf000100-resize_0-target.png,250,4.9305,5,2090,246,feet,jsons/v1_VE250_randls_41.json,872439,1024566,32,Man
92,710702,DepthScenes,duration_manipulation_targetAtFixation,jsons/v1_VE250_randls_41.json,http://54.235.29.9/FacialAge/BNav_EC2/DepthDuration/v2_depth_duration_MTurk/v2_DepthDuration_HTML.html#403,403,1366,625,1366,768,8-29-2022,10-54-59,93,depth_duration_stimuli/000522_2014-06-08_13-35-06_260595134347_rgbf000244-resize_1/000522_2014-06-08_13-35-06_260595134347_rgbf000244-resize_1-target.png,250,2.3715,3,4966,250,feet,jsons/v1_VE250_randls_41.json,872439,1024566,32,Man
93,710702,DepthScenes,duration_manipulation_targetAtFixation,jsons/v1_VE250_randls_41.json,http://54.235.29.9/FacialAge/BNav_EC2/DepthDuration/v2_depth_duration_MTurk/v2_DepthDuration_HTML.html#403,403,1366,625,1366,768,8-29-2022,10-54-59,94,depth_duration_stimuli/002949_2014-06-26_15-57-42_094959634447_rgbf000079-resize_1/002949_2014-06-26_15-57-42_094959634447_rgbf000079-resize_1-target.png,250,1.8915,3,3217,351,feet,jsons/v1_VE250_randls_41.json,872439,1024566,32,Man
94,710702,DepthScenes,duration_manipulation_targetAtFixation,jsons/v1_VE250_randls_41.json,http://54.235.29.9/FacialAge/BNav_EC2/DepthDuration/v2_depth_duration_MTurk/v2_DepthDuration_HTML.html#403,403,1366,625,1366,768,8-29-2022,10-54-59,95,depth_duration_stimuli/000917_2014-06-09_22-45-29_260595134347_rgbf000149-resize_3/000917_2014-06-09_22-45-29_260595134347_rgbf000149-resize_3-target.png,250,4.1865,6,3553,238,feet,jsons/v1_VE250_randls_41.json,872439,1024566,32,Man
95,710702,DepthScenes,duration_manipulation_targetAtFixation,jsons/v1_VE250_randls_41.json,http://54.235.29.9/FacialAge/BNav_EC2/DepthDuration/v2_depth_duration_MTurk/v2_DepthDuration_HTML.html#403,403,1366,625,1366,768,8-29-2022,10-54-59,96,depth_duration_stimuli/002323_2014-06-28_20-01-54_260595134347_rgbf000051-resize_4/002323_2014-06-28_20-01-54_260595134347_rgbf000051-resize_4-target.png,250,3.7310000000000003,6,2082,242,feet,jsons/v1_VE250_randls_41.json,872439,1024566,32,Man
96,710702,DepthScenes,duration_manipulation_targetAtFixation,jsons/v1_VE250_randls_41.json,http://54.235.29.9/FacialAge/BNav_EC2/DepthDuration/v2_depth_duration_MTurk/v2_DepthDuration_HTML.html#403,403,1366,625,1366,768,8-29-2022,10-54-59,97,depth_duration_stimuli/001011_2014-06-08_23-18-54_260595134347_rgbf000044-resize_4/001011_2014-06-08_23-18-54_260595134347_rgbf000044-resize_4-target.png,250,2.4730000000000003,6,2388,250,feet,jsons/v1_VE250_randls_41.json,872439,1024566,32,Man
97,710702,DepthScenes,duration_manipulation_targetAtFixation,jsons/v1_VE250_randls_41.json,http://54.235.29.9/FacialAge/BNav_EC2/DepthDuration/v2_depth_duration_MTurk/v2_DepthDuration_HTML.html#403,403,1366,625,1366,768,8-29-2022,10-54-59,98,depth_duration_stimuli/002875_2014-06-01_15-19-00_094959634447_rgbf000151-resize_1/002875_2014-06-01_15-19-00_094959634447_rgbf000151-resize_1-target.png,250,1.9675,8,2641,244,feet,jsons/v1_VE250_randls_41.json,872439,1024566,32,Man
98,710702,DepthScenes,duration_manipulation_targetAtFixation,jsons/v1_VE250_randls_41.json,http://54.235.29.9/FacialAge/BNav_EC2/DepthDuration/v2_depth_duration_MTurk/v2_DepthDuration_HTML.html#403,403,1366,625,1366,768,8-29-2022,10-54-59,99,depth_duration_stimuli/001540_2014-06-20_17-01-05_260595134347_rgbf000086-resize_2/001540_2014-06-20_17-01-05_260595134347_rgbf000086-resize-original.jpg,250,1.459,0,3001,214,feet,jsons/v1_VE250_randls_41.json,872439,1024566,32,Man
99,710702,DepthScenes,duration_manipulation_targetAtFixation,jsons/v1_VE250_randls_41.json,http://54.235.29.9/FacialAge/BNav_EC2/DepthDuration/v2_depth_duration_MTurk/v2_DepthDuration_HTML.html#403,403,1366,625,1366,768,8-29-2022,10-54-59,100,depth_duration_stimuli/002630_2014-06-24_14-47-50_094959634447_rgbf000055-resize_1/002630_2014-06-24_14-47-50_094959634447_rgbf000055-resize_1-target.png,250,3.0095,5,2625,263,feet,jsons/v1_VE250_randls_41.json,872439,1024566,32,Man
100,710702,DepthScenes,duration_manipulation_targetAtFixation,jsons/v1_VE250_randls_41.json,http://54.235.29.9/FacialAge/BNav_EC2/DepthDuration/v2_depth_duration_MTurk/v2_DepthDuration_HTML.html#403,403,1366,625,1366,768,8-29-2022,10-54-59,101,depth_duration_stimuli/002758_2014-06-22_19-11-20_094959634447_rgbf000128-resize_1/002758_2014-06-22_19-11-20_094959634447_rgbf000128-resize_1-target.png,250,2.555,6,2526,243,feet,jsons/v1_VE250_randls_41.json,872439,1024566,32,Man
101,710702,DepthScenes,duration_manipulation_targetAtFixation,jsons/v1_VE250_randls_41.json,http://54.235.29.9/FacialAge/BNav_EC2/DepthDuration/v2_depth_duration_MTurk/v2_DepthDuration_HTML.html#403,403,1366,625,1366,768,8-29-2022,10-54-59,102,depth_duration_stimuli/002763_2014-06-22_19-13-10_094959634447_rgbf000075-resize_4/002763_2014-06-22_19-13-10_094959634447_rgbf000075-resize_4-target.png,250,1.68375,5,2121,252,feet,jsons/v1_VE250_randls_41.json,872439,1024566,32,Man
102,710702,DepthScenes,duration_manipulation_targetAtFixation,jsons/v1_VE250_randls_41.json,http://54.235.29.9/FacialAge/BNav_EC2/DepthDuration/v2_depth_duration_MTurk/v2_DepthDuration_HTML.html#403,403,1366,625,1366,768,8-29-2022,10-54-59,103,depth_duration_stimuli/002209_2014-06-28_18-36-10_260595134347_rgbf000051-resize_1/002209_2014-06-28_18-36-10_260595134347_rgbf000051-resize_1-target.png,250,2.057,5,2338,330,feet,jsons/v1_VE250_randls_41.json,872439,1024566,32,Man
103,710702,DepthScenes,duration_manipulation_targetAtFixation,jsons/v1_VE250_randls_41.json,http://54.235.29.9/FacialAge/BNav_EC2/DepthDuration/v2_depth_duration_MTurk/v2_DepthDuration_HTML.html#403,403,1366,625,1366,768,8-29-2022,10-54-59,104,depth_duration_stimuli/002570_2014-06-24_13-59-54_094959634447_rgbf000059-resize_0/002570_2014-06-24_13-59-54_094959634447_rgbf000059-resize_0-target.png,250,4.037,6,2764,236,feet,jsons/v1_VE250_randls_41.json,872439,1024566,32,Man
104,710702,DepthScenes,duration_manipulation_targetAtFixation,jsons/v1_VE250_randls_41.json,http://54.235.29.9/FacialAge/BNav_EC2/DepthDuration/v2_depth_duration_MTurk/v2_DepthDuration_HTML.html#403,403,1366,625,1366,768,8-29-2022,10-54-59,105,depth_duration_stimuli/002467_2014-06-28_20-38-07_260595134347_rgbf000026-resize_2/002467_2014-06-28_20-38-07_260595134347_rgbf000026-resize_2-target.png,250,4.742,0,2404,247,feet,jsons/v1_VE250_randls_41.json,872439,1024566,32,Man
105,710702,DepthScenes,duration_manipulation_targetAtFixation,jsons/v1_VE250_randls_41.json,http://54.235.29.9/FacialAge/BNav_EC2/DepthDuration/v2_depth_duration_MTurk/v2_DepthDuration_HTML.html#403,403,1366,625,1366,768,8-29-2022,10-54-59,106,depth_duration_stimuli/001808_2014-06-26_20-50-58_260595134347_rgbf000029-resize_1/001808_2014-06-26_20-50-58_260595134347_rgbf000029-resize_1-target.png,250,4.249,5,2448,179,feet,jsons/v1_VE250_randls_41.json,872439,1024566,32,Man
106,710702,DepthScenes,duration_manipulation_targetAtFixation,jsons/v1_VE250_randls_41.json,http://54.235.29.9/FacialAge/BNav_EC2/DepthDuration/v2_depth_duration_MTurk/v2_DepthDuration_HTML.html#403,403,1366,625,1366,768,8-29-2022,10-54-59,107,depth_duration_stimuli/001815_2014-06-26_20-52-55_260595134347_rgbf000020-resize_0/001815_2014-06-26_20-52-55_260595134347_rgbf000020-resize_0-target.png,250,3.3865,6,4339,258,feet,jsons/v1_VE250_randls_41.json,872439,1024566,32,Man
107,710702,DepthScenes,duration_manipulation_targetAtFixation,jsons/v1_VE250_randls_41.json,http://54.235.29.9/FacialAge/BNav_EC2/DepthDuration/v2_depth_duration_MTurk/v2_DepthDuration_HTML.html#403,403,1366,625,1366,768,8-29-2022,10-54-59,108,depth_duration_stimuli/002964_2014-06-08_17-46-11_094959634447_rgbf000091-resize_4/002964_2014-06-08_17-46-11_094959634447_rgbf000091-resize_4-target.png,250,1.6909999999999998,3,2356,249,feet,jsons/v1_VE250_randls_41.json,872439,1024566,32,Man
108,710702,DepthScenes,duration_manipulation_targetAtFixation,jsons/v1_VE250_randls_41.json,http://54.235.29.9/FacialAge/BNav_EC2/DepthDuration/v2_depth_duration_MTurk/v2_DepthDuration_HTML.html#403,403,1366,625,1366,768,8-29-2022,10-54-59,109,depth_duration_stimuli/002136_2014-06-25_21-18-03_260595134347_rgbf000109-resize_3/002136_2014-06-25_21-18-03_260595134347_rgbf000109-resize_3-target.png,250,1.9569999999999999,5,2425,239,feet,jsons/v1_VE250_randls_41.json,872439,1024566,32,Man
109,710702,DepthScenes,duration_manipulation_targetAtFixation,jsons/v1_VE250_randls_41.json,http://54.235.29.9/FacialAge/BNav_EC2/DepthDuration/v2_depth_duration_MTurk/v2_DepthDuration_HTML.html#403,403,1366,625,1366,768,8-29-2022,10-54-59,110,depth_duration_stimuli/003534_2014-05-22_15-06-10_094959634447_rgbf000102-resize_4/003534_2014-05-22_15-06-10_094959634447_rgbf000102-resize_4-target.png,250,1.426,1,2667,245,feet,jsons/v1_VE250_randls_41.json,872439,1024566,32,Man
110,710702,DepthScenes,duration_manipulation_targetAtFixation,jsons/v1_VE250_randls_41.json,http://54.235.29.9/FacialAge/BNav_EC2/DepthDuration/v2_depth_duration_MTurk/v2_DepthDuration_HTML.html#403,403,1366,625,1366,768,8-29-2022,10-54-59,111,depth_duration_stimuli/002637_2014-06-24_14-51-13_094959634447_rgbf000066-resize_4/002637_2014-06-24_14-51-13_094959634447_rgbf000066-resize_4-target.png,250,1.9955,2,2412,258,feet,jsons/v1_VE250_randls_41.json,872439,1024566,32,Man
111,710702,DepthScenes,duration_manipulation_targetAtFixation,jsons/v1_VE250_randls_41.json,http://54.235.29.9/FacialAge/BNav_EC2/DepthDuration/v2_depth_duration_MTurk/v2_DepthDuration_HTML.html#403,403,1366,625,1366,768,8-29-2022,10-54-59,112,depth_duration_stimuli/000739_2014-06-08_18-45-58_260595134347_rgbf000068-resize_1/000739_2014-06-08_18-45-58_260595134347_rgbf000068-resize_1-target.png,250,3.534,3,2410,250,feet,jsons/v1_VE250_randls_41.json,872439,1024566,32,Man
112,710702,DepthScenes,duration_manipulation_targetAtFixation,jsons/v1_VE250_randls_41.json,http://54.235.29.9/FacialAge/BNav_EC2/DepthDuration/v2_depth_duration_MTurk/v2_DepthDuration_HTML.html#403,403,1366,625,1366,768,8-29-2022,10-54-59,113,depth_duration_stimuli/000734_2014-06-08_17-39-11_260595134347_rgbf000128-resize_2/000734_2014-06-08_17-39-11_260595134347_rgbf000128-resize_2-target.png,250,4.098,5,56630,246,feet,jsons/v1_VE250_randls_41.json,872439,1024566,32,Man
113,710702,DepthScenes,duration_manipulation_targetAtFixation,jsons/v1_VE250_randls_41.json,http://54.235.29.9/FacialAge/BNav_EC2/DepthDuration/v2_depth_duration_MTurk/v2_DepthDuration_HTML.html#403,403,1366,625,1366,768,8-29-2022,10-54-59,114,depth_duration_stimuli/001133_2014-06-17_14-49-16_260595134347_rgbf000100-resize_0/001133_2014-06-17_14-49-16_260595134347_rgbf000100-resize_0-target.png,250,4.2115,3,5128,251,feet,jsons/v1_VE250_randls_41.json,872439,1024566,32,Man
114,710702,DepthScenes,duration_manipulation_targetAtFixation,jsons/v1_VE250_randls_41.json,http://54.235.29.9/FacialAge/BNav_EC2/DepthDuration/v2_depth_duration_MTurk/v2_DepthDuration_HTML.html#403,403,1366,625,1366,768,8-29-2022,10-54-59,115,depth_duration_stimuli/001132_2014-06-17_14-48-54_260595134347_rgbf000100-resize_2/001132_2014-06-17_14-48-54_260595134347_rgbf000100-resize_2-target.png,250,3.753,4,2760,254,feet,jsons/v1_VE250_randls_41.json,872439,1024566,32,Man
115,710702,DepthScenes,duration_manipulation_targetAtFixation,jsons/v1_VE250_randls_41.json,http://54.235.29.9/FacialAge/BNav_EC2/DepthDuration/v2_depth_duration_MTurk/v2_DepthDuration_HTML.html#403,403,1366,625,1366,768,8-29-2022,10-54-59,116,depth_duration_stimuli/001170_2014-06-17_15-43-44_260595134347_rgbf000096-resize_6/001170_2014-06-17_15-43-44_260595134347_rgbf000096-resize-original.jpg,250,1.1909999999999998,0,2077,250,feet,jsons/v1_VE250_randls_41.json,872439,1024566,32,Man
116,710702,DepthScenes,duration_manipulation_targetAtFixation,jsons/v1_VE250_randls_41.json,http://54.235.29.9/FacialAge/BNav_EC2/DepthDuration/v2_depth_duration_MTurk/v2_DepthDuration_HTML.html#403,403,1366,625,1366,768,8-29-2022,10-54-59,117,depth_duration_stimuli/001449_2014-06-19_17-01-27_260595134347_rgbf000116-resize_2/001449_2014-06-19_17-01-27_260595134347_rgbf000116-resize_2-target.png,250,3.452,5,3191,242,feet,jsons/v1_VE250_randls_41.json,872439,1024566,32,Man
117,710702,DepthScenes,duration_manipulation_targetAtFixation,jsons/v1_VE250_randls_41.json,http://54.235.29.9/FacialAge/BNav_EC2/DepthDuration/v2_depth_duration_MTurk/v2_DepthDuration_HTML.html#403,403,1366,625,1366,768,8-29-2022,10-54-59,118,depth_duration_stimuli/001450_2014-06-19_17-02-03_260595134347_rgbf000203-resize_4/001450_2014-06-19_17-02-03_260595134347_rgbf000203-resize_4-target.png,250,4.0106666666667,6,2689,251,feet,jsons/v1_VE250_randls_41.json,872439,1024566,32,Man
118,710702,DepthScenes,duration_manipulation_targetAtFixation,jsons/v1_VE250_randls_41.json,http://54.235.29.9/FacialAge/BNav_EC2/DepthDuration/v2_depth_duration_MTurk/v2_DepthDuration_HTML.html#403,403,1366,625,1366,768,8-29-2022,10-54-59,119,depth_duration_stimuli/000758_2014-06-08_22-05-08_260595134347_rgbf000085-resize_0/000758_2014-06-08_22-05-08_260595134347_rgbf000085-resize_0-target.png,250,3.3810000000000002,5,2370,246,feet,jsons/v1_VE250_randls_41.json,872439,1024566,32,Man
119,710702,DepthScenes,duration_manipulation_targetAtFixation,jsons/v1_VE250_randls_41.json,http://54.235.29.9/FacialAge/BNav_EC2/DepthDuration/v2_depth_duration_MTurk/v2_DepthDuration_HTML.html#403,403,1366,625,1366,768,8-29-2022,10-54-59,120,depth_duration_stimuli/000854_2014-06-09_19-43-13_260595134347_rgbf000066-resize_0/000854_2014-06-09_19-43-13_260595134347_rgbf000066-resize_0-target.png,250,3.068,3,2408,258,feet,jsons/v1_VE250_randls_41.json,872439,1024566,32,Man
120,710702,DepthScenes,duration_manipulation_targetAtFixation,jsons/v1_VE250_randls_41.json,http://54.235.29.9/FacialAge/BNav_EC2/DepthDuration/v2_depth_duration_MTurk/v2_DepthDuration_HTML.html#403,403,1366,625,1366,768,8-29-2022,10-54-59,121,depth_duration_stimuli/001199_2014-06-17_16-03-48_260595134347_rgbf000077-resize_0/001199_2014-06-17_16-03-48_260595134347_rgbf000077-resize_0-target.png,250,3.4375,6,2398,238,feet,jsons/v1_VE250_randls_41.json,872439,1024566,32,Man
121,710702,DepthScenes,duration_manipulation_targetAtFixation,jsons/v1_VE250_randls_41.json,http://54.235.29.9/FacialAge/BNav_EC2/DepthDuration/v2_depth_duration_MTurk/v2_DepthDuration_HTML.html#403,403,1366,625,1366,768,8-29-2022,10-54-59,122,depth_duration_stimuli/000502_2014-06-08_23-02-32_260595134347_rgbf000063-resize_4/000502_2014-06-08_23-02-32_260595134347_rgbf000063-resize_4-target.png,250,2.431,6,2076,248,feet,jsons/v1_VE250_randls_41.json,872439,1024566,32,Man
122,710702,DepthScenes,duration_manipulation_targetAtFixation,jsons/v1_VE250_randls_41.json,http://54.235.29.9/FacialAge/BNav_EC2/DepthDuration/v2_depth_duration_MTurk/v2_DepthDuration_HTML.html#403,403,1366,625,1366,768,8-29-2022,10-54-59,123,depth_duration_stimuli/000486_2014-06-09_20-47-20_260595134347_rgbf000143-resize_2/000486_2014-06-09_20-47-20_260595134347_rgbf000143-resize_2-target.png,250,4.8325,5,2192,252,feet,jsons/v1_VE250_randls_41.json,872439,1024566,32,Man
123,710702,DepthScenes,duration_manipulation_targetAtFixation,jsons/v1_VE250_randls_41.json,http://54.235.29.9/FacialAge/BNav_EC2/DepthDuration/v2_depth_duration_MTurk/v2_DepthDuration_HTML.html#403,403,1366,625,1366,768,8-29-2022,10-54-59,124,depth_duration_stimuli/003083_2014-06-15_15-21-03_094959634447_rgbf000063-resize_1/003083_2014-06-15_15-21-03_094959634447_rgbf000063-resize_1-target.png,250,4.1405,6,2416,244,feet,jsons/v1_VE250_randls_41.json,872439,1024566,32,Man
124,710702,DepthScenes,duration_manipulation_targetAtFixation,jsons/v1_VE250_randls_41.json,http://54.235.29.9/FacialAge/BNav_EC2/DepthDuration/v2_depth_duration_MTurk/v2_DepthDuration_HTML.html#403,403,1366,625,1366,768,8-29-2022,10-54-59,125,depth_duration_stimuli/002272_2014-06-28_18-53-56_260595134347_rgbf000067-resize_2/002272_2014-06-28_18-53-56_260595134347_rgbf000067-resize_2-target.png,250,1.138,3,2402,253,feet,jsons/v1_VE250_randls_41.json,872439,1024566,32,Man
125,710702,DepthScenes,duration_manipulation_targetAtFixation,jsons/v1_VE250_randls_41.json,http://54.235.29.9/FacialAge/BNav_EC2/DepthDuration/v2_depth_duration_MTurk/v2_DepthDuration_HTML.html#403,403,1366,625,1366,768,8-29-2022,10-54-59,126,depth_duration_stimuli/001571_2014-06-20_17-21-32_260595134347_rgbf000089-resize_1/001571_2014-06-20_17-21-32_260595134347_rgbf000089-resize_1-target.png,250,1.86,5,2155,249,feet,jsons/v1_VE250_randls_41.json,872439,1024566,32,Man
126,710702,DepthScenes,duration_manipulation_targetAtFixation,jsons/v1_VE250_randls_41.json,http://54.235.29.9/FacialAge/BNav_EC2/DepthDuration/v2_depth_duration_MTurk/v2_DepthDuration_HTML.html#403,403,1366,625,1366,768,8-29-2022,10-54-59,127,depth_duration_stimuli/000506_2014-06-08_23-21-00_260595134347_rgbf000070-resize_7/000506_2014-06-08_23-21-00_260595134347_rgbf000070-resize_7-target.png,250,4.0585,5,2115,200,feet,jsons/v1_VE250_randls_41.json,872439,1024566,32,Man
127,710702,DepthScenes,duration_manipulation_targetAtFixation,jsons/v1_VE250_randls_41.json,http://54.235.29.9/FacialAge/BNav_EC2/DepthDuration/v2_depth_duration_MTurk/v2_DepthDuration_HTML.html#403,403,1366,625,1366,768,8-29-2022,10-54-59,128,depth_duration_stimuli/003079_2014-06-15_15-18-20_094959634447_rgbf000152-resize_8/003079_2014-06-15_15-18-20_094959634447_rgbf000152-resize_8-target.png,250,2.8775,4,2625,646,feet,jsons/v1_VE250_randls_41.json,872439,1024566,32,Man
128,710702,DepthScenes,duration_manipulation_targetAtFixation,jsons/v1_VE250_randls_41.json,http://54.235.29.9/FacialAge/BNav_EC2/DepthDuration/v2_depth_duration_MTurk/v2_DepthDuration_HTML.html#403,403,1366,625,1366,768,8-29-2022,10-54-59,129,depth_duration_stimuli/003070_2014-06-15_14-58-27_094959634447_rgbf000150-resize_3/003070_2014-06-15_14-58-27_094959634447_rgbf000150-resize_3-target.png,250,2.9415,5,2192,242,feet,jsons/v1_VE250_randls_41.json,872439,1024566,32,Man
129,710702,DepthScenes,duration_manipulation_targetAtFixation,jsons/v1_VE250_randls_41.json,http://54.235.29.9/FacialAge/BNav_EC2/DepthDuration/v2_depth_duration_MTurk/v2_DepthDuration_HTML.html#403,403,1366,625,1366,768,8-29-2022,10-54-59,130,depth_duration_stimuli/000943_2014-06-09_19-31-07_260595134347_rgbf000128-resize_1/000943_2014-06-09_19-31-07_260595134347_rgbf000128-resize_1-target.png,250,1.9765,6,2621,249,feet,jsons/v1_VE250_randls_41.json,872439,1024566,32,Man
130,710702,DepthScenes,duration_manipulation_targetAtFixation,jsons/v1_VE250_randls_41.json,http://54.235.29.9/FacialAge/BNav_EC2/DepthDuration/v2_depth_duration_MTurk/v2_DepthDuration_HTML.html#403,403,1366,625,1366,768,8-29-2022,10-54-59,131,depth_duration_stimuli/003621_2014-05-23_18-06-08_094959634447_rgbf000101-resize_1/003621_2014-05-23_18-06-08_094959634447_rgbf000101-resize_1-target.png,250,3.9835,5,1754,244,feet,jsons/v1_VE250_randls_41.json,872439,1024566,32,Man
131,710702,DepthScenes,duration_manipulation_targetAtFixation,jsons/v1_VE250_randls_41.json,http://54.235.29.9/FacialAge/BNav_EC2/DepthDuration/v2_depth_duration_MTurk/v2_DepthDuration_HTML.html#403,403,1366,625,1366,768,8-29-2022,10-54-59,132,depth_duration_stimuli/001584_2014-06-20_11-07-43_260595134347_rgbf000002-resize_1/001584_2014-06-20_11-07-43_260595134347_rgbf000002-resize_1-target.png,250,3.53,4,2290,242,feet,jsons/v1_VE250_randls_41.json,872439,1024566,32,Man
132,710702,DepthScenes,duration_manipulation_targetAtFixation,jsons/v1_VE250_randls_41.json,http://54.235.29.9/FacialAge/BNav_EC2/DepthDuration/v2_depth_duration_MTurk/v2_DepthDuration_HTML.html#403,403,1366,625,1366,768,8-29-2022,10-54-59,133,depth_duration_stimuli/000692_2014-06-08_13-09-42_260595134347_rgbf000199-resize_2/000692_2014-06-08_13-09-42_260595134347_rgbf000199-resize_2-target.png,250,3.661,5,2224,248,feet,jsons/v1_VE250_randls_41.json,872439,1024566,32,Man
133,710702,DepthScenes,duration_manipulation_targetAtFixation,jsons/v1_VE250_randls_41.json,http://54.235.29.9/FacialAge/BNav_EC2/DepthDuration/v2_depth_duration_MTurk/v2_DepthDuration_HTML.html#403,403,1366,625,1366,768,8-29-2022,10-54-59,134,depth_duration_stimuli/001094_2014-06-15_17-36-00_260595134347_rgbf000205-resize_0/001094_2014-06-15_17-36-00_260595134347_rgbf000205-resize_0-target.png,250,4.2175,5,2624,247,feet,jsons/v1_VE250_randls_41.json,872439,1024566,32,Man
134,710702,DepthScenes,duration_manipulation_targetAtFixation,jsons/v1_VE250_randls_41.json,http://54.235.29.9/FacialAge/BNav_EC2/DepthDuration/v2_depth_duration_MTurk/v2_DepthDuration_HTML.html#403,403,1366,625,1366,768,8-29-2022,10-54-59,135,depth_duration_stimuli/002072_2014-06-24_21-48-06_260595134347_rgbf000115-resize_0/002072_2014-06-24_21-48-06_260595134347_rgbf000115-resize-original.jpg,250,4.702,0,2334,211,feet,jsons/v1_VE250_randls_41.json,872439,1024566,32,Man
135,710702,DepthScenes,duration_manipulation_targetAtFixation,jsons/v1_VE250_randls_41.json,http://54.235.29.9/FacialAge/BNav_EC2/DepthDuration/v2_depth_duration_MTurk/v2_DepthDuration_HTML.html#403,403,1366,625,1366,768,8-29-2022,10-54-59,136,depth_duration_stimuli/002153_2014-06-25_21-27-18_260595134347_rgbf000038-resize_5/002153_2014-06-25_21-27-18_260595134347_rgbf000038-resize_5-target.png,250,2.505,5,2677,246,feet,jsons/v1_VE250_randls_41.json,872439,1024566,32,Man
136,710702,DepthScenes,duration_manipulation_targetAtFixation,jsons/v1_VE250_randls_41.json,http://54.235.29.9/FacialAge/BNav_EC2/DepthDuration/v2_depth_duration_MTurk/v2_DepthDuration_HTML.html#403,403,1366,625,1366,768,8-29-2022,10-54-59,137,depth_duration_stimuli/002660_2014-06-13_15-44-18_094959634447_rgbf001878-resize_2/002660_2014-06-13_15-44-18_094959634447_rgbf001878-resize_2-target.png,250,3.576,5,2637,238,feet,jsons/v1_VE250_randls_41.json,872439,1024566,32,Man
137,710702,DepthScenes,duration_manipulation_targetAtFixation,jsons/v1_VE250_randls_41.json,http://54.235.29.9/FacialAge/BNav_EC2/DepthDuration/v2_depth_duration_MTurk/v2_DepthDuration_HTML.html#403,403,1366,625,1366,768,8-29-2022,10-54-59,138,depth_duration_stimuli/000368_2014-06-09_15-53-01_260595134347_rgbf000155-resize_2/000368_2014-06-09_15-53-01_260595134347_rgbf000155-resize_2-target.png,250,2.4859999999999998,0,2698,248,feet,jsons/v1_VE250_randls_41.json,872439,1024566,32,Man
138,710702,DepthScenes,duration_manipulation_targetAtFixation,jsons/v1_VE250_randls_41.json,http://54.235.29.9/FacialAge/BNav_EC2/DepthDuration/v2_depth_duration_MTurk/v2_DepthDuration_HTML.html#403,403,1366,625,1366,768,8-29-2022,10-54-59,139,depth_duration_stimuli/002678_2014-06-13_16-15-32_094959634447_rgbf000151-resize_6/002678_2014-06-13_16-15-32_094959634447_rgbf000151-resize_6-target.png,250,2.1830000000000003,5,2027,263,feet,jsons/v1_VE250_randls_41.json,872439,1024566,32,Man
139,710702,DepthScenes,duration_manipulation_targetAtFixation,jsons/v1_VE250_randls_41.json,http://54.235.29.9/FacialAge/BNav_EC2/DepthDuration/v2_depth_duration_MTurk/v2_DepthDuration_HTML.html#403,403,1366,625,1366,768,8-29-2022,10-54-59,140,depth_duration_stimuli/002988_2014-06-15_12-24-20_094959634447_rgbf000150-resize_1/002988_2014-06-15_12-24-20_094959634447_rgbf000150-resize_1-target.png,250,4.7669999999999995,5,9524,205,feet,jsons/v1_VE250_randls_41.json,872439,1024566,32,Man
140,710702,DepthScenes,duration_manipulation_targetAtFixation,jsons/v1_VE250_randls_41.json,http://54.235.29.9/FacialAge/BNav_EC2/DepthDuration/v2_depth_duration_MTurk/v2_DepthDuration_HTML.html#403,403,1366,625,1366,768,8-29-2022,10-54-59,141,depth_duration_stimuli/001052_2014-06-08_18-24-54_260595134347_rgbf000130-resize_1/001052_2014-06-08_18-24-54_260595134347_rgbf000130-resize_1-target.png,250,4.1045,6,3034,332,feet,jsons/v1_VE250_randls_41.json,872439,1024566,32,Man
141,710702,DepthScenes,duration_manipulation_targetAtFixation,jsons/v1_VE250_randls_41.json,http://54.235.29.9/FacialAge/BNav_EC2/DepthDuration/v2_depth_duration_MTurk/v2_DepthDuration_HTML.html#403,403,1366,625,1366,768,8-29-2022,10-54-59,142,depth_duration_stimuli/001029_2014-06-08_13-17-57_260595134347_rgbf000065-resize_1/001029_2014-06-08_13-17-57_260595134347_rgbf000065-resize_1-target.png,250,3.0835,6,3094,252,feet,jsons/v1_VE250_randls_41.json,872439,1024566,32,Man
142,710702,DepthScenes,duration_manipulation_targetAtFixation,jsons/v1_VE250_randls_41.json,http://54.235.29.9/FacialAge/BNav_EC2/DepthDuration/v2_depth_duration_MTurk/v2_DepthDuration_HTML.html#403,403,1366,625,1366,768,8-29-2022,10-54-59,143,depth_duration_stimuli/000677_2014-06-08_23-10-32_260595134347_rgbf000158-resize_6/000677_2014-06-08_23-10-32_260595134347_rgbf000158-resize_6-target.png,250,3.556,6,2035,183,feet,jsons/v1_VE250_randls_41.json,872439,1024566,32,Man
143,710702,DepthScenes,duration_manipulation_targetAtFixation,jsons/v1_VE250_randls_41.json,http://54.235.29.9/FacialAge/BNav_EC2/DepthDuration/v2_depth_duration_MTurk/v2_DepthDuration_HTML.html#403,403,1366,625,1366,768,8-29-2022,10-54-59,144,depth_duration_stimuli/000878_2014-06-08_22-52-45_260595134347_rgbf000045-resize_2/000878_2014-06-08_22-52-45_260595134347_rgbf000045-resize_2-target.png,250,2.092,6,2150,260,feet,jsons/v1_VE250_randls_41.json,872439,1024566,32,Man
144,710702,DepthScenes,duration_manipulation_targetAtFixation,jsons/v1_VE250_randls_41.json,http://54.235.29.9/FacialAge/BNav_EC2/DepthDuration/v2_depth_duration_MTurk/v2_DepthDuration_HTML.html#403,403,1366,625,1366,768,8-29-2022,10-54-59,145,depth_duration_stimuli/002953_2014-06-08_17-32-18_094959634447_rgbf000059-resize_5/002953_2014-06-08_17-32-18_094959634447_rgbf000059-resize_5-target.png,250,1.551,6,2336,255,feet,jsons/v1_VE250_randls_41.json,872439,1024566,32,Man
145,710702,DepthScenes,duration_manipulation_targetAtFixation,jsons/v1_VE250_randls_41.json,http://54.235.29.9/FacialAge/BNav_EC2/DepthDuration/v2_depth_duration_MTurk/v2_DepthDuration_HTML.html#403,403,1366,625,1366,768,8-29-2022,10-54-59,146,depth_duration_stimuli/001498_2014-06-19_17-45-14_260595134347_rgbf000129-resize_4/001498_2014-06-19_17-45-14_260595134347_rgbf000129-resize-original.jpg,250,1.4075,0,2144,258,feet,jsons/v1_VE250_randls_41.json,872439,1024566,32,Man
146,710702,DepthScenes,duration_manipulation_targetAtFixation,jsons/v1_VE250_randls_41.json,http://54.235.29.9/FacialAge/BNav_EC2/DepthDuration/v2_depth_duration_MTurk/v2_DepthDuration_HTML.html#403,403,1366,625,1366,768,8-29-2022,10-54-59,147,depth_duration_stimuli/001059_2014-06-08_21-53-27_260595134347_rgbf000061-resize_4/001059_2014-06-08_21-53-27_260595134347_rgbf000061-resize_4-target.png,250,2.4185,3,1910,239,feet,jsons/v1_VE250_randls_41.json,872439,1024566,32,Man
147,710702,DepthScenes,duration_manipulation_targetAtFixation,jsons/v1_VE250_randls_41.json,http://54.235.29.9/FacialAge/BNav_EC2/DepthDuration/v2_depth_duration_MTurk/v2_DepthDuration_HTML.html#403,403,1366,625,1366,768,8-29-2022,10-54-59,148,depth_duration_stimuli/001032_2014-06-08_13-23-17_260595134347_rgbf000021-resize_3/001032_2014-06-08_13-23-17_260595134347_rgbf000021-resize_3-target.png,250,3.2725,0,2624,246,feet,jsons/v1_VE250_randls_41.json,872439,1024566,32,Man
148,710702,DepthScenes,duration_manipulation_targetAtFixation,jsons/v1_VE250_randls_41.json,http://54.235.29.9/FacialAge/BNav_EC2/DepthDuration/v2_depth_duration_MTurk/v2_DepthDuration_HTML.html#403,403,1366,625,1366,768,8-29-2022,10-54-59,149,depth_duration_stimuli/001092_2014-06-15_17-34-58_260595134347_rgbf000171-resize_3/001092_2014-06-15_17-34-58_260595134347_rgbf000171-resize_3-target.png,250,2.6935,3,1932,252,feet,jsons/v1_VE250_randls_41.json,872439,1024566,32,Man
149,710702,DepthScenes,duration_manipulation_targetAtFixation,jsons/v1_VE250_randls_41.json,http://54.235.29.9/FacialAge/BNav_EC2/DepthDuration/v2_depth_duration_MTurk/v2_DepthDuration_HTML.html#403,403,1366,625,1366,768,8-29-2022,10-54-59,150,depth_duration_stimuli/002545_2014-06-24_13-38-53_094959634447_rgbf000080-resize_4/002545_2014-06-24_13-38-53_094959634447_rgbf000080-resize_4-target.png,250,1.9205,5,2543,250,feet,jsons/v1_VE250_randls_41.json,872439,1024566,32,Man
150,710702,DepthScenes,duration_manipulation_targetAtFixation,jsons/v1_VE250_randls_41.json,http://54.235.29.9/FacialAge/BNav_EC2/DepthDuration/v2_depth_duration_MTurk/v2_DepthDuration_HTML.html#403,403,1366,625,1366,768,8-29-2022,10-54-59,151,depth_duration_stimuli/000682_2014-06-08_23-14-58_260595134347_rgbf000041-resize_5/000682_2014-06-08_23-14-58_260595134347_rgbf000041-resize_5-target.png,250,2.7239999999999998,3,2023,250,feet,jsons/v1_VE250_randls_41.json,872439,1024566,32,Man
151,710702,DepthScenes,duration_manipulation_targetAtFixation,jsons/v1_VE250_randls_41.json,http://54.235.29.9/FacialAge/BNav_EC2/DepthDuration/v2_depth_duration_MTurk/v2_DepthDuration_HTML.html#403,403,1366,625,1366,768,8-29-2022,10-54-59,152,depth_duration_stimuli/001650_2014-06-20_12-09-00_260595134347_rgbf000087-resize_3/001650_2014-06-20_12-09-00_260595134347_rgbf000087-resize_3-target.png,250,1.9505,3,2240,248,feet,jsons/v1_VE250_randls_41.json,872439,1024566,32,Man
152,710702,DepthScenes,duration_manipulation_targetAtFixation,jsons/v1_VE250_randls_41.json,http://54.235.29.9/FacialAge/BNav_EC2/DepthDuration/v2_depth_duration_MTurk/v2_DepthDuration_HTML.html#403,403,1366,625,1366,768,8-29-2022,10-54-59,153,depth_duration_stimuli/000469_2014-06-09_19-42-10_260595134347_rgbf000081-resize_1/000469_2014-06-09_19-42-10_260595134347_rgbf000081-resize_1-target.png,250,1.652,3,1974,252,feet,jsons/v1_VE250_randls_41.json,872439,1024566,32,Man
153,710702,DepthScenes,duration_manipulation_targetAtFixation,jsons/v1_VE250_randls_41.json,http://54.235.29.9/FacialAge/BNav_EC2/DepthDuration/v2_depth_duration_MTurk/v2_DepthDuration_HTML.html#403,403,1366,625,1366,768,8-29-2022,10-54-59,154,depth_duration_stimuli/000483_2014-06-09_20-41-45_260595134347_rgbf000116-resize_4/000483_2014-06-09_20-41-45_260595134347_rgbf000116-resize_4-target.png,250,1.337,3,2153,255,feet,jsons/v1_VE250_randls_41.json,872439,1024566,32,Man
154,710702,DepthScenes,duration_manipulation_targetAtFixation,jsons/v1_VE250_randls_41.json,http://54.235.29.9/FacialAge/BNav_EC2/DepthDuration/v2_depth_duration_MTurk/v2_DepthDuration_HTML.html#403,403,1366,625,1366,768,8-29-2022,10-54-59,155,depth_duration_stimuli/002549_2014-06-24_13-41-39_094959634447_rgbf000022-resize_3/002549_2014-06-24_13-41-39_094959634447_rgbf000022-resize_3-target.png,250,1.476,5,2782,241,feet,jsons/v1_VE250_randls_41.json,872439,1024566,32,Man
155,710702,DepthScenes,duration_manipulation_targetAtFixation,jsons/v1_VE250_randls_41.json,http://54.235.29.9/FacialAge/BNav_EC2/DepthDuration/v2_depth_duration_MTurk/v2_DepthDuration_HTML.html#403,403,1366,625,1366,768,8-29-2022,10-54-59,156,depth_duration_stimuli/002750_2014-06-22_19-08-03_094959634447_rgbf000094-resize_4/002750_2014-06-22_19-08-03_094959634447_rgbf000094-resize_4-target.png,250,2.354,5,2066,249,feet,jsons/v1_VE250_randls_41.json,872439,1024566,32,Man
156,710702,DepthScenes,duration_manipulation_targetAtFixation,jsons/v1_VE250_randls_41.json,http://54.235.29.9/FacialAge/BNav_EC2/DepthDuration/v2_depth_duration_MTurk/v2_DepthDuration_HTML.html#403,403,1366,625,1366,768,8-29-2022,10-54-59,157,depth_duration_stimuli/002725_2014-06-22_11-47-51_094959634447_rgbf000070-resize_1/002725_2014-06-22_11-47-51_094959634447_rgbf000070-resize_1-target.png,250,2.195,6,2888,250,feet,jsons/v1_VE250_randls_41.json,872439,1024566,32,Man
157,710702,DepthScenes,duration_manipulation_targetAtFixation,jsons/v1_VE250_randls_41.json,http://54.235.29.9/FacialAge/BNav_EC2/DepthDuration/v2_depth_duration_MTurk/v2_DepthDuration_HTML.html#403,403,1366,625,1366,768,8-29-2022,10-54-59,158,depth_duration_stimuli/002344_2014-06-28_20-06-29_260595134347_rgbf000030-resize_1/002344_2014-06-28_20-06-29_260595134347_rgbf000030-resize_1-target.png,250,1.5795,3,2657,245,feet,jsons/v1_VE250_randls_41.json,872439,1024566,32,Man
158,710702,DepthScenes,duration_manipulation_targetAtFixation,jsons/v1_VE250_randls_41.json,http://54.235.29.9/FacialAge/BNav_EC2/DepthDuration/v2_depth_duration_MTurk/v2_DepthDuration_HTML.html#403,403,1366,625,1366,768,8-29-2022,10-54-59,159,depth_duration_stimuli/002989_2014-06-15_12-25-03_094959634447_rgbf000150-resize_3/002989_2014-06-15_12-25-03_094959634447_rgbf000150-resize_3-target.png,250,4.1975,7,2436,127,feet,jsons/v1_VE250_randls_41.json,872439,1024566,32,Man
159,710702,DepthScenes,duration_manipulation_targetAtFixation,jsons/v1_VE250_randls_41.json,http://54.235.29.9/FacialAge/BNav_EC2/DepthDuration/v2_depth_duration_MTurk/v2_DepthDuration_HTML.html#403,403,1366,625,1366,768,8-29-2022,10-54-59,160,depth_duration_stimuli/000866_2014-06-09_20-45-42_260595134347_rgbf000139-resize_1/000866_2014-06-09_20-45-42_260595134347_rgbf000139-resize_1-target.png,250,3.2155,7,2051,243,feet,jsons/v1_VE250_randls_41.json,872439,1024566,32,Man
160,710702,DepthScenes,duration_manipulation_targetAtFixation,jsons/v1_VE250_randls_41.json,http://54.235.29.9/FacialAge/BNav_EC2/DepthDuration/v2_depth_duration_MTurk/v2_DepthDuration_HTML.html#403,403,1366,625,1366,768,8-29-2022,10-54-59,161,depth_duration_stimuli/001056_2014-06-08_18-46-44_260595134347_rgbf000068-resize_0/001056_2014-06-08_18-46-44_260595134347_rgbf000068-resize_0-target.png,250,2.6625,5,2849,255,feet,jsons/v1_VE250_randls_41.json,872439,1024566,32,Man
161,710702,DepthScenes,duration_manipulation_targetAtFixation,jsons/v1_VE250_randls_41.json,http://54.235.29.9/FacialAge/BNav_EC2/DepthDuration/v2_depth_duration_MTurk/v2_DepthDuration_HTML.html#403,403,1366,625,1366,768,8-29-2022,10-54-59,162,depth_duration_stimuli/002199_2014-06-28_18-33-56_260595134347_rgbf000074-resize_0/002199_2014-06-28_18-33-56_260595134347_rgbf000074-resize_0-target.png,250,1.996,5,2409,232,feet,jsons/v1_VE250_randls_41.json,872439,1024566,32,Man
162,710702,DepthScenes,duration_manipulation_targetAtFixation,jsons/v1_VE250_randls_41.json,http://54.235.29.9/FacialAge/BNav_EC2/DepthDuration/v2_depth_duration_MTurk/v2_DepthDuration_HTML.html#403,403,1366,625,1366,768,8-29-2022,10-54-59,163,depth_duration_stimuli/001417_2014-06-19_16-25-36_260595134347_rgbf000115-resize_5/001417_2014-06-19_16-25-36_260595134347_rgbf000115-resize_5-target.png,250,4.6255,5,1980,251,feet,jsons/v1_VE250_randls_41.json,872439,1024566,32,Man
163,710702,DepthScenes,duration_manipulation_targetAtFixation,jsons/v1_VE250_randls_41.json,http://54.235.29.9/FacialAge/BNav_EC2/DepthDuration/v2_depth_duration_MTurk/v2_DepthDuration_HTML.html#403,403,1366,625,1366,768,8-29-2022,10-54-59,164,depth_duration_stimuli/003081_2014-06-15_15-19-16_094959634447_rgbf000150-resize_1/003081_2014-06-15_15-19-16_094959634447_rgbf000150-resize_1-target.png,250,3.9125,5,2001,233,feet,jsons/v1_VE250_randls_41.json,872439,1024566,32,Man
