,subjID,experimentName,versionName,sequenceName,url,selected_row,windowWidth,windowHeight,screenWidth,screenHeight,startDate,startTime,trial,stimulus,duration,actual_depth,depth_estimate,trial_RT,log_sceneDuration,unitSelection,seq_filepath,experimentTime,totalTime,age,gender
0,711133,DepthScenes,duration_manipulation_targetAtFixation,jsons/VE125_randls_43.json,http://54.235.29.9/FacialAge/BNav_EC2/DepthDuration/v2_depth_duration_MTurk/v2_DepthDuration_HTML.html#87,87,1517,730,1366,768,9-3-2022,13-36-43,1,depth_duration_stimuli/001092_2014-06-15_17-34-58_260595134347_rgbf000171-resize_3/001092_2014-06-15_17-34-58_260595134347_rgbf000171-resize_3-target.png,125,2.6935,70,6753,122,meters,jsons/VE125_randls_43.json,988182,1104641,51,Woman
1,711133,DepthScenes,duration_manipulation_targetAtFixation,jsons/VE125_randls_43.json,http://54.235.29.9/FacialAge/BNav_EC2/DepthDuration/v2_depth_duration_MTurk/v2_DepthDuration_HTML.html#87,87,1517,730,1366,768,9-3-2022,13-36-43,2,depth_duration_stimuli/002545_2014-06-24_13-38-53_094959634447_rgbf000080-resize_4/002545_2014-06-24_13-38-53_094959634447_rgbf000080-resize_4-target.png,125,1.9205,89,2860,77,meters,jsons/VE125_randls_43.json,988182,1104641,51,Woman
2,711133,DepthScenes,duration_manipulation_targetAtFixation,jsons/VE125_randls_43.json,http://54.235.29.9/FacialAge/BNav_EC2/DepthDuration/v2_depth_duration_MTurk/v2_DepthDuration_HTML.html#87,87,1517,730,1366,768,9-3-2022,13-36-43,3,depth_duration_stimuli/000368_2014-06-09_15-53-01_260595134347_rgbf000155-resize_2/000368_2014-06-09_15-53-01_260595134347_rgbf000155-resize_2-target.png,125,2.4859999999999998,87,3323,125,meters,jsons/VE125_randls_43.json,988182,1104641,51,Woman
3,711133,DepthScenes,duration_manipulation_targetAtFixation,jsons/VE125_randls_43.json,http://54.235.29.9/FacialAge/BNav_EC2/DepthDuration/v2_depth_duration_MTurk/v2_DepthDuration_HTML.html#87,87,1517,730,1366,768,9-3-2022,13-36-43,4,depth_duration_stimuli/002678_2014-06-13_16-15-32_094959634447_rgbf000151-resize_6/002678_2014-06-13_16-15-32_094959634447_rgbf000151-resize_6-target.png,125,2.1830000000000003,65,2421,125,meters,jsons/VE125_randls_43.json,988182,1104641,51,Woman
4,711133,DepthScenes,duration_manipulation_targetAtFixation,jsons/VE125_randls_43.json,http://54.235.29.9/FacialAge/BNav_EC2/DepthDuration/v2_depth_duration_MTurk/v2_DepthDuration_HTML.html#87,87,1517,730,1366,768,9-3-2022,13-36-43,5,depth_duration_stimuli/001055_2014-06-08_18-45-35_260595134347_rgbf000111-resize_4/001055_2014-06-08_18-45-35_260595134347_rgbf000111-resize_4-target.png,125,2.4290000000000003,76,2952,23,meters,jsons/VE125_randls_43.json,988182,1104641,51,Woman
5,711133,DepthScenes,duration_manipulation_targetAtFixation,jsons/VE125_randls_43.json,http://54.235.29.9/FacialAge/BNav_EC2/DepthDuration/v2_depth_duration_MTurk/v2_DepthDuration_HTML.html#87,87,1517,730,1366,768,9-3-2022,13-36-43,6,depth_duration_stimuli/000549_2014-06-08_22-10-24_260595134347_rgbf000247-resize_3/000549_2014-06-08_22-10-24_260595134347_rgbf000247-resize_3-target.png,125,1.841,56,2389,150,meters,jsons/VE125_randls_43.json,988182,1104641,51,Woman
6,711133,DepthScenes,duration_manipulation_targetAtFixation,jsons/VE125_randls_43.json,http://54.235.29.9/FacialAge/BNav_EC2/DepthDuration/v2_depth_duration_MTurk/v2_DepthDuration_HTML.html#87,87,1517,730,1366,768,9-3-2022,13-36-43,7,depth_duration_stimuli/000773_2014-06-08_22-24-54_260595134347_rgbf000093-resize_1/000773_2014-06-08_22-24-54_260595134347_rgbf000093-resize_1-target.png,125,4.973,87,2741,122,meters,jsons/VE125_randls_43.json,988182,1104641,51,Woman
7,711133,DepthScenes,duration_manipulation_targetAtFixation,jsons/VE125_randls_43.json,http://54.235.29.9/FacialAge/BNav_EC2/DepthDuration/v2_depth_duration_MTurk/v2_DepthDuration_HTML.html#87,87,1517,730,1366,768,9-3-2022,13-36-43,8,depth_duration_stimuli/002414_2014-06-28_20-24-58_260595134347_rgbf000067-resize_4/002414_2014-06-28_20-24-58_260595134347_rgbf000067-resize_4-target.png,125,4.363,65,7005,124,meters,jsons/VE125_randls_43.json,988182,1104641,51,Woman
8,711133,DepthScenes,duration_manipulation_targetAtFixation,jsons/VE125_randls_43.json,http://54.235.29.9/FacialAge/BNav_EC2/DepthDuration/v2_depth_duration_MTurk/v2_DepthDuration_HTML.html#87,87,1517,730,1366,768,9-3-2022,13-36-43,9,depth_duration_stimuli/003292_2014-05-14_21-53-49_094959634447_rgbf000100-resize_2/003292_2014-05-14_21-53-49_094959634447_rgbf000100-resize_2-target.png,125,3.4815,87,3155,124,meters,jsons/VE125_randls_43.json,988182,1104641,51,Woman
9,711133,DepthScenes,duration_manipulation_targetAtFixation,jsons/VE125_randls_43.json,http://54.235.29.9/FacialAge/BNav_EC2/DepthDuration/v2_depth_duration_MTurk/v2_DepthDuration_HTML.html#87,87,1517,730,1366,768,9-3-2022,13-36-43,10,depth_duration_stimuli/002639_2014-06-24_14-51-37_094959634447_rgbf000074-resize_4/002639_2014-06-24_14-51-37_094959634447_rgbf000074-resize_4-target.png,125,4.0375,89,2642,123,meters,jsons/VE125_randls_43.json,988182,1104641,51,Woman
10,711133,DepthScenes,duration_manipulation_targetAtFixation,jsons/VE125_randls_43.json,http://54.235.29.9/FacialAge/BNav_EC2/DepthDuration/v2_depth_duration_MTurk/v2_DepthDuration_HTML.html#87,87,1517,730,1366,768,9-3-2022,13-36-43,11,depth_duration_stimuli/001167_2014-06-17_15-38-07_260595134347_rgbf000108-resize_0/001167_2014-06-17_15-38-07_260595134347_rgbf000108-resize_0-target.png,125,1.8505,34,3225,123,meters,jsons/VE125_randls_43.json,988182,1104641,51,Woman
11,711133,DepthScenes,duration_manipulation_targetAtFixation,jsons/VE125_randls_43.json,http://54.235.29.9/FacialAge/BNav_EC2/DepthDuration/v2_depth_duration_MTurk/v2_DepthDuration_HTML.html#87,87,1517,730,1366,768,9-3-2022,13-36-43,12,depth_duration_stimuli/003587_2014-05-23_16-48-02_094959634447_rgbf002384-resize_2/003587_2014-05-23_16-48-02_094959634447_rgbf002384-resize_2-target.png,125,1.357,76,2946,123,meters,jsons/VE125_randls_43.json,988182,1104641,51,Woman
12,711133,DepthScenes,duration_manipulation_targetAtFixation,jsons/VE125_randls_43.json,http://54.235.29.9/FacialAge/BNav_EC2/DepthDuration/v2_depth_duration_MTurk/v2_DepthDuration_HTML.html#87,87,1517,730,1366,768,9-3-2022,13-36-43,13,depth_duration_stimuli/000569_2014-06-09_22-51-47_260595134347_rgbf000141-resize_3/000569_2014-06-09_22-51-47_260595134347_rgbf000141-resize-original.jpg,125,4.512,45,5479,308,meters,jsons/VE125_randls_43.json,988182,1104641,51,Woman
13,711133,DepthScenes,duration_manipulation_targetAtFixation,jsons/VE125_randls_43.json,http://54.235.29.9/FacialAge/BNav_EC2/DepthDuration/v2_depth_duration_MTurk/v2_DepthDuration_HTML.html#87,87,1517,730,1366,768,9-3-2022,13-36-43,14,depth_duration_stimuli/002748_2014-06-22_19-07-22_094959634447_rgbf000078-resize_1/002748_2014-06-22_19-07-22_094959634447_rgbf000078-resize_1-target.png,125,4.6705,54,6854,125,meters,jsons/VE125_randls_43.json,988182,1104641,51,Woman
14,711133,DepthScenes,duration_manipulation_targetAtFixation,jsons/VE125_randls_43.json,http://54.235.29.9/FacialAge/BNav_EC2/DepthDuration/v2_depth_duration_MTurk/v2_DepthDuration_HTML.html#87,87,1517,730,1366,768,9-3-2022,13-36-43,15,depth_duration_stimuli/002995_2014-06-15_12-31-26_094959634447_rgbf000150-resize_1/002995_2014-06-15_12-31-26_094959634447_rgbf000150-resize_1-target.png,125,3.8360000000000003,67,5007,124,meters,jsons/VE125_randls_43.json,988182,1104641,51,Woman
15,711133,DepthScenes,duration_manipulation_targetAtFixation,jsons/VE125_randls_43.json,http://54.235.29.9/FacialAge/BNav_EC2/DepthDuration/v2_depth_duration_MTurk/v2_DepthDuration_HTML.html#87,87,1517,730,1366,768,9-3-2022,13-36-43,16,depth_duration_stimuli/000470_2014-06-09_19-42-40_260595134347_rgbf000094-resize_1/000470_2014-06-09_19-42-40_260595134347_rgbf000094-resize_1-target.png,125,1.831,65,4214,123,meters,jsons/VE125_randls_43.json,988182,1104641,51,Woman
16,711133,DepthScenes,duration_manipulation_targetAtFixation,jsons/VE125_randls_43.json,http://54.235.29.9/FacialAge/BNav_EC2/DepthDuration/v2_depth_duration_MTurk/v2_DepthDuration_HTML.html#87,87,1517,730,1366,768,9-3-2022,13-36-43,17,depth_duration_stimuli/000109_2014-05-14_23-41-52_260595134347_rgbf000035-resize_9/000109_2014-05-14_23-41-52_260595134347_rgbf000035-resize_9-target.png,125,1.3545,76,3469,123,meters,jsons/VE125_randls_43.json,988182,1104641,51,Woman
17,711133,DepthScenes,duration_manipulation_targetAtFixation,jsons/VE125_randls_43.json,http://54.235.29.9/FacialAge/BNav_EC2/DepthDuration/v2_depth_duration_MTurk/v2_DepthDuration_HTML.html#87,87,1517,730,1366,768,9-3-2022,13-36-43,18,depth_duration_stimuli/001810_2014-06-26_20-51-35_260595134347_rgbf000040-resize_3/001810_2014-06-26_20-51-35_260595134347_rgbf000040-resize_3-target.png,125,2.2525,87,6619,124,meters,jsons/VE125_randls_43.json,988182,1104641,51,Woman
18,711133,DepthScenes,duration_manipulation_targetAtFixation,jsons/VE125_randls_43.json,http://54.235.29.9/FacialAge/BNav_EC2/DepthDuration/v2_depth_duration_MTurk/v2_DepthDuration_HTML.html#87,87,1517,730,1366,768,9-3-2022,13-36-43,19,depth_duration_stimuli/003010_2014-06-15_12-54-35_094959634447_rgbf000112-resize_0/003010_2014-06-15_12-54-35_094959634447_rgbf000112-resize_0-target.png,125,3.1185,87,2457,125,meters,jsons/VE125_randls_43.json,988182,1104641,51,Woman
19,711133,DepthScenes,duration_manipulation_targetAtFixation,jsons/VE125_randls_43.json,http://54.235.29.9/FacialAge/BNav_EC2/DepthDuration/v2_depth_duration_MTurk/v2_DepthDuration_HTML.html#87,87,1517,730,1366,768,9-3-2022,13-36-43,20,depth_duration_stimuli/001808_2014-06-26_20-50-58_260595134347_rgbf000029-resize_1/001808_2014-06-26_20-50-58_260595134347_rgbf000029-resize_1-target.png,125,4.249,98,8226,124,meters,jsons/VE125_randls_43.json,988182,1104641,51,Woman
20,711133,DepthScenes,duration_manipulation_targetAtFixation,jsons/VE125_randls_43.json,http://54.235.29.9/FacialAge/BNav_EC2/DepthDuration/v2_depth_duration_MTurk/v2_DepthDuration_HTML.html#87,87,1517,730,1366,768,9-3-2022,13-36-43,21,depth_duration_stimuli/001815_2014-06-26_20-52-55_260595134347_rgbf000020-resize_0/001815_2014-06-26_20-52-55_260595134347_rgbf000020-resize_0-target.png,125,3.3865,97,3697,122,meters,jsons/VE125_randls_43.json,988182,1104641,51,Woman
21,711133,DepthScenes,duration_manipulation_targetAtFixation,jsons/VE125_randls_43.json,http://54.235.29.9/FacialAge/BNav_EC2/DepthDuration/v2_depth_duration_MTurk/v2_DepthDuration_HTML.html#87,87,1517,730,1366,768,9-3-2022,13-36-43,22,depth_duration_stimuli/000739_2014-06-08_18-45-58_260595134347_rgbf000068-resize_1/000739_2014-06-08_18-45-58_260595134347_rgbf000068-resize_1-target.png,125,3.534,87,3378,124,meters,jsons/VE125_randls_43.json,988182,1104641,51,Woman
22,711133,DepthScenes,duration_manipulation_targetAtFixation,jsons/VE125_randls_43.json,http://54.235.29.9/FacialAge/BNav_EC2/DepthDuration/v2_depth_duration_MTurk/v2_DepthDuration_HTML.html#87,87,1517,730,1366,768,9-3-2022,13-36-43,23,depth_duration_stimuli/000734_2014-06-08_17-39-11_260595134347_rgbf000128-resize_2/000734_2014-06-08_17-39-11_260595134347_rgbf000128-resize_2-target.png,125,4.098,87,4387,125,meters,jsons/VE125_randls_43.json,988182,1104641,51,Woman
23,711133,DepthScenes,duration_manipulation_targetAtFixation,jsons/VE125_randls_43.json,http://54.235.29.9/FacialAge/BNav_EC2/DepthDuration/v2_depth_duration_MTurk/v2_DepthDuration_HTML.html#87,87,1517,730,1366,768,9-3-2022,13-36-43,24,depth_duration_stimuli/003621_2014-05-23_18-06-08_094959634447_rgbf000101-resize_1/003621_2014-05-23_18-06-08_094959634447_rgbf000101-resize_1-target.png,125,3.9835,89,4119,125,meters,jsons/VE125_randls_43.json,988182,1104641,51,Woman
24,711133,DepthScenes,duration_manipulation_targetAtFixation,jsons/VE125_randls_43.json,http://54.235.29.9/FacialAge/BNav_EC2/DepthDuration/v2_depth_duration_MTurk/v2_DepthDuration_HTML.html#87,87,1517,730,1366,768,9-3-2022,13-36-43,25,depth_duration_stimuli/001584_2014-06-20_11-07-43_260595134347_rgbf000002-resize_1/001584_2014-06-20_11-07-43_260595134347_rgbf000002-resize_1-target.png,125,3.53,56,2925,105,meters,jsons/VE125_randls_43.json,988182,1104641,51,Woman
25,711133,DepthScenes,duration_manipulation_targetAtFixation,jsons/VE125_randls_43.json,http://54.235.29.9/FacialAge/BNav_EC2/DepthDuration/v2_depth_duration_MTurk/v2_DepthDuration_HTML.html#87,87,1517,730,1366,768,9-3-2022,13-36-43,26,depth_duration_stimuli/003070_2014-06-15_14-58-27_094959634447_rgbf000150-resize_3/003070_2014-06-15_14-58-27_094959634447_rgbf000150-resize_3-target.png,125,2.9415,87,3273,126,meters,jsons/VE125_randls_43.json,988182,1104641,51,Woman
26,711133,DepthScenes,duration_manipulation_targetAtFixation,jsons/VE125_randls_43.json,http://54.235.29.9/FacialAge/BNav_EC2/DepthDuration/v2_depth_duration_MTurk/v2_DepthDuration_HTML.html#87,87,1517,730,1366,768,9-3-2022,13-36-43,27,depth_duration_stimuli/000943_2014-06-09_19-31-07_260595134347_rgbf000128-resize_1/000943_2014-06-09_19-31-07_260595134347_rgbf000128-resize_1-target.png,125,1.9765,87,2353,216,meters,jsons/VE125_randls_43.json,988182,1104641,51,Woman
27,711133,DepthScenes,duration_manipulation_targetAtFixation,jsons/VE125_randls_43.json,http://54.235.29.9/FacialAge/BNav_EC2/DepthDuration/v2_depth_duration_MTurk/v2_DepthDuration_HTML.html#87,87,1517,730,1366,768,9-3-2022,13-36-43,28,depth_duration_stimuli/001029_2014-06-08_13-17-57_260595134347_rgbf000065-resize_1/001029_2014-06-08_13-17-57_260595134347_rgbf000065-resize_1-target.png,125,3.0835,76,3652,122,meters,jsons/VE125_randls_43.json,988182,1104641,51,Woman
28,711133,DepthScenes,duration_manipulation_targetAtFixation,jsons/VE125_randls_43.json,http://54.235.29.9/FacialAge/BNav_EC2/DepthDuration/v2_depth_duration_MTurk/v2_DepthDuration_HTML.html#87,87,1517,730,1366,768,9-3-2022,13-36-43,29,depth_duration_stimuli/000677_2014-06-08_23-10-32_260595134347_rgbf000158-resize_6/000677_2014-06-08_23-10-32_260595134347_rgbf000158-resize_6-target.png,125,3.556,98,2410,117,meters,jsons/VE125_randls_43.json,988182,1104641,51,Woman
29,711133,DepthScenes,duration_manipulation_targetAtFixation,jsons/VE125_randls_43.json,http://54.235.29.9/FacialAge/BNav_EC2/DepthDuration/v2_depth_duration_MTurk/v2_DepthDuration_HTML.html#87,87,1517,730,1366,768,9-3-2022,13-36-43,30,depth_duration_stimuli/000375_2014-06-08_11-17-29_260595134347_rgbf000133-resize_2/000375_2014-06-08_11-17-29_260595134347_rgbf000133-resize-original.jpg,125,4.718,76,20827,123,meters,jsons/VE125_randls_43.json,988182,1104641,51,Woman
30,711133,DepthScenes,duration_manipulation_targetAtFixation,jsons/VE125_randls_43.json,http://54.235.29.9/FacialAge/BNav_EC2/DepthDuration/v2_depth_duration_MTurk/v2_DepthDuration_HTML.html#87,87,1517,730,1366,768,9-3-2022,13-36-43,31,depth_duration_stimuli/000878_2014-06-08_22-52-45_260595134347_rgbf000045-resize_2/000878_2014-06-08_22-52-45_260595134347_rgbf000045-resize_2-target.png,125,2.092,34,45389,123,meters,jsons/VE125_randls_43.json,988182,1104641,51,Woman
31,711133,DepthScenes,duration_manipulation_targetAtFixation,jsons/VE125_randls_43.json,http://54.235.29.9/FacialAge/BNav_EC2/DepthDuration/v2_depth_duration_MTurk/v2_DepthDuration_HTML.html#87,87,1517,730,1366,768,9-3-2022,13-36-43,32,depth_duration_stimuli/002953_2014-06-08_17-32-18_094959634447_rgbf000059-resize_5/002953_2014-06-08_17-32-18_094959634447_rgbf000059-resize_5-target.png,125,1.551,45,2758,126,meters,jsons/VE125_randls_43.json,988182,1104641,51,Woman
32,711133,DepthScenes,duration_manipulation_targetAtFixation,jsons/VE125_randls_43.json,http://54.235.29.9/FacialAge/BNav_EC2/DepthDuration/v2_depth_duration_MTurk/v2_DepthDuration_HTML.html#87,87,1517,730,1366,768,9-3-2022,13-36-43,33,depth_duration_stimuli/002663_2014-06-13_15-50-26_094959634447_rgbf000075-resize_1/002663_2014-06-13_15-50-26_094959634447_rgbf000075-resize_1-target.png,125,4.7495,43,4361,123,meters,jsons/VE125_randls_43.json,988182,1104641,51,Woman
33,711133,DepthScenes,duration_manipulation_targetAtFixation,jsons/VE125_randls_43.json,http://54.235.29.9/FacialAge/BNav_EC2/DepthDuration/v2_depth_duration_MTurk/v2_DepthDuration_HTML.html#87,87,1517,730,1366,768,9-3-2022,13-36-43,34,depth_duration_stimuli/000409_2014-06-04_19-23-33_260595134347_rgbf000067-resize_0/000409_2014-06-04_19-23-33_260595134347_rgbf000067-resize_0-target.png,125,3.7335,45,2894,123,meters,jsons/VE125_randls_43.json,988182,1104641,51,Woman
34,711133,DepthScenes,duration_manipulation_targetAtFixation,jsons/VE125_randls_43.json,http://54.235.29.9/FacialAge/BNav_EC2/DepthDuration/v2_depth_duration_MTurk/v2_DepthDuration_HTML.html#87,87,1517,730,1366,768,9-3-2022,13-36-43,35,depth_duration_stimuli/000929_2014-06-09_16-33-19_260595134347_rgbf000139-resize_0/000929_2014-06-09_16-33-19_260595134347_rgbf000139-resize_0-target.png,125,2.8680000000000003,44,4187,124,meters,jsons/VE125_randls_43.json,988182,1104641,51,Woman
35,711133,DepthScenes,duration_manipulation_targetAtFixation,jsons/VE125_randls_43.json,http://54.235.29.9/FacialAge/BNav_EC2/DepthDuration/v2_depth_duration_MTurk/v2_DepthDuration_HTML.html#87,87,1517,730,1366,768,9-3-2022,13-36-43,36,depth_duration_stimuli/000457_2014-06-08_16-52-43_260595134347_rgbf000199-resize_1/000457_2014-06-08_16-52-43_260595134347_rgbf000199-resize_1-target.png,125,3.6489999999999996,65,3748,172,meters,jsons/VE125_randls_43.json,988182,1104641,51,Woman
36,711133,DepthScenes,duration_manipulation_targetAtFixation,jsons/VE125_randls_43.json,http://54.235.29.9/FacialAge/BNav_EC2/DepthDuration/v2_depth_duration_MTurk/v2_DepthDuration_HTML.html#87,87,1517,730,1366,768,9-3-2022,13-36-43,37,depth_duration_stimuli/002549_2014-06-24_13-41-39_094959634447_rgbf000022-resize_3/002549_2014-06-24_13-41-39_094959634447_rgbf000022-resize_3-target.png,125,1.476,65,4579,277,meters,jsons/VE125_randls_43.json,988182,1104641,51,Woman
37,711133,DepthScenes,duration_manipulation_targetAtFixation,jsons/VE125_randls_43.json,http://54.235.29.9/FacialAge/BNav_EC2/DepthDuration/v2_depth_duration_MTurk/v2_DepthDuration_HTML.html#87,87,1517,730,1366,768,9-3-2022,13-36-43,38,depth_duration_stimuli/002750_2014-06-22_19-08-03_094959634447_rgbf000094-resize_4/002750_2014-06-22_19-08-03_094959634447_rgbf000094-resize_4-target.png,125,2.354,54,5705,123,meters,jsons/VE125_randls_43.json,988182,1104641,51,Woman
38,711133,DepthScenes,duration_manipulation_targetAtFixation,jsons/VE125_randls_43.json,http://54.235.29.9/FacialAge/BNav_EC2/DepthDuration/v2_depth_duration_MTurk/v2_DepthDuration_HTML.html#87,87,1517,730,1366,768,9-3-2022,13-36-43,39,depth_duration_stimuli/000906_2014-06-08_13-35-43_260595134347_rgbf000155-resize_1/000906_2014-06-08_13-35-43_260595134347_rgbf000155-resize_1-target.png,125,2.8489999999999998,65,4503,123,meters,jsons/VE125_randls_43.json,988182,1104641,51,Woman
39,711133,DepthScenes,duration_manipulation_targetAtFixation,jsons/VE125_randls_43.json,http://54.235.29.9/FacialAge/BNav_EC2/DepthDuration/v2_depth_duration_MTurk/v2_DepthDuration_HTML.html#87,87,1517,730,1366,768,9-3-2022,13-36-43,40,depth_duration_stimuli/002805_2014-06-22_19-54-03_094959634447_rgbf000079-resize_1/002805_2014-06-22_19-54-03_094959634447_rgbf000079-resize_1-target.png,125,3.1439999999999997,63,3195,232,meters,jsons/VE125_randls_43.json,988182,1104641,51,Woman
40,711133,DepthScenes,duration_manipulation_targetAtFixation,jsons/VE125_randls_43.json,http://54.235.29.9/FacialAge/BNav_EC2/DepthDuration/v2_depth_duration_MTurk/v2_DepthDuration_HTML.html#87,87,1517,730,1366,768,9-3-2022,13-36-43,41,depth_duration_stimuli/000642_2014-06-08_16-59-25_260595134347_rgbf000098-resize_2/000642_2014-06-08_16-59-25_260595134347_rgbf000098-resize_2-target.png,125,2.8815,77,4368,123,meters,jsons/VE125_randls_43.json,988182,1104641,51,Woman
41,711133,DepthScenes,duration_manipulation_targetAtFixation,jsons/VE125_randls_43.json,http://54.235.29.9/FacialAge/BNav_EC2/DepthDuration/v2_depth_duration_MTurk/v2_DepthDuration_HTML.html#87,87,1517,730,1366,768,9-3-2022,13-36-43,42,depth_duration_stimuli/002425_2014-06-28_20-27-29_260595134347_rgbf000031-resize_8/002425_2014-06-28_20-27-29_260595134347_rgbf000031-resize_8-target.png,125,3.8960000000000004,78,3788,125,meters,jsons/VE125_randls_43.json,988182,1104641,51,Woman
42,711133,DepthScenes,duration_manipulation_targetAtFixation,jsons/VE125_randls_43.json,http://54.235.29.9/FacialAge/BNav_EC2/DepthDuration/v2_depth_duration_MTurk/v2_DepthDuration_HTML.html#87,87,1517,730,1366,768,9-3-2022,13-36-43,43,depth_duration_stimuli/002445_2014-06-28_20-32-16_260595134347_rgbf000029-resize_4/002445_2014-06-28_20-32-16_260595134347_rgbf000029-resize_4-target.png,125,2.5315,78,4566,117,meters,jsons/VE125_randls_43.json,988182,1104641,51,Woman
43,711133,DepthScenes,duration_manipulation_targetAtFixation,jsons/VE125_randls_43.json,http://54.235.29.9/FacialAge/BNav_EC2/DepthDuration/v2_depth_duration_MTurk/v2_DepthDuration_HTML.html#87,87,1517,730,1366,768,9-3-2022,13-36-43,44,depth_duration_stimuli/000780_2014-06-08_22-28-29_260595134347_rgbf000126-resize_1/000780_2014-06-08_22-28-29_260595134347_rgbf000126-resize_1-target.png,125,3.3825,75,3624,123,meters,jsons/VE125_randls_43.json,988182,1104641,51,Woman
44,711133,DepthScenes,duration_manipulation_targetAtFixation,jsons/VE125_randls_43.json,http://54.235.29.9/FacialAge/BNav_EC2/DepthDuration/v2_depth_duration_MTurk/v2_DepthDuration_HTML.html#87,87,1517,730,1366,768,9-3-2022,13-36-43,45,depth_duration_stimuli/000787_2014-06-08_22-33-53_260595134347_rgbf000175-resize_1/000787_2014-06-08_22-33-53_260595134347_rgbf000175-resize-original.jpg,125,4.784,35,3566,123,meters,jsons/VE125_randls_43.json,988182,1104641,51,Woman
45,711133,DepthScenes,duration_manipulation_targetAtFixation,jsons/VE125_randls_43.json,http://54.235.29.9/FacialAge/BNav_EC2/DepthDuration/v2_depth_duration_MTurk/v2_DepthDuration_HTML.html#87,87,1517,730,1366,768,9-3-2022,13-36-43,46,depth_duration_stimuli/002057_2014-06-24_21-00-13_260595134347_rgbf000120-resize_1/002057_2014-06-24_21-00-13_260595134347_rgbf000120-resize_1-target.png,125,2.967,83,5219,124,meters,jsons/VE125_randls_43.json,988182,1104641,51,Woman
46,711133,DepthScenes,duration_manipulation_targetAtFixation,jsons/VE125_randls_43.json,http://54.235.29.9/FacialAge/BNav_EC2/DepthDuration/v2_depth_duration_MTurk/v2_DepthDuration_HTML.html#87,87,1517,730,1366,768,9-3-2022,13-36-43,47,depth_duration_stimuli/000709_2014-06-08_13-51-55_260595134347_rgbf000068-resize_3/000709_2014-06-08_13-51-55_260595134347_rgbf000068-resize_3-target.png,125,1.8030000000000002,64,4980,123,meters,jsons/VE125_randls_43.json,988182,1104641,51,Woman
47,711133,DepthScenes,duration_manipulation_targetAtFixation,jsons/VE125_randls_43.json,http://54.235.29.9/FacialAge/BNav_EC2/DepthDuration/v2_depth_duration_MTurk/v2_DepthDuration_HTML.html#87,87,1517,730,1366,768,9-3-2022,13-36-43,48,depth_duration_stimuli/000447_2014-06-08_16-15-46_260595134347_rgbf000130-resize_1/000447_2014-06-08_16-15-46_260595134347_rgbf000130-resize_1-target.png,125,4.479,93,5465,123,meters,jsons/VE125_randls_43.json,988182,1104641,51,Woman
48,711133,DepthScenes,duration_manipulation_targetAtFixation,jsons/VE125_randls_43.json,http://54.235.29.9/FacialAge/BNav_EC2/DepthDuration/v2_depth_duration_MTurk/v2_DepthDuration_HTML.html#87,87,1517,730,1366,768,9-3-2022,13-36-43,49,depth_duration_stimuli/001447_2014-06-19_17-00-32_260595134347_rgbf000082-resize_5/001447_2014-06-19_17-00-32_260595134347_rgbf000082-resize_5-target.png,125,4.13775,48,3020,122,meters,jsons/VE125_randls_43.json,988182,1104641,51,Woman
49,711133,DepthScenes,duration_manipulation_targetAtFixation,jsons/VE125_randls_43.json,http://54.235.29.9/FacialAge/BNav_EC2/DepthDuration/v2_depth_duration_MTurk/v2_DepthDuration_HTML.html#87,87,1517,730,1366,768,9-3-2022,13-36-43,50,depth_duration_stimuli/002988_2014-06-15_12-24-20_094959634447_rgbf000150-resize_1/002988_2014-06-15_12-24-20_094959634447_rgbf000150-resize_1-target.png,125,4.7669999999999995,84,3858,124,meters,jsons/VE125_randls_43.json,988182,1104641,51,Woman
50,711133,DepthScenes,duration_manipulation_targetAtFixation,jsons/VE125_randls_43.json,http://54.235.29.9/FacialAge/BNav_EC2/DepthDuration/v2_depth_duration_MTurk/v2_DepthDuration_HTML.html#87,87,1517,730,1366,768,9-3-2022,13-36-43,51,depth_duration_stimuli/001052_2014-06-08_18-24-54_260595134347_rgbf000130-resize_1/001052_2014-06-08_18-24-54_260595134347_rgbf000130-resize_1-target.png,125,4.1045,49,2694,32,meters,jsons/VE125_randls_43.json,988182,1104641,51,Woman
51,711133,DepthScenes,duration_manipulation_targetAtFixation,jsons/VE125_randls_43.json,http://54.235.29.9/FacialAge/BNav_EC2/DepthDuration/v2_depth_duration_MTurk/v2_DepthDuration_HTML.html#87,87,1517,730,1366,768,9-3-2022,13-36-43,52,depth_duration_stimuli/002153_2014-06-25_21-27-18_260595134347_rgbf000038-resize_5/002153_2014-06-25_21-27-18_260595134347_rgbf000038-resize_5-target.png,125,2.505,94,4541,124,meters,jsons/VE125_randls_43.json,988182,1104641,51,Woman
52,711133,DepthScenes,duration_manipulation_targetAtFixation,jsons/VE125_randls_43.json,http://54.235.29.9/FacialAge/BNav_EC2/DepthDuration/v2_depth_duration_MTurk/v2_DepthDuration_HTML.html#87,87,1517,730,1366,768,9-3-2022,13-36-43,53,depth_duration_stimuli/002660_2014-06-13_15-44-18_094959634447_rgbf001878-resize_2/002660_2014-06-13_15-44-18_094959634447_rgbf001878-resize_2-target.png,125,3.576,94,2525,124,meters,jsons/VE125_randls_43.json,988182,1104641,51,Woman
53,711133,DepthScenes,duration_manipulation_targetAtFixation,jsons/VE125_randls_43.json,http://54.235.29.9/FacialAge/BNav_EC2/DepthDuration/v2_depth_duration_MTurk/v2_DepthDuration_HTML.html#87,87,1517,730,1366,768,9-3-2022,13-36-43,54,depth_duration_stimuli/001150_2014-06-17_15-27-34_260595134347_rgbf000108-resize_2/001150_2014-06-17_15-27-34_260595134347_rgbf000108-resize_2-target.png,125,4.0325,94,4669,122,meters,jsons/VE125_randls_43.json,988182,1104641,51,Woman
54,711133,DepthScenes,duration_manipulation_targetAtFixation,jsons/VE125_randls_43.json,http://54.235.29.9/FacialAge/BNav_EC2/DepthDuration/v2_depth_duration_MTurk/v2_DepthDuration_HTML.html#87,87,1517,730,1366,768,9-3-2022,13-36-43,55,depth_duration_stimuli/000665_2014-06-09_20-42-35_260595134347_rgbf000110-resize_1/000665_2014-06-09_20-42-35_260595134347_rgbf000110-resize_1-target.png,125,3.057,94,2927,123,meters,jsons/VE125_randls_43.json,988182,1104641,51,Woman
55,711133,DepthScenes,duration_manipulation_targetAtFixation,jsons/VE125_randls_43.json,http://54.235.29.9/FacialAge/BNav_EC2/DepthDuration/v2_depth_duration_MTurk/v2_DepthDuration_HTML.html#87,87,1517,730,1366,768,9-3-2022,13-36-43,56,depth_duration_stimuli/001056_2014-06-08_18-46-44_260595134347_rgbf000068-resize_0/001056_2014-06-08_18-46-44_260595134347_rgbf000068-resize_0-target.png,125,2.6625,49,4251,83,meters,jsons/VE125_randls_43.json,988182,1104641,51,Woman
56,711133,DepthScenes,duration_manipulation_targetAtFixation,jsons/VE125_randls_43.json,http://54.235.29.9/FacialAge/BNav_EC2/DepthDuration/v2_depth_duration_MTurk/v2_DepthDuration_HTML.html#87,87,1517,730,1366,768,9-3-2022,13-36-43,57,depth_duration_stimuli/002199_2014-06-28_18-33-56_260595134347_rgbf000074-resize_0/002199_2014-06-28_18-33-56_260595134347_rgbf000074-resize_0-target.png,125,1.996,76,10563,92,meters,jsons/VE125_randls_43.json,988182,1104641,51,Woman
57,711133,DepthScenes,duration_manipulation_targetAtFixation,jsons/VE125_randls_43.json,http://54.235.29.9/FacialAge/BNav_EC2/DepthDuration/v2_depth_duration_MTurk/v2_DepthDuration_HTML.html#87,87,1517,730,1366,768,9-3-2022,13-36-43,58,depth_duration_stimuli/002784_2014-06-22_19-26-30_094959634447_rgbf000083-resize_3/002784_2014-06-22_19-26-30_094959634447_rgbf000083-resize_3-target.png,125,1.8046666666667,65,4617,125,meters,jsons/VE125_randls_43.json,988182,1104641,51,Woman
58,711133,DepthScenes,duration_manipulation_targetAtFixation,jsons/VE125_randls_43.json,http://54.235.29.9/FacialAge/BNav_EC2/DepthDuration/v2_depth_duration_MTurk/v2_DepthDuration_HTML.html#87,87,1517,730,1366,768,9-3-2022,13-36-43,59,depth_duration_stimuli/001100_2014-06-15_17-46-26_260595134347_rgbf000225-resize_2/001100_2014-06-15_17-46-26_260595134347_rgbf000225-resize_2-target.png,125,2.24,100,4472,22,meters,jsons/VE125_randls_43.json,988182,1104641,51,Woman
59,711133,DepthScenes,duration_manipulation_targetAtFixation,jsons/VE125_randls_43.json,http://54.235.29.9/FacialAge/BNav_EC2/DepthDuration/v2_depth_duration_MTurk/v2_DepthDuration_HTML.html#87,87,1517,730,1366,768,9-3-2022,13-36-43,60,depth_duration_stimuli/002213_2014-06-28_18-37-58_260595134347_rgbf000055-resize_1/002213_2014-06-28_18-37-58_260595134347_rgbf000055-resize_1-target.png,125,3.62,45,4116,125,meters,jsons/VE125_randls_43.json,988182,1104641,51,Woman
60,711133,DepthScenes,duration_manipulation_targetAtFixation,jsons/VE125_randls_43.json,http://54.235.29.9/FacialAge/BNav_EC2/DepthDuration/v2_depth_duration_MTurk/v2_DepthDuration_HTML.html#87,87,1517,730,1366,768,9-3-2022,13-36-43,61,depth_duration_stimuli/000691_2014-06-08_13-08-50_260595134347_rgbf000132-resize_3/000691_2014-06-08_13-08-50_260595134347_rgbf000132-resize_3-target.png,125,4.1530000000000005,345,2898,124,meters,jsons/VE125_randls_43.json,988182,1104641,51,Woman
61,711133,DepthScenes,duration_manipulation_targetAtFixation,jsons/VE125_randls_43.json,http://54.235.29.9/FacialAge/BNav_EC2/DepthDuration/v2_depth_duration_MTurk/v2_DepthDuration_HTML.html#87,87,1517,730,1366,768,9-3-2022,13-36-43,62,depth_duration_stimuli/000414_2014-06-04_19-49-13_260595134347_rgbf000044-resize_0/000414_2014-06-04_19-49-13_260595134347_rgbf000044-resize_0-target.png,125,4.329,34,4200,122,meters,jsons/VE125_randls_43.json,988182,1104641,51,Woman
62,711133,DepthScenes,duration_manipulation_targetAtFixation,jsons/VE125_randls_43.json,http://54.235.29.9/FacialAge/BNav_EC2/DepthDuration/v2_depth_duration_MTurk/v2_DepthDuration_HTML.html#87,87,1517,730,1366,768,9-3-2022,13-36-43,63,depth_duration_stimuli/003129_2014-05-12_10-48-10_094959634447_rgbf000100-resize_0/003129_2014-05-12_10-48-10_094959634447_rgbf000100-resize_0-target.png,125,4.9305,54,3206,123,meters,jsons/VE125_randls_43.json,988182,1104641,51,Woman
63,711133,DepthScenes,duration_manipulation_targetAtFixation,jsons/VE125_randls_43.json,http://54.235.29.9/FacialAge/BNav_EC2/DepthDuration/v2_depth_duration_MTurk/v2_DepthDuration_HTML.html#87,87,1517,730,1366,768,9-3-2022,13-36-43,64,depth_duration_stimuli/002905_2014-06-03_18-04-43_094959634447_rgbf000151-resize_2/002905_2014-06-03_18-04-43_094959634447_rgbf000151-resize_2-target.png,125,2.0295,65,4303,40,meters,jsons/VE125_randls_43.json,988182,1104641,51,Woman
64,711133,DepthScenes,duration_manipulation_targetAtFixation,jsons/VE125_randls_43.json,http://54.235.29.9/FacialAge/BNav_EC2/DepthDuration/v2_depth_duration_MTurk/v2_DepthDuration_HTML.html#87,87,1517,730,1366,768,9-3-2022,13-36-43,65,depth_duration_stimuli/003423_2014-05-21_10-23-26_094959634447_rgbf002665-resize_2/003423_2014-05-21_10-23-26_094959634447_rgbf002665-resize_2-target.png,125,3.2575,65,2901,125,meters,jsons/VE125_randls_43.json,988182,1104641,51,Woman
65,711133,DepthScenes,duration_manipulation_targetAtFixation,jsons/VE125_randls_43.json,http://54.235.29.9/FacialAge/BNav_EC2/DepthDuration/v2_depth_duration_MTurk/v2_DepthDuration_HTML.html#87,87,1517,730,1366,768,9-3-2022,13-36-43,66,depth_duration_stimuli/001222_2014-06-17_16-24-06_260595134347_rgbf000073-resize_0/001222_2014-06-17_16-24-06_260595134347_rgbf000073-resize-original.jpg,125,1.4385,76,4251,125,meters,jsons/VE125_randls_43.json,988182,1104641,51,Woman
66,711133,DepthScenes,duration_manipulation_targetAtFixation,jsons/VE125_randls_43.json,http://54.235.29.9/FacialAge/BNav_EC2/DepthDuration/v2_depth_duration_MTurk/v2_DepthDuration_HTML.html#87,87,1517,730,1366,768,9-3-2022,13-36-43,67,depth_duration_stimuli/002272_2014-06-28_18-53-56_260595134347_rgbf000067-resize_2/002272_2014-06-28_18-53-56_260595134347_rgbf000067-resize_2-target.png,125,1.138,76,4497,124,meters,jsons/VE125_randls_43.json,988182,1104641,51,Woman
67,711133,DepthScenes,duration_manipulation_targetAtFixation,jsons/VE125_randls_43.json,http://54.235.29.9/FacialAge/BNav_EC2/DepthDuration/v2_depth_duration_MTurk/v2_DepthDuration_HTML.html#87,87,1517,730,1366,768,9-3-2022,13-36-43,68,depth_duration_stimuli/001571_2014-06-20_17-21-32_260595134347_rgbf000089-resize_1/001571_2014-06-20_17-21-32_260595134347_rgbf000089-resize_1-target.png,125,1.86,67,2842,124,meters,jsons/VE125_randls_43.json,988182,1104641,51,Woman
68,711133,DepthScenes,duration_manipulation_targetAtFixation,jsons/VE125_randls_43.json,http://54.235.29.9/FacialAge/BNav_EC2/DepthDuration/v2_depth_duration_MTurk/v2_DepthDuration_HTML.html#87,87,1517,730,1366,768,9-3-2022,13-36-43,69,depth_duration_stimuli/002118_2014-06-25_20-32-08_260595134347_rgbf000078-resize_1/002118_2014-06-25_20-32-08_260595134347_rgbf000078-resize_1-target.png,125,2.6460000000000004,76,4282,407,meters,jsons/VE125_randls_43.json,988182,1104641,51,Woman
69,711133,DepthScenes,duration_manipulation_targetAtFixation,jsons/VE125_randls_43.json,http://54.235.29.9/FacialAge/BNav_EC2/DepthDuration/v2_depth_duration_MTurk/v2_DepthDuration_HTML.html#87,87,1517,730,1366,768,9-3-2022,13-36-43,70,depth_duration_stimuli/001516_2014-06-20_16-25-09_260595134347_rgbf000076-resize_2/001516_2014-06-20_16-25-09_260595134347_rgbf000076-resize_2-target.png,125,1.7445,78,3319,124,meters,jsons/VE125_randls_43.json,988182,1104641,51,Woman
70,711133,DepthScenes,duration_manipulation_targetAtFixation,jsons/VE125_randls_43.json,http://54.235.29.9/FacialAge/BNav_EC2/DepthDuration/v2_depth_duration_MTurk/v2_DepthDuration_HTML.html#87,87,1517,730,1366,768,9-3-2022,13-36-43,71,depth_duration_stimuli/002763_2014-06-22_19-13-10_094959634447_rgbf000075-resize_4/002763_2014-06-22_19-13-10_094959634447_rgbf000075-resize_4-target.png,125,1.68375,78,3522,123,meters,jsons/VE125_randls_43.json,988182,1104641,51,Woman
71,711133,DepthScenes,duration_manipulation_targetAtFixation,jsons/VE125_randls_43.json,http://54.235.29.9/FacialAge/BNav_EC2/DepthDuration/v2_depth_duration_MTurk/v2_DepthDuration_HTML.html#87,87,1517,730,1366,768,9-3-2022,13-36-43,72,depth_duration_stimuli/002209_2014-06-28_18-36-10_260595134347_rgbf000051-resize_1/002209_2014-06-28_18-36-10_260595134347_rgbf000051-resize_1-target.png,125,2.057,78,3043,125,meters,jsons/VE125_randls_43.json,988182,1104641,51,Woman
72,711133,DepthScenes,duration_manipulation_targetAtFixation,jsons/VE125_randls_43.json,http://54.235.29.9/FacialAge/BNav_EC2/DepthDuration/v2_depth_duration_MTurk/v2_DepthDuration_HTML.html#87,87,1517,730,1366,768,9-3-2022,13-36-43,73,depth_duration_stimuli/001570_2014-06-20_17-21-09_260595134347_rgbf000135-resize_4/001570_2014-06-20_17-21-09_260595134347_rgbf000135-resize_4-target.png,125,4.467,98,3852,124,meters,jsons/VE125_randls_43.json,988182,1104641,51,Woman
73,711133,DepthScenes,duration_manipulation_targetAtFixation,jsons/VE125_randls_43.json,http://54.235.29.9/FacialAge/BNav_EC2/DepthDuration/v2_depth_duration_MTurk/v2_DepthDuration_HTML.html#87,87,1517,730,1366,768,9-3-2022,13-36-43,74,depth_duration_stimuli/001392_2014-06-19_16-07-59_260595134347_rgbf000046-resize_1/001392_2014-06-19_16-07-59_260595134347_rgbf000046-resize_1-target.png,125,4.135,89,3897,124,meters,jsons/VE125_randls_43.json,988182,1104641,51,Woman
74,711133,DepthScenes,duration_manipulation_targetAtFixation,jsons/VE125_randls_43.json,http://54.235.29.9/FacialAge/BNav_EC2/DepthDuration/v2_depth_duration_MTurk/v2_DepthDuration_HTML.html#87,87,1517,730,1366,768,9-3-2022,13-36-43,75,depth_duration_stimuli/002509_2014-06-24_13-19-22_094959634447_rgbf000077-resize_0/002509_2014-06-24_13-19-22_094959634447_rgbf000077-resize_0-target.png,125,1.3065,89,3028,71,meters,jsons/VE125_randls_43.json,988182,1104641,51,Woman
75,711133,DepthScenes,duration_manipulation_targetAtFixation,jsons/VE125_randls_43.json,http://54.235.29.9/FacialAge/BNav_EC2/DepthDuration/v2_depth_duration_MTurk/v2_DepthDuration_HTML.html#87,87,1517,730,1366,768,9-3-2022,13-36-43,76,depth_duration_stimuli/003338_2014-05-20_11-01-23_094959634447_rgbf000051-resize_6/003338_2014-05-20_11-01-23_094959634447_rgbf000051-resize_6-target.png,125,1.693,68,2593,124,meters,jsons/VE125_randls_43.json,988182,1104641,51,Woman
76,711133,DepthScenes,duration_manipulation_targetAtFixation,jsons/VE125_randls_43.json,http://54.235.29.9/FacialAge/BNav_EC2/DepthDuration/v2_depth_duration_MTurk/v2_DepthDuration_HTML.html#87,87,1517,730,1366,768,9-3-2022,13-36-43,77,depth_duration_stimuli/000682_2014-06-08_23-14-58_260595134347_rgbf000041-resize_5/000682_2014-06-08_23-14-58_260595134347_rgbf000041-resize_5-target.png,125,2.7239999999999998,75,3102,124,meters,jsons/VE125_randls_43.json,988182,1104641,51,Woman
77,711133,DepthScenes,duration_manipulation_targetAtFixation,jsons/VE125_randls_43.json,http://54.235.29.9/FacialAge/BNav_EC2/DepthDuration/v2_depth_duration_MTurk/v2_DepthDuration_HTML.html#87,87,1517,730,1366,768,9-3-2022,13-36-43,78,depth_duration_stimuli/001650_2014-06-20_12-09-00_260595134347_rgbf000087-resize_3/001650_2014-06-20_12-09-00_260595134347_rgbf000087-resize_3-target.png,125,1.9505,68,2700,125,meters,jsons/VE125_randls_43.json,988182,1104641,51,Woman
78,711133,DepthScenes,duration_manipulation_targetAtFixation,jsons/VE125_randls_43.json,http://54.235.29.9/FacialAge/BNav_EC2/DepthDuration/v2_depth_duration_MTurk/v2_DepthDuration_HTML.html#87,87,1517,730,1366,768,9-3-2022,13-36-43,79,depth_duration_stimuli/001066_2014-06-08_22-03-20_260595134347_rgbf000066-resize_4/001066_2014-06-08_22-03-20_260595134347_rgbf000066-resize_4-target.png,125,4.2330000000000005,75,3639,124,meters,jsons/VE125_randls_43.json,988182,1104641,51,Woman
79,711133,DepthScenes,duration_manipulation_targetAtFixation,jsons/VE125_randls_43.json,http://54.235.29.9/FacialAge/BNav_EC2/DepthDuration/v2_depth_duration_MTurk/v2_DepthDuration_HTML.html#87,87,1517,730,1366,768,9-3-2022,13-36-43,80,depth_duration_stimuli/000742_2014-06-08_18-48-09_260595134347_rgbf000164-resize_4/000742_2014-06-08_18-48-09_260595134347_rgbf000164-resize_4-target.png,125,4.632,86,3056,22,meters,jsons/VE125_randls_43.json,988182,1104641,51,Woman
80,711133,DepthScenes,duration_manipulation_targetAtFixation,jsons/VE125_randls_43.json,http://54.235.29.9/FacialAge/BNav_EC2/DepthDuration/v2_depth_duration_MTurk/v2_DepthDuration_HTML.html#87,87,1517,730,1366,768,9-3-2022,13-36-43,81,depth_duration_stimuli/002989_2014-06-15_12-25-03_094959634447_rgbf000150-resize_3/002989_2014-06-15_12-25-03_094959634447_rgbf000150-resize_3-target.png,125,4.1975,644,2807,123,meters,jsons/VE125_randls_43.json,988182,1104641,51,Woman
81,711133,DepthScenes,duration_manipulation_targetAtFixation,jsons/VE125_randls_43.json,http://54.235.29.9/FacialAge/BNav_EC2/DepthDuration/v2_depth_duration_MTurk/v2_DepthDuration_HTML.html#87,87,1517,730,1366,768,9-3-2022,13-36-43,82,depth_duration_stimuli/000866_2014-06-09_20-45-42_260595134347_rgbf000139-resize_1/000866_2014-06-09_20-45-42_260595134347_rgbf000139-resize_1-target.png,125,3.2155,64,2479,125,meters,jsons/VE125_randls_43.json,988182,1104641,51,Woman
82,711133,DepthScenes,duration_manipulation_targetAtFixation,jsons/VE125_randls_43.json,http://54.235.29.9/FacialAge/BNav_EC2/DepthDuration/v2_depth_duration_MTurk/v2_DepthDuration_HTML.html#87,87,1517,730,1366,768,9-3-2022,13-36-43,83,depth_duration_stimuli/001417_2014-06-19_16-25-36_260595134347_rgbf000115-resize_5/001417_2014-06-19_16-25-36_260595134347_rgbf000115-resize_5-target.png,125,4.6255,35,2830,123,meters,jsons/VE125_randls_43.json,988182,1104641,51,Woman
83,711133,DepthScenes,duration_manipulation_targetAtFixation,jsons/VE125_randls_43.json,http://54.235.29.9/FacialAge/BNav_EC2/DepthDuration/v2_depth_duration_MTurk/v2_DepthDuration_HTML.html#87,87,1517,730,1366,768,9-3-2022,13-36-43,84,depth_duration_stimuli/003081_2014-06-15_15-19-16_094959634447_rgbf000150-resize_1/003081_2014-06-15_15-19-16_094959634447_rgbf000150-resize_1-target.png,125,3.9125,35,3306,125,meters,jsons/VE125_randls_43.json,988182,1104641,51,Woman
84,711133,DepthScenes,duration_manipulation_targetAtFixation,jsons/VE125_randls_43.json,http://54.235.29.9/FacialAge/BNav_EC2/DepthDuration/v2_depth_duration_MTurk/v2_DepthDuration_HTML.html#87,87,1517,730,1366,768,9-3-2022,13-36-43,85,depth_duration_stimuli/001175_2014-06-17_15-45-55_260595134347_rgbf000129-resize_4/001175_2014-06-17_15-45-55_260595134347_rgbf000129-resize_4-target.png,125,4.255,42,3251,124,meters,jsons/VE125_randls_43.json,988182,1104641,51,Woman
85,711133,DepthScenes,duration_manipulation_targetAtFixation,jsons/VE125_randls_43.json,http://54.235.29.9/FacialAge/BNav_EC2/DepthDuration/v2_depth_duration_MTurk/v2_DepthDuration_HTML.html#87,87,1517,730,1366,768,9-3-2022,13-36-43,86,depth_duration_stimuli/003490_2014-05-21_15-50-11_094959634447_rgbf000101-resize_3/003490_2014-05-21_15-50-11_094959634447_rgbf000101-resize_3-target.png,125,3.6445,43,3965,124,meters,jsons/VE125_randls_43.json,988182,1104641,51,Woman
86,711133,DepthScenes,duration_manipulation_targetAtFixation,jsons/VE125_randls_43.json,http://54.235.29.9/FacialAge/BNav_EC2/DepthDuration/v2_depth_duration_MTurk/v2_DepthDuration_HTML.html#87,87,1517,730,1366,768,9-3-2022,13-36-43,87,depth_duration_stimuli/000788_2014-06-08_22-34-36_260595134347_rgbf000131-resize_1/000788_2014-06-08_22-34-36_260595134347_rgbf000131-resize_1-target.png,125,3.359,43,3250,124,meters,jsons/VE125_randls_43.json,988182,1104641,51,Woman
87,711133,DepthScenes,duration_manipulation_targetAtFixation,jsons/VE125_randls_43.json,http://54.235.29.9/FacialAge/BNav_EC2/DepthDuration/v2_depth_duration_MTurk/v2_DepthDuration_HTML.html#87,87,1517,730,1366,768,9-3-2022,13-36-43,88,depth_duration_stimuli/001235_2014-06-17_16-37-36_260595134347_rgbf000084-resize_4/001235_2014-06-17_16-37-36_260595134347_rgbf000084-resize_4-target.png,125,3.6605,32,2681,123,meters,jsons/VE125_randls_43.json,988182,1104641,51,Woman
88,711133,DepthScenes,duration_manipulation_targetAtFixation,jsons/VE125_randls_43.json,http://54.235.29.9/FacialAge/BNav_EC2/DepthDuration/v2_depth_duration_MTurk/v2_DepthDuration_HTML.html#87,87,1517,730,1366,768,9-3-2022,13-36-43,89,depth_duration_stimuli/000810_2014-06-08_17-20-01_260595134347_rgbf000105-resize_0/000810_2014-06-08_17-20-01_260595134347_rgbf000105-resize_0-target.png,125,1.4865,54,3807,124,meters,jsons/VE125_randls_43.json,988182,1104641,51,Woman
89,711133,DepthScenes,duration_manipulation_targetAtFixation,jsons/VE125_randls_43.json,http://54.235.29.9/FacialAge/BNav_EC2/DepthDuration/v2_depth_duration_MTurk/v2_DepthDuration_HTML.html#87,87,1517,730,1366,768,9-3-2022,13-36-43,90,depth_duration_stimuli/001214_2014-06-17_16-13-55_260595134347_rgbf000111-resize_0/001214_2014-06-17_16-13-55_260595134347_rgbf000111-resize_0-target.png,125,2.6505,55,3996,18,meters,jsons/VE125_randls_43.json,988182,1104641,51,Woman
90,711133,DepthScenes,duration_manipulation_targetAtFixation,jsons/VE125_randls_43.json,http://54.235.29.9/FacialAge/BNav_EC2/DepthDuration/v2_depth_duration_MTurk/v2_DepthDuration_HTML.html#87,87,1517,730,1366,768,9-3-2022,13-36-43,91,depth_duration_stimuli/002279_2014-06-28_18-55-32_260595134347_rgbf000040-resize_5/002279_2014-06-28_18-55-32_260595134347_rgbf000040-resize_5-target.png,125,1.5043333333333,65,3590,126,meters,jsons/VE125_randls_43.json,988182,1104641,51,Woman
91,711133,DepthScenes,duration_manipulation_targetAtFixation,jsons/VE125_randls_43.json,http://54.235.29.9/FacialAge/BNav_EC2/DepthDuration/v2_depth_duration_MTurk/v2_DepthDuration_HTML.html#87,87,1517,730,1366,768,9-3-2022,13-36-43,92,depth_duration_stimuli/000635_2014-06-08_16-38-42_260595134347_rgbf000106-resize_1/000635_2014-06-08_16-38-42_260595134347_rgbf000106-resize_1-target.png,125,2.074,56,3123,124,meters,jsons/VE125_randls_43.json,988182,1104641,51,Woman
92,711133,DepthScenes,duration_manipulation_targetAtFixation,jsons/VE125_randls_43.json,http://54.235.29.9/FacialAge/BNav_EC2/DepthDuration/v2_depth_duration_MTurk/v2_DepthDuration_HTML.html#87,87,1517,730,1366,768,9-3-2022,13-36-43,93,depth_duration_stimuli/001110_2014-06-15_17-25-28_260595134347_rgbf000150-resize_1/001110_2014-06-15_17-25-28_260595134347_rgbf000150-resize_1-target.png,125,1.7115,53,2578,123,meters,jsons/VE125_randls_43.json,988182,1104641,51,Woman
93,711133,DepthScenes,duration_manipulation_targetAtFixation,jsons/VE125_randls_43.json,http://54.235.29.9/FacialAge/BNav_EC2/DepthDuration/v2_depth_duration_MTurk/v2_DepthDuration_HTML.html#87,87,1517,730,1366,768,9-3-2022,13-36-43,94,depth_duration_stimuli/000927_2014-06-09_16-32-30_260595134347_rgbf000123-resize_3/000927_2014-06-09_16-32-30_260595134347_rgbf000123-resize_3-target.png,125,2.6785,45,3814,154,meters,jsons/VE125_randls_43.json,988182,1104641,51,Woman
94,711133,DepthScenes,duration_manipulation_targetAtFixation,jsons/VE125_randls_43.json,http://54.235.29.9/FacialAge/BNav_EC2/DepthDuration/v2_depth_duration_MTurk/v2_DepthDuration_HTML.html#87,87,1517,730,1366,768,9-3-2022,13-36-43,95,depth_duration_stimuli/002600_2014-06-24_14-27-04_094959634447_rgbf000074-resize_2/002600_2014-06-24_14-27-04_094959634447_rgbf000074-resize_2-target.png,125,2.7575,54,3430,119,meters,jsons/VE125_randls_43.json,988182,1104641,51,Woman
95,711133,DepthScenes,duration_manipulation_targetAtFixation,jsons/VE125_randls_43.json,http://54.235.29.9/FacialAge/BNav_EC2/DepthDuration/v2_depth_duration_MTurk/v2_DepthDuration_HTML.html#87,87,1517,730,1366,768,9-3-2022,13-36-43,96,depth_duration_stimuli/003228_2014-05-14_13-42-35_094959634447_rgbf000101-resize_1/003228_2014-05-14_13-42-35_094959634447_rgbf000101-resize_1-target.png,125,1.9680000000000002,67,3811,124,meters,jsons/VE125_randls_43.json,988182,1104641,51,Woman
96,711133,DepthScenes,duration_manipulation_targetAtFixation,jsons/VE125_randls_43.json,http://54.235.29.9/FacialAge/BNav_EC2/DepthDuration/v2_depth_duration_MTurk/v2_DepthDuration_HTML.html#87,87,1517,730,1366,768,9-3-2022,13-36-43,97,depth_duration_stimuli/000917_2014-06-09_22-45-29_260595134347_rgbf000149-resize_3/000917_2014-06-09_22-45-29_260595134347_rgbf000149-resize_3-target.png,125,4.1865,67,4064,124,meters,jsons/VE125_randls_43.json,988182,1104641,51,Woman
97,711133,DepthScenes,duration_manipulation_targetAtFixation,jsons/VE125_randls_43.json,http://54.235.29.9/FacialAge/BNav_EC2/DepthDuration/v2_depth_duration_MTurk/v2_DepthDuration_HTML.html#87,87,1517,730,1366,768,9-3-2022,13-36-43,98,depth_duration_stimuli/002323_2014-06-28_20-01-54_260595134347_rgbf000051-resize_4/002323_2014-06-28_20-01-54_260595134347_rgbf000051-resize_4-target.png,125,3.7310000000000003,56,4071,227,meters,jsons/VE125_randls_43.json,988182,1104641,51,Woman
98,711133,DepthScenes,duration_manipulation_targetAtFixation,jsons/VE125_randls_43.json,http://54.235.29.9/FacialAge/BNav_EC2/DepthDuration/v2_depth_duration_MTurk/v2_DepthDuration_HTML.html#87,87,1517,730,1366,768,9-3-2022,13-36-43,99,depth_duration_stimuli/001540_2014-06-20_17-01-05_260595134347_rgbf000086-resize_2/001540_2014-06-20_17-01-05_260595134347_rgbf000086-resize-original.jpg,125,1.459,45,3867,196,meters,jsons/VE125_randls_43.json,988182,1104641,51,Woman
99,711133,DepthScenes,duration_manipulation_targetAtFixation,jsons/VE125_randls_43.json,http://54.235.29.9/FacialAge/BNav_EC2/DepthDuration/v2_depth_duration_MTurk/v2_DepthDuration_HTML.html#87,87,1517,730,1366,768,9-3-2022,13-36-43,100,depth_duration_stimuli/001158_2014-06-17_15-32-16_260595134347_rgbf000138-resize_2/001158_2014-06-17_15-32-16_260595134347_rgbf000138-resize_2-target.png,125,4.5315,45,2736,123,meters,jsons/VE125_randls_43.json,988182,1104641,51,Woman
100,711133,DepthScenes,duration_manipulation_targetAtFixation,jsons/VE125_randls_43.json,http://54.235.29.9/FacialAge/BNav_EC2/DepthDuration/v2_depth_duration_MTurk/v2_DepthDuration_HTML.html#87,87,1517,730,1366,768,9-3-2022,13-36-43,101,depth_duration_stimuli/000556_2014-06-09_22-42-56_260595134347_rgbf000214-resize_1/000556_2014-06-09_22-42-56_260595134347_rgbf000214-resize_1-target.png,125,4.8415,56,3280,123,meters,jsons/VE125_randls_43.json,988182,1104641,51,Woman
101,711133,DepthScenes,duration_manipulation_targetAtFixation,jsons/VE125_randls_43.json,http://54.235.29.9/FacialAge/BNav_EC2/DepthDuration/v2_depth_duration_MTurk/v2_DepthDuration_HTML.html#87,87,1517,730,1366,768,9-3-2022,13-36-43,102,depth_duration_stimuli/000436_2014-06-09_22-25-11_260595134347_rgbf000137-resize_1/000436_2014-06-09_22-25-11_260595134347_rgbf000137-resize_1-target.png,125,4.0705,65,3396,124,meters,jsons/VE125_randls_43.json,988182,1104641,51,Woman
102,711133,DepthScenes,duration_manipulation_targetAtFixation,jsons/VE125_randls_43.json,http://54.235.29.9/FacialAge/BNav_EC2/DepthDuration/v2_depth_duration_MTurk/v2_DepthDuration_HTML.html#87,87,1517,730,1366,768,9-3-2022,13-36-43,103,depth_duration_stimuli/002444_2014-06-28_20-32-08_260595134347_rgbf000027-resize_0/002444_2014-06-28_20-32-08_260595134347_rgbf000027-resize_0-target.png,125,4.388999999999999,65,2740,122,meters,jsons/VE125_randls_43.json,988182,1104641,51,Woman
103,711133,DepthScenes,duration_manipulation_targetAtFixation,jsons/VE125_randls_43.json,http://54.235.29.9/FacialAge/BNav_EC2/DepthDuration/v2_depth_duration_MTurk/v2_DepthDuration_HTML.html#87,87,1517,730,1366,768,9-3-2022,13-36-43,104,depth_duration_stimuli/001011_2014-06-08_23-18-54_260595134347_rgbf000044-resize_4/001011_2014-06-08_23-18-54_260595134347_rgbf000044-resize_4-target.png,125,2.4730000000000003,87,3246,123,meters,jsons/VE125_randls_43.json,988182,1104641,51,Woman
104,711133,DepthScenes,duration_manipulation_targetAtFixation,jsons/VE125_randls_43.json,http://54.235.29.9/FacialAge/BNav_EC2/DepthDuration/v2_depth_duration_MTurk/v2_DepthDuration_HTML.html#87,87,1517,730,1366,768,9-3-2022,13-36-43,105,depth_duration_stimuli/002875_2014-06-01_15-19-00_094959634447_rgbf000151-resize_1/002875_2014-06-01_15-19-00_094959634447_rgbf000151-resize_1-target.png,125,1.9675,87,2539,124,meters,jsons/VE125_randls_43.json,988182,1104641,51,Woman
105,711133,DepthScenes,duration_manipulation_targetAtFixation,jsons/VE125_randls_43.json,http://54.235.29.9/FacialAge/BNav_EC2/DepthDuration/v2_depth_duration_MTurk/v2_DepthDuration_HTML.html#87,87,1517,730,1366,768,9-3-2022,13-36-43,106,depth_duration_stimuli/003492_2014-05-21_15-50-55_094959634447_rgbf000828-resize_1/003492_2014-05-21_15-50-55_094959634447_rgbf000828-resize_1-target.png,125,4.06875,67,4988,125,meters,jsons/VE125_randls_43.json,988182,1104641,51,Woman
106,711133,DepthScenes,duration_manipulation_targetAtFixation,jsons/VE125_randls_43.json,http://54.235.29.9/FacialAge/BNav_EC2/DepthDuration/v2_depth_duration_MTurk/v2_DepthDuration_HTML.html#87,87,1517,730,1366,768,9-3-2022,13-36-43,107,depth_duration_stimuli/002568_2014-06-24_13-59-21_094959634447_rgbf000062-resize_4/002568_2014-06-24_13-59-21_094959634447_rgbf000062-resize_4-target.png,125,3.015,76,3603,123,meters,jsons/VE125_randls_43.json,988182,1104641,51,Woman
107,711133,DepthScenes,duration_manipulation_targetAtFixation,jsons/VE125_randls_43.json,http://54.235.29.9/FacialAge/BNav_EC2/DepthDuration/v2_depth_duration_MTurk/v2_DepthDuration_HTML.html#87,87,1517,730,1366,768,9-3-2022,13-36-43,108,depth_duration_stimuli/001164_2014-06-17_15-35-46_260595134347_rgbf000085-resize_3/001164_2014-06-17_15-35-46_260595134347_rgbf000085-resize_3-target.png,125,2.354,98,5390,125,meters,jsons/VE125_randls_43.json,988182,1104641,51,Woman
108,711133,DepthScenes,duration_manipulation_targetAtFixation,jsons/VE125_randls_43.json,http://54.235.29.9/FacialAge/BNav_EC2/DepthDuration/v2_depth_duration_MTurk/v2_DepthDuration_HTML.html#87,87,1517,730,1366,768,9-3-2022,13-36-43,109,depth_duration_stimuli/001136_2014-06-17_15-19-41_260595134347_rgbf000076-resize_3/001136_2014-06-17_15-19-41_260595134347_rgbf000076-resize_3-target.png,125,1.8655,87,6197,129,meters,jsons/VE125_randls_43.json,988182,1104641,51,Woman
109,711133,DepthScenes,duration_manipulation_targetAtFixation,jsons/VE125_randls_43.json,http://54.235.29.9/FacialAge/BNav_EC2/DepthDuration/v2_depth_duration_MTurk/v2_DepthDuration_HTML.html#87,87,1517,730,1366,768,9-3-2022,13-36-43,110,depth_duration_stimuli/000506_2014-06-08_23-21-00_260595134347_rgbf000070-resize_7/000506_2014-06-08_23-21-00_260595134347_rgbf000070-resize_7-target.png,125,4.0585,98,7750,125,meters,jsons/VE125_randls_43.json,988182,1104641,51,Woman
110,711133,DepthScenes,duration_manipulation_targetAtFixation,jsons/VE125_randls_43.json,http://54.235.29.9/FacialAge/BNav_EC2/DepthDuration/v2_depth_duration_MTurk/v2_DepthDuration_HTML.html#87,87,1517,730,1366,768,9-3-2022,13-36-43,111,depth_duration_stimuli/003079_2014-06-15_15-18-20_094959634447_rgbf000152-resize_8/003079_2014-06-15_15-18-20_094959634447_rgbf000152-resize_8-target.png,125,2.8775,56,3877,122,meters,jsons/VE125_randls_43.json,988182,1104641,51,Woman
111,711133,DepthScenes,duration_manipulation_targetAtFixation,jsons/VE125_randls_43.json,http://54.235.29.9/FacialAge/BNav_EC2/DepthDuration/v2_depth_duration_MTurk/v2_DepthDuration_HTML.html#87,87,1517,730,1366,768,9-3-2022,13-36-43,112,depth_duration_stimuli/000493_2014-06-09_21-01-18_260595134347_rgbf000196-resize_3/000493_2014-06-09_21-01-18_260595134347_rgbf000196-resize_3-target.png,125,3.44,45,37357,123,meters,jsons/VE125_randls_43.json,988182,1104641,51,Woman
112,711133,DepthScenes,duration_manipulation_targetAtFixation,jsons/VE125_randls_43.json,http://54.235.29.9/FacialAge/BNav_EC2/DepthDuration/v2_depth_duration_MTurk/v2_DepthDuration_HTML.html#87,87,1517,730,1366,768,9-3-2022,13-36-43,113,depth_duration_stimuli/000191_2014-05-12_17-07-38_260595134347_rgbf000199-resize_0/000191_2014-05-12_17-07-38_260595134347_rgbf000199-resize_0-target.png,125,3.7995,34,5561,123,meters,jsons/VE125_randls_43.json,988182,1104641,51,Woman
113,711133,DepthScenes,duration_manipulation_targetAtFixation,jsons/VE125_randls_43.json,http://54.235.29.9/FacialAge/BNav_EC2/DepthDuration/v2_depth_duration_MTurk/v2_DepthDuration_HTML.html#87,87,1517,730,1366,768,9-3-2022,13-36-43,114,depth_duration_stimuli/000486_2014-06-09_20-47-20_260595134347_rgbf000143-resize_2/000486_2014-06-09_20-47-20_260595134347_rgbf000143-resize_2-target.png,125,4.8325,23,4973,123,meters,jsons/VE125_randls_43.json,988182,1104641,51,Woman
114,711133,DepthScenes,duration_manipulation_targetAtFixation,jsons/VE125_randls_43.json,http://54.235.29.9/FacialAge/BNav_EC2/DepthDuration/v2_depth_duration_MTurk/v2_DepthDuration_HTML.html#87,87,1517,730,1366,768,9-3-2022,13-36-43,115,depth_duration_stimuli/003083_2014-06-15_15-21-03_094959634447_rgbf000063-resize_1/003083_2014-06-15_15-21-03_094959634447_rgbf000063-resize_1-target.png,125,4.1405,68,16290,122,meters,jsons/VE125_randls_43.json,988182,1104641,51,Woman
115,711133,DepthScenes,duration_manipulation_targetAtFixation,jsons/VE125_randls_43.json,http://54.235.29.9/FacialAge/BNav_EC2/DepthDuration/v2_depth_duration_MTurk/v2_DepthDuration_HTML.html#87,87,1517,730,1366,768,9-3-2022,13-36-43,116,depth_duration_stimuli/001170_2014-06-17_15-43-44_260595134347_rgbf000096-resize_6/001170_2014-06-17_15-43-44_260595134347_rgbf000096-resize-original.jpg,125,1.1909999999999998,89,47358,124,meters,jsons/VE125_randls_43.json,988182,1104641,51,Woman
116,711133,DepthScenes,duration_manipulation_targetAtFixation,jsons/VE125_randls_43.json,http://54.235.29.9/FacialAge/BNav_EC2/DepthDuration/v2_depth_duration_MTurk/v2_DepthDuration_HTML.html#87,87,1517,730,1366,768,9-3-2022,13-36-43,117,depth_duration_stimuli/000469_2014-06-09_19-42-10_260595134347_rgbf000081-resize_1/000469_2014-06-09_19-42-10_260595134347_rgbf000081-resize_1-target.png,125,1.652,89,3748,124,meters,jsons/VE125_randls_43.json,988182,1104641,51,Woman
117,711133,DepthScenes,duration_manipulation_targetAtFixation,jsons/VE125_randls_43.json,http://54.235.29.9/FacialAge/BNav_EC2/DepthDuration/v2_depth_duration_MTurk/v2_DepthDuration_HTML.html#87,87,1517,730,1366,768,9-3-2022,13-36-43,118,depth_duration_stimuli/000483_2014-06-09_20-41-45_260595134347_rgbf000116-resize_4/000483_2014-06-09_20-41-45_260595134347_rgbf000116-resize_4-target.png,125,1.337,79,23207,122,meters,jsons/VE125_randls_43.json,988182,1104641,51,Woman
118,711133,DepthScenes,duration_manipulation_targetAtFixation,jsons/VE125_randls_43.json,http://54.235.29.9/FacialAge/BNav_EC2/DepthDuration/v2_depth_duration_MTurk/v2_DepthDuration_HTML.html#87,87,1517,730,1366,768,9-3-2022,13-36-43,119,depth_duration_stimuli/001449_2014-06-19_17-01-27_260595134347_rgbf000116-resize_2/001449_2014-06-19_17-01-27_260595134347_rgbf000116-resize_2-target.png,125,3.452,53,6305,124,meters,jsons/VE125_randls_43.json,988182,1104641,51,Woman
119,711133,DepthScenes,duration_manipulation_targetAtFixation,jsons/VE125_randls_43.json,http://54.235.29.9/FacialAge/BNav_EC2/DepthDuration/v2_depth_duration_MTurk/v2_DepthDuration_HTML.html#87,87,1517,730,1366,768,9-3-2022,13-36-43,120,depth_duration_stimuli/001450_2014-06-19_17-02-03_260595134347_rgbf000203-resize_4/001450_2014-06-19_17-02-03_260595134347_rgbf000203-resize_4-target.png,125,4.0106666666667,89,20284,122,meters,jsons/VE125_randls_43.json,988182,1104641,51,Woman
120,711133,DepthScenes,duration_manipulation_targetAtFixation,jsons/VE125_randls_43.json,http://54.235.29.9/FacialAge/BNav_EC2/DepthDuration/v2_depth_duration_MTurk/v2_DepthDuration_HTML.html#87,87,1517,730,1366,768,9-3-2022,13-36-43,121,depth_duration_stimuli/001244_2014-06-17_16-47-45_260595134347_rgbf000030-resize_4/001244_2014-06-17_16-47-45_260595134347_rgbf000030-resize_4-target.png,125,2.0425,3,4535,124,meters,jsons/VE125_randls_43.json,988182,1104641,51,Woman
121,711133,DepthScenes,duration_manipulation_targetAtFixation,jsons/VE125_randls_43.json,http://54.235.29.9/FacialAge/BNav_EC2/DepthDuration/v2_depth_duration_MTurk/v2_DepthDuration_HTML.html#87,87,1517,730,1366,768,9-3-2022,13-36-43,122,depth_duration_stimuli/003495_2014-05-21_16-01-51_094959634447_rgbf000100-resize_3/003495_2014-05-21_16-01-51_094959634447_rgbf000100-resize_3-target.png,125,1.6255,23,2801,122,meters,jsons/VE125_randls_43.json,988182,1104641,51,Woman
122,711133,DepthScenes,duration_manipulation_targetAtFixation,jsons/VE125_randls_43.json,http://54.235.29.9/FacialAge/BNav_EC2/DepthDuration/v2_depth_duration_MTurk/v2_DepthDuration_HTML.html#87,87,1517,730,1366,768,9-3-2022,13-36-43,123,depth_duration_stimuli/000009_2014-05-26_14-32-05_260595134347_rgbf000034-resize_3/000009_2014-05-26_14-32-05_260595134347_rgbf000034-resize_3-target.png,125,3.8715,34,3491,124,meters,jsons/VE125_randls_43.json,988182,1104641,51,Woman
123,711133,DepthScenes,duration_manipulation_targetAtFixation,jsons/VE125_randls_43.json,http://54.235.29.9/FacialAge/BNav_EC2/DepthDuration/v2_depth_duration_MTurk/v2_DepthDuration_HTML.html#87,87,1517,730,1366,768,9-3-2022,13-36-43,124,depth_duration_stimuli/001828_2014-06-26_21-40-03_260595134347_rgbf000024-resize_0/001828_2014-06-26_21-40-03_260595134347_rgbf000024-resize_0-target.png,125,4.8260000000000005,89,23041,127,meters,jsons/VE125_randls_43.json,988182,1104641,51,Woman
124,711133,DepthScenes,duration_manipulation_targetAtFixation,jsons/VE125_randls_43.json,http://54.235.29.9/FacialAge/BNav_EC2/DepthDuration/v2_depth_duration_MTurk/v2_DepthDuration_HTML.html#87,87,1517,730,1366,768,9-3-2022,13-36-43,125,depth_duration_stimuli/000522_2014-06-08_13-35-06_260595134347_rgbf000244-resize_1/000522_2014-06-08_13-35-06_260595134347_rgbf000244-resize_1-target.png,125,2.3715,45,3248,124,meters,jsons/VE125_randls_43.json,988182,1104641,51,Woman
125,711133,DepthScenes,duration_manipulation_targetAtFixation,jsons/VE125_randls_43.json,http://54.235.29.9/FacialAge/BNav_EC2/DepthDuration/v2_depth_duration_MTurk/v2_DepthDuration_HTML.html#87,87,1517,730,1366,768,9-3-2022,13-36-43,126,depth_duration_stimuli/002949_2014-06-26_15-57-42_094959634447_rgbf000079-resize_1/002949_2014-06-26_15-57-42_094959634447_rgbf000079-resize_1-target.png,125,1.8915,45,4022,124,meters,jsons/VE125_randls_43.json,988182,1104641,51,Woman
126,711133,DepthScenes,duration_manipulation_targetAtFixation,jsons/VE125_randls_43.json,http://54.235.29.9/FacialAge/BNav_EC2/DepthDuration/v2_depth_duration_MTurk/v2_DepthDuration_HTML.html#87,87,1517,730,1366,768,9-3-2022,13-36-43,127,depth_duration_stimuli/002043_2014-06-24_20-29-38_260595134347_rgbf000039-resize_4/002043_2014-06-24_20-29-38_260595134347_rgbf000039-resize_4-target.png,125,2.8435,234,10590,125,meters,jsons/VE125_randls_43.json,988182,1104641,51,Woman
127,711133,DepthScenes,duration_manipulation_targetAtFixation,jsons/VE125_randls_43.json,http://54.235.29.9/FacialAge/BNav_EC2/DepthDuration/v2_depth_duration_MTurk/v2_DepthDuration_HTML.html#87,87,1517,730,1366,768,9-3-2022,13-36-43,128,depth_duration_stimuli/003048_2014-06-15_13-49-43_094959634447_rgbf000150-resize_1/003048_2014-06-15_13-49-43_094959634447_rgbf000150-resize_1-target.png,125,4.0035,34,2499,125,meters,jsons/VE125_randls_43.json,988182,1104641,51,Woman
128,711133,DepthScenes,duration_manipulation_targetAtFixation,jsons/VE125_randls_43.json,http://54.235.29.9/FacialAge/BNav_EC2/DepthDuration/v2_depth_duration_MTurk/v2_DepthDuration_HTML.html#87,87,1517,730,1366,768,9-3-2022,13-36-43,129,depth_duration_stimuli/001133_2014-06-17_14-49-16_260595134347_rgbf000100-resize_0/001133_2014-06-17_14-49-16_260595134347_rgbf000100-resize_0-target.png,125,4.2115,32,3072,125,meters,jsons/VE125_randls_43.json,988182,1104641,51,Woman
129,711133,DepthScenes,duration_manipulation_targetAtFixation,jsons/VE125_randls_43.json,http://54.235.29.9/FacialAge/BNav_EC2/DepthDuration/v2_depth_duration_MTurk/v2_DepthDuration_HTML.html#87,87,1517,730,1366,768,9-3-2022,13-36-43,130,depth_duration_stimuli/001132_2014-06-17_14-48-54_260595134347_rgbf000100-resize_2/001132_2014-06-17_14-48-54_260595134347_rgbf000100-resize_2-target.png,125,3.753,23,2623,123,meters,jsons/VE125_randls_43.json,988182,1104641,51,Woman
130,711133,DepthScenes,duration_manipulation_targetAtFixation,jsons/VE125_randls_43.json,http://54.235.29.9/FacialAge/BNav_EC2/DepthDuration/v2_depth_duration_MTurk/v2_DepthDuration_HTML.html#87,87,1517,730,1366,768,9-3-2022,13-36-43,131,depth_duration_stimuli/002788_2014-06-22_19-36-03_094959634447_rgbf000088-resize_2/002788_2014-06-22_19-36-03_094959634447_rgbf000088-resize_2-target.png,125,1.6465,12,4334,124,meters,jsons/VE125_randls_43.json,988182,1104641,51,Woman
131,711133,DepthScenes,duration_manipulation_targetAtFixation,jsons/VE125_randls_43.json,http://54.235.29.9/FacialAge/BNav_EC2/DepthDuration/v2_depth_duration_MTurk/v2_DepthDuration_HTML.html#87,87,1517,730,1366,768,9-3-2022,13-36-43,132,depth_duration_stimuli/000749_2014-06-08_21-55-06_260595134347_rgbf000070-resize_2/000749_2014-06-08_21-55-06_260595134347_rgbf000070-resize_2-target.png,125,2.331,45,4584,124,meters,jsons/VE125_randls_43.json,988182,1104641,51,Woman
132,711133,DepthScenes,duration_manipulation_targetAtFixation,jsons/VE125_randls_43.json,http://54.235.29.9/FacialAge/BNav_EC2/DepthDuration/v2_depth_duration_MTurk/v2_DepthDuration_HTML.html#87,87,1517,730,1366,768,9-3-2022,13-36-43,133,depth_duration_stimuli/000758_2014-06-08_22-05-08_260595134347_rgbf000085-resize_0/000758_2014-06-08_22-05-08_260595134347_rgbf000085-resize_0-target.png,125,3.3810000000000002,89,9794,124,meters,jsons/VE125_randls_43.json,988182,1104641,51,Woman
133,711133,DepthScenes,duration_manipulation_targetAtFixation,jsons/VE125_randls_43.json,http://54.235.29.9/FacialAge/BNav_EC2/DepthDuration/v2_depth_duration_MTurk/v2_DepthDuration_HTML.html#87,87,1517,730,1366,768,9-3-2022,13-36-43,134,depth_duration_stimuli/000854_2014-06-09_19-43-13_260595134347_rgbf000066-resize_0/000854_2014-06-09_19-43-13_260595134347_rgbf000066-resize_0-target.png,125,3.068,90,2808,124,meters,jsons/VE125_randls_43.json,988182,1104641,51,Woman
134,711133,DepthScenes,duration_manipulation_targetAtFixation,jsons/VE125_randls_43.json,http://54.235.29.9/FacialAge/BNav_EC2/DepthDuration/v2_depth_duration_MTurk/v2_DepthDuration_HTML.html#87,87,1517,730,1366,768,9-3-2022,13-36-43,135,depth_duration_stimuli/002072_2014-06-24_21-48-06_260595134347_rgbf000115-resize_0/002072_2014-06-24_21-48-06_260595134347_rgbf000115-resize-original.jpg,125,4.702,89,2867,123,meters,jsons/VE125_randls_43.json,988182,1104641,51,Woman
135,711133,DepthScenes,duration_manipulation_targetAtFixation,jsons/VE125_randls_43.json,http://54.235.29.9/FacialAge/BNav_EC2/DepthDuration/v2_depth_duration_MTurk/v2_DepthDuration_HTML.html#87,87,1517,730,1366,768,9-3-2022,13-36-43,136,depth_duration_stimuli/002725_2014-06-22_11-47-51_094959634447_rgbf000070-resize_1/002725_2014-06-22_11-47-51_094959634447_rgbf000070-resize_1-target.png,125,2.195,89,3511,123,meters,jsons/VE125_randls_43.json,988182,1104641,51,Woman
136,711133,DepthScenes,duration_manipulation_targetAtFixation,jsons/VE125_randls_43.json,http://54.235.29.9/FacialAge/BNav_EC2/DepthDuration/v2_depth_duration_MTurk/v2_DepthDuration_HTML.html#87,87,1517,730,1366,768,9-3-2022,13-36-43,137,depth_duration_stimuli/002344_2014-06-28_20-06-29_260595134347_rgbf000030-resize_1/002344_2014-06-28_20-06-29_260595134347_rgbf000030-resize_1-target.png,125,1.5795,67,28385,124,meters,jsons/VE125_randls_43.json,988182,1104641,51,Woman
137,711133,DepthScenes,duration_manipulation_targetAtFixation,jsons/VE125_randls_43.json,http://54.235.29.9/FacialAge/BNav_EC2/DepthDuration/v2_depth_duration_MTurk/v2_DepthDuration_HTML.html#87,87,1517,730,1366,768,9-3-2022,13-36-43,138,depth_duration_stimuli/001016_2014-06-09_16-16-10_260595134347_rgbf000112-resize_5/001016_2014-06-09_16-16-10_260595134347_rgbf000112-resize_5-target.png,125,1.6565,32,4170,123,meters,jsons/VE125_randls_43.json,988182,1104641,51,Woman
138,711133,DepthScenes,duration_manipulation_targetAtFixation,jsons/VE125_randls_43.json,http://54.235.29.9/FacialAge/BNav_EC2/DepthDuration/v2_depth_duration_MTurk/v2_DepthDuration_HTML.html#87,87,1517,730,1366,768,9-3-2022,13-36-43,139,depth_duration_stimuli/002340_2014-06-28_20-05-46_260595134347_rgbf000113-resize_0/002340_2014-06-28_20-05-46_260595134347_rgbf000113-resize_0-target.png,125,2.4735,79,3690,125,meters,jsons/VE125_randls_43.json,988182,1104641,51,Woman
139,711133,DepthScenes,duration_manipulation_targetAtFixation,jsons/VE125_randls_43.json,http://54.235.29.9/FacialAge/BNav_EC2/DepthDuration/v2_depth_duration_MTurk/v2_DepthDuration_HTML.html#87,87,1517,730,1366,768,9-3-2022,13-36-43,140,depth_duration_stimuli/002375_2014-06-28_20-13-44_260595134347_rgbf000032-resize_1/002375_2014-06-28_20-13-44_260595134347_rgbf000032-resize_1-target.png,125,4.0175,65,3456,124,meters,jsons/VE125_randls_43.json,988182,1104641,51,Woman
140,711133,DepthScenes,duration_manipulation_targetAtFixation,jsons/VE125_randls_43.json,http://54.235.29.9/FacialAge/BNav_EC2/DepthDuration/v2_depth_duration_MTurk/v2_DepthDuration_HTML.html#87,87,1517,730,1366,768,9-3-2022,13-36-43,141,depth_duration_stimuli/002657_2014-06-13_15-29-54_094959634447_rgbf000150-resize_1/002657_2014-06-13_15-29-54_094959634447_rgbf000150-resize_1-target.png,125,4.919,56,2669,125,meters,jsons/VE125_randls_43.json,988182,1104641,51,Woman
141,711133,DepthScenes,duration_manipulation_targetAtFixation,jsons/VE125_randls_43.json,http://54.235.29.9/FacialAge/BNav_EC2/DepthDuration/v2_depth_duration_MTurk/v2_DepthDuration_HTML.html#87,87,1517,730,1366,768,9-3-2022,13-36-43,142,depth_duration_stimuli/001199_2014-06-17_16-03-48_260595134347_rgbf000077-resize_0/001199_2014-06-17_16-03-48_260595134347_rgbf000077-resize_0-target.png,125,3.4375,8,3118,123,meters,jsons/VE125_randls_43.json,988182,1104641,51,Woman
142,711133,DepthScenes,duration_manipulation_targetAtFixation,jsons/VE125_randls_43.json,http://54.235.29.9/FacialAge/BNav_EC2/DepthDuration/v2_depth_duration_MTurk/v2_DepthDuration_HTML.html#87,87,1517,730,1366,768,9-3-2022,13-36-43,143,depth_duration_stimuli/000502_2014-06-08_23-02-32_260595134347_rgbf000063-resize_4/000502_2014-06-08_23-02-32_260595134347_rgbf000063-resize_4-target.png,125,2.431,78,2799,124,meters,jsons/VE125_randls_43.json,988182,1104641,51,Woman
143,711133,DepthScenes,duration_manipulation_targetAtFixation,jsons/VE125_randls_43.json,http://54.235.29.9/FacialAge/BNav_EC2/DepthDuration/v2_depth_duration_MTurk/v2_DepthDuration_HTML.html#87,87,1517,730,1366,768,9-3-2022,13-36-43,144,depth_duration_stimuli/000692_2014-06-08_13-09-42_260595134347_rgbf000199-resize_2/000692_2014-06-08_13-09-42_260595134347_rgbf000199-resize_2-target.png,125,3.661,78,4528,126,meters,jsons/VE125_randls_43.json,988182,1104641,51,Woman
144,711133,DepthScenes,duration_manipulation_targetAtFixation,jsons/VE125_randls_43.json,http://54.235.29.9/FacialAge/BNav_EC2/DepthDuration/v2_depth_duration_MTurk/v2_DepthDuration_HTML.html#87,87,1517,730,1366,768,9-3-2022,13-36-43,145,depth_duration_stimuli/001094_2014-06-15_17-36-00_260595134347_rgbf000205-resize_0/001094_2014-06-15_17-36-00_260595134347_rgbf000205-resize_0-target.png,125,4.2175,87,2580,124,meters,jsons/VE125_randls_43.json,988182,1104641,51,Woman
145,711133,DepthScenes,duration_manipulation_targetAtFixation,jsons/VE125_randls_43.json,http://54.235.29.9/FacialAge/BNav_EC2/DepthDuration/v2_depth_duration_MTurk/v2_DepthDuration_HTML.html#87,87,1517,730,1366,768,9-3-2022,13-36-43,146,depth_duration_stimuli/001498_2014-06-19_17-45-14_260595134347_rgbf000129-resize_4/001498_2014-06-19_17-45-14_260595134347_rgbf000129-resize-original.jpg,125,1.4075,87,3354,124,meters,jsons/VE125_randls_43.json,988182,1104641,51,Woman
146,711133,DepthScenes,duration_manipulation_targetAtFixation,jsons/VE125_randls_43.json,http://54.235.29.9/FacialAge/BNav_EC2/DepthDuration/v2_depth_duration_MTurk/v2_DepthDuration_HTML.html#87,87,1517,730,1366,768,9-3-2022,13-36-43,147,depth_duration_stimuli/003534_2014-05-22_15-06-10_094959634447_rgbf000102-resize_4/003534_2014-05-22_15-06-10_094959634447_rgbf000102-resize_4-target.png,125,1.426,89,11127,124,meters,jsons/VE125_randls_43.json,988182,1104641,51,Woman
147,711133,DepthScenes,duration_manipulation_targetAtFixation,jsons/VE125_randls_43.json,http://54.235.29.9/FacialAge/BNav_EC2/DepthDuration/v2_depth_duration_MTurk/v2_DepthDuration_HTML.html#87,87,1517,730,1366,768,9-3-2022,13-36-43,148,depth_duration_stimuli/002637_2014-06-24_14-51-13_094959634447_rgbf000066-resize_4/002637_2014-06-24_14-51-13_094959634447_rgbf000066-resize_4-target.png,125,1.9955,89,5711,124,meters,jsons/VE125_randls_43.json,988182,1104641,51,Woman
148,711133,DepthScenes,duration_manipulation_targetAtFixation,jsons/VE125_randls_43.json,http://54.235.29.9/FacialAge/BNav_EC2/DepthDuration/v2_depth_duration_MTurk/v2_DepthDuration_HTML.html#87,87,1517,730,1366,768,9-3-2022,13-36-43,149,depth_duration_stimuli/001806_2014-06-26_20-50-20_260595134347_rgbf000091-resize_1/001806_2014-06-26_20-50-20_260595134347_rgbf000091-resize_1-target.png,125,2.7305,89,12079,245,meters,jsons/VE125_randls_43.json,988182,1104641,51,Woman
149,711133,DepthScenes,duration_manipulation_targetAtFixation,jsons/VE125_randls_43.json,http://54.235.29.9/FacialAge/BNav_EC2/DepthDuration/v2_depth_duration_MTurk/v2_DepthDuration_HTML.html#87,87,1517,730,1366,768,9-3-2022,13-36-43,150,depth_duration_stimuli/001617_2014-06-20_11-35-32_260595134347_rgbf000066-resize_1/001617_2014-06-20_11-35-32_260595134347_rgbf000066-resize_1-target.png,125,3.7910000000000004,89,11396,123,meters,jsons/VE125_randls_43.json,988182,1104641,51,Woman
150,711133,DepthScenes,duration_manipulation_targetAtFixation,jsons/VE125_randls_43.json,http://54.235.29.9/FacialAge/BNav_EC2/DepthDuration/v2_depth_duration_MTurk/v2_DepthDuration_HTML.html#87,87,1517,730,1366,768,9-3-2022,13-36-43,151,depth_duration_stimuli/001059_2014-06-08_21-53-27_260595134347_rgbf000061-resize_4/001059_2014-06-08_21-53-27_260595134347_rgbf000061-resize_4-target.png,125,2.4185,89,2869,124,meters,jsons/VE125_randls_43.json,988182,1104641,51,Woman
151,711133,DepthScenes,duration_manipulation_targetAtFixation,jsons/VE125_randls_43.json,http://54.235.29.9/FacialAge/BNav_EC2/DepthDuration/v2_depth_duration_MTurk/v2_DepthDuration_HTML.html#87,87,1517,730,1366,768,9-3-2022,13-36-43,152,depth_duration_stimuli/001032_2014-06-08_13-23-17_260595134347_rgbf000021-resize_3/001032_2014-06-08_13-23-17_260595134347_rgbf000021-resize_3-target.png,125,3.2725,45,2322,159,meters,jsons/VE125_randls_43.json,988182,1104641,51,Woman
152,711133,DepthScenes,duration_manipulation_targetAtFixation,jsons/VE125_randls_43.json,http://54.235.29.9/FacialAge/BNav_EC2/DepthDuration/v2_depth_duration_MTurk/v2_DepthDuration_HTML.html#87,87,1517,730,1366,768,9-3-2022,13-36-43,153,depth_duration_stimuli/001555_2014-06-20_17-12-10_260595134347_rgbf000065-resize_4/001555_2014-06-20_17-12-10_260595134347_rgbf000065-resize_4-target.png,125,1.633,23,2161,109,meters,jsons/VE125_randls_43.json,988182,1104641,51,Woman
153,711133,DepthScenes,duration_manipulation_targetAtFixation,jsons/VE125_randls_43.json,http://54.235.29.9/FacialAge/BNav_EC2/DepthDuration/v2_depth_duration_MTurk/v2_DepthDuration_HTML.html#87,87,1517,730,1366,768,9-3-2022,13-36-43,154,depth_duration_stimuli/000103_2014-05-14_22-01-17_260595134347_rgbf000152-resize_5/000103_2014-05-14_22-01-17_260595134347_rgbf000152-resize_5-target.png,125,1.993,34,2068,123,meters,jsons/VE125_randls_43.json,988182,1104641,51,Woman
154,711133,DepthScenes,duration_manipulation_targetAtFixation,jsons/VE125_randls_43.json,http://54.235.29.9/FacialAge/BNav_EC2/DepthDuration/v2_depth_duration_MTurk/v2_DepthDuration_HTML.html#87,87,1517,730,1366,768,9-3-2022,13-36-43,155,depth_duration_stimuli/002964_2014-06-08_17-46-11_094959634447_rgbf000091-resize_4/002964_2014-06-08_17-46-11_094959634447_rgbf000091-resize_4-target.png,125,1.6909999999999998,23,2560,202,meters,jsons/VE125_randls_43.json,988182,1104641,51,Woman
155,711133,DepthScenes,duration_manipulation_targetAtFixation,jsons/VE125_randls_43.json,http://54.235.29.9/FacialAge/BNav_EC2/DepthDuration/v2_depth_duration_MTurk/v2_DepthDuration_HTML.html#87,87,1517,730,1366,768,9-3-2022,13-36-43,156,depth_duration_stimuli/002136_2014-06-25_21-18-03_260595134347_rgbf000109-resize_3/002136_2014-06-25_21-18-03_260595134347_rgbf000109-resize_3-target.png,125,1.9569999999999999,12,2428,123,meters,jsons/VE125_randls_43.json,988182,1104641,51,Woman
156,711133,DepthScenes,duration_manipulation_targetAtFixation,jsons/VE125_randls_43.json,http://54.235.29.9/FacialAge/BNav_EC2/DepthDuration/v2_depth_duration_MTurk/v2_DepthDuration_HTML.html#87,87,1517,730,1366,768,9-3-2022,13-36-43,157,depth_duration_stimuli/002630_2014-06-24_14-47-50_094959634447_rgbf000055-resize_1/002630_2014-06-24_14-47-50_094959634447_rgbf000055-resize_1-target.png,125,3.0095,45,10055,124,meters,jsons/VE125_randls_43.json,988182,1104641,51,Woman
157,711133,DepthScenes,duration_manipulation_targetAtFixation,jsons/VE125_randls_43.json,http://54.235.29.9/FacialAge/BNav_EC2/DepthDuration/v2_depth_duration_MTurk/v2_DepthDuration_HTML.html#87,87,1517,730,1366,768,9-3-2022,13-36-43,158,depth_duration_stimuli/002758_2014-06-22_19-11-20_094959634447_rgbf000128-resize_1/002758_2014-06-22_19-11-20_094959634447_rgbf000128-resize_1-target.png,125,2.555,67,2672,42,meters,jsons/VE125_randls_43.json,988182,1104641,51,Woman
158,711133,DepthScenes,duration_manipulation_targetAtFixation,jsons/VE125_randls_43.json,http://54.235.29.9/FacialAge/BNav_EC2/DepthDuration/v2_depth_duration_MTurk/v2_DepthDuration_HTML.html#87,87,1517,730,1366,768,9-3-2022,13-36-43,159,depth_duration_stimuli/002039_2014-06-24_20-22-38_260595134347_rgbf000084-resize_1/002039_2014-06-24_20-22-38_260595134347_rgbf000084-resize_1-target.png,125,4.408,32,3492,123,meters,jsons/VE125_randls_43.json,988182,1104641,51,Woman
159,711133,DepthScenes,duration_manipulation_targetAtFixation,jsons/VE125_randls_43.json,http://54.235.29.9/FacialAge/BNav_EC2/DepthDuration/v2_depth_duration_MTurk/v2_DepthDuration_HTML.html#87,87,1517,730,1366,768,9-3-2022,13-36-43,160,depth_duration_stimuli/002103_2014-06-25_20-00-40_260595134347_rgbf000049-resize_0/002103_2014-06-25_20-00-40_260595134347_rgbf000049-resize_0-target.png,125,4.105,23,2667,124,meters,jsons/VE125_randls_43.json,988182,1104641,51,Woman
160,711133,DepthScenes,duration_manipulation_targetAtFixation,jsons/VE125_randls_43.json,http://54.235.29.9/FacialAge/BNav_EC2/DepthDuration/v2_depth_duration_MTurk/v2_DepthDuration_HTML.html#87,87,1517,730,1366,768,9-3-2022,13-36-43,161,depth_duration_stimuli/000736_2014-06-08_18-24-15_260595134347_rgbf000206-resize_3/000736_2014-06-08_18-24-15_260595134347_rgbf000206-resize_3-target.png,125,3.515,62,4089,22,meters,jsons/VE125_randls_43.json,988182,1104641,51,Woman
161,711133,DepthScenes,duration_manipulation_targetAtFixation,jsons/VE125_randls_43.json,http://54.235.29.9/FacialAge/BNav_EC2/DepthDuration/v2_depth_duration_MTurk/v2_DepthDuration_HTML.html#87,87,1517,730,1366,768,9-3-2022,13-36-43,162,depth_duration_stimuli/000137_2014-05-20_17-04-49_260595134347_rgbf000120-resize_1/000137_2014-05-20_17-04-49_260595134347_rgbf000120-resize_1-target.png,125,3.786,12,2915,188,meters,jsons/VE125_randls_43.json,988182,1104641,51,Woman
162,711133,DepthScenes,duration_manipulation_targetAtFixation,jsons/VE125_randls_43.json,http://54.235.29.9/FacialAge/BNav_EC2/DepthDuration/v2_depth_duration_MTurk/v2_DepthDuration_HTML.html#87,87,1517,730,1366,768,9-3-2022,13-36-43,163,depth_duration_stimuli/002570_2014-06-24_13-59-54_094959634447_rgbf000059-resize_0/002570_2014-06-24_13-59-54_094959634447_rgbf000059-resize_0-target.png,125,4.037,75,5500,124,meters,jsons/VE125_randls_43.json,988182,1104641,51,Woman
163,711133,DepthScenes,duration_manipulation_targetAtFixation,jsons/VE125_randls_43.json,http://54.235.29.9/FacialAge/BNav_EC2/DepthDuration/v2_depth_duration_MTurk/v2_DepthDuration_HTML.html#87,87,1517,730,1366,768,9-3-2022,13-36-43,164,depth_duration_stimuli/002467_2014-06-28_20-38-07_260595134347_rgbf000026-resize_2/002467_2014-06-28_20-38-07_260595134347_rgbf000026-resize_2-target.png,125,4.742,87,18492,124,meters,jsons/VE125_randls_43.json,988182,1104641,51,Woman
