,subjID,experimentName,versionName,sequenceName,url,selected_row,windowWidth,windowHeight,screenWidth,screenHeight,startDate,startTime,trial,stimulus,duration,actual_depth,depth_estimate,trial_RT,log_sceneDuration,unitSelection,seq_filepath,experimentTime,totalTime,age,gender
0,712484,DepthScenes,duration_manipulation_targetAtFixation,jsons/v1_VE1000_randls_30.json,http://54.235.29.9/FacialAge/BNav_EC2/DepthDuration/v2_depth_duration_MTurk/v2_DepthDuration_HTML.html#236,236,1366,768,1366,768,8-29-2022,12-47-54,1,depth_duration_stimuli/002570_2014-06-24_13-59-54_094959634447_rgbf000059-resize_0/002570_2014-06-24_13-59-54_094959634447_rgbf000059-resize_0-target.png,1000,4.037,6,11973,1000,feet,jsons/v1_VE1000_randls_30.json,1708547,1857296,27,Woman
1,712484,DepthScenes,duration_manipulation_targetAtFixation,jsons/v1_VE1000_randls_30.json,http://54.235.29.9/FacialAge/BNav_EC2/DepthDuration/v2_depth_duration_MTurk/v2_DepthDuration_HTML.html#236,236,1366,768,1366,768,8-29-2022,12-47-54,2,depth_duration_stimuli/002467_2014-06-28_20-38-07_260595134347_rgbf000026-resize_2/002467_2014-06-28_20-38-07_260595134347_rgbf000026-resize_2-target.png,1000,4.742,3,171685,1001,feet,jsons/v1_VE1000_randls_30.json,1708547,1857296,27,Woman
2,712484,DepthScenes,duration_manipulation_targetAtFixation,jsons/v1_VE1000_randls_30.json,http://54.235.29.9/FacialAge/BNav_EC2/DepthDuration/v2_depth_duration_MTurk/v2_DepthDuration_HTML.html#236,236,1366,768,1366,768,8-29-2022,12-47-54,3,depth_duration_stimuli/000506_2014-06-08_23-21-00_260595134347_rgbf000070-resize_7/000506_2014-06-08_23-21-00_260595134347_rgbf000070-resize_7-target.png,1000,4.0585,3,30522,1002,feet,jsons/v1_VE1000_randls_30.json,1708547,1857296,27,Woman
3,712484,DepthScenes,duration_manipulation_targetAtFixation,jsons/v1_VE1000_randls_30.json,http://54.235.29.9/FacialAge/BNav_EC2/DepthDuration/v2_depth_duration_MTurk/v2_DepthDuration_HTML.html#236,236,1366,768,1366,768,8-29-2022,12-47-54,4,depth_duration_stimuli/003079_2014-06-15_15-18-20_094959634447_rgbf000152-resize_8/003079_2014-06-15_15-18-20_094959634447_rgbf000152-resize_8-target.png,1000,2.8775,6,4921,999,feet,jsons/v1_VE1000_randls_30.json,1708547,1857296,27,Woman
4,712484,DepthScenes,duration_manipulation_targetAtFixation,jsons/v1_VE1000_randls_30.json,http://54.235.29.9/FacialAge/BNav_EC2/DepthDuration/v2_depth_duration_MTurk/v2_DepthDuration_HTML.html#236,236,1366,768,1366,768,8-29-2022,12-47-54,5,depth_duration_stimuli/001806_2014-06-26_20-50-20_260595134347_rgbf000091-resize_1/001806_2014-06-26_20-50-20_260595134347_rgbf000091-resize_1-target.png,1000,2.7305,2,10339,1000,feet,jsons/v1_VE1000_randls_30.json,1708547,1857296,27,Woman
5,712484,DepthScenes,duration_manipulation_targetAtFixation,jsons/v1_VE1000_randls_30.json,http://54.235.29.9/FacialAge/BNav_EC2/DepthDuration/v2_depth_duration_MTurk/v2_DepthDuration_HTML.html#236,236,1366,768,1366,768,8-29-2022,12-47-54,6,depth_duration_stimuli/001617_2014-06-20_11-35-32_260595134347_rgbf000066-resize_1/001617_2014-06-20_11-35-32_260595134347_rgbf000066-resize_1-target.png,1000,3.7910000000000004,4,4769,1000,feet,jsons/v1_VE1000_randls_30.json,1708547,1857296,27,Woman
6,712484,DepthScenes,duration_manipulation_targetAtFixation,jsons/v1_VE1000_randls_30.json,http://54.235.29.9/FacialAge/BNav_EC2/DepthDuration/v2_depth_duration_MTurk/v2_DepthDuration_HTML.html#236,236,1366,768,1366,768,8-29-2022,12-47-54,7,depth_duration_stimuli/001164_2014-06-17_15-35-46_260595134347_rgbf000085-resize_3/001164_2014-06-17_15-35-46_260595134347_rgbf000085-resize_3-target.png,1000,2.354,3,8629,1000,feet,jsons/v1_VE1000_randls_30.json,1708547,1857296,27,Woman
7,712484,DepthScenes,duration_manipulation_targetAtFixation,jsons/v1_VE1000_randls_30.json,http://54.235.29.9/FacialAge/BNav_EC2/DepthDuration/v2_depth_duration_MTurk/v2_DepthDuration_HTML.html#236,236,1366,768,1366,768,8-29-2022,12-47-54,8,depth_duration_stimuli/001136_2014-06-17_15-19-41_260595134347_rgbf000076-resize_3/001136_2014-06-17_15-19-41_260595134347_rgbf000076-resize_3-target.png,1000,1.8655,2,4890,999,feet,jsons/v1_VE1000_randls_30.json,1708547,1857296,27,Woman
8,712484,DepthScenes,duration_manipulation_targetAtFixation,jsons/v1_VE1000_randls_30.json,http://54.235.29.9/FacialAge/BNav_EC2/DepthDuration/v2_depth_duration_MTurk/v2_DepthDuration_HTML.html#236,236,1366,768,1366,768,8-29-2022,12-47-54,9,depth_duration_stimuli/001059_2014-06-08_21-53-27_260595134347_rgbf000061-resize_4/001059_2014-06-08_21-53-27_260595134347_rgbf000061-resize_4-target.png,1000,2.4185,3,9011,999,feet,jsons/v1_VE1000_randls_30.json,1708547,1857296,27,Woman
9,712484,DepthScenes,duration_manipulation_targetAtFixation,jsons/v1_VE1000_randls_30.json,http://54.235.29.9/FacialAge/BNav_EC2/DepthDuration/v2_depth_duration_MTurk/v2_DepthDuration_HTML.html#236,236,1366,768,1366,768,8-29-2022,12-47-54,10,depth_duration_stimuli/001032_2014-06-08_13-23-17_260595134347_rgbf000021-resize_3/001032_2014-06-08_13-23-17_260595134347_rgbf000021-resize_3-target.png,1000,3.2725,2,4546,1000,feet,jsons/v1_VE1000_randls_30.json,1708547,1857296,27,Woman
10,712484,DepthScenes,duration_manipulation_targetAtFixation,jsons/v1_VE1000_randls_30.json,http://54.235.29.9/FacialAge/BNav_EC2/DepthDuration/v2_depth_duration_MTurk/v2_DepthDuration_HTML.html#236,236,1366,768,1366,768,8-29-2022,12-47-54,11,depth_duration_stimuli/002279_2014-06-28_18-55-32_260595134347_rgbf000040-resize_5/002279_2014-06-28_18-55-32_260595134347_rgbf000040-resize_5-target.png,1000,1.5043333333333,1,14130,999,feet,jsons/v1_VE1000_randls_30.json,1708547,1857296,27,Woman
11,712484,DepthScenes,duration_manipulation_targetAtFixation,jsons/v1_VE1000_randls_30.json,http://54.235.29.9/FacialAge/BNav_EC2/DepthDuration/v2_depth_duration_MTurk/v2_DepthDuration_HTML.html#236,236,1366,768,1366,768,8-29-2022,12-47-54,12,depth_duration_stimuli/000635_2014-06-08_16-38-42_260595134347_rgbf000106-resize_1/000635_2014-06-08_16-38-42_260595134347_rgbf000106-resize_1-target.png,1000,2.074,3,4403,1000,feet,jsons/v1_VE1000_randls_30.json,1708547,1857296,27,Woman
12,712484,DepthScenes,duration_manipulation_targetAtFixation,jsons/v1_VE1000_randls_30.json,http://54.235.29.9/FacialAge/BNav_EC2/DepthDuration/v2_depth_duration_MTurk/v2_DepthDuration_HTML.html#236,236,1366,768,1366,768,8-29-2022,12-47-54,13,depth_duration_stimuli/000569_2014-06-09_22-51-47_260595134347_rgbf000141-resize_3/000569_2014-06-09_22-51-47_260595134347_rgbf000141-resize-original.jpg,1000,4.512,0,9170,1000,feet,jsons/v1_VE1000_randls_30.json,1708547,1857296,27,Woman
13,712484,DepthScenes,duration_manipulation_targetAtFixation,jsons/v1_VE1000_randls_30.json,http://54.235.29.9/FacialAge/BNav_EC2/DepthDuration/v2_depth_duration_MTurk/v2_DepthDuration_HTML.html#236,236,1366,768,1366,768,8-29-2022,12-47-54,14,depth_duration_stimuli/000470_2014-06-09_19-42-40_260595134347_rgbf000094-resize_1/000470_2014-06-09_19-42-40_260595134347_rgbf000094-resize_1-target.png,1000,1.831,2,9490,1000,feet,jsons/v1_VE1000_randls_30.json,1708547,1857296,27,Woman
14,712484,DepthScenes,duration_manipulation_targetAtFixation,jsons/v1_VE1000_randls_30.json,http://54.235.29.9/FacialAge/BNav_EC2/DepthDuration/v2_depth_duration_MTurk/v2_DepthDuration_HTML.html#236,236,1366,768,1366,768,8-29-2022,12-47-54,15,depth_duration_stimuli/000109_2014-05-14_23-41-52_260595134347_rgbf000035-resize_9/000109_2014-05-14_23-41-52_260595134347_rgbf000035-resize_9-target.png,1000,1.3545,1,4114,1014,feet,jsons/v1_VE1000_randls_30.json,1708547,1857296,27,Woman
15,712484,DepthScenes,duration_manipulation_targetAtFixation,jsons/v1_VE1000_randls_30.json,http://54.235.29.9/FacialAge/BNav_EC2/DepthDuration/v2_depth_duration_MTurk/v2_DepthDuration_HTML.html#236,236,1366,768,1366,768,8-29-2022,12-47-54,16,depth_duration_stimuli/000692_2014-06-08_13-09-42_260595134347_rgbf000199-resize_2/000692_2014-06-08_13-09-42_260595134347_rgbf000199-resize_2-target.png,1000,3.661,4,10714,1000,feet,jsons/v1_VE1000_randls_30.json,1708547,1857296,27,Woman
16,712484,DepthScenes,duration_manipulation_targetAtFixation,jsons/v1_VE1000_randls_30.json,http://54.235.29.9/FacialAge/BNav_EC2/DepthDuration/v2_depth_duration_MTurk/v2_DepthDuration_HTML.html#236,236,1366,768,1366,768,8-29-2022,12-47-54,17,depth_duration_stimuli/001094_2014-06-15_17-36-00_260595134347_rgbf000205-resize_0/001094_2014-06-15_17-36-00_260595134347_rgbf000205-resize_0-target.png,1000,4.2175,1,7563,1000,feet,jsons/v1_VE1000_randls_30.json,1708547,1857296,27,Woman
17,712484,DepthScenes,duration_manipulation_targetAtFixation,jsons/v1_VE1000_randls_30.json,http://54.235.29.9/FacialAge/BNav_EC2/DepthDuration/v2_depth_duration_MTurk/v2_DepthDuration_HTML.html#236,236,1366,768,1366,768,8-29-2022,12-47-54,18,depth_duration_stimuli/002988_2014-06-15_12-24-20_094959634447_rgbf000150-resize_1/002988_2014-06-15_12-24-20_094959634447_rgbf000150-resize_1-target.png,1000,4.7669999999999995,6,12971,1002,feet,jsons/v1_VE1000_randls_30.json,1708547,1857296,27,Woman
18,712484,DepthScenes,duration_manipulation_targetAtFixation,jsons/v1_VE1000_randls_30.json,http://54.235.29.9/FacialAge/BNav_EC2/DepthDuration/v2_depth_duration_MTurk/v2_DepthDuration_HTML.html#236,236,1366,768,1366,768,8-29-2022,12-47-54,19,depth_duration_stimuli/001052_2014-06-08_18-24-54_260595134347_rgbf000130-resize_1/001052_2014-06-08_18-24-54_260595134347_rgbf000130-resize_1-target.png,1000,4.1045,5,5459,999,feet,jsons/v1_VE1000_randls_30.json,1708547,1857296,27,Woman
19,712484,DepthScenes,duration_manipulation_targetAtFixation,jsons/v1_VE1000_randls_30.json,http://54.235.29.9/FacialAge/BNav_EC2/DepthDuration/v2_depth_duration_MTurk/v2_DepthDuration_HTML.html#236,236,1366,768,1366,768,8-29-2022,12-47-54,20,depth_duration_stimuli/003621_2014-05-23_18-06-08_094959634447_rgbf000101-resize_1/003621_2014-05-23_18-06-08_094959634447_rgbf000101-resize_1-target.png,1000,3.9835,7,9474,1001,feet,jsons/v1_VE1000_randls_30.json,1708547,1857296,27,Woman
20,712484,DepthScenes,duration_manipulation_targetAtFixation,jsons/v1_VE1000_randls_30.json,http://54.235.29.9/FacialAge/BNav_EC2/DepthDuration/v2_depth_duration_MTurk/v2_DepthDuration_HTML.html#236,236,1366,768,1366,768,8-29-2022,12-47-54,21,depth_duration_stimuli/001584_2014-06-20_11-07-43_260595134347_rgbf000002-resize_1/001584_2014-06-20_11-07-43_260595134347_rgbf000002-resize_1-target.png,1000,3.53,3,5556,1000,feet,jsons/v1_VE1000_randls_30.json,1708547,1857296,27,Woman
21,712484,DepthScenes,duration_manipulation_targetAtFixation,jsons/v1_VE1000_randls_30.json,http://54.235.29.9/FacialAge/BNav_EC2/DepthDuration/v2_depth_duration_MTurk/v2_DepthDuration_HTML.html#236,236,1366,768,1366,768,8-29-2022,12-47-54,22,depth_duration_stimuli/001555_2014-06-20_17-12-10_260595134347_rgbf000065-resize_4/001555_2014-06-20_17-12-10_260595134347_rgbf000065-resize_4-target.png,1000,1.633,2,9832,1008,feet,jsons/v1_VE1000_randls_30.json,1708547,1857296,27,Woman
22,712484,DepthScenes,duration_manipulation_targetAtFixation,jsons/v1_VE1000_randls_30.json,http://54.235.29.9/FacialAge/BNav_EC2/DepthDuration/v2_depth_duration_MTurk/v2_DepthDuration_HTML.html#236,236,1366,768,1366,768,8-29-2022,12-47-54,23,depth_duration_stimuli/000103_2014-05-14_22-01-17_260595134347_rgbf000152-resize_5/000103_2014-05-14_22-01-17_260595134347_rgbf000152-resize_5-target.png,1000,1.993,2,4471,999,feet,jsons/v1_VE1000_randls_30.json,1708547,1857296,27,Woman
23,712484,DepthScenes,duration_manipulation_targetAtFixation,jsons/v1_VE1000_randls_30.json,http://54.235.29.9/FacialAge/BNav_EC2/DepthDuration/v2_depth_duration_MTurk/v2_DepthDuration_HTML.html#236,236,1366,768,1366,768,8-29-2022,12-47-54,24,depth_duration_stimuli/001133_2014-06-17_14-49-16_260595134347_rgbf000100-resize_0/001133_2014-06-17_14-49-16_260595134347_rgbf000100-resize_0-target.png,1000,4.2115,4,8140,999,feet,jsons/v1_VE1000_randls_30.json,1708547,1857296,27,Woman
24,712484,DepthScenes,duration_manipulation_targetAtFixation,jsons/v1_VE1000_randls_30.json,http://54.235.29.9/FacialAge/BNav_EC2/DepthDuration/v2_depth_duration_MTurk/v2_DepthDuration_HTML.html#236,236,1366,768,1366,768,8-29-2022,12-47-54,25,depth_duration_stimuli/001132_2014-06-17_14-48-54_260595134347_rgbf000100-resize_2/001132_2014-06-17_14-48-54_260595134347_rgbf000100-resize_2-target.png,1000,3.753,4,4804,999,feet,jsons/v1_VE1000_randls_30.json,1708547,1857296,27,Woman
25,712484,DepthScenes,duration_manipulation_targetAtFixation,jsons/v1_VE1000_randls_30.json,http://54.235.29.9/FacialAge/BNav_EC2/DepthDuration/v2_depth_duration_MTurk/v2_DepthDuration_HTML.html#236,236,1366,768,1366,768,8-29-2022,12-47-54,26,depth_duration_stimuli/000436_2014-06-09_22-25-11_260595134347_rgbf000137-resize_1/000436_2014-06-09_22-25-11_260595134347_rgbf000137-resize_1-target.png,1000,4.0705,5,8571,1000,feet,jsons/v1_VE1000_randls_30.json,1708547,1857296,27,Woman
26,712484,DepthScenes,duration_manipulation_targetAtFixation,jsons/v1_VE1000_randls_30.json,http://54.235.29.9/FacialAge/BNav_EC2/DepthDuration/v2_depth_duration_MTurk/v2_DepthDuration_HTML.html#236,236,1366,768,1366,768,8-29-2022,12-47-54,27,depth_duration_stimuli/002444_2014-06-28_20-32-08_260595134347_rgbf000027-resize_0/002444_2014-06-28_20-32-08_260595134347_rgbf000027-resize_0-target.png,1000,4.388999999999999,5,4762,1000,feet,jsons/v1_VE1000_randls_30.json,1708547,1857296,27,Woman
27,712484,DepthScenes,duration_manipulation_targetAtFixation,jsons/v1_VE1000_randls_30.json,http://54.235.29.9/FacialAge/BNav_EC2/DepthDuration/v2_depth_duration_MTurk/v2_DepthDuration_HTML.html#236,236,1366,768,1366,768,8-29-2022,12-47-54,28,depth_duration_stimuli/002630_2014-06-24_14-47-50_094959634447_rgbf000055-resize_1/002630_2014-06-24_14-47-50_094959634447_rgbf000055-resize_1-target.png,1000,3.0095,6,7300,1000,feet,jsons/v1_VE1000_randls_30.json,1708547,1857296,27,Woman
28,712484,DepthScenes,duration_manipulation_targetAtFixation,jsons/v1_VE1000_randls_30.json,http://54.235.29.9/FacialAge/BNav_EC2/DepthDuration/v2_depth_duration_MTurk/v2_DepthDuration_HTML.html#236,236,1366,768,1366,768,8-29-2022,12-47-54,29,depth_duration_stimuli/002758_2014-06-22_19-11-20_094959634447_rgbf000128-resize_1/002758_2014-06-22_19-11-20_094959634447_rgbf000128-resize_1-target.png,1000,2.555,3,4608,1000,feet,jsons/v1_VE1000_randls_30.json,1708547,1857296,27,Woman
29,712484,DepthScenes,duration_manipulation_targetAtFixation,jsons/v1_VE1000_randls_30.json,http://54.235.29.9/FacialAge/BNav_EC2/DepthDuration/v2_depth_duration_MTurk/v2_DepthDuration_HTML.html#236,236,1366,768,1366,768,8-29-2022,12-47-54,30,depth_duration_stimuli/000375_2014-06-08_11-17-29_260595134347_rgbf000133-resize_2/000375_2014-06-08_11-17-29_260595134347_rgbf000133-resize-original.jpg,1000,4.718,0,9202,998,feet,jsons/v1_VE1000_randls_30.json,1708547,1857296,27,Woman
30,712484,DepthScenes,duration_manipulation_targetAtFixation,jsons/v1_VE1000_randls_30.json,http://54.235.29.9/FacialAge/BNav_EC2/DepthDuration/v2_depth_duration_MTurk/v2_DepthDuration_HTML.html#236,236,1366,768,1366,768,8-29-2022,12-47-54,31,depth_duration_stimuli/001150_2014-06-17_15-27-34_260595134347_rgbf000108-resize_2/001150_2014-06-17_15-27-34_260595134347_rgbf000108-resize_2-target.png,1000,4.0325,3,33764,1001,feet,jsons/v1_VE1000_randls_30.json,1708547,1857296,27,Woman
31,712484,DepthScenes,duration_manipulation_targetAtFixation,jsons/v1_VE1000_randls_30.json,http://54.235.29.9/FacialAge/BNav_EC2/DepthDuration/v2_depth_duration_MTurk/v2_DepthDuration_HTML.html#236,236,1366,768,1366,768,8-29-2022,12-47-54,32,depth_duration_stimuli/000665_2014-06-09_20-42-35_260595134347_rgbf000110-resize_1/000665_2014-06-09_20-42-35_260595134347_rgbf000110-resize_1-target.png,1000,3.057,3,5762,1000,feet,jsons/v1_VE1000_randls_30.json,1708547,1857296,27,Woman
32,712484,DepthScenes,duration_manipulation_targetAtFixation,jsons/v1_VE1000_randls_30.json,http://54.235.29.9/FacialAge/BNav_EC2/DepthDuration/v2_depth_duration_MTurk/v2_DepthDuration_HTML.html#236,236,1366,768,1366,768,8-29-2022,12-47-54,33,depth_duration_stimuli/002039_2014-06-24_20-22-38_260595134347_rgbf000084-resize_1/002039_2014-06-24_20-22-38_260595134347_rgbf000084-resize_1-target.png,1000,4.408,7,7811,1000,feet,jsons/v1_VE1000_randls_30.json,1708547,1857296,27,Woman
33,712484,DepthScenes,duration_manipulation_targetAtFixation,jsons/v1_VE1000_randls_30.json,http://54.235.29.9/FacialAge/BNav_EC2/DepthDuration/v2_depth_duration_MTurk/v2_DepthDuration_HTML.html#236,236,1366,768,1366,768,8-29-2022,12-47-54,34,depth_duration_stimuli/002103_2014-06-25_20-00-40_260595134347_rgbf000049-resize_0/002103_2014-06-25_20-00-40_260595134347_rgbf000049-resize_0-target.png,1000,4.105,3,7235,1000,feet,jsons/v1_VE1000_randls_30.json,1708547,1857296,27,Woman
34,712484,DepthScenes,duration_manipulation_targetAtFixation,jsons/v1_VE1000_randls_30.json,http://54.235.29.9/FacialAge/BNav_EC2/DepthDuration/v2_depth_duration_MTurk/v2_DepthDuration_HTML.html#236,236,1366,768,1366,768,8-29-2022,12-47-54,35,depth_duration_stimuli/002725_2014-06-22_11-47-51_094959634447_rgbf000070-resize_1/002725_2014-06-22_11-47-51_094959634447_rgbf000070-resize_1-target.png,1000,2.195,2,9116,999,feet,jsons/v1_VE1000_randls_30.json,1708547,1857296,27,Woman
35,712484,DepthScenes,duration_manipulation_targetAtFixation,jsons/v1_VE1000_randls_30.json,http://54.235.29.9/FacialAge/BNav_EC2/DepthDuration/v2_depth_duration_MTurk/v2_DepthDuration_HTML.html#236,236,1366,768,1366,768,8-29-2022,12-47-54,36,depth_duration_stimuli/002344_2014-06-28_20-06-29_260595134347_rgbf000030-resize_1/002344_2014-06-28_20-06-29_260595134347_rgbf000030-resize_1-target.png,1000,1.5795,2,6187,1000,feet,jsons/v1_VE1000_randls_30.json,1708547,1857296,27,Woman
36,712484,DepthScenes,duration_manipulation_targetAtFixation,jsons/v1_VE1000_randls_30.json,http://54.235.29.9/FacialAge/BNav_EC2/DepthDuration/v2_depth_duration_MTurk/v2_DepthDuration_HTML.html#236,236,1366,768,1366,768,8-29-2022,12-47-54,37,depth_duration_stimuli/002153_2014-06-25_21-27-18_260595134347_rgbf000038-resize_5/002153_2014-06-25_21-27-18_260595134347_rgbf000038-resize_5-target.png,1000,2.505,3,8131,999,feet,jsons/v1_VE1000_randls_30.json,1708547,1857296,27,Woman
37,712484,DepthScenes,duration_manipulation_targetAtFixation,jsons/v1_VE1000_randls_30.json,http://54.235.29.9/FacialAge/BNav_EC2/DepthDuration/v2_depth_duration_MTurk/v2_DepthDuration_HTML.html#236,236,1366,768,1366,768,8-29-2022,12-47-54,38,depth_duration_stimuli/002660_2014-06-13_15-44-18_094959634447_rgbf001878-resize_2/002660_2014-06-13_15-44-18_094959634447_rgbf001878-resize_2-target.png,1000,3.576,3,7690,1000,feet,jsons/v1_VE1000_randls_30.json,1708547,1857296,27,Woman
38,712484,DepthScenes,duration_manipulation_targetAtFixation,jsons/v1_VE1000_randls_30.json,http://54.235.29.9/FacialAge/BNav_EC2/DepthDuration/v2_depth_duration_MTurk/v2_DepthDuration_HTML.html#236,236,1366,768,1366,768,8-29-2022,12-47-54,39,depth_duration_stimuli/002763_2014-06-22_19-13-10_094959634447_rgbf000075-resize_4/002763_2014-06-22_19-13-10_094959634447_rgbf000075-resize_4-target.png,1000,1.68375,3,8049,999,feet,jsons/v1_VE1000_randls_30.json,1708547,1857296,27,Woman
39,712484,DepthScenes,duration_manipulation_targetAtFixation,jsons/v1_VE1000_randls_30.json,http://54.235.29.9/FacialAge/BNav_EC2/DepthDuration/v2_depth_duration_MTurk/v2_DepthDuration_HTML.html#236,236,1366,768,1366,768,8-29-2022,12-47-54,40,depth_duration_stimuli/002209_2014-06-28_18-36-10_260595134347_rgbf000051-resize_1/002209_2014-06-28_18-36-10_260595134347_rgbf000051-resize_1-target.png,1000,2.057,3,5968,1001,feet,jsons/v1_VE1000_randls_30.json,1708547,1857296,27,Woman
40,712484,DepthScenes,duration_manipulation_targetAtFixation,jsons/v1_VE1000_randls_30.json,http://54.235.29.9/FacialAge/BNav_EC2/DepthDuration/v2_depth_duration_MTurk/v2_DepthDuration_HTML.html#236,236,1366,768,1366,768,8-29-2022,12-47-54,41,depth_duration_stimuli/001011_2014-06-08_23-18-54_260595134347_rgbf000044-resize_4/001011_2014-06-08_23-18-54_260595134347_rgbf000044-resize_4-target.png,1000,2.4730000000000003,4,9781,1000,feet,jsons/v1_VE1000_randls_30.json,1708547,1857296,27,Woman
41,712484,DepthScenes,duration_manipulation_targetAtFixation,jsons/v1_VE1000_randls_30.json,http://54.235.29.9/FacialAge/BNav_EC2/DepthDuration/v2_depth_duration_MTurk/v2_DepthDuration_HTML.html#236,236,1366,768,1366,768,8-29-2022,12-47-54,42,depth_duration_stimuli/002875_2014-06-01_15-19-00_094959634447_rgbf000151-resize_1/002875_2014-06-01_15-19-00_094959634447_rgbf000151-resize_1-target.png,1000,1.9675,3,6219,1000,feet,jsons/v1_VE1000_randls_30.json,1708547,1857296,27,Woman
42,712484,DepthScenes,duration_manipulation_targetAtFixation,jsons/v1_VE1000_randls_30.json,http://54.235.29.9/FacialAge/BNav_EC2/DepthDuration/v2_depth_duration_MTurk/v2_DepthDuration_HTML.html#236,236,1366,768,1366,768,8-29-2022,12-47-54,43,depth_duration_stimuli/003292_2014-05-14_21-53-49_094959634447_rgbf000100-resize_2/003292_2014-05-14_21-53-49_094959634447_rgbf000100-resize_2-target.png,1000,3.4815,3,12368,1000,feet,jsons/v1_VE1000_randls_30.json,1708547,1857296,27,Woman
43,712484,DepthScenes,duration_manipulation_targetAtFixation,jsons/v1_VE1000_randls_30.json,http://54.235.29.9/FacialAge/BNav_EC2/DepthDuration/v2_depth_duration_MTurk/v2_DepthDuration_HTML.html#236,236,1366,768,1366,768,8-29-2022,12-47-54,44,depth_duration_stimuli/002639_2014-06-24_14-51-37_094959634447_rgbf000074-resize_4/002639_2014-06-24_14-51-37_094959634447_rgbf000074-resize_4-target.png,1000,4.0375,3,6045,1000,feet,jsons/v1_VE1000_randls_30.json,1708547,1857296,27,Woman
44,712484,DepthScenes,duration_manipulation_targetAtFixation,jsons/v1_VE1000_randls_30.json,http://54.235.29.9/FacialAge/BNav_EC2/DepthDuration/v2_depth_duration_MTurk/v2_DepthDuration_HTML.html#236,236,1366,768,1366,768,8-29-2022,12-47-54,45,depth_duration_stimuli/000787_2014-06-08_22-33-53_260595134347_rgbf000175-resize_1/000787_2014-06-08_22-33-53_260595134347_rgbf000175-resize-original.jpg,1000,4.784,0,11908,999,feet,jsons/v1_VE1000_randls_30.json,1708547,1857296,27,Woman
45,712484,DepthScenes,duration_manipulation_targetAtFixation,jsons/v1_VE1000_randls_30.json,http://54.235.29.9/FacialAge/BNav_EC2/DepthDuration/v2_depth_duration_MTurk/v2_DepthDuration_HTML.html#236,236,1366,768,1366,768,8-29-2022,12-47-54,46,depth_duration_stimuli/001055_2014-06-08_18-45-35_260595134347_rgbf000111-resize_4/001055_2014-06-08_18-45-35_260595134347_rgbf000111-resize_4-target.png,1000,2.4290000000000003,4,11265,999,feet,jsons/v1_VE1000_randls_30.json,1708547,1857296,27,Woman
46,712484,DepthScenes,duration_manipulation_targetAtFixation,jsons/v1_VE1000_randls_30.json,http://54.235.29.9/FacialAge/BNav_EC2/DepthDuration/v2_depth_duration_MTurk/v2_DepthDuration_HTML.html#236,236,1366,768,1366,768,8-29-2022,12-47-54,47,depth_duration_stimuli/000549_2014-06-08_22-10-24_260595134347_rgbf000247-resize_3/000549_2014-06-08_22-10-24_260595134347_rgbf000247-resize_3-target.png,1000,1.841,1,6223,996,feet,jsons/v1_VE1000_randls_30.json,1708547,1857296,27,Woman
47,712484,DepthScenes,duration_manipulation_targetAtFixation,jsons/v1_VE1000_randls_30.json,http://54.235.29.9/FacialAge/BNav_EC2/DepthDuration/v2_depth_duration_MTurk/v2_DepthDuration_HTML.html#236,236,1366,768,1366,768,8-29-2022,12-47-54,48,depth_duration_stimuli/001810_2014-06-26_20-51-35_260595134347_rgbf000040-resize_3/001810_2014-06-26_20-51-35_260595134347_rgbf000040-resize_3-target.png,1000,2.2525,2,7821,1002,feet,jsons/v1_VE1000_randls_30.json,1708547,1857296,27,Woman
48,712484,DepthScenes,duration_manipulation_targetAtFixation,jsons/v1_VE1000_randls_30.json,http://54.235.29.9/FacialAge/BNav_EC2/DepthDuration/v2_depth_duration_MTurk/v2_DepthDuration_HTML.html#236,236,1366,768,1366,768,8-29-2022,12-47-54,49,depth_duration_stimuli/003010_2014-06-15_12-54-35_094959634447_rgbf000112-resize_0/003010_2014-06-15_12-54-35_094959634447_rgbf000112-resize_0-target.png,1000,3.1185,5,7202,999,feet,jsons/v1_VE1000_randls_30.json,1708547,1857296,27,Woman
49,712484,DepthScenes,duration_manipulation_targetAtFixation,jsons/v1_VE1000_randls_30.json,http://54.235.29.9/FacialAge/BNav_EC2/DepthDuration/v2_depth_duration_MTurk/v2_DepthDuration_HTML.html#236,236,1366,768,1366,768,8-29-2022,12-47-54,50,depth_duration_stimuli/002509_2014-06-24_13-19-22_094959634447_rgbf000077-resize_0/002509_2014-06-24_13-19-22_094959634447_rgbf000077-resize_0-target.png,1000,1.3065,2,7604,1000,feet,jsons/v1_VE1000_randls_30.json,1708547,1857296,27,Woman
50,712484,DepthScenes,duration_manipulation_targetAtFixation,jsons/v1_VE1000_randls_30.json,http://54.235.29.9/FacialAge/BNav_EC2/DepthDuration/v2_depth_duration_MTurk/v2_DepthDuration_HTML.html#236,236,1366,768,1366,768,8-29-2022,12-47-54,51,depth_duration_stimuli/003338_2014-05-20_11-01-23_094959634447_rgbf000051-resize_6/003338_2014-05-20_11-01-23_094959634447_rgbf000051-resize_6-target.png,1000,1.693,2,13811,1000,feet,jsons/v1_VE1000_randls_30.json,1708547,1857296,27,Woman
51,712484,DepthScenes,duration_manipulation_targetAtFixation,jsons/v1_VE1000_randls_30.json,http://54.235.29.9/FacialAge/BNav_EC2/DepthDuration/v2_depth_duration_MTurk/v2_DepthDuration_HTML.html#236,236,1366,768,1366,768,8-29-2022,12-47-54,52,depth_duration_stimuli/000736_2014-06-08_18-24-15_260595134347_rgbf000206-resize_3/000736_2014-06-08_18-24-15_260595134347_rgbf000206-resize_3-target.png,1000,3.515,3,6851,1001,feet,jsons/v1_VE1000_randls_30.json,1708547,1857296,27,Woman
52,712484,DepthScenes,duration_manipulation_targetAtFixation,jsons/v1_VE1000_randls_30.json,http://54.235.29.9/FacialAge/BNav_EC2/DepthDuration/v2_depth_duration_MTurk/v2_DepthDuration_HTML.html#236,236,1366,768,1366,768,8-29-2022,12-47-54,53,depth_duration_stimuli/000137_2014-05-20_17-04-49_260595134347_rgbf000120-resize_1/000137_2014-05-20_17-04-49_260595134347_rgbf000120-resize_1-target.png,1000,3.786,4,4537,999,feet,jsons/v1_VE1000_randls_30.json,1708547,1857296,27,Woman
53,712484,DepthScenes,duration_manipulation_targetAtFixation,jsons/v1_VE1000_randls_30.json,http://54.235.29.9/FacialAge/BNav_EC2/DepthDuration/v2_depth_duration_MTurk/v2_DepthDuration_HTML.html#236,236,1366,768,1366,768,8-29-2022,12-47-54,54,depth_duration_stimuli/002057_2014-06-24_21-00-13_260595134347_rgbf000120-resize_1/002057_2014-06-24_21-00-13_260595134347_rgbf000120-resize_1-target.png,1000,2.967,5,5908,1001,feet,jsons/v1_VE1000_randls_30.json,1708547,1857296,27,Woman
54,712484,DepthScenes,duration_manipulation_targetAtFixation,jsons/v1_VE1000_randls_30.json,http://54.235.29.9/FacialAge/BNav_EC2/DepthDuration/v2_depth_duration_MTurk/v2_DepthDuration_HTML.html#236,236,1366,768,1366,768,8-29-2022,12-47-54,55,depth_duration_stimuli/000709_2014-06-08_13-51-55_260595134347_rgbf000068-resize_3/000709_2014-06-08_13-51-55_260595134347_rgbf000068-resize_3-target.png,1000,1.8030000000000002,3,4338,1000,feet,jsons/v1_VE1000_randls_30.json,1708547,1857296,27,Woman
55,712484,DepthScenes,duration_manipulation_targetAtFixation,jsons/v1_VE1000_randls_30.json,http://54.235.29.9/FacialAge/BNav_EC2/DepthDuration/v2_depth_duration_MTurk/v2_DepthDuration_HTML.html#236,236,1366,768,1366,768,8-29-2022,12-47-54,56,depth_duration_stimuli/000682_2014-06-08_23-14-58_260595134347_rgbf000041-resize_5/000682_2014-06-08_23-14-58_260595134347_rgbf000041-resize_5-target.png,1000,2.7239999999999998,4,5372,1070,feet,jsons/v1_VE1000_randls_30.json,1708547,1857296,27,Woman
56,712484,DepthScenes,duration_manipulation_targetAtFixation,jsons/v1_VE1000_randls_30.json,http://54.235.29.9/FacialAge/BNav_EC2/DepthDuration/v2_depth_duration_MTurk/v2_DepthDuration_HTML.html#236,236,1366,768,1366,768,8-29-2022,12-47-54,57,depth_duration_stimuli/001650_2014-06-20_12-09-00_260595134347_rgbf000087-resize_3/001650_2014-06-20_12-09-00_260595134347_rgbf000087-resize_3-target.png,1000,1.9505,2,4187,1000,feet,jsons/v1_VE1000_randls_30.json,1708547,1857296,27,Woman
57,712484,DepthScenes,duration_manipulation_targetAtFixation,jsons/v1_VE1000_randls_30.json,http://54.235.29.9/FacialAge/BNav_EC2/DepthDuration/v2_depth_duration_MTurk/v2_DepthDuration_HTML.html#236,236,1366,768,1366,768,8-29-2022,12-47-54,58,depth_duration_stimuli/000642_2014-06-08_16-59-25_260595134347_rgbf000098-resize_2/000642_2014-06-08_16-59-25_260595134347_rgbf000098-resize_2-target.png,1000,2.8815,3,7043,999,feet,jsons/v1_VE1000_randls_30.json,1708547,1857296,27,Woman
58,712484,DepthScenes,duration_manipulation_targetAtFixation,jsons/v1_VE1000_randls_30.json,http://54.235.29.9/FacialAge/BNav_EC2/DepthDuration/v2_depth_duration_MTurk/v2_DepthDuration_HTML.html#236,236,1366,768,1366,768,8-29-2022,12-47-54,59,depth_duration_stimuli/002425_2014-06-28_20-27-29_260595134347_rgbf000031-resize_8/002425_2014-06-28_20-27-29_260595134347_rgbf000031-resize_8-target.png,1000,3.8960000000000004,3,59506,1000,feet,jsons/v1_VE1000_randls_30.json,1708547,1857296,27,Woman
59,712484,DepthScenes,duration_manipulation_targetAtFixation,jsons/v1_VE1000_randls_30.json,http://54.235.29.9/FacialAge/BNav_EC2/DepthDuration/v2_depth_duration_MTurk/v2_DepthDuration_HTML.html#236,236,1366,768,1366,768,8-29-2022,12-47-54,60,depth_duration_stimuli/002784_2014-06-22_19-26-30_094959634447_rgbf000083-resize_3/002784_2014-06-22_19-26-30_094959634447_rgbf000083-resize_3-target.png,1000,1.8046666666667,2,7803,1000,feet,jsons/v1_VE1000_randls_30.json,1708547,1857296,27,Woman
60,712484,DepthScenes,duration_manipulation_targetAtFixation,jsons/v1_VE1000_randls_30.json,http://54.235.29.9/FacialAge/BNav_EC2/DepthDuration/v2_depth_duration_MTurk/v2_DepthDuration_HTML.html#236,236,1366,768,1366,768,8-29-2022,12-47-54,61,depth_duration_stimuli/001100_2014-06-15_17-46-26_260595134347_rgbf000225-resize_2/001100_2014-06-15_17-46-26_260595134347_rgbf000225-resize_2-target.png,1000,2.24,2,4052,999,feet,jsons/v1_VE1000_randls_30.json,1708547,1857296,27,Woman
61,712484,DepthScenes,duration_manipulation_targetAtFixation,jsons/v1_VE1000_randls_30.json,http://54.235.29.9/FacialAge/BNav_EC2/DepthDuration/v2_depth_duration_MTurk/v2_DepthDuration_HTML.html#236,236,1366,768,1366,768,8-29-2022,12-47-54,62,depth_duration_stimuli/002964_2014-06-08_17-46-11_094959634447_rgbf000091-resize_4/002964_2014-06-08_17-46-11_094959634447_rgbf000091-resize_4-target.png,1000,1.6909999999999998,2,7437,999,feet,jsons/v1_VE1000_randls_30.json,1708547,1857296,27,Woman
62,712484,DepthScenes,duration_manipulation_targetAtFixation,jsons/v1_VE1000_randls_30.json,http://54.235.29.9/FacialAge/BNav_EC2/DepthDuration/v2_depth_duration_MTurk/v2_DepthDuration_HTML.html#236,236,1366,768,1366,768,8-29-2022,12-47-54,63,depth_duration_stimuli/002136_2014-06-25_21-18-03_260595134347_rgbf000109-resize_3/002136_2014-06-25_21-18-03_260595134347_rgbf000109-resize_3-target.png,1000,1.9569999999999999,3,4313,1014,feet,jsons/v1_VE1000_randls_30.json,1708547,1857296,27,Woman
63,712484,DepthScenes,duration_manipulation_targetAtFixation,jsons/v1_VE1000_randls_30.json,http://54.235.29.9/FacialAge/BNav_EC2/DepthDuration/v2_depth_duration_MTurk/v2_DepthDuration_HTML.html#236,236,1366,768,1366,768,8-29-2022,12-47-54,64,depth_duration_stimuli/001016_2014-06-09_16-16-10_260595134347_rgbf000112-resize_5/001016_2014-06-09_16-16-10_260595134347_rgbf000112-resize_5-target.png,1000,1.6565,3,7153,1000,feet,jsons/v1_VE1000_randls_30.json,1708547,1857296,27,Woman
64,712484,DepthScenes,duration_manipulation_targetAtFixation,jsons/v1_VE1000_randls_30.json,http://54.235.29.9/FacialAge/BNav_EC2/DepthDuration/v2_depth_duration_MTurk/v2_DepthDuration_HTML.html#236,236,1366,768,1366,768,8-29-2022,12-47-54,65,depth_duration_stimuli/002340_2014-06-28_20-05-46_260595134347_rgbf000113-resize_0/002340_2014-06-28_20-05-46_260595134347_rgbf000113-resize_0-target.png,1000,2.4735,4,6240,1001,feet,jsons/v1_VE1000_randls_30.json,1708547,1857296,27,Woman
65,712484,DepthScenes,duration_manipulation_targetAtFixation,jsons/v1_VE1000_randls_30.json,http://54.235.29.9/FacialAge/BNav_EC2/DepthDuration/v2_depth_duration_MTurk/v2_DepthDuration_HTML.html#236,236,1366,768,1366,768,8-29-2022,12-47-54,66,depth_duration_stimuli/001222_2014-06-17_16-24-06_260595134347_rgbf000073-resize_0/001222_2014-06-17_16-24-06_260595134347_rgbf000073-resize-original.jpg,1000,1.4385,0,5485,1000,feet,jsons/v1_VE1000_randls_30.json,1708547,1857296,27,Woman
66,712484,DepthScenes,duration_manipulation_targetAtFixation,jsons/v1_VE1000_randls_30.json,http://54.235.29.9/FacialAge/BNav_EC2/DepthDuration/v2_depth_duration_MTurk/v2_DepthDuration_HTML.html#236,236,1366,768,1366,768,8-29-2022,12-47-54,67,depth_duration_stimuli/000414_2014-06-04_19-49-13_260595134347_rgbf000044-resize_0/000414_2014-06-04_19-49-13_260595134347_rgbf000044-resize_0-target.png,1000,4.329,7,6738,1002,feet,jsons/v1_VE1000_randls_30.json,1708547,1857296,27,Woman
67,712484,DepthScenes,duration_manipulation_targetAtFixation,jsons/v1_VE1000_randls_30.json,http://54.235.29.9/FacialAge/BNav_EC2/DepthDuration/v2_depth_duration_MTurk/v2_DepthDuration_HTML.html#236,236,1366,768,1366,768,8-29-2022,12-47-54,68,depth_duration_stimuli/003129_2014-05-12_10-48-10_094959634447_rgbf000100-resize_0/003129_2014-05-12_10-48-10_094959634447_rgbf000100-resize_0-target.png,1000,4.9305,6,5218,999,feet,jsons/v1_VE1000_randls_30.json,1708547,1857296,27,Woman
68,712484,DepthScenes,duration_manipulation_targetAtFixation,jsons/v1_VE1000_randls_30.json,http://54.235.29.9/FacialAge/BNav_EC2/DepthDuration/v2_depth_duration_MTurk/v2_DepthDuration_HTML.html#236,236,1366,768,1366,768,8-29-2022,12-47-54,69,depth_duration_stimuli/001158_2014-06-17_15-32-16_260595134347_rgbf000138-resize_2/001158_2014-06-17_15-32-16_260595134347_rgbf000138-resize_2-target.png,1000,4.5315,6,5832,1000,feet,jsons/v1_VE1000_randls_30.json,1708547,1857296,27,Woman
69,712484,DepthScenes,duration_manipulation_targetAtFixation,jsons/v1_VE1000_randls_30.json,http://54.235.29.9/FacialAge/BNav_EC2/DepthDuration/v2_depth_duration_MTurk/v2_DepthDuration_HTML.html#236,236,1366,768,1366,768,8-29-2022,12-47-54,70,depth_duration_stimuli/000556_2014-06-09_22-42-56_260595134347_rgbf000214-resize_1/000556_2014-06-09_22-42-56_260595134347_rgbf000214-resize_1-target.png,1000,4.8415,6,5023,1000,feet,jsons/v1_VE1000_randls_30.json,1708547,1857296,27,Woman
70,712484,DepthScenes,duration_manipulation_targetAtFixation,jsons/v1_VE1000_randls_30.json,http://54.235.29.9/FacialAge/BNav_EC2/DepthDuration/v2_depth_duration_MTurk/v2_DepthDuration_HTML.html#236,236,1366,768,1366,768,8-29-2022,12-47-54,71,depth_duration_stimuli/000758_2014-06-08_22-05-08_260595134347_rgbf000085-resize_0/000758_2014-06-08_22-05-08_260595134347_rgbf000085-resize_0-target.png,1000,3.3810000000000002,6,6226,1000,feet,jsons/v1_VE1000_randls_30.json,1708547,1857296,27,Woman
71,712484,DepthScenes,duration_manipulation_targetAtFixation,jsons/v1_VE1000_randls_30.json,http://54.235.29.9/FacialAge/BNav_EC2/DepthDuration/v2_depth_duration_MTurk/v2_DepthDuration_HTML.html#236,236,1366,768,1366,768,8-29-2022,12-47-54,72,depth_duration_stimuli/000854_2014-06-09_19-43-13_260595134347_rgbf000066-resize_0/000854_2014-06-09_19-43-13_260595134347_rgbf000066-resize_0-target.png,1000,3.068,5,4148,960,feet,jsons/v1_VE1000_randls_30.json,1708547,1857296,27,Woman
72,712484,DepthScenes,duration_manipulation_targetAtFixation,jsons/v1_VE1000_randls_30.json,http://54.235.29.9/FacialAge/BNav_EC2/DepthDuration/v2_depth_duration_MTurk/v2_DepthDuration_HTML.html#236,236,1366,768,1366,768,8-29-2022,12-47-54,73,depth_duration_stimuli/002118_2014-06-25_20-32-08_260595134347_rgbf000078-resize_1/002118_2014-06-25_20-32-08_260595134347_rgbf000078-resize_1-target.png,1000,2.6460000000000004,4,6188,1000,feet,jsons/v1_VE1000_randls_30.json,1708547,1857296,27,Woman
73,712484,DepthScenes,duration_manipulation_targetAtFixation,jsons/v1_VE1000_randls_30.json,http://54.235.29.9/FacialAge/BNav_EC2/DepthDuration/v2_depth_duration_MTurk/v2_DepthDuration_HTML.html#236,236,1366,768,1366,768,8-29-2022,12-47-54,74,depth_duration_stimuli/001516_2014-06-20_16-25-09_260595134347_rgbf000076-resize_2/001516_2014-06-20_16-25-09_260595134347_rgbf000076-resize_2-target.png,1000,1.7445,3,4700,999,feet,jsons/v1_VE1000_randls_30.json,1708547,1857296,27,Woman
74,712484,DepthScenes,duration_manipulation_targetAtFixation,jsons/v1_VE1000_randls_30.json,http://54.235.29.9/FacialAge/BNav_EC2/DepthDuration/v2_depth_duration_MTurk/v2_DepthDuration_HTML.html#236,236,1366,768,1366,768,8-29-2022,12-47-54,75,depth_duration_stimuli/000739_2014-06-08_18-45-58_260595134347_rgbf000068-resize_1/000739_2014-06-08_18-45-58_260595134347_rgbf000068-resize_1-target.png,1000,3.534,5,5840,983,feet,jsons/v1_VE1000_randls_30.json,1708547,1857296,27,Woman
75,712484,DepthScenes,duration_manipulation_targetAtFixation,jsons/v1_VE1000_randls_30.json,http://54.235.29.9/FacialAge/BNav_EC2/DepthDuration/v2_depth_duration_MTurk/v2_DepthDuration_HTML.html#236,236,1366,768,1366,768,8-29-2022,12-47-54,76,depth_duration_stimuli/000734_2014-06-08_17-39-11_260595134347_rgbf000128-resize_2/000734_2014-06-08_17-39-11_260595134347_rgbf000128-resize_2-target.png,1000,4.098,4,4216,996,feet,jsons/v1_VE1000_randls_30.json,1708547,1857296,27,Woman
76,712484,DepthScenes,duration_manipulation_targetAtFixation,jsons/v1_VE1000_randls_30.json,http://54.235.29.9/FacialAge/BNav_EC2/DepthDuration/v2_depth_duration_MTurk/v2_DepthDuration_HTML.html#236,236,1366,768,1366,768,8-29-2022,12-47-54,77,depth_duration_stimuli/000368_2014-06-09_15-53-01_260595134347_rgbf000155-resize_2/000368_2014-06-09_15-53-01_260595134347_rgbf000155-resize_2-target.png,1000,2.4859999999999998,3,5859,999,feet,jsons/v1_VE1000_randls_30.json,1708547,1857296,27,Woman
77,712484,DepthScenes,duration_manipulation_targetAtFixation,jsons/v1_VE1000_randls_30.json,http://54.235.29.9/FacialAge/BNav_EC2/DepthDuration/v2_depth_duration_MTurk/v2_DepthDuration_HTML.html#236,236,1366,768,1366,768,8-29-2022,12-47-54,78,depth_duration_stimuli/002678_2014-06-13_16-15-32_094959634447_rgbf000151-resize_6/002678_2014-06-13_16-15-32_094959634447_rgbf000151-resize_6-target.png,1000,2.1830000000000003,4,6740,1001,feet,jsons/v1_VE1000_randls_30.json,1708547,1857296,27,Woman
78,712484,DepthScenes,duration_manipulation_targetAtFixation,jsons/v1_VE1000_randls_30.json,http://54.235.29.9/FacialAge/BNav_EC2/DepthDuration/v2_depth_duration_MTurk/v2_DepthDuration_HTML.html#236,236,1366,768,1366,768,8-29-2022,12-47-54,79,depth_duration_stimuli/000493_2014-06-09_21-01-18_260595134347_rgbf000196-resize_3/000493_2014-06-09_21-01-18_260595134347_rgbf000196-resize_3-target.png,1000,3.44,4,6387,999,feet,jsons/v1_VE1000_randls_30.json,1708547,1857296,27,Woman
79,712484,DepthScenes,duration_manipulation_targetAtFixation,jsons/v1_VE1000_randls_30.json,http://54.235.29.9/FacialAge/BNav_EC2/DepthDuration/v2_depth_duration_MTurk/v2_DepthDuration_HTML.html#236,236,1366,768,1366,768,8-29-2022,12-47-54,80,depth_duration_stimuli/000191_2014-05-12_17-07-38_260595134347_rgbf000199-resize_0/000191_2014-05-12_17-07-38_260595134347_rgbf000199-resize_0-target.png,1000,3.7995,7,4801,998,feet,jsons/v1_VE1000_randls_30.json,1708547,1857296,27,Woman
80,712484,DepthScenes,duration_manipulation_targetAtFixation,jsons/v1_VE1000_randls_30.json,http://54.235.29.9/FacialAge/BNav_EC2/DepthDuration/v2_depth_duration_MTurk/v2_DepthDuration_HTML.html#236,236,1366,768,1366,768,8-29-2022,12-47-54,81,depth_duration_stimuli/002445_2014-06-28_20-32-16_260595134347_rgbf000029-resize_4/002445_2014-06-28_20-32-16_260595134347_rgbf000029-resize_4-target.png,1000,2.5315,3,7612,1001,feet,jsons/v1_VE1000_randls_30.json,1708547,1857296,27,Woman
81,712484,DepthScenes,duration_manipulation_targetAtFixation,jsons/v1_VE1000_randls_30.json,http://54.235.29.9/FacialAge/BNav_EC2/DepthDuration/v2_depth_duration_MTurk/v2_DepthDuration_HTML.html#236,236,1366,768,1366,768,8-29-2022,12-47-54,82,depth_duration_stimuli/000780_2014-06-08_22-28-29_260595134347_rgbf000126-resize_1/000780_2014-06-08_22-28-29_260595134347_rgbf000126-resize_1-target.png,1000,3.3825,4,4467,999,feet,jsons/v1_VE1000_randls_30.json,1708547,1857296,27,Woman
82,712484,DepthScenes,duration_manipulation_targetAtFixation,jsons/v1_VE1000_randls_30.json,http://54.235.29.9/FacialAge/BNav_EC2/DepthDuration/v2_depth_duration_MTurk/v2_DepthDuration_HTML.html#236,236,1366,768,1366,768,8-29-2022,12-47-54,83,depth_duration_stimuli/001175_2014-06-17_15-45-55_260595134347_rgbf000129-resize_4/001175_2014-06-17_15-45-55_260595134347_rgbf000129-resize_4-target.png,1000,4.255,8,6527,999,feet,jsons/v1_VE1000_randls_30.json,1708547,1857296,27,Woman
83,712484,DepthScenes,duration_manipulation_targetAtFixation,jsons/v1_VE1000_randls_30.json,http://54.235.29.9/FacialAge/BNav_EC2/DepthDuration/v2_depth_duration_MTurk/v2_DepthDuration_HTML.html#236,236,1366,768,1366,768,8-29-2022,12-47-54,84,depth_duration_stimuli/003490_2014-05-21_15-50-11_094959634447_rgbf000101-resize_3/003490_2014-05-21_15-50-11_094959634447_rgbf000101-resize_3-target.png,1000,3.6445,5,4942,1001,feet,jsons/v1_VE1000_randls_30.json,1708547,1857296,27,Woman
84,712484,DepthScenes,duration_manipulation_targetAtFixation,jsons/v1_VE1000_randls_30.json,http://54.235.29.9/FacialAge/BNav_EC2/DepthDuration/v2_depth_duration_MTurk/v2_DepthDuration_HTML.html#236,236,1366,768,1366,768,8-29-2022,12-47-54,85,depth_duration_stimuli/000788_2014-06-08_22-34-36_260595134347_rgbf000131-resize_1/000788_2014-06-08_22-34-36_260595134347_rgbf000131-resize_1-target.png,1000,3.359,4,6396,1000,feet,jsons/v1_VE1000_randls_30.json,1708547,1857296,27,Woman
85,712484,DepthScenes,duration_manipulation_targetAtFixation,jsons/v1_VE1000_randls_30.json,http://54.235.29.9/FacialAge/BNav_EC2/DepthDuration/v2_depth_duration_MTurk/v2_DepthDuration_HTML.html#236,236,1366,768,1366,768,8-29-2022,12-47-54,86,depth_duration_stimuli/001235_2014-06-17_16-37-36_260595134347_rgbf000084-resize_4/001235_2014-06-17_16-37-36_260595134347_rgbf000084-resize_4-target.png,1000,3.6605,4,4585,1000,feet,jsons/v1_VE1000_randls_30.json,1708547,1857296,27,Woman
86,712484,DepthScenes,duration_manipulation_targetAtFixation,jsons/v1_VE1000_randls_30.json,http://54.235.29.9/FacialAge/BNav_EC2/DepthDuration/v2_depth_duration_MTurk/v2_DepthDuration_HTML.html#236,236,1366,768,1366,768,8-29-2022,12-47-54,87,depth_duration_stimuli/002272_2014-06-28_18-53-56_260595134347_rgbf000067-resize_2/002272_2014-06-28_18-53-56_260595134347_rgbf000067-resize_2-target.png,1000,1.138,2,7083,1000,feet,jsons/v1_VE1000_randls_30.json,1708547,1857296,27,Woman
87,712484,DepthScenes,duration_manipulation_targetAtFixation,jsons/v1_VE1000_randls_30.json,http://54.235.29.9/FacialAge/BNav_EC2/DepthDuration/v2_depth_duration_MTurk/v2_DepthDuration_HTML.html#236,236,1366,768,1366,768,8-29-2022,12-47-54,88,depth_duration_stimuli/001571_2014-06-20_17-21-32_260595134347_rgbf000089-resize_1/001571_2014-06-20_17-21-32_260595134347_rgbf000089-resize_1-target.png,1000,1.86,2,4437,980,feet,jsons/v1_VE1000_randls_30.json,1708547,1857296,27,Woman
88,712484,DepthScenes,duration_manipulation_targetAtFixation,jsons/v1_VE1000_randls_30.json,http://54.235.29.9/FacialAge/BNav_EC2/DepthDuration/v2_depth_duration_MTurk/v2_DepthDuration_HTML.html#236,236,1366,768,1366,768,8-29-2022,12-47-54,89,depth_duration_stimuli/001056_2014-06-08_18-46-44_260595134347_rgbf000068-resize_0/001056_2014-06-08_18-46-44_260595134347_rgbf000068-resize_0-target.png,1000,2.6625,3,6243,998,feet,jsons/v1_VE1000_randls_30.json,1708547,1857296,27,Woman
89,712484,DepthScenes,duration_manipulation_targetAtFixation,jsons/v1_VE1000_randls_30.json,http://54.235.29.9/FacialAge/BNav_EC2/DepthDuration/v2_depth_duration_MTurk/v2_DepthDuration_HTML.html#236,236,1366,768,1366,768,8-29-2022,12-47-54,90,depth_duration_stimuli/002199_2014-06-28_18-33-56_260595134347_rgbf000074-resize_0/002199_2014-06-28_18-33-56_260595134347_rgbf000074-resize_0-target.png,1000,1.996,2,4767,999,feet,jsons/v1_VE1000_randls_30.json,1708547,1857296,27,Woman
90,712484,DepthScenes,duration_manipulation_targetAtFixation,jsons/v1_VE1000_randls_30.json,http://54.235.29.9/FacialAge/BNav_EC2/DepthDuration/v2_depth_duration_MTurk/v2_DepthDuration_HTML.html#236,236,1366,768,1366,768,8-29-2022,12-47-54,91,depth_duration_stimuli/003070_2014-06-15_14-58-27_094959634447_rgbf000150-resize_3/003070_2014-06-15_14-58-27_094959634447_rgbf000150-resize_3-target.png,1000,2.9415,5,7435,999,feet,jsons/v1_VE1000_randls_30.json,1708547,1857296,27,Woman
91,712484,DepthScenes,duration_manipulation_targetAtFixation,jsons/v1_VE1000_randls_30.json,http://54.235.29.9/FacialAge/BNav_EC2/DepthDuration/v2_depth_duration_MTurk/v2_DepthDuration_HTML.html#236,236,1366,768,1366,768,8-29-2022,12-47-54,92,depth_duration_stimuli/000943_2014-06-09_19-31-07_260595134347_rgbf000128-resize_1/000943_2014-06-09_19-31-07_260595134347_rgbf000128-resize_1-target.png,1000,1.9765,3,4268,1000,feet,jsons/v1_VE1000_randls_30.json,1708547,1857296,27,Woman
92,712484,DepthScenes,duration_manipulation_targetAtFixation,jsons/v1_VE1000_randls_30.json,http://54.235.29.9/FacialAge/BNav_EC2/DepthDuration/v2_depth_duration_MTurk/v2_DepthDuration_HTML.html#236,236,1366,768,1366,768,8-29-2022,12-47-54,93,depth_duration_stimuli/000486_2014-06-09_20-47-20_260595134347_rgbf000143-resize_2/000486_2014-06-09_20-47-20_260595134347_rgbf000143-resize_2-target.png,1000,4.8325,5,6946,1000,feet,jsons/v1_VE1000_randls_30.json,1708547,1857296,27,Woman
93,712484,DepthScenes,duration_manipulation_targetAtFixation,jsons/v1_VE1000_randls_30.json,http://54.235.29.9/FacialAge/BNav_EC2/DepthDuration/v2_depth_duration_MTurk/v2_DepthDuration_HTML.html#236,236,1366,768,1366,768,8-29-2022,12-47-54,94,depth_duration_stimuli/003083_2014-06-15_15-21-03_094959634447_rgbf000063-resize_1/003083_2014-06-15_15-21-03_094959634447_rgbf000063-resize_1-target.png,1000,4.1405,7,5900,1001,feet,jsons/v1_VE1000_randls_30.json,1708547,1857296,27,Woman
94,712484,DepthScenes,duration_manipulation_targetAtFixation,jsons/v1_VE1000_randls_30.json,http://54.235.29.9/FacialAge/BNav_EC2/DepthDuration/v2_depth_duration_MTurk/v2_DepthDuration_HTML.html#236,236,1366,768,1366,768,8-29-2022,12-47-54,95,depth_duration_stimuli/000009_2014-05-26_14-32-05_260595134347_rgbf000034-resize_3/000009_2014-05-26_14-32-05_260595134347_rgbf000034-resize_3-target.png,1000,3.8715,8,7971,999,feet,jsons/v1_VE1000_randls_30.json,1708547,1857296,27,Woman
95,712484,DepthScenes,duration_manipulation_targetAtFixation,jsons/v1_VE1000_randls_30.json,http://54.235.29.9/FacialAge/BNav_EC2/DepthDuration/v2_depth_duration_MTurk/v2_DepthDuration_HTML.html#236,236,1366,768,1366,768,8-29-2022,12-47-54,96,depth_duration_stimuli/001828_2014-06-26_21-40-03_260595134347_rgbf000024-resize_0/001828_2014-06-26_21-40-03_260595134347_rgbf000024-resize_0-target.png,1000,4.8260000000000005,8,5212,1001,feet,jsons/v1_VE1000_randls_30.json,1708547,1857296,27,Woman
96,712484,DepthScenes,duration_manipulation_targetAtFixation,jsons/v1_VE1000_randls_30.json,http://54.235.29.9/FacialAge/BNav_EC2/DepthDuration/v2_depth_duration_MTurk/v2_DepthDuration_HTML.html#236,236,1366,768,1366,768,8-29-2022,12-47-54,97,depth_duration_stimuli/002213_2014-06-28_18-37-58_260595134347_rgbf000055-resize_1/002213_2014-06-28_18-37-58_260595134347_rgbf000055-resize_1-target.png,1000,3.62,8,6891,999,feet,jsons/v1_VE1000_randls_30.json,1708547,1857296,27,Woman
97,712484,DepthScenes,duration_manipulation_targetAtFixation,jsons/v1_VE1000_randls_30.json,http://54.235.29.9/FacialAge/BNav_EC2/DepthDuration/v2_depth_duration_MTurk/v2_DepthDuration_HTML.html#236,236,1366,768,1366,768,8-29-2022,12-47-54,98,depth_duration_stimuli/000691_2014-06-08_13-08-50_260595134347_rgbf000132-resize_3/000691_2014-06-08_13-08-50_260595134347_rgbf000132-resize_3-target.png,1000,4.1530000000000005,7,4643,994,feet,jsons/v1_VE1000_randls_30.json,1708547,1857296,27,Woman
98,712484,DepthScenes,duration_manipulation_targetAtFixation,jsons/v1_VE1000_randls_30.json,http://54.235.29.9/FacialAge/BNav_EC2/DepthDuration/v2_depth_duration_MTurk/v2_DepthDuration_HTML.html#236,236,1366,768,1366,768,8-29-2022,12-47-54,99,depth_duration_stimuli/001540_2014-06-20_17-01-05_260595134347_rgbf000086-resize_2/001540_2014-06-20_17-01-05_260595134347_rgbf000086-resize-original.jpg,1000,1.459,0,7781,1003,feet,jsons/v1_VE1000_randls_30.json,1708547,1857296,27,Woman
99,712484,DepthScenes,duration_manipulation_targetAtFixation,jsons/v1_VE1000_randls_30.json,http://54.235.29.9/FacialAge/BNav_EC2/DepthDuration/v2_depth_duration_MTurk/v2_DepthDuration_HTML.html#236,236,1366,768,1366,768,8-29-2022,12-47-54,100,depth_duration_stimuli/001167_2014-06-17_15-38-07_260595134347_rgbf000108-resize_0/001167_2014-06-17_15-38-07_260595134347_rgbf000108-resize_0-target.png,1000,1.8505,2,8260,1000,feet,jsons/v1_VE1000_randls_30.json,1708547,1857296,27,Woman
100,712484,DepthScenes,duration_manipulation_targetAtFixation,jsons/v1_VE1000_randls_30.json,http://54.235.29.9/FacialAge/BNav_EC2/DepthDuration/v2_depth_duration_MTurk/v2_DepthDuration_HTML.html#236,236,1366,768,1366,768,8-29-2022,12-47-54,101,depth_duration_stimuli/003587_2014-05-23_16-48-02_094959634447_rgbf002384-resize_2/003587_2014-05-23_16-48-02_094959634447_rgbf002384-resize_2-target.png,1000,1.357,2,4993,1001,feet,jsons/v1_VE1000_randls_30.json,1708547,1857296,27,Woman
101,712484,DepthScenes,duration_manipulation_targetAtFixation,jsons/v1_VE1000_randls_30.json,http://54.235.29.9/FacialAge/BNav_EC2/DepthDuration/v2_depth_duration_MTurk/v2_DepthDuration_HTML.html#236,236,1366,768,1366,768,8-29-2022,12-47-54,102,depth_duration_stimuli/002549_2014-06-24_13-41-39_094959634447_rgbf000022-resize_3/002549_2014-06-24_13-41-39_094959634447_rgbf000022-resize_3-target.png,1000,1.476,2,7179,1000,feet,jsons/v1_VE1000_randls_30.json,1708547,1857296,27,Woman
102,712484,DepthScenes,duration_manipulation_targetAtFixation,jsons/v1_VE1000_randls_30.json,http://54.235.29.9/FacialAge/BNav_EC2/DepthDuration/v2_depth_duration_MTurk/v2_DepthDuration_HTML.html#236,236,1366,768,1366,768,8-29-2022,12-47-54,103,depth_duration_stimuli/002750_2014-06-22_19-08-03_094959634447_rgbf000094-resize_4/002750_2014-06-22_19-08-03_094959634447_rgbf000094-resize_4-target.png,1000,2.354,3,25419,1000,feet,jsons/v1_VE1000_randls_30.json,1708547,1857296,27,Woman
103,712484,DepthScenes,duration_manipulation_targetAtFixation,jsons/v1_VE1000_randls_30.json,http://54.235.29.9/FacialAge/BNav_EC2/DepthDuration/v2_depth_duration_MTurk/v2_DepthDuration_HTML.html#236,236,1366,768,1366,768,8-29-2022,12-47-54,104,depth_duration_stimuli/000810_2014-06-08_17-20-01_260595134347_rgbf000105-resize_0/000810_2014-06-08_17-20-01_260595134347_rgbf000105-resize_0-target.png,1000,1.4865,3,4868,999,feet,jsons/v1_VE1000_randls_30.json,1708547,1857296,27,Woman
104,712484,DepthScenes,duration_manipulation_targetAtFixation,jsons/v1_VE1000_randls_30.json,http://54.235.29.9/FacialAge/BNav_EC2/DepthDuration/v2_depth_duration_MTurk/v2_DepthDuration_HTML.html#236,236,1366,768,1366,768,8-29-2022,12-47-54,105,depth_duration_stimuli/001214_2014-06-17_16-13-55_260595134347_rgbf000111-resize_0/001214_2014-06-17_16-13-55_260595134347_rgbf000111-resize_0-target.png,1000,2.6505,3,3193,999,feet,jsons/v1_VE1000_randls_30.json,1708547,1857296,27,Woman
105,712484,DepthScenes,duration_manipulation_targetAtFixation,jsons/v1_VE1000_randls_30.json,http://54.235.29.9/FacialAge/BNav_EC2/DepthDuration/v2_depth_duration_MTurk/v2_DepthDuration_HTML.html#236,236,1366,768,1366,768,8-29-2022,12-47-54,106,depth_duration_stimuli/001449_2014-06-19_17-01-27_260595134347_rgbf000116-resize_2/001449_2014-06-19_17-01-27_260595134347_rgbf000116-resize_2-target.png,1000,3.452,4,6288,994,feet,jsons/v1_VE1000_randls_30.json,1708547,1857296,27,Woman
106,712484,DepthScenes,duration_manipulation_targetAtFixation,jsons/v1_VE1000_randls_30.json,http://54.235.29.9/FacialAge/BNav_EC2/DepthDuration/v2_depth_duration_MTurk/v2_DepthDuration_HTML.html#236,236,1366,768,1366,768,8-29-2022,12-47-54,107,depth_duration_stimuli/001450_2014-06-19_17-02-03_260595134347_rgbf000203-resize_4/001450_2014-06-19_17-02-03_260595134347_rgbf000203-resize_4-target.png,1000,4.0106666666667,5,4827,1000,feet,jsons/v1_VE1000_randls_30.json,1708547,1857296,27,Woman
107,712484,DepthScenes,duration_manipulation_targetAtFixation,jsons/v1_VE1000_randls_30.json,http://54.235.29.9/FacialAge/BNav_EC2/DepthDuration/v2_depth_duration_MTurk/v2_DepthDuration_HTML.html#236,236,1366,768,1366,768,8-29-2022,12-47-54,108,depth_duration_stimuli/002989_2014-06-15_12-25-03_094959634447_rgbf000150-resize_3/002989_2014-06-15_12-25-03_094959634447_rgbf000150-resize_3-target.png,1000,4.1975,7,6303,999,feet,jsons/v1_VE1000_randls_30.json,1708547,1857296,27,Woman
108,712484,DepthScenes,duration_manipulation_targetAtFixation,jsons/v1_VE1000_randls_30.json,http://54.235.29.9/FacialAge/BNav_EC2/DepthDuration/v2_depth_duration_MTurk/v2_DepthDuration_HTML.html#236,236,1366,768,1366,768,8-29-2022,12-47-54,109,depth_duration_stimuli/000866_2014-06-09_20-45-42_260595134347_rgbf000139-resize_1/000866_2014-06-09_20-45-42_260595134347_rgbf000139-resize_1-target.png,1000,3.2155,6,4417,998,feet,jsons/v1_VE1000_randls_30.json,1708547,1857296,27,Woman
109,712484,DepthScenes,duration_manipulation_targetAtFixation,jsons/v1_VE1000_randls_30.json,http://54.235.29.9/FacialAge/BNav_EC2/DepthDuration/v2_depth_duration_MTurk/v2_DepthDuration_HTML.html#236,236,1366,768,1366,768,8-29-2022,12-47-54,110,depth_duration_stimuli/001417_2014-06-19_16-25-36_260595134347_rgbf000115-resize_5/001417_2014-06-19_16-25-36_260595134347_rgbf000115-resize_5-target.png,1000,4.6255,8,7338,999,feet,jsons/v1_VE1000_randls_30.json,1708547,1857296,27,Woman
110,712484,DepthScenes,duration_manipulation_targetAtFixation,jsons/v1_VE1000_randls_30.json,http://54.235.29.9/FacialAge/BNav_EC2/DepthDuration/v2_depth_duration_MTurk/v2_DepthDuration_HTML.html#236,236,1366,768,1366,768,8-29-2022,12-47-54,111,depth_duration_stimuli/003081_2014-06-15_15-19-16_094959634447_rgbf000150-resize_1/003081_2014-06-15_15-19-16_094959634447_rgbf000150-resize_1-target.png,1000,3.9125,7,4964,1000,feet,jsons/v1_VE1000_randls_30.json,1708547,1857296,27,Woman
111,712484,DepthScenes,duration_manipulation_targetAtFixation,jsons/v1_VE1000_randls_30.json,http://54.235.29.9/FacialAge/BNav_EC2/DepthDuration/v2_depth_duration_MTurk/v2_DepthDuration_HTML.html#236,236,1366,768,1366,768,8-29-2022,12-47-54,112,depth_duration_stimuli/001066_2014-06-08_22-03-20_260595134347_rgbf000066-resize_4/001066_2014-06-08_22-03-20_260595134347_rgbf000066-resize_4-target.png,1000,4.2330000000000005,7,6220,1000,feet,jsons/v1_VE1000_randls_30.json,1708547,1857296,27,Woman
112,712484,DepthScenes,duration_manipulation_targetAtFixation,jsons/v1_VE1000_randls_30.json,http://54.235.29.9/FacialAge/BNav_EC2/DepthDuration/v2_depth_duration_MTurk/v2_DepthDuration_HTML.html#236,236,1366,768,1366,768,8-29-2022,12-47-54,113,depth_duration_stimuli/000742_2014-06-08_18-48-09_260595134347_rgbf000164-resize_4/000742_2014-06-08_18-48-09_260595134347_rgbf000164-resize_4-target.png,1000,4.632,7,4417,1000,feet,jsons/v1_VE1000_randls_30.json,1708547,1857296,27,Woman
113,712484,DepthScenes,duration_manipulation_targetAtFixation,jsons/v1_VE1000_randls_30.json,http://54.235.29.9/FacialAge/BNav_EC2/DepthDuration/v2_depth_duration_MTurk/v2_DepthDuration_HTML.html#236,236,1366,768,1366,768,8-29-2022,12-47-54,114,depth_duration_stimuli/001570_2014-06-20_17-21-09_260595134347_rgbf000135-resize_4/001570_2014-06-20_17-21-09_260595134347_rgbf000135-resize_4-target.png,1000,4.467,8,7330,1000,feet,jsons/v1_VE1000_randls_30.json,1708547,1857296,27,Woman
114,712484,DepthScenes,duration_manipulation_targetAtFixation,jsons/v1_VE1000_randls_30.json,http://54.235.29.9/FacialAge/BNav_EC2/DepthDuration/v2_depth_duration_MTurk/v2_DepthDuration_HTML.html#236,236,1366,768,1366,768,8-29-2022,12-47-54,115,depth_duration_stimuli/001392_2014-06-19_16-07-59_260595134347_rgbf000046-resize_1/001392_2014-06-19_16-07-59_260595134347_rgbf000046-resize_1-target.png,1000,4.135,7,4746,1000,feet,jsons/v1_VE1000_randls_30.json,1708547,1857296,27,Woman
115,712484,DepthScenes,duration_manipulation_targetAtFixation,jsons/v1_VE1000_randls_30.json,http://54.235.29.9/FacialAge/BNav_EC2/DepthDuration/v2_depth_duration_MTurk/v2_DepthDuration_HTML.html#236,236,1366,768,1366,768,8-29-2022,12-47-54,116,depth_duration_stimuli/001170_2014-06-17_15-43-44_260595134347_rgbf000096-resize_6/001170_2014-06-17_15-43-44_260595134347_rgbf000096-resize-original.jpg,1000,1.1909999999999998,0,7588,1001,feet,jsons/v1_VE1000_randls_30.json,1708547,1857296,27,Woman
116,712484,DepthScenes,duration_manipulation_targetAtFixation,jsons/v1_VE1000_randls_30.json,http://54.235.29.9/FacialAge/BNav_EC2/DepthDuration/v2_depth_duration_MTurk/v2_DepthDuration_HTML.html#236,236,1366,768,1366,768,8-29-2022,12-47-54,117,depth_duration_stimuli/002748_2014-06-22_19-07-22_094959634447_rgbf000078-resize_1/002748_2014-06-22_19-07-22_094959634447_rgbf000078-resize_1-target.png,1000,4.6705,9,6303,1001,feet,jsons/v1_VE1000_randls_30.json,1708547,1857296,27,Woman
117,712484,DepthScenes,duration_manipulation_targetAtFixation,jsons/v1_VE1000_randls_30.json,http://54.235.29.9/FacialAge/BNav_EC2/DepthDuration/v2_depth_duration_MTurk/v2_DepthDuration_HTML.html#236,236,1366,768,1366,768,8-29-2022,12-47-54,118,depth_duration_stimuli/002995_2014-06-15_12-31-26_094959634447_rgbf000150-resize_1/002995_2014-06-15_12-31-26_094959634447_rgbf000150-resize_1-target.png,1000,3.8360000000000003,8,5975,1000,feet,jsons/v1_VE1000_randls_30.json,1708547,1857296,27,Woman
118,712484,DepthScenes,duration_manipulation_targetAtFixation,jsons/v1_VE1000_randls_30.json,http://54.235.29.9/FacialAge/BNav_EC2/DepthDuration/v2_depth_duration_MTurk/v2_DepthDuration_HTML.html#236,236,1366,768,1366,768,8-29-2022,12-47-54,119,depth_duration_stimuli/000469_2014-06-09_19-42-10_260595134347_rgbf000081-resize_1/000469_2014-06-09_19-42-10_260595134347_rgbf000081-resize_1-target.png,1000,1.652,2,6899,999,feet,jsons/v1_VE1000_randls_30.json,1708547,1857296,27,Woman
119,712484,DepthScenes,duration_manipulation_targetAtFixation,jsons/v1_VE1000_randls_30.json,http://54.235.29.9/FacialAge/BNav_EC2/DepthDuration/v2_depth_duration_MTurk/v2_DepthDuration_HTML.html#236,236,1366,768,1366,768,8-29-2022,12-47-54,120,depth_duration_stimuli/000483_2014-06-09_20-41-45_260595134347_rgbf000116-resize_4/000483_2014-06-09_20-41-45_260595134347_rgbf000116-resize_4-target.png,1000,1.337,2,4947,1000,feet,jsons/v1_VE1000_randls_30.json,1708547,1857296,27,Woman
120,712484,DepthScenes,duration_manipulation_targetAtFixation,jsons/v1_VE1000_randls_30.json,http://54.235.29.9/FacialAge/BNav_EC2/DepthDuration/v2_depth_duration_MTurk/v2_DepthDuration_HTML.html#236,236,1366,768,1366,768,8-29-2022,12-47-54,121,depth_duration_stimuli/000447_2014-06-08_16-15-46_260595134347_rgbf000130-resize_1/000447_2014-06-08_16-15-46_260595134347_rgbf000130-resize_1-target.png,1000,4.479,7,6793,1000,feet,jsons/v1_VE1000_randls_30.json,1708547,1857296,27,Woman
121,712484,DepthScenes,duration_manipulation_targetAtFixation,jsons/v1_VE1000_randls_30.json,http://54.235.29.9/FacialAge/BNav_EC2/DepthDuration/v2_depth_duration_MTurk/v2_DepthDuration_HTML.html#236,236,1366,768,1366,768,8-29-2022,12-47-54,122,depth_duration_stimuli/001447_2014-06-19_17-00-32_260595134347_rgbf000082-resize_5/001447_2014-06-19_17-00-32_260595134347_rgbf000082-resize_5-target.png,1000,4.13775,4,4478,988,feet,jsons/v1_VE1000_randls_30.json,1708547,1857296,27,Woman
122,712484,DepthScenes,duration_manipulation_targetAtFixation,jsons/v1_VE1000_randls_30.json,http://54.235.29.9/FacialAge/BNav_EC2/DepthDuration/v2_depth_duration_MTurk/v2_DepthDuration_HTML.html#236,236,1366,768,1366,768,8-29-2022,12-47-54,123,depth_duration_stimuli/001808_2014-06-26_20-50-58_260595134347_rgbf000029-resize_1/001808_2014-06-26_20-50-58_260595134347_rgbf000029-resize_1-target.png,1000,4.249,7,7717,993,feet,jsons/v1_VE1000_randls_30.json,1708547,1857296,27,Woman
123,712484,DepthScenes,duration_manipulation_targetAtFixation,jsons/v1_VE1000_randls_30.json,http://54.235.29.9/FacialAge/BNav_EC2/DepthDuration/v2_depth_duration_MTurk/v2_DepthDuration_HTML.html#236,236,1366,768,1366,768,8-29-2022,12-47-54,124,depth_duration_stimuli/001815_2014-06-26_20-52-55_260595134347_rgbf000020-resize_0/001815_2014-06-26_20-52-55_260595134347_rgbf000020-resize_0-target.png,1000,3.3865,8,4692,1001,feet,jsons/v1_VE1000_randls_30.json,1708547,1857296,27,Woman
124,712484,DepthScenes,duration_manipulation_targetAtFixation,jsons/v1_VE1000_randls_30.json,http://54.235.29.9/FacialAge/BNav_EC2/DepthDuration/v2_depth_duration_MTurk/v2_DepthDuration_HTML.html#236,236,1366,768,1366,768,8-29-2022,12-47-54,125,depth_duration_stimuli/003492_2014-05-21_15-50-55_094959634447_rgbf000828-resize_1/003492_2014-05-21_15-50-55_094959634447_rgbf000828-resize_1-target.png,1000,4.06875,10,8099,999,feet,jsons/v1_VE1000_randls_30.json,1708547,1857296,27,Woman
125,712484,DepthScenes,duration_manipulation_targetAtFixation,jsons/v1_VE1000_randls_30.json,http://54.235.29.9/FacialAge/BNav_EC2/DepthDuration/v2_depth_duration_MTurk/v2_DepthDuration_HTML.html#236,236,1366,768,1366,768,8-29-2022,12-47-54,126,depth_duration_stimuli/002568_2014-06-24_13-59-21_094959634447_rgbf000062-resize_4/002568_2014-06-24_13-59-21_094959634447_rgbf000062-resize_4-target.png,1000,3.015,9,4922,999,feet,jsons/v1_VE1000_randls_30.json,1708547,1857296,27,Woman
126,712484,DepthScenes,duration_manipulation_targetAtFixation,jsons/v1_VE1000_randls_30.json,http://54.235.29.9/FacialAge/BNav_EC2/DepthDuration/v2_depth_duration_MTurk/v2_DepthDuration_HTML.html#236,236,1366,768,1366,768,8-29-2022,12-47-54,127,depth_duration_stimuli/002905_2014-06-03_18-04-43_094959634447_rgbf000151-resize_2/002905_2014-06-03_18-04-43_094959634447_rgbf000151-resize_2-target.png,1000,2.0295,5,6436,999,feet,jsons/v1_VE1000_randls_30.json,1708547,1857296,27,Woman
127,712484,DepthScenes,duration_manipulation_targetAtFixation,jsons/v1_VE1000_randls_30.json,http://54.235.29.9/FacialAge/BNav_EC2/DepthDuration/v2_depth_duration_MTurk/v2_DepthDuration_HTML.html#236,236,1366,768,1366,768,8-29-2022,12-47-54,128,depth_duration_stimuli/003423_2014-05-21_10-23-26_094959634447_rgbf002665-resize_2/003423_2014-05-21_10-23-26_094959634447_rgbf002665-resize_2-target.png,1000,3.2575,8,4665,1000,feet,jsons/v1_VE1000_randls_30.json,1708547,1857296,27,Woman
128,712484,DepthScenes,duration_manipulation_targetAtFixation,jsons/v1_VE1000_randls_30.json,http://54.235.29.9/FacialAge/BNav_EC2/DepthDuration/v2_depth_duration_MTurk/v2_DepthDuration_HTML.html#236,236,1366,768,1366,768,8-29-2022,12-47-54,129,depth_duration_stimuli/003534_2014-05-22_15-06-10_094959634447_rgbf000102-resize_4/003534_2014-05-22_15-06-10_094959634447_rgbf000102-resize_4-target.png,1000,1.426,3,6227,1005,feet,jsons/v1_VE1000_randls_30.json,1708547,1857296,27,Woman
129,712484,DepthScenes,duration_manipulation_targetAtFixation,jsons/v1_VE1000_randls_30.json,http://54.235.29.9/FacialAge/BNav_EC2/DepthDuration/v2_depth_duration_MTurk/v2_DepthDuration_HTML.html#236,236,1366,768,1366,768,8-29-2022,12-47-54,130,depth_duration_stimuli/002637_2014-06-24_14-51-13_094959634447_rgbf000066-resize_4/002637_2014-06-24_14-51-13_094959634447_rgbf000066-resize_4-target.png,1000,1.9955,5,4506,999,feet,jsons/v1_VE1000_randls_30.json,1708547,1857296,27,Woman
130,712484,DepthScenes,duration_manipulation_targetAtFixation,jsons/v1_VE1000_randls_30.json,http://54.235.29.9/FacialAge/BNav_EC2/DepthDuration/v2_depth_duration_MTurk/v2_DepthDuration_HTML.html#236,236,1366,768,1366,768,8-29-2022,12-47-54,131,depth_duration_stimuli/002043_2014-06-24_20-29-38_260595134347_rgbf000039-resize_4/002043_2014-06-24_20-29-38_260595134347_rgbf000039-resize_4-target.png,1000,2.8435,8,6931,999,feet,jsons/v1_VE1000_randls_30.json,1708547,1857296,27,Woman
131,712484,DepthScenes,duration_manipulation_targetAtFixation,jsons/v1_VE1000_randls_30.json,http://54.235.29.9/FacialAge/BNav_EC2/DepthDuration/v2_depth_duration_MTurk/v2_DepthDuration_HTML.html#236,236,1366,768,1366,768,8-29-2022,12-47-54,132,depth_duration_stimuli/003048_2014-06-15_13-49-43_094959634447_rgbf000150-resize_1/003048_2014-06-15_13-49-43_094959634447_rgbf000150-resize_1-target.png,1000,4.0035,12,7147,1000,feet,jsons/v1_VE1000_randls_30.json,1708547,1857296,27,Woman
132,712484,DepthScenes,duration_manipulation_targetAtFixation,jsons/v1_VE1000_randls_30.json,http://54.235.29.9/FacialAge/BNav_EC2/DepthDuration/v2_depth_duration_MTurk/v2_DepthDuration_HTML.html#236,236,1366,768,1366,768,8-29-2022,12-47-54,133,depth_duration_stimuli/000929_2014-06-09_16-33-19_260595134347_rgbf000139-resize_0/000929_2014-06-09_16-33-19_260595134347_rgbf000139-resize_0-target.png,1000,2.8680000000000003,6,65869,999,feet,jsons/v1_VE1000_randls_30.json,1708547,1857296,27,Woman
133,712484,DepthScenes,duration_manipulation_targetAtFixation,jsons/v1_VE1000_randls_30.json,http://54.235.29.9/FacialAge/BNav_EC2/DepthDuration/v2_depth_duration_MTurk/v2_DepthDuration_HTML.html#236,236,1366,768,1366,768,8-29-2022,12-47-54,134,depth_duration_stimuli/000457_2014-06-08_16-52-43_260595134347_rgbf000199-resize_1/000457_2014-06-08_16-52-43_260595134347_rgbf000199-resize_1-target.png,1000,3.6489999999999996,6,9947,999,feet,jsons/v1_VE1000_randls_30.json,1708547,1857296,27,Woman
134,712484,DepthScenes,duration_manipulation_targetAtFixation,jsons/v1_VE1000_randls_30.json,http://54.235.29.9/FacialAge/BNav_EC2/DepthDuration/v2_depth_duration_MTurk/v2_DepthDuration_HTML.html#236,236,1366,768,1366,768,8-29-2022,12-47-54,135,depth_duration_stimuli/002072_2014-06-24_21-48-06_260595134347_rgbf000115-resize_0/002072_2014-06-24_21-48-06_260595134347_rgbf000115-resize-original.jpg,1000,4.702,0,6848,1003,feet,jsons/v1_VE1000_randls_30.json,1708547,1857296,27,Woman
135,712484,DepthScenes,duration_manipulation_targetAtFixation,jsons/v1_VE1000_randls_30.json,http://54.235.29.9/FacialAge/BNav_EC2/DepthDuration/v2_depth_duration_MTurk/v2_DepthDuration_HTML.html#236,236,1366,768,1366,768,8-29-2022,12-47-54,136,depth_duration_stimuli/001092_2014-06-15_17-34-58_260595134347_rgbf000171-resize_3/001092_2014-06-15_17-34-58_260595134347_rgbf000171-resize_3-target.png,1000,2.6935,5,6612,998,feet,jsons/v1_VE1000_randls_30.json,1708547,1857296,27,Woman
136,712484,DepthScenes,duration_manipulation_targetAtFixation,jsons/v1_VE1000_randls_30.json,http://54.235.29.9/FacialAge/BNav_EC2/DepthDuration/v2_depth_duration_MTurk/v2_DepthDuration_HTML.html#236,236,1366,768,1366,768,8-29-2022,12-47-54,137,depth_duration_stimuli/002545_2014-06-24_13-38-53_094959634447_rgbf000080-resize_4/002545_2014-06-24_13-38-53_094959634447_rgbf000080-resize_4-target.png,1000,1.9205,5,3657,1001,feet,jsons/v1_VE1000_randls_30.json,1708547,1857296,27,Woman
137,712484,DepthScenes,duration_manipulation_targetAtFixation,jsons/v1_VE1000_randls_30.json,http://54.235.29.9/FacialAge/BNav_EC2/DepthDuration/v2_depth_duration_MTurk/v2_DepthDuration_HTML.html#236,236,1366,768,1366,768,8-29-2022,12-47-54,138,depth_duration_stimuli/002600_2014-06-24_14-27-04_094959634447_rgbf000074-resize_2/002600_2014-06-24_14-27-04_094959634447_rgbf000074-resize_2-target.png,1000,2.7575,6,6163,1000,feet,jsons/v1_VE1000_randls_30.json,1708547,1857296,27,Woman
138,712484,DepthScenes,duration_manipulation_targetAtFixation,jsons/v1_VE1000_randls_30.json,http://54.235.29.9/FacialAge/BNav_EC2/DepthDuration/v2_depth_duration_MTurk/v2_DepthDuration_HTML.html#236,236,1366,768,1366,768,8-29-2022,12-47-54,139,depth_duration_stimuli/003228_2014-05-14_13-42-35_094959634447_rgbf000101-resize_1/003228_2014-05-14_13-42-35_094959634447_rgbf000101-resize_1-target.png,1000,1.9680000000000002,4,5594,1000,feet,jsons/v1_VE1000_randls_30.json,1708547,1857296,27,Woman
139,712484,DepthScenes,duration_manipulation_targetAtFixation,jsons/v1_VE1000_randls_30.json,http://54.235.29.9/FacialAge/BNav_EC2/DepthDuration/v2_depth_duration_MTurk/v2_DepthDuration_HTML.html#236,236,1366,768,1366,768,8-29-2022,12-47-54,140,depth_duration_stimuli/001244_2014-06-17_16-47-45_260595134347_rgbf000030-resize_4/001244_2014-06-17_16-47-45_260595134347_rgbf000030-resize_4-target.png,1000,2.0425,5,6893,988,feet,jsons/v1_VE1000_randls_30.json,1708547,1857296,27,Woman
140,712484,DepthScenes,duration_manipulation_targetAtFixation,jsons/v1_VE1000_randls_30.json,http://54.235.29.9/FacialAge/BNav_EC2/DepthDuration/v2_depth_duration_MTurk/v2_DepthDuration_HTML.html#236,236,1366,768,1366,768,8-29-2022,12-47-54,141,depth_duration_stimuli/003495_2014-05-21_16-01-51_094959634447_rgbf000100-resize_3/003495_2014-05-21_16-01-51_094959634447_rgbf000100-resize_3-target.png,1000,1.6255,3,3979,999,feet,jsons/v1_VE1000_randls_30.json,1708547,1857296,27,Woman
141,712484,DepthScenes,duration_manipulation_targetAtFixation,jsons/v1_VE1000_randls_30.json,http://54.235.29.9/FacialAge/BNav_EC2/DepthDuration/v2_depth_duration_MTurk/v2_DepthDuration_HTML.html#236,236,1366,768,1366,768,8-29-2022,12-47-54,142,depth_duration_stimuli/002663_2014-06-13_15-50-26_094959634447_rgbf000075-resize_1/002663_2014-06-13_15-50-26_094959634447_rgbf000075-resize_1-target.png,1000,4.7495,12,6664,962,feet,jsons/v1_VE1000_randls_30.json,1708547,1857296,27,Woman
142,712484,DepthScenes,duration_manipulation_targetAtFixation,jsons/v1_VE1000_randls_30.json,http://54.235.29.9/FacialAge/BNav_EC2/DepthDuration/v2_depth_duration_MTurk/v2_DepthDuration_HTML.html#236,236,1366,768,1366,768,8-29-2022,12-47-54,143,depth_duration_stimuli/000409_2014-06-04_19-23-33_260595134347_rgbf000067-resize_0/000409_2014-06-04_19-23-33_260595134347_rgbf000067-resize_0-target.png,1000,3.7335,7,4493,1001,feet,jsons/v1_VE1000_randls_30.json,1708547,1857296,27,Woman
143,712484,DepthScenes,duration_manipulation_targetAtFixation,jsons/v1_VE1000_randls_30.json,http://54.235.29.9/FacialAge/BNav_EC2/DepthDuration/v2_depth_duration_MTurk/v2_DepthDuration_HTML.html#236,236,1366,768,1366,768,8-29-2022,12-47-54,144,depth_duration_stimuli/000917_2014-06-09_22-45-29_260595134347_rgbf000149-resize_3/000917_2014-06-09_22-45-29_260595134347_rgbf000149-resize_3-target.png,1000,4.1865,8,239081,1000,feet,jsons/v1_VE1000_randls_30.json,1708547,1857296,27,Woman
144,712484,DepthScenes,duration_manipulation_targetAtFixation,jsons/v1_VE1000_randls_30.json,http://54.235.29.9/FacialAge/BNav_EC2/DepthDuration/v2_depth_duration_MTurk/v2_DepthDuration_HTML.html#236,236,1366,768,1366,768,8-29-2022,12-47-54,145,depth_duration_stimuli/002323_2014-06-28_20-01-54_260595134347_rgbf000051-resize_4/002323_2014-06-28_20-01-54_260595134347_rgbf000051-resize_4-target.png,1000,3.7310000000000003,7,4321,1007,feet,jsons/v1_VE1000_randls_30.json,1708547,1857296,27,Woman
145,712484,DepthScenes,duration_manipulation_targetAtFixation,jsons/v1_VE1000_randls_30.json,http://54.235.29.9/FacialAge/BNav_EC2/DepthDuration/v2_depth_duration_MTurk/v2_DepthDuration_HTML.html#236,236,1366,768,1366,768,8-29-2022,12-47-54,146,depth_duration_stimuli/001498_2014-06-19_17-45-14_260595134347_rgbf000129-resize_4/001498_2014-06-19_17-45-14_260595134347_rgbf000129-resize-original.jpg,1000,1.4075,0,7587,1000,feet,jsons/v1_VE1000_randls_30.json,1708547,1857296,27,Woman
146,712484,DepthScenes,duration_manipulation_targetAtFixation,jsons/v1_VE1000_randls_30.json,http://54.235.29.9/FacialAge/BNav_EC2/DepthDuration/v2_depth_duration_MTurk/v2_DepthDuration_HTML.html#236,236,1366,768,1366,768,8-29-2022,12-47-54,147,depth_duration_stimuli/000773_2014-06-08_22-24-54_260595134347_rgbf000093-resize_1/000773_2014-06-08_22-24-54_260595134347_rgbf000093-resize_1-target.png,1000,4.973,8,6458,1000,feet,jsons/v1_VE1000_randls_30.json,1708547,1857296,27,Woman
147,712484,DepthScenes,duration_manipulation_targetAtFixation,jsons/v1_VE1000_randls_30.json,http://54.235.29.9/FacialAge/BNav_EC2/DepthDuration/v2_depth_duration_MTurk/v2_DepthDuration_HTML.html#236,236,1366,625,1366,768,8-29-2022,12-47-54,148,depth_duration_stimuli/002414_2014-06-28_20-24-58_260595134347_rgbf000067-resize_4/002414_2014-06-28_20-24-58_260595134347_rgbf000067-resize_4-target.png,1000,4.363,5,16133,1003,feet,jsons/v1_VE1000_randls_30.json,1708547,1857296,27,Woman
148,712484,DepthScenes,duration_manipulation_targetAtFixation,jsons/v1_VE1000_randls_30.json,http://54.235.29.9/FacialAge/BNav_EC2/DepthDuration/v2_depth_duration_MTurk/v2_DepthDuration_HTML.html#236,236,1366,625,1366,768,8-29-2022,12-47-54,149,depth_duration_stimuli/001029_2014-06-08_13-17-57_260595134347_rgbf000065-resize_1/001029_2014-06-08_13-17-57_260595134347_rgbf000065-resize_1-target.png,1000,3.0835,5,5088,999,feet,jsons/v1_VE1000_randls_30.json,1708547,1857296,27,Woman
149,712484,DepthScenes,duration_manipulation_targetAtFixation,jsons/v1_VE1000_randls_30.json,http://54.235.29.9/FacialAge/BNav_EC2/DepthDuration/v2_depth_duration_MTurk/v2_DepthDuration_HTML.html#236,236,1366,625,1366,768,8-29-2022,12-47-54,150,depth_duration_stimuli/000677_2014-06-08_23-10-32_260595134347_rgbf000158-resize_6/000677_2014-06-08_23-10-32_260595134347_rgbf000158-resize_6-target.png,1000,3.556,5,4780,998,feet,jsons/v1_VE1000_randls_30.json,1708547,1857296,27,Woman
150,712484,DepthScenes,duration_manipulation_targetAtFixation,jsons/v1_VE1000_randls_30.json,http://54.235.29.9/FacialAge/BNav_EC2/DepthDuration/v2_depth_duration_MTurk/v2_DepthDuration_HTML.html#236,236,1366,625,1366,768,8-29-2022,12-47-54,151,depth_duration_stimuli/000906_2014-06-08_13-35-43_260595134347_rgbf000155-resize_1/000906_2014-06-08_13-35-43_260595134347_rgbf000155-resize_1-target.png,1000,2.8489999999999998,5,4114,990,feet,jsons/v1_VE1000_randls_30.json,1708547,1857296,27,Woman
151,712484,DepthScenes,duration_manipulation_targetAtFixation,jsons/v1_VE1000_randls_30.json,http://54.235.29.9/FacialAge/BNav_EC2/DepthDuration/v2_depth_duration_MTurk/v2_DepthDuration_HTML.html#236,236,1366,625,1366,768,8-29-2022,12-47-54,152,depth_duration_stimuli/002805_2014-06-22_19-54-03_094959634447_rgbf000079-resize_1/002805_2014-06-22_19-54-03_094959634447_rgbf000079-resize_1-target.png,1000,3.1439999999999997,5,3871,1000,feet,jsons/v1_VE1000_randls_30.json,1708547,1857296,27,Woman
152,712484,DepthScenes,duration_manipulation_targetAtFixation,jsons/v1_VE1000_randls_30.json,http://54.235.29.9/FacialAge/BNav_EC2/DepthDuration/v2_depth_duration_MTurk/v2_DepthDuration_HTML.html#236,236,1366,625,1366,768,8-29-2022,12-47-54,153,depth_duration_stimuli/000522_2014-06-08_13-35-06_260595134347_rgbf000244-resize_1/000522_2014-06-08_13-35-06_260595134347_rgbf000244-resize_1-target.png,1000,2.3715,4,4644,1001,feet,jsons/v1_VE1000_randls_30.json,1708547,1857296,27,Woman
153,712484,DepthScenes,duration_manipulation_targetAtFixation,jsons/v1_VE1000_randls_30.json,http://54.235.29.9/FacialAge/BNav_EC2/DepthDuration/v2_depth_duration_MTurk/v2_DepthDuration_HTML.html#236,236,1366,625,1366,768,8-29-2022,12-47-54,154,depth_duration_stimuli/002949_2014-06-26_15-57-42_094959634447_rgbf000079-resize_1/002949_2014-06-26_15-57-42_094959634447_rgbf000079-resize_1-target.png,1000,1.8915,6,3509,1001,feet,jsons/v1_VE1000_randls_30.json,1708547,1857296,27,Woman
154,712484,DepthScenes,duration_manipulation_targetAtFixation,jsons/v1_VE1000_randls_30.json,http://54.235.29.9/FacialAge/BNav_EC2/DepthDuration/v2_depth_duration_MTurk/v2_DepthDuration_HTML.html#236,236,1366,625,1366,768,8-29-2022,12-47-54,155,depth_duration_stimuli/001110_2014-06-15_17-25-28_260595134347_rgbf000150-resize_1/001110_2014-06-15_17-25-28_260595134347_rgbf000150-resize_1-target.png,1000,1.7115,4,3818,999,feet,jsons/v1_VE1000_randls_30.json,1708547,1857296,27,Woman
155,712484,DepthScenes,duration_manipulation_targetAtFixation,jsons/v1_VE1000_randls_30.json,http://54.235.29.9/FacialAge/BNav_EC2/DepthDuration/v2_depth_duration_MTurk/v2_DepthDuration_HTML.html#236,236,1366,625,1366,768,8-29-2022,12-47-54,156,depth_duration_stimuli/000927_2014-06-09_16-32-30_260595134347_rgbf000123-resize_3/000927_2014-06-09_16-32-30_260595134347_rgbf000123-resize_3-target.png,1000,2.6785,5,3466,998,feet,jsons/v1_VE1000_randls_30.json,1708547,1857296,27,Woman
156,712484,DepthScenes,duration_manipulation_targetAtFixation,jsons/v1_VE1000_randls_30.json,http://54.235.29.9/FacialAge/BNav_EC2/DepthDuration/v2_depth_duration_MTurk/v2_DepthDuration_HTML.html#236,236,1366,625,1366,768,8-29-2022,12-47-54,157,depth_duration_stimuli/000878_2014-06-08_22-52-45_260595134347_rgbf000045-resize_2/000878_2014-06-08_22-52-45_260595134347_rgbf000045-resize_2-target.png,1000,2.092,4,4593,1043,feet,jsons/v1_VE1000_randls_30.json,1708547,1857296,27,Woman
157,712484,DepthScenes,duration_manipulation_targetAtFixation,jsons/v1_VE1000_randls_30.json,http://54.235.29.9/FacialAge/BNav_EC2/DepthDuration/v2_depth_duration_MTurk/v2_DepthDuration_HTML.html#236,236,1366,625,1366,768,8-29-2022,12-47-54,158,depth_duration_stimuli/002953_2014-06-08_17-32-18_094959634447_rgbf000059-resize_5/002953_2014-06-08_17-32-18_094959634447_rgbf000059-resize_5-target.png,1000,1.551,4,3068,1021,feet,jsons/v1_VE1000_randls_30.json,1708547,1857296,27,Woman
158,712484,DepthScenes,duration_manipulation_targetAtFixation,jsons/v1_VE1000_randls_30.json,http://54.235.29.9/FacialAge/BNav_EC2/DepthDuration/v2_depth_duration_MTurk/v2_DepthDuration_HTML.html#236,236,1366,625,1366,768,8-29-2022,12-47-54,159,depth_duration_stimuli/001199_2014-06-17_16-03-48_260595134347_rgbf000077-resize_0/001199_2014-06-17_16-03-48_260595134347_rgbf000077-resize_0-target.png,1000,3.4375,6,4572,1000,feet,jsons/v1_VE1000_randls_30.json,1708547,1857296,27,Woman
159,712484,DepthScenes,duration_manipulation_targetAtFixation,jsons/v1_VE1000_randls_30.json,http://54.235.29.9/FacialAge/BNav_EC2/DepthDuration/v2_depth_duration_MTurk/v2_DepthDuration_HTML.html#236,236,1366,625,1366,768,8-29-2022,12-47-54,160,depth_duration_stimuli/000502_2014-06-08_23-02-32_260595134347_rgbf000063-resize_4/000502_2014-06-08_23-02-32_260595134347_rgbf000063-resize_4-target.png,1000,2.431,4,3235,1003,feet,jsons/v1_VE1000_randls_30.json,1708547,1857296,27,Woman
160,712484,DepthScenes,duration_manipulation_targetAtFixation,jsons/v1_VE1000_randls_30.json,http://54.235.29.9/FacialAge/BNav_EC2/DepthDuration/v2_depth_duration_MTurk/v2_DepthDuration_HTML.html#236,236,1366,625,1366,768,8-29-2022,12-47-54,161,depth_duration_stimuli/002788_2014-06-22_19-36-03_094959634447_rgbf000088-resize_2/002788_2014-06-22_19-36-03_094959634447_rgbf000088-resize_2-target.png,1000,1.6465,5,4300,1001,feet,jsons/v1_VE1000_randls_30.json,1708547,1857296,27,Woman
161,712484,DepthScenes,duration_manipulation_targetAtFixation,jsons/v1_VE1000_randls_30.json,http://54.235.29.9/FacialAge/BNav_EC2/DepthDuration/v2_depth_duration_MTurk/v2_DepthDuration_HTML.html#236,236,1366,625,1366,768,8-29-2022,12-47-54,162,depth_duration_stimuli/000749_2014-06-08_21-55-06_260595134347_rgbf000070-resize_2/000749_2014-06-08_21-55-06_260595134347_rgbf000070-resize_2-target.png,1000,2.331,5,3100,985,feet,jsons/v1_VE1000_randls_30.json,1708547,1857296,27,Woman
162,712484,DepthScenes,duration_manipulation_targetAtFixation,jsons/v1_VE1000_randls_30.json,http://54.235.29.9/FacialAge/BNav_EC2/DepthDuration/v2_depth_duration_MTurk/v2_DepthDuration_HTML.html#236,236,1366,625,1366,768,8-29-2022,12-47-54,163,depth_duration_stimuli/002375_2014-06-28_20-13-44_260595134347_rgbf000032-resize_1/002375_2014-06-28_20-13-44_260595134347_rgbf000032-resize_1-target.png,1000,4.0175,5,3675,1001,feet,jsons/v1_VE1000_randls_30.json,1708547,1857296,27,Woman
163,712484,DepthScenes,duration_manipulation_targetAtFixation,jsons/v1_VE1000_randls_30.json,http://54.235.29.9/FacialAge/BNav_EC2/DepthDuration/v2_depth_duration_MTurk/v2_DepthDuration_HTML.html#236,236,1366,625,1366,768,8-29-2022,12-47-54,164,depth_duration_stimuli/002657_2014-06-13_15-29-54_094959634447_rgbf000150-resize_1/002657_2014-06-13_15-29-54_094959634447_rgbf000150-resize_1-target.png,1000,4.919,6,2612,1001,feet,jsons/v1_VE1000_randls_30.json,1708547,1857296,27,Woman
