,subjID,experimentName,versionName,sequenceName,url,selected_row,windowWidth,windowHeight,screenWidth,screenHeight,startDate,startTime,trial,stimulus,duration,actual_depth,depth_estimate,trial_RT,log_sceneDuration,unitSelection,seq_filepath,experimentTime,totalTime,age,gender
0,712937,DepthScenes,duration_manipulation_targetAtFixation,jsons/VE125_randls_24_rotated.json,http://54.235.29.9/FacialAge/BNav_EC2/DepthDuration/v2_depth_duration_MTurk/v2_DepthDuration_HTML.html#70,70,1280,913,1280,1024,8-21-2022,7-26-37,1,depth_duration_stimuli/000457_2014-06-08_16-52-43_260595134347_rgbf000199-resize_1/000457_2014-06-08_16-52-43_260595134347_rgbf000199-resize_1-target.png,125,3.6489999999999996,0.0,3430,125,meters,jsons/VE125_randls_24_rotated.json,1011008,1274756,29,Woman
1,712937,DepthScenes,duration_manipulation_targetAtFixation,jsons/VE125_randls_24_rotated.json,http://54.235.29.9/FacialAge/BNav_EC2/DepthDuration/v2_depth_duration_MTurk/v2_DepthDuration_HTML.html#70,70,1280,913,1280,1024,8-21-2022,7-26-37,2,depth_duration_stimuli/000929_2014-06-09_16-33-19_260595134347_rgbf000139-resize_0/000929_2014-06-09_16-33-19_260595134347_rgbf000139-resize_0-target.png,125,2.8680000000000003,7.0,5316,111,meters,jsons/VE125_randls_24_rotated.json,1011008,1274756,29,Woman
2,712937,DepthScenes,duration_manipulation_targetAtFixation,jsons/VE125_randls_24_rotated.json,http://54.235.29.9/FacialAge/BNav_EC2/DepthDuration/v2_depth_duration_MTurk/v2_DepthDuration_HTML.html#70,70,1280,913,1280,1024,8-21-2022,7-26-37,3,depth_duration_stimuli/003587_2014-05-23_16-48-02_094959634447_rgbf002384-resize_2/003587_2014-05-23_16-48-02_094959634447_rgbf002384-resize_2-target.png,125,1.357,4.0,5323,127,meters,jsons/VE125_randls_24_rotated.json,1011008,1274756,29,Woman
3,712937,DepthScenes,duration_manipulation_targetAtFixation,jsons/VE125_randls_24_rotated.json,http://54.235.29.9/FacialAge/BNav_EC2/DepthDuration/v2_depth_duration_MTurk/v2_DepthDuration_HTML.html#70,70,1280,913,1280,1024,8-21-2022,7-26-37,4,depth_duration_stimuli/001167_2014-06-17_15-38-07_260595134347_rgbf000108-resize_0/001167_2014-06-17_15-38-07_260595134347_rgbf000108-resize_0-target.png,125,1.8505,3.0,3531,129,meters,jsons/VE125_randls_24_rotated.json,1011008,1274756,29,Woman
4,712937,DepthScenes,duration_manipulation_targetAtFixation,jsons/VE125_randls_24_rotated.json,http://54.235.29.9/FacialAge/BNav_EC2/DepthDuration/v2_depth_duration_MTurk/v2_DepthDuration_HTML.html#70,70,1280,913,1280,1024,8-21-2022,7-26-37,5,depth_duration_stimuli/000137_2014-05-20_17-04-49_260595134347_rgbf000120-resize_1/000137_2014-05-20_17-04-49_260595134347_rgbf000120-resize_1-target.png,125,3.786,8.0,4637,124,meters,jsons/VE125_randls_24_rotated.json,1011008,1274756,29,Woman
5,712937,DepthScenes,duration_manipulation_targetAtFixation,jsons/VE125_randls_24_rotated.json,http://54.235.29.9/FacialAge/BNav_EC2/DepthDuration/v2_depth_duration_MTurk/v2_DepthDuration_HTML.html#70,70,1280,913,1280,1024,8-21-2022,7-26-37,6,depth_duration_stimuli/000736_2014-06-08_18-24-15_260595134347_rgbf000206-resize_3/000736_2014-06-08_18-24-15_260595134347_rgbf000206-resize_3-target.png,125,3.515,7.0,3745,123,meters,jsons/VE125_randls_24_rotated.json,1011008,1274756,29,Woman
6,712937,DepthScenes,duration_manipulation_targetAtFixation,jsons/VE125_randls_24_rotated.json,http://54.235.29.9/FacialAge/BNav_EC2/DepthDuration/v2_depth_duration_MTurk/v2_DepthDuration_HTML.html#70,70,1280,913,1280,1024,8-21-2022,7-26-37,7,depth_duration_stimuli/000927_2014-06-09_16-32-30_260595134347_rgbf000123-resize_3/000927_2014-06-09_16-32-30_260595134347_rgbf000123-resize_3-target.png,125,2.6785,6.0,2925,213,meters,jsons/VE125_randls_24_rotated.json,1011008,1274756,29,Woman
7,712937,DepthScenes,duration_manipulation_targetAtFixation,jsons/VE125_randls_24_rotated.json,http://54.235.29.9/FacialAge/BNav_EC2/DepthDuration/v2_depth_duration_MTurk/v2_DepthDuration_HTML.html#70,70,1280,913,1280,1024,8-21-2022,7-26-37,8,depth_duration_stimuli/001110_2014-06-15_17-25-28_260595134347_rgbf000150-resize_1/001110_2014-06-15_17-25-28_260595134347_rgbf000150-resize_1-target.png,125,1.7115,4.0,3006,90,meters,jsons/VE125_randls_24_rotated.json,1011008,1274756,29,Woman
8,712937,DepthScenes,duration_manipulation_targetAtFixation,jsons/VE125_randls_24_rotated.json,http://54.235.29.9/FacialAge/BNav_EC2/DepthDuration/v2_depth_duration_MTurk/v2_DepthDuration_HTML.html#70,70,1280,913,1280,1024,8-21-2022,7-26-37,9,depth_duration_stimuli/002657_2014-06-13_15-29-54_094959634447_rgbf000150-resize_1/002657_2014-06-13_15-29-54_094959634447_rgbf000150-resize_1-target.png,125,4.919,9.0,15562,110,meters,jsons/VE125_randls_24_rotated.json,1011008,1274756,29,Woman
9,712937,DepthScenes,duration_manipulation_targetAtFixation,jsons/VE125_randls_24_rotated.json,http://54.235.29.9/FacialAge/BNav_EC2/DepthDuration/v2_depth_duration_MTurk/v2_DepthDuration_HTML.html#70,70,1280,913,1280,1024,8-21-2022,7-26-37,10,depth_duration_stimuli/002375_2014-06-28_20-13-44_260595134347_rgbf000032-resize_1/002375_2014-06-28_20-13-44_260595134347_rgbf000032-resize_1-target.png,125,4.0175,8.0,4078,131,meters,jsons/VE125_randls_24_rotated.json,1011008,1274756,29,Woman
10,712937,DepthScenes,duration_manipulation_targetAtFixation,jsons/VE125_randls_24_rotated.json,http://54.235.29.9/FacialAge/BNav_EC2/DepthDuration/v2_depth_duration_MTurk/v2_DepthDuration_HTML.html#70,70,1280,913,1280,1024,8-21-2022,7-26-37,11,depth_duration_stimuli/000409_2014-06-04_19-23-33_260595134347_rgbf000067-resize_0/000409_2014-06-04_19-23-33_260595134347_rgbf000067-resize_0-target.png,125,3.7335,5.0,3616,124,meters,jsons/VE125_randls_24_rotated.json,1011008,1274756,29,Woman
11,712937,DepthScenes,duration_manipulation_targetAtFixation,jsons/VE125_randls_24_rotated.json,http://54.235.29.9/FacialAge/BNav_EC2/DepthDuration/v2_depth_duration_MTurk/v2_DepthDuration_HTML.html#70,70,1280,913,1280,1024,8-21-2022,7-26-37,12,depth_duration_stimuli/002663_2014-06-13_15-50-26_094959634447_rgbf000075-resize_1/002663_2014-06-13_15-50-26_094959634447_rgbf000075-resize_1-target.png,125,4.7495,4.0,3700,140,meters,jsons/VE125_randls_24_rotated.json,1011008,1274756,29,Woman
12,712937,DepthScenes,duration_manipulation_targetAtFixation,jsons/VE125_randls_24_rotated.json,http://54.235.29.9/FacialAge/BNav_EC2/DepthDuration/v2_depth_duration_MTurk/v2_DepthDuration_HTML.html#70,70,1280,913,1280,1024,8-21-2022,7-26-37,13,depth_duration_stimuli/000780_2014-06-08_22-28-29_260595134347_rgbf000126-resize_1/000780_2014-06-08_22-28-29_260595134347_rgbf000126-resize_1-target.png,125,3.3825,7.0,5130,112,meters,jsons/VE125_randls_24_rotated.json,1011008,1274756,29,Woman
13,712937,DepthScenes,duration_manipulation_targetAtFixation,jsons/VE125_randls_24_rotated.json,http://54.235.29.9/FacialAge/BNav_EC2/DepthDuration/v2_depth_duration_MTurk/v2_DepthDuration_HTML.html#70,70,1280,913,1280,1024,8-21-2022,7-26-37,14,depth_duration_stimuli/002445_2014-06-28_20-32-16_260595134347_rgbf000029-resize_4/002445_2014-06-28_20-32-16_260595134347_rgbf000029-resize_4-target.png,125,2.5315,8.0,5889,129,meters,jsons/VE125_randls_24_rotated.json,1011008,1274756,29,Woman
14,712937,DepthScenes,duration_manipulation_targetAtFixation,jsons/VE125_randls_24_rotated.json,http://54.235.29.9/FacialAge/BNav_EC2/DepthDuration/v2_depth_duration_MTurk/v2_DepthDuration_HTML.html#70,70,1280,913,1280,1024,8-21-2022,7-26-37,15,depth_duration_stimuli/001100_2014-06-15_17-46-26_260595134347_rgbf000225-resize_2/001100_2014-06-15_17-46-26_260595134347_rgbf000225-resize_2-target.png,125,2.24,4.0,8673,128,meters,jsons/VE125_randls_24_rotated.json,1011008,1274756,29,Woman
15,712937,DepthScenes,duration_manipulation_targetAtFixation,jsons/VE125_randls_24_rotated.json,http://54.235.29.9/FacialAge/BNav_EC2/DepthDuration/v2_depth_duration_MTurk/v2_DepthDuration_HTML.html#70,70,1280,913,1280,1024,8-21-2022,7-26-37,16,depth_duration_stimuli/002784_2014-06-22_19-26-30_094959634447_rgbf000083-resize_3/002784_2014-06-22_19-26-30_094959634447_rgbf000083-resize_3-target.png,125,1.8046666666667,5.3,8484,131,meters,jsons/VE125_randls_24_rotated.json,1011008,1274756,29,Woman
16,712937,DepthScenes,duration_manipulation_targetAtFixation,jsons/VE125_randls_24_rotated.json,http://54.235.29.9/FacialAge/BNav_EC2/DepthDuration/v2_depth_duration_MTurk/v2_DepthDuration_HTML.html#70,70,1280,913,1280,1024,8-21-2022,7-26-37,17,depth_duration_stimuli/000556_2014-06-09_22-42-56_260595134347_rgbf000214-resize_1/000556_2014-06-09_22-42-56_260595134347_rgbf000214-resize_1-target.png,125,4.8415,7.0,4893,121,meters,jsons/VE125_randls_24_rotated.json,1011008,1274756,29,Woman
17,712937,DepthScenes,duration_manipulation_targetAtFixation,jsons/VE125_randls_24_rotated.json,http://54.235.29.9/FacialAge/BNav_EC2/DepthDuration/v2_depth_duration_MTurk/v2_DepthDuration_HTML.html#70,70,1280,913,1280,1024,8-21-2022,7-26-37,18,depth_duration_stimuli/001158_2014-06-17_15-32-16_260595134347_rgbf000138-resize_2/001158_2014-06-17_15-32-16_260595134347_rgbf000138-resize_2-target.png,125,4.5315,5.0,3313,128,meters,jsons/VE125_randls_24_rotated.json,1011008,1274756,29,Woman
18,712937,DepthScenes,duration_manipulation_targetAtFixation,jsons/VE125_randls_24_rotated.json,http://54.235.29.9/FacialAge/BNav_EC2/DepthDuration/v2_depth_duration_MTurk/v2_DepthDuration_HTML.html#70,70,1280,913,1280,1024,8-21-2022,7-26-37,19,depth_duration_stimuli/001498_2014-06-19_17-45-14_260595134347_rgbf000129-resize_4/001498_2014-06-19_17-45-14_260595134347_rgbf000129-resize-original.jpg,125,1.4075,0.0,4935,124,meters,jsons/VE125_randls_24_rotated.json,1011008,1274756,29,Woman
19,712937,DepthScenes,duration_manipulation_targetAtFixation,jsons/VE125_randls_24_rotated.json,http://54.235.29.9/FacialAge/BNav_EC2/DepthDuration/v2_depth_duration_MTurk/v2_DepthDuration_HTML.html#70,70,1280,913,1280,1024,8-21-2022,7-26-37,20,depth_duration_stimuli/000709_2014-06-08_13-51-55_260595134347_rgbf000068-resize_3/000709_2014-06-08_13-51-55_260595134347_rgbf000068-resize_3-target.png,125,1.8030000000000002,8.0,8104,116,meters,jsons/VE125_randls_24_rotated.json,1011008,1274756,29,Woman
20,712937,DepthScenes,duration_manipulation_targetAtFixation,jsons/VE125_randls_24_rotated.json,http://54.235.29.9/FacialAge/BNav_EC2/DepthDuration/v2_depth_duration_MTurk/v2_DepthDuration_HTML.html#70,70,1280,913,1280,1024,8-21-2022,7-26-37,21,depth_duration_stimuli/002057_2014-06-24_21-00-13_260595134347_rgbf000120-resize_1/002057_2014-06-24_21-00-13_260595134347_rgbf000120-resize_1-target.png,125,2.967,8.0,34028,126,meters,jsons/VE125_randls_24_rotated.json,1011008,1274756,29,Woman
21,712937,DepthScenes,duration_manipulation_targetAtFixation,jsons/VE125_randls_24_rotated.json,http://54.235.29.9/FacialAge/BNav_EC2/DepthDuration/v2_depth_duration_MTurk/v2_DepthDuration_HTML.html#70,70,1280,913,1280,1024,8-21-2022,7-26-37,22,depth_duration_stimuli/002444_2014-06-28_20-32-08_260595134347_rgbf000027-resize_0/002444_2014-06-28_20-32-08_260595134347_rgbf000027-resize_0-target.png,125,4.388999999999999,7.0,4018,121,meters,jsons/VE125_randls_24_rotated.json,1011008,1274756,29,Woman
22,712937,DepthScenes,duration_manipulation_targetAtFixation,jsons/VE125_randls_24_rotated.json,http://54.235.29.9/FacialAge/BNav_EC2/DepthDuration/v2_depth_duration_MTurk/v2_DepthDuration_HTML.html#70,70,1280,913,1280,1024,8-21-2022,7-26-37,23,depth_duration_stimuli/000436_2014-06-09_22-25-11_260595134347_rgbf000137-resize_1/000436_2014-06-09_22-25-11_260595134347_rgbf000137-resize_1-target.png,125,4.0705,15.0,5017,117,meters,jsons/VE125_randls_24_rotated.json,1011008,1274756,29,Woman
23,712937,DepthScenes,duration_manipulation_targetAtFixation,jsons/VE125_randls_24_rotated.json,http://54.235.29.9/FacialAge/BNav_EC2/DepthDuration/v2_depth_duration_MTurk/v2_DepthDuration_HTML.html#70,70,1280,913,1280,1024,8-21-2022,7-26-37,24,depth_duration_stimuli/000854_2014-06-09_19-43-13_260595134347_rgbf000066-resize_0/000854_2014-06-09_19-43-13_260595134347_rgbf000066-resize_0-target.png,125,3.068,7.0,6123,122,meters,jsons/VE125_randls_24_rotated.json,1011008,1274756,29,Woman
24,712937,DepthScenes,duration_manipulation_targetAtFixation,jsons/VE125_randls_24_rotated.json,http://54.235.29.9/FacialAge/BNav_EC2/DepthDuration/v2_depth_duration_MTurk/v2_DepthDuration_HTML.html#70,70,1280,913,1280,1024,8-21-2022,7-26-37,25,depth_duration_stimuli/000758_2014-06-08_22-05-08_260595134347_rgbf000085-resize_0/000758_2014-06-08_22-05-08_260595134347_rgbf000085-resize_0-target.png,125,3.3810000000000002,12.0,3741,127,meters,jsons/VE125_randls_24_rotated.json,1011008,1274756,29,Woman
25,712937,DepthScenes,duration_manipulation_targetAtFixation,jsons/VE125_randls_24_rotated.json,http://54.235.29.9/FacialAge/BNav_EC2/DepthDuration/v2_depth_duration_MTurk/v2_DepthDuration_HTML.html#70,70,1280,913,1280,1024,8-21-2022,7-26-37,26,depth_duration_stimuli/001032_2014-06-08_13-23-17_260595134347_rgbf000021-resize_3/001032_2014-06-08_13-23-17_260595134347_rgbf000021-resize_3-target.png,125,3.2725,5.0,6003,132,meters,jsons/VE125_randls_24_rotated.json,1011008,1274756,29,Woman
26,712937,DepthScenes,duration_manipulation_targetAtFixation,jsons/VE125_randls_24_rotated.json,http://54.235.29.9/FacialAge/BNav_EC2/DepthDuration/v2_depth_duration_MTurk/v2_DepthDuration_HTML.html#70,70,1280,913,1280,1024,8-21-2022,7-26-37,27,depth_duration_stimuli/001059_2014-06-08_21-53-27_260595134347_rgbf000061-resize_4/001059_2014-06-08_21-53-27_260595134347_rgbf000061-resize_4-target.png,125,2.4185,4.0,3469,120,meters,jsons/VE125_randls_24_rotated.json,1011008,1274756,29,Woman
27,712937,DepthScenes,duration_manipulation_targetAtFixation,jsons/VE125_randls_24_rotated.json,http://54.235.29.9/FacialAge/BNav_EC2/DepthDuration/v2_depth_duration_MTurk/v2_DepthDuration_HTML.html#70,70,1280,913,1280,1024,8-21-2022,7-26-37,28,depth_duration_stimuli/003490_2014-05-21_15-50-11_094959634447_rgbf000101-resize_3/003490_2014-05-21_15-50-11_094959634447_rgbf000101-resize_3-target.png,125,3.6445,15.0,8109,117,meters,jsons/VE125_randls_24_rotated.json,1011008,1274756,29,Woman
28,712937,DepthScenes,duration_manipulation_targetAtFixation,jsons/VE125_randls_24_rotated.json,http://54.235.29.9/FacialAge/BNav_EC2/DepthDuration/v2_depth_duration_MTurk/v2_DepthDuration_HTML.html#70,70,1280,913,1280,1024,8-21-2022,7-26-37,29,depth_duration_stimuli/001175_2014-06-17_15-45-55_260595134347_rgbf000129-resize_4/001175_2014-06-17_15-45-55_260595134347_rgbf000129-resize_4-target.png,125,4.255,9.0,6333,130,meters,jsons/VE125_randls_24_rotated.json,1011008,1274756,29,Woman
29,712937,DepthScenes,duration_manipulation_targetAtFixation,jsons/VE125_randls_24_rotated.json,http://54.235.29.9/FacialAge/BNav_EC2/DepthDuration/v2_depth_duration_MTurk/v2_DepthDuration_HTML.html#70,70,1280,913,1280,1024,8-21-2022,7-26-37,30,depth_duration_stimuli/002072_2014-06-24_21-48-06_260595134347_rgbf000115-resize_0/002072_2014-06-24_21-48-06_260595134347_rgbf000115-resize-original.jpg,125,4.702,0.0,3905,127,meters,jsons/VE125_randls_24_rotated.json,1011008,1274756,29,Woman
30,712937,DepthScenes,duration_manipulation_targetAtFixation,jsons/VE125_randls_24_rotated.json,http://54.235.29.9/FacialAge/BNav_EC2/DepthDuration/v2_depth_duration_MTurk/v2_DepthDuration_HTML.html#70,70,1280,913,1280,1024,8-21-2022,7-26-37,31,depth_duration_stimuli/000103_2014-05-14_22-01-17_260595134347_rgbf000152-resize_5/000103_2014-05-14_22-01-17_260595134347_rgbf000152-resize_5-target.png,125,1.993,5.0,7888,125,meters,jsons/VE125_randls_24_rotated.json,1011008,1274756,29,Woman
31,712937,DepthScenes,duration_manipulation_targetAtFixation,jsons/VE125_randls_24_rotated.json,http://54.235.29.9/FacialAge/BNav_EC2/DepthDuration/v2_depth_duration_MTurk/v2_DepthDuration_HTML.html#70,70,1280,913,1280,1024,8-21-2022,7-26-37,32,depth_duration_stimuli/001555_2014-06-20_17-12-10_260595134347_rgbf000065-resize_4/001555_2014-06-20_17-12-10_260595134347_rgbf000065-resize_4-target.png,125,1.633,4.0,3867,125,meters,jsons/VE125_randls_24_rotated.json,1011008,1274756,29,Woman
32,712937,DepthScenes,duration_manipulation_targetAtFixation,jsons/VE125_randls_24_rotated.json,http://54.235.29.9/FacialAge/BNav_EC2/DepthDuration/v2_depth_duration_MTurk/v2_DepthDuration_HTML.html#70,70,1280,913,1280,1024,8-21-2022,7-26-37,33,depth_duration_stimuli/002875_2014-06-01_15-19-00_094959634447_rgbf000151-resize_1/002875_2014-06-01_15-19-00_094959634447_rgbf000151-resize_1-target.png,125,1.9675,3.0,12079,109,meters,jsons/VE125_randls_24_rotated.json,1011008,1274756,29,Woman
33,712937,DepthScenes,duration_manipulation_targetAtFixation,jsons/VE125_randls_24_rotated.json,http://54.235.29.9/FacialAge/BNav_EC2/DepthDuration/v2_depth_duration_MTurk/v2_DepthDuration_HTML.html#70,70,1280,913,1280,1024,8-21-2022,7-26-37,34,depth_duration_stimuli/001011_2014-06-08_23-18-54_260595134347_rgbf000044-resize_4/001011_2014-06-08_23-18-54_260595134347_rgbf000044-resize_4-target.png,125,2.4730000000000003,4.0,4834,124,meters,jsons/VE125_randls_24_rotated.json,1011008,1274756,29,Woman
34,712937,DepthScenes,duration_manipulation_targetAtFixation,jsons/VE125_randls_24_rotated.json,http://54.235.29.9/FacialAge/BNav_EC2/DepthDuration/v2_depth_duration_MTurk/v2_DepthDuration_HTML.html#70,70,1280,913,1280,1024,8-21-2022,7-26-37,35,depth_duration_stimuli/003129_2014-05-12_10-48-10_094959634447_rgbf000100-resize_0/003129_2014-05-12_10-48-10_094959634447_rgbf000100-resize_0-target.png,125,4.9305,7.0,6272,118,meters,jsons/VE125_randls_24_rotated.json,1011008,1274756,29,Woman
35,712937,DepthScenes,duration_manipulation_targetAtFixation,jsons/VE125_randls_24_rotated.json,http://54.235.29.9/FacialAge/BNav_EC2/DepthDuration/v2_depth_duration_MTurk/v2_DepthDuration_HTML.html#70,70,1280,913,1280,1024,8-21-2022,7-26-37,36,depth_duration_stimuli/000414_2014-06-04_19-49-13_260595134347_rgbf000044-resize_0/000414_2014-06-04_19-49-13_260595134347_rgbf000044-resize_0-target.png,125,4.329,7.0,22205,120,meters,jsons/VE125_randls_24_rotated.json,1011008,1274756,29,Woman
36,712937,DepthScenes,duration_manipulation_targetAtFixation,jsons/VE125_randls_24_rotated.json,http://54.235.29.9/FacialAge/BNav_EC2/DepthDuration/v2_depth_duration_MTurk/v2_DepthDuration_HTML.html#70,70,1280,913,1280,1024,8-21-2022,7-26-37,37,depth_duration_stimuli/000665_2014-06-09_20-42-35_260595134347_rgbf000110-resize_1/000665_2014-06-09_20-42-35_260595134347_rgbf000110-resize_1-target.png,125,3.057,8.0,10644,126,meters,jsons/VE125_randls_24_rotated.json,1011008,1274756,29,Woman
37,712937,DepthScenes,duration_manipulation_targetAtFixation,jsons/VE125_randls_24_rotated.json,http://54.235.29.9/FacialAge/BNav_EC2/DepthDuration/v2_depth_duration_MTurk/v2_DepthDuration_HTML.html#70,70,1280,913,1280,1024,8-21-2022,7-26-37,38,depth_duration_stimuli/001150_2014-06-17_15-27-34_260595134347_rgbf000108-resize_2/001150_2014-06-17_15-27-34_260595134347_rgbf000108-resize_2-target.png,125,4.0325,4.0,3458,125,meters,jsons/VE125_randls_24_rotated.json,1011008,1274756,29,Woman
38,712937,DepthScenes,duration_manipulation_targetAtFixation,jsons/VE125_randls_24_rotated.json,http://54.235.29.9/FacialAge/BNav_EC2/DepthDuration/v2_depth_duration_MTurk/v2_DepthDuration_HTML.html#70,70,1280,913,1280,1024,8-21-2022,7-26-37,39,depth_duration_stimuli/002639_2014-06-24_14-51-37_094959634447_rgbf000074-resize_4/002639_2014-06-24_14-51-37_094959634447_rgbf000074-resize_4-target.png,125,4.0375,5.0,6397,126,meters,jsons/VE125_randls_24_rotated.json,1011008,1274756,29,Woman
39,712937,DepthScenes,duration_manipulation_targetAtFixation,jsons/VE125_randls_24_rotated.json,http://54.235.29.9/FacialAge/BNav_EC2/DepthDuration/v2_depth_duration_MTurk/v2_DepthDuration_HTML.html#70,70,1280,913,1280,1024,8-21-2022,7-26-37,40,depth_duration_stimuli/003292_2014-05-14_21-53-49_094959634447_rgbf000100-resize_2/003292_2014-05-14_21-53-49_094959634447_rgbf000100-resize_2-target.png,125,3.4815,4.0,3169,126,meters,jsons/VE125_randls_24_rotated.json,1011008,1274756,29,Woman
40,712937,DepthScenes,duration_manipulation_targetAtFixation,jsons/VE125_randls_24_rotated.json,http://54.235.29.9/FacialAge/BNav_EC2/DepthDuration/v2_depth_duration_MTurk/v2_DepthDuration_HTML.html#70,70,1280,913,1280,1024,8-21-2022,7-26-37,41,depth_duration_stimuli/000749_2014-06-08_21-55-06_260595134347_rgbf000070-resize_2/000749_2014-06-08_21-55-06_260595134347_rgbf000070-resize_2-target.png,125,2.331,8.0,5642,118,meters,jsons/VE125_randls_24_rotated.json,1011008,1274756,29,Woman
41,712937,DepthScenes,duration_manipulation_targetAtFixation,jsons/VE125_randls_24_rotated.json,http://54.235.29.9/FacialAge/BNav_EC2/DepthDuration/v2_depth_duration_MTurk/v2_DepthDuration_HTML.html#70,70,1280,913,1280,1024,8-21-2022,7-26-37,42,depth_duration_stimuli/002788_2014-06-22_19-36-03_094959634447_rgbf000088-resize_2/002788_2014-06-22_19-36-03_094959634447_rgbf000088-resize_2-target.png,125,1.6465,4.0,5078,126,meters,jsons/VE125_randls_24_rotated.json,1011008,1274756,29,Woman
42,712937,DepthScenes,duration_manipulation_targetAtFixation,jsons/VE125_randls_24_rotated.json,http://54.235.29.9/FacialAge/BNav_EC2/DepthDuration/v2_depth_duration_MTurk/v2_DepthDuration_HTML.html#70,70,1280,913,1280,1024,8-21-2022,7-26-37,43,depth_duration_stimuli/000109_2014-05-14_23-41-52_260595134347_rgbf000035-resize_9/000109_2014-05-14_23-41-52_260595134347_rgbf000035-resize_9-target.png,125,1.3545,8.0,4741,114,meters,jsons/VE125_randls_24_rotated.json,1011008,1274756,29,Woman
43,712937,DepthScenes,duration_manipulation_targetAtFixation,jsons/VE125_randls_24_rotated.json,http://54.235.29.9/FacialAge/BNav_EC2/DepthDuration/v2_depth_duration_MTurk/v2_DepthDuration_HTML.html#70,70,1280,913,1280,1024,8-21-2022,7-26-37,44,depth_duration_stimuli/000470_2014-06-09_19-42-40_260595134347_rgbf000094-resize_1/000470_2014-06-09_19-42-40_260595134347_rgbf000094-resize_1-target.png,125,1.831,1.0,3836,125,meters,jsons/VE125_randls_24_rotated.json,1011008,1274756,29,Woman
44,712937,DepthScenes,duration_manipulation_targetAtFixation,jsons/VE125_randls_24_rotated.json,http://54.235.29.9/FacialAge/BNav_EC2/DepthDuration/v2_depth_duration_MTurk/v2_DepthDuration_HTML.html#70,70,1280,913,1280,1024,8-21-2022,7-26-37,45,depth_duration_stimuli/000691_2014-06-08_13-08-50_260595134347_rgbf000132-resize_3/000691_2014-06-08_13-08-50_260595134347_rgbf000132-resize_3-target.png,125,4.1530000000000005,5.0,4166,124,meters,jsons/VE125_randls_24_rotated.json,1011008,1274756,29,Woman
45,712937,DepthScenes,duration_manipulation_targetAtFixation,jsons/VE125_randls_24_rotated.json,http://54.235.29.9/FacialAge/BNav_EC2/DepthDuration/v2_depth_duration_MTurk/v2_DepthDuration_HTML.html#70,70,1280,913,1280,1024,8-21-2022,7-26-37,46,depth_duration_stimuli/002213_2014-06-28_18-37-58_260595134347_rgbf000055-resize_1/002213_2014-06-28_18-37-58_260595134347_rgbf000055-resize_1-target.png,125,3.62,6.0,3667,118,meters,jsons/VE125_randls_24_rotated.json,1011008,1274756,29,Woman
46,712937,DepthScenes,duration_manipulation_targetAtFixation,jsons/VE125_randls_24_rotated.json,http://54.235.29.9/FacialAge/BNav_EC2/DepthDuration/v2_depth_duration_MTurk/v2_DepthDuration_HTML.html#70,70,1280,913,1280,1024,8-21-2022,7-26-37,47,depth_duration_stimuli/002340_2014-06-28_20-05-46_260595134347_rgbf000113-resize_0/002340_2014-06-28_20-05-46_260595134347_rgbf000113-resize_0-target.png,125,2.4735,8.0,7393,127,meters,jsons/VE125_randls_24_rotated.json,1011008,1274756,29,Woman
47,712937,DepthScenes,duration_manipulation_targetAtFixation,jsons/VE125_randls_24_rotated.json,http://54.235.29.9/FacialAge/BNav_EC2/DepthDuration/v2_depth_duration_MTurk/v2_DepthDuration_HTML.html#70,70,1280,913,1280,1024,8-21-2022,7-26-37,48,depth_duration_stimuli/001016_2014-06-09_16-16-10_260595134347_rgbf000112-resize_5/001016_2014-06-09_16-16-10_260595134347_rgbf000112-resize_5-target.png,125,1.6565,15.0,6141,123,meters,jsons/VE125_randls_24_rotated.json,1011008,1274756,29,Woman
48,712937,DepthScenes,duration_manipulation_targetAtFixation,jsons/VE125_randls_24_rotated.json,http://54.235.29.9/FacialAge/BNav_EC2/DepthDuration/v2_depth_duration_MTurk/v2_DepthDuration_HTML.html#70,70,1280,913,1280,1024,8-21-2022,7-26-37,49,depth_duration_stimuli/001170_2014-06-17_15-43-44_260595134347_rgbf000096-resize_6/001170_2014-06-17_15-43-44_260595134347_rgbf000096-resize-original.jpg,125,1.1909999999999998,0.0,7222,120,meters,jsons/VE125_randls_24_rotated.json,1011008,1274756,29,Woman
49,712937,DepthScenes,duration_manipulation_targetAtFixation,jsons/VE125_randls_24_rotated.json,http://54.235.29.9/FacialAge/BNav_EC2/DepthDuration/v2_depth_duration_MTurk/v2_DepthDuration_HTML.html#70,70,1280,913,1280,1024,8-21-2022,7-26-37,50,depth_duration_stimuli/001815_2014-06-26_20-52-55_260595134347_rgbf000020-resize_0/001815_2014-06-26_20-52-55_260595134347_rgbf000020-resize_0-target.png,125,3.3865,3.0,13274,123,meters,jsons/VE125_randls_24_rotated.json,1011008,1274756,29,Woman
50,712937,DepthScenes,duration_manipulation_targetAtFixation,jsons/VE125_randls_24_rotated.json,http://54.235.29.9/FacialAge/BNav_EC2/DepthDuration/v2_depth_duration_MTurk/v2_DepthDuration_HTML.html#70,70,1280,913,1280,1024,8-21-2022,7-26-37,51,depth_duration_stimuli/001808_2014-06-26_20-50-58_260595134347_rgbf000029-resize_1/001808_2014-06-26_20-50-58_260595134347_rgbf000029-resize_1-target.png,125,4.249,7.0,3603,134,meters,jsons/VE125_randls_24_rotated.json,1011008,1274756,29,Woman
51,712937,DepthScenes,duration_manipulation_targetAtFixation,jsons/VE125_randls_24_rotated.json,http://54.235.29.9/FacialAge/BNav_EC2/DepthDuration/v2_depth_duration_MTurk/v2_DepthDuration_HTML.html#70,70,1280,913,1280,1024,8-21-2022,7-26-37,52,depth_duration_stimuli/003338_2014-05-20_11-01-23_094959634447_rgbf000051-resize_6/003338_2014-05-20_11-01-23_094959634447_rgbf000051-resize_6-target.png,125,1.693,3.0,11231,125,meters,jsons/VE125_randls_24_rotated.json,1011008,1274756,29,Woman
52,712937,DepthScenes,duration_manipulation_targetAtFixation,jsons/VE125_randls_24_rotated.json,http://54.235.29.9/FacialAge/BNav_EC2/DepthDuration/v2_depth_duration_MTurk/v2_DepthDuration_HTML.html#70,70,1280,913,1280,1024,8-21-2022,7-26-37,53,depth_duration_stimuli/002509_2014-06-24_13-19-22_094959634447_rgbf000077-resize_0/002509_2014-06-24_13-19-22_094959634447_rgbf000077-resize_0-target.png,125,1.3065,4.0,6820,125,meters,jsons/VE125_randls_24_rotated.json,1011008,1274756,29,Woman
53,712937,DepthScenes,duration_manipulation_targetAtFixation,jsons/VE125_randls_24_rotated.json,http://54.235.29.9/FacialAge/BNav_EC2/DepthDuration/v2_depth_duration_MTurk/v2_DepthDuration_HTML.html#70,70,1280,913,1280,1024,8-21-2022,7-26-37,54,depth_duration_stimuli/001828_2014-06-26_21-40-03_260595134347_rgbf000024-resize_0/001828_2014-06-26_21-40-03_260595134347_rgbf000024-resize_0-target.png,125,4.8260000000000005,8.0,4461,111,meters,jsons/VE125_randls_24_rotated.json,1011008,1274756,29,Woman
54,712937,DepthScenes,duration_manipulation_targetAtFixation,jsons/VE125_randls_24_rotated.json,http://54.235.29.9/FacialAge/BNav_EC2/DepthDuration/v2_depth_duration_MTurk/v2_DepthDuration_HTML.html#70,70,1280,913,1280,1024,8-21-2022,7-26-37,55,depth_duration_stimuli/000009_2014-05-26_14-32-05_260595134347_rgbf000034-resize_3/000009_2014-05-26_14-32-05_260595134347_rgbf000034-resize_3-target.png,125,3.8715,5.0,3166,135,meters,jsons/VE125_randls_24_rotated.json,1011008,1274756,29,Woman
55,712937,DepthScenes,duration_manipulation_targetAtFixation,jsons/VE125_randls_24_rotated.json,http://54.235.29.9/FacialAge/BNav_EC2/DepthDuration/v2_depth_duration_MTurk/v2_DepthDuration_HTML.html#70,70,1280,913,1280,1024,8-21-2022,7-26-37,56,depth_duration_stimuli/002545_2014-06-24_13-38-53_094959634447_rgbf000080-resize_4/002545_2014-06-24_13-38-53_094959634447_rgbf000080-resize_4-target.png,125,1.9205,7.0,6310,135,meters,jsons/VE125_randls_24_rotated.json,1011008,1274756,29,Woman
56,712937,DepthScenes,duration_manipulation_targetAtFixation,jsons/VE125_randls_24_rotated.json,http://54.235.29.9/FacialAge/BNav_EC2/DepthDuration/v2_depth_duration_MTurk/v2_DepthDuration_HTML.html#70,70,1280,913,1280,1024,8-21-2022,7-26-37,57,depth_duration_stimuli/001092_2014-06-15_17-34-58_260595134347_rgbf000171-resize_3/001092_2014-06-15_17-34-58_260595134347_rgbf000171-resize_3-target.png,125,2.6935,8.0,4748,127,meters,jsons/VE125_randls_24_rotated.json,1011008,1274756,29,Woman
57,712937,DepthScenes,duration_manipulation_targetAtFixation,jsons/VE125_randls_24_rotated.json,http://54.235.29.9/FacialAge/BNav_EC2/DepthDuration/v2_depth_duration_MTurk/v2_DepthDuration_HTML.html#70,70,1280,913,1280,1024,8-21-2022,7-26-37,58,depth_duration_stimuli/000191_2014-05-12_17-07-38_260595134347_rgbf000199-resize_0/000191_2014-05-12_17-07-38_260595134347_rgbf000199-resize_0-target.png,125,3.7995,8.0,5069,125,meters,jsons/VE125_randls_24_rotated.json,1011008,1274756,29,Woman
58,712937,DepthScenes,duration_manipulation_targetAtFixation,jsons/VE125_randls_24_rotated.json,http://54.235.29.9/FacialAge/BNav_EC2/DepthDuration/v2_depth_duration_MTurk/v2_DepthDuration_HTML.html#70,70,1280,913,1280,1024,8-21-2022,7-26-37,59,depth_duration_stimuli/000493_2014-06-09_21-01-18_260595134347_rgbf000196-resize_3/000493_2014-06-09_21-01-18_260595134347_rgbf000196-resize_3-target.png,125,3.44,4.0,3315,125,meters,jsons/VE125_randls_24_rotated.json,1011008,1274756,29,Woman
59,712937,DepthScenes,duration_manipulation_targetAtFixation,jsons/VE125_randls_24_rotated.json,http://54.235.29.9/FacialAge/BNav_EC2/DepthDuration/v2_depth_duration_MTurk/v2_DepthDuration_HTML.html#70,70,1280,913,1280,1024,8-21-2022,7-26-37,60,depth_duration_stimuli/002637_2014-06-24_14-51-13_094959634447_rgbf000066-resize_4/002637_2014-06-24_14-51-13_094959634447_rgbf000066-resize_4-target.png,125,1.9955,6.0,5352,128,meters,jsons/VE125_randls_24_rotated.json,1011008,1274756,29,Woman
60,712937,DepthScenes,duration_manipulation_targetAtFixation,jsons/VE125_randls_24_rotated.json,http://54.235.29.9/FacialAge/BNav_EC2/DepthDuration/v2_depth_duration_MTurk/v2_DepthDuration_HTML.html#70,70,1280,913,1280,1024,8-21-2022,7-26-37,61,depth_duration_stimuli/003534_2014-05-22_15-06-10_094959634447_rgbf000102-resize_4/003534_2014-05-22_15-06-10_094959634447_rgbf000102-resize_4-target.png,125,1.426,4.0,3290,124,meters,jsons/VE125_randls_24_rotated.json,1011008,1274756,29,Woman
61,712937,DepthScenes,duration_manipulation_targetAtFixation,jsons/VE125_randls_24_rotated.json,http://54.235.29.9/FacialAge/BNav_EC2/DepthDuration/v2_depth_duration_MTurk/v2_DepthDuration_HTML.html#70,70,1280,913,1280,1024,8-21-2022,7-26-37,62,depth_duration_stimuli/000742_2014-06-08_18-48-09_260595134347_rgbf000164-resize_4/000742_2014-06-08_18-48-09_260595134347_rgbf000164-resize_4-target.png,125,4.632,8.0,6255,124,meters,jsons/VE125_randls_24_rotated.json,1011008,1274756,29,Woman
62,712937,DepthScenes,duration_manipulation_targetAtFixation,jsons/VE125_randls_24_rotated.json,http://54.235.29.9/FacialAge/BNav_EC2/DepthDuration/v2_depth_duration_MTurk/v2_DepthDuration_HTML.html#70,70,1280,913,1280,1024,8-21-2022,7-26-37,63,depth_duration_stimuli/001066_2014-06-08_22-03-20_260595134347_rgbf000066-resize_4/001066_2014-06-08_22-03-20_260595134347_rgbf000066-resize_4-target.png,125,4.2330000000000005,4.0,3142,123,meters,jsons/VE125_randls_24_rotated.json,1011008,1274756,29,Woman
63,712937,DepthScenes,duration_manipulation_targetAtFixation,jsons/VE125_randls_24_rotated.json,http://54.235.29.9/FacialAge/BNav_EC2/DepthDuration/v2_depth_duration_MTurk/v2_DepthDuration_HTML.html#70,70,1280,913,1280,1024,8-21-2022,7-26-37,64,depth_duration_stimuli/003083_2014-06-15_15-21-03_094959634447_rgbf000063-resize_1/003083_2014-06-15_15-21-03_094959634447_rgbf000063-resize_1-target.png,125,4.1405,7.0,3974,137,meters,jsons/VE125_randls_24_rotated.json,1011008,1274756,29,Woman
64,712937,DepthScenes,duration_manipulation_targetAtFixation,jsons/VE125_randls_24_rotated.json,http://54.235.29.9/FacialAge/BNav_EC2/DepthDuration/v2_depth_duration_MTurk/v2_DepthDuration_HTML.html#70,70,1280,913,1280,1024,8-21-2022,7-26-37,65,depth_duration_stimuli/000486_2014-06-09_20-47-20_260595134347_rgbf000143-resize_2/000486_2014-06-09_20-47-20_260595134347_rgbf000143-resize_2-target.png,125,4.8325,8.0,6956,122,meters,jsons/VE125_randls_24_rotated.json,1011008,1274756,29,Woman
65,712937,DepthScenes,duration_manipulation_targetAtFixation,jsons/VE125_randls_24_rotated.json,http://54.235.29.9/FacialAge/BNav_EC2/DepthDuration/v2_depth_duration_MTurk/v2_DepthDuration_HTML.html#70,70,1280,913,1280,1024,8-21-2022,7-26-37,66,depth_duration_stimuli/001540_2014-06-20_17-01-05_260595134347_rgbf000086-resize_2/001540_2014-06-20_17-01-05_260595134347_rgbf000086-resize-original.jpg,125,1.459,0.0,6118,129,meters,jsons/VE125_randls_24_rotated.json,1011008,1274756,29,Woman
66,712937,DepthScenes,duration_manipulation_targetAtFixation,jsons/VE125_randls_24_rotated.json,http://54.235.29.9/FacialAge/BNav_EC2/DepthDuration/v2_depth_duration_MTurk/v2_DepthDuration_HTML.html#70,70,1280,913,1280,1024,8-21-2022,7-26-37,67,depth_duration_stimuli/002425_2014-06-28_20-27-29_260595134347_rgbf000031-resize_8/002425_2014-06-28_20-27-29_260595134347_rgbf000031-resize_8-target.png,125,3.8960000000000004,7.0,9396,111,meters,jsons/VE125_randls_24_rotated.json,1011008,1274756,29,Woman
67,712937,DepthScenes,duration_manipulation_targetAtFixation,jsons/VE125_randls_24_rotated.json,http://54.235.29.9/FacialAge/BNav_EC2/DepthDuration/v2_depth_duration_MTurk/v2_DepthDuration_HTML.html#70,70,1280,913,1280,1024,8-21-2022,7-26-37,68,depth_duration_stimuli/000642_2014-06-08_16-59-25_260595134347_rgbf000098-resize_2/000642_2014-06-08_16-59-25_260595134347_rgbf000098-resize_2-target.png,125,2.8815,5.0,3361,78,meters,jsons/VE125_randls_24_rotated.json,1011008,1274756,29,Woman
68,712937,DepthScenes,duration_manipulation_targetAtFixation,jsons/VE125_randls_24_rotated.json,http://54.235.29.9/FacialAge/BNav_EC2/DepthDuration/v2_depth_duration_MTurk/v2_DepthDuration_HTML.html#70,70,1280,913,1280,1024,8-21-2022,7-26-37,69,depth_duration_stimuli/001447_2014-06-19_17-00-32_260595134347_rgbf000082-resize_5/001447_2014-06-19_17-00-32_260595134347_rgbf000082-resize_5-target.png,125,4.13775,7.0,11501,125,meters,jsons/VE125_randls_24_rotated.json,1011008,1274756,29,Woman
69,712937,DepthScenes,duration_manipulation_targetAtFixation,jsons/VE125_randls_24_rotated.json,http://54.235.29.9/FacialAge/BNav_EC2/DepthDuration/v2_depth_duration_MTurk/v2_DepthDuration_HTML.html#70,70,1280,913,1280,1024,8-21-2022,7-26-37,70,depth_duration_stimuli/000447_2014-06-08_16-15-46_260595134347_rgbf000130-resize_1/000447_2014-06-08_16-15-46_260595134347_rgbf000130-resize_1-target.png,125,4.479,0.0,3003,126,meters,jsons/VE125_randls_24_rotated.json,1011008,1274756,29,Woman
70,712937,DepthScenes,duration_manipulation_targetAtFixation,jsons/VE125_randls_24_rotated.json,http://54.235.29.9/FacialAge/BNav_EC2/DepthDuration/v2_depth_duration_MTurk/v2_DepthDuration_HTML.html#70,70,1280,913,1280,1024,8-21-2022,7-26-37,71,depth_duration_stimuli/003010_2014-06-15_12-54-35_094959634447_rgbf000112-resize_0/003010_2014-06-15_12-54-35_094959634447_rgbf000112-resize_0-target.png,125,3.1185,9.0,4349,125,meters,jsons/VE125_randls_24_rotated.json,1011008,1274756,29,Woman
71,712937,DepthScenes,duration_manipulation_targetAtFixation,jsons/VE125_randls_24_rotated.json,http://54.235.29.9/FacialAge/BNav_EC2/DepthDuration/v2_depth_duration_MTurk/v2_DepthDuration_HTML.html#70,70,1280,913,1280,1024,8-21-2022,7-26-37,72,depth_duration_stimuli/001810_2014-06-26_20-51-35_260595134347_rgbf000040-resize_3/001810_2014-06-26_20-51-35_260595134347_rgbf000040-resize_3-target.png,125,2.2525,5.0,7509,127,meters,jsons/VE125_randls_24_rotated.json,1011008,1274756,29,Woman
72,712937,DepthScenes,duration_manipulation_targetAtFixation,jsons/VE125_randls_24_rotated.json,http://54.235.29.9/FacialAge/BNav_EC2/DepthDuration/v2_depth_duration_MTurk/v2_DepthDuration_HTML.html#70,70,1280,913,1280,1024,8-21-2022,7-26-37,73,depth_duration_stimuli/000734_2014-06-08_17-39-11_260595134347_rgbf000128-resize_2/000734_2014-06-08_17-39-11_260595134347_rgbf000128-resize_2-target.png,125,4.098,7.0,4773,126,meters,jsons/VE125_randls_24_rotated.json,1011008,1274756,29,Woman
73,712937,DepthScenes,duration_manipulation_targetAtFixation,jsons/VE125_randls_24_rotated.json,http://54.235.29.9/FacialAge/BNav_EC2/DepthDuration/v2_depth_duration_MTurk/v2_DepthDuration_HTML.html#70,70,1280,913,1280,1024,8-21-2022,7-26-37,74,depth_duration_stimuli/000739_2014-06-08_18-45-58_260595134347_rgbf000068-resize_1/000739_2014-06-08_18-45-58_260595134347_rgbf000068-resize_1-target.png,125,3.534,5.0,3089,124,meters,jsons/VE125_randls_24_rotated.json,1011008,1274756,29,Woman
74,712937,DepthScenes,duration_manipulation_targetAtFixation,jsons/VE125_randls_24_rotated.json,http://54.235.29.9/FacialAge/BNav_EC2/DepthDuration/v2_depth_duration_MTurk/v2_DepthDuration_HTML.html#70,70,1280,913,1280,1024,8-21-2022,7-26-37,75,depth_duration_stimuli/002949_2014-06-26_15-57-42_094959634447_rgbf000079-resize_1/002949_2014-06-26_15-57-42_094959634447_rgbf000079-resize_1-target.png,125,1.8915,7.0,4794,125,meters,jsons/VE125_randls_24_rotated.json,1011008,1274756,29,Woman
75,712937,DepthScenes,duration_manipulation_targetAtFixation,jsons/VE125_randls_24_rotated.json,http://54.235.29.9/FacialAge/BNav_EC2/DepthDuration/v2_depth_duration_MTurk/v2_DepthDuration_HTML.html#70,70,1280,913,1280,1024,8-21-2022,7-26-37,76,depth_duration_stimuli/000522_2014-06-08_13-35-06_260595134347_rgbf000244-resize_1/000522_2014-06-08_13-35-06_260595134347_rgbf000244-resize_1-target.png,125,2.3715,4.0,2415,125,meters,jsons/VE125_randls_24_rotated.json,1011008,1274756,29,Woman
76,712937,DepthScenes,duration_manipulation_targetAtFixation,jsons/VE125_randls_24_rotated.json,http://54.235.29.9/FacialAge/BNav_EC2/DepthDuration/v2_depth_duration_MTurk/v2_DepthDuration_HTML.html#70,70,1280,913,1280,1024,8-21-2022,7-26-37,77,depth_duration_stimuli/001392_2014-06-19_16-07-59_260595134347_rgbf000046-resize_1/001392_2014-06-19_16-07-59_260595134347_rgbf000046-resize_1-target.png,125,4.135,5.0,3434,125,meters,jsons/VE125_randls_24_rotated.json,1011008,1274756,29,Woman
77,712937,DepthScenes,duration_manipulation_targetAtFixation,jsons/VE125_randls_24_rotated.json,http://54.235.29.9/FacialAge/BNav_EC2/DepthDuration/v2_depth_duration_MTurk/v2_DepthDuration_HTML.html#70,70,1280,913,1280,1024,8-21-2022,7-26-37,78,depth_duration_stimuli/001570_2014-06-20_17-21-09_260595134347_rgbf000135-resize_4/001570_2014-06-20_17-21-09_260595134347_rgbf000135-resize_4-target.png,125,4.467,5.0,3668,97,meters,jsons/VE125_randls_24_rotated.json,1011008,1274756,29,Woman
78,712937,DepthScenes,duration_manipulation_targetAtFixation,jsons/VE125_randls_24_rotated.json,http://54.235.29.9/FacialAge/BNav_EC2/DepthDuration/v2_depth_duration_MTurk/v2_DepthDuration_HTML.html#70,70,1280,913,1280,1024,8-21-2022,7-26-37,79,depth_duration_stimuli/001516_2014-06-20_16-25-09_260595134347_rgbf000076-resize_2/001516_2014-06-20_16-25-09_260595134347_rgbf000076-resize_2-target.png,125,1.7445,2.0,5217,110,meters,jsons/VE125_randls_24_rotated.json,1011008,1274756,29,Woman
79,712937,DepthScenes,duration_manipulation_targetAtFixation,jsons/VE125_randls_24_rotated.json,http://54.235.29.9/FacialAge/BNav_EC2/DepthDuration/v2_depth_duration_MTurk/v2_DepthDuration_HTML.html#70,70,1280,913,1280,1024,8-21-2022,7-26-37,80,depth_duration_stimuli/002118_2014-06-25_20-32-08_260595134347_rgbf000078-resize_1/002118_2014-06-25_20-32-08_260595134347_rgbf000078-resize_1-target.png,125,2.6460000000000004,4.0,2699,111,meters,jsons/VE125_randls_24_rotated.json,1011008,1274756,29,Woman
80,712937,DepthScenes,duration_manipulation_targetAtFixation,jsons/VE125_randls_24_rotated.json,http://54.235.29.9/FacialAge/BNav_EC2/DepthDuration/v2_depth_duration_MTurk/v2_DepthDuration_HTML.html#70,70,1280,913,1280,1024,8-21-2022,7-26-37,81,depth_duration_stimuli/003423_2014-05-21_10-23-26_094959634447_rgbf002665-resize_2/003423_2014-05-21_10-23-26_094959634447_rgbf002665-resize_2-target.png,125,3.2575,5.0,3828,136,meters,jsons/VE125_randls_24_rotated.json,1011008,1274756,29,Woman
81,712937,DepthScenes,duration_manipulation_targetAtFixation,jsons/VE125_randls_24_rotated.json,http://54.235.29.9/FacialAge/BNav_EC2/DepthDuration/v2_depth_duration_MTurk/v2_DepthDuration_HTML.html#70,70,1280,913,1280,1024,8-21-2022,7-26-37,82,depth_duration_stimuli/002905_2014-06-03_18-04-43_094959634447_rgbf000151-resize_2/002905_2014-06-03_18-04-43_094959634447_rgbf000151-resize_2-target.png,125,2.0295,6.0,2784,125,meters,jsons/VE125_randls_24_rotated.json,1011008,1274756,29,Woman
82,712937,DepthScenes,duration_manipulation_targetAtFixation,jsons/VE125_randls_24_rotated.json,http://54.235.29.9/FacialAge/BNav_EC2/DepthDuration/v2_depth_duration_MTurk/v2_DepthDuration_HTML.html#70,70,1280,913,1280,1024,8-21-2022,7-26-37,83,depth_duration_stimuli/002678_2014-06-13_16-15-32_094959634447_rgbf000151-resize_6/002678_2014-06-13_16-15-32_094959634447_rgbf000151-resize_6-target.png,125,2.1830000000000003,7.0,4795,136,meters,jsons/VE125_randls_24_rotated.json,1011008,1274756,29,Woman
83,712937,DepthScenes,duration_manipulation_targetAtFixation,jsons/VE125_randls_24_rotated.json,http://54.235.29.9/FacialAge/BNav_EC2/DepthDuration/v2_depth_duration_MTurk/v2_DepthDuration_HTML.html#70,70,1280,913,1280,1024,8-21-2022,7-26-37,84,depth_duration_stimuli/000368_2014-06-09_15-53-01_260595134347_rgbf000155-resize_2/000368_2014-06-09_15-53-01_260595134347_rgbf000155-resize_2-target.png,125,2.4859999999999998,8.0,3275,125,meters,jsons/VE125_randls_24_rotated.json,1011008,1274756,29,Woman
84,712937,DepthScenes,duration_manipulation_targetAtFixation,jsons/VE125_randls_24_rotated.json,http://54.235.29.9/FacialAge/BNav_EC2/DepthDuration/v2_depth_duration_MTurk/v2_DepthDuration_HTML.html#70,70,1280,913,1280,1024,8-21-2022,7-26-37,85,depth_duration_stimuli/003048_2014-06-15_13-49-43_094959634447_rgbf000150-resize_1/003048_2014-06-15_13-49-43_094959634447_rgbf000150-resize_1-target.png,125,4.0035,9.0,4772,119,meters,jsons/VE125_randls_24_rotated.json,1011008,1274756,29,Woman
85,712937,DepthScenes,duration_manipulation_targetAtFixation,jsons/VE125_randls_24_rotated.json,http://54.235.29.9/FacialAge/BNav_EC2/DepthDuration/v2_depth_duration_MTurk/v2_DepthDuration_HTML.html#70,70,1280,913,1280,1024,8-21-2022,7-26-37,86,depth_duration_stimuli/002043_2014-06-24_20-29-38_260595134347_rgbf000039-resize_4/002043_2014-06-24_20-29-38_260595134347_rgbf000039-resize_4-target.png,125,2.8435,4.0,2969,134,meters,jsons/VE125_randls_24_rotated.json,1011008,1274756,29,Woman
86,712937,DepthScenes,duration_manipulation_targetAtFixation,jsons/VE125_randls_24_rotated.json,http://54.235.29.9/FacialAge/BNav_EC2/DepthDuration/v2_depth_duration_MTurk/v2_DepthDuration_HTML.html#70,70,1280,913,1280,1024,8-21-2022,7-26-37,87,depth_duration_stimuli/002568_2014-06-24_13-59-21_094959634447_rgbf000062-resize_4/002568_2014-06-24_13-59-21_094959634447_rgbf000062-resize_4-target.png,125,3.015,4.0,2984,120,meters,jsons/VE125_randls_24_rotated.json,1011008,1274756,29,Woman
87,712937,DepthScenes,duration_manipulation_targetAtFixation,jsons/VE125_randls_24_rotated.json,http://54.235.29.9/FacialAge/BNav_EC2/DepthDuration/v2_depth_duration_MTurk/v2_DepthDuration_HTML.html#70,70,1280,913,1280,1024,8-21-2022,7-26-37,88,depth_duration_stimuli/003492_2014-05-21_15-50-55_094959634447_rgbf000828-resize_1/003492_2014-05-21_15-50-55_094959634447_rgbf000828-resize_1-target.png,125,4.06875,5.0,3059,125,meters,jsons/VE125_randls_24_rotated.json,1011008,1274756,29,Woman
88,712937,DepthScenes,duration_manipulation_targetAtFixation,jsons/VE125_randls_24_rotated.json,http://54.235.29.9/FacialAge/BNav_EC2/DepthDuration/v2_depth_duration_MTurk/v2_DepthDuration_HTML.html#70,70,1280,913,1280,1024,8-21-2022,7-26-37,89,depth_duration_stimuli/001584_2014-06-20_11-07-43_260595134347_rgbf000002-resize_1/001584_2014-06-20_11-07-43_260595134347_rgbf000002-resize_1-target.png,125,3.53,8.0,3424,125,meters,jsons/VE125_randls_24_rotated.json,1011008,1274756,29,Woman
89,712937,DepthScenes,duration_manipulation_targetAtFixation,jsons/VE125_randls_24_rotated.json,http://54.235.29.9/FacialAge/BNav_EC2/DepthDuration/v2_depth_duration_MTurk/v2_DepthDuration_HTML.html#70,70,1280,913,1280,1024,8-21-2022,7-26-37,90,depth_duration_stimuli/003621_2014-05-23_18-06-08_094959634447_rgbf000101-resize_1/003621_2014-05-23_18-06-08_094959634447_rgbf000101-resize_1-target.png,125,3.9835,7.0,2390,141,meters,jsons/VE125_randls_24_rotated.json,1011008,1274756,29,Woman
90,712937,DepthScenes,duration_manipulation_targetAtFixation,jsons/VE125_randls_24_rotated.json,http://54.235.29.9/FacialAge/BNav_EC2/DepthDuration/v2_depth_duration_MTurk/v2_DepthDuration_HTML.html#70,70,1280,913,1280,1024,8-21-2022,7-26-37,91,depth_duration_stimuli/003081_2014-06-15_15-19-16_094959634447_rgbf000150-resize_1/003081_2014-06-15_15-19-16_094959634447_rgbf000150-resize_1-target.png,125,3.9125,8.0,3510,126,meters,jsons/VE125_randls_24_rotated.json,1011008,1274756,29,Woman
91,712937,DepthScenes,duration_manipulation_targetAtFixation,jsons/VE125_randls_24_rotated.json,http://54.235.29.9/FacialAge/BNav_EC2/DepthDuration/v2_depth_duration_MTurk/v2_DepthDuration_HTML.html#70,70,1280,913,1280,1024,8-21-2022,7-26-37,92,depth_duration_stimuli/001417_2014-06-19_16-25-36_260595134347_rgbf000115-resize_5/001417_2014-06-19_16-25-36_260595134347_rgbf000115-resize_5-target.png,125,4.6255,4.0,2289,106,meters,jsons/VE125_randls_24_rotated.json,1011008,1274756,29,Woman
92,712937,DepthScenes,duration_manipulation_targetAtFixation,jsons/VE125_randls_24_rotated.json,http://54.235.29.9/FacialAge/BNav_EC2/DepthDuration/v2_depth_duration_MTurk/v2_DepthDuration_HTML.html#70,70,1280,913,1280,1024,8-21-2022,7-26-37,93,depth_duration_stimuli/003228_2014-05-14_13-42-35_094959634447_rgbf000101-resize_1/003228_2014-05-14_13-42-35_094959634447_rgbf000101-resize_1-target.png,125,1.9680000000000002,8.0,3724,124,meters,jsons/VE125_randls_24_rotated.json,1011008,1274756,29,Woman
93,712937,DepthScenes,duration_manipulation_targetAtFixation,jsons/VE125_randls_24_rotated.json,http://54.235.29.9/FacialAge/BNav_EC2/DepthDuration/v2_depth_duration_MTurk/v2_DepthDuration_HTML.html#70,70,1280,913,1280,1024,8-21-2022,7-26-37,94,depth_duration_stimuli/002600_2014-06-24_14-27-04_094959634447_rgbf000074-resize_2/002600_2014-06-24_14-27-04_094959634447_rgbf000074-resize_2-target.png,125,2.7575,7.0,2265,115,meters,jsons/VE125_randls_24_rotated.json,1011008,1274756,29,Woman
94,712937,DepthScenes,duration_manipulation_targetAtFixation,jsons/VE125_randls_24_rotated.json,http://54.235.29.9/FacialAge/BNav_EC2/DepthDuration/v2_depth_duration_MTurk/v2_DepthDuration_HTML.html#70,70,1280,913,1280,1024,8-21-2022,7-26-37,95,depth_duration_stimuli/003079_2014-06-15_15-18-20_094959634447_rgbf000152-resize_8/003079_2014-06-15_15-18-20_094959634447_rgbf000152-resize_8-target.png,125,2.8775,9.0,2933,124,meters,jsons/VE125_randls_24_rotated.json,1011008,1274756,29,Woman
95,712937,DepthScenes,duration_manipulation_targetAtFixation,jsons/VE125_randls_24_rotated.json,http://54.235.29.9/FacialAge/BNav_EC2/DepthDuration/v2_depth_duration_MTurk/v2_DepthDuration_HTML.html#70,70,1280,913,1280,1024,8-21-2022,7-26-37,96,depth_duration_stimuli/000506_2014-06-08_23-21-00_260595134347_rgbf000070-resize_7/000506_2014-06-08_23-21-00_260595134347_rgbf000070-resize_7-target.png,125,4.0585,8.0,3335,120,meters,jsons/VE125_randls_24_rotated.json,1011008,1274756,29,Woman
96,712937,DepthScenes,duration_manipulation_targetAtFixation,jsons/VE125_randls_24_rotated.json,http://54.235.29.9/FacialAge/BNav_EC2/DepthDuration/v2_depth_duration_MTurk/v2_DepthDuration_HTML.html#70,70,1280,913,1280,1024,8-21-2022,7-26-37,97,depth_duration_stimuli/000677_2014-06-08_23-10-32_260595134347_rgbf000158-resize_6/000677_2014-06-08_23-10-32_260595134347_rgbf000158-resize_6-target.png,125,3.556,4.0,3509,126,meters,jsons/VE125_randls_24_rotated.json,1011008,1274756,29,Woman
97,712937,DepthScenes,duration_manipulation_targetAtFixation,jsons/VE125_randls_24_rotated.json,http://54.235.29.9/FacialAge/BNav_EC2/DepthDuration/v2_depth_duration_MTurk/v2_DepthDuration_HTML.html#70,70,1280,913,1280,1024,8-21-2022,7-26-37,98,depth_duration_stimuli/001029_2014-06-08_13-17-57_260595134347_rgbf000065-resize_1/001029_2014-06-08_13-17-57_260595134347_rgbf000065-resize_1-target.png,125,3.0835,4.0,2409,127,meters,jsons/VE125_randls_24_rotated.json,1011008,1274756,29,Woman
98,712937,DepthScenes,duration_manipulation_targetAtFixation,jsons/VE125_randls_24_rotated.json,http://54.235.29.9/FacialAge/BNav_EC2/DepthDuration/v2_depth_duration_MTurk/v2_DepthDuration_HTML.html#70,70,1280,913,1280,1024,8-21-2022,7-26-37,99,depth_duration_stimuli/001222_2014-06-17_16-24-06_260595134347_rgbf000073-resize_0/001222_2014-06-17_16-24-06_260595134347_rgbf000073-resize-original.jpg,125,1.4385,0.0,3722,121,meters,jsons/VE125_randls_24_rotated.json,1011008,1274756,29,Woman
99,712937,DepthScenes,duration_manipulation_targetAtFixation,jsons/VE125_randls_24_rotated.json,http://54.235.29.9/FacialAge/BNav_EC2/DepthDuration/v2_depth_duration_MTurk/v2_DepthDuration_HTML.html#70,70,1280,913,1280,1024,8-21-2022,7-26-37,100,depth_duration_stimuli/002199_2014-06-28_18-33-56_260595134347_rgbf000074-resize_0/002199_2014-06-28_18-33-56_260595134347_rgbf000074-resize_0-target.png,125,1.996,4.0,3062,116,meters,jsons/VE125_randls_24_rotated.json,1011008,1274756,29,Woman
100,712937,DepthScenes,duration_manipulation_targetAtFixation,jsons/VE125_randls_24_rotated.json,http://54.235.29.9/FacialAge/BNav_EC2/DepthDuration/v2_depth_duration_MTurk/v2_DepthDuration_HTML.html#70,70,1280,913,1280,1024,8-21-2022,7-26-37,101,depth_duration_stimuli/001056_2014-06-08_18-46-44_260595134347_rgbf000068-resize_0/001056_2014-06-08_18-46-44_260595134347_rgbf000068-resize_0-target.png,125,2.6625,5.0,2311,129,meters,jsons/VE125_randls_24_rotated.json,1011008,1274756,29,Woman
101,712937,DepthScenes,duration_manipulation_targetAtFixation,jsons/VE125_randls_24_rotated.json,http://54.235.29.9/FacialAge/BNav_EC2/DepthDuration/v2_depth_duration_MTurk/v2_DepthDuration_HTML.html#70,70,1280,913,1280,1024,8-21-2022,7-26-37,102,depth_duration_stimuli/002414_2014-06-28_20-24-58_260595134347_rgbf000067-resize_4/002414_2014-06-28_20-24-58_260595134347_rgbf000067-resize_4-target.png,125,4.363,4.0,4715,128,meters,jsons/VE125_randls_24_rotated.json,1011008,1274756,29,Woman
102,712937,DepthScenes,duration_manipulation_targetAtFixation,jsons/VE125_randls_24_rotated.json,http://54.235.29.9/FacialAge/BNav_EC2/DepthDuration/v2_depth_duration_MTurk/v2_DepthDuration_HTML.html#70,70,1280,913,1280,1024,8-21-2022,7-26-37,103,depth_duration_stimuli/000773_2014-06-08_22-24-54_260595134347_rgbf000093-resize_1/000773_2014-06-08_22-24-54_260595134347_rgbf000093-resize_1-target.png,125,4.973,6.0,37462,126,meters,jsons/VE125_randls_24_rotated.json,1011008,1274756,29,Woman
103,712937,DepthScenes,duration_manipulation_targetAtFixation,jsons/VE125_randls_24_rotated.json,http://54.235.29.9/FacialAge/BNav_EC2/DepthDuration/v2_depth_duration_MTurk/v2_DepthDuration_HTML.html#70,70,1280,913,1280,1024,8-21-2022,7-26-37,104,depth_duration_stimuli/001571_2014-06-20_17-21-32_260595134347_rgbf000089-resize_1/001571_2014-06-20_17-21-32_260595134347_rgbf000089-resize_1-target.png,125,1.86,4.0,3899,123,meters,jsons/VE125_randls_24_rotated.json,1011008,1274756,29,Woman
104,712937,DepthScenes,duration_manipulation_targetAtFixation,jsons/VE125_randls_24_rotated.json,http://54.235.29.9/FacialAge/BNav_EC2/DepthDuration/v2_depth_duration_MTurk/v2_DepthDuration_HTML.html#70,70,1280,913,1280,1024,8-21-2022,7-26-37,105,depth_duration_stimuli/002272_2014-06-28_18-53-56_260595134347_rgbf000067-resize_2/002272_2014-06-28_18-53-56_260595134347_rgbf000067-resize_2-target.png,125,1.138,5.0,3602,124,meters,jsons/VE125_randls_24_rotated.json,1011008,1274756,29,Woman
105,712937,DepthScenes,duration_manipulation_targetAtFixation,jsons/VE125_randls_24_rotated.json,http://54.235.29.9/FacialAge/BNav_EC2/DepthDuration/v2_depth_duration_MTurk/v2_DepthDuration_HTML.html#70,70,1280,913,1280,1024,8-21-2022,7-26-37,106,depth_duration_stimuli/001450_2014-06-19_17-02-03_260595134347_rgbf000203-resize_4/001450_2014-06-19_17-02-03_260595134347_rgbf000203-resize_4-target.png,125,4.0106666666667,4.0,9981,126,meters,jsons/VE125_randls_24_rotated.json,1011008,1274756,29,Woman
106,712937,DepthScenes,duration_manipulation_targetAtFixation,jsons/VE125_randls_24_rotated.json,http://54.235.29.9/FacialAge/BNav_EC2/DepthDuration/v2_depth_duration_MTurk/v2_DepthDuration_HTML.html#70,70,1280,913,1280,1024,8-21-2022,7-26-37,107,depth_duration_stimuli/001449_2014-06-19_17-01-27_260595134347_rgbf000116-resize_2/001449_2014-06-19_17-01-27_260595134347_rgbf000116-resize_2-target.png,125,3.452,5.0,2792,124,meters,jsons/VE125_randls_24_rotated.json,1011008,1274756,29,Woman
107,712937,DepthScenes,duration_manipulation_targetAtFixation,jsons/VE125_randls_24_rotated.json,http://54.235.29.9/FacialAge/BNav_EC2/DepthDuration/v2_depth_duration_MTurk/v2_DepthDuration_HTML.html#70,70,1280,913,1280,1024,8-21-2022,7-26-37,108,depth_duration_stimuli/001136_2014-06-17_15-19-41_260595134347_rgbf000076-resize_3/001136_2014-06-17_15-19-41_260595134347_rgbf000076-resize_3-target.png,125,1.8655,4.0,3707,125,meters,jsons/VE125_randls_24_rotated.json,1011008,1274756,29,Woman
108,712937,DepthScenes,duration_manipulation_targetAtFixation,jsons/VE125_randls_24_rotated.json,http://54.235.29.9/FacialAge/BNav_EC2/DepthDuration/v2_depth_duration_MTurk/v2_DepthDuration_HTML.html#70,70,1280,913,1280,1024,8-21-2022,7-26-37,109,depth_duration_stimuli/001164_2014-06-17_15-35-46_260595134347_rgbf000085-resize_3/001164_2014-06-17_15-35-46_260595134347_rgbf000085-resize_3-target.png,125,2.354,5.0,2973,127,meters,jsons/VE125_randls_24_rotated.json,1011008,1274756,29,Woman
109,712937,DepthScenes,duration_manipulation_targetAtFixation,jsons/VE125_randls_24_rotated.json,http://54.235.29.9/FacialAge/BNav_EC2/DepthDuration/v2_depth_duration_MTurk/v2_DepthDuration_HTML.html#70,70,1280,913,1280,1024,8-21-2022,7-26-37,110,depth_duration_stimuli/002103_2014-06-25_20-00-40_260595134347_rgbf000049-resize_0/002103_2014-06-25_20-00-40_260595134347_rgbf000049-resize_0-target.png,125,4.105,4.0,3685,137,meters,jsons/VE125_randls_24_rotated.json,1011008,1274756,29,Woman
110,712937,DepthScenes,duration_manipulation_targetAtFixation,jsons/VE125_randls_24_rotated.json,http://54.235.29.9/FacialAge/BNav_EC2/DepthDuration/v2_depth_duration_MTurk/v2_DepthDuration_HTML.html#70,70,1280,913,1280,1024,8-21-2022,7-26-37,111,depth_duration_stimuli/002039_2014-06-24_20-22-38_260595134347_rgbf000084-resize_1/002039_2014-06-24_20-22-38_260595134347_rgbf000084-resize_1-target.png,125,4.408,5.0,3029,128,meters,jsons/VE125_randls_24_rotated.json,1011008,1274756,29,Woman
111,712937,DepthScenes,duration_manipulation_targetAtFixation,jsons/VE125_randls_24_rotated.json,http://54.235.29.9/FacialAge/BNav_EC2/DepthDuration/v2_depth_duration_MTurk/v2_DepthDuration_HTML.html#70,70,1280,913,1280,1024,8-21-2022,7-26-37,112,depth_duration_stimuli/001052_2014-06-08_18-24-54_260595134347_rgbf000130-resize_1/001052_2014-06-08_18-24-54_260595134347_rgbf000130-resize_1-target.png,125,4.1045,6.0,4035,124,meters,jsons/VE125_randls_24_rotated.json,1011008,1274756,29,Woman
112,712937,DepthScenes,duration_manipulation_targetAtFixation,jsons/VE125_randls_24_rotated.json,http://54.235.29.9/FacialAge/BNav_EC2/DepthDuration/v2_depth_duration_MTurk/v2_DepthDuration_HTML.html#70,70,1280,913,1280,1024,8-21-2022,7-26-37,113,depth_duration_stimuli/002988_2014-06-15_12-24-20_094959634447_rgbf000150-resize_1/002988_2014-06-15_12-24-20_094959634447_rgbf000150-resize_1-target.png,125,4.7669999999999995,4.0,2823,125,meters,jsons/VE125_randls_24_rotated.json,1011008,1274756,29,Woman
113,712937,DepthScenes,duration_manipulation_targetAtFixation,jsons/VE125_randls_24_rotated.json,http://54.235.29.9/FacialAge/BNav_EC2/DepthDuration/v2_depth_duration_MTurk/v2_DepthDuration_HTML.html#70,70,1280,913,1280,1024,8-21-2022,7-26-37,114,depth_duration_stimuli/001650_2014-06-20_12-09-00_260595134347_rgbf000087-resize_3/001650_2014-06-20_12-09-00_260595134347_rgbf000087-resize_3-target.png,125,1.9505,5.0,3690,133,meters,jsons/VE125_randls_24_rotated.json,1011008,1274756,29,Woman
114,712937,DepthScenes,duration_manipulation_targetAtFixation,jsons/VE125_randls_24_rotated.json,http://54.235.29.9/FacialAge/BNav_EC2/DepthDuration/v2_depth_duration_MTurk/v2_DepthDuration_HTML.html#70,70,1280,913,1280,1024,8-21-2022,7-26-37,115,depth_duration_stimuli/000682_2014-06-08_23-14-58_260595134347_rgbf000041-resize_5/000682_2014-06-08_23-14-58_260595134347_rgbf000041-resize_5-target.png,125,2.7239999999999998,4.0,3714,124,meters,jsons/VE125_randls_24_rotated.json,1011008,1274756,29,Woman
115,712937,DepthScenes,duration_manipulation_targetAtFixation,jsons/VE125_randls_24_rotated.json,http://54.235.29.9/FacialAge/BNav_EC2/DepthDuration/v2_depth_duration_MTurk/v2_DepthDuration_HTML.html#70,70,1280,913,1280,1024,8-21-2022,7-26-37,116,depth_duration_stimuli/000549_2014-06-08_22-10-24_260595134347_rgbf000247-resize_3/000549_2014-06-08_22-10-24_260595134347_rgbf000247-resize_3-target.png,125,1.841,5.0,6647,139,meters,jsons/VE125_randls_24_rotated.json,1011008,1274756,29,Woman
116,712937,DepthScenes,duration_manipulation_targetAtFixation,jsons/VE125_randls_24_rotated.json,http://54.235.29.9/FacialAge/BNav_EC2/DepthDuration/v2_depth_duration_MTurk/v2_DepthDuration_HTML.html#70,70,1280,913,1280,1024,8-21-2022,7-26-37,117,depth_duration_stimuli/001055_2014-06-08_18-45-35_260595134347_rgbf000111-resize_4/001055_2014-06-08_18-45-35_260595134347_rgbf000111-resize_4-target.png,125,2.4290000000000003,4.0,3624,126,meters,jsons/VE125_randls_24_rotated.json,1011008,1274756,29,Woman
117,712937,DepthScenes,duration_manipulation_targetAtFixation,jsons/VE125_randls_24_rotated.json,http://54.235.29.9/FacialAge/BNav_EC2/DepthDuration/v2_depth_duration_MTurk/v2_DepthDuration_HTML.html#70,70,1280,913,1280,1024,8-21-2022,7-26-37,118,depth_duration_stimuli/002805_2014-06-22_19-54-03_094959634447_rgbf000079-resize_1/002805_2014-06-22_19-54-03_094959634447_rgbf000079-resize_1-target.png,125,3.1439999999999997,4.0,10151,125,meters,jsons/VE125_randls_24_rotated.json,1011008,1274756,29,Woman
118,712937,DepthScenes,duration_manipulation_targetAtFixation,jsons/VE125_randls_24_rotated.json,http://54.235.29.9/FacialAge/BNav_EC2/DepthDuration/v2_depth_duration_MTurk/v2_DepthDuration_HTML.html#70,70,1280,913,1280,1024,8-21-2022,7-26-37,119,depth_duration_stimuli/000906_2014-06-08_13-35-43_260595134347_rgbf000155-resize_1/000906_2014-06-08_13-35-43_260595134347_rgbf000155-resize_1-target.png,125,2.8489999999999998,4.0,2370,111,meters,jsons/VE125_randls_24_rotated.json,1011008,1274756,29,Woman
119,712937,DepthScenes,duration_manipulation_targetAtFixation,jsons/VE125_randls_24_rotated.json,http://54.235.29.9/FacialAge/BNav_EC2/DepthDuration/v2_depth_duration_MTurk/v2_DepthDuration_HTML.html#70,70,1280,913,1280,1024,8-21-2022,7-26-37,120,depth_duration_stimuli/000787_2014-06-08_22-33-53_260595134347_rgbf000175-resize_1/000787_2014-06-08_22-33-53_260595134347_rgbf000175-resize-original.jpg,125,4.784,0.0,9074,127,meters,jsons/VE125_randls_24_rotated.json,1011008,1274756,29,Woman
120,712937,DepthScenes,duration_manipulation_targetAtFixation,jsons/VE125_randls_24_rotated.json,http://54.235.29.9/FacialAge/BNav_EC2/DepthDuration/v2_depth_duration_MTurk/v2_DepthDuration_HTML.html#70,70,1280,913,1280,1024,8-21-2022,7-26-37,121,depth_duration_stimuli/001132_2014-06-17_14-48-54_260595134347_rgbf000100-resize_2/001132_2014-06-17_14-48-54_260595134347_rgbf000100-resize_2-target.png,125,3.753,4.0,7589,124,meters,jsons/VE125_randls_24_rotated.json,1011008,1274756,29,Woman
121,712937,DepthScenes,duration_manipulation_targetAtFixation,jsons/VE125_randls_24_rotated.json,http://54.235.29.9/FacialAge/BNav_EC2/DepthDuration/v2_depth_duration_MTurk/v2_DepthDuration_HTML.html#70,70,1280,913,1280,1024,8-21-2022,7-26-37,122,depth_duration_stimuli/001133_2014-06-17_14-49-16_260595134347_rgbf000100-resize_0/001133_2014-06-17_14-49-16_260595134347_rgbf000100-resize_0-target.png,125,4.2115,4.0,12906,130,meters,jsons/VE125_randls_24_rotated.json,1011008,1274756,29,Woman
122,712937,DepthScenes,duration_manipulation_targetAtFixation,jsons/VE125_randls_24_rotated.json,http://54.235.29.9/FacialAge/BNav_EC2/DepthDuration/v2_depth_duration_MTurk/v2_DepthDuration_HTML.html#70,70,1280,913,1280,1024,8-21-2022,7-26-37,123,depth_duration_stimuli/000502_2014-06-08_23-02-32_260595134347_rgbf000063-resize_4/000502_2014-06-08_23-02-32_260595134347_rgbf000063-resize_4-target.png,125,2.431,4.0,15853,126,meters,jsons/VE125_randls_24_rotated.json,1011008,1274756,29,Woman
123,712937,DepthScenes,duration_manipulation_targetAtFixation,jsons/VE125_randls_24_rotated.json,http://54.235.29.9/FacialAge/BNav_EC2/DepthDuration/v2_depth_duration_MTurk/v2_DepthDuration_HTML.html#70,70,1280,913,1280,1024,8-21-2022,7-26-37,124,depth_duration_stimuli/001199_2014-06-17_16-03-48_260595134347_rgbf000077-resize_0/001199_2014-06-17_16-03-48_260595134347_rgbf000077-resize_0-target.png,125,3.4375,5.0,3242,124,meters,jsons/VE125_randls_24_rotated.json,1011008,1274756,29,Woman
124,712937,DepthScenes,duration_manipulation_targetAtFixation,jsons/VE125_randls_24_rotated.json,http://54.235.29.9/FacialAge/BNav_EC2/DepthDuration/v2_depth_duration_MTurk/v2_DepthDuration_HTML.html#70,70,1280,913,1280,1024,8-21-2022,7-26-37,125,depth_duration_stimuli/003495_2014-05-21_16-01-51_094959634447_rgbf000100-resize_3/003495_2014-05-21_16-01-51_094959634447_rgbf000100-resize_3-target.png,125,1.6255,3.0,6585,127,meters,jsons/VE125_randls_24_rotated.json,1011008,1274756,29,Woman
125,712937,DepthScenes,duration_manipulation_targetAtFixation,jsons/VE125_randls_24_rotated.json,http://54.235.29.9/FacialAge/BNav_EC2/DepthDuration/v2_depth_duration_MTurk/v2_DepthDuration_HTML.html#70,70,1280,913,1280,1024,8-21-2022,7-26-37,126,depth_duration_stimuli/001244_2014-06-17_16-47-45_260595134347_rgbf000030-resize_4/001244_2014-06-17_16-47-45_260595134347_rgbf000030-resize_4-target.png,125,2.0425,5.0,4253,125,meters,jsons/VE125_randls_24_rotated.json,1011008,1274756,29,Woman
126,712937,DepthScenes,duration_manipulation_targetAtFixation,jsons/VE125_randls_24_rotated.json,http://54.235.29.9/FacialAge/BNav_EC2/DepthDuration/v2_depth_duration_MTurk/v2_DepthDuration_HTML.html#70,70,1280,913,1280,1024,8-21-2022,7-26-37,127,depth_duration_stimuli/000635_2014-06-08_16-38-42_260595134347_rgbf000106-resize_1/000635_2014-06-08_16-38-42_260595134347_rgbf000106-resize_1-target.png,125,2.074,4.0,4207,122,meters,jsons/VE125_randls_24_rotated.json,1011008,1274756,29,Woman
127,712937,DepthScenes,duration_manipulation_targetAtFixation,jsons/VE125_randls_24_rotated.json,http://54.235.29.9/FacialAge/BNav_EC2/DepthDuration/v2_depth_duration_MTurk/v2_DepthDuration_HTML.html#70,70,1280,913,1280,1024,8-21-2022,7-26-37,128,depth_duration_stimuli/002279_2014-06-28_18-55-32_260595134347_rgbf000040-resize_5/002279_2014-06-28_18-55-32_260595134347_rgbf000040-resize_5-target.png,125,1.5043333333333,0.0,3024,116,meters,jsons/VE125_randls_24_rotated.json,1011008,1274756,29,Woman
128,712937,DepthScenes,duration_manipulation_targetAtFixation,jsons/VE125_randls_24_rotated.json,http://54.235.29.9/FacialAge/BNav_EC2/DepthDuration/v2_depth_duration_MTurk/v2_DepthDuration_HTML.html#70,70,1280,913,1280,1024,8-21-2022,7-26-37,129,depth_duration_stimuli/001094_2014-06-15_17-36-00_260595134347_rgbf000205-resize_0/001094_2014-06-15_17-36-00_260595134347_rgbf000205-resize_0-target.png,125,4.2175,8.0,3694,125,meters,jsons/VE125_randls_24_rotated.json,1011008,1274756,29,Woman
129,712937,DepthScenes,duration_manipulation_targetAtFixation,jsons/VE125_randls_24_rotated.json,http://54.235.29.9/FacialAge/BNav_EC2/DepthDuration/v2_depth_duration_MTurk/v2_DepthDuration_HTML.html#70,70,1280,913,1280,1024,8-21-2022,7-26-37,130,depth_duration_stimuli/000692_2014-06-08_13-09-42_260595134347_rgbf000199-resize_2/000692_2014-06-08_13-09-42_260595134347_rgbf000199-resize_2-target.png,125,3.661,4.0,2272,126,meters,jsons/VE125_randls_24_rotated.json,1011008,1274756,29,Woman
130,712937,DepthScenes,duration_manipulation_targetAtFixation,jsons/VE125_randls_24_rotated.json,http://54.235.29.9/FacialAge/BNav_EC2/DepthDuration/v2_depth_duration_MTurk/v2_DepthDuration_HTML.html#70,70,1280,913,1280,1024,8-21-2022,7-26-37,131,depth_duration_stimuli/002758_2014-06-22_19-11-20_094959634447_rgbf000128-resize_1/002758_2014-06-22_19-11-20_094959634447_rgbf000128-resize_1-target.png,125,2.555,5.0,4824,47,meters,jsons/VE125_randls_24_rotated.json,1011008,1274756,29,Woman
131,712937,DepthScenes,duration_manipulation_targetAtFixation,jsons/VE125_randls_24_rotated.json,http://54.235.29.9/FacialAge/BNav_EC2/DepthDuration/v2_depth_duration_MTurk/v2_DepthDuration_HTML.html#70,70,1280,913,1280,1024,8-21-2022,7-26-37,132,depth_duration_stimuli/002630_2014-06-24_14-47-50_094959634447_rgbf000055-resize_1/002630_2014-06-24_14-47-50_094959634447_rgbf000055-resize_1-target.png,125,3.0095,5.0,3673,114,meters,jsons/VE125_randls_24_rotated.json,1011008,1274756,29,Woman
132,712937,DepthScenes,duration_manipulation_targetAtFixation,jsons/VE125_randls_24_rotated.json,http://54.235.29.9/FacialAge/BNav_EC2/DepthDuration/v2_depth_duration_MTurk/v2_DepthDuration_HTML.html#70,70,1280,913,1280,1024,8-21-2022,7-26-37,133,depth_duration_stimuli/002750_2014-06-22_19-08-03_094959634447_rgbf000094-resize_4/002750_2014-06-22_19-08-03_094959634447_rgbf000094-resize_4-target.png,125,2.354,4.0,4922,125,meters,jsons/VE125_randls_24_rotated.json,1011008,1274756,29,Woman
133,712937,DepthScenes,duration_manipulation_targetAtFixation,jsons/VE125_randls_24_rotated.json,http://54.235.29.9/FacialAge/BNav_EC2/DepthDuration/v2_depth_duration_MTurk/v2_DepthDuration_HTML.html#70,70,1280,913,1280,1024,8-21-2022,7-26-37,134,depth_duration_stimuli/002549_2014-06-24_13-41-39_094959634447_rgbf000022-resize_3/002549_2014-06-24_13-41-39_094959634447_rgbf000022-resize_3-target.png,125,1.476,5.0,2808,125,meters,jsons/VE125_randls_24_rotated.json,1011008,1274756,29,Woman
134,712937,DepthScenes,duration_manipulation_targetAtFixation,jsons/VE125_randls_24_rotated.json,http://54.235.29.9/FacialAge/BNav_EC2/DepthDuration/v2_depth_duration_MTurk/v2_DepthDuration_HTML.html#70,70,1280,913,1280,1024,8-21-2022,7-26-37,135,depth_duration_stimuli/000375_2014-06-08_11-17-29_260595134347_rgbf000133-resize_2/000375_2014-06-08_11-17-29_260595134347_rgbf000133-resize-original.jpg,125,4.718,0.0,3840,125,meters,jsons/VE125_randls_24_rotated.json,1011008,1274756,29,Woman
135,712937,DepthScenes,duration_manipulation_targetAtFixation,jsons/VE125_randls_24_rotated.json,http://54.235.29.9/FacialAge/BNav_EC2/DepthDuration/v2_depth_duration_MTurk/v2_DepthDuration_HTML.html#70,70,1280,913,1280,1024,8-21-2022,7-26-37,136,depth_duration_stimuli/002136_2014-06-25_21-18-03_260595134347_rgbf000109-resize_3/002136_2014-06-25_21-18-03_260595134347_rgbf000109-resize_3-target.png,125,1.9569999999999999,4.0,4660,126,meters,jsons/VE125_randls_24_rotated.json,1011008,1274756,29,Woman
136,712937,DepthScenes,duration_manipulation_targetAtFixation,jsons/VE125_randls_24_rotated.json,http://54.235.29.9/FacialAge/BNav_EC2/DepthDuration/v2_depth_duration_MTurk/v2_DepthDuration_HTML.html#70,70,1280,913,1280,1024,8-21-2022,7-26-37,137,depth_duration_stimuli/002964_2014-06-08_17-46-11_094959634447_rgbf000091-resize_4/002964_2014-06-08_17-46-11_094959634447_rgbf000091-resize_4-target.png,125,1.6909999999999998,0.0,2905,127,meters,jsons/VE125_randls_24_rotated.json,1011008,1274756,29,Woman
137,712937,DepthScenes,duration_manipulation_targetAtFixation,jsons/VE125_randls_24_rotated.json,http://54.235.29.9/FacialAge/BNav_EC2/DepthDuration/v2_depth_duration_MTurk/v2_DepthDuration_HTML.html#70,70,1280,913,1280,1024,8-21-2022,7-26-37,138,depth_duration_stimuli/002953_2014-06-08_17-32-18_094959634447_rgbf000059-resize_5/002953_2014-06-08_17-32-18_094959634447_rgbf000059-resize_5-target.png,125,1.551,25.0,3431,125,meters,jsons/VE125_randls_24_rotated.json,1011008,1274756,29,Woman
138,712937,DepthScenes,duration_manipulation_targetAtFixation,jsons/VE125_randls_24_rotated.json,http://54.235.29.9/FacialAge/BNav_EC2/DepthDuration/v2_depth_duration_MTurk/v2_DepthDuration_HTML.html#70,70,1280,913,1280,1024,8-21-2022,7-26-37,139,depth_duration_stimuli/000878_2014-06-08_22-52-45_260595134347_rgbf000045-resize_2/000878_2014-06-08_22-52-45_260595134347_rgbf000045-resize_2-target.png,125,2.092,4.0,2278,124,meters,jsons/VE125_randls_24_rotated.json,1011008,1274756,29,Woman
139,712937,DepthScenes,duration_manipulation_targetAtFixation,jsons/VE125_randls_24_rotated.json,http://54.235.29.9/FacialAge/BNav_EC2/DepthDuration/v2_depth_duration_MTurk/v2_DepthDuration_HTML.html#70,70,1280,913,1280,1024,8-21-2022,7-26-37,140,depth_duration_stimuli/002467_2014-06-28_20-38-07_260595134347_rgbf000026-resize_2/002467_2014-06-28_20-38-07_260595134347_rgbf000026-resize_2-target.png,125,4.742,2.0,3309,117,meters,jsons/VE125_randls_24_rotated.json,1011008,1274756,29,Woman
140,712937,DepthScenes,duration_manipulation_targetAtFixation,jsons/VE125_randls_24_rotated.json,http://54.235.29.9/FacialAge/BNav_EC2/DepthDuration/v2_depth_duration_MTurk/v2_DepthDuration_HTML.html#70,70,1280,913,1280,1024,8-21-2022,7-26-37,141,depth_duration_stimuli/002570_2014-06-24_13-59-54_094959634447_rgbf000059-resize_0/002570_2014-06-24_13-59-54_094959634447_rgbf000059-resize_0-target.png,125,4.037,5.0,2098,113,meters,jsons/VE125_randls_24_rotated.json,1011008,1274756,29,Woman
141,712937,DepthScenes,duration_manipulation_targetAtFixation,jsons/VE125_randls_24_rotated.json,http://54.235.29.9/FacialAge/BNav_EC2/DepthDuration/v2_depth_duration_MTurk/v2_DepthDuration_HTML.html#70,70,1280,913,1280,1024,8-21-2022,7-26-37,142,depth_duration_stimuli/002344_2014-06-28_20-06-29_260595134347_rgbf000030-resize_1/002344_2014-06-28_20-06-29_260595134347_rgbf000030-resize_1-target.png,125,1.5795,2.0,11138,125,meters,jsons/VE125_randls_24_rotated.json,1011008,1274756,29,Woman
142,712937,DepthScenes,duration_manipulation_targetAtFixation,jsons/VE125_randls_24_rotated.json,http://54.235.29.9/FacialAge/BNav_EC2/DepthDuration/v2_depth_duration_MTurk/v2_DepthDuration_HTML.html#70,70,1280,913,1280,1024,8-21-2022,7-26-37,143,depth_duration_stimuli/002725_2014-06-22_11-47-51_094959634447_rgbf000070-resize_1/002725_2014-06-22_11-47-51_094959634447_rgbf000070-resize_1-target.png,125,2.195,4.0,3130,222,meters,jsons/VE125_randls_24_rotated.json,1011008,1274756,29,Woman
143,712937,DepthScenes,duration_manipulation_targetAtFixation,jsons/VE125_randls_24_rotated.json,http://54.235.29.9/FacialAge/BNav_EC2/DepthDuration/v2_depth_duration_MTurk/v2_DepthDuration_HTML.html#70,70,1280,913,1280,1024,8-21-2022,7-26-37,144,depth_duration_stimuli/001617_2014-06-20_11-35-32_260595134347_rgbf000066-resize_1/001617_2014-06-20_11-35-32_260595134347_rgbf000066-resize_1-target.png,125,3.7910000000000004,2.0,3802,125,meters,jsons/VE125_randls_24_rotated.json,1011008,1274756,29,Woman
144,712937,DepthScenes,duration_manipulation_targetAtFixation,jsons/VE125_randls_24_rotated.json,http://54.235.29.9/FacialAge/BNav_EC2/DepthDuration/v2_depth_duration_MTurk/v2_DepthDuration_HTML.html#70,70,1280,913,1280,1024,8-21-2022,7-26-37,145,depth_duration_stimuli/001806_2014-06-26_20-50-20_260595134347_rgbf000091-resize_1/001806_2014-06-26_20-50-20_260595134347_rgbf000091-resize_1-target.png,125,2.7305,4.0,4008,129,meters,jsons/VE125_randls_24_rotated.json,1011008,1274756,29,Woman
145,712937,DepthScenes,duration_manipulation_targetAtFixation,jsons/VE125_randls_24_rotated.json,http://54.235.29.9/FacialAge/BNav_EC2/DepthDuration/v2_depth_duration_MTurk/v2_DepthDuration_HTML.html#70,70,1280,913,1280,1024,8-21-2022,7-26-37,146,depth_duration_stimuli/002323_2014-06-28_20-01-54_260595134347_rgbf000051-resize_4/002323_2014-06-28_20-01-54_260595134347_rgbf000051-resize_4-target.png,125,3.7310000000000003,5.0,5962,124,meters,jsons/VE125_randls_24_rotated.json,1011008,1274756,29,Woman
146,712937,DepthScenes,duration_manipulation_targetAtFixation,jsons/VE125_randls_24_rotated.json,http://54.235.29.9/FacialAge/BNav_EC2/DepthDuration/v2_depth_duration_MTurk/v2_DepthDuration_HTML.html#70,70,1280,913,1280,1024,8-21-2022,7-26-37,147,depth_duration_stimuli/000917_2014-06-09_22-45-29_260595134347_rgbf000149-resize_3/000917_2014-06-09_22-45-29_260595134347_rgbf000149-resize_3-target.png,125,4.1865,4.0,3366,124,meters,jsons/VE125_randls_24_rotated.json,1011008,1274756,29,Woman
147,712937,DepthScenes,duration_manipulation_targetAtFixation,jsons/VE125_randls_24_rotated.json,http://54.235.29.9/FacialAge/BNav_EC2/DepthDuration/v2_depth_duration_MTurk/v2_DepthDuration_HTML.html#70,70,1280,913,1280,1024,8-21-2022,7-26-37,148,depth_duration_stimuli/001214_2014-06-17_16-13-55_260595134347_rgbf000111-resize_0/001214_2014-06-17_16-13-55_260595134347_rgbf000111-resize_0-target.png,125,2.6505,4.0,3631,125,meters,jsons/VE125_randls_24_rotated.json,1011008,1274756,29,Woman
148,712937,DepthScenes,duration_manipulation_targetAtFixation,jsons/VE125_randls_24_rotated.json,http://54.235.29.9/FacialAge/BNav_EC2/DepthDuration/v2_depth_duration_MTurk/v2_DepthDuration_HTML.html#70,70,1280,913,1280,1024,8-21-2022,7-26-37,149,depth_duration_stimuli/000810_2014-06-08_17-20-01_260595134347_rgbf000105-resize_0/000810_2014-06-08_17-20-01_260595134347_rgbf000105-resize_0-target.png,125,1.4865,5.0,2452,111,meters,jsons/VE125_randls_24_rotated.json,1011008,1274756,29,Woman
149,712937,DepthScenes,duration_manipulation_targetAtFixation,jsons/VE125_randls_24_rotated.json,http://54.235.29.9/FacialAge/BNav_EC2/DepthDuration/v2_depth_duration_MTurk/v2_DepthDuration_HTML.html#70,70,1280,913,1280,1024,8-21-2022,7-26-37,150,depth_duration_stimuli/000483_2014-06-09_20-41-45_260595134347_rgbf000116-resize_4/000483_2014-06-09_20-41-45_260595134347_rgbf000116-resize_4-target.png,125,1.337,4.0,2835,109,meters,jsons/VE125_randls_24_rotated.json,1011008,1274756,29,Woman
150,712937,DepthScenes,duration_manipulation_targetAtFixation,jsons/VE125_randls_24_rotated.json,http://54.235.29.9/FacialAge/BNav_EC2/DepthDuration/v2_depth_duration_MTurk/v2_DepthDuration_HTML.html#70,70,1280,913,1280,1024,8-21-2022,7-26-37,151,depth_duration_stimuli/000469_2014-06-09_19-42-10_260595134347_rgbf000081-resize_1/000469_2014-06-09_19-42-10_260595134347_rgbf000081-resize_1-target.png,125,1.652,5.0,2160,170,meters,jsons/VE125_randls_24_rotated.json,1011008,1274756,29,Woman
151,712937,DepthScenes,duration_manipulation_targetAtFixation,jsons/VE125_randls_24_rotated.json,http://54.235.29.9/FacialAge/BNav_EC2/DepthDuration/v2_depth_duration_MTurk/v2_DepthDuration_HTML.html#70,70,1280,913,1280,1024,8-21-2022,7-26-37,152,depth_duration_stimuli/000569_2014-06-09_22-51-47_260595134347_rgbf000141-resize_3/000569_2014-06-09_22-51-47_260595134347_rgbf000141-resize-original.jpg,125,4.512,0.0,3381,125,meters,jsons/VE125_randls_24_rotated.json,1011008,1274756,29,Woman
152,712937,DepthScenes,duration_manipulation_targetAtFixation,jsons/VE125_randls_24_rotated.json,http://54.235.29.9/FacialAge/BNav_EC2/DepthDuration/v2_depth_duration_MTurk/v2_DepthDuration_HTML.html#70,70,1280,913,1280,1024,8-21-2022,7-26-37,153,depth_duration_stimuli/000943_2014-06-09_19-31-07_260595134347_rgbf000128-resize_1/000943_2014-06-09_19-31-07_260595134347_rgbf000128-resize_1-target.png,125,1.9765,4.0,4057,125,meters,jsons/VE125_randls_24_rotated.json,1011008,1274756,29,Woman
153,712937,DepthScenes,duration_manipulation_targetAtFixation,jsons/VE125_randls_24_rotated.json,http://54.235.29.9/FacialAge/BNav_EC2/DepthDuration/v2_depth_duration_MTurk/v2_DepthDuration_HTML.html#70,70,1280,913,1280,1024,8-21-2022,7-26-37,154,depth_duration_stimuli/003070_2014-06-15_14-58-27_094959634447_rgbf000150-resize_3/003070_2014-06-15_14-58-27_094959634447_rgbf000150-resize_3-target.png,125,2.9415,4.0,2325,124,meters,jsons/VE125_randls_24_rotated.json,1011008,1274756,29,Woman
154,712937,DepthScenes,duration_manipulation_targetAtFixation,jsons/VE125_randls_24_rotated.json,http://54.235.29.9/FacialAge/BNav_EC2/DepthDuration/v2_depth_duration_MTurk/v2_DepthDuration_HTML.html#70,70,1280,913,1280,1024,8-21-2022,7-26-37,155,depth_duration_stimuli/001235_2014-06-17_16-37-36_260595134347_rgbf000084-resize_4/001235_2014-06-17_16-37-36_260595134347_rgbf000084-resize_4-target.png,125,3.6605,5.0,6444,125,meters,jsons/VE125_randls_24_rotated.json,1011008,1274756,29,Woman
155,712937,DepthScenes,duration_manipulation_targetAtFixation,jsons/VE125_randls_24_rotated.json,http://54.235.29.9/FacialAge/BNav_EC2/DepthDuration/v2_depth_duration_MTurk/v2_DepthDuration_HTML.html#70,70,1280,913,1280,1024,8-21-2022,7-26-37,156,depth_duration_stimuli/000788_2014-06-08_22-34-36_260595134347_rgbf000131-resize_1/000788_2014-06-08_22-34-36_260595134347_rgbf000131-resize_1-target.png,125,3.359,2.0,63048,126,meters,jsons/VE125_randls_24_rotated.json,1011008,1274756,29,Woman
156,712937,DepthScenes,duration_manipulation_targetAtFixation,jsons/VE125_randls_24_rotated.json,http://54.235.29.9/FacialAge/BNav_EC2/DepthDuration/v2_depth_duration_MTurk/v2_DepthDuration_HTML.html#70,70,1280,913,1280,1024,8-21-2022,7-26-37,157,depth_duration_stimuli/000866_2014-06-09_20-45-42_260595134347_rgbf000139-resize_1/000866_2014-06-09_20-45-42_260595134347_rgbf000139-resize_1-target.png,125,3.2155,4.0,4156,124,meters,jsons/VE125_randls_24_rotated.json,1011008,1274756,29,Woman
157,712937,DepthScenes,duration_manipulation_targetAtFixation,jsons/VE125_randls_24_rotated.json,http://54.235.29.9/FacialAge/BNav_EC2/DepthDuration/v2_depth_duration_MTurk/v2_DepthDuration_HTML.html#70,70,1280,913,1280,1024,8-21-2022,7-26-37,158,depth_duration_stimuli/002989_2014-06-15_12-25-03_094959634447_rgbf000150-resize_3/002989_2014-06-15_12-25-03_094959634447_rgbf000150-resize_3-target.png,125,4.1975,5.0,2171,123,meters,jsons/VE125_randls_24_rotated.json,1011008,1274756,29,Woman
158,712937,DepthScenes,duration_manipulation_targetAtFixation,jsons/VE125_randls_24_rotated.json,http://54.235.29.9/FacialAge/BNav_EC2/DepthDuration/v2_depth_duration_MTurk/v2_DepthDuration_HTML.html#70,70,1280,913,1280,1024,8-21-2022,7-26-37,159,depth_duration_stimuli/002995_2014-06-15_12-31-26_094959634447_rgbf000150-resize_1/002995_2014-06-15_12-31-26_094959634447_rgbf000150-resize_1-target.png,125,3.8360000000000003,4.0,5447,133,meters,jsons/VE125_randls_24_rotated.json,1011008,1274756,29,Woman
159,712937,DepthScenes,duration_manipulation_targetAtFixation,jsons/VE125_randls_24_rotated.json,http://54.235.29.9/FacialAge/BNav_EC2/DepthDuration/v2_depth_duration_MTurk/v2_DepthDuration_HTML.html#70,70,1280,913,1280,1024,8-21-2022,7-26-37,160,depth_duration_stimuli/002748_2014-06-22_19-07-22_094959634447_rgbf000078-resize_1/002748_2014-06-22_19-07-22_094959634447_rgbf000078-resize_1-target.png,125,4.6705,5.0,2260,134,meters,jsons/VE125_randls_24_rotated.json,1011008,1274756,29,Woman
160,712937,DepthScenes,duration_manipulation_targetAtFixation,jsons/VE125_randls_24_rotated.json,http://54.235.29.9/FacialAge/BNav_EC2/DepthDuration/v2_depth_duration_MTurk/v2_DepthDuration_HTML.html#70,70,1280,913,1280,1024,8-21-2022,7-26-37,161,depth_duration_stimuli/002209_2014-06-28_18-36-10_260595134347_rgbf000051-resize_1/002209_2014-06-28_18-36-10_260595134347_rgbf000051-resize_1-target.png,125,2.057,1.0,3588,127,meters,jsons/VE125_randls_24_rotated.json,1011008,1274756,29,Woman
161,712937,DepthScenes,duration_manipulation_targetAtFixation,jsons/VE125_randls_24_rotated.json,http://54.235.29.9/FacialAge/BNav_EC2/DepthDuration/v2_depth_duration_MTurk/v2_DepthDuration_HTML.html#70,70,1280,913,1280,1024,8-21-2022,7-26-37,162,depth_duration_stimuli/002763_2014-06-22_19-13-10_094959634447_rgbf000075-resize_4/002763_2014-06-22_19-13-10_094959634447_rgbf000075-resize_4-target.png,125,1.68375,5.0,2313,125,meters,jsons/VE125_randls_24_rotated.json,1011008,1274756,29,Woman
162,712937,DepthScenes,duration_manipulation_targetAtFixation,jsons/VE125_randls_24_rotated.json,http://54.235.29.9/FacialAge/BNav_EC2/DepthDuration/v2_depth_duration_MTurk/v2_DepthDuration_HTML.html#70,70,1280,913,1280,1024,8-21-2022,7-26-37,163,depth_duration_stimuli/002660_2014-06-13_15-44-18_094959634447_rgbf001878-resize_2/002660_2014-06-13_15-44-18_094959634447_rgbf001878-resize_2-target.png,125,3.576,6.0,6991,123,meters,jsons/VE125_randls_24_rotated.json,1011008,1274756,29,Woman
163,712937,DepthScenes,duration_manipulation_targetAtFixation,jsons/VE125_randls_24_rotated.json,http://54.235.29.9/FacialAge/BNav_EC2/DepthDuration/v2_depth_duration_MTurk/v2_DepthDuration_HTML.html#70,70,1280,913,1280,1024,8-21-2022,7-26-37,164,depth_duration_stimuli/002153_2014-06-25_21-27-18_260595134347_rgbf000038-resize_5/002153_2014-06-25_21-27-18_260595134347_rgbf000038-resize_5-target.png,125,2.505,5.0,3416,126,meters,jsons/VE125_randls_24_rotated.json,1011008,1274756,29,Woman
