,subjID,experimentName,versionName,sequenceName,url,selected_row,windowWidth,windowHeight,screenWidth,screenHeight,startDate,startTime,trial,stimulus,duration,actual_depth,depth_estimate,trial_RT,log_sceneDuration,unitSelection,seq_filepath,experimentTime,totalTime,age,gender
0,713343,DepthScenes,duration_manipulation_targetAtFixation,jsons/v1_VE250_randls_29_rotated.json,http://54.235.29.9/FacialAge/BNav_EC2/DepthDuration/v2_depth_duration_MTurk/v2_DepthDuration_HTML.html#84,84,1024,625,1024,768,8-20-2022,11-58-12,1,depth_duration_stimuli/001815_2014-06-26_20-52-55_260595134347_rgbf000020-resize_0/001815_2014-06-26_20-52-55_260595134347_rgbf000020-resize_0-target.png,250,3.3865,65,6278,251,feet,jsons/v1_VE250_randls_29_rotated.json,891699,1460706,56,Man
1,713343,DepthScenes,duration_manipulation_targetAtFixation,jsons/v1_VE250_randls_29_rotated.json,http://54.235.29.9/FacialAge/BNav_EC2/DepthDuration/v2_depth_duration_MTurk/v2_DepthDuration_HTML.html#84,84,1024,625,1024,768,8-20-2022,11-58-12,2,depth_duration_stimuli/001808_2014-06-26_20-50-58_260595134347_rgbf000029-resize_1/001808_2014-06-26_20-50-58_260595134347_rgbf000029-resize_1-target.png,250,4.249,70,3887,250,feet,jsons/v1_VE250_randls_29_rotated.json,891699,1460706,56,Man
2,713343,DepthScenes,duration_manipulation_targetAtFixation,jsons/v1_VE250_randls_29_rotated.json,http://54.235.29.9/FacialAge/BNav_EC2/DepthDuration/v2_depth_duration_MTurk/v2_DepthDuration_HTML.html#84,84,1024,625,1024,768,8-20-2022,11-58-12,3,depth_duration_stimuli/001235_2014-06-17_16-37-36_260595134347_rgbf000084-resize_4/001235_2014-06-17_16-37-36_260595134347_rgbf000084-resize_4-target.png,250,3.6605,65,3893,236,feet,jsons/v1_VE250_randls_29_rotated.json,891699,1460706,56,Man
3,713343,DepthScenes,duration_manipulation_targetAtFixation,jsons/v1_VE250_randls_29_rotated.json,http://54.235.29.9/FacialAge/BNav_EC2/DepthDuration/v2_depth_duration_MTurk/v2_DepthDuration_HTML.html#84,84,1024,625,1024,768,8-20-2022,11-58-12,4,depth_duration_stimuli/000788_2014-06-08_22-34-36_260595134347_rgbf000131-resize_1/000788_2014-06-08_22-34-36_260595134347_rgbf000131-resize_1-target.png,250,3.359,70,3700,248,feet,jsons/v1_VE250_randls_29_rotated.json,891699,1460706,56,Man
4,713343,DepthScenes,duration_manipulation_targetAtFixation,jsons/v1_VE250_randls_29_rotated.json,http://54.235.29.9/FacialAge/BNav_EC2/DepthDuration/v2_depth_duration_MTurk/v2_DepthDuration_HTML.html#84,84,1024,625,1024,768,8-20-2022,11-58-12,5,depth_duration_stimuli/000665_2014-06-09_20-42-35_260595134347_rgbf000110-resize_1/000665_2014-06-09_20-42-35_260595134347_rgbf000110-resize_1-target.png,250,3.057,80,4165,259,feet,jsons/v1_VE250_randls_29_rotated.json,891699,1460706,56,Man
5,713343,DepthScenes,duration_manipulation_targetAtFixation,jsons/v1_VE250_randls_29_rotated.json,http://54.235.29.9/FacialAge/BNav_EC2/DepthDuration/v2_depth_duration_MTurk/v2_DepthDuration_HTML.html#84,84,1024,625,1024,768,8-20-2022,11-58-12,6,depth_duration_stimuli/001150_2014-06-17_15-27-34_260595134347_rgbf000108-resize_2/001150_2014-06-17_15-27-34_260595134347_rgbf000108-resize_2-target.png,250,4.0325,65,4210,251,feet,jsons/v1_VE250_randls_29_rotated.json,891699,1460706,56,Man
6,713343,DepthScenes,duration_manipulation_targetAtFixation,jsons/v1_VE250_randls_29_rotated.json,http://54.235.29.9/FacialAge/BNav_EC2/DepthDuration/v2_depth_duration_MTurk/v2_DepthDuration_HTML.html#84,84,1024,625,1024,768,8-20-2022,11-58-12,7,depth_duration_stimuli/002875_2014-06-01_15-19-00_094959634447_rgbf000151-resize_1/002875_2014-06-01_15-19-00_094959634447_rgbf000151-resize_1-target.png,250,1.9675,55,3899,244,feet,jsons/v1_VE250_randls_29_rotated.json,891699,1460706,56,Man
7,713343,DepthScenes,duration_manipulation_targetAtFixation,jsons/v1_VE250_randls_29_rotated.json,http://54.235.29.9/FacialAge/BNav_EC2/DepthDuration/v2_depth_duration_MTurk/v2_DepthDuration_HTML.html#84,84,1024,625,1024,768,8-20-2022,11-58-12,8,depth_duration_stimuli/001011_2014-06-08_23-18-54_260595134347_rgbf000044-resize_4/001011_2014-06-08_23-18-54_260595134347_rgbf000044-resize_4-target.png,250,2.4730000000000003,80,3294,252,feet,jsons/v1_VE250_randls_29_rotated.json,891699,1460706,56,Man
8,713343,DepthScenes,duration_manipulation_targetAtFixation,jsons/v1_VE250_randls_29_rotated.json,http://54.235.29.9/FacialAge/BNav_EC2/DepthDuration/v2_depth_duration_MTurk/v2_DepthDuration_HTML.html#84,84,1024,625,1024,768,8-20-2022,11-58-12,9,depth_duration_stimuli/002340_2014-06-28_20-05-46_260595134347_rgbf000113-resize_0/002340_2014-06-28_20-05-46_260595134347_rgbf000113-resize_0-target.png,250,2.4735,75,3622,246,feet,jsons/v1_VE250_randls_29_rotated.json,891699,1460706,56,Man
9,713343,DepthScenes,duration_manipulation_targetAtFixation,jsons/v1_VE250_randls_29_rotated.json,http://54.235.29.9/FacialAge/BNav_EC2/DepthDuration/v2_depth_duration_MTurk/v2_DepthDuration_HTML.html#84,84,1024,625,1024,768,8-20-2022,11-58-12,10,depth_duration_stimuli/001016_2014-06-09_16-16-10_260595134347_rgbf000112-resize_5/001016_2014-06-09_16-16-10_260595134347_rgbf000112-resize_5-target.png,250,1.6565,50,3743,251,feet,jsons/v1_VE250_randls_29_rotated.json,891699,1460706,56,Man
10,713343,DepthScenes,duration_manipulation_targetAtFixation,jsons/v1_VE250_randls_29_rotated.json,http://54.235.29.9/FacialAge/BNav_EC2/DepthDuration/v2_depth_duration_MTurk/v2_DepthDuration_HTML.html#84,84,1024,625,1024,768,8-20-2022,11-58-12,11,depth_duration_stimuli/000109_2014-05-14_23-41-52_260595134347_rgbf000035-resize_9/000109_2014-05-14_23-41-52_260595134347_rgbf000035-resize_9-target.png,250,1.3545,55,4851,250,feet,jsons/v1_VE250_randls_29_rotated.json,891699,1460706,56,Man
11,713343,DepthScenes,duration_manipulation_targetAtFixation,jsons/v1_VE250_randls_29_rotated.json,http://54.235.29.9/FacialAge/BNav_EC2/DepthDuration/v2_depth_duration_MTurk/v2_DepthDuration_HTML.html#84,84,1024,625,1024,768,8-20-2022,11-58-12,12,depth_duration_stimuli/000470_2014-06-09_19-42-40_260595134347_rgbf000094-resize_1/000470_2014-06-09_19-42-40_260595134347_rgbf000094-resize_1-target.png,250,1.831,60,12086,249,feet,jsons/v1_VE250_randls_29_rotated.json,891699,1460706,56,Man
12,713343,DepthScenes,duration_manipulation_targetAtFixation,jsons/v1_VE250_randls_29_rotated.json,http://54.235.29.9/FacialAge/BNav_EC2/DepthDuration/v2_depth_duration_MTurk/v2_DepthDuration_HTML.html#84,84,1024,625,1024,768,8-20-2022,11-58-12,13,depth_duration_stimuli/001214_2014-06-17_16-13-55_260595134347_rgbf000111-resize_0/001214_2014-06-17_16-13-55_260595134347_rgbf000111-resize_0-target.png,250,2.6505,60,5036,249,feet,jsons/v1_VE250_randls_29_rotated.json,891699,1460706,56,Man
13,713343,DepthScenes,duration_manipulation_targetAtFixation,jsons/v1_VE250_randls_29_rotated.json,http://54.235.29.9/FacialAge/BNav_EC2/DepthDuration/v2_depth_duration_MTurk/v2_DepthDuration_HTML.html#84,84,1024,625,1024,768,8-20-2022,11-58-12,14,depth_duration_stimuli/000810_2014-06-08_17-20-01_260595134347_rgbf000105-resize_0/000810_2014-06-08_17-20-01_260595134347_rgbf000105-resize_0-target.png,250,1.4865,70,3455,222,feet,jsons/v1_VE250_randls_29_rotated.json,891699,1460706,56,Man
14,713343,DepthScenes,duration_manipulation_targetAtFixation,jsons/v1_VE250_randls_29_rotated.json,http://54.235.29.9/FacialAge/BNav_EC2/DepthDuration/v2_depth_duration_MTurk/v2_DepthDuration_HTML.html#84,84,1024,625,1024,768,8-20-2022,11-58-12,15,depth_duration_stimuli/002209_2014-06-28_18-36-10_260595134347_rgbf000051-resize_1/002209_2014-06-28_18-36-10_260595134347_rgbf000051-resize_1-target.png,250,2.057,80,3779,238,feet,jsons/v1_VE250_randls_29_rotated.json,891699,1460706,56,Man
15,713343,DepthScenes,duration_manipulation_targetAtFixation,jsons/v1_VE250_randls_29_rotated.json,http://54.235.29.9/FacialAge/BNav_EC2/DepthDuration/v2_depth_duration_MTurk/v2_DepthDuration_HTML.html#84,84,1024,625,1024,768,8-20-2022,11-58-12,16,depth_duration_stimuli/002763_2014-06-22_19-13-10_094959634447_rgbf000075-resize_4/002763_2014-06-22_19-13-10_094959634447_rgbf000075-resize_4-target.png,250,1.68375,65,3525,234,feet,jsons/v1_VE250_randls_29_rotated.json,891699,1460706,56,Man
16,713343,DepthScenes,duration_manipulation_targetAtFixation,jsons/v1_VE250_randls_29_rotated.json,http://54.235.29.9/FacialAge/BNav_EC2/DepthDuration/v2_depth_duration_MTurk/v2_DepthDuration_HTML.html#84,84,1024,625,1024,768,8-20-2022,11-58-12,17,depth_duration_stimuli/002660_2014-06-13_15-44-18_094959634447_rgbf001878-resize_2/002660_2014-06-13_15-44-18_094959634447_rgbf001878-resize_2-target.png,250,3.576,65,3904,249,feet,jsons/v1_VE250_randls_29_rotated.json,891699,1460706,56,Man
17,713343,DepthScenes,duration_manipulation_targetAtFixation,jsons/v1_VE250_randls_29_rotated.json,http://54.235.29.9/FacialAge/BNav_EC2/DepthDuration/v2_depth_duration_MTurk/v2_DepthDuration_HTML.html#84,84,1024,625,1024,768,8-20-2022,11-58-12,18,depth_duration_stimuli/002153_2014-06-25_21-27-18_260595134347_rgbf000038-resize_5/002153_2014-06-25_21-27-18_260595134347_rgbf000038-resize_5-target.png,250,2.505,50,3097,249,feet,jsons/v1_VE250_randls_29_rotated.json,891699,1460706,56,Man
18,713343,DepthScenes,duration_manipulation_targetAtFixation,jsons/v1_VE250_randls_29_rotated.json,http://54.235.29.9/FacialAge/BNav_EC2/DepthDuration/v2_depth_duration_MTurk/v2_DepthDuration_HTML.html#84,84,1024,625,1024,768,8-20-2022,11-58-12,19,depth_duration_stimuli/001498_2014-06-19_17-45-14_260595134347_rgbf000129-resize_4/001498_2014-06-19_17-45-14_260595134347_rgbf000129-resize-original.jpg,250,1.4075,70,3247,260,feet,jsons/v1_VE250_randls_29_rotated.json,891699,1460706,56,Man
19,713343,DepthScenes,duration_manipulation_targetAtFixation,jsons/v1_VE250_randls_29_rotated.json,http://54.235.29.9/FacialAge/BNav_EC2/DepthDuration/v2_depth_duration_MTurk/v2_DepthDuration_HTML.html#84,84,1024,625,1024,768,8-20-2022,11-58-12,20,depth_duration_stimuli/001571_2014-06-20_17-21-32_260595134347_rgbf000089-resize_1/001571_2014-06-20_17-21-32_260595134347_rgbf000089-resize_1-target.png,250,1.86,80,5185,247,feet,jsons/v1_VE250_randls_29_rotated.json,891699,1460706,56,Man
20,713343,DepthScenes,duration_manipulation_targetAtFixation,jsons/v1_VE250_randls_29_rotated.json,http://54.235.29.9/FacialAge/BNav_EC2/DepthDuration/v2_depth_duration_MTurk/v2_DepthDuration_HTML.html#84,84,1024,625,1024,768,8-20-2022,11-58-12,21,depth_duration_stimuli/002272_2014-06-28_18-53-56_260595134347_rgbf000067-resize_2/002272_2014-06-28_18-53-56_260595134347_rgbf000067-resize_2-target.png,250,1.138,65,5558,238,feet,jsons/v1_VE250_randls_29_rotated.json,891699,1460706,56,Man
21,713343,DepthScenes,duration_manipulation_targetAtFixation,jsons/v1_VE250_randls_29_rotated.json,http://54.235.29.9/FacialAge/BNav_EC2/DepthDuration/v2_depth_duration_MTurk/v2_DepthDuration_HTML.html#84,84,1024,625,1024,768,8-20-2022,11-58-12,22,depth_duration_stimuli/001828_2014-06-26_21-40-03_260595134347_rgbf000024-resize_0/001828_2014-06-26_21-40-03_260595134347_rgbf000024-resize_0-target.png,250,4.8260000000000005,70,9533,244,feet,jsons/v1_VE250_randls_29_rotated.json,891699,1460706,56,Man
22,713343,DepthScenes,duration_manipulation_targetAtFixation,jsons/v1_VE250_randls_29_rotated.json,http://54.235.29.9/FacialAge/BNav_EC2/DepthDuration/v2_depth_duration_MTurk/v2_DepthDuration_HTML.html#84,84,1024,625,1024,768,8-20-2022,11-58-12,23,depth_duration_stimuli/000009_2014-05-26_14-32-05_260595134347_rgbf000034-resize_3/000009_2014-05-26_14-32-05_260595134347_rgbf000034-resize_3-target.png,250,3.8715,65,6648,253,feet,jsons/v1_VE250_randls_29_rotated.json,891699,1460706,56,Man
23,713343,DepthScenes,duration_manipulation_targetAtFixation,jsons/v1_VE250_randls_29_rotated.json,http://54.235.29.9/FacialAge/BNav_EC2/DepthDuration/v2_depth_duration_MTurk/v2_DepthDuration_HTML.html#84,84,1024,625,1024,768,8-20-2022,11-58-12,24,depth_duration_stimuli/002425_2014-06-28_20-27-29_260595134347_rgbf000031-resize_8/002425_2014-06-28_20-27-29_260595134347_rgbf000031-resize_8-target.png,250,3.8960000000000004,80,13061,250,feet,jsons/v1_VE250_randls_29_rotated.json,891699,1460706,56,Man
24,713343,DepthScenes,duration_manipulation_targetAtFixation,jsons/v1_VE250_randls_29_rotated.json,http://54.235.29.9/FacialAge/BNav_EC2/DepthDuration/v2_depth_duration_MTurk/v2_DepthDuration_HTML.html#84,84,1024,625,1024,768,8-20-2022,11-58-12,25,depth_duration_stimuli/000642_2014-06-08_16-59-25_260595134347_rgbf000098-resize_2/000642_2014-06-08_16-59-25_260595134347_rgbf000098-resize_2-target.png,250,2.8815,55,4473,243,feet,jsons/v1_VE250_randls_29_rotated.json,891699,1460706,56,Man
25,713343,DepthScenes,duration_manipulation_targetAtFixation,jsons/v1_VE250_randls_29_rotated.json,http://54.235.29.9/FacialAge/BNav_EC2/DepthDuration/v2_depth_duration_MTurk/v2_DepthDuration_HTML.html#84,84,1024,625,1024,768,8-20-2022,11-58-12,26,depth_duration_stimuli/000927_2014-06-09_16-32-30_260595134347_rgbf000123-resize_3/000927_2014-06-09_16-32-30_260595134347_rgbf000123-resize_3-target.png,250,2.6785,65,4217,240,feet,jsons/v1_VE250_randls_29_rotated.json,891699,1460706,56,Man
26,713343,DepthScenes,duration_manipulation_targetAtFixation,jsons/v1_VE250_randls_29_rotated.json,http://54.235.29.9/FacialAge/BNav_EC2/DepthDuration/v2_depth_duration_MTurk/v2_DepthDuration_HTML.html#84,84,1024,625,1024,768,8-20-2022,11-58-12,27,depth_duration_stimuli/001110_2014-06-15_17-25-28_260595134347_rgbf000150-resize_1/001110_2014-06-15_17-25-28_260595134347_rgbf000150-resize_1-target.png,250,1.7115,70,5427,241,feet,jsons/v1_VE250_randls_29_rotated.json,891699,1460706,56,Man
27,713343,DepthScenes,duration_manipulation_targetAtFixation,jsons/v1_VE250_randls_29_rotated.json,http://54.235.29.9/FacialAge/BNav_EC2/DepthDuration/v2_depth_duration_MTurk/v2_DepthDuration_HTML.html#84,84,1024,625,1024,768,8-20-2022,11-58-12,28,depth_duration_stimuli/002953_2014-06-08_17-32-18_094959634447_rgbf000059-resize_5/002953_2014-06-08_17-32-18_094959634447_rgbf000059-resize_5-target.png,250,1.551,55,3145,236,feet,jsons/v1_VE250_randls_29_rotated.json,891699,1460706,56,Man
28,713343,DepthScenes,duration_manipulation_targetAtFixation,jsons/v1_VE250_randls_29_rotated.json,http://54.235.29.9/FacialAge/BNav_EC2/DepthDuration/v2_depth_duration_MTurk/v2_DepthDuration_HTML.html#84,84,1024,625,1024,768,8-20-2022,11-58-12,29,depth_duration_stimuli/000878_2014-06-08_22-52-45_260595134347_rgbf000045-resize_2/000878_2014-06-08_22-52-45_260595134347_rgbf000045-resize_2-target.png,250,2.092,65,3673,250,feet,jsons/v1_VE250_randls_29_rotated.json,891699,1460706,56,Man
29,713343,DepthScenes,duration_manipulation_targetAtFixation,jsons/v1_VE250_randls_29_rotated.json,http://54.235.29.9/FacialAge/BNav_EC2/DepthDuration/v2_depth_duration_MTurk/v2_DepthDuration_HTML.html#84,84,1024,625,1024,768,8-20-2022,11-58-12,30,depth_duration_stimuli/002072_2014-06-24_21-48-06_260595134347_rgbf000115-resize_0/002072_2014-06-24_21-48-06_260595134347_rgbf000115-resize-original.jpg,250,4.702,0,8334,252,feet,jsons/v1_VE250_randls_29_rotated.json,891699,1460706,56,Man
30,713343,DepthScenes,duration_manipulation_targetAtFixation,jsons/v1_VE250_randls_29_rotated.json,http://54.235.29.9/FacialAge/BNav_EC2/DepthDuration/v2_depth_duration_MTurk/v2_DepthDuration_HTML.html#84,84,1024,625,1024,768,8-20-2022,11-58-12,31,depth_duration_stimuli/000635_2014-06-08_16-38-42_260595134347_rgbf000106-resize_1/000635_2014-06-08_16-38-42_260595134347_rgbf000106-resize_1-target.png,250,2.074,65,4226,250,feet,jsons/v1_VE250_randls_29_rotated.json,891699,1460706,56,Man
31,713343,DepthScenes,duration_manipulation_targetAtFixation,jsons/v1_VE250_randls_29_rotated.json,http://54.235.29.9/FacialAge/BNav_EC2/DepthDuration/v2_depth_duration_MTurk/v2_DepthDuration_HTML.html#84,84,1024,625,1024,768,8-20-2022,11-58-12,32,depth_duration_stimuli/002279_2014-06-28_18-55-32_260595134347_rgbf000040-resize_5/002279_2014-06-28_18-55-32_260595134347_rgbf000040-resize_5-target.png,250,1.5043333333333,65,6412,252,feet,jsons/v1_VE250_randls_29_rotated.json,891699,1460706,56,Man
32,713343,DepthScenes,duration_manipulation_targetAtFixation,jsons/v1_VE250_randls_29_rotated.json,http://54.235.29.9/FacialAge/BNav_EC2/DepthDuration/v2_depth_duration_MTurk/v2_DepthDuration_HTML.html#84,84,1024,625,1024,768,8-20-2022,11-58-12,33,depth_duration_stimuli/001516_2014-06-20_16-25-09_260595134347_rgbf000076-resize_2/001516_2014-06-20_16-25-09_260595134347_rgbf000076-resize_2-target.png,250,1.7445,70,5824,247,feet,jsons/v1_VE250_randls_29_rotated.json,891699,1460706,56,Man
33,713343,DepthScenes,duration_manipulation_targetAtFixation,jsons/v1_VE250_randls_29_rotated.json,http://54.235.29.9/FacialAge/BNav_EC2/DepthDuration/v2_depth_duration_MTurk/v2_DepthDuration_HTML.html#84,84,1024,625,1024,768,8-20-2022,11-58-12,34,depth_duration_stimuli/002118_2014-06-25_20-32-08_260595134347_rgbf000078-resize_1/002118_2014-06-25_20-32-08_260595134347_rgbf000078-resize_1-target.png,250,2.6460000000000004,50,3528,244,feet,jsons/v1_VE250_randls_29_rotated.json,891699,1460706,56,Man
34,713343,DepthScenes,duration_manipulation_targetAtFixation,jsons/v1_VE250_randls_29_rotated.json,http://54.235.29.9/FacialAge/BNav_EC2/DepthDuration/v2_depth_duration_MTurk/v2_DepthDuration_HTML.html#84,84,1024,625,1024,768,8-20-2022,11-58-12,35,depth_duration_stimuli/001032_2014-06-08_13-23-17_260595134347_rgbf000021-resize_3/001032_2014-06-08_13-23-17_260595134347_rgbf000021-resize_3-target.png,250,3.2725,70,3964,251,feet,jsons/v1_VE250_randls_29_rotated.json,891699,1460706,56,Man
35,713343,DepthScenes,duration_manipulation_targetAtFixation,jsons/v1_VE250_randls_29_rotated.json,http://54.235.29.9/FacialAge/BNav_EC2/DepthDuration/v2_depth_duration_MTurk/v2_DepthDuration_HTML.html#84,84,1024,625,1024,768,8-20-2022,11-58-12,36,depth_duration_stimuli/001059_2014-06-08_21-53-27_260595134347_rgbf000061-resize_4/001059_2014-06-08_21-53-27_260595134347_rgbf000061-resize_4-target.png,250,2.4185,65,3980,252,feet,jsons/v1_VE250_randls_29_rotated.json,891699,1460706,56,Man
36,713343,DepthScenes,duration_manipulation_targetAtFixation,jsons/v1_VE250_randls_29_rotated.json,http://54.235.29.9/FacialAge/BNav_EC2/DepthDuration/v2_depth_duration_MTurk/v2_DepthDuration_HTML.html#84,84,1024,625,1024,768,8-20-2022,11-58-12,37,depth_duration_stimuli/001650_2014-06-20_12-09-00_260595134347_rgbf000087-resize_3/001650_2014-06-20_12-09-00_260595134347_rgbf000087-resize_3-target.png,250,1.9505,70,4264,245,feet,jsons/v1_VE250_randls_29_rotated.json,891699,1460706,56,Man
37,713343,DepthScenes,duration_manipulation_targetAtFixation,jsons/v1_VE250_randls_29_rotated.json,http://54.235.29.9/FacialAge/BNav_EC2/DepthDuration/v2_depth_duration_MTurk/v2_DepthDuration_HTML.html#84,84,1024,625,1024,768,8-20-2022,11-58-12,38,depth_duration_stimuli/000682_2014-06-08_23-14-58_260595134347_rgbf000041-resize_5/000682_2014-06-08_23-14-58_260595134347_rgbf000041-resize_5-target.png,250,2.7239999999999998,80,3665,249,feet,jsons/v1_VE250_randls_29_rotated.json,891699,1460706,56,Man
38,713343,DepthScenes,duration_manipulation_targetAtFixation,jsons/v1_VE250_randls_29_rotated.json,http://54.235.29.9/FacialAge/BNav_EC2/DepthDuration/v2_depth_duration_MTurk/v2_DepthDuration_HTML.html#84,84,1024,625,1024,768,8-20-2022,11-58-12,39,depth_duration_stimuli/002758_2014-06-22_19-11-20_094959634447_rgbf000128-resize_1/002758_2014-06-22_19-11-20_094959634447_rgbf000128-resize_1-target.png,250,2.555,65,3820,249,feet,jsons/v1_VE250_randls_29_rotated.json,891699,1460706,56,Man
39,713343,DepthScenes,duration_manipulation_targetAtFixation,jsons/v1_VE250_randls_29_rotated.json,http://54.235.29.9/FacialAge/BNav_EC2/DepthDuration/v2_depth_duration_MTurk/v2_DepthDuration_HTML.html#84,84,1024,625,1024,768,8-20-2022,11-58-12,40,depth_duration_stimuli/002630_2014-06-24_14-47-50_094959634447_rgbf000055-resize_1/002630_2014-06-24_14-47-50_094959634447_rgbf000055-resize_1-target.png,250,3.0095,55,4713,271,feet,jsons/v1_VE250_randls_29_rotated.json,891699,1460706,56,Man
40,713343,DepthScenes,duration_manipulation_targetAtFixation,jsons/v1_VE250_randls_29_rotated.json,http://54.235.29.9/FacialAge/BNav_EC2/DepthDuration/v2_depth_duration_MTurk/v2_DepthDuration_HTML.html#84,84,1024,625,1024,768,8-20-2022,11-58-12,41,depth_duration_stimuli/001450_2014-06-19_17-02-03_260595134347_rgbf000203-resize_4/001450_2014-06-19_17-02-03_260595134347_rgbf000203-resize_4-target.png,250,4.0106666666667,50,5504,249,feet,jsons/v1_VE250_randls_29_rotated.json,891699,1460706,56,Man
41,713343,DepthScenes,duration_manipulation_targetAtFixation,jsons/v1_VE250_randls_29_rotated.json,http://54.235.29.9/FacialAge/BNav_EC2/DepthDuration/v2_depth_duration_MTurk/v2_DepthDuration_HTML.html#84,84,1024,625,1024,768,8-20-2022,11-58-12,42,depth_duration_stimuli/001449_2014-06-19_17-01-27_260595134347_rgbf000116-resize_2/001449_2014-06-19_17-01-27_260595134347_rgbf000116-resize_2-target.png,250,3.452,60,3867,249,feet,jsons/v1_VE250_randls_29_rotated.json,891699,1460706,56,Man
42,713343,DepthScenes,duration_manipulation_targetAtFixation,jsons/v1_VE250_randls_29_rotated.json,http://54.235.29.9/FacialAge/BNav_EC2/DepthDuration/v2_depth_duration_MTurk/v2_DepthDuration_HTML.html#84,84,1024,625,1024,768,8-20-2022,11-58-12,43,depth_duration_stimuli/003338_2014-05-20_11-01-23_094959634447_rgbf000051-resize_6/003338_2014-05-20_11-01-23_094959634447_rgbf000051-resize_6-target.png,250,1.693,50,4159,264,feet,jsons/v1_VE250_randls_29_rotated.json,891699,1460706,56,Man
43,713343,DepthScenes,duration_manipulation_targetAtFixation,jsons/v1_VE250_randls_29_rotated.json,http://54.235.29.9/FacialAge/BNav_EC2/DepthDuration/v2_depth_duration_MTurk/v2_DepthDuration_HTML.html#84,84,1024,625,1024,768,8-20-2022,11-58-12,44,depth_duration_stimuli/002509_2014-06-24_13-19-22_094959634447_rgbf000077-resize_0/002509_2014-06-24_13-19-22_094959634447_rgbf000077-resize_0-target.png,250,1.3065,70,4775,251,feet,jsons/v1_VE250_randls_29_rotated.json,891699,1460706,56,Man
44,713343,DepthScenes,duration_manipulation_targetAtFixation,jsons/v1_VE250_randls_29_rotated.json,http://54.235.29.9/FacialAge/BNav_EC2/DepthDuration/v2_depth_duration_MTurk/v2_DepthDuration_HTML.html#84,84,1024,625,1024,768,8-20-2022,11-58-12,45,depth_duration_stimuli/002136_2014-06-25_21-18-03_260595134347_rgbf000109-resize_3/002136_2014-06-25_21-18-03_260595134347_rgbf000109-resize_3-target.png,250,1.9569999999999999,65,4292,255,feet,jsons/v1_VE250_randls_29_rotated.json,891699,1460706,56,Man
45,713343,DepthScenes,duration_manipulation_targetAtFixation,jsons/v1_VE250_randls_29_rotated.json,http://54.235.29.9/FacialAge/BNav_EC2/DepthDuration/v2_depth_duration_MTurk/v2_DepthDuration_HTML.html#84,84,1024,625,1024,768,8-20-2022,11-58-12,46,depth_duration_stimuli/002964_2014-06-08_17-46-11_094959634447_rgbf000091-resize_4/002964_2014-06-08_17-46-11_094959634447_rgbf000091-resize_4-target.png,250,1.6909999999999998,75,5226,257,feet,jsons/v1_VE250_randls_29_rotated.json,891699,1460706,56,Man
46,713343,DepthScenes,duration_manipulation_targetAtFixation,jsons/v1_VE250_randls_29_rotated.json,http://54.235.29.9/FacialAge/BNav_EC2/DepthDuration/v2_depth_duration_MTurk/v2_DepthDuration_HTML.html#84,84,1024,625,1024,768,8-20-2022,11-58-12,47,depth_duration_stimuli/002657_2014-06-13_15-29-54_094959634447_rgbf000150-resize_1/002657_2014-06-13_15-29-54_094959634447_rgbf000150-resize_1-target.png,250,4.919,56,4085,236,feet,jsons/v1_VE250_randls_29_rotated.json,891699,1460706,56,Man
47,713343,DepthScenes,duration_manipulation_targetAtFixation,jsons/v1_VE250_randls_29_rotated.json,http://54.235.29.9/FacialAge/BNav_EC2/DepthDuration/v2_depth_duration_MTurk/v2_DepthDuration_HTML.html#84,84,1024,625,1024,768,8-20-2022,11-58-12,48,depth_duration_stimuli/002375_2014-06-28_20-13-44_260595134347_rgbf000032-resize_1/002375_2014-06-28_20-13-44_260595134347_rgbf000032-resize_1-target.png,250,4.0175,60,3455,243,feet,jsons/v1_VE250_randls_29_rotated.json,891699,1460706,56,Man
48,713343,DepthScenes,duration_manipulation_targetAtFixation,jsons/v1_VE250_randls_29_rotated.json,http://54.235.29.9/FacialAge/BNav_EC2/DepthDuration/v2_depth_duration_MTurk/v2_DepthDuration_HTML.html#84,84,1024,625,1024,768,8-20-2022,11-58-12,49,depth_duration_stimuli/001170_2014-06-17_15-43-44_260595134347_rgbf000096-resize_6/001170_2014-06-17_15-43-44_260595134347_rgbf000096-resize-original.jpg,250,1.1909999999999998,65,4792,242,feet,jsons/v1_VE250_randls_29_rotated.json,891699,1460706,56,Man
49,713343,DepthScenes,duration_manipulation_targetAtFixation,jsons/v1_VE250_randls_29_rotated.json,http://54.235.29.9/FacialAge/BNav_EC2/DepthDuration/v2_depth_duration_MTurk/v2_DepthDuration_HTML.html#84,84,1024,625,1024,768,8-20-2022,11-58-12,50,depth_duration_stimuli/001617_2014-06-20_11-35-32_260595134347_rgbf000066-resize_1/001617_2014-06-20_11-35-32_260595134347_rgbf000066-resize_1-target.png,250,3.7910000000000004,70,3467,249,feet,jsons/v1_VE250_randls_29_rotated.json,891699,1460706,56,Man
50,713343,DepthScenes,duration_manipulation_targetAtFixation,jsons/v1_VE250_randls_29_rotated.json,http://54.235.29.9/FacialAge/BNav_EC2/DepthDuration/v2_depth_duration_MTurk/v2_DepthDuration_HTML.html#84,84,1024,625,1024,768,8-20-2022,11-58-12,51,depth_duration_stimuli/001806_2014-06-26_20-50-20_260595134347_rgbf000091-resize_1/001806_2014-06-26_20-50-20_260595134347_rgbf000091-resize_1-target.png,250,2.7305,65,3327,249,feet,jsons/v1_VE250_randls_29_rotated.json,891699,1460706,56,Man
51,713343,DepthScenes,duration_manipulation_targetAtFixation,jsons/v1_VE250_randls_29_rotated.json,http://54.235.29.9/FacialAge/BNav_EC2/DepthDuration/v2_depth_duration_MTurk/v2_DepthDuration_HTML.html#84,84,1024,625,1024,768,8-20-2022,11-58-12,52,depth_duration_stimuli/000854_2014-06-09_19-43-13_260595134347_rgbf000066-resize_0/000854_2014-06-09_19-43-13_260595134347_rgbf000066-resize_0-target.png,250,3.068,55,3069,249,feet,jsons/v1_VE250_randls_29_rotated.json,891699,1460706,56,Man
52,713343,DepthScenes,duration_manipulation_targetAtFixation,jsons/v1_VE250_randls_29_rotated.json,http://54.235.29.9/FacialAge/BNav_EC2/DepthDuration/v2_depth_duration_MTurk/v2_DepthDuration_HTML.html#84,84,1024,625,1024,768,8-20-2022,11-58-12,53,depth_duration_stimuli/000758_2014-06-08_22-05-08_260595134347_rgbf000085-resize_0/000758_2014-06-08_22-05-08_260595134347_rgbf000085-resize_0-target.png,250,3.3810000000000002,45,4295,256,feet,jsons/v1_VE250_randls_29_rotated.json,891699,1460706,56,Man
53,713343,DepthScenes,duration_manipulation_targetAtFixation,jsons/v1_VE250_randls_29_rotated.json,http://54.235.29.9/FacialAge/BNav_EC2/DepthDuration/v2_depth_duration_MTurk/v2_DepthDuration_HTML.html#84,84,1024,625,1024,768,8-20-2022,11-58-12,54,depth_duration_stimuli/003587_2014-05-23_16-48-02_094959634447_rgbf002384-resize_2/003587_2014-05-23_16-48-02_094959634447_rgbf002384-resize_2-target.png,250,1.357,40,3191,246,feet,jsons/v1_VE250_randls_29_rotated.json,891699,1460706,56,Man
54,713343,DepthScenes,duration_manipulation_targetAtFixation,jsons/v1_VE250_randls_29_rotated.json,http://54.235.29.9/FacialAge/BNav_EC2/DepthDuration/v2_depth_duration_MTurk/v2_DepthDuration_HTML.html#84,84,1024,625,1024,768,8-20-2022,11-58-12,55,depth_duration_stimuli/001167_2014-06-17_15-38-07_260595134347_rgbf000108-resize_0/001167_2014-06-17_15-38-07_260595134347_rgbf000108-resize_0-target.png,250,1.8505,55,3300,246,feet,jsons/v1_VE250_randls_29_rotated.json,891699,1460706,56,Man
55,713343,DepthScenes,duration_manipulation_targetAtFixation,jsons/v1_VE250_randls_29_rotated.json,http://54.235.29.9/FacialAge/BNav_EC2/DepthDuration/v2_depth_duration_MTurk/v2_DepthDuration_HTML.html#84,84,1024,625,1024,768,8-20-2022,11-58-12,56,depth_duration_stimuli/000502_2014-06-08_23-02-32_260595134347_rgbf000063-resize_4/000502_2014-06-08_23-02-32_260595134347_rgbf000063-resize_4-target.png,250,2.431,65,4924,257,feet,jsons/v1_VE250_randls_29_rotated.json,891699,1460706,56,Man
56,713343,DepthScenes,duration_manipulation_targetAtFixation,jsons/v1_VE250_randls_29_rotated.json,http://54.235.29.9/FacialAge/BNav_EC2/DepthDuration/v2_depth_duration_MTurk/v2_DepthDuration_HTML.html#84,84,1024,625,1024,768,8-20-2022,11-58-12,57,depth_duration_stimuli/001199_2014-06-17_16-03-48_260595134347_rgbf000077-resize_0/001199_2014-06-17_16-03-48_260595134347_rgbf000077-resize_0-target.png,250,3.4375,68,3688,255,feet,jsons/v1_VE250_randls_29_rotated.json,891699,1460706,56,Man
57,713343,DepthScenes,duration_manipulation_targetAtFixation,jsons/v1_VE250_randls_29_rotated.json,http://54.235.29.9/FacialAge/BNav_EC2/DepthDuration/v2_depth_duration_MTurk/v2_DepthDuration_HTML.html#84,84,1024,625,1024,768,8-20-2022,11-58-12,58,depth_duration_stimuli/000943_2014-06-09_19-31-07_260595134347_rgbf000128-resize_1/000943_2014-06-09_19-31-07_260595134347_rgbf000128-resize_1-target.png,250,1.9765,60,7538,256,feet,jsons/v1_VE250_randls_29_rotated.json,891699,1460706,56,Man
58,713343,DepthScenes,duration_manipulation_targetAtFixation,jsons/v1_VE250_randls_29_rotated.json,http://54.235.29.9/FacialAge/BNav_EC2/DepthDuration/v2_depth_duration_MTurk/v2_DepthDuration_HTML.html#84,84,1024,625,1024,768,8-20-2022,11-58-12,59,depth_duration_stimuli/003070_2014-06-15_14-58-27_094959634447_rgbf000150-resize_3/003070_2014-06-15_14-58-27_094959634447_rgbf000150-resize_3-target.png,250,2.9415,70,4318,256,feet,jsons/v1_VE250_randls_29_rotated.json,891699,1460706,56,Man
59,713343,DepthScenes,duration_manipulation_targetAtFixation,jsons/v1_VE250_randls_29_rotated.json,http://54.235.29.9/FacialAge/BNav_EC2/DepthDuration/v2_depth_duration_MTurk/v2_DepthDuration_HTML.html#84,84,1024,625,1024,768,8-20-2022,11-58-12,60,depth_duration_stimuli/002949_2014-06-26_15-57-42_094959634447_rgbf000079-resize_1/002949_2014-06-26_15-57-42_094959634447_rgbf000079-resize_1-target.png,250,1.8915,65,3164,249,feet,jsons/v1_VE250_randls_29_rotated.json,891699,1460706,56,Man
60,713343,DepthScenes,duration_manipulation_targetAtFixation,jsons/v1_VE250_randls_29_rotated.json,http://54.235.29.9/FacialAge/BNav_EC2/DepthDuration/v2_depth_duration_MTurk/v2_DepthDuration_HTML.html#84,84,1024,625,1024,768,8-20-2022,11-58-12,61,depth_duration_stimuli/000522_2014-06-08_13-35-06_260595134347_rgbf000244-resize_1/000522_2014-06-08_13-35-06_260595134347_rgbf000244-resize_1-target.png,250,2.3715,40,3003,235,feet,jsons/v1_VE250_randls_29_rotated.json,891699,1460706,56,Man
61,713343,DepthScenes,duration_manipulation_targetAtFixation,jsons/v1_VE250_randls_29_rotated.json,http://54.235.29.9/FacialAge/BNav_EC2/DepthDuration/v2_depth_duration_MTurk/v2_DepthDuration_HTML.html#84,84,1024,625,1024,768,8-20-2022,11-58-12,62,depth_duration_stimuli/000457_2014-06-08_16-52-43_260595134347_rgbf000199-resize_1/000457_2014-06-08_16-52-43_260595134347_rgbf000199-resize_1-target.png,250,3.6489999999999996,45,3532,248,feet,jsons/v1_VE250_randls_29_rotated.json,891699,1460706,56,Man
62,713343,DepthScenes,duration_manipulation_targetAtFixation,jsons/v1_VE250_randls_29_rotated.json,http://54.235.29.9/FacialAge/BNav_EC2/DepthDuration/v2_depth_duration_MTurk/v2_DepthDuration_HTML.html#84,84,1024,625,1024,768,8-20-2022,11-58-12,63,depth_duration_stimuli/000929_2014-06-09_16-33-19_260595134347_rgbf000139-resize_0/000929_2014-06-09_16-33-19_260595134347_rgbf000139-resize_0-target.png,250,2.8680000000000003,60,3306,249,feet,jsons/v1_VE250_randls_29_rotated.json,891699,1460706,56,Man
63,713343,DepthScenes,duration_manipulation_targetAtFixation,jsons/v1_VE250_randls_29_rotated.json,http://54.235.29.9/FacialAge/BNav_EC2/DepthDuration/v2_depth_duration_MTurk/v2_DepthDuration_HTML.html#84,84,1024,625,1024,768,8-20-2022,11-58-12,64,depth_duration_stimuli/001392_2014-06-19_16-07-59_260595134347_rgbf000046-resize_1/001392_2014-06-19_16-07-59_260595134347_rgbf000046-resize_1-target.png,250,4.135,75,3562,241,feet,jsons/v1_VE250_randls_29_rotated.json,891699,1460706,56,Man
64,713343,DepthScenes,duration_manipulation_targetAtFixation,jsons/v1_VE250_randls_29_rotated.json,http://54.235.29.9/FacialAge/BNav_EC2/DepthDuration/v2_depth_duration_MTurk/v2_DepthDuration_HTML.html#84,84,1024,625,1024,768,8-20-2022,11-58-12,65,depth_duration_stimuli/001570_2014-06-20_17-21-09_260595134347_rgbf000135-resize_4/001570_2014-06-20_17-21-09_260595134347_rgbf000135-resize_4-target.png,250,4.467,50,3984,250,feet,jsons/v1_VE250_randls_29_rotated.json,891699,1460706,56,Man
65,713343,DepthScenes,duration_manipulation_targetAtFixation,jsons/v1_VE250_randls_29_rotated.json,http://54.235.29.9/FacialAge/BNav_EC2/DepthDuration/v2_depth_duration_MTurk/v2_DepthDuration_HTML.html#84,84,1024,625,1024,768,8-20-2022,11-58-12,66,depth_duration_stimuli/001540_2014-06-20_17-01-05_260595134347_rgbf000086-resize_2/001540_2014-06-20_17-01-05_260595134347_rgbf000086-resize-original.jpg,250,1.459,0,3480,257,feet,jsons/v1_VE250_randls_29_rotated.json,891699,1460706,56,Man
66,713343,DepthScenes,duration_manipulation_targetAtFixation,jsons/v1_VE250_randls_29_rotated.json,http://54.235.29.9/FacialAge/BNav_EC2/DepthDuration/v2_depth_duration_MTurk/v2_DepthDuration_HTML.html#84,84,1024,625,1024,768,8-20-2022,11-58-12,67,depth_duration_stimuli/002199_2014-06-28_18-33-56_260595134347_rgbf000074-resize_0/002199_2014-06-28_18-33-56_260595134347_rgbf000074-resize_0-target.png,250,1.996,30,3155,237,feet,jsons/v1_VE250_randls_29_rotated.json,891699,1460706,56,Man
67,713343,DepthScenes,duration_manipulation_targetAtFixation,jsons/v1_VE250_randls_29_rotated.json,http://54.235.29.9/FacialAge/BNav_EC2/DepthDuration/v2_depth_duration_MTurk/v2_DepthDuration_HTML.html#84,84,1024,625,1024,768,8-20-2022,11-58-12,68,depth_duration_stimuli/001056_2014-06-08_18-46-44_260595134347_rgbf000068-resize_0/001056_2014-06-08_18-46-44_260595134347_rgbf000068-resize_0-target.png,250,2.6625,50,3204,248,feet,jsons/v1_VE250_randls_29_rotated.json,891699,1460706,56,Man
68,713343,DepthScenes,duration_manipulation_targetAtFixation,jsons/v1_VE250_randls_29_rotated.json,http://54.235.29.9/FacialAge/BNav_EC2/DepthDuration/v2_depth_duration_MTurk/v2_DepthDuration_HTML.html#84,84,1024,625,1024,768,8-20-2022,11-58-12,69,depth_duration_stimuli/003495_2014-05-21_16-01-51_094959634447_rgbf000100-resize_3/003495_2014-05-21_16-01-51_094959634447_rgbf000100-resize_3-target.png,250,1.6255,40,4254,241,feet,jsons/v1_VE250_randls_29_rotated.json,891699,1460706,56,Man
69,713343,DepthScenes,duration_manipulation_targetAtFixation,jsons/v1_VE250_randls_29_rotated.json,http://54.235.29.9/FacialAge/BNav_EC2/DepthDuration/v2_depth_duration_MTurk/v2_DepthDuration_HTML.html#84,84,1024,625,1024,768,8-20-2022,11-58-12,70,depth_duration_stimuli/001244_2014-06-17_16-47-45_260595134347_rgbf000030-resize_4/001244_2014-06-17_16-47-45_260595134347_rgbf000030-resize_4-target.png,250,2.0425,50,3030,255,feet,jsons/v1_VE250_randls_29_rotated.json,891699,1460706,56,Man
70,713343,DepthScenes,duration_manipulation_targetAtFixation,jsons/v1_VE250_randls_29_rotated.json,http://54.235.29.9/FacialAge/BNav_EC2/DepthDuration/v2_depth_duration_MTurk/v2_DepthDuration_HTML.html#84,84,1024,625,1024,768,8-20-2022,11-58-12,71,depth_duration_stimuli/001100_2014-06-15_17-46-26_260595134347_rgbf000225-resize_2/001100_2014-06-15_17-46-26_260595134347_rgbf000225-resize_2-target.png,250,2.24,45,2973,240,feet,jsons/v1_VE250_randls_29_rotated.json,891699,1460706,56,Man
71,713343,DepthScenes,duration_manipulation_targetAtFixation,jsons/v1_VE250_randls_29_rotated.json,http://54.235.29.9/FacialAge/BNav_EC2/DepthDuration/v2_depth_duration_MTurk/v2_DepthDuration_HTML.html#84,84,1024,625,1024,768,8-20-2022,11-58-12,72,depth_duration_stimuli/002784_2014-06-22_19-26-30_094959634447_rgbf000083-resize_3/002784_2014-06-22_19-26-30_094959634447_rgbf000083-resize_3-target.png,250,1.8046666666667,50,3430,240,feet,jsons/v1_VE250_randls_29_rotated.json,891699,1460706,56,Man
72,713343,DepthScenes,duration_manipulation_targetAtFixation,jsons/v1_VE250_randls_29_rotated.json,http://54.235.29.9/FacialAge/BNav_EC2/DepthDuration/v2_depth_duration_MTurk/v2_DepthDuration_HTML.html#84,84,1024,625,1024,768,8-20-2022,11-58-12,73,depth_duration_stimuli/003048_2014-06-15_13-49-43_094959634447_rgbf000150-resize_1/003048_2014-06-15_13-49-43_094959634447_rgbf000150-resize_1-target.png,250,4.0035,75,3150,239,feet,jsons/v1_VE250_randls_29_rotated.json,891699,1460706,56,Man
73,713343,DepthScenes,duration_manipulation_targetAtFixation,jsons/v1_VE250_randls_29_rotated.json,http://54.235.29.9/FacialAge/BNav_EC2/DepthDuration/v2_depth_duration_MTurk/v2_DepthDuration_HTML.html#84,84,1024,625,1024,768,8-20-2022,11-58-12,74,depth_duration_stimuli/002043_2014-06-24_20-29-38_260595134347_rgbf000039-resize_4/002043_2014-06-24_20-29-38_260595134347_rgbf000039-resize_4-target.png,250,2.8435,85,3137,252,feet,jsons/v1_VE250_randls_29_rotated.json,891699,1460706,56,Man
74,713343,DepthScenes,duration_manipulation_targetAtFixation,jsons/v1_VE250_randls_29_rotated.json,http://54.235.29.9/FacialAge/BNav_EC2/DepthDuration/v2_depth_duration_MTurk/v2_DepthDuration_HTML.html#84,84,1024,625,1024,768,8-20-2022,11-58-12,75,depth_duration_stimuli/003079_2014-06-15_15-18-20_094959634447_rgbf000152-resize_8/003079_2014-06-15_15-18-20_094959634447_rgbf000152-resize_8-target.png,250,2.8775,70,3825,239,feet,jsons/v1_VE250_randls_29_rotated.json,891699,1460706,56,Man
75,713343,DepthScenes,duration_manipulation_targetAtFixation,jsons/v1_VE250_randls_29_rotated.json,http://54.235.29.9/FacialAge/BNav_EC2/DepthDuration/v2_depth_duration_MTurk/v2_DepthDuration_HTML.html#84,84,1024,625,1024,768,8-20-2022,11-58-12,76,depth_duration_stimuli/000506_2014-06-08_23-21-00_260595134347_rgbf000070-resize_7/000506_2014-06-08_23-21-00_260595134347_rgbf000070-resize_7-target.png,250,4.0585,50,4323,249,feet,jsons/v1_VE250_randls_29_rotated.json,891699,1460706,56,Man
76,713343,DepthScenes,duration_manipulation_targetAtFixation,jsons/v1_VE250_randls_29_rotated.json,http://54.235.29.9/FacialAge/BNav_EC2/DepthDuration/v2_depth_duration_MTurk/v2_DepthDuration_HTML.html#84,84,1024,625,1024,768,8-20-2022,11-58-12,77,depth_duration_stimuli/000483_2014-06-09_20-41-45_260595134347_rgbf000116-resize_4/000483_2014-06-09_20-41-45_260595134347_rgbf000116-resize_4-target.png,250,1.337,60,4359,258,feet,jsons/v1_VE250_randls_29_rotated.json,891699,1460706,56,Man
77,713343,DepthScenes,duration_manipulation_targetAtFixation,jsons/v1_VE250_randls_29_rotated.json,http://54.235.29.9/FacialAge/BNav_EC2/DepthDuration/v2_depth_duration_MTurk/v2_DepthDuration_HTML.html#84,84,1024,625,1024,768,8-20-2022,11-58-12,78,depth_duration_stimuli/000469_2014-06-09_19-42-10_260595134347_rgbf000081-resize_1/000469_2014-06-09_19-42-10_260595134347_rgbf000081-resize_1-target.png,250,1.652,50,10319,251,feet,jsons/v1_VE250_randls_29_rotated.json,891699,1460706,56,Man
78,713343,DepthScenes,duration_manipulation_targetAtFixation,jsons/v1_VE250_randls_29_rotated.json,http://54.235.29.9/FacialAge/BNav_EC2/DepthDuration/v2_depth_duration_MTurk/v2_DepthDuration_HTML.html#84,84,1024,625,1024,768,8-20-2022,11-58-12,79,depth_duration_stimuli/002414_2014-06-28_20-24-58_260595134347_rgbf000067-resize_4/002414_2014-06-28_20-24-58_260595134347_rgbf000067-resize_4-target.png,250,4.363,65,3944,240,feet,jsons/v1_VE250_randls_29_rotated.json,891699,1460706,56,Man
79,713343,DepthScenes,duration_manipulation_targetAtFixation,jsons/v1_VE250_randls_29_rotated.json,http://54.235.29.9/FacialAge/BNav_EC2/DepthDuration/v2_depth_duration_MTurk/v2_DepthDuration_HTML.html#84,84,1024,625,1024,768,8-20-2022,11-58-12,80,depth_duration_stimuli/000773_2014-06-08_22-24-54_260595134347_rgbf000093-resize_1/000773_2014-06-08_22-24-54_260595134347_rgbf000093-resize_1-target.png,250,4.973,0,3642,251,feet,jsons/v1_VE250_randls_29_rotated.json,891699,1460706,56,Man
80,713343,DepthScenes,duration_manipulation_targetAtFixation,jsons/v1_VE250_randls_29_rotated.json,http://54.235.29.9/FacialAge/BNav_EC2/DepthDuration/v2_depth_duration_MTurk/v2_DepthDuration_HTML.html#84,84,1024,625,1024,768,8-20-2022,11-58-12,81,depth_duration_stimuli/002995_2014-06-15_12-31-26_094959634447_rgbf000150-resize_1/002995_2014-06-15_12-31-26_094959634447_rgbf000150-resize_1-target.png,250,3.8360000000000003,75,3076,237,feet,jsons/v1_VE250_randls_29_rotated.json,891699,1460706,56,Man
81,713343,DepthScenes,duration_manipulation_targetAtFixation,jsons/v1_VE250_randls_29_rotated.json,http://54.235.29.9/FacialAge/BNav_EC2/DepthDuration/v2_depth_duration_MTurk/v2_DepthDuration_HTML.html#84,84,1024,625,1024,768,8-20-2022,11-58-12,82,depth_duration_stimuli/002748_2014-06-22_19-07-22_094959634447_rgbf000078-resize_1/002748_2014-06-22_19-07-22_094959634447_rgbf000078-resize_1-target.png,250,4.6705,80,3171,249,feet,jsons/v1_VE250_randls_29_rotated.json,891699,1460706,56,Man
82,713343,DepthScenes,duration_manipulation_targetAtFixation,jsons/v1_VE250_randls_29_rotated.json,http://54.235.29.9/FacialAge/BNav_EC2/DepthDuration/v2_depth_duration_MTurk/v2_DepthDuration_HTML.html#84,84,1024,625,1024,768,8-20-2022,11-58-12,83,depth_duration_stimuli/000137_2014-05-20_17-04-49_260595134347_rgbf000120-resize_1/000137_2014-05-20_17-04-49_260595134347_rgbf000120-resize_1-target.png,250,3.786,50,3541,253,feet,jsons/v1_VE250_randls_29_rotated.json,891699,1460706,56,Man
83,713343,DepthScenes,duration_manipulation_targetAtFixation,jsons/v1_VE250_randls_29_rotated.json,http://54.235.29.9/FacialAge/BNav_EC2/DepthDuration/v2_depth_duration_MTurk/v2_DepthDuration_HTML.html#84,84,1024,625,1024,768,8-20-2022,11-58-12,84,depth_duration_stimuli/000736_2014-06-08_18-24-15_260595134347_rgbf000206-resize_3/000736_2014-06-08_18-24-15_260595134347_rgbf000206-resize_3-target.png,250,3.515,60,4044,244,feet,jsons/v1_VE250_randls_29_rotated.json,891699,1460706,56,Man
84,713343,DepthScenes,duration_manipulation_targetAtFixation,jsons/v1_VE250_randls_29_rotated.json,http://54.235.29.9/FacialAge/BNav_EC2/DepthDuration/v2_depth_duration_MTurk/v2_DepthDuration_HTML.html#84,84,1024,625,1024,768,8-20-2022,11-58-12,85,depth_duration_stimuli/002344_2014-06-28_20-06-29_260595134347_rgbf000030-resize_1/002344_2014-06-28_20-06-29_260595134347_rgbf000030-resize_1-target.png,250,1.5795,30,3538,250,feet,jsons/v1_VE250_randls_29_rotated.json,891699,1460706,56,Man
85,713343,DepthScenes,duration_manipulation_targetAtFixation,jsons/v1_VE250_randls_29_rotated.json,http://54.235.29.9/FacialAge/BNav_EC2/DepthDuration/v2_depth_duration_MTurk/v2_DepthDuration_HTML.html#84,84,1024,625,1024,768,8-20-2022,11-58-12,86,depth_duration_stimuli/002725_2014-06-22_11-47-51_094959634447_rgbf000070-resize_1/002725_2014-06-22_11-47-51_094959634447_rgbf000070-resize_1-target.png,250,2.195,45,3483,238,feet,jsons/v1_VE250_randls_29_rotated.json,891699,1460706,56,Man
86,713343,DepthScenes,duration_manipulation_targetAtFixation,jsons/v1_VE250_randls_29_rotated.json,http://54.235.29.9/FacialAge/BNav_EC2/DepthDuration/v2_depth_duration_MTurk/v2_DepthDuration_HTML.html#84,84,1024,625,1024,768,8-20-2022,11-58-12,87,depth_duration_stimuli/002639_2014-06-24_14-51-37_094959634447_rgbf000074-resize_4/002639_2014-06-24_14-51-37_094959634447_rgbf000074-resize_4-target.png,250,4.0375,65,3516,249,feet,jsons/v1_VE250_randls_29_rotated.json,891699,1460706,56,Man
87,713343,DepthScenes,duration_manipulation_targetAtFixation,jsons/v1_VE250_randls_29_rotated.json,http://54.235.29.9/FacialAge/BNav_EC2/DepthDuration/v2_depth_duration_MTurk/v2_DepthDuration_HTML.html#84,84,1024,625,1024,768,8-20-2022,11-58-12,88,depth_duration_stimuli/003292_2014-05-14_21-53-49_094959634447_rgbf000100-resize_2/003292_2014-05-14_21-53-49_094959634447_rgbf000100-resize_2-target.png,250,3.4815,65,3547,236,feet,jsons/v1_VE250_randls_29_rotated.json,891699,1460706,56,Man
88,713343,DepthScenes,duration_manipulation_targetAtFixation,jsons/v1_VE250_randls_29_rotated.json,http://54.235.29.9/FacialAge/BNav_EC2/DepthDuration/v2_depth_duration_MTurk/v2_DepthDuration_HTML.html#84,84,1024,625,1024,768,8-20-2022,11-58-12,89,depth_duration_stimuli/000866_2014-06-09_20-45-42_260595134347_rgbf000139-resize_1/000866_2014-06-09_20-45-42_260595134347_rgbf000139-resize_1-target.png,250,3.2155,70,3029,244,feet,jsons/v1_VE250_randls_29_rotated.json,891699,1460706,56,Man
89,713343,DepthScenes,duration_manipulation_targetAtFixation,jsons/v1_VE250_randls_29_rotated.json,http://54.235.29.9/FacialAge/BNav_EC2/DepthDuration/v2_depth_duration_MTurk/v2_DepthDuration_HTML.html#84,84,1024,625,1024,768,8-20-2022,11-58-12,90,depth_duration_stimuli/002989_2014-06-15_12-25-03_094959634447_rgbf000150-resize_3/002989_2014-06-15_12-25-03_094959634447_rgbf000150-resize_3-target.png,250,4.1975,0,4143,249,feet,jsons/v1_VE250_randls_29_rotated.json,891699,1460706,56,Man
90,713343,DepthScenes,duration_manipulation_targetAtFixation,jsons/v1_VE250_randls_29_rotated.json,http://54.235.29.9/FacialAge/BNav_EC2/DepthDuration/v2_depth_duration_MTurk/v2_DepthDuration_HTML.html#84,84,1024,625,1024,768,8-20-2022,11-58-12,91,depth_duration_stimuli/002444_2014-06-28_20-32-08_260595134347_rgbf000027-resize_0/002444_2014-06-28_20-32-08_260595134347_rgbf000027-resize_0-target.png,250,4.388999999999999,65,4503,265,feet,jsons/v1_VE250_randls_29_rotated.json,891699,1460706,56,Man
91,713343,DepthScenes,duration_manipulation_targetAtFixation,jsons/v1_VE250_randls_29_rotated.json,http://54.235.29.9/FacialAge/BNav_EC2/DepthDuration/v2_depth_duration_MTurk/v2_DepthDuration_HTML.html#84,84,1024,625,1024,768,8-20-2022,11-58-12,92,depth_duration_stimuli/000436_2014-06-09_22-25-11_260595134347_rgbf000137-resize_1/000436_2014-06-09_22-25-11_260595134347_rgbf000137-resize_1-target.png,250,4.0705,50,3768,244,feet,jsons/v1_VE250_randls_29_rotated.json,891699,1460706,56,Man
92,713343,DepthScenes,duration_manipulation_targetAtFixation,jsons/v1_VE250_randls_29_rotated.json,http://54.235.29.9/FacialAge/BNav_EC2/DepthDuration/v2_depth_duration_MTurk/v2_DepthDuration_HTML.html#84,84,1024,625,1024,768,8-20-2022,11-58-12,93,depth_duration_stimuli/003423_2014-05-21_10-23-26_094959634447_rgbf002665-resize_2/003423_2014-05-21_10-23-26_094959634447_rgbf002665-resize_2-target.png,250,3.2575,65,3228,302,feet,jsons/v1_VE250_randls_29_rotated.json,891699,1460706,56,Man
93,713343,DepthScenes,duration_manipulation_targetAtFixation,jsons/v1_VE250_randls_29_rotated.json,http://54.235.29.9/FacialAge/BNav_EC2/DepthDuration/v2_depth_duration_MTurk/v2_DepthDuration_HTML.html#84,84,1024,625,1024,768,8-20-2022,11-58-12,94,depth_duration_stimuli/002905_2014-06-03_18-04-43_094959634447_rgbf000151-resize_2/002905_2014-06-03_18-04-43_094959634447_rgbf000151-resize_2-target.png,250,2.0295,50,3334,244,feet,jsons/v1_VE250_randls_29_rotated.json,891699,1460706,56,Man
94,713343,DepthScenes,duration_manipulation_targetAtFixation,jsons/v1_VE250_randls_29_rotated.json,http://54.235.29.9/FacialAge/BNav_EC2/DepthDuration/v2_depth_duration_MTurk/v2_DepthDuration_HTML.html#84,84,1024,625,1024,768,8-20-2022,11-58-12,95,depth_duration_stimuli/003081_2014-06-15_15-19-16_094959634447_rgbf000150-resize_1/003081_2014-06-15_15-19-16_094959634447_rgbf000150-resize_1-target.png,250,3.9125,70,3210,235,feet,jsons/v1_VE250_randls_29_rotated.json,891699,1460706,56,Man
95,713343,DepthScenes,duration_manipulation_targetAtFixation,jsons/v1_VE250_randls_29_rotated.json,http://54.235.29.9/FacialAge/BNav_EC2/DepthDuration/v2_depth_duration_MTurk/v2_DepthDuration_HTML.html#84,84,1024,625,1024,768,8-20-2022,11-58-12,96,depth_duration_stimuli/001417_2014-06-19_16-25-36_260595134347_rgbf000115-resize_5/001417_2014-06-19_16-25-36_260595134347_rgbf000115-resize_5-target.png,250,4.6255,65,3369,243,feet,jsons/v1_VE250_randls_29_rotated.json,891699,1460706,56,Man
96,713343,DepthScenes,duration_manipulation_targetAtFixation,jsons/v1_VE250_randls_29_rotated.json,http://54.235.29.9/FacialAge/BNav_EC2/DepthDuration/v2_depth_duration_MTurk/v2_DepthDuration_HTML.html#84,84,1024,625,1024,768,8-20-2022,11-58-12,97,depth_duration_stimuli/003228_2014-05-14_13-42-35_094959634447_rgbf000101-resize_1/003228_2014-05-14_13-42-35_094959634447_rgbf000101-resize_1-target.png,250,1.9680000000000002,50,3798,247,feet,jsons/v1_VE250_randls_29_rotated.json,891699,1460706,56,Man
97,713343,DepthScenes,duration_manipulation_targetAtFixation,jsons/v1_VE250_randls_29_rotated.json,http://54.235.29.9/FacialAge/BNav_EC2/DepthDuration/v2_depth_duration_MTurk/v2_DepthDuration_HTML.html#84,84,1024,625,1024,768,8-20-2022,11-58-12,98,depth_duration_stimuli/002600_2014-06-24_14-27-04_094959634447_rgbf000074-resize_2/002600_2014-06-24_14-27-04_094959634447_rgbf000074-resize_2-target.png,250,2.7575,50,3090,246,feet,jsons/v1_VE250_randls_29_rotated.json,891699,1460706,56,Man
98,713343,DepthScenes,duration_manipulation_targetAtFixation,jsons/v1_VE250_randls_29_rotated.json,http://54.235.29.9/FacialAge/BNav_EC2/DepthDuration/v2_depth_duration_MTurk/v2_DepthDuration_HTML.html#84,84,1024,625,1024,768,8-20-2022,11-58-12,99,depth_duration_stimuli/001222_2014-06-17_16-24-06_260595134347_rgbf000073-resize_0/001222_2014-06-17_16-24-06_260595134347_rgbf000073-resize-original.jpg,250,1.4385,60,3219,242,feet,jsons/v1_VE250_randls_29_rotated.json,891699,1460706,56,Man
99,713343,DepthScenes,duration_manipulation_targetAtFixation,jsons/v1_VE250_randls_29_rotated.json,http://54.235.29.9/FacialAge/BNav_EC2/DepthDuration/v2_depth_duration_MTurk/v2_DepthDuration_HTML.html#84,84,1024,625,1024,768,8-20-2022,11-58-12,100,depth_duration_stimuli/001132_2014-06-17_14-48-54_260595134347_rgbf000100-resize_2/001132_2014-06-17_14-48-54_260595134347_rgbf000100-resize_2-target.png,250,3.753,50,4938,248,feet,jsons/v1_VE250_randls_29_rotated.json,891699,1460706,56,Man
100,713343,DepthScenes,duration_manipulation_targetAtFixation,jsons/v1_VE250_randls_29_rotated.json,http://54.235.29.9/FacialAge/BNav_EC2/DepthDuration/v2_depth_duration_MTurk/v2_DepthDuration_HTML.html#84,84,1024,625,1024,768,8-20-2022,11-58-12,101,depth_duration_stimuli/001133_2014-06-17_14-49-16_260595134347_rgbf000100-resize_0/001133_2014-06-17_14-49-16_260595134347_rgbf000100-resize_0-target.png,250,4.2115,50,2968,258,feet,jsons/v1_VE250_randls_29_rotated.json,891699,1460706,56,Man
101,713343,DepthScenes,duration_manipulation_targetAtFixation,jsons/v1_VE250_randls_29_rotated.json,http://54.235.29.9/FacialAge/BNav_EC2/DepthDuration/v2_depth_duration_MTurk/v2_DepthDuration_HTML.html#84,84,1024,625,1024,768,8-20-2022,11-58-12,102,depth_duration_stimuli/003010_2014-06-15_12-54-35_094959634447_rgbf000112-resize_0/003010_2014-06-15_12-54-35_094959634447_rgbf000112-resize_0-target.png,250,3.1185,70,3146,243,feet,jsons/v1_VE250_randls_29_rotated.json,891699,1460706,56,Man
102,713343,DepthScenes,duration_manipulation_targetAtFixation,jsons/v1_VE250_randls_29_rotated.json,http://54.235.29.9/FacialAge/BNav_EC2/DepthDuration/v2_depth_duration_MTurk/v2_DepthDuration_HTML.html#84,84,1024,625,1024,768,8-20-2022,11-58-12,103,depth_duration_stimuli/001810_2014-06-26_20-51-35_260595134347_rgbf000040-resize_3/001810_2014-06-26_20-51-35_260595134347_rgbf000040-resize_3-target.png,250,2.2525,50,2843,255,feet,jsons/v1_VE250_randls_29_rotated.json,891699,1460706,56,Man
103,713343,DepthScenes,duration_manipulation_targetAtFixation,jsons/v1_VE250_randls_29_rotated.json,http://54.235.29.9/FacialAge/BNav_EC2/DepthDuration/v2_depth_duration_MTurk/v2_DepthDuration_HTML.html#84,84,1024,625,1024,768,8-20-2022,11-58-12,104,depth_duration_stimuli/000409_2014-06-04_19-23-33_260595134347_rgbf000067-resize_0/000409_2014-06-04_19-23-33_260595134347_rgbf000067-resize_0-target.png,250,3.7335,65,3051,250,feet,jsons/v1_VE250_randls_29_rotated.json,891699,1460706,56,Man
104,713343,DepthScenes,duration_manipulation_targetAtFixation,jsons/v1_VE250_randls_29_rotated.json,http://54.235.29.9/FacialAge/BNav_EC2/DepthDuration/v2_depth_duration_MTurk/v2_DepthDuration_HTML.html#84,84,1024,625,1024,768,8-20-2022,11-58-12,105,depth_duration_stimuli/002663_2014-06-13_15-50-26_094959634447_rgbf000075-resize_1/002663_2014-06-13_15-50-26_094959634447_rgbf000075-resize_1-target.png,250,4.7495,60,3010,338,feet,jsons/v1_VE250_randls_29_rotated.json,891699,1460706,56,Man
105,713343,DepthScenes,duration_manipulation_targetAtFixation,jsons/v1_VE250_randls_29_rotated.json,http://54.235.29.9/FacialAge/BNav_EC2/DepthDuration/v2_depth_duration_MTurk/v2_DepthDuration_HTML.html#84,84,1024,625,1024,768,8-20-2022,11-58-12,106,depth_duration_stimuli/000734_2014-06-08_17-39-11_260595134347_rgbf000128-resize_2/000734_2014-06-08_17-39-11_260595134347_rgbf000128-resize_2-target.png,250,4.098,60,3023,254,feet,jsons/v1_VE250_randls_29_rotated.json,891699,1460706,56,Man
106,713343,DepthScenes,duration_manipulation_targetAtFixation,jsons/v1_VE250_randls_29_rotated.json,http://54.235.29.9/FacialAge/BNav_EC2/DepthDuration/v2_depth_duration_MTurk/v2_DepthDuration_HTML.html#84,84,1024,625,1024,768,8-20-2022,11-58-12,107,depth_duration_stimuli/000739_2014-06-08_18-45-58_260595134347_rgbf000068-resize_1/000739_2014-06-08_18-45-58_260595134347_rgbf000068-resize_1-target.png,250,3.534,60,3667,251,feet,jsons/v1_VE250_randls_29_rotated.json,891699,1460706,56,Man
107,713343,DepthScenes,duration_manipulation_targetAtFixation,jsons/v1_VE250_randls_29_rotated.json,http://54.235.29.9/FacialAge/BNav_EC2/DepthDuration/v2_depth_duration_MTurk/v2_DepthDuration_HTML.html#84,84,1024,625,1024,768,8-20-2022,11-58-12,108,depth_duration_stimuli/001447_2014-06-19_17-00-32_260595134347_rgbf000082-resize_5/001447_2014-06-19_17-00-32_260595134347_rgbf000082-resize_5-target.png,250,4.13775,65,2821,193,feet,jsons/v1_VE250_randls_29_rotated.json,891699,1460706,56,Man
108,713343,DepthScenes,duration_manipulation_targetAtFixation,jsons/v1_VE250_randls_29_rotated.json,http://54.235.29.9/FacialAge/BNav_EC2/DepthDuration/v2_depth_duration_MTurk/v2_DepthDuration_HTML.html#84,84,1024,625,1024,768,8-20-2022,11-58-12,109,depth_duration_stimuli/000447_2014-06-08_16-15-46_260595134347_rgbf000130-resize_1/000447_2014-06-08_16-15-46_260595134347_rgbf000130-resize_1-target.png,250,4.479,70,2817,261,feet,jsons/v1_VE250_randls_29_rotated.json,891699,1460706,56,Man
109,713343,DepthScenes,duration_manipulation_targetAtFixation,jsons/v1_VE250_randls_29_rotated.json,http://54.235.29.9/FacialAge/BNav_EC2/DepthDuration/v2_depth_duration_MTurk/v2_DepthDuration_HTML.html#84,84,1024,625,1024,768,8-20-2022,11-58-12,110,depth_duration_stimuli/000749_2014-06-08_21-55-06_260595134347_rgbf000070-resize_2/000749_2014-06-08_21-55-06_260595134347_rgbf000070-resize_2-target.png,250,2.331,55,2865,251,feet,jsons/v1_VE250_randls_29_rotated.json,891699,1460706,56,Man
110,713343,DepthScenes,duration_manipulation_targetAtFixation,jsons/v1_VE250_randls_29_rotated.json,http://54.235.29.9/FacialAge/BNav_EC2/DepthDuration/v2_depth_duration_MTurk/v2_DepthDuration_HTML.html#84,84,1024,625,1024,768,8-20-2022,11-58-12,111,depth_duration_stimuli/002788_2014-06-22_19-36-03_094959634447_rgbf000088-resize_2/002788_2014-06-22_19-36-03_094959634447_rgbf000088-resize_2-target.png,250,1.6465,50,3381,202,feet,jsons/v1_VE250_randls_29_rotated.json,891699,1460706,56,Man
111,713343,DepthScenes,duration_manipulation_targetAtFixation,jsons/v1_VE250_randls_29_rotated.json,http://54.235.29.9/FacialAge/BNav_EC2/DepthDuration/v2_depth_duration_MTurk/v2_DepthDuration_HTML.html#84,84,1024,625,1024,768,8-20-2022,11-58-12,112,depth_duration_stimuli/002805_2014-06-22_19-54-03_094959634447_rgbf000079-resize_1/002805_2014-06-22_19-54-03_094959634447_rgbf000079-resize_1-target.png,250,3.1439999999999997,60,3344,246,feet,jsons/v1_VE250_randls_29_rotated.json,891699,1460706,56,Man
112,713343,DepthScenes,duration_manipulation_targetAtFixation,jsons/v1_VE250_randls_29_rotated.json,http://54.235.29.9/FacialAge/BNav_EC2/DepthDuration/v2_depth_duration_MTurk/v2_DepthDuration_HTML.html#84,84,1024,625,1024,768,8-20-2022,11-58-12,113,depth_duration_stimuli/000906_2014-06-08_13-35-43_260595134347_rgbf000155-resize_1/000906_2014-06-08_13-35-43_260595134347_rgbf000155-resize_1-target.png,250,2.8489999999999998,70,4181,248,feet,jsons/v1_VE250_randls_29_rotated.json,891699,1460706,56,Man
113,713343,DepthScenes,duration_manipulation_targetAtFixation,jsons/v1_VE250_randls_29_rotated.json,http://54.235.29.9/FacialAge/BNav_EC2/DepthDuration/v2_depth_duration_MTurk/v2_DepthDuration_HTML.html#84,84,1024,625,1024,768,8-20-2022,11-58-12,114,depth_duration_stimuli/000103_2014-05-14_22-01-17_260595134347_rgbf000152-resize_5/000103_2014-05-14_22-01-17_260595134347_rgbf000152-resize_5-target.png,250,1.993,50,2883,256,feet,jsons/v1_VE250_randls_29_rotated.json,891699,1460706,56,Man
114,713343,DepthScenes,duration_manipulation_targetAtFixation,jsons/v1_VE250_randls_29_rotated.json,http://54.235.29.9/FacialAge/BNav_EC2/DepthDuration/v2_depth_duration_MTurk/v2_DepthDuration_HTML.html#84,84,1024,625,1024,768,8-20-2022,11-58-12,115,depth_duration_stimuli/001555_2014-06-20_17-12-10_260595134347_rgbf000065-resize_4/001555_2014-06-20_17-12-10_260595134347_rgbf000065-resize_4-target.png,250,1.633,50,5699,269,feet,jsons/v1_VE250_randls_29_rotated.json,891699,1460706,56,Man
115,713343,DepthScenes,duration_manipulation_targetAtFixation,jsons/v1_VE250_randls_29_rotated.json,http://54.235.29.9/FacialAge/BNav_EC2/DepthDuration/v2_depth_duration_MTurk/v2_DepthDuration_HTML.html#84,84,1024,625,1024,768,8-20-2022,11-58-12,116,depth_duration_stimuli/002103_2014-06-25_20-00-40_260595134347_rgbf000049-resize_0/002103_2014-06-25_20-00-40_260595134347_rgbf000049-resize_0-target.png,250,4.105,50,3445,216,feet,jsons/v1_VE250_randls_29_rotated.json,891699,1460706,56,Man
116,713343,DepthScenes,duration_manipulation_targetAtFixation,jsons/v1_VE250_randls_29_rotated.json,http://54.235.29.9/FacialAge/BNav_EC2/DepthDuration/v2_depth_duration_MTurk/v2_DepthDuration_HTML.html#84,84,1024,625,1024,768,8-20-2022,11-58-12,117,depth_duration_stimuli/002039_2014-06-24_20-22-38_260595134347_rgbf000084-resize_1/002039_2014-06-24_20-22-38_260595134347_rgbf000084-resize_1-target.png,250,4.408,65,3450,243,feet,jsons/v1_VE250_randls_29_rotated.json,891699,1460706,56,Man
117,713343,DepthScenes,duration_manipulation_targetAtFixation,jsons/v1_VE250_randls_29_rotated.json,http://54.235.29.9/FacialAge/BNav_EC2/DepthDuration/v2_depth_duration_MTurk/v2_DepthDuration_HTML.html#84,84,1024,625,1024,768,8-20-2022,11-58-12,118,depth_duration_stimuli/003129_2014-05-12_10-48-10_094959634447_rgbf000100-resize_0/003129_2014-05-12_10-48-10_094959634447_rgbf000100-resize_0-target.png,250,4.9305,60,4658,246,feet,jsons/v1_VE250_randls_29_rotated.json,891699,1460706,56,Man
118,713343,DepthScenes,duration_manipulation_targetAtFixation,jsons/v1_VE250_randls_29_rotated.json,http://54.235.29.9/FacialAge/BNav_EC2/DepthDuration/v2_depth_duration_MTurk/v2_DepthDuration_HTML.html#84,84,1024,625,1024,768,8-20-2022,11-58-12,119,depth_duration_stimuli/000414_2014-06-04_19-49-13_260595134347_rgbf000044-resize_0/000414_2014-06-04_19-49-13_260595134347_rgbf000044-resize_0-target.png,250,4.329,50,3198,244,feet,jsons/v1_VE250_randls_29_rotated.json,891699,1460706,56,Man
119,713343,DepthScenes,duration_manipulation_targetAtFixation,jsons/v1_VE250_randls_29_rotated.json,http://54.235.29.9/FacialAge/BNav_EC2/DepthDuration/v2_depth_duration_MTurk/v2_DepthDuration_HTML.html#84,84,1024,625,1024,768,8-20-2022,11-58-12,120,depth_duration_stimuli/000787_2014-06-08_22-33-53_260595134347_rgbf000175-resize_1/000787_2014-06-08_22-33-53_260595134347_rgbf000175-resize-original.jpg,250,4.784,50,3011,242,feet,jsons/v1_VE250_randls_29_rotated.json,891699,1460706,56,Man
120,713343,DepthScenes,duration_manipulation_targetAtFixation,jsons/v1_VE250_randls_29_rotated.json,http://54.235.29.9/FacialAge/BNav_EC2/DepthDuration/v2_depth_duration_MTurk/v2_DepthDuration_HTML.html#84,84,1024,625,1024,768,8-20-2022,11-58-12,121,depth_duration_stimuli/000742_2014-06-08_18-48-09_260595134347_rgbf000164-resize_4/000742_2014-06-08_18-48-09_260595134347_rgbf000164-resize_4-target.png,250,4.632,65,2990,237,feet,jsons/v1_VE250_randls_29_rotated.json,891699,1460706,56,Man
121,713343,DepthScenes,duration_manipulation_targetAtFixation,jsons/v1_VE250_randls_29_rotated.json,http://54.235.29.9/FacialAge/BNav_EC2/DepthDuration/v2_depth_duration_MTurk/v2_DepthDuration_HTML.html#84,84,1024,625,1024,768,8-20-2022,11-58-12,122,depth_duration_stimuli/001066_2014-06-08_22-03-20_260595134347_rgbf000066-resize_4/001066_2014-06-08_22-03-20_260595134347_rgbf000066-resize_4-target.png,250,4.2330000000000005,65,3771,249,feet,jsons/v1_VE250_randls_29_rotated.json,891699,1460706,56,Man
122,713343,DepthScenes,duration_manipulation_targetAtFixation,jsons/v1_VE250_randls_29_rotated.json,http://54.235.29.9/FacialAge/BNav_EC2/DepthDuration/v2_depth_duration_MTurk/v2_DepthDuration_HTML.html#84,84,1024,625,1024,768,8-20-2022,11-58-12,123,depth_duration_stimuli/002323_2014-06-28_20-01-54_260595134347_rgbf000051-resize_4/002323_2014-06-28_20-01-54_260595134347_rgbf000051-resize_4-target.png,250,3.7310000000000003,65,3070,251,feet,jsons/v1_VE250_randls_29_rotated.json,891699,1460706,56,Man
123,713343,DepthScenes,duration_manipulation_targetAtFixation,jsons/v1_VE250_randls_29_rotated.json,http://54.235.29.9/FacialAge/BNav_EC2/DepthDuration/v2_depth_duration_MTurk/v2_DepthDuration_HTML.html#84,84,1024,625,1024,768,8-20-2022,11-58-12,124,depth_duration_stimuli/000917_2014-06-09_22-45-29_260595134347_rgbf000149-resize_3/000917_2014-06-09_22-45-29_260595134347_rgbf000149-resize_3-target.png,250,4.1865,70,3186,253,feet,jsons/v1_VE250_randls_29_rotated.json,891699,1460706,56,Man
124,713343,DepthScenes,duration_manipulation_targetAtFixation,jsons/v1_VE250_randls_29_rotated.json,http://54.235.29.9/FacialAge/BNav_EC2/DepthDuration/v2_depth_duration_MTurk/v2_DepthDuration_HTML.html#84,84,1024,625,1024,768,8-20-2022,11-58-12,125,depth_duration_stimuli/002467_2014-06-28_20-38-07_260595134347_rgbf000026-resize_2/002467_2014-06-28_20-38-07_260595134347_rgbf000026-resize_2-target.png,250,4.742,50,3323,238,feet,jsons/v1_VE250_randls_29_rotated.json,891699,1460706,56,Man
125,713343,DepthScenes,duration_manipulation_targetAtFixation,jsons/v1_VE250_randls_29_rotated.json,http://54.235.29.9/FacialAge/BNav_EC2/DepthDuration/v2_depth_duration_MTurk/v2_DepthDuration_HTML.html#84,84,1024,625,1024,768,8-20-2022,11-58-12,126,depth_duration_stimuli/002570_2014-06-24_13-59-54_094959634447_rgbf000059-resize_0/002570_2014-06-24_13-59-54_094959634447_rgbf000059-resize_0-target.png,250,4.037,580,2763,248,feet,jsons/v1_VE250_randls_29_rotated.json,891699,1460706,56,Man
126,713343,DepthScenes,duration_manipulation_targetAtFixation,jsons/v1_VE250_randls_29_rotated.json,http://54.235.29.9/FacialAge/BNav_EC2/DepthDuration/v2_depth_duration_MTurk/v2_DepthDuration_HTML.html#84,84,1024,625,1024,768,8-20-2022,11-58-12,127,depth_duration_stimuli/000549_2014-06-08_22-10-24_260595134347_rgbf000247-resize_3/000549_2014-06-08_22-10-24_260595134347_rgbf000247-resize_3-target.png,250,1.841,65,3436,251,feet,jsons/v1_VE250_randls_29_rotated.json,891699,1460706,56,Man
127,713343,DepthScenes,duration_manipulation_targetAtFixation,jsons/v1_VE250_randls_29_rotated.json,http://54.235.29.9/FacialAge/BNav_EC2/DepthDuration/v2_depth_duration_MTurk/v2_DepthDuration_HTML.html#84,84,1024,625,1024,768,8-20-2022,11-58-12,128,depth_duration_stimuli/001055_2014-06-08_18-45-35_260595134347_rgbf000111-resize_4/001055_2014-06-08_18-45-35_260595134347_rgbf000111-resize_4-target.png,250,2.4290000000000003,70,2991,229,feet,jsons/v1_VE250_randls_29_rotated.json,891699,1460706,56,Man
128,713343,DepthScenes,duration_manipulation_targetAtFixation,jsons/v1_VE250_randls_29_rotated.json,http://54.235.29.9/FacialAge/BNav_EC2/DepthDuration/v2_depth_duration_MTurk/v2_DepthDuration_HTML.html#84,84,1024,625,1024,768,8-20-2022,11-58-12,129,depth_duration_stimuli/002545_2014-06-24_13-38-53_094959634447_rgbf000080-resize_4/002545_2014-06-24_13-38-53_094959634447_rgbf000080-resize_4-target.png,250,1.9205,50,3309,167,feet,jsons/v1_VE250_randls_29_rotated.json,891699,1460706,56,Man
129,713343,DepthScenes,duration_manipulation_targetAtFixation,jsons/v1_VE250_randls_29_rotated.json,http://54.235.29.9/FacialAge/BNav_EC2/DepthDuration/v2_depth_duration_MTurk/v2_DepthDuration_HTML.html#84,84,1024,625,1024,768,8-20-2022,11-58-12,130,depth_duration_stimuli/001092_2014-06-15_17-34-58_260595134347_rgbf000171-resize_3/001092_2014-06-15_17-34-58_260595134347_rgbf000171-resize_3-target.png,250,2.6935,65,3360,248,feet,jsons/v1_VE250_randls_29_rotated.json,891699,1460706,56,Man
130,713343,DepthScenes,duration_manipulation_targetAtFixation,jsons/v1_VE250_randls_29_rotated.json,http://54.235.29.9/FacialAge/BNav_EC2/DepthDuration/v2_depth_duration_MTurk/v2_DepthDuration_HTML.html#84,84,1024,625,1024,768,8-20-2022,11-58-12,131,depth_duration_stimuli/000709_2014-06-08_13-51-55_260595134347_rgbf000068-resize_3/000709_2014-06-08_13-51-55_260595134347_rgbf000068-resize_3-target.png,250,1.8030000000000002,50,3128,253,feet,jsons/v1_VE250_randls_29_rotated.json,891699,1460706,56,Man
131,713343,DepthScenes,duration_manipulation_targetAtFixation,jsons/v1_VE250_randls_29_rotated.json,http://54.235.29.9/FacialAge/BNav_EC2/DepthDuration/v2_depth_duration_MTurk/v2_DepthDuration_HTML.html#84,84,1024,625,1024,768,8-20-2022,11-58-12,132,depth_duration_stimuli/002057_2014-06-24_21-00-13_260595134347_rgbf000120-resize_1/002057_2014-06-24_21-00-13_260595134347_rgbf000120-resize_1-target.png,250,2.967,65,8290,260,feet,jsons/v1_VE250_randls_29_rotated.json,891699,1460706,56,Man
132,713343,DepthScenes,duration_manipulation_targetAtFixation,jsons/v1_VE250_randls_29_rotated.json,http://54.235.29.9/FacialAge/BNav_EC2/DepthDuration/v2_depth_duration_MTurk/v2_DepthDuration_HTML.html#84,84,1024,625,1024,768,8-20-2022,11-58-12,133,depth_duration_stimuli/001052_2014-06-08_18-24-54_260595134347_rgbf000130-resize_1/001052_2014-06-08_18-24-54_260595134347_rgbf000130-resize_1-target.png,250,4.1045,50,3048,252,feet,jsons/v1_VE250_randls_29_rotated.json,891699,1460706,56,Man
133,713343,DepthScenes,duration_manipulation_targetAtFixation,jsons/v1_VE250_randls_29_rotated.json,http://54.235.29.9/FacialAge/BNav_EC2/DepthDuration/v2_depth_duration_MTurk/v2_DepthDuration_HTML.html#84,84,1024,625,1024,768,8-20-2022,11-58-12,134,depth_duration_stimuli/002988_2014-06-15_12-24-20_094959634447_rgbf000150-resize_1/002988_2014-06-15_12-24-20_094959634447_rgbf000150-resize_1-target.png,250,4.7669999999999995,65,4257,268,feet,jsons/v1_VE250_randls_29_rotated.json,891699,1460706,56,Man
134,713343,DepthScenes,duration_manipulation_targetAtFixation,jsons/v1_VE250_randls_29_rotated.json,http://54.235.29.9/FacialAge/BNav_EC2/DepthDuration/v2_depth_duration_MTurk/v2_DepthDuration_HTML.html#84,84,1024,625,1024,768,8-20-2022,11-58-12,135,depth_duration_stimuli/000375_2014-06-08_11-17-29_260595134347_rgbf000133-resize_2/000375_2014-06-08_11-17-29_260595134347_rgbf000133-resize-original.jpg,250,4.718,50,2880,253,feet,jsons/v1_VE250_randls_29_rotated.json,891699,1460706,56,Man
135,713343,DepthScenes,duration_manipulation_targetAtFixation,jsons/v1_VE250_randls_29_rotated.json,http://54.235.29.9/FacialAge/BNav_EC2/DepthDuration/v2_depth_duration_MTurk/v2_DepthDuration_HTML.html#84,84,1024,625,1024,768,8-20-2022,11-58-12,136,depth_duration_stimuli/001094_2014-06-15_17-36-00_260595134347_rgbf000205-resize_0/001094_2014-06-15_17-36-00_260595134347_rgbf000205-resize_0-target.png,250,4.2175,50,2916,238,feet,jsons/v1_VE250_randls_29_rotated.json,891699,1460706,56,Man
136,713343,DepthScenes,duration_manipulation_targetAtFixation,jsons/v1_VE250_randls_29_rotated.json,http://54.235.29.9/FacialAge/BNav_EC2/DepthDuration/v2_depth_duration_MTurk/v2_DepthDuration_HTML.html#84,84,1024,625,1024,768,8-20-2022,11-58-12,137,depth_duration_stimuli/000692_2014-06-08_13-09-42_260595134347_rgbf000199-resize_2/000692_2014-06-08_13-09-42_260595134347_rgbf000199-resize_2-target.png,250,3.661,50,115647,237,feet,jsons/v1_VE250_randls_29_rotated.json,891699,1460706,56,Man
137,713343,DepthScenes,duration_manipulation_targetAtFixation,jsons/v1_VE250_randls_29_rotated.json,http://54.235.29.9/FacialAge/BNav_EC2/DepthDuration/v2_depth_duration_MTurk/v2_DepthDuration_HTML.html#84,84,1024,625,1024,768,8-20-2022,11-58-12,138,depth_duration_stimuli/000691_2014-06-08_13-08-50_260595134347_rgbf000132-resize_3/000691_2014-06-08_13-08-50_260595134347_rgbf000132-resize_3-target.png,250,4.1530000000000005,52,26245,244,feet,jsons/v1_VE250_randls_29_rotated.json,891699,1460706,56,Man
138,713343,DepthScenes,duration_manipulation_targetAtFixation,jsons/v1_VE250_randls_29_rotated.json,http://54.235.29.9/FacialAge/BNav_EC2/DepthDuration/v2_depth_duration_MTurk/v2_DepthDuration_HTML.html#84,84,1024,625,1024,768,8-20-2022,11-58-12,139,depth_duration_stimuli/002213_2014-06-28_18-37-58_260595134347_rgbf000055-resize_1/002213_2014-06-28_18-37-58_260595134347_rgbf000055-resize_1-target.png,250,3.62,54,5948,257,feet,jsons/v1_VE250_randls_29_rotated.json,891699,1460706,56,Man
139,713343,DepthScenes,duration_manipulation_targetAtFixation,jsons/v1_VE250_randls_29_rotated.json,http://54.235.29.9/FacialAge/BNav_EC2/DepthDuration/v2_depth_duration_MTurk/v2_DepthDuration_HTML.html#84,84,1024,625,1024,768,8-20-2022,11-58-12,140,depth_duration_stimuli/001136_2014-06-17_15-19-41_260595134347_rgbf000076-resize_3/001136_2014-06-17_15-19-41_260595134347_rgbf000076-resize_3-target.png,250,1.8655,50,2901,254,feet,jsons/v1_VE250_randls_29_rotated.json,891699,1460706,56,Man
140,713343,DepthScenes,duration_manipulation_targetAtFixation,jsons/v1_VE250_randls_29_rotated.json,http://54.235.29.9/FacialAge/BNav_EC2/DepthDuration/v2_depth_duration_MTurk/v2_DepthDuration_HTML.html#84,84,1024,625,1024,768,8-20-2022,11-58-12,141,depth_duration_stimuli/001164_2014-06-17_15-35-46_260595134347_rgbf000085-resize_3/001164_2014-06-17_15-35-46_260595134347_rgbf000085-resize_3-target.png,250,2.354,50,3658,239,feet,jsons/v1_VE250_randls_29_rotated.json,891699,1460706,56,Man
141,713343,DepthScenes,duration_manipulation_targetAtFixation,jsons/v1_VE250_randls_29_rotated.json,http://54.235.29.9/FacialAge/BNav_EC2/DepthDuration/v2_depth_duration_MTurk/v2_DepthDuration_HTML.html#84,84,1024,625,1024,768,8-20-2022,11-58-12,142,depth_duration_stimuli/003490_2014-05-21_15-50-11_094959634447_rgbf000101-resize_3/003490_2014-05-21_15-50-11_094959634447_rgbf000101-resize_3-target.png,250,3.6445,60,3016,249,feet,jsons/v1_VE250_randls_29_rotated.json,891699,1460706,56,Man
142,713343,DepthScenes,duration_manipulation_targetAtFixation,jsons/v1_VE250_randls_29_rotated.json,http://54.235.29.9/FacialAge/BNav_EC2/DepthDuration/v2_depth_duration_MTurk/v2_DepthDuration_HTML.html#84,84,1024,625,1024,768,8-20-2022,11-58-12,143,depth_duration_stimuli/001175_2014-06-17_15-45-55_260595134347_rgbf000129-resize_4/001175_2014-06-17_15-45-55_260595134347_rgbf000129-resize_4-target.png,250,4.255,50,2846,250,feet,jsons/v1_VE250_randls_29_rotated.json,891699,1460706,56,Man
143,713343,DepthScenes,duration_manipulation_targetAtFixation,jsons/v1_VE250_randls_29_rotated.json,http://54.235.29.9/FacialAge/BNav_EC2/DepthDuration/v2_depth_duration_MTurk/v2_DepthDuration_HTML.html#84,84,1024,625,1024,768,8-20-2022,11-58-12,144,depth_duration_stimuli/002750_2014-06-22_19-08-03_094959634447_rgbf000094-resize_4/002750_2014-06-22_19-08-03_094959634447_rgbf000094-resize_4-target.png,250,2.354,50,7313,254,feet,jsons/v1_VE250_randls_29_rotated.json,891699,1460706,56,Man
144,713343,DepthScenes,duration_manipulation_targetAtFixation,jsons/v1_VE250_randls_29_rotated.json,http://54.235.29.9/FacialAge/BNav_EC2/DepthDuration/v2_depth_duration_MTurk/v2_DepthDuration_HTML.html#84,84,1024,625,1024,768,8-20-2022,11-58-12,145,depth_duration_stimuli/002549_2014-06-24_13-41-39_094959634447_rgbf000022-resize_3/002549_2014-06-24_13-41-39_094959634447_rgbf000022-resize_3-target.png,250,1.476,50,4260,236,feet,jsons/v1_VE250_randls_29_rotated.json,891699,1460706,56,Man
145,713343,DepthScenes,duration_manipulation_targetAtFixation,jsons/v1_VE250_randls_29_rotated.json,http://54.235.29.9/FacialAge/BNav_EC2/DepthDuration/v2_depth_duration_MTurk/v2_DepthDuration_HTML.html#84,84,1024,625,1024,768,8-20-2022,11-58-12,146,depth_duration_stimuli/002637_2014-06-24_14-51-13_094959634447_rgbf000066-resize_4/002637_2014-06-24_14-51-13_094959634447_rgbf000066-resize_4-target.png,250,1.9955,50,4268,249,feet,jsons/v1_VE250_randls_29_rotated.json,891699,1460706,56,Man
146,713343,DepthScenes,duration_manipulation_targetAtFixation,jsons/v1_VE250_randls_29_rotated.json,http://54.235.29.9/FacialAge/BNav_EC2/DepthDuration/v2_depth_duration_MTurk/v2_DepthDuration_HTML.html#84,84,1024,625,1024,768,8-20-2022,11-58-12,147,depth_duration_stimuli/003534_2014-05-22_15-06-10_094959634447_rgbf000102-resize_4/003534_2014-05-22_15-06-10_094959634447_rgbf000102-resize_4-target.png,250,1.426,40,5625,254,feet,jsons/v1_VE250_randls_29_rotated.json,891699,1460706,56,Man
147,713343,DepthScenes,duration_manipulation_targetAtFixation,jsons/v1_VE250_randls_29_rotated.json,http://54.235.29.9/FacialAge/BNav_EC2/DepthDuration/v2_depth_duration_MTurk/v2_DepthDuration_HTML.html#84,84,1024,625,1024,768,8-20-2022,11-58-12,148,depth_duration_stimuli/001584_2014-06-20_11-07-43_260595134347_rgbf000002-resize_1/001584_2014-06-20_11-07-43_260595134347_rgbf000002-resize_1-target.png,250,3.53,40,4363,234,feet,jsons/v1_VE250_randls_29_rotated.json,891699,1460706,56,Man
148,713343,DepthScenes,duration_manipulation_targetAtFixation,jsons/v1_VE250_randls_29_rotated.json,http://54.235.29.9/FacialAge/BNav_EC2/DepthDuration/v2_depth_duration_MTurk/v2_DepthDuration_HTML.html#84,84,1024,625,1024,768,8-20-2022,11-58-12,149,depth_duration_stimuli/003621_2014-05-23_18-06-08_094959634447_rgbf000101-resize_1/003621_2014-05-23_18-06-08_094959634447_rgbf000101-resize_1-target.png,250,3.9835,40,4411,258,feet,jsons/v1_VE250_randls_29_rotated.json,891699,1460706,56,Man
149,713343,DepthScenes,duration_manipulation_targetAtFixation,jsons/v1_VE250_randls_29_rotated.json,http://54.235.29.9/FacialAge/BNav_EC2/DepthDuration/v2_depth_duration_MTurk/v2_DepthDuration_HTML.html#84,84,1024,625,1024,768,8-20-2022,11-58-12,150,depth_duration_stimuli/000780_2014-06-08_22-28-29_260595134347_rgbf000126-resize_1/000780_2014-06-08_22-28-29_260595134347_rgbf000126-resize_1-target.png,250,3.3825,40,3851,253,feet,jsons/v1_VE250_randls_29_rotated.json,891699,1460706,56,Man
150,713343,DepthScenes,duration_manipulation_targetAtFixation,jsons/v1_VE250_randls_29_rotated.json,http://54.235.29.9/FacialAge/BNav_EC2/DepthDuration/v2_depth_duration_MTurk/v2_DepthDuration_HTML.html#84,84,1024,625,1024,768,8-20-2022,11-58-12,151,depth_duration_stimuli/002445_2014-06-28_20-32-16_260595134347_rgbf000029-resize_4/002445_2014-06-28_20-32-16_260595134347_rgbf000029-resize_4-target.png,250,2.5315,40,6553,393,feet,jsons/v1_VE250_randls_29_rotated.json,891699,1460706,56,Man
151,713343,DepthScenes,duration_manipulation_targetAtFixation,jsons/v1_VE250_randls_29_rotated.json,http://54.235.29.9/FacialAge/BNav_EC2/DepthDuration/v2_depth_duration_MTurk/v2_DepthDuration_HTML.html#84,84,1024,625,1024,768,8-20-2022,11-58-12,152,depth_duration_stimuli/000569_2014-06-09_22-51-47_260595134347_rgbf000141-resize_3/000569_2014-06-09_22-51-47_260595134347_rgbf000141-resize-original.jpg,250,4.512,40,5232,247,feet,jsons/v1_VE250_randls_29_rotated.json,891699,1460706,56,Man
152,713343,DepthScenes,duration_manipulation_targetAtFixation,jsons/v1_VE250_randls_29_rotated.json,http://54.235.29.9/FacialAge/BNav_EC2/DepthDuration/v2_depth_duration_MTurk/v2_DepthDuration_HTML.html#84,84,1024,625,1024,768,8-20-2022,11-58-12,153,depth_duration_stimuli/002678_2014-06-13_16-15-32_094959634447_rgbf000151-resize_6/002678_2014-06-13_16-15-32_094959634447_rgbf000151-resize_6-target.png,250,2.1830000000000003,50,3416,252,feet,jsons/v1_VE250_randls_29_rotated.json,891699,1460706,56,Man
153,713343,DepthScenes,duration_manipulation_targetAtFixation,jsons/v1_VE250_randls_29_rotated.json,http://54.235.29.9/FacialAge/BNav_EC2/DepthDuration/v2_depth_duration_MTurk/v2_DepthDuration_HTML.html#84,84,1024,625,1024,768,8-20-2022,11-58-12,154,depth_duration_stimuli/000368_2014-06-09_15-53-01_260595134347_rgbf000155-resize_2/000368_2014-06-09_15-53-01_260595134347_rgbf000155-resize_2-target.png,250,2.4859999999999998,50,4628,274,feet,jsons/v1_VE250_randls_29_rotated.json,891699,1460706,56,Man
154,713343,DepthScenes,duration_manipulation_targetAtFixation,jsons/v1_VE250_randls_29_rotated.json,http://54.235.29.9/FacialAge/BNav_EC2/DepthDuration/v2_depth_duration_MTurk/v2_DepthDuration_HTML.html#84,84,1024,625,1024,768,8-20-2022,11-58-12,155,depth_duration_stimuli/000191_2014-05-12_17-07-38_260595134347_rgbf000199-resize_0/000191_2014-05-12_17-07-38_260595134347_rgbf000199-resize_0-target.png,250,3.7995,60,3415,267,feet,jsons/v1_VE250_randls_29_rotated.json,891699,1460706,56,Man
155,713343,DepthScenes,duration_manipulation_targetAtFixation,jsons/v1_VE250_randls_29_rotated.json,http://54.235.29.9/FacialAge/BNav_EC2/DepthDuration/v2_depth_duration_MTurk/v2_DepthDuration_HTML.html#84,84,1024,625,1024,768,8-20-2022,11-58-12,156,depth_duration_stimuli/000493_2014-06-09_21-01-18_260595134347_rgbf000196-resize_3/000493_2014-06-09_21-01-18_260595134347_rgbf000196-resize_3-target.png,250,3.44,40,4116,249,feet,jsons/v1_VE250_randls_29_rotated.json,891699,1460706,56,Man
156,713343,DepthScenes,duration_manipulation_targetAtFixation,jsons/v1_VE250_randls_29_rotated.json,http://54.235.29.9/FacialAge/BNav_EC2/DepthDuration/v2_depth_duration_MTurk/v2_DepthDuration_HTML.html#84,84,1024,625,1024,768,8-20-2022,11-58-12,157,depth_duration_stimuli/000677_2014-06-08_23-10-32_260595134347_rgbf000158-resize_6/000677_2014-06-08_23-10-32_260595134347_rgbf000158-resize_6-target.png,250,3.556,45,3420,255,feet,jsons/v1_VE250_randls_29_rotated.json,891699,1460706,56,Man
157,713343,DepthScenes,duration_manipulation_targetAtFixation,jsons/v1_VE250_randls_29_rotated.json,http://54.235.29.9/FacialAge/BNav_EC2/DepthDuration/v2_depth_duration_MTurk/v2_DepthDuration_HTML.html#84,84,1024,625,1024,768,8-20-2022,11-58-12,158,depth_duration_stimuli/001029_2014-06-08_13-17-57_260595134347_rgbf000065-resize_1/001029_2014-06-08_13-17-57_260595134347_rgbf000065-resize_1-target.png,250,3.0835,40,9343,262,feet,jsons/v1_VE250_randls_29_rotated.json,891699,1460706,56,Man
158,713343,DepthScenes,duration_manipulation_targetAtFixation,jsons/v1_VE250_randls_29_rotated.json,http://54.235.29.9/FacialAge/BNav_EC2/DepthDuration/v2_depth_duration_MTurk/v2_DepthDuration_HTML.html#84,84,1024,625,1024,768,8-20-2022,11-58-12,159,depth_duration_stimuli/002568_2014-06-24_13-59-21_094959634447_rgbf000062-resize_4/002568_2014-06-24_13-59-21_094959634447_rgbf000062-resize_4-target.png,250,3.015,40,3058,247,feet,jsons/v1_VE250_randls_29_rotated.json,891699,1460706,56,Man
159,713343,DepthScenes,duration_manipulation_targetAtFixation,jsons/v1_VE250_randls_29_rotated.json,http://54.235.29.9/FacialAge/BNav_EC2/DepthDuration/v2_depth_duration_MTurk/v2_DepthDuration_HTML.html#84,84,1024,625,1024,768,8-20-2022,11-58-12,160,depth_duration_stimuli/003492_2014-05-21_15-50-55_094959634447_rgbf000828-resize_1/003492_2014-05-21_15-50-55_094959634447_rgbf000828-resize_1-target.png,250,4.06875,30,3354,249,feet,jsons/v1_VE250_randls_29_rotated.json,891699,1460706,56,Man
160,713343,DepthScenes,duration_manipulation_targetAtFixation,jsons/v1_VE250_randls_29_rotated.json,http://54.235.29.9/FacialAge/BNav_EC2/DepthDuration/v2_depth_duration_MTurk/v2_DepthDuration_HTML.html#84,84,1024,625,1024,768,8-20-2022,11-58-12,161,depth_duration_stimuli/000556_2014-06-09_22-42-56_260595134347_rgbf000214-resize_1/000556_2014-06-09_22-42-56_260595134347_rgbf000214-resize_1-target.png,250,4.8415,50,3225,243,feet,jsons/v1_VE250_randls_29_rotated.json,891699,1460706,56,Man
161,713343,DepthScenes,duration_manipulation_targetAtFixation,jsons/v1_VE250_randls_29_rotated.json,http://54.235.29.9/FacialAge/BNav_EC2/DepthDuration/v2_depth_duration_MTurk/v2_DepthDuration_HTML.html#84,84,1024,625,1024,768,8-20-2022,11-58-12,162,depth_duration_stimuli/001158_2014-06-17_15-32-16_260595134347_rgbf000138-resize_2/001158_2014-06-17_15-32-16_260595134347_rgbf000138-resize_2-target.png,250,4.5315,60,2878,298,feet,jsons/v1_VE250_randls_29_rotated.json,891699,1460706,56,Man
162,713343,DepthScenes,duration_manipulation_targetAtFixation,jsons/v1_VE250_randls_29_rotated.json,http://54.235.29.9/FacialAge/BNav_EC2/DepthDuration/v2_depth_duration_MTurk/v2_DepthDuration_HTML.html#84,84,1024,625,1024,768,8-20-2022,11-58-12,163,depth_duration_stimuli/003083_2014-06-15_15-21-03_094959634447_rgbf000063-resize_1/003083_2014-06-15_15-21-03_094959634447_rgbf000063-resize_1-target.png,250,4.1405,60,2701,252,feet,jsons/v1_VE250_randls_29_rotated.json,891699,1460706,56,Man
163,713343,DepthScenes,duration_manipulation_targetAtFixation,jsons/v1_VE250_randls_29_rotated.json,http://54.235.29.9/FacialAge/BNav_EC2/DepthDuration/v2_depth_duration_MTurk/v2_DepthDuration_HTML.html#84,84,1024,625,1024,768,8-20-2022,11-58-12,164,depth_duration_stimuli/000486_2014-06-09_20-47-20_260595134347_rgbf000143-resize_2/000486_2014-06-09_20-47-20_260595134347_rgbf000143-resize_2-target.png,250,4.8325,60,3417,249,feet,jsons/v1_VE250_randls_29_rotated.json,891699,1460706,56,Man
