,subjID,experimentName,versionName,sequenceName,url,selected_row,windowWidth,windowHeight,screenWidth,screenHeight,startDate,startTime,trial,stimulus,duration,actual_depth,depth_estimate,trial_RT,log_sceneDuration,unitSelection,seq_filepath,experimentTime,totalTime,age,gender
0,715693,DepthScenes,duration_manipulation_targetAtFixation,jsons/v1_VE1000_randls_23_rotated.json,http://54.235.29.9/FacialAge/BNav_EC2/DepthDuration/v2_depth_duration_MTurk/v2_DepthDuration_HTML.html#216,216,1707,781,1366,768,9-4-2022,10-15-17,1,depth_duration_stimuli/002637_2014-06-24_14-51-13_094959634447_rgbf000066-resize_4/002637_2014-06-24_14-51-13_094959634447_rgbf000066-resize_4-target.png,1000,1.9955,1,16018,997,meters,jsons/v1_VE1000_randls_23_rotated.json,1182422,1642628,52,Man
1,715693,DepthScenes,duration_manipulation_targetAtFixation,jsons/v1_VE1000_randls_23_rotated.json,http://54.235.29.9/FacialAge/BNav_EC2/DepthDuration/v2_depth_duration_MTurk/v2_DepthDuration_HTML.html#216,216,1707,781,1366,768,9-4-2022,10-15-17,2,depth_duration_stimuli/003534_2014-05-22_15-06-10_094959634447_rgbf000102-resize_4/003534_2014-05-22_15-06-10_094959634447_rgbf000102-resize_4-target.png,1000,1.426,4,4642,1008,meters,jsons/v1_VE1000_randls_23_rotated.json,1182422,1642628,52,Man
2,715693,DepthScenes,duration_manipulation_targetAtFixation,jsons/v1_VE1000_randls_23_rotated.json,http://54.235.29.9/FacialAge/BNav_EC2/DepthDuration/v2_depth_duration_MTurk/v2_DepthDuration_HTML.html#216,216,1707,781,1366,768,9-4-2022,10-15-17,3,depth_duration_stimuli/000502_2014-06-08_23-02-32_260595134347_rgbf000063-resize_4/000502_2014-06-08_23-02-32_260595134347_rgbf000063-resize_4-target.png,1000,2.431,2,4410,908,meters,jsons/v1_VE1000_randls_23_rotated.json,1182422,1642628,52,Man
3,715693,DepthScenes,duration_manipulation_targetAtFixation,jsons/v1_VE1000_randls_23_rotated.json,http://54.235.29.9/FacialAge/BNav_EC2/DepthDuration/v2_depth_duration_MTurk/v2_DepthDuration_HTML.html#216,216,1707,781,1366,768,9-4-2022,10-15-17,4,depth_duration_stimuli/001199_2014-06-17_16-03-48_260595134347_rgbf000077-resize_0/001199_2014-06-17_16-03-48_260595134347_rgbf000077-resize_0-target.png,1000,3.4375,2,7358,991,meters,jsons/v1_VE1000_randls_23_rotated.json,1182422,1642628,52,Man
4,715693,DepthScenes,duration_manipulation_targetAtFixation,jsons/v1_VE1000_randls_23_rotated.json,http://54.235.29.9/FacialAge/BNav_EC2/DepthDuration/v2_depth_duration_MTurk/v2_DepthDuration_HTML.html#216,216,1707,781,1366,768,9-4-2022,10-15-17,5,depth_duration_stimuli/001584_2014-06-20_11-07-43_260595134347_rgbf000002-resize_1/001584_2014-06-20_11-07-43_260595134347_rgbf000002-resize_1-target.png,1000,3.53,3,4062,1005,meters,jsons/v1_VE1000_randls_23_rotated.json,1182422,1642628,52,Man
5,715693,DepthScenes,duration_manipulation_targetAtFixation,jsons/v1_VE1000_randls_23_rotated.json,http://54.235.29.9/FacialAge/BNav_EC2/DepthDuration/v2_depth_duration_MTurk/v2_DepthDuration_HTML.html#216,216,1707,781,1366,768,9-4-2022,10-15-17,6,depth_duration_stimuli/003621_2014-05-23_18-06-08_094959634447_rgbf000101-resize_1/003621_2014-05-23_18-06-08_094959634447_rgbf000101-resize_1-target.png,1000,3.9835,1,4702,1002,meters,jsons/v1_VE1000_randls_23_rotated.json,1182422,1642628,52,Man
6,715693,DepthScenes,duration_manipulation_targetAtFixation,jsons/v1_VE1000_randls_23_rotated.json,http://54.235.29.9/FacialAge/BNav_EC2/DepthDuration/v2_depth_duration_MTurk/v2_DepthDuration_HTML.html#216,216,1707,781,1366,768,9-4-2022,10-15-17,7,depth_duration_stimuli/001392_2014-06-19_16-07-59_260595134347_rgbf000046-resize_1/001392_2014-06-19_16-07-59_260595134347_rgbf000046-resize_1-target.png,1000,4.135,2,4616,1009,meters,jsons/v1_VE1000_randls_23_rotated.json,1182422,1642628,52,Man
7,715693,DepthScenes,duration_manipulation_targetAtFixation,jsons/v1_VE1000_randls_23_rotated.json,http://54.235.29.9/FacialAge/BNav_EC2/DepthDuration/v2_depth_duration_MTurk/v2_DepthDuration_HTML.html#216,216,1707,781,1366,768,9-4-2022,10-15-17,8,depth_duration_stimuli/001570_2014-06-20_17-21-09_260595134347_rgbf000135-resize_4/001570_2014-06-20_17-21-09_260595134347_rgbf000135-resize_4-target.png,1000,4.467,3,4028,986,meters,jsons/v1_VE1000_randls_23_rotated.json,1182422,1642628,52,Man
8,715693,DepthScenes,duration_manipulation_targetAtFixation,jsons/v1_VE1000_randls_23_rotated.json,http://54.235.29.9/FacialAge/BNav_EC2/DepthDuration/v2_depth_duration_MTurk/v2_DepthDuration_HTML.html#216,216,1707,781,1366,768,9-4-2022,10-15-17,9,depth_duration_stimuli/001815_2014-06-26_20-52-55_260595134347_rgbf000020-resize_0/001815_2014-06-26_20-52-55_260595134347_rgbf000020-resize_0-target.png,1000,3.3865,5,3922,965,meters,jsons/v1_VE1000_randls_23_rotated.json,1182422,1642628,52,Man
9,715693,DepthScenes,duration_manipulation_targetAtFixation,jsons/v1_VE1000_randls_23_rotated.json,http://54.235.29.9/FacialAge/BNav_EC2/DepthDuration/v2_depth_duration_MTurk/v2_DepthDuration_HTML.html#216,216,1707,781,1366,768,9-4-2022,10-15-17,10,depth_duration_stimuli/001808_2014-06-26_20-50-58_260595134347_rgbf000029-resize_1/001808_2014-06-26_20-50-58_260595134347_rgbf000029-resize_1-target.png,1000,4.249,6,3758,996,meters,jsons/v1_VE1000_randls_23_rotated.json,1182422,1642628,52,Man
10,715693,DepthScenes,duration_manipulation_targetAtFixation,jsons/v1_VE1000_randls_23_rotated.json,http://54.235.29.9/FacialAge/BNav_EC2/DepthDuration/v2_depth_duration_MTurk/v2_DepthDuration_HTML.html#216,216,1707,781,1366,768,9-4-2022,10-15-17,11,depth_duration_stimuli/002995_2014-06-15_12-31-26_094959634447_rgbf000150-resize_1/002995_2014-06-15_12-31-26_094959634447_rgbf000150-resize_1-target.png,1000,3.8360000000000003,7,4529,1008,meters,jsons/v1_VE1000_randls_23_rotated.json,1182422,1642628,52,Man
11,715693,DepthScenes,duration_manipulation_targetAtFixation,jsons/v1_VE1000_randls_23_rotated.json,http://54.235.29.9/FacialAge/BNav_EC2/DepthDuration/v2_depth_duration_MTurk/v2_DepthDuration_HTML.html#216,216,1707,781,1366,768,9-4-2022,10-15-17,12,depth_duration_stimuli/002748_2014-06-22_19-07-22_094959634447_rgbf000078-resize_1/002748_2014-06-22_19-07-22_094959634447_rgbf000078-resize_1-target.png,1000,4.6705,8,4344,999,meters,jsons/v1_VE1000_randls_23_rotated.json,1182422,1642628,52,Man
12,715693,DepthScenes,duration_manipulation_targetAtFixation,jsons/v1_VE1000_randls_23_rotated.json,http://54.235.29.9/FacialAge/BNav_EC2/DepthDuration/v2_depth_duration_MTurk/v2_DepthDuration_HTML.html#216,216,1707,781,1366,768,9-4-2022,10-15-17,13,depth_duration_stimuli/000549_2014-06-08_22-10-24_260595134347_rgbf000247-resize_3/000549_2014-06-08_22-10-24_260595134347_rgbf000247-resize_3-target.png,1000,1.841,9,4200,997,meters,jsons/v1_VE1000_randls_23_rotated.json,1182422,1642628,52,Man
13,715693,DepthScenes,duration_manipulation_targetAtFixation,jsons/v1_VE1000_randls_23_rotated.json,http://54.235.29.9/FacialAge/BNav_EC2/DepthDuration/v2_depth_duration_MTurk/v2_DepthDuration_HTML.html#216,216,1707,781,1366,768,9-4-2022,10-15-17,14,depth_duration_stimuli/001055_2014-06-08_18-45-35_260595134347_rgbf000111-resize_4/001055_2014-06-08_18-45-35_260595134347_rgbf000111-resize_4-target.png,1000,2.4290000000000003,2,15627,991,meters,jsons/v1_VE1000_randls_23_rotated.json,1182422,1642628,52,Man
14,715693,DepthScenes,duration_manipulation_targetAtFixation,jsons/v1_VE1000_randls_23_rotated.json,http://54.235.29.9/FacialAge/BNav_EC2/DepthDuration/v2_depth_duration_MTurk/v2_DepthDuration_HTML.html#216,216,1707,781,1366,768,9-4-2022,10-15-17,15,depth_duration_stimuli/001571_2014-06-20_17-21-32_260595134347_rgbf000089-resize_1/001571_2014-06-20_17-21-32_260595134347_rgbf000089-resize_1-target.png,1000,1.86,2,7431,1000,meters,jsons/v1_VE1000_randls_23_rotated.json,1182422,1642628,52,Man
15,715693,DepthScenes,duration_manipulation_targetAtFixation,jsons/v1_VE1000_randls_23_rotated.json,http://54.235.29.9/FacialAge/BNav_EC2/DepthDuration/v2_depth_duration_MTurk/v2_DepthDuration_HTML.html#216,216,1707,781,1366,768,9-4-2022,10-15-17,16,depth_duration_stimuli/002272_2014-06-28_18-53-56_260595134347_rgbf000067-resize_2/002272_2014-06-28_18-53-56_260595134347_rgbf000067-resize_2-target.png,1000,1.138,1,4276,998,meters,jsons/v1_VE1000_randls_23_rotated.json,1182422,1642628,52,Man
16,715693,DepthScenes,duration_manipulation_targetAtFixation,jsons/v1_VE1000_randls_23_rotated.json,http://54.235.29.9/FacialAge/BNav_EC2/DepthDuration/v2_depth_duration_MTurk/v2_DepthDuration_HTML.html#216,216,1707,781,1366,768,9-4-2022,10-15-17,17,depth_duration_stimuli/001516_2014-06-20_16-25-09_260595134347_rgbf000076-resize_2/001516_2014-06-20_16-25-09_260595134347_rgbf000076-resize_2-target.png,1000,1.7445,3,4469,994,meters,jsons/v1_VE1000_randls_23_rotated.json,1182422,1642628,52,Man
17,715693,DepthScenes,duration_manipulation_targetAtFixation,jsons/v1_VE1000_randls_23_rotated.json,http://54.235.29.9/FacialAge/BNav_EC2/DepthDuration/v2_depth_duration_MTurk/v2_DepthDuration_HTML.html#216,216,1707,781,1366,768,9-4-2022,10-15-17,18,depth_duration_stimuli/002118_2014-06-25_20-32-08_260595134347_rgbf000078-resize_1/002118_2014-06-25_20-32-08_260595134347_rgbf000078-resize_1-target.png,1000,2.6460000000000004,5,3929,992,meters,jsons/v1_VE1000_randls_23_rotated.json,1182422,1642628,52,Man
18,715693,DepthScenes,duration_manipulation_targetAtFixation,jsons/v1_VE1000_randls_23_rotated.json,http://54.235.29.9/FacialAge/BNav_EC2/DepthDuration/v2_depth_duration_MTurk/v2_DepthDuration_HTML.html#216,216,1707,781,1366,768,9-4-2022,10-15-17,19,depth_duration_stimuli/001498_2014-06-19_17-45-14_260595134347_rgbf000129-resize_4/001498_2014-06-19_17-45-14_260595134347_rgbf000129-resize-original.jpg,1000,1.4075,3,3692,995,meters,jsons/v1_VE1000_randls_23_rotated.json,1182422,1642628,52,Man
19,715693,DepthScenes,duration_manipulation_targetAtFixation,jsons/v1_VE1000_randls_23_rotated.json,http://54.235.29.9/FacialAge/BNav_EC2/DepthDuration/v2_depth_duration_MTurk/v2_DepthDuration_HTML.html#216,216,1707,781,1366,768,9-4-2022,10-15-17,20,depth_duration_stimuli/000866_2014-06-09_20-45-42_260595134347_rgbf000139-resize_1/000866_2014-06-09_20-45-42_260595134347_rgbf000139-resize_1-target.png,1000,3.2155,5,3716,990,meters,jsons/v1_VE1000_randls_23_rotated.json,1182422,1642628,52,Man
20,715693,DepthScenes,duration_manipulation_targetAtFixation,jsons/v1_VE1000_randls_23_rotated.json,http://54.235.29.9/FacialAge/BNav_EC2/DepthDuration/v2_depth_duration_MTurk/v2_DepthDuration_HTML.html#216,216,1707,781,1366,768,9-4-2022,10-15-17,21,depth_duration_stimuli/002989_2014-06-15_12-25-03_094959634447_rgbf000150-resize_3/002989_2014-06-15_12-25-03_094959634447_rgbf000150-resize_3-target.png,1000,4.1975,3,6366,1003,meters,jsons/v1_VE1000_randls_23_rotated.json,1182422,1642628,52,Man
21,715693,DepthScenes,duration_manipulation_targetAtFixation,jsons/v1_VE1000_randls_23_rotated.json,http://54.235.29.9/FacialAge/BNav_EC2/DepthDuration/v2_depth_duration_MTurk/v2_DepthDuration_HTML.html#216,216,1707,781,1366,768,9-4-2022,10-15-17,22,depth_duration_stimuli/000691_2014-06-08_13-08-50_260595134347_rgbf000132-resize_3/000691_2014-06-08_13-08-50_260595134347_rgbf000132-resize_3-target.png,1000,4.1530000000000005,5,3888,1002,meters,jsons/v1_VE1000_randls_23_rotated.json,1182422,1642628,52,Man
22,715693,DepthScenes,duration_manipulation_targetAtFixation,jsons/v1_VE1000_randls_23_rotated.json,http://54.235.29.9/FacialAge/BNav_EC2/DepthDuration/v2_depth_duration_MTurk/v2_DepthDuration_HTML.html#216,216,1707,781,1366,768,9-4-2022,10-15-17,23,depth_duration_stimuli/002213_2014-06-28_18-37-58_260595134347_rgbf000055-resize_1/002213_2014-06-28_18-37-58_260595134347_rgbf000055-resize_1-target.png,1000,3.62,5,4400,1012,meters,jsons/v1_VE1000_randls_23_rotated.json,1182422,1642628,52,Man
23,715693,DepthScenes,duration_manipulation_targetAtFixation,jsons/v1_VE1000_randls_23_rotated.json,http://54.235.29.9/FacialAge/BNav_EC2/DepthDuration/v2_depth_duration_MTurk/v2_DepthDuration_HTML.html#216,216,1707,781,1366,768,9-4-2022,10-15-17,24,depth_duration_stimuli/001136_2014-06-17_15-19-41_260595134347_rgbf000076-resize_3/001136_2014-06-17_15-19-41_260595134347_rgbf000076-resize_3-target.png,1000,1.8655,3,14529,1010,meters,jsons/v1_VE1000_randls_23_rotated.json,1182422,1642628,52,Man
24,715693,DepthScenes,duration_manipulation_targetAtFixation,jsons/v1_VE1000_randls_23_rotated.json,http://54.235.29.9/FacialAge/BNav_EC2/DepthDuration/v2_depth_duration_MTurk/v2_DepthDuration_HTML.html#216,216,1707,781,1366,768,9-4-2022,10-15-17,25,depth_duration_stimuli/001164_2014-06-17_15-35-46_260595134347_rgbf000085-resize_3/001164_2014-06-17_15-35-46_260595134347_rgbf000085-resize_3-target.png,1000,2.354,4,4810,997,meters,jsons/v1_VE1000_randls_23_rotated.json,1182422,1642628,52,Man
25,715693,DepthScenes,duration_manipulation_targetAtFixation,jsons/v1_VE1000_randls_23_rotated.json,http://54.235.29.9/FacialAge/BNav_EC2/DepthDuration/v2_depth_duration_MTurk/v2_DepthDuration_HTML.html#216,216,1707,781,1366,768,9-4-2022,10-15-17,26,depth_duration_stimuli/000103_2014-05-14_22-01-17_260595134347_rgbf000152-resize_5/000103_2014-05-14_22-01-17_260595134347_rgbf000152-resize_5-target.png,1000,1.993,2,4185,996,meters,jsons/v1_VE1000_randls_23_rotated.json,1182422,1642628,52,Man
26,715693,DepthScenes,duration_manipulation_targetAtFixation,jsons/v1_VE1000_randls_23_rotated.json,http://54.235.29.9/FacialAge/BNav_EC2/DepthDuration/v2_depth_duration_MTurk/v2_DepthDuration_HTML.html#216,216,1707,781,1366,768,9-4-2022,10-15-17,27,depth_duration_stimuli/001555_2014-06-20_17-12-10_260595134347_rgbf000065-resize_4/001555_2014-06-20_17-12-10_260595134347_rgbf000065-resize_4-target.png,1000,1.633,6,5607,981,meters,jsons/v1_VE1000_randls_23_rotated.json,1182422,1642628,52,Man
27,715693,DepthScenes,duration_manipulation_targetAtFixation,jsons/v1_VE1000_randls_23_rotated.json,http://54.235.29.9/FacialAge/BNav_EC2/DepthDuration/v2_depth_duration_MTurk/v2_DepthDuration_HTML.html#216,216,1707,781,1366,768,9-4-2022,10-15-17,28,depth_duration_stimuli/002467_2014-06-28_20-38-07_260595134347_rgbf000026-resize_2/002467_2014-06-28_20-38-07_260595134347_rgbf000026-resize_2-target.png,1000,4.742,2,3930,989,meters,jsons/v1_VE1000_randls_23_rotated.json,1182422,1642628,52,Man
28,715693,DepthScenes,duration_manipulation_targetAtFixation,jsons/v1_VE1000_randls_23_rotated.json,http://54.235.29.9/FacialAge/BNav_EC2/DepthDuration/v2_depth_duration_MTurk/v2_DepthDuration_HTML.html#216,216,1707,781,1366,768,9-4-2022,10-15-17,29,depth_duration_stimuli/002570_2014-06-24_13-59-54_094959634447_rgbf000059-resize_0/002570_2014-06-24_13-59-54_094959634447_rgbf000059-resize_0-target.png,1000,4.037,1,3967,993,meters,jsons/v1_VE1000_randls_23_rotated.json,1182422,1642628,52,Man
29,715693,DepthScenes,duration_manipulation_targetAtFixation,jsons/v1_VE1000_randls_23_rotated.json,http://54.235.29.9/FacialAge/BNav_EC2/DepthDuration/v2_depth_duration_MTurk/v2_DepthDuration_HTML.html#216,216,1707,781,1366,768,9-4-2022,10-15-17,30,depth_duration_stimuli/002072_2014-06-24_21-48-06_260595134347_rgbf000115-resize_0/002072_2014-06-24_21-48-06_260595134347_rgbf000115-resize-original.jpg,1000,4.702,2,3904,999,meters,jsons/v1_VE1000_randls_23_rotated.json,1182422,1642628,52,Man
30,715693,DepthScenes,duration_manipulation_targetAtFixation,jsons/v1_VE1000_randls_23_rotated.json,http://54.235.29.9/FacialAge/BNav_EC2/DepthDuration/v2_depth_duration_MTurk/v2_DepthDuration_HTML.html#216,216,1707,781,1366,768,9-4-2022,10-15-17,31,depth_duration_stimuli/000749_2014-06-08_21-55-06_260595134347_rgbf000070-resize_2/000749_2014-06-08_21-55-06_260595134347_rgbf000070-resize_2-target.png,1000,2.331,5,4040,999,meters,jsons/v1_VE1000_randls_23_rotated.json,1182422,1642628,52,Man
31,715693,DepthScenes,duration_manipulation_targetAtFixation,jsons/v1_VE1000_randls_23_rotated.json,http://54.235.29.9/FacialAge/BNav_EC2/DepthDuration/v2_depth_duration_MTurk/v2_DepthDuration_HTML.html#216,216,1707,781,1366,768,9-4-2022,10-15-17,32,depth_duration_stimuli/002788_2014-06-22_19-36-03_094959634447_rgbf000088-resize_2/002788_2014-06-22_19-36-03_094959634447_rgbf000088-resize_2-target.png,1000,1.6465,1,4081,1003,meters,jsons/v1_VE1000_randls_23_rotated.json,1182422,1642628,52,Man
32,715693,DepthScenes,duration_manipulation_targetAtFixation,jsons/v1_VE1000_randls_23_rotated.json,http://54.235.29.9/FacialAge/BNav_EC2/DepthDuration/v2_depth_duration_MTurk/v2_DepthDuration_HTML.html#216,216,1707,781,1366,768,9-4-2022,10-15-17,33,depth_duration_stimuli/002568_2014-06-24_13-59-21_094959634447_rgbf000062-resize_4/002568_2014-06-24_13-59-21_094959634447_rgbf000062-resize_4-target.png,1000,3.015,2,3858,991,meters,jsons/v1_VE1000_randls_23_rotated.json,1182422,1642628,52,Man
33,715693,DepthScenes,duration_manipulation_targetAtFixation,jsons/v1_VE1000_randls_23_rotated.json,http://54.235.29.9/FacialAge/BNav_EC2/DepthDuration/v2_depth_duration_MTurk/v2_DepthDuration_HTML.html#216,216,1707,781,1366,768,9-4-2022,10-15-17,34,depth_duration_stimuli/003492_2014-05-21_15-50-55_094959634447_rgbf000828-resize_1/003492_2014-05-21_15-50-55_094959634447_rgbf000828-resize_1-target.png,1000,4.06875,3,3632,988,meters,jsons/v1_VE1000_randls_23_rotated.json,1182422,1642628,52,Man
34,715693,DepthScenes,duration_manipulation_targetAtFixation,jsons/v1_VE1000_randls_23_rotated.json,http://54.235.29.9/FacialAge/BNav_EC2/DepthDuration/v2_depth_duration_MTurk/v2_DepthDuration_HTML.html#216,216,1707,781,1366,768,9-4-2022,10-15-17,35,depth_duration_stimuli/000854_2014-06-09_19-43-13_260595134347_rgbf000066-resize_0/000854_2014-06-09_19-43-13_260595134347_rgbf000066-resize_0-target.png,1000,3.068,4,4155,999,meters,jsons/v1_VE1000_randls_23_rotated.json,1182422,1642628,52,Man
35,715693,DepthScenes,duration_manipulation_targetAtFixation,jsons/v1_VE1000_randls_23_rotated.json,http://54.235.29.9/FacialAge/BNav_EC2/DepthDuration/v2_depth_duration_MTurk/v2_DepthDuration_HTML.html#216,216,1707,781,1366,768,9-4-2022,10-15-17,36,depth_duration_stimuli/000758_2014-06-08_22-05-08_260595134347_rgbf000085-resize_0/000758_2014-06-08_22-05-08_260595134347_rgbf000085-resize_0-target.png,1000,3.3810000000000002,5,4173,1004,meters,jsons/v1_VE1000_randls_23_rotated.json,1182422,1642628,52,Man
36,715693,DepthScenes,duration_manipulation_targetAtFixation,jsons/v1_VE1000_randls_23_rotated.json,http://54.235.29.9/FacialAge/BNav_EC2/DepthDuration/v2_depth_duration_MTurk/v2_DepthDuration_HTML.html#216,216,1707,781,1366,768,9-4-2022,10-15-17,37,depth_duration_stimuli/002678_2014-06-13_16-15-32_094959634447_rgbf000151-resize_6/002678_2014-06-13_16-15-32_094959634447_rgbf000151-resize_6-target.png,1000,2.1830000000000003,5,4197,972,meters,jsons/v1_VE1000_randls_23_rotated.json,1182422,1642628,52,Man
37,715693,DepthScenes,duration_manipulation_targetAtFixation,jsons/v1_VE1000_randls_23_rotated.json,http://54.235.29.9/FacialAge/BNav_EC2/DepthDuration/v2_depth_duration_MTurk/v2_DepthDuration_HTML.html#216,216,1707,781,1366,768,9-4-2022,10-15-17,38,depth_duration_stimuli/000368_2014-06-09_15-53-01_260595134347_rgbf000155-resize_2/000368_2014-06-09_15-53-01_260595134347_rgbf000155-resize_2-target.png,1000,2.4859999999999998,1,3896,1000,meters,jsons/v1_VE1000_randls_23_rotated.json,1182422,1642628,52,Man
38,715693,DepthScenes,duration_manipulation_targetAtFixation,jsons/v1_VE1000_randls_23_rotated.json,http://54.235.29.9/FacialAge/BNav_EC2/DepthDuration/v2_depth_duration_MTurk/v2_DepthDuration_HTML.html#216,216,1707,781,1366,768,9-4-2022,10-15-17,39,depth_duration_stimuli/000742_2014-06-08_18-48-09_260595134347_rgbf000164-resize_4/000742_2014-06-08_18-48-09_260595134347_rgbf000164-resize_4-target.png,1000,4.632,2,4547,990,meters,jsons/v1_VE1000_randls_23_rotated.json,1182422,1642628,52,Man
39,715693,DepthScenes,duration_manipulation_targetAtFixation,jsons/v1_VE1000_randls_23_rotated.json,http://54.235.29.9/FacialAge/BNav_EC2/DepthDuration/v2_depth_duration_MTurk/v2_DepthDuration_HTML.html#216,216,1707,781,1366,768,9-4-2022,10-15-17,40,depth_duration_stimuli/001066_2014-06-08_22-03-20_260595134347_rgbf000066-resize_4/001066_2014-06-08_22-03-20_260595134347_rgbf000066-resize_4-target.png,1000,4.2330000000000005,2,79126,989,meters,jsons/v1_VE1000_randls_23_rotated.json,1182422,1642628,52,Man
40,715693,DepthScenes,duration_manipulation_targetAtFixation,jsons/v1_VE1000_randls_23_rotated.json,http://54.235.29.9/FacialAge/BNav_EC2/DepthDuration/v2_depth_duration_MTurk/v2_DepthDuration_HTML.html#216,216,1707,781,1366,768,9-4-2022,10-15-17,41,depth_duration_stimuli/001032_2014-06-08_13-23-17_260595134347_rgbf000021-resize_3/001032_2014-06-08_13-23-17_260595134347_rgbf000021-resize_3-target.png,1000,3.2725,3,6141,994,meters,jsons/v1_VE1000_randls_23_rotated.json,1182422,1642628,52,Man
41,715693,DepthScenes,duration_manipulation_targetAtFixation,jsons/v1_VE1000_randls_23_rotated.json,http://54.235.29.9/FacialAge/BNav_EC2/DepthDuration/v2_depth_duration_MTurk/v2_DepthDuration_HTML.html#216,216,1707,781,1366,768,9-4-2022,10-15-17,42,depth_duration_stimuli/001059_2014-06-08_21-53-27_260595134347_rgbf000061-resize_4/001059_2014-06-08_21-53-27_260595134347_rgbf000061-resize_4-target.png,1000,2.4185,2,4343,958,meters,jsons/v1_VE1000_randls_23_rotated.json,1182422,1642628,52,Man
42,715693,DepthScenes,duration_manipulation_targetAtFixation,jsons/v1_VE1000_randls_23_rotated.json,http://54.235.29.9/FacialAge/BNav_EC2/DepthDuration/v2_depth_duration_MTurk/v2_DepthDuration_HTML.html#216,216,1707,781,1366,768,9-4-2022,10-15-17,43,depth_duration_stimuli/000635_2014-06-08_16-38-42_260595134347_rgbf000106-resize_1/000635_2014-06-08_16-38-42_260595134347_rgbf000106-resize_1-target.png,1000,2.074,5,4693,1009,meters,jsons/v1_VE1000_randls_23_rotated.json,1182422,1642628,52,Man
43,715693,DepthScenes,duration_manipulation_targetAtFixation,jsons/v1_VE1000_randls_23_rotated.json,http://54.235.29.9/FacialAge/BNav_EC2/DepthDuration/v2_depth_duration_MTurk/v2_DepthDuration_HTML.html#216,216,1707,781,1366,768,9-4-2022,10-15-17,44,depth_duration_stimuli/002279_2014-06-28_18-55-32_260595134347_rgbf000040-resize_5/002279_2014-06-28_18-55-32_260595134347_rgbf000040-resize_5-target.png,1000,1.5043333333333,1,10748,995,meters,jsons/v1_VE1000_randls_23_rotated.json,1182422,1642628,52,Man
44,715693,DepthScenes,duration_manipulation_targetAtFixation,jsons/v1_VE1000_randls_23_rotated.json,http://54.235.29.9/FacialAge/BNav_EC2/DepthDuration/v2_depth_duration_MTurk/v2_DepthDuration_HTML.html#216,216,1707,781,1366,768,9-4-2022,10-15-17,45,depth_duration_stimuli/002340_2014-06-28_20-05-46_260595134347_rgbf000113-resize_0/002340_2014-06-28_20-05-46_260595134347_rgbf000113-resize_0-target.png,1000,2.4735,2,4128,988,meters,jsons/v1_VE1000_randls_23_rotated.json,1182422,1642628,52,Man
45,715693,DepthScenes,duration_manipulation_targetAtFixation,jsons/v1_VE1000_randls_23_rotated.json,http://54.235.29.9/FacialAge/BNav_EC2/DepthDuration/v2_depth_duration_MTurk/v2_DepthDuration_HTML.html#216,216,1707,781,1366,768,9-4-2022,10-15-17,46,depth_duration_stimuli/001016_2014-06-09_16-16-10_260595134347_rgbf000112-resize_5/001016_2014-06-09_16-16-10_260595134347_rgbf000112-resize_5-target.png,1000,1.6565,1,4153,1014,meters,jsons/v1_VE1000_randls_23_rotated.json,1182422,1642628,52,Man
46,715693,DepthScenes,duration_manipulation_targetAtFixation,jsons/v1_VE1000_randls_23_rotated.json,http://54.235.29.9/FacialAge/BNav_EC2/DepthDuration/v2_depth_duration_MTurk/v2_DepthDuration_HTML.html#216,216,1707,781,1366,768,9-4-2022,10-15-17,47,depth_duration_stimuli/001132_2014-06-17_14-48-54_260595134347_rgbf000100-resize_2/001132_2014-06-17_14-48-54_260595134347_rgbf000100-resize_2-target.png,1000,3.753,2,4181,995,meters,jsons/v1_VE1000_randls_23_rotated.json,1182422,1642628,52,Man
47,715693,DepthScenes,duration_manipulation_targetAtFixation,jsons/v1_VE1000_randls_23_rotated.json,http://54.235.29.9/FacialAge/BNav_EC2/DepthDuration/v2_depth_duration_MTurk/v2_DepthDuration_HTML.html#216,216,1707,781,1366,768,9-4-2022,10-15-17,48,depth_duration_stimuli/001133_2014-06-17_14-49-16_260595134347_rgbf000100-resize_0/001133_2014-06-17_14-49-16_260595134347_rgbf000100-resize_0-target.png,1000,4.2115,3,3983,992,meters,jsons/v1_VE1000_randls_23_rotated.json,1182422,1642628,52,Man
48,715693,DepthScenes,duration_manipulation_targetAtFixation,jsons/v1_VE1000_randls_23_rotated.json,http://54.235.29.9/FacialAge/BNav_EC2/DepthDuration/v2_depth_duration_MTurk/v2_DepthDuration_HTML.html#216,216,1707,781,1366,768,9-4-2022,10-15-17,49,depth_duration_stimuli/001170_2014-06-17_15-43-44_260595134347_rgbf000096-resize_6/001170_2014-06-17_15-43-44_260595134347_rgbf000096-resize-original.jpg,1000,1.1909999999999998,2,5433,977,meters,jsons/v1_VE1000_randls_23_rotated.json,1182422,1642628,52,Man
49,715693,DepthScenes,duration_manipulation_targetAtFixation,jsons/v1_VE1000_randls_23_rotated.json,http://54.235.29.9/FacialAge/BNav_EC2/DepthDuration/v2_depth_duration_MTurk/v2_DepthDuration_HTML.html#216,216,1707,781,1366,768,9-4-2022,10-15-17,50,depth_duration_stimuli/001094_2014-06-15_17-36-00_260595134347_rgbf000205-resize_0/001094_2014-06-15_17-36-00_260595134347_rgbf000205-resize_0-target.png,1000,4.2175,1,4553,997,meters,jsons/v1_VE1000_randls_23_rotated.json,1182422,1642628,52,Man
50,715693,DepthScenes,duration_manipulation_targetAtFixation,jsons/v1_VE1000_randls_23_rotated.json,http://54.235.29.9/FacialAge/BNav_EC2/DepthDuration/v2_depth_duration_MTurk/v2_DepthDuration_HTML.html#216,216,1707,781,1366,768,9-4-2022,10-15-17,51,depth_duration_stimuli/000692_2014-06-08_13-09-42_260595134347_rgbf000199-resize_2/000692_2014-06-08_13-09-42_260595134347_rgbf000199-resize_2-target.png,1000,3.661,1,4434,1005,meters,jsons/v1_VE1000_randls_23_rotated.json,1182422,1642628,52,Man
51,715693,DepthScenes,duration_manipulation_targetAtFixation,jsons/v1_VE1000_randls_23_rotated.json,http://54.235.29.9/FacialAge/BNav_EC2/DepthDuration/v2_depth_duration_MTurk/v2_DepthDuration_HTML.html#216,216,1707,781,1366,768,9-4-2022,10-15-17,52,depth_duration_stimuli/001214_2014-06-17_16-13-55_260595134347_rgbf000111-resize_0/001214_2014-06-17_16-13-55_260595134347_rgbf000111-resize_0-target.png,1000,2.6505,2,4078,998,meters,jsons/v1_VE1000_randls_23_rotated.json,1182422,1642628,52,Man
52,715693,DepthScenes,duration_manipulation_targetAtFixation,jsons/v1_VE1000_randls_23_rotated.json,http://54.235.29.9/FacialAge/BNav_EC2/DepthDuration/v2_depth_duration_MTurk/v2_DepthDuration_HTML.html#216,216,1707,781,1366,768,9-4-2022,10-15-17,53,depth_duration_stimuli/000810_2014-06-08_17-20-01_260595134347_rgbf000105-resize_0/000810_2014-06-08_17-20-01_260595134347_rgbf000105-resize_0-target.png,1000,1.4865,3,10452,984,meters,jsons/v1_VE1000_randls_23_rotated.json,1182422,1642628,52,Man
53,715693,DepthScenes,duration_manipulation_targetAtFixation,jsons/v1_VE1000_randls_23_rotated.json,http://54.235.29.9/FacialAge/BNav_EC2/DepthDuration/v2_depth_duration_MTurk/v2_DepthDuration_HTML.html#216,216,1707,781,1366,768,9-4-2022,10-15-17,54,depth_duration_stimuli/001100_2014-06-15_17-46-26_260595134347_rgbf000225-resize_2/001100_2014-06-15_17-46-26_260595134347_rgbf000225-resize_2-target.png,1000,2.24,1,4484,989,meters,jsons/v1_VE1000_randls_23_rotated.json,1182422,1642628,52,Man
54,715693,DepthScenes,duration_manipulation_targetAtFixation,jsons/v1_VE1000_randls_23_rotated.json,http://54.235.29.9/FacialAge/BNav_EC2/DepthDuration/v2_depth_duration_MTurk/v2_DepthDuration_HTML.html#216,216,1707,781,1366,768,9-4-2022,10-15-17,55,depth_duration_stimuli/002784_2014-06-22_19-26-30_094959634447_rgbf000083-resize_3/002784_2014-06-22_19-26-30_094959634447_rgbf000083-resize_3-target.png,1000,1.8046666666667,3,3798,1004,meters,jsons/v1_VE1000_randls_23_rotated.json,1182422,1642628,52,Man
55,715693,DepthScenes,duration_manipulation_targetAtFixation,jsons/v1_VE1000_randls_23_rotated.json,http://54.235.29.9/FacialAge/BNav_EC2/DepthDuration/v2_depth_duration_MTurk/v2_DepthDuration_HTML.html#216,216,1707,781,1366,768,9-4-2022,10-15-17,56,depth_duration_stimuli/003010_2014-06-15_12-54-35_094959634447_rgbf000112-resize_0/003010_2014-06-15_12-54-35_094959634447_rgbf000112-resize_0-target.png,1000,3.1185,1,4369,999,meters,jsons/v1_VE1000_randls_23_rotated.json,1182422,1642628,52,Man
56,715693,DepthScenes,duration_manipulation_targetAtFixation,jsons/v1_VE1000_randls_23_rotated.json,http://54.235.29.9/FacialAge/BNav_EC2/DepthDuration/v2_depth_duration_MTurk/v2_DepthDuration_HTML.html#216,216,1707,781,1366,768,9-4-2022,10-15-17,57,depth_duration_stimuli/001810_2014-06-26_20-51-35_260595134347_rgbf000040-resize_3/001810_2014-06-26_20-51-35_260595134347_rgbf000040-resize_3-target.png,1000,2.2525,2,4157,997,meters,jsons/v1_VE1000_randls_23_rotated.json,1182422,1642628,52,Man
57,715693,DepthScenes,duration_manipulation_targetAtFixation,jsons/v1_VE1000_randls_23_rotated.json,http://54.235.29.9/FacialAge/BNav_EC2/DepthDuration/v2_depth_duration_MTurk/v2_DepthDuration_HTML.html#216,216,1707,781,1366,768,9-4-2022,10-15-17,58,depth_duration_stimuli/000457_2014-06-08_16-52-43_260595134347_rgbf000199-resize_1/000457_2014-06-08_16-52-43_260595134347_rgbf000199-resize_1-target.png,1000,3.6489999999999996,3,3977,995,meters,jsons/v1_VE1000_randls_23_rotated.json,1182422,1642628,52,Man
58,715693,DepthScenes,duration_manipulation_targetAtFixation,jsons/v1_VE1000_randls_23_rotated.json,http://54.235.29.9/FacialAge/BNav_EC2/DepthDuration/v2_depth_duration_MTurk/v2_DepthDuration_HTML.html#216,216,1707,781,1366,768,9-4-2022,10-15-17,59,depth_duration_stimuli/000929_2014-06-09_16-33-19_260595134347_rgbf000139-resize_0/000929_2014-06-09_16-33-19_260595134347_rgbf000139-resize_0-target.png,1000,2.8680000000000003,4,3903,1002,meters,jsons/v1_VE1000_randls_23_rotated.json,1182422,1642628,52,Man
59,715693,DepthScenes,duration_manipulation_targetAtFixation,jsons/v1_VE1000_randls_23_rotated.json,http://54.235.29.9/FacialAge/BNav_EC2/DepthDuration/v2_depth_duration_MTurk/v2_DepthDuration_HTML.html#216,216,1707,781,1366,768,9-4-2022,10-15-17,60,depth_duration_stimuli/001447_2014-06-19_17-00-32_260595134347_rgbf000082-resize_5/001447_2014-06-19_17-00-32_260595134347_rgbf000082-resize_5-target.png,1000,4.13775,5,4028,996,meters,jsons/v1_VE1000_randls_23_rotated.json,1182422,1642628,52,Man
60,715693,DepthScenes,duration_manipulation_targetAtFixation,jsons/v1_VE1000_randls_23_rotated.json,http://54.235.29.9/FacialAge/BNav_EC2/DepthDuration/v2_depth_duration_MTurk/v2_DepthDuration_HTML.html#216,216,1707,781,1366,768,9-4-2022,10-15-17,61,depth_duration_stimuli/000447_2014-06-08_16-15-46_260595134347_rgbf000130-resize_1/000447_2014-06-08_16-15-46_260595134347_rgbf000130-resize_1-target.png,1000,4.479,1,4528,974,meters,jsons/v1_VE1000_randls_23_rotated.json,1182422,1642628,52,Man
61,715693,DepthScenes,duration_manipulation_targetAtFixation,jsons/v1_VE1000_randls_23_rotated.json,http://54.235.29.9/FacialAge/BNav_EC2/DepthDuration/v2_depth_duration_MTurk/v2_DepthDuration_HTML.html#216,216,1707,781,1366,768,9-4-2022,10-15-17,62,depth_duration_stimuli/000483_2014-06-09_20-41-45_260595134347_rgbf000116-resize_4/000483_2014-06-09_20-41-45_260595134347_rgbf000116-resize_4-target.png,1000,1.337,2,3963,997,meters,jsons/v1_VE1000_randls_23_rotated.json,1182422,1642628,52,Man
62,715693,DepthScenes,duration_manipulation_targetAtFixation,jsons/v1_VE1000_randls_23_rotated.json,http://54.235.29.9/FacialAge/BNav_EC2/DepthDuration/v2_depth_duration_MTurk/v2_DepthDuration_HTML.html#216,216,1707,781,1366,768,9-4-2022,10-15-17,63,depth_duration_stimuli/000469_2014-06-09_19-42-10_260595134347_rgbf000081-resize_1/000469_2014-06-09_19-42-10_260595134347_rgbf000081-resize_1-target.png,1000,1.652,3,4003,989,meters,jsons/v1_VE1000_randls_23_rotated.json,1182422,1642628,52,Man
63,715693,DepthScenes,duration_manipulation_targetAtFixation,jsons/v1_VE1000_randls_23_rotated.json,http://54.235.29.9/FacialAge/BNav_EC2/DepthDuration/v2_depth_duration_MTurk/v2_DepthDuration_HTML.html#216,216,1707,781,1366,768,9-4-2022,10-15-17,64,depth_duration_stimuli/003490_2014-05-21_15-50-11_094959634447_rgbf000101-resize_3/003490_2014-05-21_15-50-11_094959634447_rgbf000101-resize_3-target.png,1000,3.6445,2,4239,995,meters,jsons/v1_VE1000_randls_23_rotated.json,1182422,1642628,52,Man
64,715693,DepthScenes,duration_manipulation_targetAtFixation,jsons/v1_VE1000_randls_23_rotated.json,http://54.235.29.9/FacialAge/BNav_EC2/DepthDuration/v2_depth_duration_MTurk/v2_DepthDuration_HTML.html#216,216,1707,781,1366,768,9-4-2022,10-15-17,65,depth_duration_stimuli/001175_2014-06-17_15-45-55_260595134347_rgbf000129-resize_4/001175_2014-06-17_15-45-55_260595134347_rgbf000129-resize_4-target.png,1000,4.255,5,4377,1015,meters,jsons/v1_VE1000_randls_23_rotated.json,1182422,1642628,52,Man
65,715693,DepthScenes,duration_manipulation_targetAtFixation,jsons/v1_VE1000_randls_23_rotated.json,http://54.235.29.9/FacialAge/BNav_EC2/DepthDuration/v2_depth_duration_MTurk/v2_DepthDuration_HTML.html#216,216,1707,781,1366,768,9-4-2022,10-15-17,66,depth_duration_stimuli/001540_2014-06-20_17-01-05_260595134347_rgbf000086-resize_2/001540_2014-06-20_17-01-05_260595134347_rgbf000086-resize-original.jpg,1000,1.459,1,4479,1002,meters,jsons/v1_VE1000_randls_23_rotated.json,1182422,1642628,52,Man
66,715693,DepthScenes,duration_manipulation_targetAtFixation,jsons/v1_VE1000_randls_23_rotated.json,http://54.235.29.9/FacialAge/BNav_EC2/DepthDuration/v2_depth_duration_MTurk/v2_DepthDuration_HTML.html#216,216,1707,781,1366,768,9-4-2022,10-15-17,67,depth_duration_stimuli/000191_2014-05-12_17-07-38_260595134347_rgbf000199-resize_0/000191_2014-05-12_17-07-38_260595134347_rgbf000199-resize_0-target.png,1000,3.7995,2,4345,994,meters,jsons/v1_VE1000_randls_23_rotated.json,1182422,1642628,52,Man
67,715693,DepthScenes,duration_manipulation_targetAtFixation,jsons/v1_VE1000_randls_23_rotated.json,http://54.235.29.9/FacialAge/BNav_EC2/DepthDuration/v2_depth_duration_MTurk/v2_DepthDuration_HTML.html#216,216,1707,781,1366,768,9-4-2022,10-15-17,68,depth_duration_stimuli/000493_2014-06-09_21-01-18_260595134347_rgbf000196-resize_3/000493_2014-06-09_21-01-18_260595134347_rgbf000196-resize_3-target.png,1000,3.44,3,4114,1010,meters,jsons/v1_VE1000_randls_23_rotated.json,1182422,1642628,52,Man
68,715693,DepthScenes,duration_manipulation_targetAtFixation,jsons/v1_VE1000_randls_23_rotated.json,http://54.235.29.9/FacialAge/BNav_EC2/DepthDuration/v2_depth_duration_MTurk/v2_DepthDuration_HTML.html#216,216,1707,781,1366,768,9-4-2022,10-15-17,69,depth_duration_stimuli/002657_2014-06-13_15-29-54_094959634447_rgbf000150-resize_1/002657_2014-06-13_15-29-54_094959634447_rgbf000150-resize_1-target.png,1000,4.919,2,3883,992,meters,jsons/v1_VE1000_randls_23_rotated.json,1182422,1642628,52,Man
69,715693,DepthScenes,duration_manipulation_targetAtFixation,jsons/v1_VE1000_randls_23_rotated.json,http://54.235.29.9/FacialAge/BNav_EC2/DepthDuration/v2_depth_duration_MTurk/v2_DepthDuration_HTML.html#216,216,1707,781,1366,768,9-4-2022,10-15-17,70,depth_duration_stimuli/002375_2014-06-28_20-13-44_260595134347_rgbf000032-resize_1/002375_2014-06-28_20-13-44_260595134347_rgbf000032-resize_1-target.png,1000,4.0175,1,3843,1019,meters,jsons/v1_VE1000_randls_23_rotated.json,1182422,1642628,52,Man
70,715693,DepthScenes,duration_manipulation_targetAtFixation,jsons/v1_VE1000_randls_23_rotated.json,http://54.235.29.9/FacialAge/BNav_EC2/DepthDuration/v2_depth_duration_MTurk/v2_DepthDuration_HTML.html#216,216,1707,781,1366,768,9-4-2022,10-15-17,71,depth_duration_stimuli/000556_2014-06-09_22-42-56_260595134347_rgbf000214-resize_1/000556_2014-06-09_22-42-56_260595134347_rgbf000214-resize_1-target.png,1000,4.8415,2,4226,1083,meters,jsons/v1_VE1000_randls_23_rotated.json,1182422,1642628,52,Man
71,715693,DepthScenes,duration_manipulation_targetAtFixation,jsons/v1_VE1000_randls_23_rotated.json,http://54.235.29.9/FacialAge/BNav_EC2/DepthDuration/v2_depth_duration_MTurk/v2_DepthDuration_HTML.html#216,216,1707,781,1366,768,9-4-2022,10-15-17,72,depth_duration_stimuli/001158_2014-06-17_15-32-16_260595134347_rgbf000138-resize_2/001158_2014-06-17_15-32-16_260595134347_rgbf000138-resize_2-target.png,1000,4.5315,1,4532,1000,meters,jsons/v1_VE1000_randls_23_rotated.json,1182422,1642628,52,Man
72,715693,DepthScenes,duration_manipulation_targetAtFixation,jsons/v1_VE1000_randls_23_rotated.json,http://54.235.29.9/FacialAge/BNav_EC2/DepthDuration/v2_depth_duration_MTurk/v2_DepthDuration_HTML.html#216,216,1707,781,1366,768,9-4-2022,10-15-17,73,depth_duration_stimuli/000780_2014-06-08_22-28-29_260595134347_rgbf000126-resize_1/000780_2014-06-08_22-28-29_260595134347_rgbf000126-resize_1-target.png,1000,3.3825,2,4033,1006,meters,jsons/v1_VE1000_randls_23_rotated.json,1182422,1642628,52,Man
73,715693,DepthScenes,duration_manipulation_targetAtFixation,jsons/v1_VE1000_randls_23_rotated.json,http://54.235.29.9/FacialAge/BNav_EC2/DepthDuration/v2_depth_duration_MTurk/v2_DepthDuration_HTML.html#216,216,1707,781,1366,768,9-4-2022,10-15-17,74,depth_duration_stimuli/002445_2014-06-28_20-32-16_260595134347_rgbf000029-resize_4/002445_2014-06-28_20-32-16_260595134347_rgbf000029-resize_4-target.png,1000,2.5315,3,3998,995,meters,jsons/v1_VE1000_randls_23_rotated.json,1182422,1642628,52,Man
74,715693,DepthScenes,duration_manipulation_targetAtFixation,jsons/v1_VE1000_randls_23_rotated.json,http://54.235.29.9/FacialAge/BNav_EC2/DepthDuration/v2_depth_duration_MTurk/v2_DepthDuration_HTML.html#216,216,1707,781,1366,768,9-4-2022,10-15-17,75,depth_duration_stimuli/002344_2014-06-28_20-06-29_260595134347_rgbf000030-resize_1/002344_2014-06-28_20-06-29_260595134347_rgbf000030-resize_1-target.png,1000,1.5795,1,3371,657,meters,jsons/v1_VE1000_randls_23_rotated.json,1182422,1642628,52,Man
75,715693,DepthScenes,duration_manipulation_targetAtFixation,jsons/v1_VE1000_randls_23_rotated.json,http://54.235.29.9/FacialAge/BNav_EC2/DepthDuration/v2_depth_duration_MTurk/v2_DepthDuration_HTML.html#216,216,1707,781,1366,768,9-4-2022,10-15-17,76,depth_duration_stimuli/002725_2014-06-22_11-47-51_094959634447_rgbf000070-resize_1/002725_2014-06-22_11-47-51_094959634447_rgbf000070-resize_1-target.png,1000,2.195,2,4132,835,meters,jsons/v1_VE1000_randls_23_rotated.json,1182422,1642628,52,Man
76,715693,DepthScenes,duration_manipulation_targetAtFixation,jsons/v1_VE1000_randls_23_rotated.json,http://54.235.29.9/FacialAge/BNav_EC2/DepthDuration/v2_depth_duration_MTurk/v2_DepthDuration_HTML.html#216,216,1707,781,1366,768,9-4-2022,10-15-17,77,depth_duration_stimuli/003338_2014-05-20_11-01-23_094959634447_rgbf000051-resize_6/003338_2014-05-20_11-01-23_094959634447_rgbf000051-resize_6-target.png,1000,1.693,2,8766,994,meters,jsons/v1_VE1000_randls_23_rotated.json,1182422,1642628,52,Man
77,715693,DepthScenes,duration_manipulation_targetAtFixation,jsons/v1_VE1000_randls_23_rotated.json,http://54.235.29.9/FacialAge/BNav_EC2/DepthDuration/v2_depth_duration_MTurk/v2_DepthDuration_HTML.html#216,216,1707,781,1366,768,9-4-2022,10-15-17,78,depth_duration_stimuli/002509_2014-06-24_13-19-22_094959634447_rgbf000077-resize_0/002509_2014-06-24_13-19-22_094959634447_rgbf000077-resize_0-target.png,1000,1.3065,5,4910,975,meters,jsons/v1_VE1000_randls_23_rotated.json,1182422,1642628,52,Man
78,715693,DepthScenes,duration_manipulation_targetAtFixation,jsons/v1_VE1000_randls_23_rotated.json,http://54.235.29.9/FacialAge/BNav_EC2/DepthDuration/v2_depth_duration_MTurk/v2_DepthDuration_HTML.html#216,216,1707,781,1366,768,9-4-2022,10-15-17,79,depth_duration_stimuli/002103_2014-06-25_20-00-40_260595134347_rgbf000049-resize_0/002103_2014-06-25_20-00-40_260595134347_rgbf000049-resize_0-target.png,1000,4.105,1,4285,999,meters,jsons/v1_VE1000_randls_23_rotated.json,1182422,1642628,52,Man
79,715693,DepthScenes,duration_manipulation_targetAtFixation,jsons/v1_VE1000_randls_23_rotated.json,http://54.235.29.9/FacialAge/BNav_EC2/DepthDuration/v2_depth_duration_MTurk/v2_DepthDuration_HTML.html#216,216,1707,781,1366,768,9-4-2022,10-15-17,80,depth_duration_stimuli/002039_2014-06-24_20-22-38_260595134347_rgbf000084-resize_1/002039_2014-06-24_20-22-38_260595134347_rgbf000084-resize_1-target.png,1000,4.408,2,5588,990,meters,jsons/v1_VE1000_randls_23_rotated.json,1182422,1642628,52,Man
80,715693,DepthScenes,duration_manipulation_targetAtFixation,jsons/v1_VE1000_randls_23_rotated.json,http://54.235.29.9/FacialAge/BNav_EC2/DepthDuration/v2_depth_duration_MTurk/v2_DepthDuration_HTML.html#216,216,1707,781,1366,768,9-4-2022,10-15-17,81,depth_duration_stimuli/002414_2014-06-28_20-24-58_260595134347_rgbf000067-resize_4/002414_2014-06-28_20-24-58_260595134347_rgbf000067-resize_4-target.png,1000,4.363,1,4095,1032,meters,jsons/v1_VE1000_randls_23_rotated.json,1182422,1642628,52,Man
81,715693,DepthScenes,duration_manipulation_targetAtFixation,jsons/v1_VE1000_randls_23_rotated.json,http://54.235.29.9/FacialAge/BNav_EC2/DepthDuration/v2_depth_duration_MTurk/v2_DepthDuration_HTML.html#216,216,1707,781,1366,768,9-4-2022,10-15-17,82,depth_duration_stimuli/000773_2014-06-08_22-24-54_260595134347_rgbf000093-resize_1/000773_2014-06-08_22-24-54_260595134347_rgbf000093-resize_1-target.png,1000,4.973,2,4014,993,meters,jsons/v1_VE1000_randls_23_rotated.json,1182422,1642628,52,Man
82,715693,DepthScenes,duration_manipulation_targetAtFixation,jsons/v1_VE1000_randls_23_rotated.json,http://54.235.29.9/FacialAge/BNav_EC2/DepthDuration/v2_depth_duration_MTurk/v2_DepthDuration_HTML.html#216,216,1707,781,1366,768,9-4-2022,10-15-17,83,depth_duration_stimuli/002953_2014-06-08_17-32-18_094959634447_rgbf000059-resize_5/002953_2014-06-08_17-32-18_094959634447_rgbf000059-resize_5-target.png,1000,1.551,4,4438,1007,meters,jsons/v1_VE1000_randls_23_rotated.json,1182422,1642628,52,Man
83,715693,DepthScenes,duration_manipulation_targetAtFixation,jsons/v1_VE1000_randls_23_rotated.json,http://54.235.29.9/FacialAge/BNav_EC2/DepthDuration/v2_depth_duration_MTurk/v2_DepthDuration_HTML.html#216,216,1707,781,1366,768,9-4-2022,10-15-17,84,depth_duration_stimuli/000878_2014-06-08_22-52-45_260595134347_rgbf000045-resize_2/000878_2014-06-08_22-52-45_260595134347_rgbf000045-resize_2-target.png,1000,2.092,2,4173,998,meters,jsons/v1_VE1000_randls_23_rotated.json,1182422,1642628,52,Man
84,715693,DepthScenes,duration_manipulation_targetAtFixation,jsons/v1_VE1000_randls_23_rotated.json,http://54.235.29.9/FacialAge/BNav_EC2/DepthDuration/v2_depth_duration_MTurk/v2_DepthDuration_HTML.html#216,216,1707,781,1366,768,9-4-2022,10-15-17,85,depth_duration_stimuli/001617_2014-06-20_11-35-32_260595134347_rgbf000066-resize_1/001617_2014-06-20_11-35-32_260595134347_rgbf000066-resize_1-target.png,1000,3.7910000000000004,1,36668,1879,meters,jsons/v1_VE1000_randls_23_rotated.json,1182422,1642628,52,Man
85,715693,DepthScenes,duration_manipulation_targetAtFixation,jsons/v1_VE1000_randls_23_rotated.json,http://54.235.29.9/FacialAge/BNav_EC2/DepthDuration/v2_depth_duration_MTurk/v2_DepthDuration_HTML.html#216,216,1707,781,1366,768,9-4-2022,10-15-17,86,depth_duration_stimuli/001806_2014-06-26_20-50-20_260595134347_rgbf000091-resize_1/001806_2014-06-26_20-50-20_260595134347_rgbf000091-resize_1-target.png,1000,2.7305,2,3732,976,meters,jsons/v1_VE1000_randls_23_rotated.json,1182422,1642628,52,Man
86,715693,DepthScenes,duration_manipulation_targetAtFixation,jsons/v1_VE1000_randls_23_rotated.json,http://54.235.29.9/FacialAge/BNav_EC2/DepthDuration/v2_depth_duration_MTurk/v2_DepthDuration_HTML.html#216,216,1707,781,1366,768,9-4-2022,10-15-17,87,depth_duration_stimuli/003495_2014-05-21_16-01-51_094959634447_rgbf000100-resize_3/003495_2014-05-21_16-01-51_094959634447_rgbf000100-resize_3-target.png,1000,1.6255,3,4322,1002,meters,jsons/v1_VE1000_randls_23_rotated.json,1182422,1642628,52,Man
87,715693,DepthScenes,duration_manipulation_targetAtFixation,jsons/v1_VE1000_randls_23_rotated.json,http://54.235.29.9/FacialAge/BNav_EC2/DepthDuration/v2_depth_duration_MTurk/v2_DepthDuration_HTML.html#216,216,1707,781,1366,768,9-4-2022,10-15-17,88,depth_duration_stimuli/001244_2014-06-17_16-47-45_260595134347_rgbf000030-resize_4/001244_2014-06-17_16-47-45_260595134347_rgbf000030-resize_4-target.png,1000,2.0425,1,4139,924,meters,jsons/v1_VE1000_randls_23_rotated.json,1182422,1642628,52,Man
88,715693,DepthScenes,duration_manipulation_targetAtFixation,jsons/v1_VE1000_randls_23_rotated.json,http://54.235.29.9/FacialAge/BNav_EC2/DepthDuration/v2_depth_duration_MTurk/v2_DepthDuration_HTML.html#216,216,1707,781,1366,768,9-4-2022,10-15-17,89,depth_duration_stimuli/002805_2014-06-22_19-54-03_094959634447_rgbf000079-resize_1/002805_2014-06-22_19-54-03_094959634447_rgbf000079-resize_1-target.png,1000,3.1439999999999997,2,4049,992,meters,jsons/v1_VE1000_randls_23_rotated.json,1182422,1642628,52,Man
89,715693,DepthScenes,duration_manipulation_targetAtFixation,jsons/v1_VE1000_randls_23_rotated.json,http://54.235.29.9/FacialAge/BNav_EC2/DepthDuration/v2_depth_duration_MTurk/v2_DepthDuration_HTML.html#216,216,1707,781,1366,768,9-4-2022,10-15-17,90,depth_duration_stimuli/000906_2014-06-08_13-35-43_260595134347_rgbf000155-resize_1/000906_2014-06-08_13-35-43_260595134347_rgbf000155-resize_1-target.png,1000,2.8489999999999998,3,3969,1005,meters,jsons/v1_VE1000_randls_23_rotated.json,1182422,1642628,52,Man
90,715693,DepthScenes,duration_manipulation_targetAtFixation,jsons/v1_VE1000_randls_23_rotated.json,http://54.235.29.9/FacialAge/BNav_EC2/DepthDuration/v2_depth_duration_MTurk/v2_DepthDuration_HTML.html#216,216,1707,781,1366,768,9-4-2022,10-15-17,91,depth_duration_stimuli/000734_2014-06-08_17-39-11_260595134347_rgbf000128-resize_2/000734_2014-06-08_17-39-11_260595134347_rgbf000128-resize_2-target.png,1000,4.098,1,4204,989,meters,jsons/v1_VE1000_randls_23_rotated.json,1182422,1642628,52,Man
91,715693,DepthScenes,duration_manipulation_targetAtFixation,jsons/v1_VE1000_randls_23_rotated.json,http://54.235.29.9/FacialAge/BNav_EC2/DepthDuration/v2_depth_duration_MTurk/v2_DepthDuration_HTML.html#216,216,1707,781,1366,768,9-4-2022,10-15-17,92,depth_duration_stimuli/000739_2014-06-08_18-45-58_260595134347_rgbf000068-resize_1/000739_2014-06-08_18-45-58_260595134347_rgbf000068-resize_1-target.png,1000,3.534,1,3916,990,meters,jsons/v1_VE1000_randls_23_rotated.json,1182422,1642628,52,Man
92,715693,DepthScenes,duration_manipulation_targetAtFixation,jsons/v1_VE1000_randls_23_rotated.json,http://54.235.29.9/FacialAge/BNav_EC2/DepthDuration/v2_depth_duration_MTurk/v2_DepthDuration_HTML.html#216,216,1707,781,1366,768,9-4-2022,10-15-17,93,depth_duration_stimuli/002136_2014-06-25_21-18-03_260595134347_rgbf000109-resize_3/002136_2014-06-25_21-18-03_260595134347_rgbf000109-resize_3-target.png,1000,1.9569999999999999,4,4122,1005,meters,jsons/v1_VE1000_randls_23_rotated.json,1182422,1642628,52,Man
93,715693,DepthScenes,duration_manipulation_targetAtFixation,jsons/v1_VE1000_randls_23_rotated.json,http://54.235.29.9/FacialAge/BNav_EC2/DepthDuration/v2_depth_duration_MTurk/v2_DepthDuration_HTML.html#216,216,1707,781,1366,768,9-4-2022,10-15-17,94,depth_duration_stimuli/002964_2014-06-08_17-46-11_094959634447_rgbf000091-resize_4/002964_2014-06-08_17-46-11_094959634447_rgbf000091-resize_4-target.png,1000,1.6909999999999998,5,4253,977,meters,jsons/v1_VE1000_randls_23_rotated.json,1182422,1642628,52,Man
94,715693,DepthScenes,duration_manipulation_targetAtFixation,jsons/v1_VE1000_randls_23_rotated.json,http://54.235.29.9/FacialAge/BNav_EC2/DepthDuration/v2_depth_duration_MTurk/v2_DepthDuration_HTML.html#216,216,1707,781,1366,768,9-4-2022,10-15-17,95,depth_duration_stimuli/000109_2014-05-14_23-41-52_260595134347_rgbf000035-resize_9/000109_2014-05-14_23-41-52_260595134347_rgbf000035-resize_9-target.png,1000,1.3545,1,4146,1012,meters,jsons/v1_VE1000_randls_23_rotated.json,1182422,1642628,52,Man
95,715693,DepthScenes,duration_manipulation_targetAtFixation,jsons/v1_VE1000_randls_23_rotated.json,http://54.235.29.9/FacialAge/BNav_EC2/DepthDuration/v2_depth_duration_MTurk/v2_DepthDuration_HTML.html#216,216,1707,781,1366,768,9-4-2022,10-15-17,96,depth_duration_stimuli/000470_2014-06-09_19-42-40_260595134347_rgbf000094-resize_1/000470_2014-06-09_19-42-40_260595134347_rgbf000094-resize_1-target.png,1000,1.831,2,3882,985,meters,jsons/v1_VE1000_randls_23_rotated.json,1182422,1642628,52,Man
96,715693,DepthScenes,duration_manipulation_targetAtFixation,jsons/v1_VE1000_randls_23_rotated.json,http://54.235.29.9/FacialAge/BNav_EC2/DepthDuration/v2_depth_duration_MTurk/v2_DepthDuration_HTML.html#216,216,1707,781,1366,768,9-4-2022,10-15-17,97,depth_duration_stimuli/002639_2014-06-24_14-51-37_094959634447_rgbf000074-resize_4/002639_2014-06-24_14-51-37_094959634447_rgbf000074-resize_4-target.png,1000,4.0375,3,4882,999,meters,jsons/v1_VE1000_randls_23_rotated.json,1182422,1642628,52,Man
97,715693,DepthScenes,duration_manipulation_targetAtFixation,jsons/v1_VE1000_randls_23_rotated.json,http://54.235.29.9/FacialAge/BNav_EC2/DepthDuration/v2_depth_duration_MTurk/v2_DepthDuration_HTML.html#216,216,1707,781,1366,768,9-4-2022,10-15-17,98,depth_duration_stimuli/003292_2014-05-14_21-53-49_094959634447_rgbf000100-resize_2/003292_2014-05-14_21-53-49_094959634447_rgbf000100-resize_2-target.png,1000,3.4815,5,4360,999,meters,jsons/v1_VE1000_randls_23_rotated.json,1182422,1642628,52,Man
98,715693,DepthScenes,duration_manipulation_targetAtFixation,jsons/v1_VE1000_randls_23_rotated.json,http://54.235.29.9/FacialAge/BNav_EC2/DepthDuration/v2_depth_duration_MTurk/v2_DepthDuration_HTML.html#216,216,1707,781,1366,768,9-4-2022,10-15-17,99,depth_duration_stimuli/001222_2014-06-17_16-24-06_260595134347_rgbf000073-resize_0/001222_2014-06-17_16-24-06_260595134347_rgbf000073-resize-original.jpg,1000,1.4385,1,3522,982,meters,jsons/v1_VE1000_randls_23_rotated.json,1182422,1642628,52,Man
99,715693,DepthScenes,duration_manipulation_targetAtFixation,jsons/v1_VE1000_randls_23_rotated.json,http://54.235.29.9/FacialAge/BNav_EC2/DepthDuration/v2_depth_duration_MTurk/v2_DepthDuration_HTML.html#216,216,1707,781,1366,768,9-4-2022,10-15-17,100,depth_duration_stimuli/003079_2014-06-15_15-18-20_094959634447_rgbf000152-resize_8/003079_2014-06-15_15-18-20_094959634447_rgbf000152-resize_8-target.png,1000,2.8775,3,4014,982,meters,jsons/v1_VE1000_randls_23_rotated.json,1182422,1642628,52,Man
100,715693,DepthScenes,duration_manipulation_targetAtFixation,jsons/v1_VE1000_randls_23_rotated.json,http://54.235.29.9/FacialAge/BNav_EC2/DepthDuration/v2_depth_duration_MTurk/v2_DepthDuration_HTML.html#216,216,1707,781,1366,768,9-4-2022,10-15-17,101,depth_duration_stimuli/000506_2014-06-08_23-21-00_260595134347_rgbf000070-resize_7/000506_2014-06-08_23-21-00_260595134347_rgbf000070-resize_7-target.png,1000,4.0585,1,3966,985,meters,jsons/v1_VE1000_randls_23_rotated.json,1182422,1642628,52,Man
101,715693,DepthScenes,duration_manipulation_targetAtFixation,jsons/v1_VE1000_randls_23_rotated.json,http://54.235.29.9/FacialAge/BNav_EC2/DepthDuration/v2_depth_duration_MTurk/v2_DepthDuration_HTML.html#216,216,1707,781,1366,768,9-4-2022,10-15-17,102,depth_duration_stimuli/003587_2014-05-23_16-48-02_094959634447_rgbf002384-resize_2/003587_2014-05-23_16-48-02_094959634447_rgbf002384-resize_2-target.png,1000,1.357,3,4071,997,meters,jsons/v1_VE1000_randls_23_rotated.json,1182422,1642628,52,Man
102,715693,DepthScenes,duration_manipulation_targetAtFixation,jsons/v1_VE1000_randls_23_rotated.json,http://54.235.29.9/FacialAge/BNav_EC2/DepthDuration/v2_depth_duration_MTurk/v2_DepthDuration_HTML.html#216,216,1707,781,1366,768,9-4-2022,10-15-17,103,depth_duration_stimuli/001167_2014-06-17_15-38-07_260595134347_rgbf000108-resize_0/001167_2014-06-17_15-38-07_260595134347_rgbf000108-resize_0-target.png,1000,1.8505,1,3684,992,meters,jsons/v1_VE1000_randls_23_rotated.json,1182422,1642628,52,Man
103,715693,DepthScenes,duration_manipulation_targetAtFixation,jsons/v1_VE1000_randls_23_rotated.json,http://54.235.29.9/FacialAge/BNav_EC2/DepthDuration/v2_depth_duration_MTurk/v2_DepthDuration_HTML.html#216,216,1707,781,1366,768,9-4-2022,10-15-17,104,depth_duration_stimuli/002758_2014-06-22_19-11-20_094959634447_rgbf000128-resize_1/002758_2014-06-22_19-11-20_094959634447_rgbf000128-resize_1-target.png,1000,2.555,5,4272,990,meters,jsons/v1_VE1000_randls_23_rotated.json,1182422,1642628,52,Man
104,715693,DepthScenes,duration_manipulation_targetAtFixation,jsons/v1_VE1000_randls_23_rotated.json,http://54.235.29.9/FacialAge/BNav_EC2/DepthDuration/v2_depth_duration_MTurk/v2_DepthDuration_HTML.html#216,216,1707,781,1366,768,9-4-2022,10-15-17,105,depth_duration_stimuli/002630_2014-06-24_14-47-50_094959634447_rgbf000055-resize_1/002630_2014-06-24_14-47-50_094959634447_rgbf000055-resize_1-target.png,1000,3.0095,1,4331,1003,meters,jsons/v1_VE1000_randls_23_rotated.json,1182422,1642628,52,Man
105,715693,DepthScenes,duration_manipulation_targetAtFixation,jsons/v1_VE1000_randls_23_rotated.json,http://54.235.29.9/FacialAge/BNav_EC2/DepthDuration/v2_depth_duration_MTurk/v2_DepthDuration_HTML.html#216,216,1707,781,1366,768,9-4-2022,10-15-17,106,depth_duration_stimuli/001828_2014-06-26_21-40-03_260595134347_rgbf000024-resize_0/001828_2014-06-26_21-40-03_260595134347_rgbf000024-resize_0-target.png,1000,4.8260000000000005,4,4742,994,meters,jsons/v1_VE1000_randls_23_rotated.json,1182422,1642628,52,Man
106,715693,DepthScenes,duration_manipulation_targetAtFixation,jsons/v1_VE1000_randls_23_rotated.json,http://54.235.29.9/FacialAge/BNav_EC2/DepthDuration/v2_depth_duration_MTurk/v2_DepthDuration_HTML.html#216,216,1707,781,1366,768,9-4-2022,10-15-17,107,depth_duration_stimuli/000009_2014-05-26_14-32-05_260595134347_rgbf000034-resize_3/000009_2014-05-26_14-32-05_260595134347_rgbf000034-resize_3-target.png,1000,3.8715,1,3788,986,meters,jsons/v1_VE1000_randls_23_rotated.json,1182422,1642628,52,Man
107,715693,DepthScenes,duration_manipulation_targetAtFixation,jsons/v1_VE1000_randls_23_rotated.json,http://54.235.29.9/FacialAge/BNav_EC2/DepthDuration/v2_depth_duration_MTurk/v2_DepthDuration_HTML.html#216,216,1707,781,1366,768,9-4-2022,10-15-17,108,depth_duration_stimuli/000137_2014-05-20_17-04-49_260595134347_rgbf000120-resize_1/000137_2014-05-20_17-04-49_260595134347_rgbf000120-resize_1-target.png,1000,3.786,4,4141,1005,meters,jsons/v1_VE1000_randls_23_rotated.json,1182422,1642628,52,Man
108,715693,DepthScenes,duration_manipulation_targetAtFixation,jsons/v1_VE1000_randls_23_rotated.json,http://54.235.29.9/FacialAge/BNav_EC2/DepthDuration/v2_depth_duration_MTurk/v2_DepthDuration_HTML.html#216,216,1707,781,1366,768,9-4-2022,10-15-17,109,depth_duration_stimuli/000736_2014-06-08_18-24-15_260595134347_rgbf000206-resize_3/000736_2014-06-08_18-24-15_260595134347_rgbf000206-resize_3-target.png,1000,3.515,2,3867,1008,meters,jsons/v1_VE1000_randls_23_rotated.json,1182422,1642628,52,Man
109,715693,DepthScenes,duration_manipulation_targetAtFixation,jsons/v1_VE1000_randls_23_rotated.json,http://54.235.29.9/FacialAge/BNav_EC2/DepthDuration/v2_depth_duration_MTurk/v2_DepthDuration_HTML.html#216,216,1707,781,1366,768,9-4-2022,10-15-17,110,depth_duration_stimuli/001235_2014-06-17_16-37-36_260595134347_rgbf000084-resize_4/001235_2014-06-17_16-37-36_260595134347_rgbf000084-resize_4-target.png,1000,3.6605,2,3953,965,meters,jsons/v1_VE1000_randls_23_rotated.json,1182422,1642628,52,Man
110,715693,DepthScenes,duration_manipulation_targetAtFixation,jsons/v1_VE1000_randls_23_rotated.json,http://54.235.29.9/FacialAge/BNav_EC2/DepthDuration/v2_depth_duration_MTurk/v2_DepthDuration_HTML.html#216,216,1707,781,1366,768,9-4-2022,10-15-17,111,depth_duration_stimuli/000788_2014-06-08_22-34-36_260595134347_rgbf000131-resize_1/000788_2014-06-08_22-34-36_260595134347_rgbf000131-resize_1-target.png,1000,3.359,2,4022,1009,meters,jsons/v1_VE1000_randls_23_rotated.json,1182422,1642628,52,Man
111,715693,DepthScenes,duration_manipulation_targetAtFixation,jsons/v1_VE1000_randls_23_rotated.json,http://54.235.29.9/FacialAge/BNav_EC2/DepthDuration/v2_depth_duration_MTurk/v2_DepthDuration_HTML.html#216,216,1707,781,1366,768,9-4-2022,10-15-17,112,depth_duration_stimuli/000709_2014-06-08_13-51-55_260595134347_rgbf000068-resize_3/000709_2014-06-08_13-51-55_260595134347_rgbf000068-resize_3-target.png,1000,1.8030000000000002,1,3959,1004,meters,jsons/v1_VE1000_randls_23_rotated.json,1182422,1642628,52,Man
112,715693,DepthScenes,duration_manipulation_targetAtFixation,jsons/v1_VE1000_randls_23_rotated.json,http://54.235.29.9/FacialAge/BNav_EC2/DepthDuration/v2_depth_duration_MTurk/v2_DepthDuration_HTML.html#216,216,1707,781,1366,768,9-4-2022,10-15-17,113,depth_duration_stimuli/002057_2014-06-24_21-00-13_260595134347_rgbf000120-resize_1/002057_2014-06-24_21-00-13_260595134347_rgbf000120-resize_1-target.png,1000,2.967,5,3976,1000,meters,jsons/v1_VE1000_randls_23_rotated.json,1182422,1642628,52,Man
113,715693,DepthScenes,duration_manipulation_targetAtFixation,jsons/v1_VE1000_randls_23_rotated.json,http://54.235.29.9/FacialAge/BNav_EC2/DepthDuration/v2_depth_duration_MTurk/v2_DepthDuration_HTML.html#216,216,1707,781,1366,768,9-4-2022,10-15-17,114,depth_duration_stimuli/003081_2014-06-15_15-19-16_094959634447_rgbf000150-resize_1/003081_2014-06-15_15-19-16_094959634447_rgbf000150-resize_1-target.png,1000,3.9125,2,4625,985,meters,jsons/v1_VE1000_randls_23_rotated.json,1182422,1642628,52,Man
114,715693,DepthScenes,duration_manipulation_targetAtFixation,jsons/v1_VE1000_randls_23_rotated.json,http://54.235.29.9/FacialAge/BNav_EC2/DepthDuration/v2_depth_duration_MTurk/v2_DepthDuration_HTML.html#216,216,1707,781,1366,768,9-4-2022,10-15-17,115,depth_duration_stimuli/001417_2014-06-19_16-25-36_260595134347_rgbf000115-resize_5/001417_2014-06-19_16-25-36_260595134347_rgbf000115-resize_5-target.png,1000,4.6255,2,15191,992,meters,jsons/v1_VE1000_randls_23_rotated.json,1182422,1642628,52,Man
115,715693,DepthScenes,duration_manipulation_targetAtFixation,jsons/v1_VE1000_randls_23_rotated.json,http://54.235.29.9/FacialAge/BNav_EC2/DepthDuration/v2_depth_duration_MTurk/v2_DepthDuration_HTML.html#216,216,1707,781,1366,768,9-4-2022,10-15-17,116,depth_duration_stimuli/000409_2014-06-04_19-23-33_260595134347_rgbf000067-resize_0/000409_2014-06-04_19-23-33_260595134347_rgbf000067-resize_0-target.png,1000,3.7335,2,4801,1001,meters,jsons/v1_VE1000_randls_23_rotated.json,1182422,1642628,52,Man
116,715693,DepthScenes,duration_manipulation_targetAtFixation,jsons/v1_VE1000_randls_23_rotated.json,http://54.235.29.9/FacialAge/BNav_EC2/DepthDuration/v2_depth_duration_MTurk/v2_DepthDuration_HTML.html#216,216,1707,781,1366,768,9-4-2022,10-15-17,117,depth_duration_stimuli/002663_2014-06-13_15-50-26_094959634447_rgbf000075-resize_1/002663_2014-06-13_15-50-26_094959634447_rgbf000075-resize_1-target.png,1000,4.7495,1,4167,854,meters,jsons/v1_VE1000_randls_23_rotated.json,1182422,1642628,52,Man
117,715693,DepthScenes,duration_manipulation_targetAtFixation,jsons/v1_VE1000_randls_23_rotated.json,http://54.235.29.9/FacialAge/BNav_EC2/DepthDuration/v2_depth_duration_MTurk/v2_DepthDuration_HTML.html#216,216,1707,781,1366,768,9-4-2022,10-15-17,118,depth_duration_stimuli/000927_2014-06-09_16-32-30_260595134347_rgbf000123-resize_3/000927_2014-06-09_16-32-30_260595134347_rgbf000123-resize_3-target.png,1000,2.6785,5,4367,989,meters,jsons/v1_VE1000_randls_23_rotated.json,1182422,1642628,52,Man
118,715693,DepthScenes,duration_manipulation_targetAtFixation,jsons/v1_VE1000_randls_23_rotated.json,http://54.235.29.9/FacialAge/BNav_EC2/DepthDuration/v2_depth_duration_MTurk/v2_DepthDuration_HTML.html#216,216,1707,781,1366,768,9-4-2022,10-15-17,119,depth_duration_stimuli/001110_2014-06-15_17-25-28_260595134347_rgbf000150-resize_1/001110_2014-06-15_17-25-28_260595134347_rgbf000150-resize_1-target.png,1000,1.7115,2,4081,989,meters,jsons/v1_VE1000_randls_23_rotated.json,1182422,1642628,52,Man
119,715693,DepthScenes,duration_manipulation_targetAtFixation,jsons/v1_VE1000_randls_23_rotated.json,http://54.235.29.9/FacialAge/BNav_EC2/DepthDuration/v2_depth_duration_MTurk/v2_DepthDuration_HTML.html#216,216,1707,781,1366,768,9-4-2022,10-15-17,120,depth_duration_stimuli/000787_2014-06-08_22-33-53_260595134347_rgbf000175-resize_1/000787_2014-06-08_22-33-53_260595134347_rgbf000175-resize-original.jpg,1000,4.784,1,3810,992,meters,jsons/v1_VE1000_randls_23_rotated.json,1182422,1642628,52,Man
120,715693,DepthScenes,duration_manipulation_targetAtFixation,jsons/v1_VE1000_randls_23_rotated.json,http://54.235.29.9/FacialAge/BNav_EC2/DepthDuration/v2_depth_duration_MTurk/v2_DepthDuration_HTML.html#216,216,1707,781,1366,768,9-4-2022,10-15-17,121,depth_duration_stimuli/000677_2014-06-08_23-10-32_260595134347_rgbf000158-resize_6/000677_2014-06-08_23-10-32_260595134347_rgbf000158-resize_6-target.png,1000,3.556,6,4966,988,meters,jsons/v1_VE1000_randls_23_rotated.json,1182422,1642628,52,Man
121,715693,DepthScenes,duration_manipulation_targetAtFixation,jsons/v1_VE1000_randls_23_rotated.json,http://54.235.29.9/FacialAge/BNav_EC2/DepthDuration/v2_depth_duration_MTurk/v2_DepthDuration_HTML.html#216,216,1707,781,1366,768,9-4-2022,10-15-17,122,depth_duration_stimuli/001029_2014-06-08_13-17-57_260595134347_rgbf000065-resize_1/001029_2014-06-08_13-17-57_260595134347_rgbf000065-resize_1-target.png,1000,3.0835,2,4837,972,meters,jsons/v1_VE1000_randls_23_rotated.json,1182422,1642628,52,Man
122,715693,DepthScenes,duration_manipulation_targetAtFixation,jsons/v1_VE1000_randls_23_rotated.json,http://54.235.29.9/FacialAge/BNav_EC2/DepthDuration/v2_depth_duration_MTurk/v2_DepthDuration_HTML.html#216,216,1707,781,1366,768,9-4-2022,10-15-17,123,depth_duration_stimuli/003228_2014-05-14_13-42-35_094959634447_rgbf000101-resize_1/003228_2014-05-14_13-42-35_094959634447_rgbf000101-resize_1-target.png,1000,1.9680000000000002,1,3916,986,meters,jsons/v1_VE1000_randls_23_rotated.json,1182422,1642628,52,Man
123,715693,DepthScenes,duration_manipulation_targetAtFixation,jsons/v1_VE1000_randls_23_rotated.json,http://54.235.29.9/FacialAge/BNav_EC2/DepthDuration/v2_depth_duration_MTurk/v2_DepthDuration_HTML.html#216,216,1707,781,1366,768,9-4-2022,10-15-17,124,depth_duration_stimuli/002600_2014-06-24_14-27-04_094959634447_rgbf000074-resize_2/002600_2014-06-24_14-27-04_094959634447_rgbf000074-resize_2-target.png,1000,2.7575,2,4431,988,meters,jsons/v1_VE1000_randls_23_rotated.json,1182422,1642628,52,Man
124,715693,DepthScenes,duration_manipulation_targetAtFixation,jsons/v1_VE1000_randls_23_rotated.json,http://54.235.29.9/FacialAge/BNav_EC2/DepthDuration/v2_depth_duration_MTurk/v2_DepthDuration_HTML.html#216,216,1707,781,1366,768,9-4-2022,10-15-17,125,depth_duration_stimuli/002750_2014-06-22_19-08-03_094959634447_rgbf000094-resize_4/002750_2014-06-22_19-08-03_094959634447_rgbf000094-resize_4-target.png,1000,2.354,1,4510,999,meters,jsons/v1_VE1000_randls_23_rotated.json,1182422,1642628,52,Man
125,715693,DepthScenes,duration_manipulation_targetAtFixation,jsons/v1_VE1000_randls_23_rotated.json,http://54.235.29.9/FacialAge/BNav_EC2/DepthDuration/v2_depth_duration_MTurk/v2_DepthDuration_HTML.html#216,216,1707,781,1366,768,9-4-2022,10-15-17,126,depth_duration_stimuli/002549_2014-06-24_13-41-39_094959634447_rgbf000022-resize_3/002549_2014-06-24_13-41-39_094959634447_rgbf000022-resize_3-target.png,1000,1.476,2,4324,988,meters,jsons/v1_VE1000_randls_23_rotated.json,1182422,1642628,52,Man
126,715693,DepthScenes,duration_manipulation_targetAtFixation,jsons/v1_VE1000_randls_23_rotated.json,http://54.235.29.9/FacialAge/BNav_EC2/DepthDuration/v2_depth_duration_MTurk/v2_DepthDuration_HTML.html#216,216,1707,781,1366,768,9-4-2022,10-15-17,127,depth_duration_stimuli/002323_2014-06-28_20-01-54_260595134347_rgbf000051-resize_4/002323_2014-06-28_20-01-54_260595134347_rgbf000051-resize_4-target.png,1000,3.7310000000000003,2,10848,1003,meters,jsons/v1_VE1000_randls_23_rotated.json,1182422,1642628,52,Man
127,715693,DepthScenes,duration_manipulation_targetAtFixation,jsons/v1_VE1000_randls_23_rotated.json,http://54.235.29.9/FacialAge/BNav_EC2/DepthDuration/v2_depth_duration_MTurk/v2_DepthDuration_HTML.html#216,216,1707,781,1366,768,9-4-2022,10-15-17,128,depth_duration_stimuli/000917_2014-06-09_22-45-29_260595134347_rgbf000149-resize_3/000917_2014-06-09_22-45-29_260595134347_rgbf000149-resize_3-target.png,1000,4.1865,4,6974,998,meters,jsons/v1_VE1000_randls_23_rotated.json,1182422,1642628,52,Man
128,715693,DepthScenes,duration_manipulation_targetAtFixation,jsons/v1_VE1000_randls_23_rotated.json,http://54.235.29.9/FacialAge/BNav_EC2/DepthDuration/v2_depth_duration_MTurk/v2_DepthDuration_HTML.html#216,216,1707,781,1366,768,9-4-2022,10-15-17,129,depth_duration_stimuli/002949_2014-06-26_15-57-42_094959634447_rgbf000079-resize_1/002949_2014-06-26_15-57-42_094959634447_rgbf000079-resize_1-target.png,1000,1.8915,6,4432,999,meters,jsons/v1_VE1000_randls_23_rotated.json,1182422,1642628,52,Man
129,715693,DepthScenes,duration_manipulation_targetAtFixation,jsons/v1_VE1000_randls_23_rotated.json,http://54.235.29.9/FacialAge/BNav_EC2/DepthDuration/v2_depth_duration_MTurk/v2_DepthDuration_HTML.html#216,216,1707,781,1366,768,9-4-2022,10-15-17,130,depth_duration_stimuli/000522_2014-06-08_13-35-06_260595134347_rgbf000244-resize_1/000522_2014-06-08_13-35-06_260595134347_rgbf000244-resize_1-target.png,1000,2.3715,1,3890,1001,meters,jsons/v1_VE1000_randls_23_rotated.json,1182422,1642628,52,Man
130,715693,DepthScenes,duration_manipulation_targetAtFixation,jsons/v1_VE1000_randls_23_rotated.json,http://54.235.29.9/FacialAge/BNav_EC2/DepthDuration/v2_depth_duration_MTurk/v2_DepthDuration_HTML.html#216,216,1707,781,1366,768,9-4-2022,10-15-17,131,depth_duration_stimuli/002209_2014-06-28_18-36-10_260595134347_rgbf000051-resize_1/002209_2014-06-28_18-36-10_260595134347_rgbf000051-resize_1-target.png,1000,2.057,3,5607,1000,meters,jsons/v1_VE1000_randls_23_rotated.json,1182422,1642628,52,Man
131,715693,DepthScenes,duration_manipulation_targetAtFixation,jsons/v1_VE1000_randls_23_rotated.json,http://54.235.29.9/FacialAge/BNav_EC2/DepthDuration/v2_depth_duration_MTurk/v2_DepthDuration_HTML.html#216,216,1707,781,1366,768,9-4-2022,10-15-17,132,depth_duration_stimuli/002763_2014-06-22_19-13-10_094959634447_rgbf000075-resize_4/002763_2014-06-22_19-13-10_094959634447_rgbf000075-resize_4-target.png,1000,1.68375,1,4496,998,meters,jsons/v1_VE1000_randls_23_rotated.json,1182422,1642628,52,Man
132,715693,DepthScenes,duration_manipulation_targetAtFixation,jsons/v1_VE1000_randls_23_rotated.json,http://54.235.29.9/FacialAge/BNav_EC2/DepthDuration/v2_depth_duration_MTurk/v2_DepthDuration_HTML.html#216,216,1707,781,1366,768,9-4-2022,10-15-17,133,depth_duration_stimuli/003048_2014-06-15_13-49-43_094959634447_rgbf000150-resize_1/003048_2014-06-15_13-49-43_094959634447_rgbf000150-resize_1-target.png,1000,4.0035,3,4448,981,meters,jsons/v1_VE1000_randls_23_rotated.json,1182422,1642628,52,Man
133,715693,DepthScenes,duration_manipulation_targetAtFixation,jsons/v1_VE1000_randls_23_rotated.json,http://54.235.29.9/FacialAge/BNav_EC2/DepthDuration/v2_depth_duration_MTurk/v2_DepthDuration_HTML.html#216,216,1707,781,1366,768,9-4-2022,10-15-17,134,depth_duration_stimuli/002043_2014-06-24_20-29-38_260595134347_rgbf000039-resize_4/002043_2014-06-24_20-29-38_260595134347_rgbf000039-resize_4-target.png,1000,2.8435,1,4133,994,meters,jsons/v1_VE1000_randls_23_rotated.json,1182422,1642628,52,Man
134,715693,DepthScenes,duration_manipulation_targetAtFixation,jsons/v1_VE1000_randls_23_rotated.json,http://54.235.29.9/FacialAge/BNav_EC2/DepthDuration/v2_depth_duration_MTurk/v2_DepthDuration_HTML.html#216,216,1707,781,1366,768,9-4-2022,10-15-17,135,depth_duration_stimuli/000375_2014-06-08_11-17-29_260595134347_rgbf000133-resize_2/000375_2014-06-08_11-17-29_260595134347_rgbf000133-resize-original.jpg,1000,4.718,1,33624,997,meters,jsons/v1_VE1000_randls_23_rotated.json,1182422,1642628,52,Man
135,715693,DepthScenes,duration_manipulation_targetAtFixation,jsons/v1_VE1000_randls_23_rotated.json,http://54.235.29.9/FacialAge/BNav_EC2/DepthDuration/v2_depth_duration_MTurk/v2_DepthDuration_HTML.html#216,216,1707,781,1366,768,9-4-2022,10-15-17,136,depth_duration_stimuli/001052_2014-06-08_18-24-54_260595134347_rgbf000130-resize_1/001052_2014-06-08_18-24-54_260595134347_rgbf000130-resize_1-target.png,1000,4.1045,3,10926,987,meters,jsons/v1_VE1000_randls_23_rotated.json,1182422,1642628,52,Man
136,715693,DepthScenes,duration_manipulation_targetAtFixation,jsons/v1_VE1000_randls_23_rotated.json,http://54.235.29.9/FacialAge/BNav_EC2/DepthDuration/v2_depth_duration_MTurk/v2_DepthDuration_HTML.html#216,216,1707,781,1366,768,9-4-2022,10-15-17,137,depth_duration_stimuli/002988_2014-06-15_12-24-20_094959634447_rgbf000150-resize_1/002988_2014-06-15_12-24-20_094959634447_rgbf000150-resize_1-target.png,1000,4.7669999999999995,2,40333,1002,meters,jsons/v1_VE1000_randls_23_rotated.json,1182422,1642628,52,Man
137,715693,DepthScenes,duration_manipulation_targetAtFixation,jsons/v1_VE1000_randls_23_rotated.json,http://54.235.29.9/FacialAge/BNav_EC2/DepthDuration/v2_depth_duration_MTurk/v2_DepthDuration_HTML.html#216,216,1707,781,1366,768,9-4-2022,10-15-17,138,depth_duration_stimuli/002875_2014-06-01_15-19-00_094959634447_rgbf000151-resize_1/002875_2014-06-01_15-19-00_094959634447_rgbf000151-resize_1-target.png,1000,1.9675,2,82696,1000,meters,jsons/v1_VE1000_randls_23_rotated.json,1182422,1642628,52,Man
138,715693,DepthScenes,duration_manipulation_targetAtFixation,jsons/v1_VE1000_randls_23_rotated.json,http://54.235.29.9/FacialAge/BNav_EC2/DepthDuration/v2_depth_duration_MTurk/v2_DepthDuration_HTML.html#216,216,1707,781,1366,768,9-4-2022,10-15-17,139,depth_duration_stimuli/001011_2014-06-08_23-18-54_260595134347_rgbf000044-resize_4/001011_2014-06-08_23-18-54_260595134347_rgbf000044-resize_4-target.png,1000,2.4730000000000003,2,40662,996,meters,jsons/v1_VE1000_randls_23_rotated.json,1182422,1642628,52,Man
139,715693,DepthScenes,duration_manipulation_targetAtFixation,jsons/v1_VE1000_randls_23_rotated.json,http://54.235.29.9/FacialAge/BNav_EC2/DepthDuration/v2_depth_duration_MTurk/v2_DepthDuration_HTML.html#216,216,1707,781,1366,768,9-4-2022,10-15-17,140,depth_duration_stimuli/002660_2014-06-13_15-44-18_094959634447_rgbf001878-resize_2/002660_2014-06-13_15-44-18_094959634447_rgbf001878-resize_2-target.png,1000,3.576,1,4013,995,meters,jsons/v1_VE1000_randls_23_rotated.json,1182422,1642628,52,Man
140,715693,DepthScenes,duration_manipulation_targetAtFixation,jsons/v1_VE1000_randls_23_rotated.json,http://54.235.29.9/FacialAge/BNav_EC2/DepthDuration/v2_depth_duration_MTurk/v2_DepthDuration_HTML.html#216,216,1707,781,1366,768,9-4-2022,10-15-17,141,depth_duration_stimuli/002153_2014-06-25_21-27-18_260595134347_rgbf000038-resize_5/002153_2014-06-25_21-27-18_260595134347_rgbf000038-resize_5-target.png,1000,2.505,3,8526,1001,meters,jsons/v1_VE1000_randls_23_rotated.json,1182422,1642628,52,Man
141,715693,DepthScenes,duration_manipulation_targetAtFixation,jsons/v1_VE1000_randls_23_rotated.json,http://54.235.29.9/FacialAge/BNav_EC2/DepthDuration/v2_depth_duration_MTurk/v2_DepthDuration_HTML.html#216,216,1707,781,1366,768,9-4-2022,10-15-17,142,depth_duration_stimuli/003083_2014-06-15_15-21-03_094959634447_rgbf000063-resize_1/003083_2014-06-15_15-21-03_094959634447_rgbf000063-resize_1-target.png,1000,4.1405,1,11899,992,meters,jsons/v1_VE1000_randls_23_rotated.json,1182422,1642628,52,Man
142,715693,DepthScenes,duration_manipulation_targetAtFixation,jsons/v1_VE1000_randls_23_rotated.json,http://54.235.29.9/FacialAge/BNav_EC2/DepthDuration/v2_depth_duration_MTurk/v2_DepthDuration_HTML.html#216,216,1707,781,1366,768,9-4-2022,10-15-17,143,depth_duration_stimuli/000486_2014-06-09_20-47-20_260595134347_rgbf000143-resize_2/000486_2014-06-09_20-47-20_260595134347_rgbf000143-resize_2-target.png,1000,4.8325,2,4919,995,meters,jsons/v1_VE1000_randls_23_rotated.json,1182422,1642628,52,Man
143,715693,DepthScenes,duration_manipulation_targetAtFixation,jsons/v1_VE1000_randls_23_rotated.json,http://54.235.29.9/FacialAge/BNav_EC2/DepthDuration/v2_depth_duration_MTurk/v2_DepthDuration_HTML.html#216,216,1707,781,1366,768,9-4-2022,10-15-17,144,depth_duration_stimuli/003423_2014-05-21_10-23-26_094959634447_rgbf002665-resize_2/003423_2014-05-21_10-23-26_094959634447_rgbf002665-resize_2-target.png,1000,3.2575,1,3979,990,meters,jsons/v1_VE1000_randls_23_rotated.json,1182422,1642628,52,Man
144,715693,DepthScenes,duration_manipulation_targetAtFixation,jsons/v1_VE1000_randls_23_rotated.json,http://54.235.29.9/FacialAge/BNav_EC2/DepthDuration/v2_depth_duration_MTurk/v2_DepthDuration_HTML.html#216,216,1707,781,1366,768,9-4-2022,10-15-17,145,depth_duration_stimuli/002905_2014-06-03_18-04-43_094959634447_rgbf000151-resize_2/002905_2014-06-03_18-04-43_094959634447_rgbf000151-resize_2-target.png,1000,2.0295,2,4308,996,meters,jsons/v1_VE1000_randls_23_rotated.json,1182422,1642628,52,Man
145,715693,DepthScenes,duration_manipulation_targetAtFixation,jsons/v1_VE1000_randls_23_rotated.json,http://54.235.29.9/FacialAge/BNav_EC2/DepthDuration/v2_depth_duration_MTurk/v2_DepthDuration_HTML.html#216,216,1707,781,1366,768,9-4-2022,10-15-17,146,depth_duration_stimuli/000943_2014-06-09_19-31-07_260595134347_rgbf000128-resize_1/000943_2014-06-09_19-31-07_260595134347_rgbf000128-resize_1-target.png,1000,1.9765,5,4608,990,meters,jsons/v1_VE1000_randls_23_rotated.json,1182422,1642628,52,Man
146,715693,DepthScenes,duration_manipulation_targetAtFixation,jsons/v1_VE1000_randls_23_rotated.json,http://54.235.29.9/FacialAge/BNav_EC2/DepthDuration/v2_depth_duration_MTurk/v2_DepthDuration_HTML.html#216,216,1707,781,1366,768,9-4-2022,10-15-17,147,depth_duration_stimuli/003070_2014-06-15_14-58-27_094959634447_rgbf000150-resize_3/003070_2014-06-15_14-58-27_094959634447_rgbf000150-resize_3-target.png,1000,2.9415,1,4041,995,meters,jsons/v1_VE1000_randls_23_rotated.json,1182422,1642628,52,Man
147,715693,DepthScenes,duration_manipulation_targetAtFixation,jsons/v1_VE1000_randls_23_rotated.json,http://54.235.29.9/FacialAge/BNav_EC2/DepthDuration/v2_depth_duration_MTurk/v2_DepthDuration_HTML.html#216,216,1707,781,1366,768,9-4-2022,10-15-17,148,depth_duration_stimuli/003129_2014-05-12_10-48-10_094959634447_rgbf000100-resize_0/003129_2014-05-12_10-48-10_094959634447_rgbf000100-resize_0-target.png,1000,4.9305,4,4583,993,meters,jsons/v1_VE1000_randls_23_rotated.json,1182422,1642628,52,Man
148,715693,DepthScenes,duration_manipulation_targetAtFixation,jsons/v1_VE1000_randls_23_rotated.json,http://54.235.29.9/FacialAge/BNav_EC2/DepthDuration/v2_depth_duration_MTurk/v2_DepthDuration_HTML.html#216,216,1707,781,1366,768,9-4-2022,10-15-17,149,depth_duration_stimuli/000414_2014-06-04_19-49-13_260595134347_rgbf000044-resize_0/000414_2014-06-04_19-49-13_260595134347_rgbf000044-resize_0-target.png,1000,4.329,2,4354,984,meters,jsons/v1_VE1000_randls_23_rotated.json,1182422,1642628,52,Man
149,715693,DepthScenes,duration_manipulation_targetAtFixation,jsons/v1_VE1000_randls_23_rotated.json,http://54.235.29.9/FacialAge/BNav_EC2/DepthDuration/v2_depth_duration_MTurk/v2_DepthDuration_HTML.html#216,216,1707,781,1366,768,9-4-2022,10-15-17,150,depth_duration_stimuli/002545_2014-06-24_13-38-53_094959634447_rgbf000080-resize_4/002545_2014-06-24_13-38-53_094959634447_rgbf000080-resize_4-target.png,1000,1.9205,1,3989,993,meters,jsons/v1_VE1000_randls_23_rotated.json,1182422,1642628,52,Man
150,715693,DepthScenes,duration_manipulation_targetAtFixation,jsons/v1_VE1000_randls_23_rotated.json,http://54.235.29.9/FacialAge/BNav_EC2/DepthDuration/v2_depth_duration_MTurk/v2_DepthDuration_HTML.html#216,216,1707,781,1366,768,9-4-2022,10-15-17,151,depth_duration_stimuli/001092_2014-06-15_17-34-58_260595134347_rgbf000171-resize_3/001092_2014-06-15_17-34-58_260595134347_rgbf000171-resize_3-target.png,1000,2.6935,2,5017,990,meters,jsons/v1_VE1000_randls_23_rotated.json,1182422,1642628,52,Man
151,715693,DepthScenes,duration_manipulation_targetAtFixation,jsons/v1_VE1000_randls_23_rotated.json,http://54.235.29.9/FacialAge/BNav_EC2/DepthDuration/v2_depth_duration_MTurk/v2_DepthDuration_HTML.html#216,216,1707,781,1366,768,9-4-2022,10-15-17,152,depth_duration_stimuli/000569_2014-06-09_22-51-47_260595134347_rgbf000141-resize_3/000569_2014-06-09_22-51-47_260595134347_rgbf000141-resize-original.jpg,1000,4.512,1,4422,993,meters,jsons/v1_VE1000_randls_23_rotated.json,1182422,1642628,52,Man
152,715693,DepthScenes,duration_manipulation_targetAtFixation,jsons/v1_VE1000_randls_23_rotated.json,http://54.235.29.9/FacialAge/BNav_EC2/DepthDuration/v2_depth_duration_MTurk/v2_DepthDuration_HTML.html#216,216,1707,781,1366,768,9-4-2022,10-15-17,153,depth_duration_stimuli/002199_2014-06-28_18-33-56_260595134347_rgbf000074-resize_0/002199_2014-06-28_18-33-56_260595134347_rgbf000074-resize_0-target.png,1000,1.996,3,10338,981,meters,jsons/v1_VE1000_randls_23_rotated.json,1182422,1642628,52,Man
153,715693,DepthScenes,duration_manipulation_targetAtFixation,jsons/v1_VE1000_randls_23_rotated.json,http://54.235.29.9/FacialAge/BNav_EC2/DepthDuration/v2_depth_duration_MTurk/v2_DepthDuration_HTML.html#216,216,1707,781,1366,768,9-4-2022,10-15-17,154,depth_duration_stimuli/001056_2014-06-08_18-46-44_260595134347_rgbf000068-resize_0/001056_2014-06-08_18-46-44_260595134347_rgbf000068-resize_0-target.png,1000,2.6625,1,4631,995,meters,jsons/v1_VE1000_randls_23_rotated.json,1182422,1642628,52,Man
154,715693,DepthScenes,duration_manipulation_targetAtFixation,jsons/v1_VE1000_randls_23_rotated.json,http://54.235.29.9/FacialAge/BNav_EC2/DepthDuration/v2_depth_duration_MTurk/v2_DepthDuration_HTML.html#216,216,1707,781,1366,768,9-4-2022,10-15-17,155,depth_duration_stimuli/002425_2014-06-28_20-27-29_260595134347_rgbf000031-resize_8/002425_2014-06-28_20-27-29_260595134347_rgbf000031-resize_8-target.png,1000,3.8960000000000004,2,6160,992,meters,jsons/v1_VE1000_randls_23_rotated.json,1182422,1642628,52,Man
155,715693,DepthScenes,duration_manipulation_targetAtFixation,jsons/v1_VE1000_randls_23_rotated.json,http://54.235.29.9/FacialAge/BNav_EC2/DepthDuration/v2_depth_duration_MTurk/v2_DepthDuration_HTML.html#216,216,1707,781,1366,768,9-4-2022,10-15-17,156,depth_duration_stimuli/000642_2014-06-08_16-59-25_260595134347_rgbf000098-resize_2/000642_2014-06-08_16-59-25_260595134347_rgbf000098-resize_2-target.png,1000,2.8815,3,5348,998,meters,jsons/v1_VE1000_randls_23_rotated.json,1182422,1642628,52,Man
156,715693,DepthScenes,duration_manipulation_targetAtFixation,jsons/v1_VE1000_randls_23_rotated.json,http://54.235.29.9/FacialAge/BNav_EC2/DepthDuration/v2_depth_duration_MTurk/v2_DepthDuration_HTML.html#216,216,1707,781,1366,768,9-4-2022,10-15-17,157,depth_duration_stimuli/000665_2014-06-09_20-42-35_260595134347_rgbf000110-resize_1/000665_2014-06-09_20-42-35_260595134347_rgbf000110-resize_1-target.png,1000,3.057,5,4859,994,meters,jsons/v1_VE1000_randls_23_rotated.json,1182422,1642628,52,Man
157,715693,DepthScenes,duration_manipulation_targetAtFixation,jsons/v1_VE1000_randls_23_rotated.json,http://54.235.29.9/FacialAge/BNav_EC2/DepthDuration/v2_depth_duration_MTurk/v2_DepthDuration_HTML.html#216,216,1707,781,1366,768,9-4-2022,10-15-17,158,depth_duration_stimuli/001150_2014-06-17_15-27-34_260595134347_rgbf000108-resize_2/001150_2014-06-17_15-27-34_260595134347_rgbf000108-resize_2-target.png,1000,4.0325,1,4305,1001,meters,jsons/v1_VE1000_randls_23_rotated.json,1182422,1642628,52,Man
158,715693,DepthScenes,duration_manipulation_targetAtFixation,jsons/v1_VE1000_randls_23_rotated.json,http://54.235.29.9/FacialAge/BNav_EC2/DepthDuration/v2_depth_duration_MTurk/v2_DepthDuration_HTML.html#216,216,1707,781,1366,768,9-4-2022,10-15-17,159,depth_duration_stimuli/001450_2014-06-19_17-02-03_260595134347_rgbf000203-resize_4/001450_2014-06-19_17-02-03_260595134347_rgbf000203-resize_4-target.png,1000,4.0106666666667,4,4523,991,meters,jsons/v1_VE1000_randls_23_rotated.json,1182422,1642628,52,Man
159,715693,DepthScenes,duration_manipulation_targetAtFixation,jsons/v1_VE1000_randls_23_rotated.json,http://54.235.29.9/FacialAge/BNav_EC2/DepthDuration/v2_depth_duration_MTurk/v2_DepthDuration_HTML.html#216,216,1707,781,1366,768,9-4-2022,10-15-17,160,depth_duration_stimuli/001449_2014-06-19_17-01-27_260595134347_rgbf000116-resize_2/001449_2014-06-19_17-01-27_260595134347_rgbf000116-resize_2-target.png,1000,3.452,1,4675,984,meters,jsons/v1_VE1000_randls_23_rotated.json,1182422,1642628,52,Man
160,715693,DepthScenes,duration_manipulation_targetAtFixation,jsons/v1_VE1000_randls_23_rotated.json,http://54.235.29.9/FacialAge/BNav_EC2/DepthDuration/v2_depth_duration_MTurk/v2_DepthDuration_HTML.html#216,216,1707,781,1366,768,9-4-2022,10-15-17,161,depth_duration_stimuli/002444_2014-06-28_20-32-08_260595134347_rgbf000027-resize_0/002444_2014-06-28_20-32-08_260595134347_rgbf000027-resize_0-target.png,1000,4.388999999999999,2,4521,991,meters,jsons/v1_VE1000_randls_23_rotated.json,1182422,1642628,52,Man
161,715693,DepthScenes,duration_manipulation_targetAtFixation,jsons/v1_VE1000_randls_23_rotated.json,http://54.235.29.9/FacialAge/BNav_EC2/DepthDuration/v2_depth_duration_MTurk/v2_DepthDuration_HTML.html#216,216,1707,781,1366,768,9-4-2022,10-15-17,162,depth_duration_stimuli/000436_2014-06-09_22-25-11_260595134347_rgbf000137-resize_1/000436_2014-06-09_22-25-11_260595134347_rgbf000137-resize_1-target.png,1000,4.0705,4,4562,989,meters,jsons/v1_VE1000_randls_23_rotated.json,1182422,1642628,52,Man
162,715693,DepthScenes,duration_manipulation_targetAtFixation,jsons/v1_VE1000_randls_23_rotated.json,http://54.235.29.9/FacialAge/BNav_EC2/DepthDuration/v2_depth_duration_MTurk/v2_DepthDuration_HTML.html#216,216,1707,781,1366,768,9-4-2022,10-15-17,163,depth_duration_stimuli/001650_2014-06-20_12-09-00_260595134347_rgbf000087-resize_3/001650_2014-06-20_12-09-00_260595134347_rgbf000087-resize_3-target.png,1000,1.9505,5,5090,999,meters,jsons/v1_VE1000_randls_23_rotated.json,1182422,1642628,52,Man
163,715693,DepthScenes,duration_manipulation_targetAtFixation,jsons/v1_VE1000_randls_23_rotated.json,http://54.235.29.9/FacialAge/BNav_EC2/DepthDuration/v2_depth_duration_MTurk/v2_DepthDuration_HTML.html#216,216,1707,781,1366,768,9-4-2022,10-15-17,164,depth_duration_stimuli/000682_2014-06-08_23-14-58_260595134347_rgbf000041-resize_5/000682_2014-06-08_23-14-58_260595134347_rgbf000041-resize_5-target.png,1000,2.7239999999999998,1,7019,993,meters,jsons/v1_VE1000_randls_23_rotated.json,1182422,1642628,52,Man
