,subjID,experimentName,versionName,sequenceName,url,selected_row,windowWidth,windowHeight,screenWidth,screenHeight,startDate,startTime,trial,stimulus,duration,actual_depth,depth_estimate,trial_RT,log_sceneDuration,unitSelection,seq_filepath,experimentTime,totalTime,age,gender
0,715777,DepthScenes,duration_manipulation_targetAtFixation,jsons/v1_VE250_randls_63.json,http://54.235.29.9/FacialAge/BNav_EC2/DepthDuration/v2_depth_duration_MTurk/v2_DepthDuration_HTML.html#16,16,1366,768,1366,768,8-30-2022,10-51-48,1,depth_duration_stimuli/003292_2014-05-14_21-53-49_094959634447_rgbf000100-resize_2/003292_2014-05-14_21-53-49_094959634447_rgbf000100-resize_2-target.png,250,3.4815,3,4329,250,feet,jsons/v1_VE250_randls_63.json,1018777,1217519,25,Man
1,715777,DepthScenes,duration_manipulation_targetAtFixation,jsons/v1_VE250_randls_63.json,http://54.235.29.9/FacialAge/BNav_EC2/DepthDuration/v2_depth_duration_MTurk/v2_DepthDuration_HTML.html#16,16,1366,768,1366,768,8-30-2022,10-51-48,2,depth_duration_stimuli/002639_2014-06-24_14-51-37_094959634447_rgbf000074-resize_4/002639_2014-06-24_14-51-37_094959634447_rgbf000074-resize_4-target.png,250,4.0375,5,3938,249,feet,jsons/v1_VE250_randls_63.json,1018777,1217519,25,Man
2,715777,DepthScenes,duration_manipulation_targetAtFixation,jsons/v1_VE250_randls_63.json,http://54.235.29.9/FacialAge/BNav_EC2/DepthDuration/v2_depth_duration_MTurk/v2_DepthDuration_HTML.html#16,16,1366,768,1366,768,8-30-2022,10-51-48,3,depth_duration_stimuli/000739_2014-06-08_18-45-58_260595134347_rgbf000068-resize_1/000739_2014-06-08_18-45-58_260595134347_rgbf000068-resize_1-target.png,250,3.534,4,3577,249,feet,jsons/v1_VE250_randls_63.json,1018777,1217519,25,Man
3,715777,DepthScenes,duration_manipulation_targetAtFixation,jsons/v1_VE250_randls_63.json,http://54.235.29.9/FacialAge/BNav_EC2/DepthDuration/v2_depth_duration_MTurk/v2_DepthDuration_HTML.html#16,16,1366,768,1366,768,8-30-2022,10-51-48,4,depth_duration_stimuli/000734_2014-06-08_17-39-11_260595134347_rgbf000128-resize_2/000734_2014-06-08_17-39-11_260595134347_rgbf000128-resize_2-target.png,250,4.098,3,5483,248,feet,jsons/v1_VE250_randls_63.json,1018777,1217519,25,Man
4,715777,DepthScenes,duration_manipulation_targetAtFixation,jsons/v1_VE250_randls_63.json,http://54.235.29.9/FacialAge/BNav_EC2/DepthDuration/v2_depth_duration_MTurk/v2_DepthDuration_HTML.html#16,16,1366,768,1366,768,8-30-2022,10-51-48,5,depth_duration_stimuli/002445_2014-06-28_20-32-16_260595134347_rgbf000029-resize_4/002445_2014-06-28_20-32-16_260595134347_rgbf000029-resize_4-target.png,250,2.5315,0,3891,249,feet,jsons/v1_VE250_randls_63.json,1018777,1217519,25,Man
5,715777,DepthScenes,duration_manipulation_targetAtFixation,jsons/v1_VE250_randls_63.json,http://54.235.29.9/FacialAge/BNav_EC2/DepthDuration/v2_depth_duration_MTurk/v2_DepthDuration_HTML.html#16,16,1366,768,1366,768,8-30-2022,10-51-48,6,depth_duration_stimuli/000780_2014-06-08_22-28-29_260595134347_rgbf000126-resize_1/000780_2014-06-08_22-28-29_260595134347_rgbf000126-resize_1-target.png,250,3.3825,3,3793,250,feet,jsons/v1_VE250_randls_63.json,1018777,1217519,25,Man
6,715777,DepthScenes,duration_manipulation_targetAtFixation,jsons/v1_VE250_randls_63.json,http://54.235.29.9/FacialAge/BNav_EC2/DepthDuration/v2_depth_duration_MTurk/v2_DepthDuration_HTML.html#16,16,1366,768,1366,768,8-30-2022,10-51-48,7,depth_duration_stimuli/002988_2014-06-15_12-24-20_094959634447_rgbf000150-resize_1/002988_2014-06-15_12-24-20_094959634447_rgbf000150-resize_1-target.png,250,4.7669999999999995,5,3531,250,feet,jsons/v1_VE250_randls_63.json,1018777,1217519,25,Man
7,715777,DepthScenes,duration_manipulation_targetAtFixation,jsons/v1_VE250_randls_63.json,http://54.235.29.9/FacialAge/BNav_EC2/DepthDuration/v2_depth_duration_MTurk/v2_DepthDuration_HTML.html#16,16,1366,768,1366,768,8-30-2022,10-51-48,8,depth_duration_stimuli/001052_2014-06-08_18-24-54_260595134347_rgbf000130-resize_1/001052_2014-06-08_18-24-54_260595134347_rgbf000130-resize_1-target.png,250,4.1045,4,4377,249,feet,jsons/v1_VE250_randls_63.json,1018777,1217519,25,Man
8,715777,DepthScenes,duration_manipulation_targetAtFixation,jsons/v1_VE250_randls_63.json,http://54.235.29.9/FacialAge/BNav_EC2/DepthDuration/v2_depth_duration_MTurk/v2_DepthDuration_HTML.html#16,16,1366,768,1366,768,8-30-2022,10-51-48,9,depth_duration_stimuli/001029_2014-06-08_13-17-57_260595134347_rgbf000065-resize_1/001029_2014-06-08_13-17-57_260595134347_rgbf000065-resize_1-target.png,250,3.0835,3,3890,250,feet,jsons/v1_VE250_randls_63.json,1018777,1217519,25,Man
9,715777,DepthScenes,duration_manipulation_targetAtFixation,jsons/v1_VE250_randls_63.json,http://54.235.29.9/FacialAge/BNav_EC2/DepthDuration/v2_depth_duration_MTurk/v2_DepthDuration_HTML.html#16,16,1366,768,1366,768,8-30-2022,10-51-48,10,depth_duration_stimuli/000677_2014-06-08_23-10-32_260595134347_rgbf000158-resize_6/000677_2014-06-08_23-10-32_260595134347_rgbf000158-resize_6-target.png,250,3.556,4,3634,250,feet,jsons/v1_VE250_randls_63.json,1018777,1217519,25,Man
10,715777,DepthScenes,duration_manipulation_targetAtFixation,jsons/v1_VE250_randls_63.json,http://54.235.29.9/FacialAge/BNav_EC2/DepthDuration/v2_depth_duration_MTurk/v2_DepthDuration_HTML.html#16,16,1366,768,1366,768,8-30-2022,10-51-48,11,depth_duration_stimuli/003492_2014-05-21_15-50-55_094959634447_rgbf000828-resize_1/003492_2014-05-21_15-50-55_094959634447_rgbf000828-resize_1-target.png,250,4.06875,6,3779,249,feet,jsons/v1_VE250_randls_63.json,1018777,1217519,25,Man
11,715777,DepthScenes,duration_manipulation_targetAtFixation,jsons/v1_VE250_randls_63.json,http://54.235.29.9/FacialAge/BNav_EC2/DepthDuration/v2_depth_duration_MTurk/v2_DepthDuration_HTML.html#16,16,1366,768,1366,768,8-30-2022,10-51-48,12,depth_duration_stimuli/002568_2014-06-24_13-59-21_094959634447_rgbf000062-resize_4/002568_2014-06-24_13-59-21_094959634447_rgbf000062-resize_4-target.png,250,3.015,4,3802,250,feet,jsons/v1_VE250_randls_63.json,1018777,1217519,25,Man
12,715777,DepthScenes,duration_manipulation_targetAtFixation,jsons/v1_VE250_randls_63.json,http://54.235.29.9/FacialAge/BNav_EC2/DepthDuration/v2_depth_duration_MTurk/v2_DepthDuration_HTML.html#16,16,1366,768,1366,768,8-30-2022,10-51-48,13,depth_duration_stimuli/000569_2014-06-09_22-51-47_260595134347_rgbf000141-resize_3/000569_2014-06-09_22-51-47_260595134347_rgbf000141-resize-original.jpg,250,4.512,0,3212,249,feet,jsons/v1_VE250_randls_63.json,1018777,1217519,25,Man
13,715777,DepthScenes,duration_manipulation_targetAtFixation,jsons/v1_VE250_randls_63.json,http://54.235.29.9/FacialAge/BNav_EC2/DepthDuration/v2_depth_duration_MTurk/v2_DepthDuration_HTML.html#16,16,1366,768,1366,768,8-30-2022,10-51-48,14,depth_duration_stimuli/000929_2014-06-09_16-33-19_260595134347_rgbf000139-resize_0/000929_2014-06-09_16-33-19_260595134347_rgbf000139-resize_0-target.png,250,2.8680000000000003,3,3994,249,feet,jsons/v1_VE250_randls_63.json,1018777,1217519,25,Man
14,715777,DepthScenes,duration_manipulation_targetAtFixation,jsons/v1_VE250_randls_63.json,http://54.235.29.9/FacialAge/BNav_EC2/DepthDuration/v2_depth_duration_MTurk/v2_DepthDuration_HTML.html#16,16,1366,768,1366,768,8-30-2022,10-51-48,15,depth_duration_stimuli/000457_2014-06-08_16-52-43_260595134347_rgbf000199-resize_1/000457_2014-06-08_16-52-43_260595134347_rgbf000199-resize_1-target.png,250,3.6489999999999996,5,3378,250,feet,jsons/v1_VE250_randls_63.json,1018777,1217519,25,Man
15,715777,DepthScenes,duration_manipulation_targetAtFixation,jsons/v1_VE250_randls_63.json,http://54.235.29.9/FacialAge/BNav_EC2/DepthDuration/v2_depth_duration_MTurk/v2_DepthDuration_HTML.html#16,16,1366,768,1366,768,8-30-2022,10-51-48,16,depth_duration_stimuli/000469_2014-06-09_19-42-10_260595134347_rgbf000081-resize_1/000469_2014-06-09_19-42-10_260595134347_rgbf000081-resize_1-target.png,250,1.652,4,4371,249,feet,jsons/v1_VE250_randls_63.json,1018777,1217519,25,Man
16,715777,DepthScenes,duration_manipulation_targetAtFixation,jsons/v1_VE250_randls_63.json,http://54.235.29.9/FacialAge/BNav_EC2/DepthDuration/v2_depth_duration_MTurk/v2_DepthDuration_HTML.html#16,16,1366,768,1366,768,8-30-2022,10-51-48,17,depth_duration_stimuli/000483_2014-06-09_20-41-45_260595134347_rgbf000116-resize_4/000483_2014-06-09_20-41-45_260595134347_rgbf000116-resize_4-target.png,250,1.337,2,2971,250,feet,jsons/v1_VE250_randls_63.json,1018777,1217519,25,Man
17,715777,DepthScenes,duration_manipulation_targetAtFixation,jsons/v1_VE250_randls_63.json,http://54.235.29.9/FacialAge/BNav_EC2/DepthDuration/v2_depth_duration_MTurk/v2_DepthDuration_HTML.html#16,16,1366,768,1366,768,8-30-2022,10-51-48,18,depth_duration_stimuli/002964_2014-06-08_17-46-11_094959634447_rgbf000091-resize_4/002964_2014-06-08_17-46-11_094959634447_rgbf000091-resize_4-target.png,250,1.6909999999999998,3,3393,250,feet,jsons/v1_VE250_randls_63.json,1018777,1217519,25,Man
18,715777,DepthScenes,duration_manipulation_targetAtFixation,jsons/v1_VE250_randls_63.json,http://54.235.29.9/FacialAge/BNav_EC2/DepthDuration/v2_depth_duration_MTurk/v2_DepthDuration_HTML.html#16,16,1366,768,1366,768,8-30-2022,10-51-48,19,depth_duration_stimuli/002136_2014-06-25_21-18-03_260595134347_rgbf000109-resize_3/002136_2014-06-25_21-18-03_260595134347_rgbf000109-resize_3-target.png,250,1.9569999999999999,3,3298,250,feet,jsons/v1_VE250_randls_63.json,1018777,1217519,25,Man
19,715777,DepthScenes,duration_manipulation_targetAtFixation,jsons/v1_VE250_randls_63.json,http://54.235.29.9/FacialAge/BNav_EC2/DepthDuration/v2_depth_duration_MTurk/v2_DepthDuration_HTML.html#16,16,1366,768,1366,768,8-30-2022,10-51-48,20,depth_duration_stimuli/000506_2014-06-08_23-21-00_260595134347_rgbf000070-resize_7/000506_2014-06-08_23-21-00_260595134347_rgbf000070-resize_7-target.png,250,4.0585,0,49936,249,feet,jsons/v1_VE250_randls_63.json,1018777,1217519,25,Man
20,715777,DepthScenes,duration_manipulation_targetAtFixation,jsons/v1_VE250_randls_63.json,http://54.235.29.9/FacialAge/BNav_EC2/DepthDuration/v2_depth_duration_MTurk/v2_DepthDuration_HTML.html#16,16,1366,768,1366,768,8-30-2022,10-51-48,21,depth_duration_stimuli/003079_2014-06-15_15-18-20_094959634447_rgbf000152-resize_8/003079_2014-06-15_15-18-20_094959634447_rgbf000152-resize_8-target.png,250,2.8775,6,3107,250,feet,jsons/v1_VE250_randls_63.json,1018777,1217519,25,Man
21,715777,DepthScenes,duration_manipulation_targetAtFixation,jsons/v1_VE250_randls_63.json,http://54.235.29.9/FacialAge/BNav_EC2/DepthDuration/v2_depth_duration_MTurk/v2_DepthDuration_HTML.html#16,16,1366,768,1366,768,8-30-2022,10-51-48,22,depth_duration_stimuli/001449_2014-06-19_17-01-27_260595134347_rgbf000116-resize_2/001449_2014-06-19_17-01-27_260595134347_rgbf000116-resize_2-target.png,250,3.452,3,4025,250,feet,jsons/v1_VE250_randls_63.json,1018777,1217519,25,Man
22,715777,DepthScenes,duration_manipulation_targetAtFixation,jsons/v1_VE250_randls_63.json,http://54.235.29.9/FacialAge/BNav_EC2/DepthDuration/v2_depth_duration_MTurk/v2_DepthDuration_HTML.html#16,16,1366,768,1366,768,8-30-2022,10-51-48,23,depth_duration_stimuli/001450_2014-06-19_17-02-03_260595134347_rgbf000203-resize_4/001450_2014-06-19_17-02-03_260595134347_rgbf000203-resize_4-target.png,250,4.0106666666667,4,3130,248,feet,jsons/v1_VE250_randls_63.json,1018777,1217519,25,Man
23,715777,DepthScenes,duration_manipulation_targetAtFixation,jsons/v1_VE250_randls_63.json,http://54.235.29.9/FacialAge/BNav_EC2/DepthDuration/v2_depth_duration_MTurk/v2_DepthDuration_HTML.html#16,16,1366,768,1366,768,8-30-2022,10-51-48,24,depth_duration_stimuli/001016_2014-06-09_16-16-10_260595134347_rgbf000112-resize_5/001016_2014-06-09_16-16-10_260595134347_rgbf000112-resize_5-target.png,250,1.6565,8,6002,250,feet,jsons/v1_VE250_randls_63.json,1018777,1217519,25,Man
24,715777,DepthScenes,duration_manipulation_targetAtFixation,jsons/v1_VE250_randls_63.json,http://54.235.29.9/FacialAge/BNav_EC2/DepthDuration/v2_depth_duration_MTurk/v2_DepthDuration_HTML.html#16,16,1366,768,1366,768,8-30-2022,10-51-48,25,depth_duration_stimuli/002340_2014-06-28_20-05-46_260595134347_rgbf000113-resize_0/002340_2014-06-28_20-05-46_260595134347_rgbf000113-resize_0-target.png,250,2.4735,4,2866,250,feet,jsons/v1_VE250_randls_63.json,1018777,1217519,25,Man
25,715777,DepthScenes,duration_manipulation_targetAtFixation,jsons/v1_VE250_randls_63.json,http://54.235.29.9/FacialAge/BNav_EC2/DepthDuration/v2_depth_duration_MTurk/v2_DepthDuration_HTML.html#16,16,1366,768,1366,768,8-30-2022,10-51-48,26,depth_duration_stimuli/002788_2014-06-22_19-36-03_094959634447_rgbf000088-resize_2/002788_2014-06-22_19-36-03_094959634447_rgbf000088-resize_2-target.png,250,1.6465,4,2850,250,feet,jsons/v1_VE250_randls_63.json,1018777,1217519,25,Man
26,715777,DepthScenes,duration_manipulation_targetAtFixation,jsons/v1_VE250_randls_63.json,http://54.235.29.9/FacialAge/BNav_EC2/DepthDuration/v2_depth_duration_MTurk/v2_DepthDuration_HTML.html#16,16,1366,768,1366,768,8-30-2022,10-51-48,27,depth_duration_stimuli/000749_2014-06-08_21-55-06_260595134347_rgbf000070-resize_2/000749_2014-06-08_21-55-06_260595134347_rgbf000070-resize_2-target.png,250,2.331,3,2603,251,feet,jsons/v1_VE250_randls_63.json,1018777,1217519,25,Man
27,715777,DepthScenes,duration_manipulation_targetAtFixation,jsons/v1_VE250_randls_63.json,http://54.235.29.9/FacialAge/BNav_EC2/DepthDuration/v2_depth_duration_MTurk/v2_DepthDuration_HTML.html#16,16,1366,768,1366,768,8-30-2022,10-51-48,28,depth_duration_stimuli/003534_2014-05-22_15-06-10_094959634447_rgbf000102-resize_4/003534_2014-05-22_15-06-10_094959634447_rgbf000102-resize_4-target.png,250,1.426,2,2721,250,feet,jsons/v1_VE250_randls_63.json,1018777,1217519,25,Man
28,715777,DepthScenes,duration_manipulation_targetAtFixation,jsons/v1_VE250_randls_63.json,http://54.235.29.9/FacialAge/BNav_EC2/DepthDuration/v2_depth_duration_MTurk/v2_DepthDuration_HTML.html#16,16,1366,768,1366,768,8-30-2022,10-51-48,29,depth_duration_stimuli/002637_2014-06-24_14-51-13_094959634447_rgbf000066-resize_4/002637_2014-06-24_14-51-13_094959634447_rgbf000066-resize_4-target.png,250,1.9955,3,2762,250,feet,jsons/v1_VE250_randls_63.json,1018777,1217519,25,Man
29,715777,DepthScenes,duration_manipulation_targetAtFixation,jsons/v1_VE250_randls_63.json,http://54.235.29.9/FacialAge/BNav_EC2/DepthDuration/v2_depth_duration_MTurk/v2_DepthDuration_HTML.html#16,16,1366,768,1366,768,8-30-2022,10-51-48,30,depth_duration_stimuli/000375_2014-06-08_11-17-29_260595134347_rgbf000133-resize_2/000375_2014-06-08_11-17-29_260595134347_rgbf000133-resize-original.jpg,250,4.718,0,2777,250,feet,jsons/v1_VE250_randls_63.json,1018777,1217519,25,Man
30,715777,DepthScenes,duration_manipulation_targetAtFixation,jsons/v1_VE250_randls_63.json,http://54.235.29.9/FacialAge/BNav_EC2/DepthDuration/v2_depth_duration_MTurk/v2_DepthDuration_HTML.html#16,16,1366,768,1366,768,8-30-2022,10-51-48,31,depth_duration_stimuli/001056_2014-06-08_18-46-44_260595134347_rgbf000068-resize_0/001056_2014-06-08_18-46-44_260595134347_rgbf000068-resize_0-target.png,250,2.6625,2,3442,250,feet,jsons/v1_VE250_randls_63.json,1018777,1217519,25,Man
31,715777,DepthScenes,duration_manipulation_targetAtFixation,jsons/v1_VE250_randls_63.json,http://54.235.29.9/FacialAge/BNav_EC2/DepthDuration/v2_depth_duration_MTurk/v2_DepthDuration_HTML.html#16,16,1366,768,1366,768,8-30-2022,10-51-48,32,depth_duration_stimuli/002199_2014-06-28_18-33-56_260595134347_rgbf000074-resize_0/002199_2014-06-28_18-33-56_260595134347_rgbf000074-resize_0-target.png,250,1.996,0,2562,249,feet,jsons/v1_VE250_randls_63.json,1018777,1217519,25,Man
32,715777,DepthScenes,duration_manipulation_targetAtFixation,jsons/v1_VE250_randls_63.json,http://54.235.29.9/FacialAge/BNav_EC2/DepthDuration/v2_depth_duration_MTurk/v2_DepthDuration_HTML.html#16,16,1366,768,1366,768,8-30-2022,10-51-48,33,depth_duration_stimuli/000522_2014-06-08_13-35-06_260595134347_rgbf000244-resize_1/000522_2014-06-08_13-35-06_260595134347_rgbf000244-resize_1-target.png,250,2.3715,3,3268,249,feet,jsons/v1_VE250_randls_63.json,1018777,1217519,25,Man
33,715777,DepthScenes,duration_manipulation_targetAtFixation,jsons/v1_VE250_randls_63.json,http://54.235.29.9/FacialAge/BNav_EC2/DepthDuration/v2_depth_duration_MTurk/v2_DepthDuration_HTML.html#16,16,1366,768,1366,768,8-30-2022,10-51-48,34,depth_duration_stimuli/002949_2014-06-26_15-57-42_094959634447_rgbf000079-resize_1/002949_2014-06-26_15-57-42_094959634447_rgbf000079-resize_1-target.png,250,1.8915,2,2641,249,feet,jsons/v1_VE250_randls_63.json,1018777,1217519,25,Man
34,715777,DepthScenes,duration_manipulation_targetAtFixation,jsons/v1_VE250_randls_63.json,http://54.235.29.9/FacialAge/BNav_EC2/DepthDuration/v2_depth_duration_MTurk/v2_DepthDuration_HTML.html#16,16,1366,768,1366,768,8-30-2022,10-51-48,35,depth_duration_stimuli/001066_2014-06-08_22-03-20_260595134347_rgbf000066-resize_4/001066_2014-06-08_22-03-20_260595134347_rgbf000066-resize_4-target.png,250,4.2330000000000005,4,2739,249,feet,jsons/v1_VE250_randls_63.json,1018777,1217519,25,Man
35,715777,DepthScenes,duration_manipulation_targetAtFixation,jsons/v1_VE250_randls_63.json,http://54.235.29.9/FacialAge/BNav_EC2/DepthDuration/v2_depth_duration_MTurk/v2_DepthDuration_HTML.html#16,16,1366,768,1366,768,8-30-2022,10-51-48,36,depth_duration_stimuli/000742_2014-06-08_18-48-09_260595134347_rgbf000164-resize_4/000742_2014-06-08_18-48-09_260595134347_rgbf000164-resize_4-target.png,250,4.632,5,3723,249,feet,jsons/v1_VE250_randls_63.json,1018777,1217519,25,Man
36,715777,DepthScenes,duration_manipulation_targetAtFixation,jsons/v1_VE250_randls_63.json,http://54.235.29.9/FacialAge/BNav_EC2/DepthDuration/v2_depth_duration_MTurk/v2_DepthDuration_HTML.html#16,16,1366,768,1366,768,8-30-2022,10-51-48,37,depth_duration_stimuli/001011_2014-06-08_23-18-54_260595134347_rgbf000044-resize_4/001011_2014-06-08_23-18-54_260595134347_rgbf000044-resize_4-target.png,250,2.4730000000000003,4,5377,250,feet,jsons/v1_VE250_randls_63.json,1018777,1217519,25,Man
37,715777,DepthScenes,duration_manipulation_targetAtFixation,jsons/v1_VE250_randls_63.json,http://54.235.29.9/FacialAge/BNav_EC2/DepthDuration/v2_depth_duration_MTurk/v2_DepthDuration_HTML.html#16,16,1366,768,1366,768,8-30-2022,10-51-48,38,depth_duration_stimuli/002875_2014-06-01_15-19-00_094959634447_rgbf000151-resize_1/002875_2014-06-01_15-19-00_094959634447_rgbf000151-resize_1-target.png,250,1.9675,5,3698,250,feet,jsons/v1_VE250_randls_63.json,1018777,1217519,25,Man
38,715777,DepthScenes,duration_manipulation_targetAtFixation,jsons/v1_VE250_randls_63.json,http://54.235.29.9/FacialAge/BNav_EC2/DepthDuration/v2_depth_duration_MTurk/v2_DepthDuration_HTML.html#16,16,1366,768,1366,768,8-30-2022,10-51-48,39,depth_duration_stimuli/000692_2014-06-08_13-09-42_260595134347_rgbf000199-resize_2/000692_2014-06-08_13-09-42_260595134347_rgbf000199-resize_2-target.png,250,3.661,4,3242,250,feet,jsons/v1_VE250_randls_63.json,1018777,1217519,25,Man
39,715777,DepthScenes,duration_manipulation_targetAtFixation,jsons/v1_VE250_randls_63.json,http://54.235.29.9/FacialAge/BNav_EC2/DepthDuration/v2_depth_duration_MTurk/v2_DepthDuration_HTML.html#16,16,1366,768,1366,768,8-30-2022,10-51-48,40,depth_duration_stimuli/001094_2014-06-15_17-36-00_260595134347_rgbf000205-resize_0/001094_2014-06-15_17-36-00_260595134347_rgbf000205-resize_0-target.png,250,4.2175,5,3099,250,feet,jsons/v1_VE250_randls_63.json,1018777,1217519,25,Man
40,715777,DepthScenes,duration_manipulation_targetAtFixation,jsons/v1_VE250_randls_63.json,http://54.235.29.9/FacialAge/BNav_EC2/DepthDuration/v2_depth_duration_MTurk/v2_DepthDuration_HTML.html#16,16,1366,768,1366,768,8-30-2022,10-51-48,41,depth_duration_stimuli/000682_2014-06-08_23-14-58_260595134347_rgbf000041-resize_5/000682_2014-06-08_23-14-58_260595134347_rgbf000041-resize_5-target.png,250,2.7239999999999998,3,2995,250,feet,jsons/v1_VE250_randls_63.json,1018777,1217519,25,Man
41,715777,DepthScenes,duration_manipulation_targetAtFixation,jsons/v1_VE250_randls_63.json,http://54.235.29.9/FacialAge/BNav_EC2/DepthDuration/v2_depth_duration_MTurk/v2_DepthDuration_HTML.html#16,16,1366,768,1366,768,8-30-2022,10-51-48,42,depth_duration_stimuli/001650_2014-06-20_12-09-00_260595134347_rgbf000087-resize_3/001650_2014-06-20_12-09-00_260595134347_rgbf000087-resize_3-target.png,250,1.9505,2,3170,249,feet,jsons/v1_VE250_randls_63.json,1018777,1217519,25,Man
42,715777,DepthScenes,duration_manipulation_targetAtFixation,jsons/v1_VE250_randls_63.json,http://54.235.29.9/FacialAge/BNav_EC2/DepthDuration/v2_depth_duration_MTurk/v2_DepthDuration_HTML.html#16,16,1366,768,1366,768,8-30-2022,10-51-48,43,depth_duration_stimuli/002043_2014-06-24_20-29-38_260595134347_rgbf000039-resize_4/002043_2014-06-24_20-29-38_260595134347_rgbf000039-resize_4-target.png,250,2.8435,4,3106,249,feet,jsons/v1_VE250_randls_63.json,1018777,1217519,25,Man
43,715777,DepthScenes,duration_manipulation_targetAtFixation,jsons/v1_VE250_randls_63.json,http://54.235.29.9/FacialAge/BNav_EC2/DepthDuration/v2_depth_duration_MTurk/v2_DepthDuration_HTML.html#16,16,1366,768,1366,768,8-30-2022,10-51-48,44,depth_duration_stimuli/003048_2014-06-15_13-49-43_094959634447_rgbf000150-resize_1/003048_2014-06-15_13-49-43_094959634447_rgbf000150-resize_1-target.png,250,4.0035,5,3098,249,feet,jsons/v1_VE250_randls_63.json,1018777,1217519,25,Man
44,715777,DepthScenes,duration_manipulation_targetAtFixation,jsons/v1_VE250_randls_63.json,http://54.235.29.9/FacialAge/BNav_EC2/DepthDuration/v2_depth_duration_MTurk/v2_DepthDuration_HTML.html#16,16,1366,768,1366,768,8-30-2022,10-51-48,45,depth_duration_stimuli/000787_2014-06-08_22-33-53_260595134347_rgbf000175-resize_1/000787_2014-06-08_22-33-53_260595134347_rgbf000175-resize-original.jpg,250,4.784,3,79809,250,feet,jsons/v1_VE250_randls_63.json,1018777,1217519,25,Man
45,715777,DepthScenes,duration_manipulation_targetAtFixation,jsons/v1_VE250_randls_63.json,http://54.235.29.9/FacialAge/BNav_EC2/DepthDuration/v2_depth_duration_MTurk/v2_DepthDuration_HTML.html#16,16,1366,768,1366,768,8-30-2022,10-51-48,46,depth_duration_stimuli/002549_2014-06-24_13-41-39_094959634447_rgbf000022-resize_3/002549_2014-06-24_13-41-39_094959634447_rgbf000022-resize_3-target.png,250,1.476,3,3064,250,feet,jsons/v1_VE250_randls_63.json,1018777,1217519,25,Man
46,715777,DepthScenes,duration_manipulation_targetAtFixation,jsons/v1_VE250_randls_63.json,http://54.235.29.9/FacialAge/BNav_EC2/DepthDuration/v2_depth_duration_MTurk/v2_DepthDuration_HTML.html#16,16,1366,768,1366,768,8-30-2022,10-51-48,47,depth_duration_stimuli/002750_2014-06-22_19-08-03_094959634447_rgbf000094-resize_4/002750_2014-06-22_19-08-03_094959634447_rgbf000094-resize_4-target.png,250,2.354,4,3730,249,feet,jsons/v1_VE250_randls_63.json,1018777,1217519,25,Man
47,715777,DepthScenes,duration_manipulation_targetAtFixation,jsons/v1_VE250_randls_63.json,http://54.235.29.9/FacialAge/BNav_EC2/DepthDuration/v2_depth_duration_MTurk/v2_DepthDuration_HTML.html#16,16,1366,768,1366,768,8-30-2022,10-51-48,48,depth_duration_stimuli/001808_2014-06-26_20-50-58_260595134347_rgbf000029-resize_1/001808_2014-06-26_20-50-58_260595134347_rgbf000029-resize_1-target.png,250,4.249,3,5010,250,feet,jsons/v1_VE250_randls_63.json,1018777,1217519,25,Man
48,715777,DepthScenes,duration_manipulation_targetAtFixation,jsons/v1_VE250_randls_63.json,http://54.235.29.9/FacialAge/BNav_EC2/DepthDuration/v2_depth_duration_MTurk/v2_DepthDuration_HTML.html#16,16,1366,768,1366,768,8-30-2022,10-51-48,49,depth_duration_stimuli/001815_2014-06-26_20-52-55_260595134347_rgbf000020-resize_0/001815_2014-06-26_20-52-55_260595134347_rgbf000020-resize_0-target.png,250,3.3865,4,3834,249,feet,jsons/v1_VE250_randls_63.json,1018777,1217519,25,Man
49,715777,DepthScenes,duration_manipulation_targetAtFixation,jsons/v1_VE250_randls_63.json,http://54.235.29.9/FacialAge/BNav_EC2/DepthDuration/v2_depth_duration_MTurk/v2_DepthDuration_HTML.html#16,16,1366,768,1366,768,8-30-2022,10-51-48,50,depth_duration_stimuli/001570_2014-06-20_17-21-09_260595134347_rgbf000135-resize_4/001570_2014-06-20_17-21-09_260595134347_rgbf000135-resize_4-target.png,250,4.467,5,2770,250,feet,jsons/v1_VE250_randls_63.json,1018777,1217519,25,Man
50,715777,DepthScenes,duration_manipulation_targetAtFixation,jsons/v1_VE250_randls_63.json,http://54.235.29.9/FacialAge/BNav_EC2/DepthDuration/v2_depth_duration_MTurk/v2_DepthDuration_HTML.html#16,16,1366,768,1366,768,8-30-2022,10-51-48,51,depth_duration_stimuli/001392_2014-06-19_16-07-59_260595134347_rgbf000046-resize_1/001392_2014-06-19_16-07-59_260595134347_rgbf000046-resize_1-target.png,250,4.135,5,2946,250,feet,jsons/v1_VE250_randls_63.json,1018777,1217519,25,Man
51,715777,DepthScenes,duration_manipulation_targetAtFixation,jsons/v1_VE250_randls_63.json,http://54.235.29.9/FacialAge/BNav_EC2/DepthDuration/v2_depth_duration_MTurk/v2_DepthDuration_HTML.html#16,16,1366,768,1366,768,8-30-2022,10-51-48,52,depth_duration_stimuli/000436_2014-06-09_22-25-11_260595134347_rgbf000137-resize_1/000436_2014-06-09_22-25-11_260595134347_rgbf000137-resize_1-target.png,250,4.0705,4,2698,250,feet,jsons/v1_VE250_randls_63.json,1018777,1217519,25,Man
52,715777,DepthScenes,duration_manipulation_targetAtFixation,jsons/v1_VE250_randls_63.json,http://54.235.29.9/FacialAge/BNav_EC2/DepthDuration/v2_depth_duration_MTurk/v2_DepthDuration_HTML.html#16,16,1366,768,1366,768,8-30-2022,10-51-48,53,depth_duration_stimuli/002444_2014-06-28_20-32-08_260595134347_rgbf000027-resize_0/002444_2014-06-28_20-32-08_260595134347_rgbf000027-resize_0-target.png,250,4.388999999999999,5,2594,249,feet,jsons/v1_VE250_randls_63.json,1018777,1217519,25,Man
53,715777,DepthScenes,duration_manipulation_targetAtFixation,jsons/v1_VE250_randls_63.json,http://54.235.29.9/FacialAge/BNav_EC2/DepthDuration/v2_depth_duration_MTurk/v2_DepthDuration_HTML.html#16,16,1366,768,1366,768,8-30-2022,10-51-48,54,depth_duration_stimuli/000642_2014-06-08_16-59-25_260595134347_rgbf000098-resize_2/000642_2014-06-08_16-59-25_260595134347_rgbf000098-resize_2-target.png,250,2.8815,2,3562,249,feet,jsons/v1_VE250_randls_63.json,1018777,1217519,25,Man
54,715777,DepthScenes,duration_manipulation_targetAtFixation,jsons/v1_VE250_randls_63.json,http://54.235.29.9/FacialAge/BNav_EC2/DepthDuration/v2_depth_duration_MTurk/v2_DepthDuration_HTML.html#16,16,1366,768,1366,768,8-30-2022,10-51-48,55,depth_duration_stimuli/002425_2014-06-28_20-27-29_260595134347_rgbf000031-resize_8/002425_2014-06-28_20-27-29_260595134347_rgbf000031-resize_8-target.png,250,3.8960000000000004,4,2889,249,feet,jsons/v1_VE250_randls_63.json,1018777,1217519,25,Man
55,715777,DepthScenes,duration_manipulation_targetAtFixation,jsons/v1_VE250_randls_63.json,http://54.235.29.9/FacialAge/BNav_EC2/DepthDuration/v2_depth_duration_MTurk/v2_DepthDuration_HTML.html#16,16,1366,768,1366,768,8-30-2022,10-51-48,56,depth_duration_stimuli/001150_2014-06-17_15-27-34_260595134347_rgbf000108-resize_2/001150_2014-06-17_15-27-34_260595134347_rgbf000108-resize_2-target.png,250,4.0325,3,2939,250,feet,jsons/v1_VE250_randls_63.json,1018777,1217519,25,Man
56,715777,DepthScenes,duration_manipulation_targetAtFixation,jsons/v1_VE250_randls_63.json,http://54.235.29.9/FacialAge/BNav_EC2/DepthDuration/v2_depth_duration_MTurk/v2_DepthDuration_HTML.html#16,16,1366,768,1366,768,8-30-2022,10-51-48,57,depth_duration_stimuli/000665_2014-06-09_20-42-35_260595134347_rgbf000110-resize_1/000665_2014-06-09_20-42-35_260595134347_rgbf000110-resize_1-target.png,250,3.057,3,6226,250,feet,jsons/v1_VE250_randls_63.json,1018777,1217519,25,Man
57,715777,DepthScenes,duration_manipulation_targetAtFixation,jsons/v1_VE250_randls_63.json,http://54.235.29.9/FacialAge/BNav_EC2/DepthDuration/v2_depth_duration_MTurk/v2_DepthDuration_HTML.html#16,16,1366,768,1366,768,8-30-2022,10-51-48,58,depth_duration_stimuli/002630_2014-06-24_14-47-50_094959634447_rgbf000055-resize_1/002630_2014-06-24_14-47-50_094959634447_rgbf000055-resize_1-target.png,250,3.0095,5,2715,250,feet,jsons/v1_VE250_randls_63.json,1018777,1217519,25,Man
58,715777,DepthScenes,duration_manipulation_targetAtFixation,jsons/v1_VE250_randls_63.json,http://54.235.29.9/FacialAge/BNav_EC2/DepthDuration/v2_depth_duration_MTurk/v2_DepthDuration_HTML.html#16,16,1366,768,1366,768,8-30-2022,10-51-48,59,depth_duration_stimuli/002758_2014-06-22_19-11-20_094959634447_rgbf000128-resize_1/002758_2014-06-22_19-11-20_094959634447_rgbf000128-resize_1-target.png,250,2.555,3,4434,251,feet,jsons/v1_VE250_randls_63.json,1018777,1217519,25,Man
59,715777,DepthScenes,duration_manipulation_targetAtFixation,jsons/v1_VE250_randls_63.json,http://54.235.29.9/FacialAge/BNav_EC2/DepthDuration/v2_depth_duration_MTurk/v2_DepthDuration_HTML.html#16,16,1366,768,1366,768,8-30-2022,10-51-48,60,depth_duration_stimuli/002375_2014-06-28_20-13-44_260595134347_rgbf000032-resize_1/002375_2014-06-28_20-13-44_260595134347_rgbf000032-resize_1-target.png,250,4.0175,0,118312,250,feet,jsons/v1_VE250_randls_63.json,1018777,1217519,25,Man
60,715777,DepthScenes,duration_manipulation_targetAtFixation,jsons/v1_VE250_randls_63.json,http://54.235.29.9/FacialAge/BNav_EC2/DepthDuration/v2_depth_duration_MTurk/v2_DepthDuration_HTML.html#16,16,1366,768,1366,768,8-30-2022,10-51-48,61,depth_duration_stimuli/002657_2014-06-13_15-29-54_094959634447_rgbf000150-resize_1/002657_2014-06-13_15-29-54_094959634447_rgbf000150-resize_1-target.png,250,4.919,0,74497,251,feet,jsons/v1_VE250_randls_63.json,1018777,1217519,25,Man
61,715777,DepthScenes,duration_manipulation_targetAtFixation,jsons/v1_VE250_randls_63.json,http://54.235.29.9/FacialAge/BNav_EC2/DepthDuration/v2_depth_duration_MTurk/v2_DepthDuration_HTML.html#16,16,1366,768,1366,768,8-30-2022,10-51-48,62,depth_duration_stimuli/001417_2014-06-19_16-25-36_260595134347_rgbf000115-resize_5/001417_2014-06-19_16-25-36_260595134347_rgbf000115-resize_5-target.png,250,4.6255,3,4619,250,feet,jsons/v1_VE250_randls_63.json,1018777,1217519,25,Man
62,715777,DepthScenes,duration_manipulation_targetAtFixation,jsons/v1_VE250_randls_63.json,http://54.235.29.9/FacialAge/BNav_EC2/DepthDuration/v2_depth_duration_MTurk/v2_DepthDuration_HTML.html#16,16,1366,768,1366,768,8-30-2022,10-51-48,63,depth_duration_stimuli/003081_2014-06-15_15-19-16_094959634447_rgbf000150-resize_1/003081_2014-06-15_15-19-16_094959634447_rgbf000150-resize_1-target.png,250,3.9125,4,2802,248,feet,jsons/v1_VE250_randls_63.json,1018777,1217519,25,Man
63,715777,DepthScenes,duration_manipulation_targetAtFixation,jsons/v1_VE250_randls_63.json,http://54.235.29.9/FacialAge/BNav_EC2/DepthDuration/v2_depth_duration_MTurk/v2_DepthDuration_HTML.html#16,16,1366,768,1366,768,8-30-2022,10-51-48,64,depth_duration_stimuli/000493_2014-06-09_21-01-18_260595134347_rgbf000196-resize_3/000493_2014-06-09_21-01-18_260595134347_rgbf000196-resize_3-target.png,250,3.44,3,3018,249,feet,jsons/v1_VE250_randls_63.json,1018777,1217519,25,Man
64,715777,DepthScenes,duration_manipulation_targetAtFixation,jsons/v1_VE250_randls_63.json,http://54.235.29.9/FacialAge/BNav_EC2/DepthDuration/v2_depth_duration_MTurk/v2_DepthDuration_HTML.html#16,16,1366,768,1366,768,8-30-2022,10-51-48,65,depth_duration_stimuli/000191_2014-05-12_17-07-38_260595134347_rgbf000199-resize_0/000191_2014-05-12_17-07-38_260595134347_rgbf000199-resize_0-target.png,250,3.7995,4,2874,249,feet,jsons/v1_VE250_randls_63.json,1018777,1217519,25,Man
65,715777,DepthScenes,duration_manipulation_targetAtFixation,jsons/v1_VE250_randls_63.json,http://54.235.29.9/FacialAge/BNav_EC2/DepthDuration/v2_depth_duration_MTurk/v2_DepthDuration_HTML.html#16,16,1366,768,1366,768,8-30-2022,10-51-48,66,depth_duration_stimuli/001222_2014-06-17_16-24-06_260595134347_rgbf000073-resize_0/001222_2014-06-17_16-24-06_260595134347_rgbf000073-resize-original.jpg,250,1.4385,0,3002,249,feet,jsons/v1_VE250_randls_63.json,1018777,1217519,25,Man
66,715777,DepthScenes,duration_manipulation_targetAtFixation,jsons/v1_VE250_randls_63.json,http://54.235.29.9/FacialAge/BNav_EC2/DepthDuration/v2_depth_duration_MTurk/v2_DepthDuration_HTML.html#16,16,1366,768,1366,768,8-30-2022,10-51-48,67,depth_duration_stimuli/002039_2014-06-24_20-22-38_260595134347_rgbf000084-resize_1/002039_2014-06-24_20-22-38_260595134347_rgbf000084-resize_1-target.png,250,4.408,3,3122,250,feet,jsons/v1_VE250_randls_63.json,1018777,1217519,25,Man
67,715777,DepthScenes,duration_manipulation_targetAtFixation,jsons/v1_VE250_randls_63.json,http://54.235.29.9/FacialAge/BNav_EC2/DepthDuration/v2_depth_duration_MTurk/v2_DepthDuration_HTML.html#16,16,1366,768,1366,768,8-30-2022,10-51-48,68,depth_duration_stimuli/002103_2014-06-25_20-00-40_260595134347_rgbf000049-resize_0/002103_2014-06-25_20-00-40_260595134347_rgbf000049-resize_0-target.png,250,4.105,4,3218,249,feet,jsons/v1_VE250_randls_63.json,1018777,1217519,25,Man
68,715777,DepthScenes,duration_manipulation_targetAtFixation,jsons/v1_VE250_randls_63.json,http://54.235.29.9/FacialAge/BNav_EC2/DepthDuration/v2_depth_duration_MTurk/v2_DepthDuration_HTML.html#16,16,1366,768,1366,768,8-30-2022,10-51-48,69,depth_duration_stimuli/003070_2014-06-15_14-58-27_094959634447_rgbf000150-resize_3/003070_2014-06-15_14-58-27_094959634447_rgbf000150-resize_3-target.png,250,2.9415,3,3050,249,feet,jsons/v1_VE250_randls_63.json,1018777,1217519,25,Man
69,715777,DepthScenes,duration_manipulation_targetAtFixation,jsons/v1_VE250_randls_63.json,http://54.235.29.9/FacialAge/BNav_EC2/DepthDuration/v2_depth_duration_MTurk/v2_DepthDuration_HTML.html#16,16,1366,768,1366,768,8-30-2022,10-51-48,70,depth_duration_stimuli/000943_2014-06-09_19-31-07_260595134347_rgbf000128-resize_1/000943_2014-06-09_19-31-07_260595134347_rgbf000128-resize_1-target.png,250,1.9765,5,3163,250,feet,jsons/v1_VE250_randls_63.json,1018777,1217519,25,Man
70,715777,DepthScenes,duration_manipulation_targetAtFixation,jsons/v1_VE250_randls_63.json,http://54.235.29.9/FacialAge/BNav_EC2/DepthDuration/v2_depth_duration_MTurk/v2_DepthDuration_HTML.html#16,16,1366,768,1366,768,8-30-2022,10-51-48,71,depth_duration_stimuli/001175_2014-06-17_15-45-55_260595134347_rgbf000129-resize_4/001175_2014-06-17_15-45-55_260595134347_rgbf000129-resize_4-target.png,250,4.255,4,2858,250,feet,jsons/v1_VE250_randls_63.json,1018777,1217519,25,Man
71,715777,DepthScenes,duration_manipulation_targetAtFixation,jsons/v1_VE250_randls_63.json,http://54.235.29.9/FacialAge/BNav_EC2/DepthDuration/v2_depth_duration_MTurk/v2_DepthDuration_HTML.html#16,16,1366,768,1366,768,8-30-2022,10-51-48,72,depth_duration_stimuli/003490_2014-05-21_15-50-11_094959634447_rgbf000101-resize_3/003490_2014-05-21_15-50-11_094959634447_rgbf000101-resize_3-target.png,250,3.6445,0,2706,250,feet,jsons/v1_VE250_randls_63.json,1018777,1217519,25,Man
72,715777,DepthScenes,duration_manipulation_targetAtFixation,jsons/v1_VE250_randls_63.json,http://54.235.29.9/FacialAge/BNav_EC2/DepthDuration/v2_depth_duration_MTurk/v2_DepthDuration_HTML.html#16,16,1366,768,1366,768,8-30-2022,10-51-48,73,depth_duration_stimuli/001133_2014-06-17_14-49-16_260595134347_rgbf000100-resize_0/001133_2014-06-17_14-49-16_260595134347_rgbf000100-resize_0-target.png,250,4.2115,3,5697,250,feet,jsons/v1_VE250_randls_63.json,1018777,1217519,25,Man
73,715777,DepthScenes,duration_manipulation_targetAtFixation,jsons/v1_VE250_randls_63.json,http://54.235.29.9/FacialAge/BNav_EC2/DepthDuration/v2_depth_duration_MTurk/v2_DepthDuration_HTML.html#16,16,1366,768,1366,768,8-30-2022,10-51-48,74,depth_duration_stimuli/001132_2014-06-17_14-48-54_260595134347_rgbf000100-resize_2/001132_2014-06-17_14-48-54_260595134347_rgbf000100-resize_2-target.png,250,3.753,0,3179,251,feet,jsons/v1_VE250_randls_63.json,1018777,1217519,25,Man
74,715777,DepthScenes,duration_manipulation_targetAtFixation,jsons/v1_VE250_randls_63.json,http://54.235.29.9/FacialAge/BNav_EC2/DepthDuration/v2_depth_duration_MTurk/v2_DepthDuration_HTML.html#16,16,1366,768,1366,768,8-30-2022,10-51-48,75,depth_duration_stimuli/000368_2014-06-09_15-53-01_260595134347_rgbf000155-resize_2/000368_2014-06-09_15-53-01_260595134347_rgbf000155-resize_2-target.png,250,2.4859999999999998,3,3251,251,feet,jsons/v1_VE250_randls_63.json,1018777,1217519,25,Man
75,715777,DepthScenes,duration_manipulation_targetAtFixation,jsons/v1_VE250_randls_63.json,http://54.235.29.9/FacialAge/BNav_EC2/DepthDuration/v2_depth_duration_MTurk/v2_DepthDuration_HTML.html#16,16,1366,768,1366,768,8-30-2022,10-51-48,76,depth_duration_stimuli/002678_2014-06-13_16-15-32_094959634447_rgbf000151-resize_6/002678_2014-06-13_16-15-32_094959634447_rgbf000151-resize_6-target.png,250,2.1830000000000003,4,2803,251,feet,jsons/v1_VE250_randls_63.json,1018777,1217519,25,Man
76,715777,DepthScenes,duration_manipulation_targetAtFixation,jsons/v1_VE250_randls_63.json,http://54.235.29.9/FacialAge/BNav_EC2/DepthDuration/v2_depth_duration_MTurk/v2_DepthDuration_HTML.html#16,16,1366,768,1366,768,8-30-2022,10-51-48,77,depth_duration_stimuli/000878_2014-06-08_22-52-45_260595134347_rgbf000045-resize_2/000878_2014-06-08_22-52-45_260595134347_rgbf000045-resize_2-target.png,250,2.092,4,2685,250,feet,jsons/v1_VE250_randls_63.json,1018777,1217519,25,Man
77,715777,DepthScenes,duration_manipulation_targetAtFixation,jsons/v1_VE250_randls_63.json,http://54.235.29.9/FacialAge/BNav_EC2/DepthDuration/v2_depth_duration_MTurk/v2_DepthDuration_HTML.html#16,16,1366,768,1366,768,8-30-2022,10-51-48,78,depth_duration_stimuli/002953_2014-06-08_17-32-18_094959634447_rgbf000059-resize_5/002953_2014-06-08_17-32-18_094959634447_rgbf000059-resize_5-target.png,250,1.551,3,3928,249,feet,jsons/v1_VE250_randls_63.json,1018777,1217519,25,Man
78,715777,DepthScenes,duration_manipulation_targetAtFixation,jsons/v1_VE250_randls_63.json,http://54.235.29.9/FacialAge/BNav_EC2/DepthDuration/v2_depth_duration_MTurk/v2_DepthDuration_HTML.html#16,16,1366,768,1366,768,8-30-2022,10-51-48,79,depth_duration_stimuli/002663_2014-06-13_15-50-26_094959634447_rgbf000075-resize_1/002663_2014-06-13_15-50-26_094959634447_rgbf000075-resize_1-target.png,250,4.7495,4,2762,249,feet,jsons/v1_VE250_randls_63.json,1018777,1217519,25,Man
79,715777,DepthScenes,duration_manipulation_targetAtFixation,jsons/v1_VE250_randls_63.json,http://54.235.29.9/FacialAge/BNav_EC2/DepthDuration/v2_depth_duration_MTurk/v2_DepthDuration_HTML.html#16,16,1366,768,1366,768,8-30-2022,10-51-48,80,depth_duration_stimuli/000409_2014-06-04_19-23-33_260595134347_rgbf000067-resize_0/000409_2014-06-04_19-23-33_260595134347_rgbf000067-resize_0-target.png,250,3.7335,3,25874,250,feet,jsons/v1_VE250_randls_63.json,1018777,1217519,25,Man
80,715777,DepthScenes,duration_manipulation_targetAtFixation,jsons/v1_VE250_randls_63.json,http://54.235.29.9/FacialAge/BNav_EC2/DepthDuration/v2_depth_duration_MTurk/v2_DepthDuration_HTML.html#16,16,1366,768,1366,768,8-30-2022,10-51-48,81,depth_duration_stimuli/002279_2014-06-28_18-55-32_260595134347_rgbf000040-resize_5/002279_2014-06-28_18-55-32_260595134347_rgbf000040-resize_5-target.png,250,1.5043333333333,1,2986,250,feet,jsons/v1_VE250_randls_63.json,1018777,1217519,25,Man
81,715777,DepthScenes,duration_manipulation_targetAtFixation,jsons/v1_VE250_randls_63.json,http://54.235.29.9/FacialAge/BNav_EC2/DepthDuration/v2_depth_duration_MTurk/v2_DepthDuration_HTML.html#16,16,1366,768,1366,768,8-30-2022,10-51-48,82,depth_duration_stimuli/000635_2014-06-08_16-38-42_260595134347_rgbf000106-resize_1/000635_2014-06-08_16-38-42_260595134347_rgbf000106-resize_1-target.png,250,2.074,3,2659,250,feet,jsons/v1_VE250_randls_63.json,1018777,1217519,25,Man
82,715777,DepthScenes,duration_manipulation_targetAtFixation,jsons/v1_VE250_randls_63.json,http://54.235.29.9/FacialAge/BNav_EC2/DepthDuration/v2_depth_duration_MTurk/v2_DepthDuration_HTML.html#16,16,1366,768,1366,768,8-30-2022,10-51-48,83,depth_duration_stimuli/001055_2014-06-08_18-45-35_260595134347_rgbf000111-resize_4/001055_2014-06-08_18-45-35_260595134347_rgbf000111-resize_4-target.png,250,2.4290000000000003,4,2860,249,feet,jsons/v1_VE250_randls_63.json,1018777,1217519,25,Man
83,715777,DepthScenes,duration_manipulation_targetAtFixation,jsons/v1_VE250_randls_63.json,http://54.235.29.9/FacialAge/BNav_EC2/DepthDuration/v2_depth_duration_MTurk/v2_DepthDuration_HTML.html#16,16,1366,768,1366,768,8-30-2022,10-51-48,84,depth_duration_stimuli/000549_2014-06-08_22-10-24_260595134347_rgbf000247-resize_3/000549_2014-06-08_22-10-24_260595134347_rgbf000247-resize_3-target.png,250,1.841,2,2808,248,feet,jsons/v1_VE250_randls_63.json,1018777,1217519,25,Man
84,715777,DepthScenes,duration_manipulation_targetAtFixation,jsons/v1_VE250_randls_63.json,http://54.235.29.9/FacialAge/BNav_EC2/DepthDuration/v2_depth_duration_MTurk/v2_DepthDuration_HTML.html#16,16,1366,768,1366,768,8-30-2022,10-51-48,85,depth_duration_stimuli/001244_2014-06-17_16-47-45_260595134347_rgbf000030-resize_4/001244_2014-06-17_16-47-45_260595134347_rgbf000030-resize_4-target.png,250,2.0425,3,2626,250,feet,jsons/v1_VE250_randls_63.json,1018777,1217519,25,Man
85,715777,DepthScenes,duration_manipulation_targetAtFixation,jsons/v1_VE250_randls_63.json,http://54.235.29.9/FacialAge/BNav_EC2/DepthDuration/v2_depth_duration_MTurk/v2_DepthDuration_HTML.html#16,16,1366,768,1366,768,8-30-2022,10-51-48,86,depth_duration_stimuli/003495_2014-05-21_16-01-51_094959634447_rgbf000100-resize_3/003495_2014-05-21_16-01-51_094959634447_rgbf000100-resize_3-target.png,250,1.6255,2,2570,250,feet,jsons/v1_VE250_randls_63.json,1018777,1217519,25,Man
86,715777,DepthScenes,duration_manipulation_targetAtFixation,jsons/v1_VE250_randls_63.json,http://54.235.29.9/FacialAge/BNav_EC2/DepthDuration/v2_depth_duration_MTurk/v2_DepthDuration_HTML.html#16,16,1366,768,1366,768,8-30-2022,10-51-48,87,depth_duration_stimuli/000009_2014-05-26_14-32-05_260595134347_rgbf000034-resize_3/000009_2014-05-26_14-32-05_260595134347_rgbf000034-resize_3-target.png,250,3.8715,2,2810,249,feet,jsons/v1_VE250_randls_63.json,1018777,1217519,25,Man
87,715777,DepthScenes,duration_manipulation_targetAtFixation,jsons/v1_VE250_randls_63.json,http://54.235.29.9/FacialAge/BNav_EC2/DepthDuration/v2_depth_duration_MTurk/v2_DepthDuration_HTML.html#16,16,1366,768,1366,768,8-30-2022,10-51-48,88,depth_duration_stimuli/001828_2014-06-26_21-40-03_260595134347_rgbf000024-resize_0/001828_2014-06-26_21-40-03_260595134347_rgbf000024-resize_0-target.png,250,4.8260000000000005,0,3626,250,feet,jsons/v1_VE250_randls_63.json,1018777,1217519,25,Man
88,715777,DepthScenes,duration_manipulation_targetAtFixation,jsons/v1_VE250_randls_63.json,http://54.235.29.9/FacialAge/BNav_EC2/DepthDuration/v2_depth_duration_MTurk/v2_DepthDuration_HTML.html#16,16,1366,768,1366,768,8-30-2022,10-51-48,89,depth_duration_stimuli/000917_2014-06-09_22-45-29_260595134347_rgbf000149-resize_3/000917_2014-06-09_22-45-29_260595134347_rgbf000149-resize_3-target.png,250,4.1865,3,2730,250,feet,jsons/v1_VE250_randls_63.json,1018777,1217519,25,Man
89,715777,DepthScenes,duration_manipulation_targetAtFixation,jsons/v1_VE250_randls_63.json,http://54.235.29.9/FacialAge/BNav_EC2/DepthDuration/v2_depth_duration_MTurk/v2_DepthDuration_HTML.html#16,16,1366,768,1366,768,8-30-2022,10-51-48,90,depth_duration_stimuli/002323_2014-06-28_20-01-54_260595134347_rgbf000051-resize_4/002323_2014-06-28_20-01-54_260595134347_rgbf000051-resize_4-target.png,250,3.7310000000000003,4,4411,251,feet,jsons/v1_VE250_randls_63.json,1018777,1217519,25,Man
90,715777,DepthScenes,duration_manipulation_targetAtFixation,jsons/v1_VE250_randls_63.json,http://54.235.29.9/FacialAge/BNav_EC2/DepthDuration/v2_depth_duration_MTurk/v2_DepthDuration_HTML.html#16,16,1366,768,1366,768,8-30-2022,10-51-48,91,depth_duration_stimuli/002725_2014-06-22_11-47-51_094959634447_rgbf000070-resize_1/002725_2014-06-22_11-47-51_094959634447_rgbf000070-resize_1-target.png,250,2.195,5,2524,250,feet,jsons/v1_VE250_randls_63.json,1018777,1217519,25,Man
91,715777,DepthScenes,duration_manipulation_targetAtFixation,jsons/v1_VE250_randls_63.json,http://54.235.29.9/FacialAge/BNav_EC2/DepthDuration/v2_depth_duration_MTurk/v2_DepthDuration_HTML.html#16,16,1366,768,1366,768,8-30-2022,10-51-48,92,depth_duration_stimuli/002344_2014-06-28_20-06-29_260595134347_rgbf000030-resize_1/002344_2014-06-28_20-06-29_260595134347_rgbf000030-resize_1-target.png,250,1.5795,2,2633,249,feet,jsons/v1_VE250_randls_63.json,1018777,1217519,25,Man
92,715777,DepthScenes,duration_manipulation_targetAtFixation,jsons/v1_VE250_randls_63.json,http://54.235.29.9/FacialAge/BNav_EC2/DepthDuration/v2_depth_duration_MTurk/v2_DepthDuration_HTML.html#16,16,1366,768,1366,768,8-30-2022,10-51-48,93,depth_duration_stimuli/001092_2014-06-15_17-34-58_260595134347_rgbf000171-resize_3/001092_2014-06-15_17-34-58_260595134347_rgbf000171-resize_3-target.png,250,2.6935,3,3450,250,feet,jsons/v1_VE250_randls_63.json,1018777,1217519,25,Man
93,715777,DepthScenes,duration_manipulation_targetAtFixation,jsons/v1_VE250_randls_63.json,http://54.235.29.9/FacialAge/BNav_EC2/DepthDuration/v2_depth_duration_MTurk/v2_DepthDuration_HTML.html#16,16,1366,768,1366,768,8-30-2022,10-51-48,94,depth_duration_stimuli/002545_2014-06-24_13-38-53_094959634447_rgbf000080-resize_4/002545_2014-06-24_13-38-53_094959634447_rgbf000080-resize_4-target.png,250,1.9205,3,4505,249,feet,jsons/v1_VE250_randls_63.json,1018777,1217519,25,Man
94,715777,DepthScenes,duration_manipulation_targetAtFixation,jsons/v1_VE250_randls_63.json,http://54.235.29.9/FacialAge/BNav_EC2/DepthDuration/v2_depth_duration_MTurk/v2_DepthDuration_HTML.html#16,16,1366,625,1366,768,8-30-2022,10-51-48,95,depth_duration_stimuli/002057_2014-06-24_21-00-13_260595134347_rgbf000120-resize_1/002057_2014-06-24_21-00-13_260595134347_rgbf000120-resize_1-target.png,250,2.967,0,17058,249,feet,jsons/v1_VE250_randls_63.json,1018777,1217519,25,Man
95,715777,DepthScenes,duration_manipulation_targetAtFixation,jsons/v1_VE250_randls_63.json,http://54.235.29.9/FacialAge/BNav_EC2/DepthDuration/v2_depth_duration_MTurk/v2_DepthDuration_HTML.html#16,16,1366,625,1366,768,8-30-2022,10-51-48,96,depth_duration_stimuli/000709_2014-06-08_13-51-55_260595134347_rgbf000068-resize_3/000709_2014-06-08_13-51-55_260595134347_rgbf000068-resize_3-target.png,250,1.8030000000000002,3,4939,249,feet,jsons/v1_VE250_randls_63.json,1018777,1217519,25,Man
96,715777,DepthScenes,duration_manipulation_targetAtFixation,jsons/v1_VE250_randls_63.json,http://54.235.29.9/FacialAge/BNav_EC2/DepthDuration/v2_depth_duration_MTurk/v2_DepthDuration_HTML.html#16,16,1366,625,1366,768,8-30-2022,10-51-48,97,depth_duration_stimuli/001158_2014-06-17_15-32-16_260595134347_rgbf000138-resize_2/001158_2014-06-17_15-32-16_260595134347_rgbf000138-resize_2-target.png,250,4.5315,4,3322,248,feet,jsons/v1_VE250_randls_63.json,1018777,1217519,25,Man
97,715777,DepthScenes,duration_manipulation_targetAtFixation,jsons/v1_VE250_randls_63.json,http://54.235.29.9/FacialAge/BNav_EC2/DepthDuration/v2_depth_duration_MTurk/v2_DepthDuration_HTML.html#16,16,1366,625,1366,768,8-30-2022,10-51-48,98,depth_duration_stimuli/000556_2014-06-09_22-42-56_260595134347_rgbf000214-resize_1/000556_2014-06-09_22-42-56_260595134347_rgbf000214-resize_1-target.png,250,4.8415,2,2786,249,feet,jsons/v1_VE250_randls_63.json,1018777,1217519,25,Man
98,715777,DepthScenes,duration_manipulation_targetAtFixation,jsons/v1_VE250_randls_63.json,http://54.235.29.9/FacialAge/BNav_EC2/DepthDuration/v2_depth_duration_MTurk/v2_DepthDuration_HTML.html#16,16,1366,625,1366,768,8-30-2022,10-51-48,99,depth_duration_stimuli/001540_2014-06-20_17-01-05_260595134347_rgbf000086-resize_2/001540_2014-06-20_17-01-05_260595134347_rgbf000086-resize-original.jpg,250,1.459,0,3130,249,feet,jsons/v1_VE250_randls_63.json,1018777,1217519,25,Man
99,715777,DepthScenes,duration_manipulation_targetAtFixation,jsons/v1_VE250_randls_63.json,http://54.235.29.9/FacialAge/BNav_EC2/DepthDuration/v2_depth_duration_MTurk/v2_DepthDuration_HTML.html#16,16,1366,625,1366,768,8-30-2022,10-51-48,100,depth_duration_stimuli/001199_2014-06-17_16-03-48_260595134347_rgbf000077-resize_0/001199_2014-06-17_16-03-48_260595134347_rgbf000077-resize_0-target.png,250,3.4375,2,2930,249,feet,jsons/v1_VE250_randls_63.json,1018777,1217519,25,Man
100,715777,DepthScenes,duration_manipulation_targetAtFixation,jsons/v1_VE250_randls_63.json,http://54.235.29.9/FacialAge/BNav_EC2/DepthDuration/v2_depth_duration_MTurk/v2_DepthDuration_HTML.html#16,16,1366,625,1366,768,8-30-2022,10-51-48,101,depth_duration_stimuli/000502_2014-06-08_23-02-32_260595134347_rgbf000063-resize_4/000502_2014-06-08_23-02-32_260595134347_rgbf000063-resize_4-target.png,250,2.431,3,2690,249,feet,jsons/v1_VE250_randls_63.json,1018777,1217519,25,Man
101,715777,DepthScenes,duration_manipulation_targetAtFixation,jsons/v1_VE250_randls_63.json,http://54.235.29.9/FacialAge/BNav_EC2/DepthDuration/v2_depth_duration_MTurk/v2_DepthDuration_HTML.html#16,16,1366,625,1366,768,8-30-2022,10-51-48,102,depth_duration_stimuli/001555_2014-06-20_17-12-10_260595134347_rgbf000065-resize_4/001555_2014-06-20_17-12-10_260595134347_rgbf000065-resize_4-target.png,250,1.633,4,4683,249,feet,jsons/v1_VE250_randls_63.json,1018777,1217519,25,Man
102,715777,DepthScenes,duration_manipulation_targetAtFixation,jsons/v1_VE250_randls_63.json,http://54.235.29.9/FacialAge/BNav_EC2/DepthDuration/v2_depth_duration_MTurk/v2_DepthDuration_HTML.html#16,16,1366,625,1366,768,8-30-2022,10-51-48,103,depth_duration_stimuli/000103_2014-05-14_22-01-17_260595134347_rgbf000152-resize_5/000103_2014-05-14_22-01-17_260595134347_rgbf000152-resize_5-target.png,250,1.993,3,2835,251,feet,jsons/v1_VE250_randls_63.json,1018777,1217519,25,Man
103,715777,DepthScenes,duration_manipulation_targetAtFixation,jsons/v1_VE250_randls_63.json,http://54.235.29.9/FacialAge/BNav_EC2/DepthDuration/v2_depth_duration_MTurk/v2_DepthDuration_HTML.html#16,16,1366,625,1366,768,8-30-2022,10-51-48,104,depth_duration_stimuli/002153_2014-06-25_21-27-18_260595134347_rgbf000038-resize_5/002153_2014-06-25_21-27-18_260595134347_rgbf000038-resize_5-target.png,250,2.505,2,3508,250,feet,jsons/v1_VE250_randls_63.json,1018777,1217519,25,Man
104,715777,DepthScenes,duration_manipulation_targetAtFixation,jsons/v1_VE250_randls_63.json,http://54.235.29.9/FacialAge/BNav_EC2/DepthDuration/v2_depth_duration_MTurk/v2_DepthDuration_HTML.html#16,16,1366,625,1366,768,8-30-2022,10-51-48,105,depth_duration_stimuli/002660_2014-06-13_15-44-18_094959634447_rgbf001878-resize_2/002660_2014-06-13_15-44-18_094959634447_rgbf001878-resize_2-target.png,250,3.576,3,3304,248,feet,jsons/v1_VE250_randls_63.json,1018777,1217519,25,Man
105,715777,DepthScenes,duration_manipulation_targetAtFixation,jsons/v1_VE250_randls_63.json,http://54.235.29.9/FacialAge/BNav_EC2/DepthDuration/v2_depth_duration_MTurk/v2_DepthDuration_HTML.html#16,16,1366,625,1366,768,8-30-2022,10-51-48,106,depth_duration_stimuli/002272_2014-06-28_18-53-56_260595134347_rgbf000067-resize_2/002272_2014-06-28_18-53-56_260595134347_rgbf000067-resize_2-target.png,250,1.138,4,4265,249,feet,jsons/v1_VE250_randls_63.json,1018777,1217519,25,Man
106,715777,DepthScenes,duration_manipulation_targetAtFixation,jsons/v1_VE250_randls_63.json,http://54.235.29.9/FacialAge/BNav_EC2/DepthDuration/v2_depth_duration_MTurk/v2_DepthDuration_HTML.html#16,16,1366,625,1366,768,8-30-2022,10-51-48,107,depth_duration_stimuli/001571_2014-06-20_17-21-32_260595134347_rgbf000089-resize_1/001571_2014-06-20_17-21-32_260595134347_rgbf000089-resize_1-target.png,250,1.86,3,2354,249,feet,jsons/v1_VE250_randls_63.json,1018777,1217519,25,Man
107,715777,DepthScenes,duration_manipulation_targetAtFixation,jsons/v1_VE250_randls_63.json,http://54.235.29.9/FacialAge/BNav_EC2/DepthDuration/v2_depth_duration_MTurk/v2_DepthDuration_HTML.html#16,16,1366,625,1366,768,8-30-2022,10-51-48,108,depth_duration_stimuli/000736_2014-06-08_18-24-15_260595134347_rgbf000206-resize_3/000736_2014-06-08_18-24-15_260595134347_rgbf000206-resize_3-target.png,250,3.515,3,6547,249,feet,jsons/v1_VE250_randls_63.json,1018777,1217519,25,Man
108,715777,DepthScenes,duration_manipulation_targetAtFixation,jsons/v1_VE250_randls_63.json,http://54.235.29.9/FacialAge/BNav_EC2/DepthDuration/v2_depth_duration_MTurk/v2_DepthDuration_HTML.html#16,16,1366,625,1366,768,8-30-2022,10-51-48,109,depth_duration_stimuli/000137_2014-05-20_17-04-49_260595134347_rgbf000120-resize_1/000137_2014-05-20_17-04-49_260595134347_rgbf000120-resize_1-target.png,250,3.786,4,2816,250,feet,jsons/v1_VE250_randls_63.json,1018777,1217519,25,Man
109,715777,DepthScenes,duration_manipulation_targetAtFixation,jsons/v1_VE250_randls_63.json,http://54.235.29.9/FacialAge/BNav_EC2/DepthDuration/v2_depth_duration_MTurk/v2_DepthDuration_HTML.html#16,16,1366,625,1366,768,8-30-2022,10-51-48,110,depth_duration_stimuli/000758_2014-06-08_22-05-08_260595134347_rgbf000085-resize_0/000758_2014-06-08_22-05-08_260595134347_rgbf000085-resize_0-target.png,250,3.3810000000000002,3,4275,250,feet,jsons/v1_VE250_randls_63.json,1018777,1217519,25,Man
110,715777,DepthScenes,duration_manipulation_targetAtFixation,jsons/v1_VE250_randls_63.json,http://54.235.29.9/FacialAge/BNav_EC2/DepthDuration/v2_depth_duration_MTurk/v2_DepthDuration_HTML.html#16,16,1366,625,1366,768,8-30-2022,10-51-48,111,depth_duration_stimuli/000854_2014-06-09_19-43-13_260595134347_rgbf000066-resize_0/000854_2014-06-09_19-43-13_260595134347_rgbf000066-resize_0-target.png,250,3.068,4,2850,248,feet,jsons/v1_VE250_randls_63.json,1018777,1217519,25,Man
111,715777,DepthScenes,duration_manipulation_targetAtFixation,jsons/v1_VE250_randls_63.json,http://54.235.29.9/FacialAge/BNav_EC2/DepthDuration/v2_depth_duration_MTurk/v2_DepthDuration_HTML.html#16,16,1366,625,1366,768,8-30-2022,10-51-48,112,depth_duration_stimuli/002118_2014-06-25_20-32-08_260595134347_rgbf000078-resize_1/002118_2014-06-25_20-32-08_260595134347_rgbf000078-resize_1-target.png,250,2.6460000000000004,3,2331,248,feet,jsons/v1_VE250_randls_63.json,1018777,1217519,25,Man
112,715777,DepthScenes,duration_manipulation_targetAtFixation,jsons/v1_VE250_randls_63.json,http://54.235.29.9/FacialAge/BNav_EC2/DepthDuration/v2_depth_duration_MTurk/v2_DepthDuration_HTML.html#16,16,1366,625,1366,768,8-30-2022,10-51-48,113,depth_duration_stimuli/001516_2014-06-20_16-25-09_260595134347_rgbf000076-resize_2/001516_2014-06-20_16-25-09_260595134347_rgbf000076-resize_2-target.png,250,1.7445,4,3883,249,feet,jsons/v1_VE250_randls_63.json,1018777,1217519,25,Man
113,715777,DepthScenes,duration_manipulation_targetAtFixation,jsons/v1_VE250_randls_63.json,http://54.235.29.9/FacialAge/BNav_EC2/DepthDuration/v2_depth_duration_MTurk/v2_DepthDuration_HTML.html#16,16,1366,625,1366,768,8-30-2022,10-51-48,114,depth_duration_stimuli/000788_2014-06-08_22-34-36_260595134347_rgbf000131-resize_1/000788_2014-06-08_22-34-36_260595134347_rgbf000131-resize_1-target.png,250,3.359,5,6483,250,feet,jsons/v1_VE250_randls_63.json,1018777,1217519,25,Man
114,715777,DepthScenes,duration_manipulation_targetAtFixation,jsons/v1_VE250_randls_63.json,http://54.235.29.9/FacialAge/BNav_EC2/DepthDuration/v2_depth_duration_MTurk/v2_DepthDuration_HTML.html#16,16,1366,625,1366,768,8-30-2022,10-51-48,115,depth_duration_stimuli/001235_2014-06-17_16-37-36_260595134347_rgbf000084-resize_4/001235_2014-06-17_16-37-36_260595134347_rgbf000084-resize_4-target.png,250,3.6605,3,3954,249,feet,jsons/v1_VE250_randls_63.json,1018777,1217519,25,Man
115,715777,DepthScenes,duration_manipulation_targetAtFixation,jsons/v1_VE250_randls_63.json,http://54.235.29.9/FacialAge/BNav_EC2/DepthDuration/v2_depth_duration_MTurk/v2_DepthDuration_HTML.html#16,16,1366,625,1366,768,8-30-2022,10-51-48,116,depth_duration_stimuli/001170_2014-06-17_15-43-44_260595134347_rgbf000096-resize_6/001170_2014-06-17_15-43-44_260595134347_rgbf000096-resize-original.jpg,250,1.1909999999999998,0,2361,249,feet,jsons/v1_VE250_randls_63.json,1018777,1217519,25,Man
116,715777,DepthScenes,duration_manipulation_targetAtFixation,jsons/v1_VE250_randls_63.json,http://54.235.29.9/FacialAge/BNav_EC2/DepthDuration/v2_depth_duration_MTurk/v2_DepthDuration_HTML.html#16,16,1366,625,1366,768,8-30-2022,10-51-48,117,depth_duration_stimuli/001059_2014-06-08_21-53-27_260595134347_rgbf000061-resize_4/001059_2014-06-08_21-53-27_260595134347_rgbf000061-resize_4-target.png,250,2.4185,3,2810,249,feet,jsons/v1_VE250_randls_63.json,1018777,1217519,25,Man
117,715777,DepthScenes,duration_manipulation_targetAtFixation,jsons/v1_VE250_randls_63.json,http://54.235.29.9/FacialAge/BNav_EC2/DepthDuration/v2_depth_duration_MTurk/v2_DepthDuration_HTML.html#16,16,1366,625,1366,768,8-30-2022,10-51-48,118,depth_duration_stimuli/001032_2014-06-08_13-23-17_260595134347_rgbf000021-resize_3/001032_2014-06-08_13-23-17_260595134347_rgbf000021-resize_3-target.png,250,3.2725,4,2482,250,feet,jsons/v1_VE250_randls_63.json,1018777,1217519,25,Man
118,715777,DepthScenes,duration_manipulation_targetAtFixation,jsons/v1_VE250_randls_63.json,http://54.235.29.9/FacialAge/BNav_EC2/DepthDuration/v2_depth_duration_MTurk/v2_DepthDuration_HTML.html#16,16,1366,625,1366,768,8-30-2022,10-51-48,119,depth_duration_stimuli/002784_2014-06-22_19-26-30_094959634447_rgbf000083-resize_3/002784_2014-06-22_19-26-30_094959634447_rgbf000083-resize_3-target.png,250,1.8046666666667,2,3570,250,feet,jsons/v1_VE250_randls_63.json,1018777,1217519,25,Man
119,715777,DepthScenes,duration_manipulation_targetAtFixation,jsons/v1_VE250_randls_63.json,http://54.235.29.9/FacialAge/BNav_EC2/DepthDuration/v2_depth_duration_MTurk/v2_DepthDuration_HTML.html#16,16,1366,625,1366,768,8-30-2022,10-51-48,120,depth_duration_stimuli/001100_2014-06-15_17-46-26_260595134347_rgbf000225-resize_2/001100_2014-06-15_17-46-26_260595134347_rgbf000225-resize_2-target.png,250,2.24,2,8377,250,feet,jsons/v1_VE250_randls_63.json,1018777,1217519,25,Man
120,715777,DepthScenes,duration_manipulation_targetAtFixation,jsons/v1_VE250_randls_63.json,http://54.235.29.9/FacialAge/BNav_EC2/DepthDuration/v2_depth_duration_MTurk/v2_DepthDuration_HTML.html#16,16,1366,625,1366,768,8-30-2022,10-51-48,121,depth_duration_stimuli/001110_2014-06-15_17-25-28_260595134347_rgbf000150-resize_1/001110_2014-06-15_17-25-28_260595134347_rgbf000150-resize_1-target.png,250,1.7115,3,9987,250,feet,jsons/v1_VE250_randls_63.json,1018777,1217519,25,Man
121,715777,DepthScenes,duration_manipulation_targetAtFixation,jsons/v1_VE250_randls_63.json,http://54.235.29.9/FacialAge/BNav_EC2/DepthDuration/v2_depth_duration_MTurk/v2_DepthDuration_HTML.html#16,16,1366,625,1366,768,8-30-2022,10-51-48,122,depth_duration_stimuli/000927_2014-06-09_16-32-30_260595134347_rgbf000123-resize_3/000927_2014-06-09_16-32-30_260595134347_rgbf000123-resize_3-target.png,250,2.6785,3,2761,250,feet,jsons/v1_VE250_randls_63.json,1018777,1217519,25,Man
122,715777,DepthScenes,duration_manipulation_targetAtFixation,jsons/v1_VE250_randls_63.json,http://54.235.29.9/FacialAge/BNav_EC2/DepthDuration/v2_depth_duration_MTurk/v2_DepthDuration_HTML.html#16,16,1366,625,1366,768,8-30-2022,10-51-48,123,depth_duration_stimuli/002989_2014-06-15_12-25-03_094959634447_rgbf000150-resize_3/002989_2014-06-15_12-25-03_094959634447_rgbf000150-resize_3-target.png,250,4.1975,4,2490,251,feet,jsons/v1_VE250_randls_63.json,1018777,1217519,25,Man
123,715777,DepthScenes,duration_manipulation_targetAtFixation,jsons/v1_VE250_randls_63.json,http://54.235.29.9/FacialAge/BNav_EC2/DepthDuration/v2_depth_duration_MTurk/v2_DepthDuration_HTML.html#16,16,1366,625,1366,768,8-30-2022,10-51-48,124,depth_duration_stimuli/000866_2014-06-09_20-45-42_260595134347_rgbf000139-resize_1/000866_2014-06-09_20-45-42_260595134347_rgbf000139-resize_1-target.png,250,3.2155,3,3082,248,feet,jsons/v1_VE250_randls_63.json,1018777,1217519,25,Man
124,715777,DepthScenes,duration_manipulation_targetAtFixation,jsons/v1_VE250_randls_63.json,http://54.235.29.9/FacialAge/BNav_EC2/DepthDuration/v2_depth_duration_MTurk/v2_DepthDuration_HTML.html#16,16,1366,625,1366,768,8-30-2022,10-51-48,125,depth_duration_stimuli/001806_2014-06-26_20-50-20_260595134347_rgbf000091-resize_1/001806_2014-06-26_20-50-20_260595134347_rgbf000091-resize_1-target.png,250,2.7305,4,2897,248,feet,jsons/v1_VE250_randls_63.json,1018777,1217519,25,Man
125,715777,DepthScenes,duration_manipulation_targetAtFixation,jsons/v1_VE250_randls_63.json,http://54.235.29.9/FacialAge/BNav_EC2/DepthDuration/v2_depth_duration_MTurk/v2_DepthDuration_HTML.html#16,16,1366,625,1366,768,8-30-2022,10-51-48,126,depth_duration_stimuli/001617_2014-06-20_11-35-32_260595134347_rgbf000066-resize_1/001617_2014-06-20_11-35-32_260595134347_rgbf000066-resize_1-target.png,250,3.7910000000000004,3,3516,249,feet,jsons/v1_VE250_randls_63.json,1018777,1217519,25,Man
126,715777,DepthScenes,duration_manipulation_targetAtFixation,jsons/v1_VE250_randls_63.json,http://54.235.29.9/FacialAge/BNav_EC2/DepthDuration/v2_depth_duration_MTurk/v2_DepthDuration_HTML.html#16,16,1366,625,1366,768,8-30-2022,10-51-48,127,depth_duration_stimuli/000486_2014-06-09_20-47-20_260595134347_rgbf000143-resize_2/000486_2014-06-09_20-47-20_260595134347_rgbf000143-resize_2-target.png,250,4.8325,4,2433,250,feet,jsons/v1_VE250_randls_63.json,1018777,1217519,25,Man
127,715777,DepthScenes,duration_manipulation_targetAtFixation,jsons/v1_VE250_randls_63.json,http://54.235.29.9/FacialAge/BNav_EC2/DepthDuration/v2_depth_duration_MTurk/v2_DepthDuration_HTML.html#16,16,1366,625,1366,768,8-30-2022,10-51-48,128,depth_duration_stimuli/003083_2014-06-15_15-21-03_094959634447_rgbf000063-resize_1/003083_2014-06-15_15-21-03_094959634447_rgbf000063-resize_1-target.png,250,4.1405,5,2546,250,feet,jsons/v1_VE250_randls_63.json,1018777,1217519,25,Man
128,715777,DepthScenes,duration_manipulation_targetAtFixation,jsons/v1_VE250_randls_63.json,http://54.235.29.9/FacialAge/BNav_EC2/DepthDuration/v2_depth_duration_MTurk/v2_DepthDuration_HTML.html#16,16,1366,625,1366,768,8-30-2022,10-51-48,129,depth_duration_stimuli/002213_2014-06-28_18-37-58_260595134347_rgbf000055-resize_1/002213_2014-06-28_18-37-58_260595134347_rgbf000055-resize_1-target.png,250,3.62,5,2586,249,feet,jsons/v1_VE250_randls_63.json,1018777,1217519,25,Man
129,715777,DepthScenes,duration_manipulation_targetAtFixation,jsons/v1_VE250_randls_63.json,http://54.235.29.9/FacialAge/BNav_EC2/DepthDuration/v2_depth_duration_MTurk/v2_DepthDuration_HTML.html#16,16,1366,625,1366,768,8-30-2022,10-51-48,130,depth_duration_stimuli/000691_2014-06-08_13-08-50_260595134347_rgbf000132-resize_3/000691_2014-06-08_13-08-50_260595134347_rgbf000132-resize_3-target.png,250,4.1530000000000005,2,3818,250,feet,jsons/v1_VE250_randls_63.json,1018777,1217519,25,Man
130,715777,DepthScenes,duration_manipulation_targetAtFixation,jsons/v1_VE250_randls_63.json,http://54.235.29.9/FacialAge/BNav_EC2/DepthDuration/v2_depth_duration_MTurk/v2_DepthDuration_HTML.html#16,16,1366,625,1366,768,8-30-2022,10-51-48,131,depth_duration_stimuli/002905_2014-06-03_18-04-43_094959634447_rgbf000151-resize_2/002905_2014-06-03_18-04-43_094959634447_rgbf000151-resize_2-target.png,250,2.0295,5,2520,249,feet,jsons/v1_VE250_randls_63.json,1018777,1217519,25,Man
131,715777,DepthScenes,duration_manipulation_targetAtFixation,jsons/v1_VE250_randls_63.json,http://54.235.29.9/FacialAge/BNav_EC2/DepthDuration/v2_depth_duration_MTurk/v2_DepthDuration_HTML.html#16,16,1366,625,1366,768,8-30-2022,10-51-48,132,depth_duration_stimuli/003423_2014-05-21_10-23-26_094959634447_rgbf002665-resize_2/003423_2014-05-21_10-23-26_094959634447_rgbf002665-resize_2-target.png,250,3.2575,3,5002,249,feet,jsons/v1_VE250_randls_63.json,1018777,1217519,25,Man
132,715777,DepthScenes,duration_manipulation_targetAtFixation,jsons/v1_VE250_randls_63.json,http://54.235.29.9/FacialAge/BNav_EC2/DepthDuration/v2_depth_duration_MTurk/v2_DepthDuration_HTML.html#16,16,1366,625,1366,768,8-30-2022,10-51-48,133,depth_duration_stimuli/000773_2014-06-08_22-24-54_260595134347_rgbf000093-resize_1/000773_2014-06-08_22-24-54_260595134347_rgbf000093-resize_1-target.png,250,4.973,3,3442,250,feet,jsons/v1_VE250_randls_63.json,1018777,1217519,25,Man
133,715777,DepthScenes,duration_manipulation_targetAtFixation,jsons/v1_VE250_randls_63.json,http://54.235.29.9/FacialAge/BNav_EC2/DepthDuration/v2_depth_duration_MTurk/v2_DepthDuration_HTML.html#16,16,1366,625,1366,768,8-30-2022,10-51-48,134,depth_duration_stimuli/002414_2014-06-28_20-24-58_260595134347_rgbf000067-resize_4/002414_2014-06-28_20-24-58_260595134347_rgbf000067-resize_4-target.png,250,4.363,3,2850,249,feet,jsons/v1_VE250_randls_63.json,1018777,1217519,25,Man
134,715777,DepthScenes,duration_manipulation_targetAtFixation,jsons/v1_VE250_randls_63.json,http://54.235.29.9/FacialAge/BNav_EC2/DepthDuration/v2_depth_duration_MTurk/v2_DepthDuration_HTML.html#16,16,1366,625,1366,768,8-30-2022,10-51-48,135,depth_duration_stimuli/002072_2014-06-24_21-48-06_260595134347_rgbf000115-resize_0/002072_2014-06-24_21-48-06_260595134347_rgbf000115-resize-original.jpg,250,4.702,2,3322,249,feet,jsons/v1_VE250_randls_63.json,1018777,1217519,25,Man
135,715777,DepthScenes,duration_manipulation_targetAtFixation,jsons/v1_VE250_randls_63.json,http://54.235.29.9/FacialAge/BNav_EC2/DepthDuration/v2_depth_duration_MTurk/v2_DepthDuration_HTML.html#16,16,1366,768,1366,768,8-30-2022,10-51-48,136,depth_duration_stimuli/000810_2014-06-08_17-20-01_260595134347_rgbf000105-resize_0/000810_2014-06-08_17-20-01_260595134347_rgbf000105-resize_0-target.png,250,1.4865,3,36161,249,feet,jsons/v1_VE250_randls_63.json,1018777,1217519,25,Man
136,715777,DepthScenes,duration_manipulation_targetAtFixation,jsons/v1_VE250_randls_63.json,http://54.235.29.9/FacialAge/BNav_EC2/DepthDuration/v2_depth_duration_MTurk/v2_DepthDuration_HTML.html#16,16,1366,768,1366,768,8-30-2022,10-51-48,137,depth_duration_stimuli/001214_2014-06-17_16-13-55_260595134347_rgbf000111-resize_0/001214_2014-06-17_16-13-55_260595134347_rgbf000111-resize_0-target.png,250,2.6505,23,2689,249,feet,jsons/v1_VE250_randls_63.json,1018777,1217519,25,Man
137,715777,DepthScenes,duration_manipulation_targetAtFixation,jsons/v1_VE250_randls_63.json,http://54.235.29.9/FacialAge/BNav_EC2/DepthDuration/v2_depth_duration_MTurk/v2_DepthDuration_HTML.html#16,16,1366,768,1366,768,8-30-2022,10-51-48,138,depth_duration_stimuli/002763_2014-06-22_19-13-10_094959634447_rgbf000075-resize_4/002763_2014-06-22_19-13-10_094959634447_rgbf000075-resize_4-target.png,250,1.68375,0,3435,249,feet,jsons/v1_VE250_randls_63.json,1018777,1217519,25,Man
138,715777,DepthScenes,duration_manipulation_targetAtFixation,jsons/v1_VE250_randls_63.json,http://54.235.29.9/FacialAge/BNav_EC2/DepthDuration/v2_depth_duration_MTurk/v2_DepthDuration_HTML.html#16,16,1366,768,1366,768,8-30-2022,10-51-48,139,depth_duration_stimuli/002209_2014-06-28_18-36-10_260595134347_rgbf000051-resize_1/002209_2014-06-28_18-36-10_260595134347_rgbf000051-resize_1-target.png,250,2.057,2,2578,250,feet,jsons/v1_VE250_randls_63.json,1018777,1217519,25,Man
139,715777,DepthScenes,duration_manipulation_targetAtFixation,jsons/v1_VE250_randls_63.json,http://54.235.29.9/FacialAge/BNav_EC2/DepthDuration/v2_depth_duration_MTurk/v2_DepthDuration_HTML.html#16,16,1366,768,1366,768,8-30-2022,10-51-48,140,depth_duration_stimuli/002570_2014-06-24_13-59-54_094959634447_rgbf000059-resize_0/002570_2014-06-24_13-59-54_094959634447_rgbf000059-resize_0-target.png,250,4.037,3,4314,250,feet,jsons/v1_VE250_randls_63.json,1018777,1217519,25,Man
140,715777,DepthScenes,duration_manipulation_targetAtFixation,jsons/v1_VE250_randls_63.json,http://54.235.29.9/FacialAge/BNav_EC2/DepthDuration/v2_depth_duration_MTurk/v2_DepthDuration_HTML.html#16,16,1366,768,1366,768,8-30-2022,10-51-48,141,depth_duration_stimuli/002467_2014-06-28_20-38-07_260595134347_rgbf000026-resize_2/002467_2014-06-28_20-38-07_260595134347_rgbf000026-resize_2-target.png,250,4.742,3,2458,248,feet,jsons/v1_VE250_randls_63.json,1018777,1217519,25,Man
141,715777,DepthScenes,duration_manipulation_targetAtFixation,jsons/v1_VE250_randls_63.json,http://54.235.29.9/FacialAge/BNav_EC2/DepthDuration/v2_depth_duration_MTurk/v2_DepthDuration_HTML.html#16,16,1366,768,1366,768,8-30-2022,10-51-48,142,depth_duration_stimuli/001164_2014-06-17_15-35-46_260595134347_rgbf000085-resize_3/001164_2014-06-17_15-35-46_260595134347_rgbf000085-resize_3-target.png,250,2.354,2,2498,249,feet,jsons/v1_VE250_randls_63.json,1018777,1217519,25,Man
142,715777,DepthScenes,duration_manipulation_targetAtFixation,jsons/v1_VE250_randls_63.json,http://54.235.29.9/FacialAge/BNav_EC2/DepthDuration/v2_depth_duration_MTurk/v2_DepthDuration_HTML.html#16,16,1366,768,1366,768,8-30-2022,10-51-48,143,depth_duration_stimuli/001136_2014-06-17_15-19-41_260595134347_rgbf000076-resize_3/001136_2014-06-17_15-19-41_260595134347_rgbf000076-resize_3-target.png,250,1.8655,4,2827,249,feet,jsons/v1_VE250_randls_63.json,1018777,1217519,25,Man
143,715777,DepthScenes,duration_manipulation_targetAtFixation,jsons/v1_VE250_randls_63.json,http://54.235.29.9/FacialAge/BNav_EC2/DepthDuration/v2_depth_duration_MTurk/v2_DepthDuration_HTML.html#16,16,1366,768,1366,768,8-30-2022,10-51-48,144,depth_duration_stimuli/000447_2014-06-08_16-15-46_260595134347_rgbf000130-resize_1/000447_2014-06-08_16-15-46_260595134347_rgbf000130-resize_1-target.png,250,4.479,4,2482,249,feet,jsons/v1_VE250_randls_63.json,1018777,1217519,25,Man
144,715777,DepthScenes,duration_manipulation_targetAtFixation,jsons/v1_VE250_randls_63.json,http://54.235.29.9/FacialAge/BNav_EC2/DepthDuration/v2_depth_duration_MTurk/v2_DepthDuration_HTML.html#16,16,1366,768,1366,768,8-30-2022,10-51-48,145,depth_duration_stimuli/001447_2014-06-19_17-00-32_260595134347_rgbf000082-resize_5/001447_2014-06-19_17-00-32_260595134347_rgbf000082-resize_5-target.png,250,4.13775,3,3138,249,feet,jsons/v1_VE250_randls_63.json,1018777,1217519,25,Man
145,715777,DepthScenes,duration_manipulation_targetAtFixation,jsons/v1_VE250_randls_63.json,http://54.235.29.9/FacialAge/BNav_EC2/DepthDuration/v2_depth_duration_MTurk/v2_DepthDuration_HTML.html#16,16,1366,768,1366,768,8-30-2022,10-51-48,146,depth_duration_stimuli/001498_2014-06-19_17-45-14_260595134347_rgbf000129-resize_4/001498_2014-06-19_17-45-14_260595134347_rgbf000129-resize-original.jpg,250,1.4075,0,2372,249,feet,jsons/v1_VE250_randls_63.json,1018777,1217519,25,Man
146,715777,DepthScenes,duration_manipulation_targetAtFixation,jsons/v1_VE250_randls_63.json,http://54.235.29.9/FacialAge/BNav_EC2/DepthDuration/v2_depth_duration_MTurk/v2_DepthDuration_HTML.html#16,16,1366,768,1366,768,8-30-2022,10-51-48,147,depth_duration_stimuli/003621_2014-05-23_18-06-08_094959634447_rgbf000101-resize_1/003621_2014-05-23_18-06-08_094959634447_rgbf000101-resize_1-target.png,250,3.9835,0,2472,248,feet,jsons/v1_VE250_randls_63.json,1018777,1217519,25,Man
147,715777,DepthScenes,duration_manipulation_targetAtFixation,jsons/v1_VE250_randls_63.json,http://54.235.29.9/FacialAge/BNav_EC2/DepthDuration/v2_depth_duration_MTurk/v2_DepthDuration_HTML.html#16,16,1366,768,1366,768,8-30-2022,10-51-48,148,depth_duration_stimuli/001584_2014-06-20_11-07-43_260595134347_rgbf000002-resize_1/001584_2014-06-20_11-07-43_260595134347_rgbf000002-resize_1-target.png,250,3.53,3,4963,249,feet,jsons/v1_VE250_randls_63.json,1018777,1217519,25,Man
148,715777,DepthScenes,duration_manipulation_targetAtFixation,jsons/v1_VE250_randls_63.json,http://54.235.29.9/FacialAge/BNav_EC2/DepthDuration/v2_depth_duration_MTurk/v2_DepthDuration_HTML.html#16,16,1366,768,1366,768,8-30-2022,10-51-48,149,depth_duration_stimuli/002748_2014-06-22_19-07-22_094959634447_rgbf000078-resize_1/002748_2014-06-22_19-07-22_094959634447_rgbf000078-resize_1-target.png,250,4.6705,4,3137,248,feet,jsons/v1_VE250_randls_63.json,1018777,1217519,25,Man
149,715777,DepthScenes,duration_manipulation_targetAtFixation,jsons/v1_VE250_randls_63.json,http://54.235.29.9/FacialAge/BNav_EC2/DepthDuration/v2_depth_duration_MTurk/v2_DepthDuration_HTML.html#16,16,1366,768,1366,768,8-30-2022,10-51-48,150,depth_duration_stimuli/002995_2014-06-15_12-31-26_094959634447_rgbf000150-resize_1/002995_2014-06-15_12-31-26_094959634447_rgbf000150-resize_1-target.png,250,3.8360000000000003,3,2379,249,feet,jsons/v1_VE250_randls_63.json,1018777,1217519,25,Man
150,715777,DepthScenes,duration_manipulation_targetAtFixation,jsons/v1_VE250_randls_63.json,http://54.235.29.9/FacialAge/BNav_EC2/DepthDuration/v2_depth_duration_MTurk/v2_DepthDuration_HTML.html#16,16,1366,768,1366,768,8-30-2022,10-51-48,151,depth_duration_stimuli/001167_2014-06-17_15-38-07_260595134347_rgbf000108-resize_0/001167_2014-06-17_15-38-07_260595134347_rgbf000108-resize_0-target.png,250,1.8505,4,3931,249,feet,jsons/v1_VE250_randls_63.json,1018777,1217519,25,Man
151,715777,DepthScenes,duration_manipulation_targetAtFixation,jsons/v1_VE250_randls_63.json,http://54.235.29.9/FacialAge/BNav_EC2/DepthDuration/v2_depth_duration_MTurk/v2_DepthDuration_HTML.html#16,16,1366,768,1366,768,8-30-2022,10-51-48,152,depth_duration_stimuli/003587_2014-05-23_16-48-02_094959634447_rgbf002384-resize_2/003587_2014-05-23_16-48-02_094959634447_rgbf002384-resize_2-target.png,250,1.357,3,3210,250,feet,jsons/v1_VE250_randls_63.json,1018777,1217519,25,Man
152,715777,DepthScenes,duration_manipulation_targetAtFixation,jsons/v1_VE250_randls_63.json,http://54.235.29.9/FacialAge/BNav_EC2/DepthDuration/v2_depth_duration_MTurk/v2_DepthDuration_HTML.html#16,16,1366,768,1366,768,8-30-2022,10-51-48,153,depth_duration_stimuli/000906_2014-06-08_13-35-43_260595134347_rgbf000155-resize_1/000906_2014-06-08_13-35-43_260595134347_rgbf000155-resize_1-target.png,250,2.8489999999999998,3,6401,250,feet,jsons/v1_VE250_randls_63.json,1018777,1217519,25,Man
153,715777,DepthScenes,duration_manipulation_targetAtFixation,jsons/v1_VE250_randls_63.json,http://54.235.29.9/FacialAge/BNav_EC2/DepthDuration/v2_depth_duration_MTurk/v2_DepthDuration_HTML.html#16,16,1366,768,1366,768,8-30-2022,10-51-48,154,depth_duration_stimuli/002805_2014-06-22_19-54-03_094959634447_rgbf000079-resize_1/002805_2014-06-22_19-54-03_094959634447_rgbf000079-resize_1-target.png,250,3.1439999999999997,4,4218,250,feet,jsons/v1_VE250_randls_63.json,1018777,1217519,25,Man
154,715777,DepthScenes,duration_manipulation_targetAtFixation,jsons/v1_VE250_randls_63.json,http://54.235.29.9/FacialAge/BNav_EC2/DepthDuration/v2_depth_duration_MTurk/v2_DepthDuration_HTML.html#16,16,1366,768,1366,768,8-30-2022,10-51-48,155,depth_duration_stimuli/002600_2014-06-24_14-27-04_094959634447_rgbf000074-resize_2/002600_2014-06-24_14-27-04_094959634447_rgbf000074-resize_2-target.png,250,2.7575,3,2410,249,feet,jsons/v1_VE250_randls_63.json,1018777,1217519,25,Man
155,715777,DepthScenes,duration_manipulation_targetAtFixation,jsons/v1_VE250_randls_63.json,http://54.235.29.9/FacialAge/BNav_EC2/DepthDuration/v2_depth_duration_MTurk/v2_DepthDuration_HTML.html#16,16,1366,768,1366,768,8-30-2022,10-51-48,156,depth_duration_stimuli/003228_2014-05-14_13-42-35_094959634447_rgbf000101-resize_1/003228_2014-05-14_13-42-35_094959634447_rgbf000101-resize_1-target.png,250,1.9680000000000002,3,2266,249,feet,jsons/v1_VE250_randls_63.json,1018777,1217519,25,Man
156,715777,DepthScenes,duration_manipulation_targetAtFixation,jsons/v1_VE250_randls_63.json,http://54.235.29.9/FacialAge/BNav_EC2/DepthDuration/v2_depth_duration_MTurk/v2_DepthDuration_HTML.html#16,16,1366,768,1366,768,8-30-2022,10-51-48,157,depth_duration_stimuli/001810_2014-06-26_20-51-35_260595134347_rgbf000040-resize_3/001810_2014-06-26_20-51-35_260595134347_rgbf000040-resize_3-target.png,250,2.2525,3,3939,248,feet,jsons/v1_VE250_randls_63.json,1018777,1217519,25,Man
157,715777,DepthScenes,duration_manipulation_targetAtFixation,jsons/v1_VE250_randls_63.json,http://54.235.29.9/FacialAge/BNav_EC2/DepthDuration/v2_depth_duration_MTurk/v2_DepthDuration_HTML.html#16,16,1366,768,1366,768,8-30-2022,10-51-48,158,depth_duration_stimuli/003010_2014-06-15_12-54-35_094959634447_rgbf000112-resize_0/003010_2014-06-15_12-54-35_094959634447_rgbf000112-resize_0-target.png,250,3.1185,4,2259,249,feet,jsons/v1_VE250_randls_63.json,1018777,1217519,25,Man
158,715777,DepthScenes,duration_manipulation_targetAtFixation,jsons/v1_VE250_randls_63.json,http://54.235.29.9/FacialAge/BNav_EC2/DepthDuration/v2_depth_duration_MTurk/v2_DepthDuration_HTML.html#16,16,1366,768,1366,768,8-30-2022,10-51-48,159,depth_duration_stimuli/002509_2014-06-24_13-19-22_094959634447_rgbf000077-resize_0/002509_2014-06-24_13-19-22_094959634447_rgbf000077-resize_0-target.png,250,1.3065,1,2642,249,feet,jsons/v1_VE250_randls_63.json,1018777,1217519,25,Man
159,715777,DepthScenes,duration_manipulation_targetAtFixation,jsons/v1_VE250_randls_63.json,http://54.235.29.9/FacialAge/BNav_EC2/DepthDuration/v2_depth_duration_MTurk/v2_DepthDuration_HTML.html#16,16,1366,768,1366,768,8-30-2022,10-51-48,160,depth_duration_stimuli/003338_2014-05-20_11-01-23_094959634447_rgbf000051-resize_6/003338_2014-05-20_11-01-23_094959634447_rgbf000051-resize_6-target.png,250,1.693,2,2369,249,feet,jsons/v1_VE250_randls_63.json,1018777,1217519,25,Man
160,715777,DepthScenes,duration_manipulation_targetAtFixation,jsons/v1_VE250_randls_63.json,http://54.235.29.9/FacialAge/BNav_EC2/DepthDuration/v2_depth_duration_MTurk/v2_DepthDuration_HTML.html#16,16,1366,768,1366,768,8-30-2022,10-51-48,161,depth_duration_stimuli/000470_2014-06-09_19-42-40_260595134347_rgbf000094-resize_1/000470_2014-06-09_19-42-40_260595134347_rgbf000094-resize_1-target.png,250,1.831,2,2450,249,feet,jsons/v1_VE250_randls_63.json,1018777,1217519,25,Man
161,715777,DepthScenes,duration_manipulation_targetAtFixation,jsons/v1_VE250_randls_63.json,http://54.235.29.9/FacialAge/BNav_EC2/DepthDuration/v2_depth_duration_MTurk/v2_DepthDuration_HTML.html#16,16,1366,768,1366,768,8-30-2022,10-51-48,162,depth_duration_stimuli/000109_2014-05-14_23-41-52_260595134347_rgbf000035-resize_9/000109_2014-05-14_23-41-52_260595134347_rgbf000035-resize_9-target.png,250,1.3545,2,2297,249,feet,jsons/v1_VE250_randls_63.json,1018777,1217519,25,Man
162,715777,DepthScenes,duration_manipulation_targetAtFixation,jsons/v1_VE250_randls_63.json,http://54.235.29.9/FacialAge/BNav_EC2/DepthDuration/v2_depth_duration_MTurk/v2_DepthDuration_HTML.html#16,16,1366,768,1366,768,8-30-2022,10-51-48,163,depth_duration_stimuli/000414_2014-06-04_19-49-13_260595134347_rgbf000044-resize_0/000414_2014-06-04_19-49-13_260595134347_rgbf000044-resize_0-target.png,250,4.329,3,2386,250,feet,jsons/v1_VE250_randls_63.json,1018777,1217519,25,Man
163,715777,DepthScenes,duration_manipulation_targetAtFixation,jsons/v1_VE250_randls_63.json,http://54.235.29.9/FacialAge/BNav_EC2/DepthDuration/v2_depth_duration_MTurk/v2_DepthDuration_HTML.html#16,16,1366,768,1366,768,8-30-2022,10-51-48,164,depth_duration_stimuli/003129_2014-05-12_10-48-10_094959634447_rgbf000100-resize_0/003129_2014-05-12_10-48-10_094959634447_rgbf000100-resize_0-target.png,250,4.9305,4,2586,249,feet,jsons/v1_VE250_randls_63.json,1018777,1217519,25,Man
