,subjID,experimentName,versionName,sequenceName,url,selected_row,windowWidth,windowHeight,screenWidth,screenHeight,startDate,startTime,trial,stimulus,duration,actual_depth,depth_estimate,trial_RT,log_sceneDuration,unitSelection,seq_filepath,experimentTime,totalTime,age,gender
0,717322,DepthScenes,duration_manipulation_targetAtFixation,jsons/VE125_randls_72.json,http://54.235.29.9/FacialAge/BNav_EC2/DepthDuration/v2_depth_duration_MTurk/v2_DepthDuration_HTML.html#126,126,1600,757,1600,900,9-18-2022,13-14-12,1,depth_duration_stimuli/001449_2014-06-19_17-01-27_260595134347_rgbf000116-resize_2/001449_2014-06-19_17-01-27_260595134347_rgbf000116-resize_2-target.png,125,3.452,5,8074,124,feet,jsons/VE125_randls_72.json,1554081,1781546,36,Woman
1,717322,DepthScenes,duration_manipulation_targetAtFixation,jsons/VE125_randls_72.json,http://54.235.29.9/FacialAge/BNav_EC2/DepthDuration/v2_depth_duration_MTurk/v2_DepthDuration_HTML.html#126,126,1600,757,1600,900,9-18-2022,13-14-12,2,depth_duration_stimuli/001450_2014-06-19_17-02-03_260595134347_rgbf000203-resize_4/001450_2014-06-19_17-02-03_260595134347_rgbf000203-resize_4-target.png,125,4.0106666666667,5,7651,126,feet,jsons/VE125_randls_72.json,1554081,1781546,36,Woman
2,717322,DepthScenes,duration_manipulation_targetAtFixation,jsons/VE125_randls_72.json,http://54.235.29.9/FacialAge/BNav_EC2/DepthDuration/v2_depth_duration_MTurk/v2_DepthDuration_HTML.html#126,126,1600,757,1600,900,9-18-2022,13-14-12,3,depth_duration_stimuli/001199_2014-06-17_16-03-48_260595134347_rgbf000077-resize_0/001199_2014-06-17_16-03-48_260595134347_rgbf000077-resize_0-target.png,125,3.4375,4,9548,125,feet,jsons/VE125_randls_72.json,1554081,1781546,36,Woman
3,717322,DepthScenes,duration_manipulation_targetAtFixation,jsons/VE125_randls_72.json,http://54.235.29.9/FacialAge/BNav_EC2/DepthDuration/v2_depth_duration_MTurk/v2_DepthDuration_HTML.html#126,126,1600,757,1600,900,9-18-2022,13-14-12,4,depth_duration_stimuli/000502_2014-06-08_23-02-32_260595134347_rgbf000063-resize_4/000502_2014-06-08_23-02-32_260595134347_rgbf000063-resize_4-target.png,125,2.431,3,11717,126,feet,jsons/VE125_randls_72.json,1554081,1781546,36,Woman
4,717322,DepthScenes,duration_manipulation_targetAtFixation,jsons/VE125_randls_72.json,http://54.235.29.9/FacialAge/BNav_EC2/DepthDuration/v2_depth_duration_MTurk/v2_DepthDuration_HTML.html#126,126,1600,757,1600,900,9-18-2022,13-14-12,5,depth_duration_stimuli/000929_2014-06-09_16-33-19_260595134347_rgbf000139-resize_0/000929_2014-06-09_16-33-19_260595134347_rgbf000139-resize_0-target.png,125,2.8680000000000003,3,8725,125,feet,jsons/VE125_randls_72.json,1554081,1781546,36,Woman
5,717322,DepthScenes,duration_manipulation_targetAtFixation,jsons/VE125_randls_72.json,http://54.235.29.9/FacialAge/BNav_EC2/DepthDuration/v2_depth_duration_MTurk/v2_DepthDuration_HTML.html#126,126,1600,757,1600,900,9-18-2022,13-14-12,6,depth_duration_stimuli/000457_2014-06-08_16-52-43_260595134347_rgbf000199-resize_1/000457_2014-06-08_16-52-43_260595134347_rgbf000199-resize_1-target.png,125,3.6489999999999996,6,5344,132,feet,jsons/VE125_randls_72.json,1554081,1781546,36,Woman
6,717322,DepthScenes,duration_manipulation_targetAtFixation,jsons/VE125_randls_72.json,http://54.235.29.9/FacialAge/BNav_EC2/DepthDuration/v2_depth_duration_MTurk/v2_DepthDuration_HTML.html#126,126,1600,757,1600,900,9-18-2022,13-14-12,7,depth_duration_stimuli/000470_2014-06-09_19-42-40_260595134347_rgbf000094-resize_1/000470_2014-06-09_19-42-40_260595134347_rgbf000094-resize_1-target.png,125,1.831,2,8523,125,feet,jsons/VE125_randls_72.json,1554081,1781546,36,Woman
7,717322,DepthScenes,duration_manipulation_targetAtFixation,jsons/VE125_randls_72.json,http://54.235.29.9/FacialAge/BNav_EC2/DepthDuration/v2_depth_duration_MTurk/v2_DepthDuration_HTML.html#126,126,1600,757,1600,900,9-18-2022,13-14-12,8,depth_duration_stimuli/000109_2014-05-14_23-41-52_260595134347_rgbf000035-resize_9/000109_2014-05-14_23-41-52_260595134347_rgbf000035-resize_9-target.png,125,1.3545,4,9422,125,feet,jsons/VE125_randls_72.json,1554081,1781546,36,Woman
8,717322,DepthScenes,duration_manipulation_targetAtFixation,jsons/VE125_randls_72.json,http://54.235.29.9/FacialAge/BNav_EC2/DepthDuration/v2_depth_duration_MTurk/v2_DepthDuration_HTML.html#126,126,1600,757,1600,900,9-18-2022,13-14-12,9,depth_duration_stimuli/001150_2014-06-17_15-27-34_260595134347_rgbf000108-resize_2/001150_2014-06-17_15-27-34_260595134347_rgbf000108-resize_2-target.png,125,4.0325,6,8059,127,feet,jsons/VE125_randls_72.json,1554081,1781546,36,Woman
9,717322,DepthScenes,duration_manipulation_targetAtFixation,jsons/VE125_randls_72.json,http://54.235.29.9/FacialAge/BNav_EC2/DepthDuration/v2_depth_duration_MTurk/v2_DepthDuration_HTML.html#126,126,1600,757,1600,900,9-18-2022,13-14-12,10,depth_duration_stimuli/000665_2014-06-09_20-42-35_260595134347_rgbf000110-resize_1/000665_2014-06-09_20-42-35_260595134347_rgbf000110-resize_1-target.png,125,3.057,4,5162,123,feet,jsons/VE125_randls_72.json,1554081,1781546,36,Woman
10,717322,DepthScenes,duration_manipulation_targetAtFixation,jsons/VE125_randls_72.json,http://54.235.29.9/FacialAge/BNav_EC2/DepthDuration/v2_depth_duration_MTurk/v2_DepthDuration_HTML.html#126,126,1600,757,1600,900,9-18-2022,13-14-12,11,depth_duration_stimuli/001016_2014-06-09_16-16-10_260595134347_rgbf000112-resize_5/001016_2014-06-09_16-16-10_260595134347_rgbf000112-resize_5-target.png,125,1.6565,5,7931,124,feet,jsons/VE125_randls_72.json,1554081,1781546,36,Woman
11,717322,DepthScenes,duration_manipulation_targetAtFixation,jsons/VE125_randls_72.json,http://54.235.29.9/FacialAge/BNav_EC2/DepthDuration/v2_depth_duration_MTurk/v2_DepthDuration_HTML.html#126,126,1600,757,1600,900,9-18-2022,13-14-12,12,depth_duration_stimuli/002340_2014-06-28_20-05-46_260595134347_rgbf000113-resize_0/002340_2014-06-28_20-05-46_260595134347_rgbf000113-resize_0-target.png,125,2.4735,4,10922,125,feet,jsons/VE125_randls_72.json,1554081,1781546,36,Woman
12,717322,DepthScenes,duration_manipulation_targetAtFixation,jsons/VE125_randls_72.json,http://54.235.29.9/FacialAge/BNav_EC2/DepthDuration/v2_depth_duration_MTurk/v2_DepthDuration_HTML.html#126,126,1600,757,1600,900,9-18-2022,13-14-12,13,depth_duration_stimuli/000569_2014-06-09_22-51-47_260595134347_rgbf000141-resize_3/000569_2014-06-09_22-51-47_260595134347_rgbf000141-resize-original.jpg,125,4.512,0,9516,124,feet,jsons/VE125_randls_72.json,1554081,1781546,36,Woman
13,717322,DepthScenes,duration_manipulation_targetAtFixation,jsons/VE125_randls_72.json,http://54.235.29.9/FacialAge/BNav_EC2/DepthDuration/v2_depth_duration_MTurk/v2_DepthDuration_HTML.html#126,126,1600,757,1600,900,9-18-2022,13-14-12,14,depth_duration_stimuli/003492_2014-05-21_15-50-55_094959634447_rgbf000828-resize_1/003492_2014-05-21_15-50-55_094959634447_rgbf000828-resize_1-target.png,125,4.06875,8,7741,125,feet,jsons/VE125_randls_72.json,1554081,1781546,36,Woman
14,717322,DepthScenes,duration_manipulation_targetAtFixation,jsons/VE125_randls_72.json,http://54.235.29.9/FacialAge/BNav_EC2/DepthDuration/v2_depth_duration_MTurk/v2_DepthDuration_HTML.html#126,126,1600,757,1600,900,9-18-2022,13-14-12,15,depth_duration_stimuli/002568_2014-06-24_13-59-21_094959634447_rgbf000062-resize_4/002568_2014-06-24_13-59-21_094959634447_rgbf000062-resize_4-target.png,125,3.015,5,5364,125,feet,jsons/VE125_randls_72.json,1554081,1781546,36,Woman
15,717322,DepthScenes,duration_manipulation_targetAtFixation,jsons/VE125_randls_72.json,http://54.235.29.9/FacialAge/BNav_EC2/DepthDuration/v2_depth_duration_MTurk/v2_DepthDuration_HTML.html#126,126,1600,757,1600,900,9-18-2022,13-14-12,16,depth_duration_stimuli/002784_2014-06-22_19-26-30_094959634447_rgbf000083-resize_3/002784_2014-06-22_19-26-30_094959634447_rgbf000083-resize_3-target.png,125,1.8046666666667,2,6241,126,feet,jsons/VE125_randls_72.json,1554081,1781546,36,Woman
16,717322,DepthScenes,duration_manipulation_targetAtFixation,jsons/VE125_randls_72.json,http://54.235.29.9/FacialAge/BNav_EC2/DepthDuration/v2_depth_duration_MTurk/v2_DepthDuration_HTML.html#126,126,1600,757,1600,900,9-18-2022,13-14-12,17,depth_duration_stimuli/001100_2014-06-15_17-46-26_260595134347_rgbf000225-resize_2/001100_2014-06-15_17-46-26_260595134347_rgbf000225-resize_2-target.png,125,2.24,3,4594,126,feet,jsons/VE125_randls_72.json,1554081,1781546,36,Woman
17,717322,DepthScenes,duration_manipulation_targetAtFixation,jsons/VE125_randls_72.json,http://54.235.29.9/FacialAge/BNav_EC2/DepthDuration/v2_depth_duration_MTurk/v2_DepthDuration_HTML.html#126,126,1600,757,1600,900,9-18-2022,13-14-12,18,depth_duration_stimuli/001175_2014-06-17_15-45-55_260595134347_rgbf000129-resize_4/001175_2014-06-17_15-45-55_260595134347_rgbf000129-resize_4-target.png,125,4.255,10,9107,126,feet,jsons/VE125_randls_72.json,1554081,1781546,36,Woman
18,717322,DepthScenes,duration_manipulation_targetAtFixation,jsons/VE125_randls_72.json,http://54.235.29.9/FacialAge/BNav_EC2/DepthDuration/v2_depth_duration_MTurk/v2_DepthDuration_HTML.html#126,126,1600,757,1600,900,9-18-2022,13-14-12,19,depth_duration_stimuli/003490_2014-05-21_15-50-11_094959634447_rgbf000101-resize_3/003490_2014-05-21_15-50-11_094959634447_rgbf000101-resize_3-target.png,125,3.6445,4,5061,125,feet,jsons/VE125_randls_72.json,1554081,1781546,36,Woman
19,717322,DepthScenes,duration_manipulation_targetAtFixation,jsons/VE125_randls_72.json,http://54.235.29.9/FacialAge/BNav_EC2/DepthDuration/v2_depth_duration_MTurk/v2_DepthDuration_HTML.html#126,126,1600,757,1600,900,9-18-2022,13-14-12,20,depth_duration_stimuli/001110_2014-06-15_17-25-28_260595134347_rgbf000150-resize_1/001110_2014-06-15_17-25-28_260595134347_rgbf000150-resize_1-target.png,125,1.7115,4,10134,126,feet,jsons/VE125_randls_72.json,1554081,1781546,36,Woman
20,717322,DepthScenes,duration_manipulation_targetAtFixation,jsons/VE125_randls_72.json,http://54.235.29.9/FacialAge/BNav_EC2/DepthDuration/v2_depth_duration_MTurk/v2_DepthDuration_HTML.html#126,126,1600,757,1600,900,9-18-2022,13-14-12,21,depth_duration_stimuli/000927_2014-06-09_16-32-30_260595134347_rgbf000123-resize_3/000927_2014-06-09_16-32-30_260595134347_rgbf000123-resize_3-target.png,125,2.6785,5,4719,123,feet,jsons/VE125_randls_72.json,1554081,1781546,36,Woman
21,717322,DepthScenes,duration_manipulation_targetAtFixation,jsons/VE125_randls_72.json,http://54.235.29.9/FacialAge/BNav_EC2/DepthDuration/v2_depth_duration_MTurk/v2_DepthDuration_HTML.html#126,126,1600,757,1600,900,9-18-2022,13-14-12,22,depth_duration_stimuli/002663_2014-06-13_15-50-26_094959634447_rgbf000075-resize_1/002663_2014-06-13_15-50-26_094959634447_rgbf000075-resize_1-target.png,125,4.7495,8,16468,126,feet,jsons/VE125_randls_72.json,1554081,1781546,36,Woman
22,717322,DepthScenes,duration_manipulation_targetAtFixation,jsons/VE125_randls_72.json,http://54.235.29.9/FacialAge/BNav_EC2/DepthDuration/v2_depth_duration_MTurk/v2_DepthDuration_HTML.html#126,126,1600,757,1600,900,9-18-2022,13-14-12,23,depth_duration_stimuli/000409_2014-06-04_19-23-33_260595134347_rgbf000067-resize_0/000409_2014-06-04_19-23-33_260595134347_rgbf000067-resize_0-target.png,125,3.7335,4,11187,125,feet,jsons/VE125_randls_72.json,1554081,1781546,36,Woman
23,717322,DepthScenes,duration_manipulation_targetAtFixation,jsons/VE125_randls_72.json,http://54.235.29.9/FacialAge/BNav_EC2/DepthDuration/v2_depth_duration_MTurk/v2_DepthDuration_HTML.html#126,126,1600,757,1600,900,9-18-2022,13-14-12,24,depth_duration_stimuli/000522_2014-06-08_13-35-06_260595134347_rgbf000244-resize_1/000522_2014-06-08_13-35-06_260595134347_rgbf000244-resize_1-target.png,125,2.3715,2,11483,124,feet,jsons/VE125_randls_72.json,1554081,1781546,36,Woman
24,717322,DepthScenes,duration_manipulation_targetAtFixation,jsons/VE125_randls_72.json,http://54.235.29.9/FacialAge/BNav_EC2/DepthDuration/v2_depth_duration_MTurk/v2_DepthDuration_HTML.html#126,126,1600,757,1600,900,9-18-2022,13-14-12,25,depth_duration_stimuli/002949_2014-06-26_15-57-42_094959634447_rgbf000079-resize_1/002949_2014-06-26_15-57-42_094959634447_rgbf000079-resize_1-target.png,125,1.8915,3,5485,120,feet,jsons/VE125_randls_72.json,1554081,1781546,36,Woman
25,717322,DepthScenes,duration_manipulation_targetAtFixation,jsons/VE125_randls_72.json,http://54.235.29.9/FacialAge/BNav_EC2/DepthDuration/v2_depth_duration_MTurk/v2_DepthDuration_HTML.html#126,126,1600,757,1600,900,9-18-2022,13-14-12,26,depth_duration_stimuli/001806_2014-06-26_20-50-20_260595134347_rgbf000091-resize_1/001806_2014-06-26_20-50-20_260595134347_rgbf000091-resize_1-target.png,125,2.7305,4,7558,126,feet,jsons/VE125_randls_72.json,1554081,1781546,36,Woman
26,717322,DepthScenes,duration_manipulation_targetAtFixation,jsons/VE125_randls_72.json,http://54.235.29.9/FacialAge/BNav_EC2/DepthDuration/v2_depth_duration_MTurk/v2_DepthDuration_HTML.html#126,126,1600,757,1600,900,9-18-2022,13-14-12,27,depth_duration_stimuli/001617_2014-06-20_11-35-32_260595134347_rgbf000066-resize_1/001617_2014-06-20_11-35-32_260595134347_rgbf000066-resize_1-target.png,125,3.7910000000000004,7,5171,126,feet,jsons/VE125_randls_72.json,1554081,1781546,36,Woman
27,717322,DepthScenes,duration_manipulation_targetAtFixation,jsons/VE125_randls_72.json,http://54.235.29.9/FacialAge/BNav_EC2/DepthDuration/v2_depth_duration_MTurk/v2_DepthDuration_HTML.html#126,126,1600,757,1600,900,9-18-2022,13-14-12,28,depth_duration_stimuli/000414_2014-06-04_19-49-13_260595134347_rgbf000044-resize_0/000414_2014-06-04_19-49-13_260595134347_rgbf000044-resize_0-target.png,125,4.329,8,9594,125,feet,jsons/VE125_randls_72.json,1554081,1781546,36,Woman
28,717322,DepthScenes,duration_manipulation_targetAtFixation,jsons/VE125_randls_72.json,http://54.235.29.9/FacialAge/BNav_EC2/DepthDuration/v2_depth_duration_MTurk/v2_DepthDuration_HTML.html#126,126,1600,757,1600,900,9-18-2022,13-14-12,29,depth_duration_stimuli/003129_2014-05-12_10-48-10_094959634447_rgbf000100-resize_0/003129_2014-05-12_10-48-10_094959634447_rgbf000100-resize_0-target.png,125,4.9305,8,4965,125,feet,jsons/VE125_randls_72.json,1554081,1781546,36,Woman
29,717322,DepthScenes,duration_manipulation_targetAtFixation,jsons/VE125_randls_72.json,http://54.235.29.9/FacialAge/BNav_EC2/DepthDuration/v2_depth_duration_MTurk/v2_DepthDuration_HTML.html#126,126,1600,757,1600,900,9-18-2022,13-14-12,30,depth_duration_stimuli/000375_2014-06-08_11-17-29_260595134347_rgbf000133-resize_2/000375_2014-06-08_11-17-29_260595134347_rgbf000133-resize-original.jpg,125,4.718,0,5130,123,feet,jsons/VE125_randls_72.json,1554081,1781546,36,Woman
30,717322,DepthScenes,duration_manipulation_targetAtFixation,jsons/VE125_randls_72.json,http://54.235.29.9/FacialAge/BNav_EC2/DepthDuration/v2_depth_duration_MTurk/v2_DepthDuration_HTML.html#126,126,1600,757,1600,900,9-18-2022,13-14-12,31,depth_duration_stimuli/001164_2014-06-17_15-35-46_260595134347_rgbf000085-resize_3/001164_2014-06-17_15-35-46_260595134347_rgbf000085-resize_3-target.png,125,2.354,6,11074,125,feet,jsons/VE125_randls_72.json,1554081,1781546,36,Woman
31,717322,DepthScenes,duration_manipulation_targetAtFixation,jsons/VE125_randls_72.json,http://54.235.29.9/FacialAge/BNav_EC2/DepthDuration/v2_depth_duration_MTurk/v2_DepthDuration_HTML.html#126,126,1600,757,1600,900,9-18-2022,13-14-12,32,depth_duration_stimuli/001136_2014-06-17_15-19-41_260595134347_rgbf000076-resize_3/001136_2014-06-17_15-19-41_260595134347_rgbf000076-resize_3-target.png,125,1.8655,5,6869,124,feet,jsons/VE125_randls_72.json,1554081,1781546,36,Woman
32,717322,DepthScenes,duration_manipulation_targetAtFixation,jsons/VE125_randls_72.json,http://54.235.29.9/FacialAge/BNav_EC2/DepthDuration/v2_depth_duration_MTurk/v2_DepthDuration_HTML.html#126,126,1600,757,1600,900,9-18-2022,13-14-12,33,depth_duration_stimuli/001808_2014-06-26_20-50-58_260595134347_rgbf000029-resize_1/001808_2014-06-26_20-50-58_260595134347_rgbf000029-resize_1-target.png,125,4.249,6,10924,125,feet,jsons/VE125_randls_72.json,1554081,1781546,36,Woman
33,717322,DepthScenes,duration_manipulation_targetAtFixation,jsons/VE125_randls_72.json,http://54.235.29.9/FacialAge/BNav_EC2/DepthDuration/v2_depth_duration_MTurk/v2_DepthDuration_HTML.html#126,126,1600,757,1600,900,9-18-2022,13-14-12,34,depth_duration_stimuli/001815_2014-06-26_20-52-55_260595134347_rgbf000020-resize_0/001815_2014-06-26_20-52-55_260595134347_rgbf000020-resize_0-target.png,125,3.3865,7,6810,124,feet,jsons/VE125_randls_72.json,1554081,1781546,36,Woman
34,717322,DepthScenes,duration_manipulation_targetAtFixation,jsons/VE125_randls_72.json,http://54.235.29.9/FacialAge/BNav_EC2/DepthDuration/v2_depth_duration_MTurk/v2_DepthDuration_HTML.html#126,126,1600,757,1600,900,9-18-2022,13-14-12,35,depth_duration_stimuli/000486_2014-06-09_20-47-20_260595134347_rgbf000143-resize_2/000486_2014-06-09_20-47-20_260595134347_rgbf000143-resize_2-target.png,125,4.8325,10,10075,120,feet,jsons/VE125_randls_72.json,1554081,1781546,36,Woman
35,717322,DepthScenes,duration_manipulation_targetAtFixation,jsons/VE125_randls_72.json,http://54.235.29.9/FacialAge/BNav_EC2/DepthDuration/v2_depth_duration_MTurk/v2_DepthDuration_HTML.html#126,126,1600,757,1600,900,9-18-2022,13-14-12,36,depth_duration_stimuli/003083_2014-06-15_15-21-03_094959634447_rgbf000063-resize_1/003083_2014-06-15_15-21-03_094959634447_rgbf000063-resize_1-target.png,125,4.1405,5,7487,123,feet,jsons/VE125_randls_72.json,1554081,1781546,36,Woman
36,717322,DepthScenes,duration_manipulation_targetAtFixation,jsons/VE125_randls_72.json,http://54.235.29.9/FacialAge/BNav_EC2/DepthDuration/v2_depth_duration_MTurk/v2_DepthDuration_HTML.html#126,126,1600,757,1600,900,9-18-2022,13-14-12,37,depth_duration_stimuli/001092_2014-06-15_17-34-58_260595134347_rgbf000171-resize_3/001092_2014-06-15_17-34-58_260595134347_rgbf000171-resize_3-target.png,125,2.6935,4,11943,126,feet,jsons/VE125_randls_72.json,1554081,1781546,36,Woman
37,717322,DepthScenes,duration_manipulation_targetAtFixation,jsons/VE125_randls_72.json,http://54.235.29.9/FacialAge/BNav_EC2/DepthDuration/v2_depth_duration_MTurk/v2_DepthDuration_HTML.html#126,126,1600,757,1600,900,9-18-2022,13-14-12,38,depth_duration_stimuli/002545_2014-06-24_13-38-53_094959634447_rgbf000080-resize_4/002545_2014-06-24_13-38-53_094959634447_rgbf000080-resize_4-target.png,125,1.9205,3,7832,125,feet,jsons/VE125_randls_72.json,1554081,1781546,36,Woman
38,717322,DepthScenes,duration_manipulation_targetAtFixation,jsons/VE125_randls_72.json,http://54.235.29.9/FacialAge/BNav_EC2/DepthDuration/v2_depth_duration_MTurk/v2_DepthDuration_HTML.html#126,126,1600,757,1600,900,9-18-2022,13-14-12,39,depth_duration_stimuli/000739_2014-06-08_18-45-58_260595134347_rgbf000068-resize_1/000739_2014-06-08_18-45-58_260595134347_rgbf000068-resize_1-target.png,125,3.534,8,11849,122,feet,jsons/VE125_randls_72.json,1554081,1781546,36,Woman
39,717322,DepthScenes,duration_manipulation_targetAtFixation,jsons/VE125_randls_72.json,http://54.235.29.9/FacialAge/BNav_EC2/DepthDuration/v2_depth_duration_MTurk/v2_DepthDuration_HTML.html#126,126,1600,757,1600,900,9-18-2022,13-14-12,40,depth_duration_stimuli/000734_2014-06-08_17-39-11_260595134347_rgbf000128-resize_2/000734_2014-06-08_17-39-11_260595134347_rgbf000128-resize_2-target.png,125,4.098,4,6658,125,feet,jsons/VE125_randls_72.json,1554081,1781546,36,Woman
40,717322,DepthScenes,duration_manipulation_targetAtFixation,jsons/VE125_randls_72.json,http://54.235.29.9/FacialAge/BNav_EC2/DepthDuration/v2_depth_duration_MTurk/v2_DepthDuration_HTML.html#126,126,1600,757,1600,900,9-18-2022,13-14-12,41,depth_duration_stimuli/001167_2014-06-17_15-38-07_260595134347_rgbf000108-resize_0/001167_2014-06-17_15-38-07_260595134347_rgbf000108-resize_0-target.png,125,1.8505,3,11416,124,feet,jsons/VE125_randls_72.json,1554081,1781546,36,Woman
41,717322,DepthScenes,duration_manipulation_targetAtFixation,jsons/VE125_randls_72.json,http://54.235.29.9/FacialAge/BNav_EC2/DepthDuration/v2_depth_duration_MTurk/v2_DepthDuration_HTML.html#126,126,1600,757,1600,900,9-18-2022,13-14-12,42,depth_duration_stimuli/003587_2014-05-23_16-48-02_094959634447_rgbf002384-resize_2/003587_2014-05-23_16-48-02_094959634447_rgbf002384-resize_2-target.png,125,1.357,4,9293,127,feet,jsons/VE125_randls_72.json,1554081,1781546,36,Woman
42,717322,DepthScenes,duration_manipulation_targetAtFixation,jsons/VE125_randls_72.json,http://54.235.29.9/FacialAge/BNav_EC2/DepthDuration/v2_depth_duration_MTurk/v2_DepthDuration_HTML.html#126,126,1600,757,1600,900,9-18-2022,13-14-12,43,depth_duration_stimuli/002213_2014-06-28_18-37-58_260595134347_rgbf000055-resize_1/002213_2014-06-28_18-37-58_260595134347_rgbf000055-resize_1-target.png,125,3.62,12,12229,125,feet,jsons/VE125_randls_72.json,1554081,1781546,36,Woman
43,717322,DepthScenes,duration_manipulation_targetAtFixation,jsons/VE125_randls_72.json,http://54.235.29.9/FacialAge/BNav_EC2/DepthDuration/v2_depth_duration_MTurk/v2_DepthDuration_HTML.html#126,126,1600,757,1600,900,9-18-2022,13-14-12,44,depth_duration_stimuli/000691_2014-06-08_13-08-50_260595134347_rgbf000132-resize_3/000691_2014-06-08_13-08-50_260595134347_rgbf000132-resize_3-target.png,125,4.1530000000000005,11,6798,125,feet,jsons/VE125_randls_72.json,1554081,1781546,36,Woman
44,717322,DepthScenes,duration_manipulation_targetAtFixation,jsons/VE125_randls_72.json,http://54.235.29.9/FacialAge/BNav_EC2/DepthDuration/v2_depth_duration_MTurk/v2_DepthDuration_HTML.html#126,126,1600,757,1600,900,9-18-2022,13-14-12,45,depth_duration_stimuli/000787_2014-06-08_22-33-53_260595134347_rgbf000175-resize_1/000787_2014-06-08_22-33-53_260595134347_rgbf000175-resize-original.jpg,125,4.784,4,11658,116,feet,jsons/VE125_randls_72.json,1554081,1781546,36,Woman
45,717322,DepthScenes,duration_manipulation_targetAtFixation,jsons/VE125_randls_72.json,http://54.235.29.9/FacialAge/BNav_EC2/DepthDuration/v2_depth_duration_MTurk/v2_DepthDuration_HTML.html#126,126,1600,757,1600,900,9-18-2022,13-14-12,46,depth_duration_stimuli/000788_2014-06-08_22-34-36_260595134347_rgbf000131-resize_1/000788_2014-06-08_22-34-36_260595134347_rgbf000131-resize_1-target.png,125,3.359,7,9408,125,feet,jsons/VE125_randls_72.json,1554081,1781546,36,Woman
46,717322,DepthScenes,duration_manipulation_targetAtFixation,jsons/VE125_randls_72.json,http://54.235.29.9/FacialAge/BNav_EC2/DepthDuration/v2_depth_duration_MTurk/v2_DepthDuration_HTML.html#126,126,1600,757,1600,900,9-18-2022,13-14-12,47,depth_duration_stimuli/001235_2014-06-17_16-37-36_260595134347_rgbf000084-resize_4/001235_2014-06-17_16-37-36_260595134347_rgbf000084-resize_4-target.png,125,3.6605,8,6274,124,feet,jsons/VE125_randls_72.json,1554081,1781546,36,Woman
47,717322,DepthScenes,duration_manipulation_targetAtFixation,jsons/VE125_randls_72.json,http://54.235.29.9/FacialAge/BNav_EC2/DepthDuration/v2_depth_duration_MTurk/v2_DepthDuration_HTML.html#126,126,1600,757,1600,900,9-18-2022,13-14-12,48,depth_duration_stimuli/001056_2014-06-08_18-46-44_260595134347_rgbf000068-resize_0/001056_2014-06-08_18-46-44_260595134347_rgbf000068-resize_0-target.png,125,2.6625,10,8762,124,feet,jsons/VE125_randls_72.json,1554081,1781546,36,Woman
48,717322,DepthScenes,duration_manipulation_targetAtFixation,jsons/VE125_randls_72.json,http://54.235.29.9/FacialAge/BNav_EC2/DepthDuration/v2_depth_duration_MTurk/v2_DepthDuration_HTML.html#126,126,1600,757,1600,900,9-18-2022,13-14-12,49,depth_duration_stimuli/002199_2014-06-28_18-33-56_260595134347_rgbf000074-resize_0/002199_2014-06-28_18-33-56_260595134347_rgbf000074-resize_0-target.png,125,1.996,6,6792,125,feet,jsons/VE125_randls_72.json,1554081,1781546,36,Woman
49,717322,DepthScenes,duration_manipulation_targetAtFixation,jsons/VE125_randls_72.json,http://54.235.29.9/FacialAge/BNav_EC2/DepthDuration/v2_depth_duration_MTurk/v2_DepthDuration_HTML.html#126,126,1600,757,1600,900,9-18-2022,13-14-12,50,depth_duration_stimuli/000878_2014-06-08_22-52-45_260595134347_rgbf000045-resize_2/000878_2014-06-08_22-52-45_260595134347_rgbf000045-resize_2-target.png,125,2.092,6,14670,124,feet,jsons/VE125_randls_72.json,1554081,1781546,36,Woman
50,717322,DepthScenes,duration_manipulation_targetAtFixation,jsons/VE125_randls_72.json,http://54.235.29.9/FacialAge/BNav_EC2/DepthDuration/v2_depth_duration_MTurk/v2_DepthDuration_HTML.html#126,126,1600,757,1600,900,9-18-2022,13-14-12,51,depth_duration_stimuli/002953_2014-06-08_17-32-18_094959634447_rgbf000059-resize_5/002953_2014-06-08_17-32-18_094959634447_rgbf000059-resize_5-target.png,125,1.551,6,7613,125,feet,jsons/VE125_randls_72.json,1554081,1781546,36,Woman
51,717322,DepthScenes,duration_manipulation_targetAtFixation,jsons/VE125_randls_72.json,http://54.235.29.9/FacialAge/BNav_EC2/DepthDuration/v2_depth_duration_MTurk/v2_DepthDuration_HTML.html#126,126,1600,757,1600,900,9-18-2022,13-14-12,52,depth_duration_stimuli/000493_2014-06-09_21-01-18_260595134347_rgbf000196-resize_3/000493_2014-06-09_21-01-18_260595134347_rgbf000196-resize_3-target.png,125,3.44,6,13508,125,feet,jsons/VE125_randls_72.json,1554081,1781546,36,Woman
52,717322,DepthScenes,duration_manipulation_targetAtFixation,jsons/VE125_randls_72.json,http://54.235.29.9/FacialAge/BNav_EC2/DepthDuration/v2_depth_duration_MTurk/v2_DepthDuration_HTML.html#126,126,1600,757,1600,900,9-18-2022,13-14-12,53,depth_duration_stimuli/000191_2014-05-12_17-07-38_260595134347_rgbf000199-resize_0/000191_2014-05-12_17-07-38_260595134347_rgbf000199-resize_0-target.png,125,3.7995,12,5982,124,feet,jsons/VE125_randls_72.json,1554081,1781546,36,Woman
53,717322,DepthScenes,duration_manipulation_targetAtFixation,jsons/VE125_randls_72.json,http://54.235.29.9/FacialAge/BNav_EC2/DepthDuration/v2_depth_duration_MTurk/v2_DepthDuration_HTML.html#126,126,1600,757,1600,900,9-18-2022,13-14-12,54,depth_duration_stimuli/002549_2014-06-24_13-41-39_094959634447_rgbf000022-resize_3/002549_2014-06-24_13-41-39_094959634447_rgbf000022-resize_3-target.png,125,1.476,3,11104,125,feet,jsons/VE125_randls_72.json,1554081,1781546,36,Woman
54,717322,DepthScenes,duration_manipulation_targetAtFixation,jsons/VE125_randls_72.json,http://54.235.29.9/FacialAge/BNav_EC2/DepthDuration/v2_depth_duration_MTurk/v2_DepthDuration_HTML.html#126,126,1600,757,1600,900,9-18-2022,13-14-12,55,depth_duration_stimuli/002750_2014-06-22_19-08-03_094959634447_rgbf000094-resize_4/002750_2014-06-22_19-08-03_094959634447_rgbf000094-resize_4-target.png,125,2.354,5,5860,124,feet,jsons/VE125_randls_72.json,1554081,1781546,36,Woman
55,717322,DepthScenes,duration_manipulation_targetAtFixation,jsons/VE125_randls_72.json,http://54.235.29.9/FacialAge/BNav_EC2/DepthDuration/v2_depth_duration_MTurk/v2_DepthDuration_HTML.html#126,126,1600,757,1600,900,9-18-2022,13-14-12,56,depth_duration_stimuli/002964_2014-06-08_17-46-11_094959634447_rgbf000091-resize_4/002964_2014-06-08_17-46-11_094959634447_rgbf000091-resize_4-target.png,125,1.6909999999999998,4,6405,125,feet,jsons/VE125_randls_72.json,1554081,1781546,36,Woman
56,717322,DepthScenes,duration_manipulation_targetAtFixation,jsons/VE125_randls_72.json,http://54.235.29.9/FacialAge/BNav_EC2/DepthDuration/v2_depth_duration_MTurk/v2_DepthDuration_HTML.html#126,126,1600,757,1600,900,9-18-2022,13-14-12,57,depth_duration_stimuli/002136_2014-06-25_21-18-03_260595134347_rgbf000109-resize_3/002136_2014-06-25_21-18-03_260595134347_rgbf000109-resize_3-target.png,125,1.9569999999999999,6,6444,126,feet,jsons/VE125_randls_72.json,1554081,1781546,36,Woman
57,717322,DepthScenes,duration_manipulation_targetAtFixation,jsons/VE125_randls_72.json,http://54.235.29.9/FacialAge/BNav_EC2/DepthDuration/v2_depth_duration_MTurk/v2_DepthDuration_HTML.html#126,126,1600,757,1600,900,9-18-2022,13-14-12,58,depth_duration_stimuli/000682_2014-06-08_23-14-58_260595134347_rgbf000041-resize_5/000682_2014-06-08_23-14-58_260595134347_rgbf000041-resize_5-target.png,125,2.7239999999999998,5,35493,125,feet,jsons/VE125_randls_72.json,1554081,1781546,36,Woman
58,717322,DepthScenes,duration_manipulation_targetAtFixation,jsons/VE125_randls_72.json,http://54.235.29.9/FacialAge/BNav_EC2/DepthDuration/v2_depth_duration_MTurk/v2_DepthDuration_HTML.html#126,126,1600,757,1600,900,9-18-2022,13-14-12,59,depth_duration_stimuli/001650_2014-06-20_12-09-00_260595134347_rgbf000087-resize_3/001650_2014-06-20_12-09-00_260595134347_rgbf000087-resize_3-target.png,125,1.9505,2,8485,126,feet,jsons/VE125_randls_72.json,1554081,1781546,36,Woman
59,717322,DepthScenes,duration_manipulation_targetAtFixation,jsons/VE125_randls_72.json,http://54.235.29.9/FacialAge/BNav_EC2/DepthDuration/v2_depth_duration_MTurk/v2_DepthDuration_HTML.html#126,126,1600,757,1600,900,9-18-2022,13-14-12,60,depth_duration_stimuli/001570_2014-06-20_17-21-09_260595134347_rgbf000135-resize_4/001570_2014-06-20_17-21-09_260595134347_rgbf000135-resize_4-target.png,125,4.467,10,39604,125,feet,jsons/VE125_randls_72.json,1554081,1781546,36,Woman
60,717322,DepthScenes,duration_manipulation_targetAtFixation,jsons/VE125_randls_72.json,http://54.235.29.9/FacialAge/BNav_EC2/DepthDuration/v2_depth_duration_MTurk/v2_DepthDuration_HTML.html#126,126,1600,757,1600,900,9-18-2022,13-14-12,61,depth_duration_stimuli/001392_2014-06-19_16-07-59_260595134347_rgbf000046-resize_1/001392_2014-06-19_16-07-59_260595134347_rgbf000046-resize_1-target.png,125,4.135,12,4610,125,feet,jsons/VE125_randls_72.json,1554081,1781546,36,Woman
61,717322,DepthScenes,duration_manipulation_targetAtFixation,jsons/VE125_randls_72.json,http://54.235.29.9/FacialAge/BNav_EC2/DepthDuration/v2_depth_duration_MTurk/v2_DepthDuration_HTML.html#126,126,1600,757,1600,900,9-18-2022,13-14-12,62,depth_duration_stimuli/002988_2014-06-15_12-24-20_094959634447_rgbf000150-resize_1/002988_2014-06-15_12-24-20_094959634447_rgbf000150-resize_1-target.png,125,4.7669999999999995,15,7532,124,feet,jsons/VE125_randls_72.json,1554081,1781546,36,Woman
62,717322,DepthScenes,duration_manipulation_targetAtFixation,jsons/VE125_randls_72.json,http://54.235.29.9/FacialAge/BNav_EC2/DepthDuration/v2_depth_duration_MTurk/v2_DepthDuration_HTML.html#126,126,1600,757,1600,900,9-18-2022,13-14-12,63,depth_duration_stimuli/001052_2014-06-08_18-24-54_260595134347_rgbf000130-resize_1/001052_2014-06-08_18-24-54_260595134347_rgbf000130-resize_1-target.png,125,4.1045,2,4075,125,feet,jsons/VE125_randls_72.json,1554081,1781546,36,Woman
63,717322,DepthScenes,duration_manipulation_targetAtFixation,jsons/VE125_randls_72.json,http://54.235.29.9/FacialAge/BNav_EC2/DepthDuration/v2_depth_duration_MTurk/v2_DepthDuration_HTML.html#126,126,1600,757,1600,900,9-18-2022,13-14-12,64,depth_duration_stimuli/002748_2014-06-22_19-07-22_094959634447_rgbf000078-resize_1/002748_2014-06-22_19-07-22_094959634447_rgbf000078-resize_1-target.png,125,4.6705,12,7018,126,feet,jsons/VE125_randls_72.json,1554081,1781546,36,Woman
64,717322,DepthScenes,duration_manipulation_targetAtFixation,jsons/VE125_randls_72.json,http://54.235.29.9/FacialAge/BNav_EC2/DepthDuration/v2_depth_duration_MTurk/v2_DepthDuration_HTML.html#126,126,1600,757,1600,900,9-18-2022,13-14-12,65,depth_duration_stimuli/002995_2014-06-15_12-31-26_094959634447_rgbf000150-resize_1/002995_2014-06-15_12-31-26_094959634447_rgbf000150-resize_1-target.png,125,3.8360000000000003,10,4125,126,feet,jsons/VE125_randls_72.json,1554081,1781546,36,Woman
65,717322,DepthScenes,duration_manipulation_targetAtFixation,jsons/VE125_randls_72.json,http://54.235.29.9/FacialAge/BNav_EC2/DepthDuration/v2_depth_duration_MTurk/v2_DepthDuration_HTML.html#126,126,1600,757,1600,900,9-18-2022,13-14-12,66,depth_duration_stimuli/001222_2014-06-17_16-24-06_260595134347_rgbf000073-resize_0/001222_2014-06-17_16-24-06_260595134347_rgbf000073-resize-original.jpg,125,1.4385,0,6425,124,feet,jsons/VE125_randls_72.json,1554081,1781546,36,Woman
66,717322,DepthScenes,duration_manipulation_targetAtFixation,jsons/VE125_randls_72.json,http://54.235.29.9/FacialAge/BNav_EC2/DepthDuration/v2_depth_duration_MTurk/v2_DepthDuration_HTML.html#126,126,1600,757,1600,900,9-18-2022,13-14-12,67,depth_duration_stimuli/002725_2014-06-22_11-47-51_094959634447_rgbf000070-resize_1/002725_2014-06-22_11-47-51_094959634447_rgbf000070-resize_1-target.png,125,2.195,8,5520,125,feet,jsons/VE125_randls_72.json,1554081,1781546,36,Woman
67,717322,DepthScenes,duration_manipulation_targetAtFixation,jsons/VE125_randls_72.json,http://54.235.29.9/FacialAge/BNav_EC2/DepthDuration/v2_depth_duration_MTurk/v2_DepthDuration_HTML.html#126,126,1600,757,1600,900,9-18-2022,13-14-12,68,depth_duration_stimuli/002344_2014-06-28_20-06-29_260595134347_rgbf000030-resize_1/002344_2014-06-28_20-06-29_260595134347_rgbf000030-resize_1-target.png,125,1.5795,10,4895,125,feet,jsons/VE125_randls_72.json,1554081,1781546,36,Woman
68,717322,DepthScenes,duration_manipulation_targetAtFixation,jsons/VE125_randls_72.json,http://54.235.29.9/FacialAge/BNav_EC2/DepthDuration/v2_depth_duration_MTurk/v2_DepthDuration_HTML.html#126,126,1600,757,1600,900,9-18-2022,13-14-12,69,depth_duration_stimuli/003621_2014-05-23_18-06-08_094959634447_rgbf000101-resize_1/003621_2014-05-23_18-06-08_094959634447_rgbf000101-resize_1-target.png,125,3.9835,10,5408,125,feet,jsons/VE125_randls_72.json,1554081,1781546,36,Woman
69,717322,DepthScenes,duration_manipulation_targetAtFixation,jsons/VE125_randls_72.json,http://54.235.29.9/FacialAge/BNav_EC2/DepthDuration/v2_depth_duration_MTurk/v2_DepthDuration_HTML.html#126,126,1600,757,1600,900,9-18-2022,13-14-12,70,depth_duration_stimuli/001584_2014-06-20_11-07-43_260595134347_rgbf000002-resize_1/001584_2014-06-20_11-07-43_260595134347_rgbf000002-resize_1-target.png,125,3.53,6,4312,117,feet,jsons/VE125_randls_72.json,1554081,1781546,36,Woman
70,717322,DepthScenes,duration_manipulation_targetAtFixation,jsons/VE125_randls_72.json,http://54.235.29.9/FacialAge/BNav_EC2/DepthDuration/v2_depth_duration_MTurk/v2_DepthDuration_HTML.html#126,126,1600,757,1600,900,9-18-2022,13-14-12,71,depth_duration_stimuli/001059_2014-06-08_21-53-27_260595134347_rgbf000061-resize_4/001059_2014-06-08_21-53-27_260595134347_rgbf000061-resize_4-target.png,125,2.4185,8,5332,124,feet,jsons/VE125_randls_72.json,1554081,1781546,36,Woman
71,717322,DepthScenes,duration_manipulation_targetAtFixation,jsons/VE125_randls_72.json,http://54.235.29.9/FacialAge/BNav_EC2/DepthDuration/v2_depth_duration_MTurk/v2_DepthDuration_HTML.html#126,126,1600,757,1600,900,9-18-2022,13-14-12,72,depth_duration_stimuli/001032_2014-06-08_13-23-17_260595134347_rgbf000021-resize_3/001032_2014-06-08_13-23-17_260595134347_rgbf000021-resize_3-target.png,125,3.2725,5,3203,125,feet,jsons/VE125_randls_72.json,1554081,1781546,36,Woman
72,717322,DepthScenes,duration_manipulation_targetAtFixation,jsons/VE125_randls_72.json,http://54.235.29.9/FacialAge/BNav_EC2/DepthDuration/v2_depth_duration_MTurk/v2_DepthDuration_HTML.html#126,126,1600,757,1600,900,9-18-2022,13-14-12,73,depth_duration_stimuli/000009_2014-05-26_14-32-05_260595134347_rgbf000034-resize_3/000009_2014-05-26_14-32-05_260595134347_rgbf000034-resize_3-target.png,125,3.8715,12,8469,123,feet,jsons/VE125_randls_72.json,1554081,1781546,36,Woman
73,717322,DepthScenes,duration_manipulation_targetAtFixation,jsons/VE125_randls_72.json,http://54.235.29.9/FacialAge/BNav_EC2/DepthDuration/v2_depth_duration_MTurk/v2_DepthDuration_HTML.html#126,126,1600,757,1600,900,9-18-2022,13-14-12,74,depth_duration_stimuli/001828_2014-06-26_21-40-03_260595134347_rgbf000024-resize_0/001828_2014-06-26_21-40-03_260595134347_rgbf000024-resize_0-target.png,125,4.8260000000000005,8,3722,126,feet,jsons/VE125_randls_72.json,1554081,1781546,36,Woman
74,717322,DepthScenes,duration_manipulation_targetAtFixation,jsons/VE125_randls_72.json,http://54.235.29.9/FacialAge/BNav_EC2/DepthDuration/v2_depth_duration_MTurk/v2_DepthDuration_HTML.html#126,126,1600,757,1600,900,9-18-2022,13-14-12,75,depth_duration_stimuli/000642_2014-06-08_16-59-25_260595134347_rgbf000098-resize_2/000642_2014-06-08_16-59-25_260595134347_rgbf000098-resize_2-target.png,125,2.8815,5,5178,125,feet,jsons/VE125_randls_72.json,1554081,1781546,36,Woman
75,717322,DepthScenes,duration_manipulation_targetAtFixation,jsons/VE125_randls_72.json,http://54.235.29.9/FacialAge/BNav_EC2/DepthDuration/v2_depth_duration_MTurk/v2_DepthDuration_HTML.html#126,126,1600,757,1600,900,9-18-2022,13-14-12,76,depth_duration_stimuli/002425_2014-06-28_20-27-29_260595134347_rgbf000031-resize_8/002425_2014-06-28_20-27-29_260595134347_rgbf000031-resize_8-target.png,125,3.8960000000000004,8,3443,125,feet,jsons/VE125_randls_72.json,1554081,1781546,36,Woman
76,717322,DepthScenes,duration_manipulation_targetAtFixation,jsons/VE125_randls_72.json,http://54.235.29.9/FacialAge/BNav_EC2/DepthDuration/v2_depth_duration_MTurk/v2_DepthDuration_HTML.html#126,126,1600,757,1600,900,9-18-2022,13-14-12,77,depth_duration_stimuli/002630_2014-06-24_14-47-50_094959634447_rgbf000055-resize_1/002630_2014-06-24_14-47-50_094959634447_rgbf000055-resize_1-target.png,125,3.0095,10,6180,125,feet,jsons/VE125_randls_72.json,1554081,1781546,36,Woman
77,717322,DepthScenes,duration_manipulation_targetAtFixation,jsons/VE125_randls_72.json,http://54.235.29.9/FacialAge/BNav_EC2/DepthDuration/v2_depth_duration_MTurk/v2_DepthDuration_HTML.html#126,126,1600,757,1600,900,9-18-2022,13-14-12,78,depth_duration_stimuli/002758_2014-06-22_19-11-20_094959634447_rgbf000128-resize_1/002758_2014-06-22_19-11-20_094959634447_rgbf000128-resize_1-target.png,125,2.555,0,4073,134,feet,jsons/VE125_randls_72.json,1554081,1781546,36,Woman
78,717322,DepthScenes,duration_manipulation_targetAtFixation,jsons/VE125_randls_72.json,http://54.235.29.9/FacialAge/BNav_EC2/DepthDuration/v2_depth_duration_MTurk/v2_DepthDuration_HTML.html#126,126,1600,757,1600,900,9-18-2022,13-14-12,79,depth_duration_stimuli/002118_2014-06-25_20-32-08_260595134347_rgbf000078-resize_1/002118_2014-06-25_20-32-08_260595134347_rgbf000078-resize_1-target.png,125,2.6460000000000004,4,5088,122,feet,jsons/VE125_randls_72.json,1554081,1781546,36,Woman
79,717322,DepthScenes,duration_manipulation_targetAtFixation,jsons/VE125_randls_72.json,http://54.235.29.9/FacialAge/BNav_EC2/DepthDuration/v2_depth_duration_MTurk/v2_DepthDuration_HTML.html#126,126,1600,757,1600,900,9-18-2022,13-14-12,80,depth_duration_stimuli/001516_2014-06-20_16-25-09_260595134347_rgbf000076-resize_2/001516_2014-06-20_16-25-09_260595134347_rgbf000076-resize_2-target.png,125,1.7445,0,3374,125,feet,jsons/VE125_randls_72.json,1554081,1781546,36,Woman
80,717322,DepthScenes,duration_manipulation_targetAtFixation,jsons/VE125_randls_72.json,http://54.235.29.9/FacialAge/BNav_EC2/DepthDuration/v2_depth_duration_MTurk/v2_DepthDuration_HTML.html#126,126,1600,757,1600,900,9-18-2022,13-14-12,81,depth_duration_stimuli/001555_2014-06-20_17-12-10_260595134347_rgbf000065-resize_4/001555_2014-06-20_17-12-10_260595134347_rgbf000065-resize_4-target.png,125,1.633,2,5602,124,feet,jsons/VE125_randls_72.json,1554081,1781546,36,Woman
81,717322,DepthScenes,duration_manipulation_targetAtFixation,jsons/VE125_randls_72.json,http://54.235.29.9/FacialAge/BNav_EC2/DepthDuration/v2_depth_duration_MTurk/v2_DepthDuration_HTML.html#126,126,1600,757,1600,900,9-18-2022,13-14-12,82,depth_duration_stimuli/000103_2014-05-14_22-01-17_260595134347_rgbf000152-resize_5/000103_2014-05-14_22-01-17_260595134347_rgbf000152-resize_5-target.png,125,1.993,8,3564,125,feet,jsons/VE125_randls_72.json,1554081,1781546,36,Woman
82,717322,DepthScenes,duration_manipulation_targetAtFixation,jsons/VE125_randls_72.json,http://54.235.29.9/FacialAge/BNav_EC2/DepthDuration/v2_depth_duration_MTurk/v2_DepthDuration_HTML.html#126,126,1600,757,1600,900,9-18-2022,13-14-12,83,depth_duration_stimuli/001029_2014-06-08_13-17-57_260595134347_rgbf000065-resize_1/001029_2014-06-08_13-17-57_260595134347_rgbf000065-resize_1-target.png,125,3.0835,8,5869,126,feet,jsons/VE125_randls_72.json,1554081,1781546,36,Woman
83,717322,DepthScenes,duration_manipulation_targetAtFixation,jsons/VE125_randls_72.json,http://54.235.29.9/FacialAge/BNav_EC2/DepthDuration/v2_depth_duration_MTurk/v2_DepthDuration_HTML.html#126,126,1600,757,1600,900,9-18-2022,13-14-12,84,depth_duration_stimuli/000677_2014-06-08_23-10-32_260595134347_rgbf000158-resize_6/000677_2014-06-08_23-10-32_260595134347_rgbf000158-resize_6-target.png,125,3.556,4,7193,124,feet,jsons/VE125_randls_72.json,1554081,1781546,36,Woman
84,717322,DepthScenes,duration_manipulation_targetAtFixation,jsons/VE125_randls_72.json,http://54.235.29.9/FacialAge/BNav_EC2/DepthDuration/v2_depth_duration_MTurk/v2_DepthDuration_HTML.html#126,126,1600,757,1600,900,9-18-2022,13-14-12,85,depth_duration_stimuli/003070_2014-06-15_14-58-27_094959634447_rgbf000150-resize_3/003070_2014-06-15_14-58-27_094959634447_rgbf000150-resize_3-target.png,125,2.9415,10,7661,125,feet,jsons/VE125_randls_72.json,1554081,1781546,36,Woman
85,717322,DepthScenes,duration_manipulation_targetAtFixation,jsons/VE125_randls_72.json,http://54.235.29.9/FacialAge/BNav_EC2/DepthDuration/v2_depth_duration_MTurk/v2_DepthDuration_HTML.html#126,126,1600,757,1600,900,9-18-2022,13-14-12,86,depth_duration_stimuli/000943_2014-06-09_19-31-07_260595134347_rgbf000128-resize_1/000943_2014-06-09_19-31-07_260595134347_rgbf000128-resize_1-target.png,125,1.9765,4,5713,121,feet,jsons/VE125_randls_72.json,1554081,1781546,36,Woman
86,717322,DepthScenes,duration_manipulation_targetAtFixation,jsons/VE125_randls_72.json,http://54.235.29.9/FacialAge/BNav_EC2/DepthDuration/v2_depth_duration_MTurk/v2_DepthDuration_HTML.html#126,126,1600,757,1600,900,9-18-2022,13-14-12,87,depth_duration_stimuli/000506_2014-06-08_23-21-00_260595134347_rgbf000070-resize_7/000506_2014-06-08_23-21-00_260595134347_rgbf000070-resize_7-target.png,125,4.0585,6,6315,123,feet,jsons/VE125_randls_72.json,1554081,1781546,36,Woman
87,717322,DepthScenes,duration_manipulation_targetAtFixation,jsons/VE125_randls_72.json,http://54.235.29.9/FacialAge/BNav_EC2/DepthDuration/v2_depth_duration_MTurk/v2_DepthDuration_HTML.html#126,126,1600,757,1600,900,9-18-2022,13-14-12,88,depth_duration_stimuli/003079_2014-06-15_15-18-20_094959634447_rgbf000152-resize_8/003079_2014-06-15_15-18-20_094959634447_rgbf000152-resize_8-target.png,125,2.8775,5,5426,125,feet,jsons/VE125_randls_72.json,1554081,1781546,36,Woman
88,717322,DepthScenes,duration_manipulation_targetAtFixation,jsons/VE125_randls_72.json,http://54.235.29.9/FacialAge/BNav_EC2/DepthDuration/v2_depth_duration_MTurk/v2_DepthDuration_HTML.html#126,126,1600,757,1600,900,9-18-2022,13-14-12,89,depth_duration_stimuli/001158_2014-06-17_15-32-16_260595134347_rgbf000138-resize_2/001158_2014-06-17_15-32-16_260595134347_rgbf000138-resize_2-target.png,125,4.5315,10,10085,125,feet,jsons/VE125_randls_72.json,1554081,1781546,36,Woman
89,717322,DepthScenes,duration_manipulation_targetAtFixation,jsons/VE125_randls_72.json,http://54.235.29.9/FacialAge/BNav_EC2/DepthDuration/v2_depth_duration_MTurk/v2_DepthDuration_HTML.html#126,126,1600,757,1600,900,9-18-2022,13-14-12,90,depth_duration_stimuli/000556_2014-06-09_22-42-56_260595134347_rgbf000214-resize_1/000556_2014-06-09_22-42-56_260595134347_rgbf000214-resize_1-target.png,125,4.8415,10,56301,123,feet,jsons/VE125_randls_72.json,1554081,1781546,36,Woman
90,717322,DepthScenes,duration_manipulation_targetAtFixation,jsons/VE125_randls_72.json,http://54.235.29.9/FacialAge/BNav_EC2/DepthDuration/v2_depth_duration_MTurk/v2_DepthDuration_HTML.html#126,126,1600,757,1600,900,9-18-2022,13-14-12,91,depth_duration_stimuli/002153_2014-06-25_21-27-18_260595134347_rgbf000038-resize_5/002153_2014-06-25_21-27-18_260595134347_rgbf000038-resize_5-target.png,125,2.505,5,12204,125,feet,jsons/VE125_randls_72.json,1554081,1781546,36,Woman
91,717322,DepthScenes,duration_manipulation_targetAtFixation,jsons/VE125_randls_72.json,http://54.235.29.9/FacialAge/BNav_EC2/DepthDuration/v2_depth_duration_MTurk/v2_DepthDuration_HTML.html#126,126,1600,757,1600,900,9-18-2022,13-14-12,92,depth_duration_stimuli/002660_2014-06-13_15-44-18_094959634447_rgbf001878-resize_2/002660_2014-06-13_15-44-18_094959634447_rgbf001878-resize_2-target.png,125,3.576,5,77525,123,feet,jsons/VE125_randls_72.json,1554081,1781546,36,Woman
92,717322,DepthScenes,duration_manipulation_targetAtFixation,jsons/VE125_randls_72.json,http://54.235.29.9/FacialAge/BNav_EC2/DepthDuration/v2_depth_duration_MTurk/v2_DepthDuration_HTML.html#126,126,1600,757,1600,900,9-18-2022,13-14-12,93,depth_duration_stimuli/002905_2014-06-03_18-04-43_094959634447_rgbf000151-resize_2/002905_2014-06-03_18-04-43_094959634447_rgbf000151-resize_2-target.png,125,2.0295,5,12275,123,feet,jsons/VE125_randls_72.json,1554081,1781546,36,Woman
93,717322,DepthScenes,duration_manipulation_targetAtFixation,jsons/VE125_randls_72.json,http://54.235.29.9/FacialAge/BNav_EC2/DepthDuration/v2_depth_duration_MTurk/v2_DepthDuration_HTML.html#126,126,1600,757,1600,900,9-18-2022,13-14-12,94,depth_duration_stimuli/003423_2014-05-21_10-23-26_094959634447_rgbf002665-resize_2/003423_2014-05-21_10-23-26_094959634447_rgbf002665-resize_2-target.png,125,3.2575,4,4925,126,feet,jsons/VE125_randls_72.json,1554081,1781546,36,Woman
94,717322,DepthScenes,duration_manipulation_targetAtFixation,jsons/VE125_randls_72.json,http://54.235.29.9/FacialAge/BNav_EC2/DepthDuration/v2_depth_duration_MTurk/v2_DepthDuration_HTML.html#126,126,1600,757,1600,900,9-18-2022,13-14-12,95,depth_duration_stimuli/000736_2014-06-08_18-24-15_260595134347_rgbf000206-resize_3/000736_2014-06-08_18-24-15_260595134347_rgbf000206-resize_3-target.png,125,3.515,6,8916,125,feet,jsons/VE125_randls_72.json,1554081,1781546,36,Woman
95,717322,DepthScenes,duration_manipulation_targetAtFixation,jsons/VE125_randls_72.json,http://54.235.29.9/FacialAge/BNav_EC2/DepthDuration/v2_depth_duration_MTurk/v2_DepthDuration_HTML.html#126,126,1600,757,1600,900,9-18-2022,13-14-12,96,depth_duration_stimuli/000137_2014-05-20_17-04-49_260595134347_rgbf000120-resize_1/000137_2014-05-20_17-04-49_260595134347_rgbf000120-resize_1-target.png,125,3.786,7,9811,125,feet,jsons/VE125_randls_72.json,1554081,1781546,36,Woman
96,717322,DepthScenes,duration_manipulation_targetAtFixation,jsons/VE125_randls_72.json,http://54.235.29.9/FacialAge/BNav_EC2/DepthDuration/v2_depth_duration_MTurk/v2_DepthDuration_HTML.html#126,126,1600,757,1600,900,9-18-2022,13-14-12,97,depth_duration_stimuli/002043_2014-06-24_20-29-38_260595134347_rgbf000039-resize_4/002043_2014-06-24_20-29-38_260595134347_rgbf000039-resize_4-target.png,125,2.8435,7,14226,122,feet,jsons/VE125_randls_72.json,1554081,1781546,36,Woman
97,717322,DepthScenes,duration_manipulation_targetAtFixation,jsons/VE125_randls_72.json,http://54.235.29.9/FacialAge/BNav_EC2/DepthDuration/v2_depth_duration_MTurk/v2_DepthDuration_HTML.html#126,126,1600,757,1600,900,9-18-2022,13-14-12,98,depth_duration_stimuli/003048_2014-06-15_13-49-43_094959634447_rgbf000150-resize_1/003048_2014-06-15_13-49-43_094959634447_rgbf000150-resize_1-target.png,125,4.0035,8,5058,125,feet,jsons/VE125_randls_72.json,1554081,1781546,36,Woman
98,717322,DepthScenes,duration_manipulation_targetAtFixation,jsons/VE125_randls_72.json,http://54.235.29.9/FacialAge/BNav_EC2/DepthDuration/v2_depth_duration_MTurk/v2_DepthDuration_HTML.html#126,126,1600,757,1600,900,9-18-2022,13-14-12,99,depth_duration_stimuli/001540_2014-06-20_17-01-05_260595134347_rgbf000086-resize_2/001540_2014-06-20_17-01-05_260595134347_rgbf000086-resize-original.jpg,125,1.459,0,7053,124,feet,jsons/VE125_randls_72.json,1554081,1781546,36,Woman
99,717322,DepthScenes,duration_manipulation_targetAtFixation,jsons/VE125_randls_72.json,http://54.235.29.9/FacialAge/BNav_EC2/DepthDuration/v2_depth_duration_MTurk/v2_DepthDuration_HTML.html#126,126,1600,757,1600,900,9-18-2022,13-14-12,100,depth_duration_stimuli/002600_2014-06-24_14-27-04_094959634447_rgbf000074-resize_2/002600_2014-06-24_14-27-04_094959634447_rgbf000074-resize_2-target.png,125,2.7575,8,6911,126,feet,jsons/VE125_randls_72.json,1554081,1781546,36,Woman
100,717322,DepthScenes,duration_manipulation_targetAtFixation,jsons/VE125_randls_72.json,http://54.235.29.9/FacialAge/BNav_EC2/DepthDuration/v2_depth_duration_MTurk/v2_DepthDuration_HTML.html#126,126,1600,757,1600,900,9-18-2022,13-14-12,101,depth_duration_stimuli/003228_2014-05-14_13-42-35_094959634447_rgbf000101-resize_1/003228_2014-05-14_13-42-35_094959634447_rgbf000101-resize_1-target.png,125,1.9680000000000002,8,4864,124,feet,jsons/VE125_randls_72.json,1554081,1781546,36,Woman
101,717322,DepthScenes,duration_manipulation_targetAtFixation,jsons/VE125_randls_72.json,http://54.235.29.9/FacialAge/BNav_EC2/DepthDuration/v2_depth_duration_MTurk/v2_DepthDuration_HTML.html#126,126,1600,757,1600,900,9-18-2022,13-14-12,102,depth_duration_stimuli/002445_2014-06-28_20-32-16_260595134347_rgbf000029-resize_4/002445_2014-06-28_20-32-16_260595134347_rgbf000029-resize_4-target.png,125,2.5315,5,8997,125,feet,jsons/VE125_randls_72.json,1554081,1781546,36,Woman
102,717322,DepthScenes,duration_manipulation_targetAtFixation,jsons/VE125_randls_72.json,http://54.235.29.9/FacialAge/BNav_EC2/DepthDuration/v2_depth_duration_MTurk/v2_DepthDuration_HTML.html#126,126,1600,757,1600,900,9-18-2022,13-14-12,103,depth_duration_stimuli/000780_2014-06-08_22-28-29_260595134347_rgbf000126-resize_1/000780_2014-06-08_22-28-29_260595134347_rgbf000126-resize_1-target.png,125,3.3825,6,123412,110,feet,jsons/VE125_randls_72.json,1554081,1781546,36,Woman
103,717322,DepthScenes,duration_manipulation_targetAtFixation,jsons/VE125_randls_72.json,http://54.235.29.9/FacialAge/BNav_EC2/DepthDuration/v2_depth_duration_MTurk/v2_DepthDuration_HTML.html#126,126,1600,757,1600,900,9-18-2022,13-14-12,104,depth_duration_stimuli/002039_2014-06-24_20-22-38_260595134347_rgbf000084-resize_1/002039_2014-06-24_20-22-38_260595134347_rgbf000084-resize_1-target.png,125,4.408,10,7924,129,feet,jsons/VE125_randls_72.json,1554081,1781546,36,Woman
104,717322,DepthScenes,duration_manipulation_targetAtFixation,jsons/VE125_randls_72.json,http://54.235.29.9/FacialAge/BNav_EC2/DepthDuration/v2_depth_duration_MTurk/v2_DepthDuration_HTML.html#126,126,1600,757,1600,900,9-18-2022,13-14-12,105,depth_duration_stimuli/002103_2014-06-25_20-00-40_260595134347_rgbf000049-resize_0/002103_2014-06-25_20-00-40_260595134347_rgbf000049-resize_0-target.png,125,4.105,1,8837,126,feet,jsons/VE125_randls_72.json,1554081,1781546,36,Woman
105,717322,DepthScenes,duration_manipulation_targetAtFixation,jsons/VE125_randls_72.json,http://54.235.29.9/FacialAge/BNav_EC2/DepthDuration/v2_depth_duration_MTurk/v2_DepthDuration_HTML.html#126,126,1600,757,1600,900,9-18-2022,13-14-12,106,depth_duration_stimuli/002788_2014-06-22_19-36-03_094959634447_rgbf000088-resize_2/002788_2014-06-22_19-36-03_094959634447_rgbf000088-resize_2-target.png,125,1.6465,10,11499,129,feet,jsons/VE125_randls_72.json,1554081,1781546,36,Woman
106,717322,DepthScenes,duration_manipulation_targetAtFixation,jsons/VE125_randls_72.json,http://54.235.29.9/FacialAge/BNav_EC2/DepthDuration/v2_depth_duration_MTurk/v2_DepthDuration_HTML.html#126,126,1600,757,1600,900,9-18-2022,13-14-12,107,depth_duration_stimuli/000749_2014-06-08_21-55-06_260595134347_rgbf000070-resize_2/000749_2014-06-08_21-55-06_260595134347_rgbf000070-resize_2-target.png,125,2.331,5,3738,123,feet,jsons/VE125_randls_72.json,1554081,1781546,36,Woman
107,717322,DepthScenes,duration_manipulation_targetAtFixation,jsons/VE125_randls_72.json,http://54.235.29.9/FacialAge/BNav_EC2/DepthDuration/v2_depth_duration_MTurk/v2_DepthDuration_HTML.html#126,126,1600,757,1600,900,9-18-2022,13-14-12,108,depth_duration_stimuli/000692_2014-06-08_13-09-42_260595134347_rgbf000199-resize_2/000692_2014-06-08_13-09-42_260595134347_rgbf000199-resize_2-target.png,125,3.661,7,6982,125,feet,jsons/VE125_randls_72.json,1554081,1781546,36,Woman
108,717322,DepthScenes,duration_manipulation_targetAtFixation,jsons/VE125_randls_72.json,http://54.235.29.9/FacialAge/BNav_EC2/DepthDuration/v2_depth_duration_MTurk/v2_DepthDuration_HTML.html#126,126,1600,757,1600,900,9-18-2022,13-14-12,109,depth_duration_stimuli/001094_2014-06-15_17-36-00_260595134347_rgbf000205-resize_0/001094_2014-06-15_17-36-00_260595134347_rgbf000205-resize_0-target.png,125,4.2175,8,15931,126,feet,jsons/VE125_randls_72.json,1554081,1781546,36,Woman
109,717322,DepthScenes,duration_manipulation_targetAtFixation,jsons/VE125_randls_72.json,http://54.235.29.9/FacialAge/BNav_EC2/DepthDuration/v2_depth_duration_MTurk/v2_DepthDuration_HTML.html#126,126,1600,757,1600,900,9-18-2022,13-14-12,110,depth_duration_stimuli/002509_2014-06-24_13-19-22_094959634447_rgbf000077-resize_0/002509_2014-06-24_13-19-22_094959634447_rgbf000077-resize_0-target.png,125,1.3065,4,7538,127,feet,jsons/VE125_randls_72.json,1554081,1781546,36,Woman
110,717322,DepthScenes,duration_manipulation_targetAtFixation,jsons/VE125_randls_72.json,http://54.235.29.9/FacialAge/BNav_EC2/DepthDuration/v2_depth_duration_MTurk/v2_DepthDuration_HTML.html#126,126,1600,757,1600,900,9-18-2022,13-14-12,111,depth_duration_stimuli/003338_2014-05-20_11-01-23_094959634447_rgbf000051-resize_6/003338_2014-05-20_11-01-23_094959634447_rgbf000051-resize_6-target.png,125,1.693,5,11693,124,feet,jsons/VE125_randls_72.json,1554081,1781546,36,Woman
111,717322,DepthScenes,duration_manipulation_targetAtFixation,jsons/VE125_randls_72.json,http://54.235.29.9/FacialAge/BNav_EC2/DepthDuration/v2_depth_duration_MTurk/v2_DepthDuration_HTML.html#126,126,1600,757,1600,900,9-18-2022,13-14-12,112,depth_duration_stimuli/000906_2014-06-08_13-35-43_260595134347_rgbf000155-resize_1/000906_2014-06-08_13-35-43_260595134347_rgbf000155-resize_1-target.png,125,2.8489999999999998,10,7357,125,feet,jsons/VE125_randls_72.json,1554081,1781546,36,Woman
112,717322,DepthScenes,duration_manipulation_targetAtFixation,jsons/VE125_randls_72.json,http://54.235.29.9/FacialAge/BNav_EC2/DepthDuration/v2_depth_duration_MTurk/v2_DepthDuration_HTML.html#126,126,1600,757,1600,900,9-18-2022,13-14-12,113,depth_duration_stimuli/002805_2014-06-22_19-54-03_094959634447_rgbf000079-resize_1/002805_2014-06-22_19-54-03_094959634447_rgbf000079-resize_1-target.png,125,3.1439999999999997,5,3516,129,feet,jsons/VE125_randls_72.json,1554081,1781546,36,Woman
113,717322,DepthScenes,duration_manipulation_targetAtFixation,jsons/VE125_randls_72.json,http://54.235.29.9/FacialAge/BNav_EC2/DepthDuration/v2_depth_duration_MTurk/v2_DepthDuration_HTML.html#126,126,1600,757,1600,900,9-18-2022,13-14-12,114,depth_duration_stimuli/001244_2014-06-17_16-47-45_260595134347_rgbf000030-resize_4/001244_2014-06-17_16-47-45_260595134347_rgbf000030-resize_4-target.png,125,2.0425,6,5387,124,feet,jsons/VE125_randls_72.json,1554081,1781546,36,Woman
114,717322,DepthScenes,duration_manipulation_targetAtFixation,jsons/VE125_randls_72.json,http://54.235.29.9/FacialAge/BNav_EC2/DepthDuration/v2_depth_duration_MTurk/v2_DepthDuration_HTML.html#126,126,1600,757,1600,900,9-18-2022,13-14-12,115,depth_duration_stimuli/003495_2014-05-21_16-01-51_094959634447_rgbf000100-resize_3/003495_2014-05-21_16-01-51_094959634447_rgbf000100-resize_3-target.png,125,1.6255,5,3311,130,feet,jsons/VE125_randls_72.json,1554081,1781546,36,Woman
115,717322,DepthScenes,duration_manipulation_targetAtFixation,jsons/VE125_randls_72.json,http://54.235.29.9/FacialAge/BNav_EC2/DepthDuration/v2_depth_duration_MTurk/v2_DepthDuration_HTML.html#126,126,1600,757,1600,900,9-18-2022,13-14-12,116,depth_duration_stimuli/001170_2014-06-17_15-43-44_260595134347_rgbf000096-resize_6/001170_2014-06-17_15-43-44_260595134347_rgbf000096-resize-original.jpg,125,1.1909999999999998,0,4558,125,feet,jsons/VE125_randls_72.json,1554081,1781546,36,Woman
116,717322,DepthScenes,duration_manipulation_targetAtFixation,jsons/VE125_randls_72.json,http://54.235.29.9/FacialAge/BNav_EC2/DepthDuration/v2_depth_duration_MTurk/v2_DepthDuration_HTML.html#126,126,1600,757,1600,900,9-18-2022,13-14-12,117,depth_duration_stimuli/003534_2014-05-22_15-06-10_094959634447_rgbf000102-resize_4/003534_2014-05-22_15-06-10_094959634447_rgbf000102-resize_4-target.png,125,1.426,7,4787,125,feet,jsons/VE125_randls_72.json,1554081,1781546,36,Woman
117,717322,DepthScenes,duration_manipulation_targetAtFixation,jsons/VE125_randls_72.json,http://54.235.29.9/FacialAge/BNav_EC2/DepthDuration/v2_depth_duration_MTurk/v2_DepthDuration_HTML.html#126,126,1600,757,1600,900,9-18-2022,13-14-12,118,depth_duration_stimuli/002637_2014-06-24_14-51-13_094959634447_rgbf000066-resize_4/002637_2014-06-24_14-51-13_094959634447_rgbf000066-resize_4-target.png,125,1.9955,2,5590,125,feet,jsons/VE125_randls_72.json,1554081,1781546,36,Woman
118,717322,DepthScenes,duration_manipulation_targetAtFixation,jsons/VE125_randls_72.json,http://54.235.29.9/FacialAge/BNav_EC2/DepthDuration/v2_depth_duration_MTurk/v2_DepthDuration_HTML.html#126,126,1600,757,1600,900,9-18-2022,13-14-12,119,depth_duration_stimuli/002279_2014-06-28_18-55-32_260595134347_rgbf000040-resize_5/002279_2014-06-28_18-55-32_260595134347_rgbf000040-resize_5-target.png,125,1.5043333333333,4,6057,126,feet,jsons/VE125_randls_72.json,1554081,1781546,36,Woman
119,717322,DepthScenes,duration_manipulation_targetAtFixation,jsons/VE125_randls_72.json,http://54.235.29.9/FacialAge/BNav_EC2/DepthDuration/v2_depth_duration_MTurk/v2_DepthDuration_HTML.html#126,126,1600,757,1600,900,9-18-2022,13-14-12,120,depth_duration_stimuli/000635_2014-06-08_16-38-42_260595134347_rgbf000106-resize_1/000635_2014-06-08_16-38-42_260595134347_rgbf000106-resize_1-target.png,125,2.074,4,3202,125,feet,jsons/VE125_randls_72.json,1554081,1781546,36,Woman
120,717322,DepthScenes,duration_manipulation_targetAtFixation,jsons/VE125_randls_72.json,http://54.235.29.9/FacialAge/BNav_EC2/DepthDuration/v2_depth_duration_MTurk/v2_DepthDuration_HTML.html#126,126,1600,757,1600,900,9-18-2022,13-14-12,121,depth_duration_stimuli/002272_2014-06-28_18-53-56_260595134347_rgbf000067-resize_2/002272_2014-06-28_18-53-56_260595134347_rgbf000067-resize_2-target.png,125,1.138,2,5514,113,feet,jsons/VE125_randls_72.json,1554081,1781546,36,Woman
121,717322,DepthScenes,duration_manipulation_targetAtFixation,jsons/VE125_randls_72.json,http://54.235.29.9/FacialAge/BNav_EC2/DepthDuration/v2_depth_duration_MTurk/v2_DepthDuration_HTML.html#126,126,1600,757,1600,900,9-18-2022,13-14-12,122,depth_duration_stimuli/001571_2014-06-20_17-21-32_260595134347_rgbf000089-resize_1/001571_2014-06-20_17-21-32_260595134347_rgbf000089-resize_1-target.png,125,1.86,5,4999,124,feet,jsons/VE125_randls_72.json,1554081,1781546,36,Woman
122,717322,DepthScenes,duration_manipulation_targetAtFixation,jsons/VE125_randls_72.json,http://54.235.29.9/FacialAge/BNav_EC2/DepthDuration/v2_depth_duration_MTurk/v2_DepthDuration_HTML.html#126,126,1600,757,1600,900,9-18-2022,13-14-12,123,depth_duration_stimuli/001011_2014-06-08_23-18-54_260595134347_rgbf000044-resize_4/001011_2014-06-08_23-18-54_260595134347_rgbf000044-resize_4-target.png,125,2.4730000000000003,8,7238,123,feet,jsons/VE125_randls_72.json,1554081,1781546,36,Woman
123,717322,DepthScenes,duration_manipulation_targetAtFixation,jsons/VE125_randls_72.json,http://54.235.29.9/FacialAge/BNav_EC2/DepthDuration/v2_depth_duration_MTurk/v2_DepthDuration_HTML.html#126,126,1600,757,1600,900,9-18-2022,13-14-12,124,depth_duration_stimuli/002875_2014-06-01_15-19-00_094959634447_rgbf000151-resize_1/002875_2014-06-01_15-19-00_094959634447_rgbf000151-resize_1-target.png,125,1.9675,8,3940,124,feet,jsons/VE125_randls_72.json,1554081,1781546,36,Woman
124,717322,DepthScenes,duration_manipulation_targetAtFixation,jsons/VE125_randls_72.json,http://54.235.29.9/FacialAge/BNav_EC2/DepthDuration/v2_depth_duration_MTurk/v2_DepthDuration_HTML.html#126,126,1600,757,1600,900,9-18-2022,13-14-12,125,depth_duration_stimuli/000773_2014-06-08_22-24-54_260595134347_rgbf000093-resize_1/000773_2014-06-08_22-24-54_260595134347_rgbf000093-resize_1-target.png,125,4.973,10,9584,119,feet,jsons/VE125_randls_72.json,1554081,1781546,36,Woman
125,717322,DepthScenes,duration_manipulation_targetAtFixation,jsons/VE125_randls_72.json,http://54.235.29.9/FacialAge/BNav_EC2/DepthDuration/v2_depth_duration_MTurk/v2_DepthDuration_HTML.html#126,126,1600,757,1600,900,9-18-2022,13-14-12,126,depth_duration_stimuli/002414_2014-06-28_20-24-58_260595134347_rgbf000067-resize_4/002414_2014-06-28_20-24-58_260595134347_rgbf000067-resize_4-target.png,125,4.363,8,4011,126,feet,jsons/VE125_randls_72.json,1554081,1781546,36,Woman
126,717322,DepthScenes,duration_manipulation_targetAtFixation,jsons/VE125_randls_72.json,http://54.235.29.9/FacialAge/BNav_EC2/DepthDuration/v2_depth_duration_MTurk/v2_DepthDuration_HTML.html#126,126,1600,757,1600,900,9-18-2022,13-14-12,127,depth_duration_stimuli/001055_2014-06-08_18-45-35_260595134347_rgbf000111-resize_4/001055_2014-06-08_18-45-35_260595134347_rgbf000111-resize_4-target.png,125,2.4290000000000003,10,6493,171,feet,jsons/VE125_randls_72.json,1554081,1781546,36,Woman
127,717322,DepthScenes,duration_manipulation_targetAtFixation,jsons/VE125_randls_72.json,http://54.235.29.9/FacialAge/BNav_EC2/DepthDuration/v2_depth_duration_MTurk/v2_DepthDuration_HTML.html#126,126,1600,757,1600,900,9-18-2022,13-14-12,128,depth_duration_stimuli/000549_2014-06-08_22-10-24_260595134347_rgbf000247-resize_3/000549_2014-06-08_22-10-24_260595134347_rgbf000247-resize_3-target.png,125,1.841,5,3610,126,feet,jsons/VE125_randls_72.json,1554081,1781546,36,Woman
128,717322,DepthScenes,duration_manipulation_targetAtFixation,jsons/VE125_randls_72.json,http://54.235.29.9/FacialAge/BNav_EC2/DepthDuration/v2_depth_duration_MTurk/v2_DepthDuration_HTML.html#126,126,1600,757,1600,900,9-18-2022,13-14-12,129,depth_duration_stimuli/000917_2014-06-09_22-45-29_260595134347_rgbf000149-resize_3/000917_2014-06-09_22-45-29_260595134347_rgbf000149-resize_3-target.png,125,4.1865,10,4950,154,feet,jsons/VE125_randls_72.json,1554081,1781546,36,Woman
129,717322,DepthScenes,duration_manipulation_targetAtFixation,jsons/VE125_randls_72.json,http://54.235.29.9/FacialAge/BNav_EC2/DepthDuration/v2_depth_duration_MTurk/v2_DepthDuration_HTML.html#126,126,1600,757,1600,900,9-18-2022,13-14-12,130,depth_duration_stimuli/002323_2014-06-28_20-01-54_260595134347_rgbf000051-resize_4/002323_2014-06-28_20-01-54_260595134347_rgbf000051-resize_4-target.png,125,3.7310000000000003,5,3459,127,feet,jsons/VE125_randls_72.json,1554081,1781546,36,Woman
130,717322,DepthScenes,duration_manipulation_targetAtFixation,jsons/VE125_randls_72.json,http://54.235.29.9/FacialAge/BNav_EC2/DepthDuration/v2_depth_duration_MTurk/v2_DepthDuration_HTML.html#126,126,1600,757,1600,900,9-18-2022,13-14-12,131,depth_duration_stimuli/002057_2014-06-24_21-00-13_260595134347_rgbf000120-resize_1/002057_2014-06-24_21-00-13_260595134347_rgbf000120-resize_1-target.png,125,2.967,10,4665,132,feet,jsons/VE125_randls_72.json,1554081,1781546,36,Woman
131,717322,DepthScenes,duration_manipulation_targetAtFixation,jsons/VE125_randls_72.json,http://54.235.29.9/FacialAge/BNav_EC2/DepthDuration/v2_depth_duration_MTurk/v2_DepthDuration_HTML.html#126,126,1600,757,1600,900,9-18-2022,13-14-12,132,depth_duration_stimuli/000709_2014-06-08_13-51-55_260595134347_rgbf000068-resize_3/000709_2014-06-08_13-51-55_260595134347_rgbf000068-resize_3-target.png,125,1.8030000000000002,10,7481,109,feet,jsons/VE125_randls_72.json,1554081,1781546,36,Woman
132,717322,DepthScenes,duration_manipulation_targetAtFixation,jsons/VE125_randls_72.json,http://54.235.29.9/FacialAge/BNav_EC2/DepthDuration/v2_depth_duration_MTurk/v2_DepthDuration_HTML.html#126,126,1600,757,1600,900,9-18-2022,13-14-12,133,depth_duration_stimuli/002989_2014-06-15_12-25-03_094959634447_rgbf000150-resize_3/002989_2014-06-15_12-25-03_094959634447_rgbf000150-resize_3-target.png,125,4.1975,5,8037,121,feet,jsons/VE125_randls_72.json,1554081,1781546,36,Woman
133,717322,DepthScenes,duration_manipulation_targetAtFixation,jsons/VE125_randls_72.json,http://54.235.29.9/FacialAge/BNav_EC2/DepthDuration/v2_depth_duration_MTurk/v2_DepthDuration_HTML.html#126,126,1600,757,1600,900,9-18-2022,13-14-12,134,depth_duration_stimuli/000866_2014-06-09_20-45-42_260595134347_rgbf000139-resize_1/000866_2014-06-09_20-45-42_260595134347_rgbf000139-resize_1-target.png,125,3.2155,20,4163,124,feet,jsons/VE125_randls_72.json,1554081,1781546,36,Woman
134,717322,DepthScenes,duration_manipulation_targetAtFixation,jsons/VE125_randls_72.json,http://54.235.29.9/FacialAge/BNav_EC2/DepthDuration/v2_depth_duration_MTurk/v2_DepthDuration_HTML.html#126,126,1600,757,1600,900,9-18-2022,13-14-12,135,depth_duration_stimuli/002072_2014-06-24_21-48-06_260595134347_rgbf000115-resize_0/002072_2014-06-24_21-48-06_260595134347_rgbf000115-resize-original.jpg,125,4.702,0,5812,121,feet,jsons/VE125_randls_72.json,1554081,1781546,36,Woman
135,717322,DepthScenes,duration_manipulation_targetAtFixation,jsons/VE125_randls_72.json,http://54.235.29.9/FacialAge/BNav_EC2/DepthDuration/v2_depth_duration_MTurk/v2_DepthDuration_HTML.html#126,126,1600,757,1600,900,9-18-2022,13-14-12,136,depth_duration_stimuli/001133_2014-06-17_14-49-16_260595134347_rgbf000100-resize_0/001133_2014-06-17_14-49-16_260595134347_rgbf000100-resize_0-target.png,125,4.2115,10,6955,127,feet,jsons/VE125_randls_72.json,1554081,1781546,36,Woman
136,717322,DepthScenes,duration_manipulation_targetAtFixation,jsons/VE125_randls_72.json,http://54.235.29.9/FacialAge/BNav_EC2/DepthDuration/v2_depth_duration_MTurk/v2_DepthDuration_HTML.html#126,126,1600,757,1600,900,9-18-2022,13-14-12,137,depth_duration_stimuli/001132_2014-06-17_14-48-54_260595134347_rgbf000100-resize_2/001132_2014-06-17_14-48-54_260595134347_rgbf000100-resize_2-target.png,125,3.753,5,4526,125,feet,jsons/VE125_randls_72.json,1554081,1781546,36,Woman
137,717322,DepthScenes,duration_manipulation_targetAtFixation,jsons/VE125_randls_72.json,http://54.235.29.9/FacialAge/BNav_EC2/DepthDuration/v2_depth_duration_MTurk/v2_DepthDuration_HTML.html#126,126,1600,757,1600,900,9-18-2022,13-14-12,138,depth_duration_stimuli/000469_2014-06-09_19-42-10_260595134347_rgbf000081-resize_1/000469_2014-06-09_19-42-10_260595134347_rgbf000081-resize_1-target.png,125,1.652,5,10866,124,feet,jsons/VE125_randls_72.json,1554081,1781546,36,Woman
138,717322,DepthScenes,duration_manipulation_targetAtFixation,jsons/VE125_randls_72.json,http://54.235.29.9/FacialAge/BNav_EC2/DepthDuration/v2_depth_duration_MTurk/v2_DepthDuration_HTML.html#126,126,1600,757,1600,900,9-18-2022,13-14-12,139,depth_duration_stimuli/000483_2014-06-09_20-41-45_260595134347_rgbf000116-resize_4/000483_2014-06-09_20-41-45_260595134347_rgbf000116-resize_4-target.png,125,1.337,4,5141,119,feet,jsons/VE125_randls_72.json,1554081,1781546,36,Woman
139,717322,DepthScenes,duration_manipulation_targetAtFixation,jsons/VE125_randls_72.json,http://54.235.29.9/FacialAge/BNav_EC2/DepthDuration/v2_depth_duration_MTurk/v2_DepthDuration_HTML.html#126,126,1600,757,1600,900,9-18-2022,13-14-12,140,depth_duration_stimuli/001417_2014-06-19_16-25-36_260595134347_rgbf000115-resize_5/001417_2014-06-19_16-25-36_260595134347_rgbf000115-resize_5-target.png,125,4.6255,5,7804,126,feet,jsons/VE125_randls_72.json,1554081,1781546,36,Woman
140,717322,DepthScenes,duration_manipulation_targetAtFixation,jsons/VE125_randls_72.json,http://54.235.29.9/FacialAge/BNav_EC2/DepthDuration/v2_depth_duration_MTurk/v2_DepthDuration_HTML.html#126,126,1600,757,1600,900,9-18-2022,13-14-12,141,depth_duration_stimuli/003081_2014-06-15_15-19-16_094959634447_rgbf000150-resize_1/003081_2014-06-15_15-19-16_094959634447_rgbf000150-resize_1-target.png,125,3.9125,8,4340,124,feet,jsons/VE125_randls_72.json,1554081,1781546,36,Woman
141,717322,DepthScenes,duration_manipulation_targetAtFixation,jsons/VE125_randls_72.json,http://54.235.29.9/FacialAge/BNav_EC2/DepthDuration/v2_depth_duration_MTurk/v2_DepthDuration_HTML.html#126,126,1600,757,1600,900,9-18-2022,13-14-12,142,depth_duration_stimuli/002375_2014-06-28_20-13-44_260595134347_rgbf000032-resize_1/002375_2014-06-28_20-13-44_260595134347_rgbf000032-resize_1-target.png,125,4.0175,8,9555,124,feet,jsons/VE125_randls_72.json,1554081,1781546,36,Woman
142,717322,DepthScenes,duration_manipulation_targetAtFixation,jsons/VE125_randls_72.json,http://54.235.29.9/FacialAge/BNav_EC2/DepthDuration/v2_depth_duration_MTurk/v2_DepthDuration_HTML.html#126,126,1600,757,1600,900,9-18-2022,13-14-12,143,depth_duration_stimuli/002657_2014-06-13_15-29-54_094959634447_rgbf000150-resize_1/002657_2014-06-13_15-29-54_094959634447_rgbf000150-resize_1-target.png,125,4.919,8,5141,125,feet,jsons/VE125_randls_72.json,1554081,1781546,36,Woman
143,717322,DepthScenes,duration_manipulation_targetAtFixation,jsons/VE125_randls_72.json,http://54.235.29.9/FacialAge/BNav_EC2/DepthDuration/v2_depth_duration_MTurk/v2_DepthDuration_HTML.html#126,126,1600,757,1600,900,9-18-2022,13-14-12,144,depth_duration_stimuli/000810_2014-06-08_17-20-01_260595134347_rgbf000105-resize_0/000810_2014-06-08_17-20-01_260595134347_rgbf000105-resize_0-target.png,125,1.4865,10,7499,122,feet,jsons/VE125_randls_72.json,1554081,1781546,36,Woman
144,717322,DepthScenes,duration_manipulation_targetAtFixation,jsons/VE125_randls_72.json,http://54.235.29.9/FacialAge/BNav_EC2/DepthDuration/v2_depth_duration_MTurk/v2_DepthDuration_HTML.html#126,126,1600,757,1600,900,9-18-2022,13-14-12,145,depth_duration_stimuli/001214_2014-06-17_16-13-55_260595134347_rgbf000111-resize_0/001214_2014-06-17_16-13-55_260595134347_rgbf000111-resize_0-target.png,125,2.6505,5,4735,155,feet,jsons/VE125_randls_72.json,1554081,1781546,36,Woman
145,717322,DepthScenes,duration_manipulation_targetAtFixation,jsons/VE125_randls_72.json,http://54.235.29.9/FacialAge/BNav_EC2/DepthDuration/v2_depth_duration_MTurk/v2_DepthDuration_HTML.html#126,126,1600,757,1600,900,9-18-2022,13-14-12,146,depth_duration_stimuli/001498_2014-06-19_17-45-14_260595134347_rgbf000129-resize_4/001498_2014-06-19_17-45-14_260595134347_rgbf000129-resize-original.jpg,125,1.4075,0,9966,125,feet,jsons/VE125_randls_72.json,1554081,1781546,36,Woman
146,717322,DepthScenes,duration_manipulation_targetAtFixation,jsons/VE125_randls_72.json,http://54.235.29.9/FacialAge/BNav_EC2/DepthDuration/v2_depth_duration_MTurk/v2_DepthDuration_HTML.html#126,126,1600,757,1600,900,9-18-2022,13-14-12,147,depth_duration_stimuli/002570_2014-06-24_13-59-54_094959634447_rgbf000059-resize_0/002570_2014-06-24_13-59-54_094959634447_rgbf000059-resize_0-target.png,125,4.037,10,8779,124,feet,jsons/VE125_randls_72.json,1554081,1781546,36,Woman
147,717322,DepthScenes,duration_manipulation_targetAtFixation,jsons/VE125_randls_72.json,http://54.235.29.9/FacialAge/BNav_EC2/DepthDuration/v2_depth_duration_MTurk/v2_DepthDuration_HTML.html#126,126,1600,757,1600,900,9-18-2022,13-14-12,148,depth_duration_stimuli/002467_2014-06-28_20-38-07_260595134347_rgbf000026-resize_2/002467_2014-06-28_20-38-07_260595134347_rgbf000026-resize_2-target.png,125,4.742,5,4629,125,feet,jsons/VE125_randls_72.json,1554081,1781546,36,Woman
148,717322,DepthScenes,duration_manipulation_targetAtFixation,jsons/VE125_randls_72.json,http://54.235.29.9/FacialAge/BNav_EC2/DepthDuration/v2_depth_duration_MTurk/v2_DepthDuration_HTML.html#126,126,1600,757,1600,900,9-18-2022,13-14-12,149,depth_duration_stimuli/001066_2014-06-08_22-03-20_260595134347_rgbf000066-resize_4/001066_2014-06-08_22-03-20_260595134347_rgbf000066-resize_4-target.png,125,4.2330000000000005,10,6304,124,feet,jsons/VE125_randls_72.json,1554081,1781546,36,Woman
149,717322,DepthScenes,duration_manipulation_targetAtFixation,jsons/VE125_randls_72.json,http://54.235.29.9/FacialAge/BNav_EC2/DepthDuration/v2_depth_duration_MTurk/v2_DepthDuration_HTML.html#126,126,1600,757,1600,900,9-18-2022,13-14-12,150,depth_duration_stimuli/000742_2014-06-08_18-48-09_260595134347_rgbf000164-resize_4/000742_2014-06-08_18-48-09_260595134347_rgbf000164-resize_4-target.png,125,4.632,5,3204,125,feet,jsons/VE125_randls_72.json,1554081,1781546,36,Woman
150,717322,DepthScenes,duration_manipulation_targetAtFixation,jsons/VE125_randls_72.json,http://54.235.29.9/FacialAge/BNav_EC2/DepthDuration/v2_depth_duration_MTurk/v2_DepthDuration_HTML.html#126,126,1600,757,1600,900,9-18-2022,13-14-12,151,depth_duration_stimuli/000436_2014-06-09_22-25-11_260595134347_rgbf000137-resize_1/000436_2014-06-09_22-25-11_260595134347_rgbf000137-resize_1-target.png,125,4.0705,5,5276,123,feet,jsons/VE125_randls_72.json,1554081,1781546,36,Woman
151,717322,DepthScenes,duration_manipulation_targetAtFixation,jsons/VE125_randls_72.json,http://54.235.29.9/FacialAge/BNav_EC2/DepthDuration/v2_depth_duration_MTurk/v2_DepthDuration_HTML.html#126,126,1600,757,1600,900,9-18-2022,13-14-12,152,depth_duration_stimuli/002444_2014-06-28_20-32-08_260595134347_rgbf000027-resize_0/002444_2014-06-28_20-32-08_260595134347_rgbf000027-resize_0-target.png,125,4.388999999999999,15,5157,125,feet,jsons/VE125_randls_72.json,1554081,1781546,36,Woman
152,717322,DepthScenes,duration_manipulation_targetAtFixation,jsons/VE125_randls_72.json,http://54.235.29.9/FacialAge/BNav_EC2/DepthDuration/v2_depth_duration_MTurk/v2_DepthDuration_HTML.html#126,126,1600,757,1600,900,9-18-2022,13-14-12,153,depth_duration_stimuli/000447_2014-06-08_16-15-46_260595134347_rgbf000130-resize_1/000447_2014-06-08_16-15-46_260595134347_rgbf000130-resize_1-target.png,125,4.479,15,12888,125,feet,jsons/VE125_randls_72.json,1554081,1781546,36,Woman
153,717322,DepthScenes,duration_manipulation_targetAtFixation,jsons/VE125_randls_72.json,http://54.235.29.9/FacialAge/BNav_EC2/DepthDuration/v2_depth_duration_MTurk/v2_DepthDuration_HTML.html#126,126,1600,757,1600,900,9-18-2022,13-14-12,154,depth_duration_stimuli/001447_2014-06-19_17-00-32_260595134347_rgbf000082-resize_5/001447_2014-06-19_17-00-32_260595134347_rgbf000082-resize_5-target.png,125,4.13775,5,9475,125,feet,jsons/VE125_randls_72.json,1554081,1781546,36,Woman
154,717322,DepthScenes,duration_manipulation_targetAtFixation,jsons/VE125_randls_72.json,http://54.235.29.9/FacialAge/BNav_EC2/DepthDuration/v2_depth_duration_MTurk/v2_DepthDuration_HTML.html#126,126,1600,757,1600,900,9-18-2022,13-14-12,155,depth_duration_stimuli/002763_2014-06-22_19-13-10_094959634447_rgbf000075-resize_4/002763_2014-06-22_19-13-10_094959634447_rgbf000075-resize_4-target.png,125,1.68375,10,5890,125,feet,jsons/VE125_randls_72.json,1554081,1781546,36,Woman
155,717322,DepthScenes,duration_manipulation_targetAtFixation,jsons/VE125_randls_72.json,http://54.235.29.9/FacialAge/BNav_EC2/DepthDuration/v2_depth_duration_MTurk/v2_DepthDuration_HTML.html#126,126,1600,757,1600,900,9-18-2022,13-14-12,156,depth_duration_stimuli/002209_2014-06-28_18-36-10_260595134347_rgbf000051-resize_1/002209_2014-06-28_18-36-10_260595134347_rgbf000051-resize_1-target.png,125,2.057,10,3365,134,feet,jsons/VE125_randls_72.json,1554081,1781546,36,Woman
156,717322,DepthScenes,duration_manipulation_targetAtFixation,jsons/VE125_randls_72.json,http://54.235.29.9/FacialAge/BNav_EC2/DepthDuration/v2_depth_duration_MTurk/v2_DepthDuration_HTML.html#126,126,1600,757,1600,900,9-18-2022,13-14-12,157,depth_duration_stimuli/000368_2014-06-09_15-53-01_260595134347_rgbf000155-resize_2/000368_2014-06-09_15-53-01_260595134347_rgbf000155-resize_2-target.png,125,2.4859999999999998,5,5707,126,feet,jsons/VE125_randls_72.json,1554081,1781546,36,Woman
157,717322,DepthScenes,duration_manipulation_targetAtFixation,jsons/VE125_randls_72.json,http://54.235.29.9/FacialAge/BNav_EC2/DepthDuration/v2_depth_duration_MTurk/v2_DepthDuration_HTML.html#126,126,1600,757,1600,900,9-18-2022,13-14-12,158,depth_duration_stimuli/002678_2014-06-13_16-15-32_094959634447_rgbf000151-resize_6/002678_2014-06-13_16-15-32_094959634447_rgbf000151-resize_6-target.png,125,2.1830000000000003,15,7800,125,feet,jsons/VE125_randls_72.json,1554081,1781546,36,Woman
158,717322,DepthScenes,duration_manipulation_targetAtFixation,jsons/VE125_randls_72.json,http://54.235.29.9/FacialAge/BNav_EC2/DepthDuration/v2_depth_duration_MTurk/v2_DepthDuration_HTML.html#126,126,1600,757,1600,900,9-18-2022,13-14-12,159,depth_duration_stimuli/001810_2014-06-26_20-51-35_260595134347_rgbf000040-resize_3/001810_2014-06-26_20-51-35_260595134347_rgbf000040-resize_3-target.png,125,2.2525,2,5806,125,feet,jsons/VE125_randls_72.json,1554081,1781546,36,Woman
159,717322,DepthScenes,duration_manipulation_targetAtFixation,jsons/VE125_randls_72.json,http://54.235.29.9/FacialAge/BNav_EC2/DepthDuration/v2_depth_duration_MTurk/v2_DepthDuration_HTML.html#126,126,1600,757,1600,900,9-18-2022,13-14-12,160,depth_duration_stimuli/003010_2014-06-15_12-54-35_094959634447_rgbf000112-resize_0/003010_2014-06-15_12-54-35_094959634447_rgbf000112-resize_0-target.png,125,3.1185,15,5239,125,feet,jsons/VE125_randls_72.json,1554081,1781546,36,Woman
160,717322,DepthScenes,duration_manipulation_targetAtFixation,jsons/VE125_randls_72.json,http://54.235.29.9/FacialAge/BNav_EC2/DepthDuration/v2_depth_duration_MTurk/v2_DepthDuration_HTML.html#126,126,1600,757,1600,900,9-18-2022,13-14-12,161,depth_duration_stimuli/000758_2014-06-08_22-05-08_260595134347_rgbf000085-resize_0/000758_2014-06-08_22-05-08_260595134347_rgbf000085-resize_0-target.png,125,3.3810000000000002,5,7115,125,feet,jsons/VE125_randls_72.json,1554081,1781546,36,Woman
161,717322,DepthScenes,duration_manipulation_targetAtFixation,jsons/VE125_randls_72.json,http://54.235.29.9/FacialAge/BNav_EC2/DepthDuration/v2_depth_duration_MTurk/v2_DepthDuration_HTML.html#126,126,1600,757,1600,900,9-18-2022,13-14-12,162,depth_duration_stimuli/000854_2014-06-09_19-43-13_260595134347_rgbf000066-resize_0/000854_2014-06-09_19-43-13_260595134347_rgbf000066-resize_0-target.png,125,3.068,158,4242,125,feet,jsons/VE125_randls_72.json,1554081,1781546,36,Woman
162,717322,DepthScenes,duration_manipulation_targetAtFixation,jsons/VE125_randls_72.json,http://54.235.29.9/FacialAge/BNav_EC2/DepthDuration/v2_depth_duration_MTurk/v2_DepthDuration_HTML.html#126,126,1600,757,1600,900,9-18-2022,13-14-12,163,depth_duration_stimuli/003292_2014-05-14_21-53-49_094959634447_rgbf000100-resize_2/003292_2014-05-14_21-53-49_094959634447_rgbf000100-resize_2-target.png,125,3.4815,10,6794,124,feet,jsons/VE125_randls_72.json,1554081,1781546,36,Woman
163,717322,DepthScenes,duration_manipulation_targetAtFixation,jsons/VE125_randls_72.json,http://54.235.29.9/FacialAge/BNav_EC2/DepthDuration/v2_depth_duration_MTurk/v2_DepthDuration_HTML.html#126,126,1600,757,1600,900,9-18-2022,13-14-12,164,depth_duration_stimuli/002639_2014-06-24_14-51-37_094959634447_rgbf000074-resize_4/002639_2014-06-24_14-51-37_094959634447_rgbf000074-resize_4-target.png,125,4.0375,12,3947,125,feet,jsons/VE125_randls_72.json,1554081,1781546,36,Woman
