,subjID,experimentName,versionName,sequenceName,url,selected_row,windowWidth,windowHeight,screenWidth,screenHeight,startDate,startTime,trial,stimulus,duration,actual_depth,depth_estimate,trial_RT,log_sceneDuration,unitSelection,seq_filepath,experimentTime,totalTime,age,gender
0,718954,DepthScenes,duration_manipulation_targetAtFixation,jsons/VE125_randls_25.json,http://54.235.29.9/FacialAge/BNav_EC2/DepthDuration/v2_depth_duration_MTurk/v2_DepthDuration_HTML.html#133,133,1536,729,1536,864,9-3-2022,9-23-59,1,depth_duration_stimuli/001059_2014-06-08_21-53-27_260595134347_rgbf000061-resize_4/001059_2014-06-08_21-53-27_260595134347_rgbf000061-resize_4-target.png,125,2.4185,10,210422,124,meters,jsons/VE125_randls_25.json,1666545,2234670,63,Woman
1,718954,DepthScenes,duration_manipulation_targetAtFixation,jsons/VE125_randls_25.json,http://54.235.29.9/FacialAge/BNav_EC2/DepthDuration/v2_depth_duration_MTurk/v2_DepthDuration_HTML.html#133,133,1536,729,1536,864,9-3-2022,9-23-59,2,depth_duration_stimuli/001032_2014-06-08_13-23-17_260595134347_rgbf000021-resize_3/001032_2014-06-08_13-23-17_260595134347_rgbf000021-resize_3-target.png,125,3.2725,15,52195,126,meters,jsons/VE125_randls_25.json,1666545,2234670,63,Woman
2,718954,DepthScenes,duration_manipulation_targetAtFixation,jsons/VE125_randls_25.json,http://54.235.29.9/FacialAge/BNav_EC2/DepthDuration/v2_depth_duration_MTurk/v2_DepthDuration_HTML.html#133,133,1536,729,1536,864,9-3-2022,9-23-59,3,depth_duration_stimuli/001066_2014-06-08_22-03-20_260595134347_rgbf000066-resize_4/001066_2014-06-08_22-03-20_260595134347_rgbf000066-resize_4-target.png,125,4.2330000000000005,12,5640,124,meters,jsons/VE125_randls_25.json,1666545,2234670,63,Woman
3,718954,DepthScenes,duration_manipulation_targetAtFixation,jsons/VE125_randls_25.json,http://54.235.29.9/FacialAge/BNav_EC2/DepthDuration/v2_depth_duration_MTurk/v2_DepthDuration_HTML.html#133,133,1536,729,1536,864,9-3-2022,9-23-59,4,depth_duration_stimuli/000742_2014-06-08_18-48-09_260595134347_rgbf000164-resize_4/000742_2014-06-08_18-48-09_260595134347_rgbf000164-resize_4-target.png,125,4.632,15,7283,125,meters,jsons/VE125_randls_25.json,1666545,2234670,63,Woman
4,718954,DepthScenes,duration_manipulation_targetAtFixation,jsons/VE125_randls_25.json,http://54.235.29.9/FacialAge/BNav_EC2/DepthDuration/v2_depth_duration_MTurk/v2_DepthDuration_HTML.html#133,133,1536,729,1536,864,9-3-2022,9-23-59,5,depth_duration_stimuli/002663_2014-06-13_15-50-26_094959634447_rgbf000075-resize_1/002663_2014-06-13_15-50-26_094959634447_rgbf000075-resize_1-target.png,125,4.7495,12,5210,126,meters,jsons/VE125_randls_25.json,1666545,2234670,63,Woman
5,718954,DepthScenes,duration_manipulation_targetAtFixation,jsons/VE125_randls_25.json,http://54.235.29.9/FacialAge/BNav_EC2/DepthDuration/v2_depth_duration_MTurk/v2_DepthDuration_HTML.html#133,133,1536,729,1536,864,9-3-2022,9-23-59,6,depth_duration_stimuli/000409_2014-06-04_19-23-33_260595134347_rgbf000067-resize_0/000409_2014-06-04_19-23-33_260595134347_rgbf000067-resize_0-target.png,125,3.7335,13,6035,125,meters,jsons/VE125_randls_25.json,1666545,2234670,63,Woman
6,718954,DepthScenes,duration_manipulation_targetAtFixation,jsons/VE125_randls_25.json,http://54.235.29.9/FacialAge/BNav_EC2/DepthDuration/v2_depth_duration_MTurk/v2_DepthDuration_HTML.html#133,133,1536,729,1536,864,9-3-2022,9-23-59,7,depth_duration_stimuli/000642_2014-06-08_16-59-25_260595134347_rgbf000098-resize_2/000642_2014-06-08_16-59-25_260595134347_rgbf000098-resize_2-target.png,125,2.8815,14,7208,125,meters,jsons/VE125_randls_25.json,1666545,2234670,63,Woman
7,718954,DepthScenes,duration_manipulation_targetAtFixation,jsons/VE125_randls_25.json,http://54.235.29.9/FacialAge/BNav_EC2/DepthDuration/v2_depth_duration_MTurk/v2_DepthDuration_HTML.html#133,133,1536,729,1536,864,9-3-2022,9-23-59,8,depth_duration_stimuli/002425_2014-06-28_20-27-29_260595134347_rgbf000031-resize_8/002425_2014-06-28_20-27-29_260595134347_rgbf000031-resize_8-target.png,125,3.8960000000000004,10,5238,124,meters,jsons/VE125_randls_25.json,1666545,2234670,63,Woman
8,718954,DepthScenes,duration_manipulation_targetAtFixation,jsons/VE125_randls_25.json,http://54.235.29.9/FacialAge/BNav_EC2/DepthDuration/v2_depth_duration_MTurk/v2_DepthDuration_HTML.html#133,133,1536,729,1536,864,9-3-2022,9-23-59,9,depth_duration_stimuli/001810_2014-06-26_20-51-35_260595134347_rgbf000040-resize_3/001810_2014-06-26_20-51-35_260595134347_rgbf000040-resize_3-target.png,125,2.2525,10,5139,126,meters,jsons/VE125_randls_25.json,1666545,2234670,63,Woman
9,718954,DepthScenes,duration_manipulation_targetAtFixation,jsons/VE125_randls_25.json,http://54.235.29.9/FacialAge/BNav_EC2/DepthDuration/v2_depth_duration_MTurk/v2_DepthDuration_HTML.html#133,133,1536,729,1536,864,9-3-2022,9-23-59,10,depth_duration_stimuli/003010_2014-06-15_12-54-35_094959634447_rgbf000112-resize_0/003010_2014-06-15_12-54-35_094959634447_rgbf000112-resize_0-target.png,125,3.1185,13,4915,124,meters,jsons/VE125_randls_25.json,1666545,2234670,63,Woman
10,718954,DepthScenes,duration_manipulation_targetAtFixation,jsons/VE125_randls_25.json,http://54.235.29.9/FacialAge/BNav_EC2/DepthDuration/v2_depth_duration_MTurk/v2_DepthDuration_HTML.html#133,133,1536,729,1536,864,9-3-2022,9-23-59,11,depth_duration_stimuli/002445_2014-06-28_20-32-16_260595134347_rgbf000029-resize_4/002445_2014-06-28_20-32-16_260595134347_rgbf000029-resize_4-target.png,125,2.5315,14,7005,124,meters,jsons/VE125_randls_25.json,1666545,2234670,63,Woman
11,718954,DepthScenes,duration_manipulation_targetAtFixation,jsons/VE125_randls_25.json,http://54.235.29.9/FacialAge/BNav_EC2/DepthDuration/v2_depth_duration_MTurk/v2_DepthDuration_HTML.html#133,133,1536,729,1536,864,9-3-2022,9-23-59,12,depth_duration_stimuli/000780_2014-06-08_22-28-29_260595134347_rgbf000126-resize_1/000780_2014-06-08_22-28-29_260595134347_rgbf000126-resize_1-target.png,125,3.3825,16,4551,125,meters,jsons/VE125_randls_25.json,1666545,2234670,63,Woman
12,718954,DepthScenes,duration_manipulation_targetAtFixation,jsons/VE125_randls_25.json,http://54.235.29.9/FacialAge/BNav_EC2/DepthDuration/v2_depth_duration_MTurk/v2_DepthDuration_HTML.html#133,133,1536,729,1536,864,9-3-2022,9-23-59,13,depth_duration_stimuli/000569_2014-06-09_22-51-47_260595134347_rgbf000141-resize_3/000569_2014-06-09_22-51-47_260595134347_rgbf000141-resize-original.jpg,125,4.512,10,10197,126,meters,jsons/VE125_randls_25.json,1666545,2234670,63,Woman
13,718954,DepthScenes,duration_manipulation_targetAtFixation,jsons/VE125_randls_25.json,http://54.235.29.9/FacialAge/BNav_EC2/DepthDuration/v2_depth_duration_MTurk/v2_DepthDuration_HTML.html#133,133,1536,729,1536,864,9-3-2022,9-23-59,14,depth_duration_stimuli/001244_2014-06-17_16-47-45_260595134347_rgbf000030-resize_4/001244_2014-06-17_16-47-45_260595134347_rgbf000030-resize_4-target.png,125,2.0425,11,8676,125,meters,jsons/VE125_randls_25.json,1666545,2234670,63,Woman
14,718954,DepthScenes,duration_manipulation_targetAtFixation,jsons/VE125_randls_25.json,http://54.235.29.9/FacialAge/BNav_EC2/DepthDuration/v2_depth_duration_MTurk/v2_DepthDuration_HTML.html#133,133,1536,729,1536,864,9-3-2022,9-23-59,15,depth_duration_stimuli/003495_2014-05-21_16-01-51_094959634447_rgbf000100-resize_3/003495_2014-05-21_16-01-51_094959634447_rgbf000100-resize_3-target.png,125,1.6255,13,6193,125,meters,jsons/VE125_randls_25.json,1666545,2234670,63,Woman
15,718954,DepthScenes,duration_manipulation_targetAtFixation,jsons/VE125_randls_25.json,http://54.235.29.9/FacialAge/BNav_EC2/DepthDuration/v2_depth_duration_MTurk/v2_DepthDuration_HTML.html#133,133,1536,729,1536,864,9-3-2022,9-23-59,16,depth_duration_stimuli/003292_2014-05-14_21-53-49_094959634447_rgbf000100-resize_2/003292_2014-05-14_21-53-49_094959634447_rgbf000100-resize_2-target.png,125,3.4815,5,8831,124,meters,jsons/VE125_randls_25.json,1666545,2234670,63,Woman
16,718954,DepthScenes,duration_manipulation_targetAtFixation,jsons/VE125_randls_25.json,http://54.235.29.9/FacialAge/BNav_EC2/DepthDuration/v2_depth_duration_MTurk/v2_DepthDuration_HTML.html#133,133,1536,729,1536,864,9-3-2022,9-23-59,17,depth_duration_stimuli/002639_2014-06-24_14-51-37_094959634447_rgbf000074-resize_4/002639_2014-06-24_14-51-37_094959634447_rgbf000074-resize_4-target.png,125,4.0375,10,5718,126,meters,jsons/VE125_randls_25.json,1666545,2234670,63,Woman
17,718954,DepthScenes,duration_manipulation_targetAtFixation,jsons/VE125_randls_25.json,http://54.235.29.9/FacialAge/BNav_EC2/DepthDuration/v2_depth_duration_MTurk/v2_DepthDuration_HTML.html#133,133,1536,729,1536,864,9-3-2022,9-23-59,18,depth_duration_stimuli/000368_2014-06-09_15-53-01_260595134347_rgbf000155-resize_2/000368_2014-06-09_15-53-01_260595134347_rgbf000155-resize_2-target.png,125,2.4859999999999998,9,11823,126,meters,jsons/VE125_randls_25.json,1666545,2234670,63,Woman
18,718954,DepthScenes,duration_manipulation_targetAtFixation,jsons/VE125_randls_25.json,http://54.235.29.9/FacialAge/BNav_EC2/DepthDuration/v2_depth_duration_MTurk/v2_DepthDuration_HTML.html#133,133,1536,729,1536,864,9-3-2022,9-23-59,19,depth_duration_stimuli/002678_2014-06-13_16-15-32_094959634447_rgbf000151-resize_6/002678_2014-06-13_16-15-32_094959634447_rgbf000151-resize_6-target.png,125,2.1830000000000003,10,3397,125,meters,jsons/VE125_randls_25.json,1666545,2234670,63,Woman
19,718954,DepthScenes,duration_manipulation_targetAtFixation,jsons/VE125_randls_25.json,http://54.235.29.9/FacialAge/BNav_EC2/DepthDuration/v2_depth_duration_MTurk/v2_DepthDuration_HTML.html#133,133,1536,729,1536,864,9-3-2022,9-23-59,20,depth_duration_stimuli/002784_2014-06-22_19-26-30_094959634447_rgbf000083-resize_3/002784_2014-06-22_19-26-30_094959634447_rgbf000083-resize_3-target.png,125,1.8046666666667,15,7554,126,meters,jsons/VE125_randls_25.json,1666545,2234670,63,Woman
20,718954,DepthScenes,duration_manipulation_targetAtFixation,jsons/VE125_randls_25.json,http://54.235.29.9/FacialAge/BNav_EC2/DepthDuration/v2_depth_duration_MTurk/v2_DepthDuration_HTML.html#133,133,1536,729,1536,864,9-3-2022,9-23-59,21,depth_duration_stimuli/001100_2014-06-15_17-46-26_260595134347_rgbf000225-resize_2/001100_2014-06-15_17-46-26_260595134347_rgbf000225-resize_2-target.png,125,2.24,12,5571,124,meters,jsons/VE125_randls_25.json,1666545,2234670,63,Woman
21,718954,DepthScenes,duration_manipulation_targetAtFixation,jsons/VE125_randls_25.json,http://54.235.29.9/FacialAge/BNav_EC2/DepthDuration/v2_depth_duration_MTurk/v2_DepthDuration_HTML.html#133,133,1536,729,1536,864,9-3-2022,9-23-59,22,depth_duration_stimuli/002630_2014-06-24_14-47-50_094959634447_rgbf000055-resize_1/002630_2014-06-24_14-47-50_094959634447_rgbf000055-resize_1-target.png,125,3.0095,15,9119,125,meters,jsons/VE125_randls_25.json,1666545,2234670,63,Woman
22,718954,DepthScenes,duration_manipulation_targetAtFixation,jsons/VE125_randls_25.json,http://54.235.29.9/FacialAge/BNav_EC2/DepthDuration/v2_depth_duration_MTurk/v2_DepthDuration_HTML.html#133,133,1536,729,1536,864,9-3-2022,9-23-59,23,depth_duration_stimuli/002758_2014-06-22_19-11-20_094959634447_rgbf000128-resize_1/002758_2014-06-22_19-11-20_094959634447_rgbf000128-resize_1-target.png,125,2.555,10,4556,126,meters,jsons/VE125_randls_25.json,1666545,2234670,63,Woman
23,718954,DepthScenes,duration_manipulation_targetAtFixation,jsons/VE125_randls_25.json,http://54.235.29.9/FacialAge/BNav_EC2/DepthDuration/v2_depth_duration_MTurk/v2_DepthDuration_HTML.html#133,133,1536,729,1536,864,9-3-2022,9-23-59,24,depth_duration_stimuli/001449_2014-06-19_17-01-27_260595134347_rgbf000116-resize_2/001449_2014-06-19_17-01-27_260595134347_rgbf000116-resize_2-target.png,125,3.452,20,5047,126,meters,jsons/VE125_randls_25.json,1666545,2234670,63,Woman
24,718954,DepthScenes,duration_manipulation_targetAtFixation,jsons/VE125_randls_25.json,http://54.235.29.9/FacialAge/BNav_EC2/DepthDuration/v2_depth_duration_MTurk/v2_DepthDuration_HTML.html#133,133,1536,729,1536,864,9-3-2022,9-23-59,25,depth_duration_stimuli/001450_2014-06-19_17-02-03_260595134347_rgbf000203-resize_4/001450_2014-06-19_17-02-03_260595134347_rgbf000203-resize_4-target.png,125,4.0106666666667,10,3756,125,meters,jsons/VE125_randls_25.json,1666545,2234670,63,Woman
25,718954,DepthScenes,duration_manipulation_targetAtFixation,jsons/VE125_randls_25.json,http://54.235.29.9/FacialAge/BNav_EC2/DepthDuration/v2_depth_duration_MTurk/v2_DepthDuration_HTML.html#133,133,1536,729,1536,864,9-3-2022,9-23-59,26,depth_duration_stimuli/002905_2014-06-03_18-04-43_094959634447_rgbf000151-resize_2/002905_2014-06-03_18-04-43_094959634447_rgbf000151-resize_2-target.png,125,2.0295,10,5437,125,meters,jsons/VE125_randls_25.json,1666545,2234670,63,Woman
26,718954,DepthScenes,duration_manipulation_targetAtFixation,jsons/VE125_randls_25.json,http://54.235.29.9/FacialAge/BNav_EC2/DepthDuration/v2_depth_duration_MTurk/v2_DepthDuration_HTML.html#133,133,1536,729,1536,864,9-3-2022,9-23-59,27,depth_duration_stimuli/003423_2014-05-21_10-23-26_094959634447_rgbf002665-resize_2/003423_2014-05-21_10-23-26_094959634447_rgbf002665-resize_2-target.png,125,3.2575,12,4449,125,meters,jsons/VE125_randls_25.json,1666545,2234670,63,Woman
27,718954,DepthScenes,duration_manipulation_targetAtFixation,jsons/VE125_randls_25.json,http://54.235.29.9/FacialAge/BNav_EC2/DepthDuration/v2_depth_duration_MTurk/v2_DepthDuration_HTML.html#133,133,1536,729,1536,864,9-3-2022,9-23-59,28,depth_duration_stimuli/000788_2014-06-08_22-34-36_260595134347_rgbf000131-resize_1/000788_2014-06-08_22-34-36_260595134347_rgbf000131-resize_1-target.png,125,3.359,6,5396,126,meters,jsons/VE125_randls_25.json,1666545,2234670,63,Woman
28,718954,DepthScenes,duration_manipulation_targetAtFixation,jsons/VE125_randls_25.json,http://54.235.29.9/FacialAge/BNav_EC2/DepthDuration/v2_depth_duration_MTurk/v2_DepthDuration_HTML.html#133,133,1536,729,1536,864,9-3-2022,9-23-59,29,depth_duration_stimuli/001235_2014-06-17_16-37-36_260595134347_rgbf000084-resize_4/001235_2014-06-17_16-37-36_260595134347_rgbf000084-resize_4-target.png,125,3.6605,7,3811,126,meters,jsons/VE125_randls_25.json,1666545,2234670,63,Woman
29,718954,DepthScenes,duration_manipulation_targetAtFixation,jsons/VE125_randls_25.json,http://54.235.29.9/FacialAge/BNav_EC2/DepthDuration/v2_depth_duration_MTurk/v2_DepthDuration_HTML.html#133,133,1536,729,1536,864,9-3-2022,9-23-59,30,depth_duration_stimuli/000375_2014-06-08_11-17-29_260595134347_rgbf000133-resize_2/000375_2014-06-08_11-17-29_260595134347_rgbf000133-resize-original.jpg,125,4.718,10,7354,125,meters,jsons/VE125_randls_25.json,1666545,2234670,63,Woman
30,718954,DepthScenes,duration_manipulation_targetAtFixation,jsons/VE125_randls_25.json,http://54.235.29.9/FacialAge/BNav_EC2/DepthDuration/v2_depth_duration_MTurk/v2_DepthDuration_HTML.html#133,133,1536,729,1536,864,9-3-2022,9-23-59,31,depth_duration_stimuli/000447_2014-06-08_16-15-46_260595134347_rgbf000130-resize_1/000447_2014-06-08_16-15-46_260595134347_rgbf000130-resize_1-target.png,125,4.479,15,11757,126,meters,jsons/VE125_randls_25.json,1666545,2234670,63,Woman
31,718954,DepthScenes,duration_manipulation_targetAtFixation,jsons/VE125_randls_25.json,http://54.235.29.9/FacialAge/BNav_EC2/DepthDuration/v2_depth_duration_MTurk/v2_DepthDuration_HTML.html#133,133,1536,729,1536,864,9-3-2022,9-23-59,32,depth_duration_stimuli/001447_2014-06-19_17-00-32_260595134347_rgbf000082-resize_5/001447_2014-06-19_17-00-32_260595134347_rgbf000082-resize_5-target.png,125,4.13775,15,10818,125,meters,jsons/VE125_randls_25.json,1666545,2234670,63,Woman
32,718954,DepthScenes,duration_manipulation_targetAtFixation,jsons/VE125_randls_25.json,http://54.235.29.9/FacialAge/BNav_EC2/DepthDuration/v2_depth_duration_MTurk/v2_DepthDuration_HTML.html#133,133,1536,729,1536,864,9-3-2022,9-23-59,33,depth_duration_stimuli/000906_2014-06-08_13-35-43_260595134347_rgbf000155-resize_1/000906_2014-06-08_13-35-43_260595134347_rgbf000155-resize_1-target.png,125,2.8489999999999998,9,17234,124,meters,jsons/VE125_randls_25.json,1666545,2234670,63,Woman
33,718954,DepthScenes,duration_manipulation_targetAtFixation,jsons/VE125_randls_25.json,http://54.235.29.9/FacialAge/BNav_EC2/DepthDuration/v2_depth_duration_MTurk/v2_DepthDuration_HTML.html#133,133,1536,729,1536,864,9-3-2022,9-23-59,34,depth_duration_stimuli/002805_2014-06-22_19-54-03_094959634447_rgbf000079-resize_1/002805_2014-06-22_19-54-03_094959634447_rgbf000079-resize_1-target.png,125,3.1439999999999997,15,5511,124,meters,jsons/VE125_randls_25.json,1666545,2234670,63,Woman
34,718954,DepthScenes,duration_manipulation_targetAtFixation,jsons/VE125_randls_25.json,http://54.235.29.9/FacialAge/BNav_EC2/DepthDuration/v2_depth_duration_MTurk/v2_DepthDuration_HTML.html#133,133,1536,729,1536,864,9-3-2022,9-23-59,35,depth_duration_stimuli/002043_2014-06-24_20-29-38_260595134347_rgbf000039-resize_4/002043_2014-06-24_20-29-38_260595134347_rgbf000039-resize_4-target.png,125,2.8435,8,11210,126,meters,jsons/VE125_randls_25.json,1666545,2234670,63,Woman
35,718954,DepthScenes,duration_manipulation_targetAtFixation,jsons/VE125_randls_25.json,http://54.235.29.9/FacialAge/BNav_EC2/DepthDuration/v2_depth_duration_MTurk/v2_DepthDuration_HTML.html#133,133,1536,729,1536,864,9-3-2022,9-23-59,36,depth_duration_stimuli/003048_2014-06-15_13-49-43_094959634447_rgbf000150-resize_1/003048_2014-06-15_13-49-43_094959634447_rgbf000150-resize_1-target.png,125,4.0035,14,9891,125,meters,jsons/VE125_randls_25.json,1666545,2234670,63,Woman
36,718954,DepthScenes,duration_manipulation_targetAtFixation,jsons/VE125_randls_25.json,http://54.235.29.9/FacialAge/BNav_EC2/DepthDuration/v2_depth_duration_MTurk/v2_DepthDuration_HTML.html#133,133,1536,729,1536,864,9-3-2022,9-23-59,37,depth_duration_stimuli/002725_2014-06-22_11-47-51_094959634447_rgbf000070-resize_1/002725_2014-06-22_11-47-51_094959634447_rgbf000070-resize_1-target.png,125,2.195,9,8970,124,meters,jsons/VE125_randls_25.json,1666545,2234670,63,Woman
37,718954,DepthScenes,duration_manipulation_targetAtFixation,jsons/VE125_randls_25.json,http://54.235.29.9/FacialAge/BNav_EC2/DepthDuration/v2_depth_duration_MTurk/v2_DepthDuration_HTML.html#133,133,1536,729,1536,864,9-3-2022,9-23-59,38,depth_duration_stimuli/002344_2014-06-28_20-06-29_260595134347_rgbf000030-resize_1/002344_2014-06-28_20-06-29_260595134347_rgbf000030-resize_1-target.png,125,1.5795,7,6413,125,meters,jsons/VE125_randls_25.json,1666545,2234670,63,Woman
38,718954,DepthScenes,duration_manipulation_targetAtFixation,jsons/VE125_randls_25.json,http://54.235.29.9/FacialAge/BNav_EC2/DepthDuration/v2_depth_duration_MTurk/v2_DepthDuration_HTML.html#133,133,1536,729,1536,864,9-3-2022,9-23-59,39,depth_duration_stimuli/001158_2014-06-17_15-32-16_260595134347_rgbf000138-resize_2/001158_2014-06-17_15-32-16_260595134347_rgbf000138-resize_2-target.png,125,4.5315,10,4740,126,meters,jsons/VE125_randls_25.json,1666545,2234670,63,Woman
39,718954,DepthScenes,duration_manipulation_targetAtFixation,jsons/VE125_randls_25.json,http://54.235.29.9/FacialAge/BNav_EC2/DepthDuration/v2_depth_duration_MTurk/v2_DepthDuration_HTML.html#133,133,1536,729,1536,864,9-3-2022,9-23-59,40,depth_duration_stimuli/000556_2014-06-09_22-42-56_260595134347_rgbf000214-resize_1/000556_2014-06-09_22-42-56_260595134347_rgbf000214-resize_1-target.png,125,4.8415,5,6195,126,meters,jsons/VE125_randls_25.json,1666545,2234670,63,Woman
40,718954,DepthScenes,duration_manipulation_targetAtFixation,jsons/VE125_randls_25.json,http://54.235.29.9/FacialAge/BNav_EC2/DepthDuration/v2_depth_duration_MTurk/v2_DepthDuration_HTML.html#133,133,1536,729,1536,864,9-3-2022,9-23-59,41,depth_duration_stimuli/003534_2014-05-22_15-06-10_094959634447_rgbf000102-resize_4/003534_2014-05-22_15-06-10_094959634447_rgbf000102-resize_4-target.png,125,1.426,3,7131,126,meters,jsons/VE125_randls_25.json,1666545,2234670,63,Woman
41,718954,DepthScenes,duration_manipulation_targetAtFixation,jsons/VE125_randls_25.json,http://54.235.29.9/FacialAge/BNav_EC2/DepthDuration/v2_depth_duration_MTurk/v2_DepthDuration_HTML.html#133,133,1536,729,1536,864,9-3-2022,9-23-59,42,depth_duration_stimuli/002637_2014-06-24_14-51-13_094959634447_rgbf000066-resize_4/002637_2014-06-24_14-51-13_094959634447_rgbf000066-resize_4-target.png,125,1.9955,13,7140,125,meters,jsons/VE125_randls_25.json,1666545,2234670,63,Woman
42,718954,DepthScenes,duration_manipulation_targetAtFixation,jsons/VE125_randls_25.json,http://54.235.29.9/FacialAge/BNav_EC2/DepthDuration/v2_depth_duration_MTurk/v2_DepthDuration_HTML.html#133,133,1536,729,1536,864,9-3-2022,9-23-59,43,depth_duration_stimuli/000522_2014-06-08_13-35-06_260595134347_rgbf000244-resize_1/000522_2014-06-08_13-35-06_260595134347_rgbf000244-resize_1-target.png,125,2.3715,15,5468,125,meters,jsons/VE125_randls_25.json,1666545,2234670,63,Woman
43,718954,DepthScenes,duration_manipulation_targetAtFixation,jsons/VE125_randls_25.json,http://54.235.29.9/FacialAge/BNav_EC2/DepthDuration/v2_depth_duration_MTurk/v2_DepthDuration_HTML.html#133,133,1536,729,1536,864,9-3-2022,9-23-59,44,depth_duration_stimuli/002949_2014-06-26_15-57-42_094959634447_rgbf000079-resize_1/002949_2014-06-26_15-57-42_094959634447_rgbf000079-resize_1-target.png,125,1.8915,12,5012,126,meters,jsons/VE125_randls_25.json,1666545,2234670,63,Woman
44,718954,DepthScenes,duration_manipulation_targetAtFixation,jsons/VE125_randls_25.json,http://54.235.29.9/FacialAge/BNav_EC2/DepthDuration/v2_depth_duration_MTurk/v2_DepthDuration_HTML.html#133,133,1536,729,1536,864,9-3-2022,9-23-59,45,depth_duration_stimuli/000787_2014-06-08_22-33-53_260595134347_rgbf000175-resize_1/000787_2014-06-08_22-33-53_260595134347_rgbf000175-resize-original.jpg,125,4.784,10,3716,126,meters,jsons/VE125_randls_25.json,1666545,2234670,63,Woman
45,718954,DepthScenes,duration_manipulation_targetAtFixation,jsons/VE125_randls_25.json,http://54.235.29.9/FacialAge/BNav_EC2/DepthDuration/v2_depth_duration_MTurk/v2_DepthDuration_HTML.html#133,133,1536,729,1536,864,9-3-2022,9-23-59,46,depth_duration_stimuli/000810_2014-06-08_17-20-01_260595134347_rgbf000105-resize_0/000810_2014-06-08_17-20-01_260595134347_rgbf000105-resize_0-target.png,125,1.4865,8,4116,125,meters,jsons/VE125_randls_25.json,1666545,2234670,63,Woman
46,718954,DepthScenes,duration_manipulation_targetAtFixation,jsons/VE125_randls_25.json,http://54.235.29.9/FacialAge/BNav_EC2/DepthDuration/v2_depth_duration_MTurk/v2_DepthDuration_HTML.html#133,133,1536,729,1536,864,9-3-2022,9-23-59,47,depth_duration_stimuli/001214_2014-06-17_16-13-55_260595134347_rgbf000111-resize_0/001214_2014-06-17_16-13-55_260595134347_rgbf000111-resize_0-target.png,125,2.6505,5,7043,125,meters,jsons/VE125_randls_25.json,1666545,2234670,63,Woman
47,718954,DepthScenes,duration_manipulation_targetAtFixation,jsons/VE125_randls_25.json,http://54.235.29.9/FacialAge/BNav_EC2/DepthDuration/v2_depth_duration_MTurk/v2_DepthDuration_HTML.html#133,133,1536,729,1536,864,9-3-2022,9-23-59,48,depth_duration_stimuli/000758_2014-06-08_22-05-08_260595134347_rgbf000085-resize_0/000758_2014-06-08_22-05-08_260595134347_rgbf000085-resize_0-target.png,125,3.3810000000000002,12,7612,125,meters,jsons/VE125_randls_25.json,1666545,2234670,63,Woman
48,718954,DepthScenes,duration_manipulation_targetAtFixation,jsons/VE125_randls_25.json,http://54.235.29.9/FacialAge/BNav_EC2/DepthDuration/v2_depth_duration_MTurk/v2_DepthDuration_HTML.html#133,133,1536,729,1536,864,9-3-2022,9-23-59,49,depth_duration_stimuli/000854_2014-06-09_19-43-13_260595134347_rgbf000066-resize_0/000854_2014-06-09_19-43-13_260595134347_rgbf000066-resize_0-target.png,125,3.068,14,9061,125,meters,jsons/VE125_randls_25.json,1666545,2234670,63,Woman
49,718954,DepthScenes,duration_manipulation_targetAtFixation,jsons/VE125_randls_25.json,http://54.235.29.9/FacialAge/BNav_EC2/DepthDuration/v2_depth_duration_MTurk/v2_DepthDuration_HTML.html#133,133,1536,729,1536,864,9-3-2022,9-23-59,50,depth_duration_stimuli/000692_2014-06-08_13-09-42_260595134347_rgbf000199-resize_2/000692_2014-06-08_13-09-42_260595134347_rgbf000199-resize_2-target.png,125,3.661,15,48349,125,meters,jsons/VE125_randls_25.json,1666545,2234670,63,Woman
50,718954,DepthScenes,duration_manipulation_targetAtFixation,jsons/VE125_randls_25.json,http://54.235.29.9/FacialAge/BNav_EC2/DepthDuration/v2_depth_duration_MTurk/v2_DepthDuration_HTML.html#133,133,1536,729,1536,864,9-3-2022,9-23-59,51,depth_duration_stimuli/001094_2014-06-15_17-36-00_260595134347_rgbf000205-resize_0/001094_2014-06-15_17-36-00_260595134347_rgbf000205-resize_0-target.png,125,4.2175,10,4196,126,meters,jsons/VE125_randls_25.json,1666545,2234670,63,Woman
51,718954,DepthScenes,duration_manipulation_targetAtFixation,jsons/VE125_randls_25.json,http://54.235.29.9/FacialAge/BNav_EC2/DepthDuration/v2_depth_duration_MTurk/v2_DepthDuration_HTML.html#133,133,1536,729,1536,864,9-3-2022,9-23-59,52,depth_duration_stimuli/001133_2014-06-17_14-49-16_260595134347_rgbf000100-resize_0/001133_2014-06-17_14-49-16_260595134347_rgbf000100-resize_0-target.png,125,4.2115,12,5610,131,meters,jsons/VE125_randls_25.json,1666545,2234670,63,Woman
52,718954,DepthScenes,duration_manipulation_targetAtFixation,jsons/VE125_randls_25.json,http://54.235.29.9/FacialAge/BNav_EC2/DepthDuration/v2_depth_duration_MTurk/v2_DepthDuration_HTML.html#133,133,1536,729,1536,864,9-3-2022,9-23-59,53,depth_duration_stimuli/001132_2014-06-17_14-48-54_260595134347_rgbf000100-resize_2/001132_2014-06-17_14-48-54_260595134347_rgbf000100-resize_2-target.png,125,3.753,2,4996,124,meters,jsons/VE125_randls_25.json,1666545,2234670,63,Woman
53,718954,DepthScenes,duration_manipulation_targetAtFixation,jsons/VE125_randls_25.json,http://54.235.29.9/FacialAge/BNav_EC2/DepthDuration/v2_depth_duration_MTurk/v2_DepthDuration_HTML.html#133,133,1536,729,1536,864,9-3-2022,9-23-59,54,depth_duration_stimuli/001555_2014-06-20_17-12-10_260595134347_rgbf000065-resize_4/001555_2014-06-20_17-12-10_260595134347_rgbf000065-resize_4-target.png,125,1.633,10,5797,125,meters,jsons/VE125_randls_25.json,1666545,2234670,63,Woman
54,718954,DepthScenes,duration_manipulation_targetAtFixation,jsons/VE125_randls_25.json,http://54.235.29.9/FacialAge/BNav_EC2/DepthDuration/v2_depth_duration_MTurk/v2_DepthDuration_HTML.html#133,133,1536,729,1536,864,9-3-2022,9-23-59,55,depth_duration_stimuli/000103_2014-05-14_22-01-17_260595134347_rgbf000152-resize_5/000103_2014-05-14_22-01-17_260595134347_rgbf000152-resize_5-target.png,125,1.993,6,4447,126,meters,jsons/VE125_randls_25.json,1666545,2234670,63,Woman
55,718954,DepthScenes,duration_manipulation_targetAtFixation,jsons/VE125_randls_25.json,http://54.235.29.9/FacialAge/BNav_EC2/DepthDuration/v2_depth_duration_MTurk/v2_DepthDuration_HTML.html#133,133,1536,729,1536,864,9-3-2022,9-23-59,56,depth_duration_stimuli/002570_2014-06-24_13-59-54_094959634447_rgbf000059-resize_0/002570_2014-06-24_13-59-54_094959634447_rgbf000059-resize_0-target.png,125,4.037,9,9835,125,meters,jsons/VE125_randls_25.json,1666545,2234670,63,Woman
56,718954,DepthScenes,duration_manipulation_targetAtFixation,jsons/VE125_randls_25.json,http://54.235.29.9/FacialAge/BNav_EC2/DepthDuration/v2_depth_duration_MTurk/v2_DepthDuration_HTML.html#133,133,1536,729,1536,864,9-3-2022,9-23-59,57,depth_duration_stimuli/002467_2014-06-28_20-38-07_260595134347_rgbf000026-resize_2/002467_2014-06-28_20-38-07_260595134347_rgbf000026-resize_2-target.png,125,4.742,4,6907,125,meters,jsons/VE125_randls_25.json,1666545,2234670,63,Woman
57,718954,DepthScenes,duration_manipulation_targetAtFixation,jsons/VE125_randls_25.json,http://54.235.29.9/FacialAge/BNav_EC2/DepthDuration/v2_depth_duration_MTurk/v2_DepthDuration_HTML.html#133,133,1536,729,1536,864,9-3-2022,9-23-59,58,depth_duration_stimuli/001570_2014-06-20_17-21-09_260595134347_rgbf000135-resize_4/001570_2014-06-20_17-21-09_260595134347_rgbf000135-resize_4-target.png,125,4.467,5,6239,124,meters,jsons/VE125_randls_25.json,1666545,2234670,63,Woman
58,718954,DepthScenes,duration_manipulation_targetAtFixation,jsons/VE125_randls_25.json,http://54.235.29.9/FacialAge/BNav_EC2/DepthDuration/v2_depth_duration_MTurk/v2_DepthDuration_HTML.html#133,133,1536,729,1536,864,9-3-2022,9-23-59,59,depth_duration_stimuli/001392_2014-06-19_16-07-59_260595134347_rgbf000046-resize_1/001392_2014-06-19_16-07-59_260595134347_rgbf000046-resize_1-target.png,125,4.135,10,3870,120,meters,jsons/VE125_randls_25.json,1666545,2234670,63,Woman
59,718954,DepthScenes,duration_manipulation_targetAtFixation,jsons/VE125_randls_25.json,http://54.235.29.9/FacialAge/BNav_EC2/DepthDuration/v2_depth_duration_MTurk/v2_DepthDuration_HTML.html#133,133,1536,729,1536,864,9-3-2022,9-23-59,60,depth_duration_stimuli/002549_2014-06-24_13-41-39_094959634447_rgbf000022-resize_3/002549_2014-06-24_13-41-39_094959634447_rgbf000022-resize_3-target.png,125,1.476,5,26733,126,meters,jsons/VE125_randls_25.json,1666545,2234670,63,Woman
60,718954,DepthScenes,duration_manipulation_targetAtFixation,jsons/VE125_randls_25.json,http://54.235.29.9/FacialAge/BNav_EC2/DepthDuration/v2_depth_duration_MTurk/v2_DepthDuration_HTML.html#133,133,1536,729,1536,864,9-3-2022,9-23-59,61,depth_duration_stimuli/002750_2014-06-22_19-08-03_094959634447_rgbf000094-resize_4/002750_2014-06-22_19-08-03_094959634447_rgbf000094-resize_4-target.png,125,2.354,8,5290,126,meters,jsons/VE125_randls_25.json,1666545,2234670,63,Woman
61,718954,DepthScenes,duration_manipulation_targetAtFixation,jsons/VE125_randls_25.json,http://54.235.29.9/FacialAge/BNav_EC2/DepthDuration/v2_depth_duration_MTurk/v2_DepthDuration_HTML.html#133,133,1536,729,1536,864,9-3-2022,9-23-59,62,depth_duration_stimuli/001110_2014-06-15_17-25-28_260595134347_rgbf000150-resize_1/001110_2014-06-15_17-25-28_260595134347_rgbf000150-resize_1-target.png,125,1.7115,12,7925,125,meters,jsons/VE125_randls_25.json,1666545,2234670,63,Woman
62,718954,DepthScenes,duration_manipulation_targetAtFixation,jsons/VE125_randls_25.json,http://54.235.29.9/FacialAge/BNav_EC2/DepthDuration/v2_depth_duration_MTurk/v2_DepthDuration_HTML.html#133,133,1536,729,1536,864,9-3-2022,9-23-59,63,depth_duration_stimuli/000927_2014-06-09_16-32-30_260595134347_rgbf000123-resize_3/000927_2014-06-09_16-32-30_260595134347_rgbf000123-resize_3-target.png,125,2.6785,11,7075,125,meters,jsons/VE125_randls_25.json,1666545,2234670,63,Woman
63,718954,DepthScenes,duration_manipulation_targetAtFixation,jsons/VE125_randls_25.json,http://54.235.29.9/FacialAge/BNav_EC2/DepthDuration/v2_depth_duration_MTurk/v2_DepthDuration_HTML.html#133,133,1536,729,1536,864,9-3-2022,9-23-59,64,depth_duration_stimuli/002763_2014-06-22_19-13-10_094959634447_rgbf000075-resize_4/002763_2014-06-22_19-13-10_094959634447_rgbf000075-resize_4-target.png,125,1.68375,6,8380,124,meters,jsons/VE125_randls_25.json,1666545,2234670,63,Woman
64,718954,DepthScenes,duration_manipulation_targetAtFixation,jsons/VE125_randls_25.json,http://54.235.29.9/FacialAge/BNav_EC2/DepthDuration/v2_depth_duration_MTurk/v2_DepthDuration_HTML.html#133,133,1536,729,1536,864,9-3-2022,9-23-59,65,depth_duration_stimuli/002209_2014-06-28_18-36-10_260595134347_rgbf000051-resize_1/002209_2014-06-28_18-36-10_260595134347_rgbf000051-resize_1-target.png,125,2.057,6,6963,125,meters,jsons/VE125_randls_25.json,1666545,2234670,63,Woman
65,718954,DepthScenes,duration_manipulation_targetAtFixation,jsons/VE125_randls_25.json,http://54.235.29.9/FacialAge/BNav_EC2/DepthDuration/v2_depth_duration_MTurk/v2_DepthDuration_HTML.html#133,133,1536,729,1536,864,9-3-2022,9-23-59,66,depth_duration_stimuli/001222_2014-06-17_16-24-06_260595134347_rgbf000073-resize_0/001222_2014-06-17_16-24-06_260595134347_rgbf000073-resize-original.jpg,125,1.4385,9,5753,125,meters,jsons/VE125_randls_25.json,1666545,2234670,63,Woman
66,718954,DepthScenes,duration_manipulation_targetAtFixation,jsons/VE125_randls_25.json,http://54.235.29.9/FacialAge/BNav_EC2/DepthDuration/v2_depth_duration_MTurk/v2_DepthDuration_HTML.html#133,133,1536,729,1536,864,9-3-2022,9-23-59,67,depth_duration_stimuli/000436_2014-06-09_22-25-11_260595134347_rgbf000137-resize_1/000436_2014-06-09_22-25-11_260595134347_rgbf000137-resize_1-target.png,125,4.0705,4,5755,125,meters,jsons/VE125_randls_25.json,1666545,2234670,63,Woman
67,718954,DepthScenes,duration_manipulation_targetAtFixation,jsons/VE125_randls_25.json,http://54.235.29.9/FacialAge/BNav_EC2/DepthDuration/v2_depth_duration_MTurk/v2_DepthDuration_HTML.html#133,133,1536,729,1536,864,9-3-2022,9-23-59,68,depth_duration_stimuli/002444_2014-06-28_20-32-08_260595134347_rgbf000027-resize_0/002444_2014-06-28_20-32-08_260595134347_rgbf000027-resize_0-target.png,125,4.388999999999999,8,5093,125,meters,jsons/VE125_randls_25.json,1666545,2234670,63,Woman
68,718954,DepthScenes,duration_manipulation_targetAtFixation,jsons/VE125_randls_25.json,http://54.235.29.9/FacialAge/BNav_EC2/DepthDuration/v2_depth_duration_MTurk/v2_DepthDuration_HTML.html#133,133,1536,729,1536,864,9-3-2022,9-23-59,69,depth_duration_stimuli/002988_2014-06-15_12-24-20_094959634447_rgbf000150-resize_1/002988_2014-06-15_12-24-20_094959634447_rgbf000150-resize_1-target.png,125,4.7669999999999995,9,6859,126,meters,jsons/VE125_randls_25.json,1666545,2234670,63,Woman
69,718954,DepthScenes,duration_manipulation_targetAtFixation,jsons/VE125_randls_25.json,http://54.235.29.9/FacialAge/BNav_EC2/DepthDuration/v2_depth_duration_MTurk/v2_DepthDuration_HTML.html#133,133,1536,729,1536,864,9-3-2022,9-23-59,70,depth_duration_stimuli/001052_2014-06-08_18-24-54_260595134347_rgbf000130-resize_1/001052_2014-06-08_18-24-54_260595134347_rgbf000130-resize_1-target.png,125,4.1045,10,4371,125,meters,jsons/VE125_randls_25.json,1666545,2234670,63,Woman
70,718954,DepthScenes,duration_manipulation_targetAtFixation,jsons/VE125_randls_25.json,http://54.235.29.9/FacialAge/BNav_EC2/DepthDuration/v2_depth_duration_MTurk/v2_DepthDuration_HTML.html#133,133,1536,729,1536,864,9-3-2022,9-23-59,71,depth_duration_stimuli/001150_2014-06-17_15-27-34_260595134347_rgbf000108-resize_2/001150_2014-06-17_15-27-34_260595134347_rgbf000108-resize_2-target.png,125,4.0325,15,5370,125,meters,jsons/VE125_randls_25.json,1666545,2234670,63,Woman
71,718954,DepthScenes,duration_manipulation_targetAtFixation,jsons/VE125_randls_25.json,http://54.235.29.9/FacialAge/BNav_EC2/DepthDuration/v2_depth_duration_MTurk/v2_DepthDuration_HTML.html#133,133,1536,729,1536,864,9-3-2022,9-23-59,72,depth_duration_stimuli/000665_2014-06-09_20-42-35_260595134347_rgbf000110-resize_1/000665_2014-06-09_20-42-35_260595134347_rgbf000110-resize_1-target.png,125,3.057,8,30839,125,meters,jsons/VE125_randls_25.json,1666545,2234670,63,Woman
72,718954,DepthScenes,duration_manipulation_targetAtFixation,jsons/VE125_randls_25.json,http://54.235.29.9/FacialAge/BNav_EC2/DepthDuration/v2_depth_duration_MTurk/v2_DepthDuration_HTML.html#133,133,1536,729,1536,864,9-3-2022,9-23-59,73,depth_duration_stimuli/001055_2014-06-08_18-45-35_260595134347_rgbf000111-resize_4/001055_2014-06-08_18-45-35_260595134347_rgbf000111-resize_4-target.png,125,2.4290000000000003,10,8658,125,meters,jsons/VE125_randls_25.json,1666545,2234670,63,Woman
73,718954,DepthScenes,duration_manipulation_targetAtFixation,jsons/VE125_randls_25.json,http://54.235.29.9/FacialAge/BNav_EC2/DepthDuration/v2_depth_duration_MTurk/v2_DepthDuration_HTML.html#133,133,1536,729,1536,864,9-3-2022,9-23-59,74,depth_duration_stimuli/000549_2014-06-08_22-10-24_260595134347_rgbf000247-resize_3/000549_2014-06-08_22-10-24_260595134347_rgbf000247-resize_3-target.png,125,1.841,14,5120,124,meters,jsons/VE125_randls_25.json,1666545,2234670,63,Woman
74,718954,DepthScenes,duration_manipulation_targetAtFixation,jsons/VE125_randls_25.json,http://54.235.29.9/FacialAge/BNav_EC2/DepthDuration/v2_depth_duration_MTurk/v2_DepthDuration_HTML.html#133,133,1536,729,1536,864,9-3-2022,9-23-59,75,depth_duration_stimuli/000917_2014-06-09_22-45-29_260595134347_rgbf000149-resize_3/000917_2014-06-09_22-45-29_260595134347_rgbf000149-resize_3-target.png,125,4.1865,15,4356,125,meters,jsons/VE125_randls_25.json,1666545,2234670,63,Woman
75,718954,DepthScenes,duration_manipulation_targetAtFixation,jsons/VE125_randls_25.json,http://54.235.29.9/FacialAge/BNav_EC2/DepthDuration/v2_depth_duration_MTurk/v2_DepthDuration_HTML.html#133,133,1536,729,1536,864,9-3-2022,9-23-59,76,depth_duration_stimuli/002323_2014-06-28_20-01-54_260595134347_rgbf000051-resize_4/002323_2014-06-28_20-01-54_260595134347_rgbf000051-resize_4-target.png,125,3.7310000000000003,6,5719,125,meters,jsons/VE125_randls_25.json,1666545,2234670,63,Woman
76,718954,DepthScenes,duration_manipulation_targetAtFixation,jsons/VE125_randls_25.json,http://54.235.29.9/FacialAge/BNav_EC2/DepthDuration/v2_depth_duration_MTurk/v2_DepthDuration_HTML.html#133,133,1536,729,1536,864,9-3-2022,9-23-59,77,depth_duration_stimuli/003621_2014-05-23_18-06-08_094959634447_rgbf000101-resize_1/003621_2014-05-23_18-06-08_094959634447_rgbf000101-resize_1-target.png,125,3.9835,15,5037,124,meters,jsons/VE125_randls_25.json,1666545,2234670,63,Woman
77,718954,DepthScenes,duration_manipulation_targetAtFixation,jsons/VE125_randls_25.json,http://54.235.29.9/FacialAge/BNav_EC2/DepthDuration/v2_depth_duration_MTurk/v2_DepthDuration_HTML.html#133,133,1536,729,1536,864,9-3-2022,9-23-59,78,depth_duration_stimuli/001584_2014-06-20_11-07-43_260595134347_rgbf000002-resize_1/001584_2014-06-20_11-07-43_260595134347_rgbf000002-resize_1-target.png,125,3.53,9,77557,124,meters,jsons/VE125_randls_25.json,1666545,2234670,63,Woman
78,718954,DepthScenes,duration_manipulation_targetAtFixation,jsons/VE125_randls_25.json,http://54.235.29.9/FacialAge/BNav_EC2/DepthDuration/v2_depth_duration_MTurk/v2_DepthDuration_HTML.html#133,133,1536,729,1536,864,9-3-2022,9-23-59,79,depth_duration_stimuli/001417_2014-06-19_16-25-36_260595134347_rgbf000115-resize_5/001417_2014-06-19_16-25-36_260595134347_rgbf000115-resize_5-target.png,125,4.6255,8,4625,125,meters,jsons/VE125_randls_25.json,1666545,2234670,63,Woman
79,718954,DepthScenes,duration_manipulation_targetAtFixation,jsons/VE125_randls_25.json,http://54.235.29.9/FacialAge/BNav_EC2/DepthDuration/v2_depth_duration_MTurk/v2_DepthDuration_HTML.html#133,133,1536,729,1536,864,9-3-2022,9-23-59,80,depth_duration_stimuli/003081_2014-06-15_15-19-16_094959634447_rgbf000150-resize_1/003081_2014-06-15_15-19-16_094959634447_rgbf000150-resize_1-target.png,125,3.9125,5,6162,126,meters,jsons/VE125_randls_25.json,1666545,2234670,63,Woman
80,718954,DepthScenes,duration_manipulation_targetAtFixation,jsons/VE125_randls_25.json,http://54.235.29.9/FacialAge/BNav_EC2/DepthDuration/v2_depth_duration_MTurk/v2_DepthDuration_HTML.html#133,133,1536,729,1536,864,9-3-2022,9-23-59,81,depth_duration_stimuli/001011_2014-06-08_23-18-54_260595134347_rgbf000044-resize_4/001011_2014-06-08_23-18-54_260595134347_rgbf000044-resize_4-target.png,125,2.4730000000000003,8,7127,124,meters,jsons/VE125_randls_25.json,1666545,2234670,63,Woman
81,718954,DepthScenes,duration_manipulation_targetAtFixation,jsons/VE125_randls_25.json,http://54.235.29.9/FacialAge/BNav_EC2/DepthDuration/v2_depth_duration_MTurk/v2_DepthDuration_HTML.html#133,133,1536,729,1536,864,9-3-2022,9-23-59,82,depth_duration_stimuli/002875_2014-06-01_15-19-00_094959634447_rgbf000151-resize_1/002875_2014-06-01_15-19-00_094959634447_rgbf000151-resize_1-target.png,125,1.9675,7,16695,124,meters,jsons/VE125_randls_25.json,1666545,2234670,63,Woman
82,718954,DepthScenes,duration_manipulation_targetAtFixation,jsons/VE125_randls_25.json,http://54.235.29.9/FacialAge/BNav_EC2/DepthDuration/v2_depth_duration_MTurk/v2_DepthDuration_HTML.html#133,133,1536,729,1536,864,9-3-2022,9-23-59,83,depth_duration_stimuli/001199_2014-06-17_16-03-48_260595134347_rgbf000077-resize_0/001199_2014-06-17_16-03-48_260595134347_rgbf000077-resize_0-target.png,125,3.4375,14,11182,125,meters,jsons/VE125_randls_25.json,1666545,2234670,63,Woman
83,718954,DepthScenes,duration_manipulation_targetAtFixation,jsons/VE125_randls_25.json,http://54.235.29.9/FacialAge/BNav_EC2/DepthDuration/v2_depth_duration_MTurk/v2_DepthDuration_HTML.html#133,133,1536,729,1536,864,9-3-2022,9-23-59,84,depth_duration_stimuli/000502_2014-06-08_23-02-32_260595134347_rgbf000063-resize_4/000502_2014-06-08_23-02-32_260595134347_rgbf000063-resize_4-target.png,125,2.431,7,6645,125,meters,jsons/VE125_randls_25.json,1666545,2234670,63,Woman
84,718954,DepthScenes,duration_manipulation_targetAtFixation,jsons/VE125_randls_25.json,http://54.235.29.9/FacialAge/BNav_EC2/DepthDuration/v2_depth_duration_MTurk/v2_DepthDuration_HTML.html#133,133,1536,729,1536,864,9-3-2022,9-23-59,85,depth_duration_stimuli/000506_2014-06-08_23-21-00_260595134347_rgbf000070-resize_7/000506_2014-06-08_23-21-00_260595134347_rgbf000070-resize_7-target.png,125,4.0585,7,5104,125,meters,jsons/VE125_randls_25.json,1666545,2234670,63,Woman
85,718954,DepthScenes,duration_manipulation_targetAtFixation,jsons/VE125_randls_25.json,http://54.235.29.9/FacialAge/BNav_EC2/DepthDuration/v2_depth_duration_MTurk/v2_DepthDuration_HTML.html#133,133,1536,729,1536,864,9-3-2022,9-23-59,86,depth_duration_stimuli/003079_2014-06-15_15-18-20_094959634447_rgbf000152-resize_8/003079_2014-06-15_15-18-20_094959634447_rgbf000152-resize_8-target.png,125,2.8775,9,4454,125,meters,jsons/VE125_randls_25.json,1666545,2234670,63,Woman
86,718954,DepthScenes,duration_manipulation_targetAtFixation,jsons/VE125_randls_25.json,http://54.235.29.9/FacialAge/BNav_EC2/DepthDuration/v2_depth_duration_MTurk/v2_DepthDuration_HTML.html#133,133,1536,729,1536,864,9-3-2022,9-23-59,87,depth_duration_stimuli/003492_2014-05-21_15-50-55_094959634447_rgbf000828-resize_1/003492_2014-05-21_15-50-55_094959634447_rgbf000828-resize_1-target.png,125,4.06875,7,8903,124,meters,jsons/VE125_randls_25.json,1666545,2234670,63,Woman
87,718954,DepthScenes,duration_manipulation_targetAtFixation,jsons/VE125_randls_25.json,http://54.235.29.9/FacialAge/BNav_EC2/DepthDuration/v2_depth_duration_MTurk/v2_DepthDuration_HTML.html#133,133,1536,729,1536,864,9-3-2022,9-23-59,88,depth_duration_stimuli/002568_2014-06-24_13-59-21_094959634447_rgbf000062-resize_4/002568_2014-06-24_13-59-21_094959634447_rgbf000062-resize_4-target.png,125,3.015,9,10548,129,meters,jsons/VE125_randls_25.json,1666545,2234670,63,Woman
88,718954,DepthScenes,duration_manipulation_targetAtFixation,jsons/VE125_randls_25.json,http://54.235.29.9/FacialAge/BNav_EC2/DepthDuration/v2_depth_duration_MTurk/v2_DepthDuration_HTML.html#133,133,1536,729,1536,864,9-3-2022,9-23-59,89,depth_duration_stimuli/001806_2014-06-26_20-50-20_260595134347_rgbf000091-resize_1/001806_2014-06-26_20-50-20_260595134347_rgbf000091-resize_1-target.png,125,2.7305,15,6099,126,meters,jsons/VE125_randls_25.json,1666545,2234670,63,Woman
89,718954,DepthScenes,duration_manipulation_targetAtFixation,jsons/VE125_randls_25.json,http://54.235.29.9/FacialAge/BNav_EC2/DepthDuration/v2_depth_duration_MTurk/v2_DepthDuration_HTML.html#133,133,1536,729,1536,864,9-3-2022,9-23-59,90,depth_duration_stimuli/001617_2014-06-20_11-35-32_260595134347_rgbf000066-resize_1/001617_2014-06-20_11-35-32_260595134347_rgbf000066-resize_1-target.png,125,3.7910000000000004,16,6102,126,meters,jsons/VE125_randls_25.json,1666545,2234670,63,Woman
90,718954,DepthScenes,duration_manipulation_targetAtFixation,jsons/VE125_randls_25.json,http://54.235.29.9/FacialAge/BNav_EC2/DepthDuration/v2_depth_duration_MTurk/v2_DepthDuration_HTML.html#133,133,1536,729,1536,864,9-3-2022,9-23-59,91,depth_duration_stimuli/000493_2014-06-09_21-01-18_260595134347_rgbf000196-resize_3/000493_2014-06-09_21-01-18_260595134347_rgbf000196-resize_3-target.png,125,3.44,10,6521,126,meters,jsons/VE125_randls_25.json,1666545,2234670,63,Woman
91,718954,DepthScenes,duration_manipulation_targetAtFixation,jsons/VE125_randls_25.json,http://54.235.29.9/FacialAge/BNav_EC2/DepthDuration/v2_depth_duration_MTurk/v2_DepthDuration_HTML.html#133,133,1536,729,1536,864,9-3-2022,9-23-59,92,depth_duration_stimuli/000191_2014-05-12_17-07-38_260595134347_rgbf000199-resize_0/000191_2014-05-12_17-07-38_260595134347_rgbf000199-resize_0-target.png,125,3.7995,8,11731,125,meters,jsons/VE125_randls_25.json,1666545,2234670,63,Woman
92,718954,DepthScenes,duration_manipulation_targetAtFixation,jsons/VE125_randls_25.json,http://54.235.29.9/FacialAge/BNav_EC2/DepthDuration/v2_depth_duration_MTurk/v2_DepthDuration_HTML.html#133,133,1536,729,1536,864,9-3-2022,9-23-59,93,depth_duration_stimuli/002039_2014-06-24_20-22-38_260595134347_rgbf000084-resize_1/002039_2014-06-24_20-22-38_260595134347_rgbf000084-resize_1-target.png,125,4.408,5,3323,126,meters,jsons/VE125_randls_25.json,1666545,2234670,63,Woman
93,718954,DepthScenes,duration_manipulation_targetAtFixation,jsons/VE125_randls_25.json,http://54.235.29.9/FacialAge/BNav_EC2/DepthDuration/v2_depth_duration_MTurk/v2_DepthDuration_HTML.html#133,133,1536,729,1536,864,9-3-2022,9-23-59,94,depth_duration_stimuli/002103_2014-06-25_20-00-40_260595134347_rgbf000049-resize_0/002103_2014-06-25_20-00-40_260595134347_rgbf000049-resize_0-target.png,125,4.105,11,4107,126,meters,jsons/VE125_randls_25.json,1666545,2234670,63,Woman
94,718954,DepthScenes,duration_manipulation_targetAtFixation,jsons/VE125_randls_25.json,http://54.235.29.9/FacialAge/BNav_EC2/DepthDuration/v2_depth_duration_MTurk/v2_DepthDuration_HTML.html#133,133,1536,729,1536,864,9-3-2022,9-23-59,95,depth_duration_stimuli/002989_2014-06-15_12-25-03_094959634447_rgbf000150-resize_3/002989_2014-06-15_12-25-03_094959634447_rgbf000150-resize_3-target.png,125,4.1975,13,5505,125,meters,jsons/VE125_randls_25.json,1666545,2234670,63,Woman
95,718954,DepthScenes,duration_manipulation_targetAtFixation,jsons/VE125_randls_25.json,http://54.235.29.9/FacialAge/BNav_EC2/DepthDuration/v2_depth_duration_MTurk/v2_DepthDuration_HTML.html#133,133,1536,729,1536,864,9-3-2022,9-23-59,96,depth_duration_stimuli/000866_2014-06-09_20-45-42_260595134347_rgbf000139-resize_1/000866_2014-06-09_20-45-42_260595134347_rgbf000139-resize_1-target.png,125,3.2155,14,4151,126,meters,jsons/VE125_randls_25.json,1666545,2234670,63,Woman
96,718954,DepthScenes,duration_manipulation_targetAtFixation,jsons/VE125_randls_25.json,http://54.235.29.9/FacialAge/BNav_EC2/DepthDuration/v2_depth_duration_MTurk/v2_DepthDuration_HTML.html#133,133,1536,729,1536,864,9-3-2022,9-23-59,97,depth_duration_stimuli/001164_2014-06-17_15-35-46_260595134347_rgbf000085-resize_3/001164_2014-06-17_15-35-46_260595134347_rgbf000085-resize_3-target.png,125,2.354,10,5764,126,meters,jsons/VE125_randls_25.json,1666545,2234670,63,Woman
97,718954,DepthScenes,duration_manipulation_targetAtFixation,jsons/VE125_randls_25.json,http://54.235.29.9/FacialAge/BNav_EC2/DepthDuration/v2_depth_duration_MTurk/v2_DepthDuration_HTML.html#133,133,1536,729,1536,864,9-3-2022,9-23-59,98,depth_duration_stimuli/001136_2014-06-17_15-19-41_260595134347_rgbf000076-resize_3/001136_2014-06-17_15-19-41_260595134347_rgbf000076-resize_3-target.png,125,1.8655,5,6596,126,meters,jsons/VE125_randls_25.json,1666545,2234670,63,Woman
98,718954,DepthScenes,duration_manipulation_targetAtFixation,jsons/VE125_randls_25.json,http://54.235.29.9/FacialAge/BNav_EC2/DepthDuration/v2_depth_duration_MTurk/v2_DepthDuration_HTML.html#133,133,1536,729,1536,864,9-3-2022,9-23-59,99,depth_duration_stimuli/001540_2014-06-20_17-01-05_260595134347_rgbf000086-resize_2/001540_2014-06-20_17-01-05_260595134347_rgbf000086-resize-original.jpg,125,1.459,9,5306,124,meters,jsons/VE125_randls_25.json,1666545,2234670,63,Woman
99,718954,DepthScenes,duration_manipulation_targetAtFixation,jsons/VE125_randls_25.json,http://54.235.29.9/FacialAge/BNav_EC2/DepthDuration/v2_depth_duration_MTurk/v2_DepthDuration_HTML.html#133,133,1536,729,1536,864,9-3-2022,9-23-59,100,depth_duration_stimuli/002118_2014-06-25_20-32-08_260595134347_rgbf000078-resize_1/002118_2014-06-25_20-32-08_260595134347_rgbf000078-resize_1-target.png,125,2.6460000000000004,14,22468,124,meters,jsons/VE125_randls_25.json,1666545,2234670,63,Woman
100,718954,DepthScenes,duration_manipulation_targetAtFixation,jsons/VE125_randls_25.json,http://54.235.29.9/FacialAge/BNav_EC2/DepthDuration/v2_depth_duration_MTurk/v2_DepthDuration_HTML.html#133,133,1536,729,1536,864,9-3-2022,9-23-59,101,depth_duration_stimuli/001516_2014-06-20_16-25-09_260595134347_rgbf000076-resize_2/001516_2014-06-20_16-25-09_260595134347_rgbf000076-resize_2-target.png,125,1.7445,8,4957,134,meters,jsons/VE125_randls_25.json,1666545,2234670,63,Woman
101,718954,DepthScenes,duration_manipulation_targetAtFixation,jsons/VE125_randls_25.json,http://54.235.29.9/FacialAge/BNav_EC2/DepthDuration/v2_depth_duration_MTurk/v2_DepthDuration_HTML.html#133,133,1536,729,1536,864,9-3-2022,9-23-59,102,depth_duration_stimuli/002788_2014-06-22_19-36-03_094959634447_rgbf000088-resize_2/002788_2014-06-22_19-36-03_094959634447_rgbf000088-resize_2-target.png,125,1.6465,10,5056,124,meters,jsons/VE125_randls_25.json,1666545,2234670,63,Woman
102,718954,DepthScenes,duration_manipulation_targetAtFixation,jsons/VE125_randls_25.json,http://54.235.29.9/FacialAge/BNav_EC2/DepthDuration/v2_depth_duration_MTurk/v2_DepthDuration_HTML.html#133,133,1536,729,1536,864,9-3-2022,9-23-59,103,depth_duration_stimuli/000749_2014-06-08_21-55-06_260595134347_rgbf000070-resize_2/000749_2014-06-08_21-55-06_260595134347_rgbf000070-resize_2-target.png,125,2.331,5,3019,124,meters,jsons/VE125_randls_25.json,1666545,2234670,63,Woman
103,718954,DepthScenes,duration_manipulation_targetAtFixation,jsons/VE125_randls_25.json,http://54.235.29.9/FacialAge/BNav_EC2/DepthDuration/v2_depth_duration_MTurk/v2_DepthDuration_HTML.html#133,133,1536,729,1536,864,9-3-2022,9-23-59,104,depth_duration_stimuli/001016_2014-06-09_16-16-10_260595134347_rgbf000112-resize_5/001016_2014-06-09_16-16-10_260595134347_rgbf000112-resize_5-target.png,125,1.6565,9,7674,124,meters,jsons/VE125_randls_25.json,1666545,2234670,63,Woman
104,718954,DepthScenes,duration_manipulation_targetAtFixation,jsons/VE125_randls_25.json,http://54.235.29.9/FacialAge/BNav_EC2/DepthDuration/v2_depth_duration_MTurk/v2_DepthDuration_HTML.html#133,133,1536,729,1536,864,9-3-2022,9-23-59,105,depth_duration_stimuli/002340_2014-06-28_20-05-46_260595134347_rgbf000113-resize_0/002340_2014-06-28_20-05-46_260595134347_rgbf000113-resize_0-target.png,125,2.4735,9,5043,128,meters,jsons/VE125_randls_25.json,1666545,2234670,63,Woman
105,718954,DepthScenes,duration_manipulation_targetAtFixation,jsons/VE125_randls_25.json,http://54.235.29.9/FacialAge/BNav_EC2/DepthDuration/v2_depth_duration_MTurk/v2_DepthDuration_HTML.html#133,133,1536,729,1536,864,9-3-2022,9-23-59,106,depth_duration_stimuli/000009_2014-05-26_14-32-05_260595134347_rgbf000034-resize_3/000009_2014-05-26_14-32-05_260595134347_rgbf000034-resize_3-target.png,125,3.8715,3,3613,126,meters,jsons/VE125_randls_25.json,1666545,2234670,63,Woman
106,718954,DepthScenes,duration_manipulation_targetAtFixation,jsons/VE125_randls_25.json,http://54.235.29.9/FacialAge/BNav_EC2/DepthDuration/v2_depth_duration_MTurk/v2_DepthDuration_HTML.html#133,133,1536,729,1536,864,9-3-2022,9-23-59,107,depth_duration_stimuli/001828_2014-06-26_21-40-03_260595134347_rgbf000024-resize_0/001828_2014-06-26_21-40-03_260595134347_rgbf000024-resize_0-target.png,125,4.8260000000000005,10,4698,125,meters,jsons/VE125_randls_25.json,1666545,2234670,63,Woman
107,718954,DepthScenes,duration_manipulation_targetAtFixation,jsons/VE125_randls_25.json,http://54.235.29.9/FacialAge/BNav_EC2/DepthDuration/v2_depth_duration_MTurk/v2_DepthDuration_HTML.html#133,133,1536,729,1536,864,9-3-2022,9-23-59,108,depth_duration_stimuli/002153_2014-06-25_21-27-18_260595134347_rgbf000038-resize_5/002153_2014-06-25_21-27-18_260595134347_rgbf000038-resize_5-target.png,125,2.505,17,5800,125,meters,jsons/VE125_randls_25.json,1666545,2234670,63,Woman
108,718954,DepthScenes,duration_manipulation_targetAtFixation,jsons/VE125_randls_25.json,http://54.235.29.9/FacialAge/BNav_EC2/DepthDuration/v2_depth_duration_MTurk/v2_DepthDuration_HTML.html#133,133,1536,729,1536,864,9-3-2022,9-23-59,109,depth_duration_stimuli/002660_2014-06-13_15-44-18_094959634447_rgbf001878-resize_2/002660_2014-06-13_15-44-18_094959634447_rgbf001878-resize_2-target.png,125,3.576,15,9663,124,meters,jsons/VE125_randls_25.json,1666545,2234670,63,Woman
109,718954,DepthScenes,duration_manipulation_targetAtFixation,jsons/VE125_randls_25.json,http://54.235.29.9/FacialAge/BNav_EC2/DepthDuration/v2_depth_duration_MTurk/v2_DepthDuration_HTML.html#133,133,1536,729,1536,864,9-3-2022,9-23-59,110,depth_duration_stimuli/000469_2014-06-09_19-42-10_260595134347_rgbf000081-resize_1/000469_2014-06-09_19-42-10_260595134347_rgbf000081-resize_1-target.png,125,1.652,14,7076,124,meters,jsons/VE125_randls_25.json,1666545,2234670,63,Woman
110,718954,DepthScenes,duration_manipulation_targetAtFixation,jsons/VE125_randls_25.json,http://54.235.29.9/FacialAge/BNav_EC2/DepthDuration/v2_depth_duration_MTurk/v2_DepthDuration_HTML.html#133,133,1536,729,1536,864,9-3-2022,9-23-59,111,depth_duration_stimuli/000483_2014-06-09_20-41-45_260595134347_rgbf000116-resize_4/000483_2014-06-09_20-41-45_260595134347_rgbf000116-resize_4-target.png,125,1.337,9,4581,126,meters,jsons/VE125_randls_25.json,1666545,2234670,63,Woman
111,718954,DepthScenes,duration_manipulation_targetAtFixation,jsons/VE125_randls_25.json,http://54.235.29.9/FacialAge/BNav_EC2/DepthDuration/v2_depth_duration_MTurk/v2_DepthDuration_HTML.html#133,133,1536,729,1536,864,9-3-2022,9-23-59,112,depth_duration_stimuli/001056_2014-06-08_18-46-44_260595134347_rgbf000068-resize_0/001056_2014-06-08_18-46-44_260595134347_rgbf000068-resize_0-target.png,125,2.6625,8,4020,125,meters,jsons/VE125_randls_25.json,1666545,2234670,63,Woman
112,718954,DepthScenes,duration_manipulation_targetAtFixation,jsons/VE125_randls_25.json,http://54.235.29.9/FacialAge/BNav_EC2/DepthDuration/v2_depth_duration_MTurk/v2_DepthDuration_HTML.html#133,133,1536,729,1536,864,9-3-2022,9-23-59,113,depth_duration_stimuli/002199_2014-06-28_18-33-56_260595134347_rgbf000074-resize_0/002199_2014-06-28_18-33-56_260595134347_rgbf000074-resize_0-target.png,125,1.996,7,7692,126,meters,jsons/VE125_randls_25.json,1666545,2234670,63,Woman
113,718954,DepthScenes,duration_manipulation_targetAtFixation,jsons/VE125_randls_25.json,http://54.235.29.9/FacialAge/BNav_EC2/DepthDuration/v2_depth_duration_MTurk/v2_DepthDuration_HTML.html#133,133,1536,729,1536,864,9-3-2022,9-23-59,114,depth_duration_stimuli/001092_2014-06-15_17-34-58_260595134347_rgbf000171-resize_3/001092_2014-06-15_17-34-58_260595134347_rgbf000171-resize_3-target.png,125,2.6935,6,3871,125,meters,jsons/VE125_randls_25.json,1666545,2234670,63,Woman
114,718954,DepthScenes,duration_manipulation_targetAtFixation,jsons/VE125_randls_25.json,http://54.235.29.9/FacialAge/BNav_EC2/DepthDuration/v2_depth_duration_MTurk/v2_DepthDuration_HTML.html#133,133,1536,729,1536,864,9-3-2022,9-23-59,115,depth_duration_stimuli/002545_2014-06-24_13-38-53_094959634447_rgbf000080-resize_4/002545_2014-06-24_13-38-53_094959634447_rgbf000080-resize_4-target.png,125,1.9205,9,3107,126,meters,jsons/VE125_randls_25.json,1666545,2234670,63,Woman
115,718954,DepthScenes,duration_manipulation_targetAtFixation,jsons/VE125_randls_25.json,http://54.235.29.9/FacialAge/BNav_EC2/DepthDuration/v2_depth_duration_MTurk/v2_DepthDuration_HTML.html#133,133,1536,729,1536,864,9-3-2022,9-23-59,116,depth_duration_stimuli/001170_2014-06-17_15-43-44_260595134347_rgbf000096-resize_6/001170_2014-06-17_15-43-44_260595134347_rgbf000096-resize-original.jpg,125,1.1909999999999998,5,4636,126,meters,jsons/VE125_randls_25.json,1666545,2234670,63,Woman
116,718954,DepthScenes,duration_manipulation_targetAtFixation,jsons/VE125_randls_25.json,http://54.235.29.9/FacialAge/BNav_EC2/DepthDuration/v2_depth_duration_MTurk/v2_DepthDuration_HTML.html#133,133,1536,729,1536,864,9-3-2022,9-23-59,117,depth_duration_stimuli/000878_2014-06-08_22-52-45_260595134347_rgbf000045-resize_2/000878_2014-06-08_22-52-45_260595134347_rgbf000045-resize_2-target.png,125,2.092,10,3357,126,meters,jsons/VE125_randls_25.json,1666545,2234670,63,Woman
117,718954,DepthScenes,duration_manipulation_targetAtFixation,jsons/VE125_randls_25.json,http://54.235.29.9/FacialAge/BNav_EC2/DepthDuration/v2_depth_duration_MTurk/v2_DepthDuration_HTML.html#133,133,1536,729,1536,864,9-3-2022,9-23-59,118,depth_duration_stimuli/002953_2014-06-08_17-32-18_094959634447_rgbf000059-resize_5/002953_2014-06-08_17-32-18_094959634447_rgbf000059-resize_5-target.png,125,1.551,9,153475,125,meters,jsons/VE125_randls_25.json,1666545,2234670,63,Woman
118,718954,DepthScenes,duration_manipulation_targetAtFixation,jsons/VE125_randls_25.json,http://54.235.29.9/FacialAge/BNav_EC2/DepthDuration/v2_depth_duration_MTurk/v2_DepthDuration_HTML.html#133,133,1536,729,1536,864,9-3-2022,9-23-59,119,depth_duration_stimuli/002600_2014-06-24_14-27-04_094959634447_rgbf000074-resize_2/002600_2014-06-24_14-27-04_094959634447_rgbf000074-resize_2-target.png,125,2.7575,15,5425,124,meters,jsons/VE125_randls_25.json,1666545,2234670,63,Woman
119,718954,DepthScenes,duration_manipulation_targetAtFixation,jsons/VE125_randls_25.json,http://54.235.29.9/FacialAge/BNav_EC2/DepthDuration/v2_depth_duration_MTurk/v2_DepthDuration_HTML.html#133,133,1536,729,1536,864,9-3-2022,9-23-59,120,depth_duration_stimuli/003228_2014-05-14_13-42-35_094959634447_rgbf000101-resize_1/003228_2014-05-14_13-42-35_094959634447_rgbf000101-resize_1-target.png,125,1.9680000000000002,10,6302,126,meters,jsons/VE125_randls_25.json,1666545,2234670,63,Woman
120,718954,DepthScenes,duration_manipulation_targetAtFixation,jsons/VE125_randls_25.json,http://54.235.29.9/FacialAge/BNav_EC2/DepthDuration/v2_depth_duration_MTurk/v2_DepthDuration_HTML.html#133,133,1536,729,1536,864,9-3-2022,9-23-59,121,depth_duration_stimuli/002375_2014-06-28_20-13-44_260595134347_rgbf000032-resize_1/002375_2014-06-28_20-13-44_260595134347_rgbf000032-resize_1-target.png,125,4.0175,14,5468,126,meters,jsons/VE125_randls_25.json,1666545,2234670,63,Woman
121,718954,DepthScenes,duration_manipulation_targetAtFixation,jsons/VE125_randls_25.json,http://54.235.29.9/FacialAge/BNav_EC2/DepthDuration/v2_depth_duration_MTurk/v2_DepthDuration_HTML.html#133,133,1536,729,1536,864,9-3-2022,9-23-59,122,depth_duration_stimuli/002657_2014-06-13_15-29-54_094959634447_rgbf000150-resize_1/002657_2014-06-13_15-29-54_094959634447_rgbf000150-resize_1-target.png,125,4.919,8,3910,125,meters,jsons/VE125_randls_25.json,1666545,2234670,63,Woman
122,718954,DepthScenes,duration_manipulation_targetAtFixation,jsons/VE125_randls_25.json,http://54.235.29.9/FacialAge/BNav_EC2/DepthDuration/v2_depth_duration_MTurk/v2_DepthDuration_HTML.html#133,133,1536,729,1536,864,9-3-2022,9-23-59,123,depth_duration_stimuli/002509_2014-06-24_13-19-22_094959634447_rgbf000077-resize_0/002509_2014-06-24_13-19-22_094959634447_rgbf000077-resize_0-target.png,125,1.3065,4,6885,125,meters,jsons/VE125_randls_25.json,1666545,2234670,63,Woman
123,718954,DepthScenes,duration_manipulation_targetAtFixation,jsons/VE125_randls_25.json,http://54.235.29.9/FacialAge/BNav_EC2/DepthDuration/v2_depth_duration_MTurk/v2_DepthDuration_HTML.html#133,133,1536,729,1536,864,9-3-2022,9-23-59,124,depth_duration_stimuli/003338_2014-05-20_11-01-23_094959634447_rgbf000051-resize_6/003338_2014-05-20_11-01-23_094959634447_rgbf000051-resize_6-target.png,125,1.693,8,2590,124,meters,jsons/VE125_randls_25.json,1666545,2234670,63,Woman
124,718954,DepthScenes,duration_manipulation_targetAtFixation,jsons/VE125_randls_25.json,http://54.235.29.9/FacialAge/BNav_EC2/DepthDuration/v2_depth_duration_MTurk/v2_DepthDuration_HTML.html#133,133,1536,729,1536,864,9-3-2022,9-23-59,125,depth_duration_stimuli/000470_2014-06-09_19-42-40_260595134347_rgbf000094-resize_1/000470_2014-06-09_19-42-40_260595134347_rgbf000094-resize_1-target.png,125,1.831,7,4808,127,meters,jsons/VE125_randls_25.json,1666545,2234670,63,Woman
125,718954,DepthScenes,duration_manipulation_targetAtFixation,jsons/VE125_randls_25.json,http://54.235.29.9/FacialAge/BNav_EC2/DepthDuration/v2_depth_duration_MTurk/v2_DepthDuration_HTML.html#133,133,1536,729,1536,864,9-3-2022,9-23-59,126,depth_duration_stimuli/000109_2014-05-14_23-41-52_260595134347_rgbf000035-resize_9/000109_2014-05-14_23-41-52_260595134347_rgbf000035-resize_9-target.png,125,1.3545,9,9979,124,meters,jsons/VE125_randls_25.json,1666545,2234670,63,Woman
126,718954,DepthScenes,duration_manipulation_targetAtFixation,jsons/VE125_randls_25.json,http://54.235.29.9/FacialAge/BNav_EC2/DepthDuration/v2_depth_duration_MTurk/v2_DepthDuration_HTML.html#133,133,1536,729,1536,864,9-3-2022,9-23-59,127,depth_duration_stimuli/001175_2014-06-17_15-45-55_260595134347_rgbf000129-resize_4/001175_2014-06-17_15-45-55_260595134347_rgbf000129-resize_4-target.png,125,4.255,10,3545,126,meters,jsons/VE125_randls_25.json,1666545,2234670,63,Woman
127,718954,DepthScenes,duration_manipulation_targetAtFixation,jsons/VE125_randls_25.json,http://54.235.29.9/FacialAge/BNav_EC2/DepthDuration/v2_depth_duration_MTurk/v2_DepthDuration_HTML.html#133,133,1536,729,1536,864,9-3-2022,9-23-59,128,depth_duration_stimuli/003490_2014-05-21_15-50-11_094959634447_rgbf000101-resize_3/003490_2014-05-21_15-50-11_094959634447_rgbf000101-resize_3-target.png,125,3.6445,15,4962,126,meters,jsons/VE125_randls_25.json,1666545,2234670,63,Woman
128,718954,DepthScenes,duration_manipulation_targetAtFixation,jsons/VE125_randls_25.json,http://54.235.29.9/FacialAge/BNav_EC2/DepthDuration/v2_depth_duration_MTurk/v2_DepthDuration_HTML.html#133,133,1536,729,1536,864,9-3-2022,9-23-59,129,depth_duration_stimuli/002057_2014-06-24_21-00-13_260595134347_rgbf000120-resize_1/002057_2014-06-24_21-00-13_260595134347_rgbf000120-resize_1-target.png,125,2.967,9,4453,125,meters,jsons/VE125_randls_25.json,1666545,2234670,63,Woman
129,718954,DepthScenes,duration_manipulation_targetAtFixation,jsons/VE125_randls_25.json,http://54.235.29.9/FacialAge/BNav_EC2/DepthDuration/v2_depth_duration_MTurk/v2_DepthDuration_HTML.html#133,133,1536,729,1536,864,9-3-2022,9-23-59,130,depth_duration_stimuli/000709_2014-06-08_13-51-55_260595134347_rgbf000068-resize_3/000709_2014-06-08_13-51-55_260595134347_rgbf000068-resize_3-target.png,125,1.8030000000000002,7,4628,125,meters,jsons/VE125_randls_25.json,1666545,2234670,63,Woman
130,718954,DepthScenes,duration_manipulation_targetAtFixation,jsons/VE125_randls_25.json,http://54.235.29.9/FacialAge/BNav_EC2/DepthDuration/v2_depth_duration_MTurk/v2_DepthDuration_HTML.html#133,133,1536,729,1536,864,9-3-2022,9-23-59,131,depth_duration_stimuli/002748_2014-06-22_19-07-22_094959634447_rgbf000078-resize_1/002748_2014-06-22_19-07-22_094959634447_rgbf000078-resize_1-target.png,125,4.6705,6,5583,125,meters,jsons/VE125_randls_25.json,1666545,2234670,63,Woman
131,718954,DepthScenes,duration_manipulation_targetAtFixation,jsons/VE125_randls_25.json,http://54.235.29.9/FacialAge/BNav_EC2/DepthDuration/v2_depth_duration_MTurk/v2_DepthDuration_HTML.html#133,133,1536,729,1536,864,9-3-2022,9-23-59,132,depth_duration_stimuli/002995_2014-06-15_12-31-26_094959634447_rgbf000150-resize_1/002995_2014-06-15_12-31-26_094959634447_rgbf000150-resize_1-target.png,125,3.8360000000000003,8,3262,125,meters,jsons/VE125_randls_25.json,1666545,2234670,63,Woman
132,718954,DepthScenes,duration_manipulation_targetAtFixation,jsons/VE125_randls_25.json,http://54.235.29.9/FacialAge/BNav_EC2/DepthDuration/v2_depth_duration_MTurk/v2_DepthDuration_HTML.html#133,133,1536,729,1536,864,9-3-2022,9-23-59,133,depth_duration_stimuli/000736_2014-06-08_18-24-15_260595134347_rgbf000206-resize_3/000736_2014-06-08_18-24-15_260595134347_rgbf000206-resize_3-target.png,125,3.515,14,7858,124,meters,jsons/VE125_randls_25.json,1666545,2234670,63,Woman
133,718954,DepthScenes,duration_manipulation_targetAtFixation,jsons/VE125_randls_25.json,http://54.235.29.9/FacialAge/BNav_EC2/DepthDuration/v2_depth_duration_MTurk/v2_DepthDuration_HTML.html#133,133,1536,729,1536,864,9-3-2022,9-23-59,134,depth_duration_stimuli/000137_2014-05-20_17-04-49_260595134347_rgbf000120-resize_1/000137_2014-05-20_17-04-49_260595134347_rgbf000120-resize_1-target.png,125,3.786,9,4271,125,meters,jsons/VE125_randls_25.json,1666545,2234670,63,Woman
134,718954,DepthScenes,duration_manipulation_targetAtFixation,jsons/VE125_randls_25.json,http://54.235.29.9/FacialAge/BNav_EC2/DepthDuration/v2_depth_duration_MTurk/v2_DepthDuration_HTML.html#133,133,1536,729,1536,864,9-3-2022,9-23-59,135,depth_duration_stimuli/002072_2014-06-24_21-48-06_260595134347_rgbf000115-resize_0/002072_2014-06-24_21-48-06_260595134347_rgbf000115-resize-original.jpg,125,4.702,7,12874,127,meters,jsons/VE125_randls_25.json,1666545,2234670,63,Woman
135,718954,DepthScenes,duration_manipulation_targetAtFixation,jsons/VE125_randls_25.json,http://54.235.29.9/FacialAge/BNav_EC2/DepthDuration/v2_depth_duration_MTurk/v2_DepthDuration_HTML.html#133,133,1536,729,1536,864,9-3-2022,9-23-59,136,depth_duration_stimuli/002279_2014-06-28_18-55-32_260595134347_rgbf000040-resize_5/002279_2014-06-28_18-55-32_260595134347_rgbf000040-resize_5-target.png,125,1.5043333333333,8,9615,126,meters,jsons/VE125_randls_25.json,1666545,2234670,63,Woman
136,718954,DepthScenes,duration_manipulation_targetAtFixation,jsons/VE125_randls_25.json,http://54.235.29.9/FacialAge/BNav_EC2/DepthDuration/v2_depth_duration_MTurk/v2_DepthDuration_HTML.html#133,133,1536,729,1536,864,9-3-2022,9-23-59,137,depth_duration_stimuli/000635_2014-06-08_16-38-42_260595134347_rgbf000106-resize_1/000635_2014-06-08_16-38-42_260595134347_rgbf000106-resize_1-target.png,125,2.074,9,4338,125,meters,jsons/VE125_randls_25.json,1666545,2234670,63,Woman
137,718954,DepthScenes,duration_manipulation_targetAtFixation,jsons/VE125_randls_25.json,http://54.235.29.9/FacialAge/BNav_EC2/DepthDuration/v2_depth_duration_MTurk/v2_DepthDuration_HTML.html#133,133,1536,729,1536,864,9-3-2022,9-23-59,138,depth_duration_stimuli/000414_2014-06-04_19-49-13_260595134347_rgbf000044-resize_0/000414_2014-06-04_19-49-13_260595134347_rgbf000044-resize_0-target.png,125,4.329,5,3279,125,meters,jsons/VE125_randls_25.json,1666545,2234670,63,Woman
138,718954,DepthScenes,duration_manipulation_targetAtFixation,jsons/VE125_randls_25.json,http://54.235.29.9/FacialAge/BNav_EC2/DepthDuration/v2_depth_duration_MTurk/v2_DepthDuration_HTML.html#133,133,1536,729,1536,864,9-3-2022,9-23-59,139,depth_duration_stimuli/003129_2014-05-12_10-48-10_094959634447_rgbf000100-resize_0/003129_2014-05-12_10-48-10_094959634447_rgbf000100-resize_0-target.png,125,4.9305,10,4222,124,meters,jsons/VE125_randls_25.json,1666545,2234670,63,Woman
139,718954,DepthScenes,duration_manipulation_targetAtFixation,jsons/VE125_randls_25.json,http://54.235.29.9/FacialAge/BNav_EC2/DepthDuration/v2_depth_duration_MTurk/v2_DepthDuration_HTML.html#133,133,1536,729,1536,864,9-3-2022,9-23-59,140,depth_duration_stimuli/001808_2014-06-26_20-50-58_260595134347_rgbf000029-resize_1/001808_2014-06-26_20-50-58_260595134347_rgbf000029-resize_1-target.png,125,4.249,8,3286,126,meters,jsons/VE125_randls_25.json,1666545,2234670,63,Woman
140,718954,DepthScenes,duration_manipulation_targetAtFixation,jsons/VE125_randls_25.json,http://54.235.29.9/FacialAge/BNav_EC2/DepthDuration/v2_depth_duration_MTurk/v2_DepthDuration_HTML.html#133,133,1536,729,1536,864,9-3-2022,9-23-59,141,depth_duration_stimuli/001815_2014-06-26_20-52-55_260595134347_rgbf000020-resize_0/001815_2014-06-26_20-52-55_260595134347_rgbf000020-resize_0-target.png,125,3.3865,14,6386,125,meters,jsons/VE125_randls_25.json,1666545,2234670,63,Woman
141,718954,DepthScenes,duration_manipulation_targetAtFixation,jsons/VE125_randls_25.json,http://54.235.29.9/FacialAge/BNav_EC2/DepthDuration/v2_depth_duration_MTurk/v2_DepthDuration_HTML.html#133,133,1536,729,1536,864,9-3-2022,9-23-59,142,depth_duration_stimuli/000486_2014-06-09_20-47-20_260595134347_rgbf000143-resize_2/000486_2014-06-09_20-47-20_260595134347_rgbf000143-resize_2-target.png,125,4.8325,15,3718,126,meters,jsons/VE125_randls_25.json,1666545,2234670,63,Woman
142,718954,DepthScenes,duration_manipulation_targetAtFixation,jsons/VE125_randls_25.json,http://54.235.29.9/FacialAge/BNav_EC2/DepthDuration/v2_depth_duration_MTurk/v2_DepthDuration_HTML.html#133,133,1536,729,1536,864,9-3-2022,9-23-59,143,depth_duration_stimuli/003083_2014-06-15_15-21-03_094959634447_rgbf000063-resize_1/003083_2014-06-15_15-21-03_094959634447_rgbf000063-resize_1-target.png,125,4.1405,12,4399,126,meters,jsons/VE125_randls_25.json,1666545,2234670,63,Woman
143,718954,DepthScenes,duration_manipulation_targetAtFixation,jsons/VE125_randls_25.json,http://54.235.29.9/FacialAge/BNav_EC2/DepthDuration/v2_depth_duration_MTurk/v2_DepthDuration_HTML.html#133,133,1536,729,1536,864,9-3-2022,9-23-59,144,depth_duration_stimuli/002213_2014-06-28_18-37-58_260595134347_rgbf000055-resize_1/002213_2014-06-28_18-37-58_260595134347_rgbf000055-resize_1-target.png,125,3.62,8,10042,125,meters,jsons/VE125_randls_25.json,1666545,2234670,63,Woman
144,718954,DepthScenes,duration_manipulation_targetAtFixation,jsons/VE125_randls_25.json,http://54.235.29.9/FacialAge/BNav_EC2/DepthDuration/v2_depth_duration_MTurk/v2_DepthDuration_HTML.html#133,133,1536,729,1536,864,9-3-2022,9-23-59,145,depth_duration_stimuli/000691_2014-06-08_13-08-50_260595134347_rgbf000132-resize_3/000691_2014-06-08_13-08-50_260595134347_rgbf000132-resize_3-target.png,125,4.1530000000000005,10,3983,124,meters,jsons/VE125_randls_25.json,1666545,2234670,63,Woman
145,718954,DepthScenes,duration_manipulation_targetAtFixation,jsons/VE125_randls_25.json,http://54.235.29.9/FacialAge/BNav_EC2/DepthDuration/v2_depth_duration_MTurk/v2_DepthDuration_HTML.html#133,133,1536,729,1536,864,9-3-2022,9-23-59,146,depth_duration_stimuli/001498_2014-06-19_17-45-14_260595134347_rgbf000129-resize_4/001498_2014-06-19_17-45-14_260595134347_rgbf000129-resize-original.jpg,125,1.4075,4,4704,125,meters,jsons/VE125_randls_25.json,1666545,2234670,63,Woman
146,718954,DepthScenes,duration_manipulation_targetAtFixation,jsons/VE125_randls_25.json,http://54.235.29.9/FacialAge/BNav_EC2/DepthDuration/v2_depth_duration_MTurk/v2_DepthDuration_HTML.html#133,133,1536,729,1536,864,9-3-2022,9-23-59,147,depth_duration_stimuli/000739_2014-06-08_18-45-58_260595134347_rgbf000068-resize_1/000739_2014-06-08_18-45-58_260595134347_rgbf000068-resize_1-target.png,125,3.534,6,5412,125,meters,jsons/VE125_randls_25.json,1666545,2234670,63,Woman
147,718954,DepthScenes,duration_manipulation_targetAtFixation,jsons/VE125_randls_25.json,http://54.235.29.9/FacialAge/BNav_EC2/DepthDuration/v2_depth_duration_MTurk/v2_DepthDuration_HTML.html#133,133,1536,729,1536,864,9-3-2022,9-23-59,148,depth_duration_stimuli/000734_2014-06-08_17-39-11_260595134347_rgbf000128-resize_2/000734_2014-06-08_17-39-11_260595134347_rgbf000128-resize_2-target.png,125,4.098,10,2975,125,meters,jsons/VE125_randls_25.json,1666545,2234670,63,Woman
148,718954,DepthScenes,duration_manipulation_targetAtFixation,jsons/VE125_randls_25.json,http://54.235.29.9/FacialAge/BNav_EC2/DepthDuration/v2_depth_duration_MTurk/v2_DepthDuration_HTML.html#133,133,1536,729,1536,864,9-3-2022,9-23-59,149,depth_duration_stimuli/002964_2014-06-08_17-46-11_094959634447_rgbf000091-resize_4/002964_2014-06-08_17-46-11_094959634447_rgbf000091-resize_4-target.png,125,1.6909999999999998,5,5638,126,meters,jsons/VE125_randls_25.json,1666545,2234670,63,Woman
149,718954,DepthScenes,duration_manipulation_targetAtFixation,jsons/VE125_randls_25.json,http://54.235.29.9/FacialAge/BNav_EC2/DepthDuration/v2_depth_duration_MTurk/v2_DepthDuration_HTML.html#133,133,1536,729,1536,864,9-3-2022,9-23-59,150,depth_duration_stimuli/002136_2014-06-25_21-18-03_260595134347_rgbf000109-resize_3/002136_2014-06-25_21-18-03_260595134347_rgbf000109-resize_3-target.png,125,1.9569999999999999,16,5239,124,meters,jsons/VE125_randls_25.json,1666545,2234670,63,Woman
150,718954,DepthScenes,duration_manipulation_targetAtFixation,jsons/VE125_randls_25.json,http://54.235.29.9/FacialAge/BNav_EC2/DepthDuration/v2_depth_duration_MTurk/v2_DepthDuration_HTML.html#133,133,1536,729,1536,864,9-3-2022,9-23-59,151,depth_duration_stimuli/000929_2014-06-09_16-33-19_260595134347_rgbf000139-resize_0/000929_2014-06-09_16-33-19_260595134347_rgbf000139-resize_0-target.png,125,2.8680000000000003,16,5955,125,meters,jsons/VE125_randls_25.json,1666545,2234670,63,Woman
151,718954,DepthScenes,duration_manipulation_targetAtFixation,jsons/VE125_randls_25.json,http://54.235.29.9/FacialAge/BNav_EC2/DepthDuration/v2_depth_duration_MTurk/v2_DepthDuration_HTML.html#133,133,1536,729,1536,864,9-3-2022,9-23-59,152,depth_duration_stimuli/000457_2014-06-08_16-52-43_260595134347_rgbf000199-resize_1/000457_2014-06-08_16-52-43_260595134347_rgbf000199-resize_1-target.png,125,3.6489999999999996,12,3378,126,meters,jsons/VE125_randls_25.json,1666545,2234670,63,Woman
152,718954,DepthScenes,duration_manipulation_targetAtFixation,jsons/VE125_randls_25.json,http://54.235.29.9/FacialAge/BNav_EC2/DepthDuration/v2_depth_duration_MTurk/v2_DepthDuration_HTML.html#133,133,1536,729,1536,864,9-3-2022,9-23-59,153,depth_duration_stimuli/001029_2014-06-08_13-17-57_260595134347_rgbf000065-resize_1/001029_2014-06-08_13-17-57_260595134347_rgbf000065-resize_1-target.png,125,3.0835,10,7075,125,meters,jsons/VE125_randls_25.json,1666545,2234670,63,Woman
153,718954,DepthScenes,duration_manipulation_targetAtFixation,jsons/VE125_randls_25.json,http://54.235.29.9/FacialAge/BNav_EC2/DepthDuration/v2_depth_duration_MTurk/v2_DepthDuration_HTML.html#133,133,1536,729,1536,864,9-3-2022,9-23-59,154,depth_duration_stimuli/000677_2014-06-08_23-10-32_260595134347_rgbf000158-resize_6/000677_2014-06-08_23-10-32_260595134347_rgbf000158-resize_6-target.png,125,3.556,6,16159,125,meters,jsons/VE125_randls_25.json,1666545,2234670,63,Woman
154,718954,DepthScenes,duration_manipulation_targetAtFixation,jsons/VE125_randls_25.json,http://54.235.29.9/FacialAge/BNav_EC2/DepthDuration/v2_depth_duration_MTurk/v2_DepthDuration_HTML.html#133,133,1536,729,1536,864,9-3-2022,9-23-59,155,depth_duration_stimuli/001167_2014-06-17_15-38-07_260595134347_rgbf000108-resize_0/001167_2014-06-17_15-38-07_260595134347_rgbf000108-resize_0-target.png,125,1.8505,8,3120,125,meters,jsons/VE125_randls_25.json,1666545,2234670,63,Woman
155,718954,DepthScenes,duration_manipulation_targetAtFixation,jsons/VE125_randls_25.json,http://54.235.29.9/FacialAge/BNav_EC2/DepthDuration/v2_depth_duration_MTurk/v2_DepthDuration_HTML.html#133,133,1536,729,1536,864,9-3-2022,9-23-59,156,depth_duration_stimuli/003587_2014-05-23_16-48-02_094959634447_rgbf002384-resize_2/003587_2014-05-23_16-48-02_094959634447_rgbf002384-resize_2-target.png,125,1.357,11,2795,125,meters,jsons/VE125_randls_25.json,1666545,2234670,63,Woman
156,718954,DepthScenes,duration_manipulation_targetAtFixation,jsons/VE125_randls_25.json,http://54.235.29.9/FacialAge/BNav_EC2/DepthDuration/v2_depth_duration_MTurk/v2_DepthDuration_HTML.html#133,133,1536,729,1536,864,9-3-2022,9-23-59,157,depth_duration_stimuli/003070_2014-06-15_14-58-27_094959634447_rgbf000150-resize_3/003070_2014-06-15_14-58-27_094959634447_rgbf000150-resize_3-target.png,125,2.9415,9,3250,125,meters,jsons/VE125_randls_25.json,1666545,2234670,63,Woman
157,718954,DepthScenes,duration_manipulation_targetAtFixation,jsons/VE125_randls_25.json,http://54.235.29.9/FacialAge/BNav_EC2/DepthDuration/v2_depth_duration_MTurk/v2_DepthDuration_HTML.html#133,133,1536,729,1536,864,9-3-2022,9-23-59,158,depth_duration_stimuli/000943_2014-06-09_19-31-07_260595134347_rgbf000128-resize_1/000943_2014-06-09_19-31-07_260595134347_rgbf000128-resize_1-target.png,125,1.9765,5,2916,124,meters,jsons/VE125_randls_25.json,1666545,2234670,63,Woman
158,718954,DepthScenes,duration_manipulation_targetAtFixation,jsons/VE125_randls_25.json,http://54.235.29.9/FacialAge/BNav_EC2/DepthDuration/v2_depth_duration_MTurk/v2_DepthDuration_HTML.html#133,133,1536,729,1536,864,9-3-2022,9-23-59,159,depth_duration_stimuli/000773_2014-06-08_22-24-54_260595134347_rgbf000093-resize_1/000773_2014-06-08_22-24-54_260595134347_rgbf000093-resize_1-target.png,125,4.973,14,3666,125,meters,jsons/VE125_randls_25.json,1666545,2234670,63,Woman
159,718954,DepthScenes,duration_manipulation_targetAtFixation,jsons/VE125_randls_25.json,http://54.235.29.9/FacialAge/BNav_EC2/DepthDuration/v2_depth_duration_MTurk/v2_DepthDuration_HTML.html#133,133,1536,729,1536,864,9-3-2022,9-23-59,160,depth_duration_stimuli/002414_2014-06-28_20-24-58_260595134347_rgbf000067-resize_4/002414_2014-06-28_20-24-58_260595134347_rgbf000067-resize_4-target.png,125,4.363,6,6736,124,meters,jsons/VE125_randls_25.json,1666545,2234670,63,Woman
160,718954,DepthScenes,duration_manipulation_targetAtFixation,jsons/VE125_randls_25.json,http://54.235.29.9/FacialAge/BNav_EC2/DepthDuration/v2_depth_duration_MTurk/v2_DepthDuration_HTML.html#133,133,1536,729,1536,864,9-3-2022,9-23-59,161,depth_duration_stimuli/000682_2014-06-08_23-14-58_260595134347_rgbf000041-resize_5/000682_2014-06-08_23-14-58_260595134347_rgbf000041-resize_5-target.png,125,2.7239999999999998,9,9279,126,meters,jsons/VE125_randls_25.json,1666545,2234670,63,Woman
161,718954,DepthScenes,duration_manipulation_targetAtFixation,jsons/VE125_randls_25.json,http://54.235.29.9/FacialAge/BNav_EC2/DepthDuration/v2_depth_duration_MTurk/v2_DepthDuration_HTML.html#133,133,1536,729,1536,864,9-3-2022,9-23-59,162,depth_duration_stimuli/001650_2014-06-20_12-09-00_260595134347_rgbf000087-resize_3/001650_2014-06-20_12-09-00_260595134347_rgbf000087-resize_3-target.png,125,1.9505,7,6013,125,meters,jsons/VE125_randls_25.json,1666545,2234670,63,Woman
162,718954,DepthScenes,duration_manipulation_targetAtFixation,jsons/VE125_randls_25.json,http://54.235.29.9/FacialAge/BNav_EC2/DepthDuration/v2_depth_duration_MTurk/v2_DepthDuration_HTML.html#133,133,1536,729,1536,864,9-3-2022,9-23-59,163,depth_duration_stimuli/002272_2014-06-28_18-53-56_260595134347_rgbf000067-resize_2/002272_2014-06-28_18-53-56_260595134347_rgbf000067-resize_2-target.png,125,1.138,10,5394,125,meters,jsons/VE125_randls_25.json,1666545,2234670,63,Woman
163,718954,DepthScenes,duration_manipulation_targetAtFixation,jsons/VE125_randls_25.json,http://54.235.29.9/FacialAge/BNav_EC2/DepthDuration/v2_depth_duration_MTurk/v2_DepthDuration_HTML.html#133,133,1536,729,1536,864,9-3-2022,9-23-59,164,depth_duration_stimuli/001571_2014-06-20_17-21-32_260595134347_rgbf000089-resize_1/001571_2014-06-20_17-21-32_260595134347_rgbf000089-resize_1-target.png,125,1.86,14,4279,124,meters,jsons/VE125_randls_25.json,1666545,2234670,63,Woman
