,subjID,experimentName,versionName,sequenceName,url,selected_row,windowWidth,windowHeight,screenWidth,screenHeight,startDate,startTime,trial,stimulus,duration,actual_depth,depth_estimate,trial_RT,log_sceneDuration,unitSelection,seq_filepath,experimentTime,totalTime,age,gender
0,719580,DepthScenes,duration_manipulation_targetAtFixation,jsons/v1_VE1000_randls_35_rotated.json,http://54.235.29.9/FacialAge/BNav_EC2/DepthDuration/v2_depth_duration_MTurk/v2_DepthDuration_HTML.html#327,327,1070,779,1440,900,8-29-2022,8-42-33,1,depth_duration_stimuli/002444_2014-06-28_20-32-08_260595134347_rgbf000027-resize_0/002444_2014-06-28_20-32-08_260595134347_rgbf000027-resize_0-target.png,1000,4.388999999999999,9,4522,998,feet,jsons/v1_VE1000_randls_35_rotated.json,811432,1155803,39,Man
1,719580,DepthScenes,duration_manipulation_targetAtFixation,jsons/v1_VE1000_randls_35_rotated.json,http://54.235.29.9/FacialAge/BNav_EC2/DepthDuration/v2_depth_duration_MTurk/v2_DepthDuration_HTML.html#327,327,1070,779,1440,900,8-29-2022,8-42-33,2,depth_duration_stimuli/000436_2014-06-09_22-25-11_260595134347_rgbf000137-resize_1/000436_2014-06-09_22-25-11_260595134347_rgbf000137-resize_1-target.png,1000,4.0705,11,4213,996,feet,jsons/v1_VE1000_randls_35_rotated.json,811432,1155803,39,Man
2,719580,DepthScenes,duration_manipulation_targetAtFixation,jsons/v1_VE1000_randls_35_rotated.json,http://54.235.29.9/FacialAge/BNav_EC2/DepthDuration/v2_depth_duration_MTurk/v2_DepthDuration_HTML.html#327,327,1070,779,1440,900,8-29-2022,8-42-33,3,depth_duration_stimuli/001094_2014-06-15_17-36-00_260595134347_rgbf000205-resize_0/001094_2014-06-15_17-36-00_260595134347_rgbf000205-resize_0-target.png,1000,4.2175,12,3875,1007,feet,jsons/v1_VE1000_randls_35_rotated.json,811432,1155803,39,Man
3,719580,DepthScenes,duration_manipulation_targetAtFixation,jsons/v1_VE1000_randls_35_rotated.json,http://54.235.29.9/FacialAge/BNav_EC2/DepthDuration/v2_depth_duration_MTurk/v2_DepthDuration_HTML.html#327,327,1070,779,1440,900,8-29-2022,8-42-33,4,depth_duration_stimuli/000692_2014-06-08_13-09-42_260595134347_rgbf000199-resize_2/000692_2014-06-08_13-09-42_260595134347_rgbf000199-resize_2-target.png,1000,3.661,12,3837,995,feet,jsons/v1_VE1000_randls_35_rotated.json,811432,1155803,39,Man
4,719580,DepthScenes,duration_manipulation_targetAtFixation,jsons/v1_VE1000_randls_35_rotated.json,http://54.235.29.9/FacialAge/BNav_EC2/DepthDuration/v2_depth_duration_MTurk/v2_DepthDuration_HTML.html#327,327,1070,779,1440,900,8-29-2022,8-42-33,5,depth_duration_stimuli/000734_2014-06-08_17-39-11_260595134347_rgbf000128-resize_2/000734_2014-06-08_17-39-11_260595134347_rgbf000128-resize_2-target.png,1000,4.098,8,3539,1011,feet,jsons/v1_VE1000_randls_35_rotated.json,811432,1155803,39,Man
5,719580,DepthScenes,duration_manipulation_targetAtFixation,jsons/v1_VE1000_randls_35_rotated.json,http://54.235.29.9/FacialAge/BNav_EC2/DepthDuration/v2_depth_duration_MTurk/v2_DepthDuration_HTML.html#327,327,1070,779,1440,900,8-29-2022,8-42-33,6,depth_duration_stimuli/000739_2014-06-08_18-45-58_260595134347_rgbf000068-resize_1/000739_2014-06-08_18-45-58_260595134347_rgbf000068-resize_1-target.png,1000,3.534,9,4041,998,feet,jsons/v1_VE1000_randls_35_rotated.json,811432,1155803,39,Man
6,719580,DepthScenes,duration_manipulation_targetAtFixation,jsons/v1_VE1000_randls_35_rotated.json,http://54.235.29.9/FacialAge/BNav_EC2/DepthDuration/v2_depth_duration_MTurk/v2_DepthDuration_HTML.html#327,327,1070,779,1440,900,8-29-2022,8-42-33,7,depth_duration_stimuli/002750_2014-06-22_19-08-03_094959634447_rgbf000094-resize_4/002750_2014-06-22_19-08-03_094959634447_rgbf000094-resize_4-target.png,1000,2.354,8,3580,997,feet,jsons/v1_VE1000_randls_35_rotated.json,811432,1155803,39,Man
7,719580,DepthScenes,duration_manipulation_targetAtFixation,jsons/v1_VE1000_randls_35_rotated.json,http://54.235.29.9/FacialAge/BNav_EC2/DepthDuration/v2_depth_duration_MTurk/v2_DepthDuration_HTML.html#327,327,1070,779,1440,900,8-29-2022,8-42-33,8,depth_duration_stimuli/002549_2014-06-24_13-41-39_094959634447_rgbf000022-resize_3/002549_2014-06-24_13-41-39_094959634447_rgbf000022-resize_3-target.png,1000,1.476,3,3700,995,feet,jsons/v1_VE1000_randls_35_rotated.json,811432,1155803,39,Man
8,719580,DepthScenes,duration_manipulation_targetAtFixation,jsons/v1_VE1000_randls_35_rotated.json,http://54.235.29.9/FacialAge/BNav_EC2/DepthDuration/v2_depth_duration_MTurk/v2_DepthDuration_HTML.html#327,327,1070,779,1440,900,8-29-2022,8-42-33,9,depth_duration_stimuli/000549_2014-06-08_22-10-24_260595134347_rgbf000247-resize_3/000549_2014-06-08_22-10-24_260595134347_rgbf000247-resize_3-target.png,1000,1.841,4,3688,988,feet,jsons/v1_VE1000_randls_35_rotated.json,811432,1155803,39,Man
9,719580,DepthScenes,duration_manipulation_targetAtFixation,jsons/v1_VE1000_randls_35_rotated.json,http://54.235.29.9/FacialAge/BNav_EC2/DepthDuration/v2_depth_duration_MTurk/v2_DepthDuration_HTML.html#327,327,1070,779,1440,900,8-29-2022,8-42-33,10,depth_duration_stimuli/001055_2014-06-08_18-45-35_260595134347_rgbf000111-resize_4/001055_2014-06-08_18-45-35_260595134347_rgbf000111-resize_4-target.png,1000,2.4290000000000003,9,3683,999,feet,jsons/v1_VE1000_randls_35_rotated.json,811432,1155803,39,Man
10,719580,DepthScenes,duration_manipulation_targetAtFixation,jsons/v1_VE1000_randls_35_rotated.json,http://54.235.29.9/FacialAge/BNav_EC2/DepthDuration/v2_depth_duration_MTurk/v2_DepthDuration_HTML.html#327,327,1070,779,1440,900,8-29-2022,8-42-33,11,depth_duration_stimuli/001617_2014-06-20_11-35-32_260595134347_rgbf000066-resize_1/001617_2014-06-20_11-35-32_260595134347_rgbf000066-resize_1-target.png,1000,3.7910000000000004,12,3446,998,feet,jsons/v1_VE1000_randls_35_rotated.json,811432,1155803,39,Man
11,719580,DepthScenes,duration_manipulation_targetAtFixation,jsons/v1_VE1000_randls_35_rotated.json,http://54.235.29.9/FacialAge/BNav_EC2/DepthDuration/v2_depth_duration_MTurk/v2_DepthDuration_HTML.html#327,327,1070,779,1440,900,8-29-2022,8-42-33,12,depth_duration_stimuli/001806_2014-06-26_20-50-20_260595134347_rgbf000091-resize_1/001806_2014-06-26_20-50-20_260595134347_rgbf000091-resize_1-target.png,1000,2.7305,5,3563,1012,feet,jsons/v1_VE1000_randls_35_rotated.json,811432,1155803,39,Man
12,719580,DepthScenes,duration_manipulation_targetAtFixation,jsons/v1_VE1000_randls_35_rotated.json,http://54.235.29.9/FacialAge/BNav_EC2/DepthDuration/v2_depth_duration_MTurk/v2_DepthDuration_HTML.html#327,327,1070,779,1440,900,8-29-2022,8-42-33,13,depth_duration_stimuli/002323_2014-06-28_20-01-54_260595134347_rgbf000051-resize_4/002323_2014-06-28_20-01-54_260595134347_rgbf000051-resize_4-target.png,1000,3.7310000000000003,9,4321,1004,feet,jsons/v1_VE1000_randls_35_rotated.json,811432,1155803,39,Man
13,719580,DepthScenes,duration_manipulation_targetAtFixation,jsons/v1_VE1000_randls_35_rotated.json,http://54.235.29.9/FacialAge/BNav_EC2/DepthDuration/v2_depth_duration_MTurk/v2_DepthDuration_HTML.html#327,327,1070,779,1440,900,8-29-2022,8-42-33,14,depth_duration_stimuli/000917_2014-06-09_22-45-29_260595134347_rgbf000149-resize_3/000917_2014-06-09_22-45-29_260595134347_rgbf000149-resize_3-target.png,1000,4.1865,8,5518,998,feet,jsons/v1_VE1000_randls_35_rotated.json,811432,1155803,39,Man
14,719580,DepthScenes,duration_manipulation_targetAtFixation,jsons/v1_VE1000_randls_35_rotated.json,http://54.235.29.9/FacialAge/BNav_EC2/DepthDuration/v2_depth_duration_MTurk/v2_DepthDuration_HTML.html#327,327,1070,779,1440,900,8-29-2022,8-42-33,15,depth_duration_stimuli/002953_2014-06-08_17-32-18_094959634447_rgbf000059-resize_5/002953_2014-06-08_17-32-18_094959634447_rgbf000059-resize_5-target.png,1000,1.551,2,3844,1000,feet,jsons/v1_VE1000_randls_35_rotated.json,811432,1155803,39,Man
15,719580,DepthScenes,duration_manipulation_targetAtFixation,jsons/v1_VE1000_randls_35_rotated.json,http://54.235.29.9/FacialAge/BNav_EC2/DepthDuration/v2_depth_duration_MTurk/v2_DepthDuration_HTML.html#327,327,1070,779,1440,900,8-29-2022,8-42-33,16,depth_duration_stimuli/000878_2014-06-08_22-52-45_260595134347_rgbf000045-resize_2/000878_2014-06-08_22-52-45_260595134347_rgbf000045-resize_2-target.png,1000,2.092,8,3406,986,feet,jsons/v1_VE1000_randls_35_rotated.json,811432,1155803,39,Man
16,719580,DepthScenes,duration_manipulation_targetAtFixation,jsons/v1_VE1000_randls_35_rotated.json,http://54.235.29.9/FacialAge/BNav_EC2/DepthDuration/v2_depth_duration_MTurk/v2_DepthDuration_HTML.html#327,327,1070,779,1440,900,8-29-2022,8-42-33,17,depth_duration_stimuli/002758_2014-06-22_19-11-20_094959634447_rgbf000128-resize_1/002758_2014-06-22_19-11-20_094959634447_rgbf000128-resize_1-target.png,1000,2.555,6,3315,1007,feet,jsons/v1_VE1000_randls_35_rotated.json,811432,1155803,39,Man
17,719580,DepthScenes,duration_manipulation_targetAtFixation,jsons/v1_VE1000_randls_35_rotated.json,http://54.235.29.9/FacialAge/BNav_EC2/DepthDuration/v2_depth_duration_MTurk/v2_DepthDuration_HTML.html#327,327,1070,779,1440,900,8-29-2022,8-42-33,18,depth_duration_stimuli/002630_2014-06-24_14-47-50_094959634447_rgbf000055-resize_1/002630_2014-06-24_14-47-50_094959634447_rgbf000055-resize_1-target.png,1000,3.0095,11,3392,1007,feet,jsons/v1_VE1000_randls_35_rotated.json,811432,1155803,39,Man
18,719580,DepthScenes,duration_manipulation_targetAtFixation,jsons/v1_VE1000_randls_35_rotated.json,http://54.235.29.9/FacialAge/BNav_EC2/DepthDuration/v2_depth_duration_MTurk/v2_DepthDuration_HTML.html#327,327,1070,779,1440,900,8-29-2022,8-42-33,19,depth_duration_stimuli/001498_2014-06-19_17-45-14_260595134347_rgbf000129-resize_4/001498_2014-06-19_17-45-14_260595134347_rgbf000129-resize-original.jpg,1000,1.4075,0,4278,999,feet,jsons/v1_VE1000_randls_35_rotated.json,811432,1155803,39,Man
19,719580,DepthScenes,duration_manipulation_targetAtFixation,jsons/v1_VE1000_randls_35_rotated.json,http://54.235.29.9/FacialAge/BNav_EC2/DepthDuration/v2_depth_duration_MTurk/v2_DepthDuration_HTML.html#327,327,1070,779,1440,900,8-29-2022,8-42-33,20,depth_duration_stimuli/000749_2014-06-08_21-55-06_260595134347_rgbf000070-resize_2/000749_2014-06-08_21-55-06_260595134347_rgbf000070-resize_2-target.png,1000,2.331,3,9652,999,feet,jsons/v1_VE1000_randls_35_rotated.json,811432,1155803,39,Man
20,719580,DepthScenes,duration_manipulation_targetAtFixation,jsons/v1_VE1000_randls_35_rotated.json,http://54.235.29.9/FacialAge/BNav_EC2/DepthDuration/v2_depth_duration_MTurk/v2_DepthDuration_HTML.html#327,327,1070,779,1440,900,8-29-2022,8-42-33,21,depth_duration_stimuli/002788_2014-06-22_19-36-03_094959634447_rgbf000088-resize_2/002788_2014-06-22_19-36-03_094959634447_rgbf000088-resize_2-target.png,1000,1.6465,5,3307,1013,feet,jsons/v1_VE1000_randls_35_rotated.json,811432,1155803,39,Man
21,719580,DepthScenes,duration_manipulation_targetAtFixation,jsons/v1_VE1000_randls_35_rotated.json,http://54.235.29.9/FacialAge/BNav_EC2/DepthDuration/v2_depth_duration_MTurk/v2_DepthDuration_HTML.html#327,327,1070,779,1440,900,8-29-2022,8-42-33,22,depth_duration_stimuli/002425_2014-06-28_20-27-29_260595134347_rgbf000031-resize_8/002425_2014-06-28_20-27-29_260595134347_rgbf000031-resize_8-target.png,1000,3.8960000000000004,9,3923,1009,feet,jsons/v1_VE1000_randls_35_rotated.json,811432,1155803,39,Man
22,719580,DepthScenes,duration_manipulation_targetAtFixation,jsons/v1_VE1000_randls_35_rotated.json,http://54.235.29.9/FacialAge/BNav_EC2/DepthDuration/v2_depth_duration_MTurk/v2_DepthDuration_HTML.html#327,327,1070,779,1440,900,8-29-2022,8-42-33,23,depth_duration_stimuli/000642_2014-06-08_16-59-25_260595134347_rgbf000098-resize_2/000642_2014-06-08_16-59-25_260595134347_rgbf000098-resize_2-target.png,1000,2.8815,7,3266,989,feet,jsons/v1_VE1000_randls_35_rotated.json,811432,1155803,39,Man
23,719580,DepthScenes,duration_manipulation_targetAtFixation,jsons/v1_VE1000_randls_35_rotated.json,http://54.235.29.9/FacialAge/BNav_EC2/DepthDuration/v2_depth_duration_MTurk/v2_DepthDuration_HTML.html#327,327,1070,779,1440,900,8-29-2022,8-42-33,24,depth_duration_stimuli/000483_2014-06-09_20-41-45_260595134347_rgbf000116-resize_4/000483_2014-06-09_20-41-45_260595134347_rgbf000116-resize_4-target.png,1000,1.337,2,3258,1011,feet,jsons/v1_VE1000_randls_35_rotated.json,811432,1155803,39,Man
24,719580,DepthScenes,duration_manipulation_targetAtFixation,jsons/v1_VE1000_randls_35_rotated.json,http://54.235.29.9/FacialAge/BNav_EC2/DepthDuration/v2_depth_duration_MTurk/v2_DepthDuration_HTML.html#327,327,1070,779,1440,900,8-29-2022,8-42-33,25,depth_duration_stimuli/000469_2014-06-09_19-42-10_260595134347_rgbf000081-resize_1/000469_2014-06-09_19-42-10_260595134347_rgbf000081-resize_1-target.png,1000,1.652,3,3099,1013,feet,jsons/v1_VE1000_randls_35_rotated.json,811432,1155803,39,Man
25,719580,DepthScenes,duration_manipulation_targetAtFixation,jsons/v1_VE1000_randls_35_rotated.json,http://54.235.29.9/FacialAge/BNav_EC2/DepthDuration/v2_depth_duration_MTurk/v2_DepthDuration_HTML.html#327,327,1070,779,1440,900,8-29-2022,8-42-33,26,depth_duration_stimuli/003490_2014-05-21_15-50-11_094959634447_rgbf000101-resize_3/003490_2014-05-21_15-50-11_094959634447_rgbf000101-resize_3-target.png,1000,3.6445,12,3672,998,feet,jsons/v1_VE1000_randls_35_rotated.json,811432,1155803,39,Man
26,719580,DepthScenes,duration_manipulation_targetAtFixation,jsons/v1_VE1000_randls_35_rotated.json,http://54.235.29.9/FacialAge/BNav_EC2/DepthDuration/v2_depth_duration_MTurk/v2_DepthDuration_HTML.html#327,327,1070,779,1440,900,8-29-2022,8-42-33,27,depth_duration_stimuli/001175_2014-06-17_15-45-55_260595134347_rgbf000129-resize_4/001175_2014-06-17_15-45-55_260595134347_rgbf000129-resize_4-target.png,1000,4.255,15,3540,994,feet,jsons/v1_VE1000_randls_35_rotated.json,811432,1155803,39,Man
27,719580,DepthScenes,duration_manipulation_targetAtFixation,jsons/v1_VE1000_randls_35_rotated.json,http://54.235.29.9/FacialAge/BNav_EC2/DepthDuration/v2_depth_duration_MTurk/v2_DepthDuration_HTML.html#327,327,1070,779,1440,900,8-29-2022,8-42-33,28,depth_duration_stimuli/002805_2014-06-22_19-54-03_094959634447_rgbf000079-resize_1/002805_2014-06-22_19-54-03_094959634447_rgbf000079-resize_1-target.png,1000,3.1439999999999997,11,3658,1001,feet,jsons/v1_VE1000_randls_35_rotated.json,811432,1155803,39,Man
28,719580,DepthScenes,duration_manipulation_targetAtFixation,jsons/v1_VE1000_randls_35_rotated.json,http://54.235.29.9/FacialAge/BNav_EC2/DepthDuration/v2_depth_duration_MTurk/v2_DepthDuration_HTML.html#327,327,1070,779,1440,900,8-29-2022,8-42-33,29,depth_duration_stimuli/000906_2014-06-08_13-35-43_260595134347_rgbf000155-resize_1/000906_2014-06-08_13-35-43_260595134347_rgbf000155-resize_1-target.png,1000,2.8489999999999998,9,3379,1015,feet,jsons/v1_VE1000_randls_35_rotated.json,811432,1155803,39,Man
29,719580,DepthScenes,duration_manipulation_targetAtFixation,jsons/v1_VE1000_randls_35_rotated.json,http://54.235.29.9/FacialAge/BNav_EC2/DepthDuration/v2_depth_duration_MTurk/v2_DepthDuration_HTML.html#327,327,1070,779,1440,900,8-29-2022,8-42-33,30,depth_duration_stimuli/002072_2014-06-24_21-48-06_260595134347_rgbf000115-resize_0/002072_2014-06-24_21-48-06_260595134347_rgbf000115-resize-original.jpg,1000,4.702,0,3176,988,feet,jsons/v1_VE1000_randls_35_rotated.json,811432,1155803,39,Man
30,719580,DepthScenes,duration_manipulation_targetAtFixation,jsons/v1_VE1000_randls_35_rotated.json,http://54.235.29.9/FacialAge/BNav_EC2/DepthDuration/v2_depth_duration_MTurk/v2_DepthDuration_HTML.html#327,327,1070,779,1440,900,8-29-2022,8-42-33,31,depth_duration_stimuli/002136_2014-06-25_21-18-03_260595134347_rgbf000109-resize_3/002136_2014-06-25_21-18-03_260595134347_rgbf000109-resize_3-target.png,1000,1.9569999999999999,5,3476,992,feet,jsons/v1_VE1000_randls_35_rotated.json,811432,1155803,39,Man
31,719580,DepthScenes,duration_manipulation_targetAtFixation,jsons/v1_VE1000_randls_35_rotated.json,http://54.235.29.9/FacialAge/BNav_EC2/DepthDuration/v2_depth_duration_MTurk/v2_DepthDuration_HTML.html#327,327,1070,779,1440,900,8-29-2022,8-42-33,32,depth_duration_stimuli/002964_2014-06-08_17-46-11_094959634447_rgbf000091-resize_4/002964_2014-06-08_17-46-11_094959634447_rgbf000091-resize_4-target.png,1000,1.6909999999999998,3,16460,1015,feet,jsons/v1_VE1000_randls_35_rotated.json,811432,1155803,39,Man
32,719580,DepthScenes,duration_manipulation_targetAtFixation,jsons/v1_VE1000_randls_35_rotated.json,http://54.235.29.9/FacialAge/BNav_EC2/DepthDuration/v2_depth_duration_MTurk/v2_DepthDuration_HTML.html#327,327,1070,779,1440,900,8-29-2022,8-42-33,33,depth_duration_stimuli/000137_2014-05-20_17-04-49_260595134347_rgbf000120-resize_1/000137_2014-05-20_17-04-49_260595134347_rgbf000120-resize_1-target.png,1000,3.786,10,4624,1001,feet,jsons/v1_VE1000_randls_35_rotated.json,811432,1155803,39,Man
33,719580,DepthScenes,duration_manipulation_targetAtFixation,jsons/v1_VE1000_randls_35_rotated.json,http://54.235.29.9/FacialAge/BNav_EC2/DepthDuration/v2_depth_duration_MTurk/v2_DepthDuration_HTML.html#327,327,1070,779,1440,900,8-29-2022,8-42-33,34,depth_duration_stimuli/000736_2014-06-08_18-24-15_260595134347_rgbf000206-resize_3/000736_2014-06-08_18-24-15_260595134347_rgbf000206-resize_3-target.png,1000,3.515,5,3283,995,feet,jsons/v1_VE1000_randls_35_rotated.json,811432,1155803,39,Man
34,719580,DepthScenes,duration_manipulation_targetAtFixation,jsons/v1_VE1000_randls_35_rotated.json,http://54.235.29.9/FacialAge/BNav_EC2/DepthDuration/v2_depth_duration_MTurk/v2_DepthDuration_HTML.html#327,327,1070,779,1440,900,8-29-2022,8-42-33,35,depth_duration_stimuli/003081_2014-06-15_15-19-16_094959634447_rgbf000150-resize_1/003081_2014-06-15_15-19-16_094959634447_rgbf000150-resize_1-target.png,1000,3.9125,9,3403,1005,feet,jsons/v1_VE1000_randls_35_rotated.json,811432,1155803,39,Man
35,719580,DepthScenes,duration_manipulation_targetAtFixation,jsons/v1_VE1000_randls_35_rotated.json,http://54.235.29.9/FacialAge/BNav_EC2/DepthDuration/v2_depth_duration_MTurk/v2_DepthDuration_HTML.html#327,327,1070,779,1440,900,8-29-2022,8-42-33,36,depth_duration_stimuli/001417_2014-06-19_16-25-36_260595134347_rgbf000115-resize_5/001417_2014-06-19_16-25-36_260595134347_rgbf000115-resize_5-target.png,1000,4.6255,11,4027,999,feet,jsons/v1_VE1000_randls_35_rotated.json,811432,1155803,39,Man
36,719580,DepthScenes,duration_manipulation_targetAtFixation,jsons/v1_VE1000_randls_35_rotated.json,http://54.235.29.9/FacialAge/BNav_EC2/DepthDuration/v2_depth_duration_MTurk/v2_DepthDuration_HTML.html#327,327,1070,779,1440,900,8-29-2022,8-42-33,37,depth_duration_stimuli/001235_2014-06-17_16-37-36_260595134347_rgbf000084-resize_4/001235_2014-06-17_16-37-36_260595134347_rgbf000084-resize_4-target.png,1000,3.6605,12,3707,991,feet,jsons/v1_VE1000_randls_35_rotated.json,811432,1155803,39,Man
37,719580,DepthScenes,duration_manipulation_targetAtFixation,jsons/v1_VE1000_randls_35_rotated.json,http://54.235.29.9/FacialAge/BNav_EC2/DepthDuration/v2_depth_duration_MTurk/v2_DepthDuration_HTML.html#327,327,1070,779,1440,900,8-29-2022,8-42-33,38,depth_duration_stimuli/000788_2014-06-08_22-34-36_260595134347_rgbf000131-resize_1/000788_2014-06-08_22-34-36_260595134347_rgbf000131-resize_1-target.png,1000,3.359,12,3682,1000,feet,jsons/v1_VE1000_randls_35_rotated.json,811432,1155803,39,Man
38,719580,DepthScenes,duration_manipulation_targetAtFixation,jsons/v1_VE1000_randls_35_rotated.json,http://54.235.29.9/FacialAge/BNav_EC2/DepthDuration/v2_depth_duration_MTurk/v2_DepthDuration_HTML.html#327,327,1070,779,1440,900,8-29-2022,8-42-33,39,depth_duration_stimuli/002344_2014-06-28_20-06-29_260595134347_rgbf000030-resize_1/002344_2014-06-28_20-06-29_260595134347_rgbf000030-resize_1-target.png,1000,1.5795,3,3314,989,feet,jsons/v1_VE1000_randls_35_rotated.json,811432,1155803,39,Man
39,719580,DepthScenes,duration_manipulation_targetAtFixation,jsons/v1_VE1000_randls_35_rotated.json,http://54.235.29.9/FacialAge/BNav_EC2/DepthDuration/v2_depth_duration_MTurk/v2_DepthDuration_HTML.html#327,327,1070,779,1440,900,8-29-2022,8-42-33,40,depth_duration_stimuli/002725_2014-06-22_11-47-51_094959634447_rgbf000070-resize_1/002725_2014-06-22_11-47-51_094959634447_rgbf000070-resize_1-target.png,1000,2.195,8,3525,985,feet,jsons/v1_VE1000_randls_35_rotated.json,811432,1155803,39,Man
40,719580,DepthScenes,duration_manipulation_targetAtFixation,jsons/v1_VE1000_randls_35_rotated.json,http://54.235.29.9/FacialAge/BNav_EC2/DepthDuration/v2_depth_duration_MTurk/v2_DepthDuration_HTML.html#327,327,1070,779,1440,900,8-29-2022,8-42-33,41,depth_duration_stimuli/000854_2014-06-09_19-43-13_260595134347_rgbf000066-resize_0/000854_2014-06-09_19-43-13_260595134347_rgbf000066-resize_0-target.png,1000,3.068,9,3587,1000,feet,jsons/v1_VE1000_randls_35_rotated.json,811432,1155803,39,Man
41,719580,DepthScenes,duration_manipulation_targetAtFixation,jsons/v1_VE1000_randls_35_rotated.json,http://54.235.29.9/FacialAge/BNav_EC2/DepthDuration/v2_depth_duration_MTurk/v2_DepthDuration_HTML.html#327,327,1070,779,1440,900,8-29-2022,8-42-33,42,depth_duration_stimuli/000758_2014-06-08_22-05-08_260595134347_rgbf000085-resize_0/000758_2014-06-08_22-05-08_260595134347_rgbf000085-resize_0-target.png,1000,3.3810000000000002,15,3876,993,feet,jsons/v1_VE1000_randls_35_rotated.json,811432,1155803,39,Man
42,719580,DepthScenes,duration_manipulation_targetAtFixation,jsons/v1_VE1000_randls_35_rotated.json,http://54.235.29.9/FacialAge/BNav_EC2/DepthDuration/v2_depth_duration_MTurk/v2_DepthDuration_HTML.html#327,327,1070,779,1440,900,8-29-2022,8-42-33,43,depth_duration_stimuli/002995_2014-06-15_12-31-26_094959634447_rgbf000150-resize_1/002995_2014-06-15_12-31-26_094959634447_rgbf000150-resize_1-target.png,1000,3.8360000000000003,16,3773,1000,feet,jsons/v1_VE1000_randls_35_rotated.json,811432,1155803,39,Man
43,719580,DepthScenes,duration_manipulation_targetAtFixation,jsons/v1_VE1000_randls_35_rotated.json,http://54.235.29.9/FacialAge/BNav_EC2/DepthDuration/v2_depth_duration_MTurk/v2_DepthDuration_HTML.html#327,327,1070,779,1440,900,8-29-2022,8-42-33,44,depth_duration_stimuli/002748_2014-06-22_19-07-22_094959634447_rgbf000078-resize_1/002748_2014-06-22_19-07-22_094959634447_rgbf000078-resize_1-target.png,1000,4.6705,20,3863,1000,feet,jsons/v1_VE1000_randls_35_rotated.json,811432,1155803,39,Man
44,719580,DepthScenes,duration_manipulation_targetAtFixation,jsons/v1_VE1000_randls_35_rotated.json,http://54.235.29.9/FacialAge/BNav_EC2/DepthDuration/v2_depth_duration_MTurk/v2_DepthDuration_HTML.html#327,327,1070,779,1440,900,8-29-2022,8-42-33,45,depth_duration_stimuli/003423_2014-05-21_10-23-26_094959634447_rgbf002665-resize_2/003423_2014-05-21_10-23-26_094959634447_rgbf002665-resize_2-target.png,1000,3.2575,18,4179,985,feet,jsons/v1_VE1000_randls_35_rotated.json,811432,1155803,39,Man
45,719580,DepthScenes,duration_manipulation_targetAtFixation,jsons/v1_VE1000_randls_35_rotated.json,http://54.235.29.9/FacialAge/BNav_EC2/DepthDuration/v2_depth_duration_MTurk/v2_DepthDuration_HTML.html#327,327,1070,779,1440,900,8-29-2022,8-42-33,46,depth_duration_stimuli/002905_2014-06-03_18-04-43_094959634447_rgbf000151-resize_2/002905_2014-06-03_18-04-43_094959634447_rgbf000151-resize_2-target.png,1000,2.0295,4,3705,1009,feet,jsons/v1_VE1000_randls_35_rotated.json,811432,1155803,39,Man
46,719580,DepthScenes,duration_manipulation_targetAtFixation,jsons/v1_VE1000_randls_35_rotated.json,http://54.235.29.9/FacialAge/BNav_EC2/DepthDuration/v2_depth_duration_MTurk/v2_DepthDuration_HTML.html#327,327,1070,779,1440,900,8-29-2022,8-42-33,47,depth_duration_stimuli/000191_2014-05-12_17-07-38_260595134347_rgbf000199-resize_0/000191_2014-05-12_17-07-38_260595134347_rgbf000199-resize_0-target.png,1000,3.7995,12,3850,1000,feet,jsons/v1_VE1000_randls_35_rotated.json,811432,1155803,39,Man
47,719580,DepthScenes,duration_manipulation_targetAtFixation,jsons/v1_VE1000_randls_35_rotated.json,http://54.235.29.9/FacialAge/BNav_EC2/DepthDuration/v2_depth_duration_MTurk/v2_DepthDuration_HTML.html#327,327,1070,779,1440,900,8-29-2022,8-42-33,48,depth_duration_stimuli/000493_2014-06-09_21-01-18_260595134347_rgbf000196-resize_3/000493_2014-06-09_21-01-18_260595134347_rgbf000196-resize_3-target.png,1000,3.44,12,4036,991,feet,jsons/v1_VE1000_randls_35_rotated.json,811432,1155803,39,Man
48,719580,DepthScenes,duration_manipulation_targetAtFixation,jsons/v1_VE1000_randls_35_rotated.json,http://54.235.29.9/FacialAge/BNav_EC2/DepthDuration/v2_depth_duration_MTurk/v2_DepthDuration_HTML.html#327,327,1070,779,1440,900,8-29-2022,8-42-33,49,depth_duration_stimuli/001170_2014-06-17_15-43-44_260595134347_rgbf000096-resize_6/001170_2014-06-17_15-43-44_260595134347_rgbf000096-resize-original.jpg,1000,1.1909999999999998,0,9928,1007,feet,jsons/v1_VE1000_randls_35_rotated.json,811432,1155803,39,Man
49,719580,DepthScenes,duration_manipulation_targetAtFixation,jsons/v1_VE1000_randls_35_rotated.json,http://54.235.29.9/FacialAge/BNav_EC2/DepthDuration/v2_depth_duration_MTurk/v2_DepthDuration_HTML.html#327,327,1070,779,1440,900,8-29-2022,8-42-33,50,depth_duration_stimuli/002414_2014-06-28_20-24-58_260595134347_rgbf000067-resize_4/002414_2014-06-28_20-24-58_260595134347_rgbf000067-resize_4-target.png,1000,4.363,10,9398,996,feet,jsons/v1_VE1000_randls_35_rotated.json,811432,1155803,39,Man
50,719580,DepthScenes,duration_manipulation_targetAtFixation,jsons/v1_VE1000_randls_35_rotated.json,http://54.235.29.9/FacialAge/BNav_EC2/DepthDuration/v2_depth_duration_MTurk/v2_DepthDuration_HTML.html#327,327,1070,779,1440,900,8-29-2022,8-42-33,51,depth_duration_stimuli/000773_2014-06-08_22-24-54_260595134347_rgbf000093-resize_1/000773_2014-06-08_22-24-54_260595134347_rgbf000093-resize_1-target.png,1000,4.973,7,4066,1002,feet,jsons/v1_VE1000_randls_35_rotated.json,811432,1155803,39,Man
51,719580,DepthScenes,duration_manipulation_targetAtFixation,jsons/v1_VE1000_randls_35_rotated.json,http://54.235.29.9/FacialAge/BNav_EC2/DepthDuration/v2_depth_duration_MTurk/v2_DepthDuration_HTML.html#327,327,1070,779,1440,900,8-29-2022,8-42-33,52,depth_duration_stimuli/001450_2014-06-19_17-02-03_260595134347_rgbf000203-resize_4/001450_2014-06-19_17-02-03_260595134347_rgbf000203-resize_4-target.png,1000,4.0106666666667,9,3292,1000,feet,jsons/v1_VE1000_randls_35_rotated.json,811432,1155803,39,Man
52,719580,DepthScenes,duration_manipulation_targetAtFixation,jsons/v1_VE1000_randls_35_rotated.json,http://54.235.29.9/FacialAge/BNav_EC2/DepthDuration/v2_depth_duration_MTurk/v2_DepthDuration_HTML.html#327,327,1070,779,1440,900,8-29-2022,8-42-33,53,depth_duration_stimuli/001449_2014-06-19_17-01-27_260595134347_rgbf000116-resize_2/001449_2014-06-19_17-01-27_260595134347_rgbf000116-resize_2-target.png,1000,3.452,8,3151,996,feet,jsons/v1_VE1000_randls_35_rotated.json,811432,1155803,39,Man
53,719580,DepthScenes,duration_manipulation_targetAtFixation,jsons/v1_VE1000_randls_35_rotated.json,http://54.235.29.9/FacialAge/BNav_EC2/DepthDuration/v2_depth_duration_MTurk/v2_DepthDuration_HTML.html#327,327,1070,779,1440,900,8-29-2022,8-42-33,54,depth_duration_stimuli/002660_2014-06-13_15-44-18_094959634447_rgbf001878-resize_2/002660_2014-06-13_15-44-18_094959634447_rgbf001878-resize_2-target.png,1000,3.576,8,3403,1001,feet,jsons/v1_VE1000_randls_35_rotated.json,811432,1155803,39,Man
54,719580,DepthScenes,duration_manipulation_targetAtFixation,jsons/v1_VE1000_randls_35_rotated.json,http://54.235.29.9/FacialAge/BNav_EC2/DepthDuration/v2_depth_duration_MTurk/v2_DepthDuration_HTML.html#327,327,1070,779,1440,900,8-29-2022,8-42-33,55,depth_duration_stimuli/002153_2014-06-25_21-27-18_260595134347_rgbf000038-resize_5/002153_2014-06-25_21-27-18_260595134347_rgbf000038-resize_5-target.png,1000,2.505,6,3451,999,feet,jsons/v1_VE1000_randls_35_rotated.json,811432,1155803,39,Man
55,719580,DepthScenes,duration_manipulation_targetAtFixation,jsons/v1_VE1000_randls_35_rotated.json,http://54.235.29.9/FacialAge/BNav_EC2/DepthDuration/v2_depth_duration_MTurk/v2_DepthDuration_HTML.html#327,327,1070,779,1440,900,8-29-2022,8-42-33,56,depth_duration_stimuli/003083_2014-06-15_15-21-03_094959634447_rgbf000063-resize_1/003083_2014-06-15_15-21-03_094959634447_rgbf000063-resize_1-target.png,1000,4.1405,9,5783,1004,feet,jsons/v1_VE1000_randls_35_rotated.json,811432,1155803,39,Man
56,719580,DepthScenes,duration_manipulation_targetAtFixation,jsons/v1_VE1000_randls_35_rotated.json,http://54.235.29.9/FacialAge/BNav_EC2/DepthDuration/v2_depth_duration_MTurk/v2_DepthDuration_HTML.html#327,327,1070,779,1440,900,8-29-2022,8-42-33,57,depth_duration_stimuli/000486_2014-06-09_20-47-20_260595134347_rgbf000143-resize_2/000486_2014-06-09_20-47-20_260595134347_rgbf000143-resize_2-target.png,1000,4.8325,10,14315,1005,feet,jsons/v1_VE1000_randls_35_rotated.json,811432,1155803,39,Man
57,719580,DepthScenes,duration_manipulation_targetAtFixation,jsons/v1_VE1000_randls_35_rotated.json,http://54.235.29.9/FacialAge/BNav_EC2/DepthDuration/v2_depth_duration_MTurk/v2_DepthDuration_HTML.html#327,327,1070,779,1440,900,8-29-2022,8-42-33,58,depth_duration_stimuli/000556_2014-06-09_22-42-56_260595134347_rgbf000214-resize_1/000556_2014-06-09_22-42-56_260595134347_rgbf000214-resize_1-target.png,1000,4.8415,12,4894,1001,feet,jsons/v1_VE1000_randls_35_rotated.json,811432,1155803,39,Man
58,719580,DepthScenes,duration_manipulation_targetAtFixation,jsons/v1_VE1000_randls_35_rotated.json,http://54.235.29.9/FacialAge/BNav_EC2/DepthDuration/v2_depth_duration_MTurk/v2_DepthDuration_HTML.html#327,327,1070,779,1440,900,8-29-2022,8-42-33,59,depth_duration_stimuli/001158_2014-06-17_15-32-16_260595134347_rgbf000138-resize_2/001158_2014-06-17_15-32-16_260595134347_rgbf000138-resize_2-target.png,1000,4.5315,12,4029,996,feet,jsons/v1_VE1000_randls_35_rotated.json,811432,1155803,39,Man
59,719580,DepthScenes,duration_manipulation_targetAtFixation,jsons/v1_VE1000_randls_35_rotated.json,http://54.235.29.9/FacialAge/BNav_EC2/DepthDuration/v2_depth_duration_MTurk/v2_DepthDuration_HTML.html#327,327,1070,779,1440,900,8-29-2022,8-42-33,60,depth_duration_stimuli/003587_2014-05-23_16-48-02_094959634447_rgbf002384-resize_2/003587_2014-05-23_16-48-02_094959634447_rgbf002384-resize_2-target.png,1000,1.357,3,4605,994,feet,jsons/v1_VE1000_randls_35_rotated.json,811432,1155803,39,Man
60,719580,DepthScenes,duration_manipulation_targetAtFixation,jsons/v1_VE1000_randls_35_rotated.json,http://54.235.29.9/FacialAge/BNav_EC2/DepthDuration/v2_depth_duration_MTurk/v2_DepthDuration_HTML.html#327,327,1070,779,1440,900,8-29-2022,8-42-33,61,depth_duration_stimuli/001167_2014-06-17_15-38-07_260595134347_rgbf000108-resize_0/001167_2014-06-17_15-38-07_260595134347_rgbf000108-resize_0-target.png,1000,1.8505,4,4202,1002,feet,jsons/v1_VE1000_randls_35_rotated.json,811432,1155803,39,Man
61,719580,DepthScenes,duration_manipulation_targetAtFixation,jsons/v1_VE1000_randls_35_rotated.json,http://54.235.29.9/FacialAge/BNav_EC2/DepthDuration/v2_depth_duration_MTurk/v2_DepthDuration_HTML.html#327,327,1070,779,1440,900,8-29-2022,8-42-33,62,depth_duration_stimuli/000943_2014-06-09_19-31-07_260595134347_rgbf000128-resize_1/000943_2014-06-09_19-31-07_260595134347_rgbf000128-resize_1-target.png,1000,1.9765,4,3683,1000,feet,jsons/v1_VE1000_randls_35_rotated.json,811432,1155803,39,Man
62,719580,DepthScenes,duration_manipulation_targetAtFixation,jsons/v1_VE1000_randls_35_rotated.json,http://54.235.29.9/FacialAge/BNav_EC2/DepthDuration/v2_depth_duration_MTurk/v2_DepthDuration_HTML.html#327,327,1070,779,1440,900,8-29-2022,8-42-33,63,depth_duration_stimuli/003070_2014-06-15_14-58-27_094959634447_rgbf000150-resize_3/003070_2014-06-15_14-58-27_094959634447_rgbf000150-resize_3-target.png,1000,2.9415,8,3531,1001,feet,jsons/v1_VE1000_randls_35_rotated.json,811432,1155803,39,Man
63,719580,DepthScenes,duration_manipulation_targetAtFixation,jsons/v1_VE1000_randls_35_rotated.json,http://54.235.29.9/FacialAge/BNav_EC2/DepthDuration/v2_depth_duration_MTurk/v2_DepthDuration_HTML.html#327,327,1070,779,1440,900,8-29-2022,8-42-33,64,depth_duration_stimuli/002545_2014-06-24_13-38-53_094959634447_rgbf000080-resize_4/002545_2014-06-24_13-38-53_094959634447_rgbf000080-resize_4-target.png,1000,1.9205,8,3365,1001,feet,jsons/v1_VE1000_randls_35_rotated.json,811432,1155803,39,Man
64,719580,DepthScenes,duration_manipulation_targetAtFixation,jsons/v1_VE1000_randls_35_rotated.json,http://54.235.29.9/FacialAge/BNav_EC2/DepthDuration/v2_depth_duration_MTurk/v2_DepthDuration_HTML.html#327,327,1070,779,1440,900,8-29-2022,8-42-33,65,depth_duration_stimuli/001092_2014-06-15_17-34-58_260595134347_rgbf000171-resize_3/001092_2014-06-15_17-34-58_260595134347_rgbf000171-resize_3-target.png,1000,2.6935,7,3795,1000,feet,jsons/v1_VE1000_randls_35_rotated.json,811432,1155803,39,Man
65,719580,DepthScenes,duration_manipulation_targetAtFixation,jsons/v1_VE1000_randls_35_rotated.json,http://54.235.29.9/FacialAge/BNav_EC2/DepthDuration/v2_depth_duration_MTurk/v2_DepthDuration_HTML.html#327,327,1070,779,1440,900,8-29-2022,8-42-33,66,depth_duration_stimuli/001540_2014-06-20_17-01-05_260595134347_rgbf000086-resize_2/001540_2014-06-20_17-01-05_260595134347_rgbf000086-resize-original.jpg,1000,1.459,0,5479,997,feet,jsons/v1_VE1000_randls_35_rotated.json,811432,1155803,39,Man
66,719580,DepthScenes,duration_manipulation_targetAtFixation,jsons/v1_VE1000_randls_35_rotated.json,http://54.235.29.9/FacialAge/BNav_EC2/DepthDuration/v2_depth_duration_MTurk/v2_DepthDuration_HTML.html#327,327,1070,779,1440,900,8-29-2022,8-42-33,67,depth_duration_stimuli/003079_2014-06-15_15-18-20_094959634447_rgbf000152-resize_8/003079_2014-06-15_15-18-20_094959634447_rgbf000152-resize_8-target.png,1000,2.8775,9,3989,996,feet,jsons/v1_VE1000_randls_35_rotated.json,811432,1155803,39,Man
67,719580,DepthScenes,duration_manipulation_targetAtFixation,jsons/v1_VE1000_randls_35_rotated.json,http://54.235.29.9/FacialAge/BNav_EC2/DepthDuration/v2_depth_duration_MTurk/v2_DepthDuration_HTML.html#327,327,1070,779,1440,900,8-29-2022,8-42-33,68,depth_duration_stimuli/000506_2014-06-08_23-21-00_260595134347_rgbf000070-resize_7/000506_2014-06-08_23-21-00_260595134347_rgbf000070-resize_7-target.png,1000,4.0585,9,3363,1000,feet,jsons/v1_VE1000_randls_35_rotated.json,811432,1155803,39,Man
68,719580,DepthScenes,duration_manipulation_targetAtFixation,jsons/v1_VE1000_randls_35_rotated.json,http://54.235.29.9/FacialAge/BNav_EC2/DepthDuration/v2_depth_duration_MTurk/v2_DepthDuration_HTML.html#327,327,1070,779,1440,900,8-29-2022,8-42-33,69,depth_duration_stimuli/002568_2014-06-24_13-59-21_094959634447_rgbf000062-resize_4/002568_2014-06-24_13-59-21_094959634447_rgbf000062-resize_4-target.png,1000,3.015,8,3510,994,feet,jsons/v1_VE1000_randls_35_rotated.json,811432,1155803,39,Man
69,719580,DepthScenes,duration_manipulation_targetAtFixation,jsons/v1_VE1000_randls_35_rotated.json,http://54.235.29.9/FacialAge/BNav_EC2/DepthDuration/v2_depth_duration_MTurk/v2_DepthDuration_HTML.html#327,327,1070,779,1440,900,8-29-2022,8-42-33,70,depth_duration_stimuli/003492_2014-05-21_15-50-55_094959634447_rgbf000828-resize_1/003492_2014-05-21_15-50-55_094959634447_rgbf000828-resize_1-target.png,1000,4.06875,10,4686,995,feet,jsons/v1_VE1000_randls_35_rotated.json,811432,1155803,39,Man
70,719580,DepthScenes,duration_manipulation_targetAtFixation,jsons/v1_VE1000_randls_35_rotated.json,http://54.235.29.9/FacialAge/BNav_EC2/DepthDuration/v2_depth_duration_MTurk/v2_DepthDuration_HTML.html#327,327,1070,779,1440,900,8-29-2022,8-42-33,71,depth_duration_stimuli/000709_2014-06-08_13-51-55_260595134347_rgbf000068-resize_3/000709_2014-06-08_13-51-55_260595134347_rgbf000068-resize_3-target.png,1000,1.8030000000000002,4,4258,998,feet,jsons/v1_VE1000_randls_35_rotated.json,811432,1155803,39,Man
71,719580,DepthScenes,duration_manipulation_targetAtFixation,jsons/v1_VE1000_randls_35_rotated.json,http://54.235.29.9/FacialAge/BNav_EC2/DepthDuration/v2_depth_duration_MTurk/v2_DepthDuration_HTML.html#327,327,1070,779,1440,900,8-29-2022,8-42-33,72,depth_duration_stimuli/002057_2014-06-24_21-00-13_260595134347_rgbf000120-resize_1/002057_2014-06-24_21-00-13_260595134347_rgbf000120-resize_1-target.png,1000,2.967,9,3611,1001,feet,jsons/v1_VE1000_randls_35_rotated.json,811432,1155803,39,Man
72,719580,DepthScenes,duration_manipulation_targetAtFixation,jsons/v1_VE1000_randls_35_rotated.json,http://54.235.29.9/FacialAge/BNav_EC2/DepthDuration/v2_depth_duration_MTurk/v2_DepthDuration_HTML.html#327,327,1070,779,1440,900,8-29-2022,8-42-33,73,depth_duration_stimuli/002657_2014-06-13_15-29-54_094959634447_rgbf000150-resize_1/002657_2014-06-13_15-29-54_094959634447_rgbf000150-resize_1-target.png,1000,4.919,10,3980,1000,feet,jsons/v1_VE1000_randls_35_rotated.json,811432,1155803,39,Man
73,719580,DepthScenes,duration_manipulation_targetAtFixation,jsons/v1_VE1000_randls_35_rotated.json,http://54.235.29.9/FacialAge/BNav_EC2/DepthDuration/v2_depth_duration_MTurk/v2_DepthDuration_HTML.html#327,327,1070,779,1440,900,8-29-2022,8-42-33,74,depth_duration_stimuli/002375_2014-06-28_20-13-44_260595134347_rgbf000032-resize_1/002375_2014-06-28_20-13-44_260595134347_rgbf000032-resize_1-target.png,1000,4.0175,8,4828,1004,feet,jsons/v1_VE1000_randls_35_rotated.json,811432,1155803,39,Man
74,719580,DepthScenes,duration_manipulation_targetAtFixation,jsons/v1_VE1000_randls_35_rotated.json,http://54.235.29.9/FacialAge/BNav_EC2/DepthDuration/v2_depth_duration_MTurk/v2_DepthDuration_HTML.html#327,327,1070,779,1440,900,8-29-2022,8-42-33,75,depth_duration_stimuli/003228_2014-05-14_13-42-35_094959634447_rgbf000101-resize_1/003228_2014-05-14_13-42-35_094959634447_rgbf000101-resize_1-target.png,1000,1.9680000000000002,3,4234,1008,feet,jsons/v1_VE1000_randls_35_rotated.json,811432,1155803,39,Man
75,719580,DepthScenes,duration_manipulation_targetAtFixation,jsons/v1_VE1000_randls_35_rotated.json,http://54.235.29.9/FacialAge/BNav_EC2/DepthDuration/v2_depth_duration_MTurk/v2_DepthDuration_HTML.html#327,327,1070,779,1440,900,8-29-2022,8-42-33,76,depth_duration_stimuli/002600_2014-06-24_14-27-04_094959634447_rgbf000074-resize_2/002600_2014-06-24_14-27-04_094959634447_rgbf000074-resize_2-target.png,1000,2.7575,8,3410,1003,feet,jsons/v1_VE1000_randls_35_rotated.json,811432,1155803,39,Man
76,719580,DepthScenes,duration_manipulation_targetAtFixation,jsons/v1_VE1000_randls_35_rotated.json,http://54.235.29.9/FacialAge/BNav_EC2/DepthDuration/v2_depth_duration_MTurk/v2_DepthDuration_HTML.html#327,327,1070,779,1440,900,8-29-2022,8-42-33,77,depth_duration_stimuli/000742_2014-06-08_18-48-09_260595134347_rgbf000164-resize_4/000742_2014-06-08_18-48-09_260595134347_rgbf000164-resize_4-target.png,1000,4.632,9,3067,1000,feet,jsons/v1_VE1000_randls_35_rotated.json,811432,1155803,39,Man
77,719580,DepthScenes,duration_manipulation_targetAtFixation,jsons/v1_VE1000_randls_35_rotated.json,http://54.235.29.9/FacialAge/BNav_EC2/DepthDuration/v2_depth_duration_MTurk/v2_DepthDuration_HTML.html#327,327,1070,779,1440,900,8-29-2022,8-42-33,78,depth_duration_stimuli/001066_2014-06-08_22-03-20_260595134347_rgbf000066-resize_4/001066_2014-06-08_22-03-20_260595134347_rgbf000066-resize_4-target.png,1000,4.2330000000000005,12,4661,1008,feet,jsons/v1_VE1000_randls_35_rotated.json,811432,1155803,39,Man
78,719580,DepthScenes,duration_manipulation_targetAtFixation,jsons/v1_VE1000_randls_35_rotated.json,http://54.235.29.9/FacialAge/BNav_EC2/DepthDuration/v2_depth_duration_MTurk/v2_DepthDuration_HTML.html#327,327,1070,779,1440,900,8-29-2022,8-42-33,79,depth_duration_stimuli/000927_2014-06-09_16-32-30_260595134347_rgbf000123-resize_3/000927_2014-06-09_16-32-30_260595134347_rgbf000123-resize_3-target.png,1000,2.6785,12,3554,1015,feet,jsons/v1_VE1000_randls_35_rotated.json,811432,1155803,39,Man
79,719580,DepthScenes,duration_manipulation_targetAtFixation,jsons/v1_VE1000_randls_35_rotated.json,http://54.235.29.9/FacialAge/BNav_EC2/DepthDuration/v2_depth_duration_MTurk/v2_DepthDuration_HTML.html#327,327,1070,779,1440,900,8-29-2022,8-42-33,80,depth_duration_stimuli/001110_2014-06-15_17-25-28_260595134347_rgbf000150-resize_1/001110_2014-06-15_17-25-28_260595134347_rgbf000150-resize_1-target.png,1000,1.7115,9,3288,996,feet,jsons/v1_VE1000_randls_35_rotated.json,811432,1155803,39,Man
80,719580,DepthScenes,duration_manipulation_targetAtFixation,jsons/v1_VE1000_randls_35_rotated.json,http://54.235.29.9/FacialAge/BNav_EC2/DepthDuration/v2_depth_duration_MTurk/v2_DepthDuration_HTML.html#327,327,1070,779,1440,900,8-29-2022,8-42-33,81,depth_duration_stimuli/001447_2014-06-19_17-00-32_260595134347_rgbf000082-resize_5/001447_2014-06-19_17-00-32_260595134347_rgbf000082-resize_5-target.png,1000,4.13775,8,3338,999,feet,jsons/v1_VE1000_randls_35_rotated.json,811432,1155803,39,Man
81,719580,DepthScenes,duration_manipulation_targetAtFixation,jsons/v1_VE1000_randls_35_rotated.json,http://54.235.29.9/FacialAge/BNav_EC2/DepthDuration/v2_depth_duration_MTurk/v2_DepthDuration_HTML.html#327,327,1070,779,1440,900,8-29-2022,8-42-33,82,depth_duration_stimuli/000447_2014-06-08_16-15-46_260595134347_rgbf000130-resize_1/000447_2014-06-08_16-15-46_260595134347_rgbf000130-resize_1-target.png,1000,4.479,9,3616,997,feet,jsons/v1_VE1000_randls_35_rotated.json,811432,1155803,39,Man
82,719580,DepthScenes,duration_manipulation_targetAtFixation,jsons/v1_VE1000_randls_35_rotated.json,http://54.235.29.9/FacialAge/BNav_EC2/DepthDuration/v2_depth_duration_MTurk/v2_DepthDuration_HTML.html#327,327,1070,779,1440,900,8-29-2022,8-42-33,83,depth_duration_stimuli/001214_2014-06-17_16-13-55_260595134347_rgbf000111-resize_0/001214_2014-06-17_16-13-55_260595134347_rgbf000111-resize_0-target.png,1000,2.6505,8,3207,995,feet,jsons/v1_VE1000_randls_35_rotated.json,811432,1155803,39,Man
83,719580,DepthScenes,duration_manipulation_targetAtFixation,jsons/v1_VE1000_randls_35_rotated.json,http://54.235.29.9/FacialAge/BNav_EC2/DepthDuration/v2_depth_duration_MTurk/v2_DepthDuration_HTML.html#327,327,1070,779,1440,900,8-29-2022,8-42-33,84,depth_duration_stimuli/000810_2014-06-08_17-20-01_260595134347_rgbf000105-resize_0/000810_2014-06-08_17-20-01_260595134347_rgbf000105-resize_0-target.png,1000,1.4865,8,3064,1001,feet,jsons/v1_VE1000_randls_35_rotated.json,811432,1155803,39,Man
84,719580,DepthScenes,duration_manipulation_targetAtFixation,jsons/v1_VE1000_randls_35_rotated.json,http://54.235.29.9/FacialAge/BNav_EC2/DepthDuration/v2_depth_duration_MTurk/v2_DepthDuration_HTML.html#327,327,1070,779,1440,900,8-29-2022,8-42-33,85,depth_duration_stimuli/000635_2014-06-08_16-38-42_260595134347_rgbf000106-resize_1/000635_2014-06-08_16-38-42_260595134347_rgbf000106-resize_1-target.png,1000,2.074,10,4075,999,feet,jsons/v1_VE1000_randls_35_rotated.json,811432,1155803,39,Man
85,719580,DepthScenes,duration_manipulation_targetAtFixation,jsons/v1_VE1000_randls_35_rotated.json,http://54.235.29.9/FacialAge/BNav_EC2/DepthDuration/v2_depth_duration_MTurk/v2_DepthDuration_HTML.html#327,327,1070,779,1440,900,8-29-2022,8-42-33,86,depth_duration_stimuli/002279_2014-06-28_18-55-32_260595134347_rgbf000040-resize_5/002279_2014-06-28_18-55-32_260595134347_rgbf000040-resize_5-target.png,1000,1.5043333333333,5,3695,996,feet,jsons/v1_VE1000_randls_35_rotated.json,811432,1155803,39,Man
86,719580,DepthScenes,duration_manipulation_targetAtFixation,jsons/v1_VE1000_randls_35_rotated.json,http://54.235.29.9/FacialAge/BNav_EC2/DepthDuration/v2_depth_duration_MTurk/v2_DepthDuration_HTML.html#327,327,1070,779,1440,900,8-29-2022,8-42-33,87,depth_duration_stimuli/001052_2014-06-08_18-24-54_260595134347_rgbf000130-resize_1/001052_2014-06-08_18-24-54_260595134347_rgbf000130-resize_1-target.png,1000,4.1045,8,3751,1005,feet,jsons/v1_VE1000_randls_35_rotated.json,811432,1155803,39,Man
87,719580,DepthScenes,duration_manipulation_targetAtFixation,jsons/v1_VE1000_randls_35_rotated.json,http://54.235.29.9/FacialAge/BNav_EC2/DepthDuration/v2_depth_duration_MTurk/v2_DepthDuration_HTML.html#327,327,1070,779,1440,900,8-29-2022,8-42-33,88,depth_duration_stimuli/002988_2014-06-15_12-24-20_094959634447_rgbf000150-resize_1/002988_2014-06-15_12-24-20_094959634447_rgbf000150-resize_1-target.png,1000,4.7669999999999995,11,6443,993,feet,jsons/v1_VE1000_randls_35_rotated.json,811432,1155803,39,Man
88,719580,DepthScenes,duration_manipulation_targetAtFixation,jsons/v1_VE1000_randls_35_rotated.json,http://54.235.29.9/FacialAge/BNav_EC2/DepthDuration/v2_depth_duration_MTurk/v2_DepthDuration_HTML.html#327,327,1070,779,1440,900,8-29-2022,8-42-33,89,depth_duration_stimuli/000691_2014-06-08_13-08-50_260595134347_rgbf000132-resize_3/000691_2014-06-08_13-08-50_260595134347_rgbf000132-resize_3-target.png,1000,4.1530000000000005,0,11058,985,feet,jsons/v1_VE1000_randls_35_rotated.json,811432,1155803,39,Man
89,719580,DepthScenes,duration_manipulation_targetAtFixation,jsons/v1_VE1000_randls_35_rotated.json,http://54.235.29.9/FacialAge/BNav_EC2/DepthDuration/v2_depth_duration_MTurk/v2_DepthDuration_HTML.html#327,327,1070,779,1440,900,8-29-2022,8-42-33,90,depth_duration_stimuli/002213_2014-06-28_18-37-58_260595134347_rgbf000055-resize_1/002213_2014-06-28_18-37-58_260595134347_rgbf000055-resize_1-target.png,1000,3.62,10,3791,1002,feet,jsons/v1_VE1000_randls_35_rotated.json,811432,1155803,39,Man
90,719580,DepthScenes,duration_manipulation_targetAtFixation,jsons/v1_VE1000_randls_35_rotated.json,http://54.235.29.9/FacialAge/BNav_EC2/DepthDuration/v2_depth_duration_MTurk/v2_DepthDuration_HTML.html#327,327,1070,779,1440,900,8-29-2022,8-42-33,91,depth_duration_stimuli/000780_2014-06-08_22-28-29_260595134347_rgbf000126-resize_1/000780_2014-06-08_22-28-29_260595134347_rgbf000126-resize_1-target.png,1000,3.3825,12,4496,1002,feet,jsons/v1_VE1000_randls_35_rotated.json,811432,1155803,39,Man
91,719580,DepthScenes,duration_manipulation_targetAtFixation,jsons/v1_VE1000_randls_35_rotated.json,http://54.235.29.9/FacialAge/BNav_EC2/DepthDuration/v2_depth_duration_MTurk/v2_DepthDuration_HTML.html#327,327,1070,779,1440,900,8-29-2022,8-42-33,92,depth_duration_stimuli/002445_2014-06-28_20-32-16_260595134347_rgbf000029-resize_4/002445_2014-06-28_20-32-16_260595134347_rgbf000029-resize_4-target.png,1000,2.5315,5,3599,995,feet,jsons/v1_VE1000_randls_35_rotated.json,811432,1155803,39,Man
92,719580,DepthScenes,duration_manipulation_targetAtFixation,jsons/v1_VE1000_randls_35_rotated.json,http://54.235.29.9/FacialAge/BNav_EC2/DepthDuration/v2_depth_duration_MTurk/v2_DepthDuration_HTML.html#327,327,1070,779,1440,900,8-29-2022,8-42-33,93,depth_duration_stimuli/001650_2014-06-20_12-09-00_260595134347_rgbf000087-resize_3/001650_2014-06-20_12-09-00_260595134347_rgbf000087-resize_3-target.png,1000,1.9505,3,6438,987,feet,jsons/v1_VE1000_randls_35_rotated.json,811432,1155803,39,Man
93,719580,DepthScenes,duration_manipulation_targetAtFixation,jsons/v1_VE1000_randls_35_rotated.json,http://54.235.29.9/FacialAge/BNav_EC2/DepthDuration/v2_depth_duration_MTurk/v2_DepthDuration_HTML.html#327,327,1070,779,1440,900,8-29-2022,8-42-33,94,depth_duration_stimuli/000682_2014-06-08_23-14-58_260595134347_rgbf000041-resize_5/000682_2014-06-08_23-14-58_260595134347_rgbf000041-resize_5-target.png,1000,2.7239999999999998,9,3673,1009,feet,jsons/v1_VE1000_randls_35_rotated.json,811432,1155803,39,Man
94,719580,DepthScenes,duration_manipulation_targetAtFixation,jsons/v1_VE1000_randls_35_rotated.json,http://54.235.29.9/FacialAge/BNav_EC2/DepthDuration/v2_depth_duration_MTurk/v2_DepthDuration_HTML.html#327,327,1070,779,1440,900,8-29-2022,8-42-33,95,depth_duration_stimuli/001571_2014-06-20_17-21-32_260595134347_rgbf000089-resize_1/001571_2014-06-20_17-21-32_260595134347_rgbf000089-resize_1-target.png,1000,1.86,3,3800,988,feet,jsons/v1_VE1000_randls_35_rotated.json,811432,1155803,39,Man
95,719580,DepthScenes,duration_manipulation_targetAtFixation,jsons/v1_VE1000_randls_35_rotated.json,http://54.235.29.9/FacialAge/BNav_EC2/DepthDuration/v2_depth_duration_MTurk/v2_DepthDuration_HTML.html#327,327,1070,779,1440,900,8-29-2022,8-42-33,96,depth_duration_stimuli/002272_2014-06-28_18-53-56_260595134347_rgbf000067-resize_2/002272_2014-06-28_18-53-56_260595134347_rgbf000067-resize_2-target.png,1000,1.138,2,3618,1015,feet,jsons/v1_VE1000_randls_35_rotated.json,811432,1155803,39,Man
96,719580,DepthScenes,duration_manipulation_targetAtFixation,jsons/v1_VE1000_randls_35_rotated.json,http://54.235.29.9/FacialAge/BNav_EC2/DepthDuration/v2_depth_duration_MTurk/v2_DepthDuration_HTML.html#327,327,1070,779,1440,900,8-29-2022,8-42-33,97,depth_duration_stimuli/001032_2014-06-08_13-23-17_260595134347_rgbf000021-resize_3/001032_2014-06-08_13-23-17_260595134347_rgbf000021-resize_3-target.png,1000,3.2725,10,4091,1000,feet,jsons/v1_VE1000_randls_35_rotated.json,811432,1155803,39,Man
97,719580,DepthScenes,duration_manipulation_targetAtFixation,jsons/v1_VE1000_randls_35_rotated.json,http://54.235.29.9/FacialAge/BNav_EC2/DepthDuration/v2_depth_duration_MTurk/v2_DepthDuration_HTML.html#327,327,1070,779,1440,900,8-29-2022,8-42-33,98,depth_duration_stimuli/001059_2014-06-08_21-53-27_260595134347_rgbf000061-resize_4/001059_2014-06-08_21-53-27_260595134347_rgbf000061-resize_4-target.png,1000,2.4185,7,4036,991,feet,jsons/v1_VE1000_randls_35_rotated.json,811432,1155803,39,Man
98,719580,DepthScenes,duration_manipulation_targetAtFixation,jsons/v1_VE1000_randls_35_rotated.json,http://54.235.29.9/FacialAge/BNav_EC2/DepthDuration/v2_depth_duration_MTurk/v2_DepthDuration_HTML.html#327,327,1070,779,1440,900,8-29-2022,8-42-33,99,depth_duration_stimuli/001222_2014-06-17_16-24-06_260595134347_rgbf000073-resize_0/001222_2014-06-17_16-24-06_260595134347_rgbf000073-resize-original.jpg,1000,1.4385,0,3738,1010,feet,jsons/v1_VE1000_randls_35_rotated.json,811432,1155803,39,Man
99,719580,DepthScenes,duration_manipulation_targetAtFixation,jsons/v1_VE1000_randls_35_rotated.json,http://54.235.29.9/FacialAge/BNav_EC2/DepthDuration/v2_depth_duration_MTurk/v2_DepthDuration_HTML.html#327,327,1070,779,1440,900,8-29-2022,8-42-33,100,depth_duration_stimuli/003010_2014-06-15_12-54-35_094959634447_rgbf000112-resize_0/003010_2014-06-15_12-54-35_094959634447_rgbf000112-resize_0-target.png,1000,3.1185,10,4219,995,feet,jsons/v1_VE1000_randls_35_rotated.json,811432,1155803,39,Man
100,719580,DepthScenes,duration_manipulation_targetAtFixation,jsons/v1_VE1000_randls_35_rotated.json,http://54.235.29.9/FacialAge/BNav_EC2/DepthDuration/v2_depth_duration_MTurk/v2_DepthDuration_HTML.html#327,327,1070,779,1440,900,8-29-2022,8-42-33,101,depth_duration_stimuli/001810_2014-06-26_20-51-35_260595134347_rgbf000040-resize_3/001810_2014-06-26_20-51-35_260595134347_rgbf000040-resize_3-target.png,1000,2.2525,5,3579,989,feet,jsons/v1_VE1000_randls_35_rotated.json,811432,1155803,39,Man
101,719580,DepthScenes,duration_manipulation_targetAtFixation,jsons/v1_VE1000_randls_35_rotated.json,http://54.235.29.9/FacialAge/BNav_EC2/DepthDuration/v2_depth_duration_MTurk/v2_DepthDuration_HTML.html#327,327,1070,779,1440,900,8-29-2022,8-42-33,102,depth_duration_stimuli/003338_2014-05-20_11-01-23_094959634447_rgbf000051-resize_6/003338_2014-05-20_11-01-23_094959634447_rgbf000051-resize_6-target.png,1000,1.693,4,3467,1000,feet,jsons/v1_VE1000_randls_35_rotated.json,811432,1155803,39,Man
102,719580,DepthScenes,duration_manipulation_targetAtFixation,jsons/v1_VE1000_randls_35_rotated.json,http://54.235.29.9/FacialAge/BNav_EC2/DepthDuration/v2_depth_duration_MTurk/v2_DepthDuration_HTML.html#327,327,1070,779,1440,900,8-29-2022,8-42-33,103,depth_duration_stimuli/002509_2014-06-24_13-19-22_094959634447_rgbf000077-resize_0/002509_2014-06-24_13-19-22_094959634447_rgbf000077-resize_0-target.png,1000,1.3065,4,3302,995,feet,jsons/v1_VE1000_randls_35_rotated.json,811432,1155803,39,Man
103,719580,DepthScenes,duration_manipulation_targetAtFixation,jsons/v1_VE1000_randls_35_rotated.json,http://54.235.29.9/FacialAge/BNav_EC2/DepthDuration/v2_depth_duration_MTurk/v2_DepthDuration_HTML.html#327,327,1070,779,1440,900,8-29-2022,8-42-33,104,depth_duration_stimuli/001136_2014-06-17_15-19-41_260595134347_rgbf000076-resize_3/001136_2014-06-17_15-19-41_260595134347_rgbf000076-resize_3-target.png,1000,1.8655,6,3733,1006,feet,jsons/v1_VE1000_randls_35_rotated.json,811432,1155803,39,Man
104,719580,DepthScenes,duration_manipulation_targetAtFixation,jsons/v1_VE1000_randls_35_rotated.json,http://54.235.29.9/FacialAge/BNav_EC2/DepthDuration/v2_depth_duration_MTurk/v2_DepthDuration_HTML.html#327,327,1070,779,1440,900,8-29-2022,8-42-33,105,depth_duration_stimuli/001164_2014-06-17_15-35-46_260595134347_rgbf000085-resize_3/001164_2014-06-17_15-35-46_260595134347_rgbf000085-resize_3-target.png,1000,2.354,7,11820,992,feet,jsons/v1_VE1000_randls_35_rotated.json,811432,1155803,39,Man
105,719580,DepthScenes,duration_manipulation_targetAtFixation,jsons/v1_VE1000_randls_35_rotated.json,http://54.235.29.9/FacialAge/BNav_EC2/DepthDuration/v2_depth_duration_MTurk/v2_DepthDuration_HTML.html#327,327,1070,779,1440,900,8-29-2022,8-42-33,106,depth_duration_stimuli/000103_2014-05-14_22-01-17_260595134347_rgbf000152-resize_5/000103_2014-05-14_22-01-17_260595134347_rgbf000152-resize_5-target.png,1000,1.993,8,16853,986,feet,jsons/v1_VE1000_randls_35_rotated.json,811432,1155803,39,Man
106,719580,DepthScenes,duration_manipulation_targetAtFixation,jsons/v1_VE1000_randls_35_rotated.json,http://54.235.29.9/FacialAge/BNav_EC2/DepthDuration/v2_depth_duration_MTurk/v2_DepthDuration_HTML.html#327,327,1070,779,1440,900,8-29-2022,8-42-33,107,depth_duration_stimuli/001555_2014-06-20_17-12-10_260595134347_rgbf000065-resize_4/001555_2014-06-20_17-12-10_260595134347_rgbf000065-resize_4-target.png,1000,1.633,4,3868,1009,feet,jsons/v1_VE1000_randls_35_rotated.json,811432,1155803,39,Man
107,719580,DepthScenes,duration_manipulation_targetAtFixation,jsons/v1_VE1000_randls_35_rotated.json,http://54.235.29.9/FacialAge/BNav_EC2/DepthDuration/v2_depth_duration_MTurk/v2_DepthDuration_HTML.html#327,327,1070,779,1440,900,8-29-2022,8-42-33,108,depth_duration_stimuli/002209_2014-06-28_18-36-10_260595134347_rgbf000051-resize_1/002209_2014-06-28_18-36-10_260595134347_rgbf000051-resize_1-target.png,1000,2.057,4,3194,1001,feet,jsons/v1_VE1000_randls_35_rotated.json,811432,1155803,39,Man
108,719580,DepthScenes,duration_manipulation_targetAtFixation,jsons/v1_VE1000_randls_35_rotated.json,http://54.235.29.9/FacialAge/BNav_EC2/DepthDuration/v2_depth_duration_MTurk/v2_DepthDuration_HTML.html#327,327,1070,779,1440,900,8-29-2022,8-42-33,109,depth_duration_stimuli/002763_2014-06-22_19-13-10_094959634447_rgbf000075-resize_4/002763_2014-06-22_19-13-10_094959634447_rgbf000075-resize_4-target.png,1000,1.68375,5,3113,989,feet,jsons/v1_VE1000_randls_35_rotated.json,811432,1155803,39,Man
109,719580,DepthScenes,duration_manipulation_targetAtFixation,jsons/v1_VE1000_randls_35_rotated.json,http://54.235.29.9/FacialAge/BNav_EC2/DepthDuration/v2_depth_duration_MTurk/v2_DepthDuration_HTML.html#327,327,1070,779,1440,900,8-29-2022,8-42-33,110,depth_duration_stimuli/000109_2014-05-14_23-41-52_260595134347_rgbf000035-resize_9/000109_2014-05-14_23-41-52_260595134347_rgbf000035-resize_9-target.png,1000,1.3545,2,3676,1009,feet,jsons/v1_VE1000_randls_35_rotated.json,811432,1155803,39,Man
110,719580,DepthScenes,duration_manipulation_targetAtFixation,jsons/v1_VE1000_randls_35_rotated.json,http://54.235.29.9/FacialAge/BNav_EC2/DepthDuration/v2_depth_duration_MTurk/v2_DepthDuration_HTML.html#327,327,1070,779,1440,900,8-29-2022,8-42-33,111,depth_duration_stimuli/000470_2014-06-09_19-42-40_260595134347_rgbf000094-resize_1/000470_2014-06-09_19-42-40_260595134347_rgbf000094-resize_1-target.png,1000,1.831,3,3703,988,feet,jsons/v1_VE1000_randls_35_rotated.json,811432,1155803,39,Man
111,719580,DepthScenes,duration_manipulation_targetAtFixation,jsons/v1_VE1000_randls_35_rotated.json,http://54.235.29.9/FacialAge/BNav_EC2/DepthDuration/v2_depth_duration_MTurk/v2_DepthDuration_HTML.html#327,327,1070,779,1440,900,8-29-2022,8-42-33,112,depth_duration_stimuli/003495_2014-05-21_16-01-51_094959634447_rgbf000100-resize_3/003495_2014-05-21_16-01-51_094959634447_rgbf000100-resize_3-target.png,1000,1.6255,3,6155,1000,feet,jsons/v1_VE1000_randls_35_rotated.json,811432,1155803,39,Man
112,719580,DepthScenes,duration_manipulation_targetAtFixation,jsons/v1_VE1000_randls_35_rotated.json,http://54.235.29.9/FacialAge/BNav_EC2/DepthDuration/v2_depth_duration_MTurk/v2_DepthDuration_HTML.html#327,327,1070,779,1440,900,8-29-2022,8-42-33,113,depth_duration_stimuli/001244_2014-06-17_16-47-45_260595134347_rgbf000030-resize_4/001244_2014-06-17_16-47-45_260595134347_rgbf000030-resize_4-target.png,1000,2.0425,5,3301,995,feet,jsons/v1_VE1000_randls_35_rotated.json,811432,1155803,39,Man
113,719580,DepthScenes,duration_manipulation_targetAtFixation,jsons/v1_VE1000_randls_35_rotated.json,http://54.235.29.9/FacialAge/BNav_EC2/DepthDuration/v2_depth_duration_MTurk/v2_DepthDuration_HTML.html#327,327,1070,779,1440,900,8-29-2022,8-42-33,114,depth_duration_stimuli/001815_2014-06-26_20-52-55_260595134347_rgbf000020-resize_0/001815_2014-06-26_20-52-55_260595134347_rgbf000020-resize_0-target.png,1000,3.3865,10,4131,1000,feet,jsons/v1_VE1000_randls_35_rotated.json,811432,1155803,39,Man
114,719580,DepthScenes,duration_manipulation_targetAtFixation,jsons/v1_VE1000_randls_35_rotated.json,http://54.235.29.9/FacialAge/BNav_EC2/DepthDuration/v2_depth_duration_MTurk/v2_DepthDuration_HTML.html#327,327,1070,779,1440,900,8-29-2022,8-42-33,115,depth_duration_stimuli/001808_2014-06-26_20-50-58_260595134347_rgbf000029-resize_1/001808_2014-06-26_20-50-58_260595134347_rgbf000029-resize_1-target.png,1000,4.249,10,4094,986,feet,jsons/v1_VE1000_randls_35_rotated.json,811432,1155803,39,Man
115,719580,DepthScenes,duration_manipulation_targetAtFixation,jsons/v1_VE1000_randls_35_rotated.json,http://54.235.29.9/FacialAge/BNav_EC2/DepthDuration/v2_depth_duration_MTurk/v2_DepthDuration_HTML.html#327,327,1070,779,1440,900,8-29-2022,8-42-33,116,depth_duration_stimuli/002875_2014-06-01_15-19-00_094959634447_rgbf000151-resize_1/002875_2014-06-01_15-19-00_094959634447_rgbf000151-resize_1-target.png,1000,1.9675,8,3201,1001,feet,jsons/v1_VE1000_randls_35_rotated.json,811432,1155803,39,Man
116,719580,DepthScenes,duration_manipulation_targetAtFixation,jsons/v1_VE1000_randls_35_rotated.json,http://54.235.29.9/FacialAge/BNav_EC2/DepthDuration/v2_depth_duration_MTurk/v2_DepthDuration_HTML.html#327,327,1070,779,1440,900,8-29-2022,8-42-33,117,depth_duration_stimuli/001011_2014-06-08_23-18-54_260595134347_rgbf000044-resize_4/001011_2014-06-08_23-18-54_260595134347_rgbf000044-resize_4-target.png,1000,2.4730000000000003,9,3364,996,feet,jsons/v1_VE1000_randls_35_rotated.json,811432,1155803,39,Man
117,719580,DepthScenes,duration_manipulation_targetAtFixation,jsons/v1_VE1000_randls_35_rotated.json,http://54.235.29.9/FacialAge/BNav_EC2/DepthDuration/v2_depth_duration_MTurk/v2_DepthDuration_HTML.html#327,327,1070,779,1440,900,8-29-2022,8-42-33,118,depth_duration_stimuli/002949_2014-06-26_15-57-42_094959634447_rgbf000079-resize_1/002949_2014-06-26_15-57-42_094959634447_rgbf000079-resize_1-target.png,1000,1.8915,5,3267,1013,feet,jsons/v1_VE1000_randls_35_rotated.json,811432,1155803,39,Man
118,719580,DepthScenes,duration_manipulation_targetAtFixation,jsons/v1_VE1000_randls_35_rotated.json,http://54.235.29.9/FacialAge/BNav_EC2/DepthDuration/v2_depth_duration_MTurk/v2_DepthDuration_HTML.html#327,327,1070,779,1440,900,8-29-2022,8-42-33,119,depth_duration_stimuli/000522_2014-06-08_13-35-06_260595134347_rgbf000244-resize_1/000522_2014-06-08_13-35-06_260595134347_rgbf000244-resize_1-target.png,1000,2.3715,2,3664,996,feet,jsons/v1_VE1000_randls_35_rotated.json,811432,1155803,39,Man
119,719580,DepthScenes,duration_manipulation_targetAtFixation,jsons/v1_VE1000_randls_35_rotated.json,http://54.235.29.9/FacialAge/BNav_EC2/DepthDuration/v2_depth_duration_MTurk/v2_DepthDuration_HTML.html#327,327,1070,779,1440,900,8-29-2022,8-42-33,120,depth_duration_stimuli/000787_2014-06-08_22-33-53_260595134347_rgbf000175-resize_1/000787_2014-06-08_22-33-53_260595134347_rgbf000175-resize-original.jpg,1000,4.784,0,4026,993,feet,jsons/v1_VE1000_randls_35_rotated.json,811432,1155803,39,Man
120,719580,DepthScenes,duration_manipulation_targetAtFixation,jsons/v1_VE1000_randls_35_rotated.json,http://54.235.29.9/FacialAge/BNav_EC2/DepthDuration/v2_depth_duration_MTurk/v2_DepthDuration_HTML.html#327,327,1070,779,1440,900,8-29-2022,8-42-33,121,depth_duration_stimuli/000502_2014-06-08_23-02-32_260595134347_rgbf000063-resize_4/000502_2014-06-08_23-02-32_260595134347_rgbf000063-resize_4-target.png,1000,2.431,6,3578,1014,feet,jsons/v1_VE1000_randls_35_rotated.json,811432,1155803,39,Man
121,719580,DepthScenes,duration_manipulation_targetAtFixation,jsons/v1_VE1000_randls_35_rotated.json,http://54.235.29.9/FacialAge/BNav_EC2/DepthDuration/v2_depth_duration_MTurk/v2_DepthDuration_HTML.html#327,327,1070,779,1440,900,8-29-2022,8-42-33,122,depth_duration_stimuli/001199_2014-06-17_16-03-48_260595134347_rgbf000077-resize_0/001199_2014-06-17_16-03-48_260595134347_rgbf000077-resize_0-target.png,1000,3.4375,10,4452,987,feet,jsons/v1_VE1000_randls_35_rotated.json,811432,1155803,39,Man
122,719580,DepthScenes,duration_manipulation_targetAtFixation,jsons/v1_VE1000_randls_35_rotated.json,http://54.235.29.9/FacialAge/BNav_EC2/DepthDuration/v2_depth_duration_MTurk/v2_DepthDuration_HTML.html#327,327,1070,779,1440,900,8-29-2022,8-42-33,123,depth_duration_stimuli/000457_2014-06-08_16-52-43_260595134347_rgbf000199-resize_1/000457_2014-06-08_16-52-43_260595134347_rgbf000199-resize_1-target.png,1000,3.6489999999999996,10,3626,991,feet,jsons/v1_VE1000_randls_35_rotated.json,811432,1155803,39,Man
123,719580,DepthScenes,duration_manipulation_targetAtFixation,jsons/v1_VE1000_randls_35_rotated.json,http://54.235.29.9/FacialAge/BNav_EC2/DepthDuration/v2_depth_duration_MTurk/v2_DepthDuration_HTML.html#327,327,1070,779,1440,900,8-29-2022,8-42-33,124,depth_duration_stimuli/000929_2014-06-09_16-33-19_260595134347_rgbf000139-resize_0/000929_2014-06-09_16-33-19_260595134347_rgbf000139-resize_0-target.png,1000,2.8680000000000003,7,3957,996,feet,jsons/v1_VE1000_randls_35_rotated.json,811432,1155803,39,Man
124,719580,DepthScenes,duration_manipulation_targetAtFixation,jsons/v1_VE1000_randls_35_rotated.json,http://54.235.29.9/FacialAge/BNav_EC2/DepthDuration/v2_depth_duration_MTurk/v2_DepthDuration_HTML.html#327,327,1070,779,1440,900,8-29-2022,8-42-33,125,depth_duration_stimuli/001392_2014-06-19_16-07-59_260595134347_rgbf000046-resize_1/001392_2014-06-19_16-07-59_260595134347_rgbf000046-resize_1-target.png,1000,4.135,10,4142,988,feet,jsons/v1_VE1000_randls_35_rotated.json,811432,1155803,39,Man
125,719580,DepthScenes,duration_manipulation_targetAtFixation,jsons/v1_VE1000_randls_35_rotated.json,http://54.235.29.9/FacialAge/BNav_EC2/DepthDuration/v2_depth_duration_MTurk/v2_DepthDuration_HTML.html#327,327,1070,779,1440,900,8-29-2022,8-42-33,126,depth_duration_stimuli/001570_2014-06-20_17-21-09_260595134347_rgbf000135-resize_4/001570_2014-06-20_17-21-09_260595134347_rgbf000135-resize_4-target.png,1000,4.467,12,3626,999,feet,jsons/v1_VE1000_randls_35_rotated.json,811432,1155803,39,Man
126,719580,DepthScenes,duration_manipulation_targetAtFixation,jsons/v1_VE1000_randls_35_rotated.json,http://54.235.29.9/FacialAge/BNav_EC2/DepthDuration/v2_depth_duration_MTurk/v2_DepthDuration_HTML.html#327,327,1070,779,1440,900,8-29-2022,8-42-33,127,depth_duration_stimuli/001584_2014-06-20_11-07-43_260595134347_rgbf000002-resize_1/001584_2014-06-20_11-07-43_260595134347_rgbf000002-resize_1-target.png,1000,3.53,12,3685,999,feet,jsons/v1_VE1000_randls_35_rotated.json,811432,1155803,39,Man
127,719580,DepthScenes,duration_manipulation_targetAtFixation,jsons/v1_VE1000_randls_35_rotated.json,http://54.235.29.9/FacialAge/BNav_EC2/DepthDuration/v2_depth_duration_MTurk/v2_DepthDuration_HTML.html#327,327,1070,779,1440,900,8-29-2022,8-42-33,128,depth_duration_stimuli/003621_2014-05-23_18-06-08_094959634447_rgbf000101-resize_1/003621_2014-05-23_18-06-08_094959634447_rgbf000101-resize_1-target.png,1000,3.9835,12,3720,1001,feet,jsons/v1_VE1000_randls_35_rotated.json,811432,1155803,39,Man
128,719580,DepthScenes,duration_manipulation_targetAtFixation,jsons/v1_VE1000_randls_35_rotated.json,http://54.235.29.9/FacialAge/BNav_EC2/DepthDuration/v2_depth_duration_MTurk/v2_DepthDuration_HTML.html#327,327,1070,779,1440,900,8-29-2022,8-42-33,129,depth_duration_stimuli/002639_2014-06-24_14-51-37_094959634447_rgbf000074-resize_4/002639_2014-06-24_14-51-37_094959634447_rgbf000074-resize_4-target.png,1000,4.0375,10,3547,1006,feet,jsons/v1_VE1000_randls_35_rotated.json,811432,1155803,39,Man
129,719580,DepthScenes,duration_manipulation_targetAtFixation,jsons/v1_VE1000_randls_35_rotated.json,http://54.235.29.9/FacialAge/BNav_EC2/DepthDuration/v2_depth_duration_MTurk/v2_DepthDuration_HTML.html#327,327,1070,779,1440,900,8-29-2022,8-42-33,130,depth_duration_stimuli/003292_2014-05-14_21-53-49_094959634447_rgbf000100-resize_2/003292_2014-05-14_21-53-49_094959634447_rgbf000100-resize_2-target.png,1000,3.4815,8,3802,1010,feet,jsons/v1_VE1000_randls_35_rotated.json,811432,1155803,39,Man
130,719580,DepthScenes,duration_manipulation_targetAtFixation,jsons/v1_VE1000_randls_35_rotated.json,http://54.235.29.9/FacialAge/BNav_EC2/DepthDuration/v2_depth_duration_MTurk/v2_DepthDuration_HTML.html#327,327,1070,779,1440,900,8-29-2022,8-42-33,131,depth_duration_stimuli/000665_2014-06-09_20-42-35_260595134347_rgbf000110-resize_1/000665_2014-06-09_20-42-35_260595134347_rgbf000110-resize_1-target.png,1000,3.057,9,3237,992,feet,jsons/v1_VE1000_randls_35_rotated.json,811432,1155803,39,Man
131,719580,DepthScenes,duration_manipulation_targetAtFixation,jsons/v1_VE1000_randls_35_rotated.json,http://54.235.29.9/FacialAge/BNav_EC2/DepthDuration/v2_depth_duration_MTurk/v2_DepthDuration_HTML.html#327,327,1070,779,1440,900,8-29-2022,8-42-33,132,depth_duration_stimuli/001150_2014-06-17_15-27-34_260595134347_rgbf000108-resize_2/001150_2014-06-17_15-27-34_260595134347_rgbf000108-resize_2-target.png,1000,4.0325,10,4219,999,feet,jsons/v1_VE1000_randls_35_rotated.json,811432,1155803,39,Man
132,719580,DepthScenes,duration_manipulation_targetAtFixation,jsons/v1_VE1000_randls_35_rotated.json,http://54.235.29.9/FacialAge/BNav_EC2/DepthDuration/v2_depth_duration_MTurk/v2_DepthDuration_HTML.html#327,327,1070,779,1440,900,8-29-2022,8-42-33,133,depth_duration_stimuli/000409_2014-06-04_19-23-33_260595134347_rgbf000067-resize_0/000409_2014-06-04_19-23-33_260595134347_rgbf000067-resize_0-target.png,1000,3.7335,0,11372,999,feet,jsons/v1_VE1000_randls_35_rotated.json,811432,1155803,39,Man
133,719580,DepthScenes,duration_manipulation_targetAtFixation,jsons/v1_VE1000_randls_35_rotated.json,http://54.235.29.9/FacialAge/BNav_EC2/DepthDuration/v2_depth_duration_MTurk/v2_DepthDuration_HTML.html#327,327,1070,779,1440,900,8-29-2022,8-42-33,134,depth_duration_stimuli/002663_2014-06-13_15-50-26_094959634447_rgbf000075-resize_1/002663_2014-06-13_15-50-26_094959634447_rgbf000075-resize_1-target.png,1000,4.7495,10,3469,993,feet,jsons/v1_VE1000_randls_35_rotated.json,811432,1155803,39,Man
134,719580,DepthScenes,duration_manipulation_targetAtFixation,jsons/v1_VE1000_randls_35_rotated.json,http://54.235.29.9/FacialAge/BNav_EC2/DepthDuration/v2_depth_duration_MTurk/v2_DepthDuration_HTML.html#327,327,1070,779,1440,900,8-29-2022,8-42-33,135,depth_duration_stimuli/000375_2014-06-08_11-17-29_260595134347_rgbf000133-resize_2/000375_2014-06-08_11-17-29_260595134347_rgbf000133-resize-original.jpg,1000,4.718,0,3756,1008,feet,jsons/v1_VE1000_randls_35_rotated.json,811432,1155803,39,Man
135,719580,DepthScenes,duration_manipulation_targetAtFixation,jsons/v1_VE1000_randls_35_rotated.json,http://54.235.29.9/FacialAge/BNav_EC2/DepthDuration/v2_depth_duration_MTurk/v2_DepthDuration_HTML.html#327,327,1070,779,1440,900,8-29-2022,8-42-33,136,depth_duration_stimuli/002467_2014-06-28_20-38-07_260595134347_rgbf000026-resize_2/002467_2014-06-28_20-38-07_260595134347_rgbf000026-resize_2-target.png,1000,4.742,10,3889,998,feet,jsons/v1_VE1000_randls_35_rotated.json,811432,1155803,39,Man
136,719580,DepthScenes,duration_manipulation_targetAtFixation,jsons/v1_VE1000_randls_35_rotated.json,http://54.235.29.9/FacialAge/BNav_EC2/DepthDuration/v2_depth_duration_MTurk/v2_DepthDuration_HTML.html#327,327,1070,779,1440,900,8-29-2022,8-42-33,137,depth_duration_stimuli/002570_2014-06-24_13-59-54_094959634447_rgbf000059-resize_0/002570_2014-06-24_13-59-54_094959634447_rgbf000059-resize_0-target.png,1000,4.037,10,3412,985,feet,jsons/v1_VE1000_randls_35_rotated.json,811432,1155803,39,Man
137,719580,DepthScenes,duration_manipulation_targetAtFixation,jsons/v1_VE1000_randls_35_rotated.json,http://54.235.29.9/FacialAge/BNav_EC2/DepthDuration/v2_depth_duration_MTurk/v2_DepthDuration_HTML.html#327,327,1070,779,1440,900,8-29-2022,8-42-33,138,depth_duration_stimuli/001828_2014-06-26_21-40-03_260595134347_rgbf000024-resize_0/001828_2014-06-26_21-40-03_260595134347_rgbf000024-resize_0-target.png,1000,4.8260000000000005,12,4346,1009,feet,jsons/v1_VE1000_randls_35_rotated.json,811432,1155803,39,Man
138,719580,DepthScenes,duration_manipulation_targetAtFixation,jsons/v1_VE1000_randls_35_rotated.json,http://54.235.29.9/FacialAge/BNav_EC2/DepthDuration/v2_depth_duration_MTurk/v2_DepthDuration_HTML.html#327,327,1070,779,1440,900,8-29-2022,8-42-33,139,depth_duration_stimuli/000009_2014-05-26_14-32-05_260595134347_rgbf000034-resize_3/000009_2014-05-26_14-32-05_260595134347_rgbf000034-resize_3-target.png,1000,3.8715,12,3804,1000,feet,jsons/v1_VE1000_randls_35_rotated.json,811432,1155803,39,Man
139,719580,DepthScenes,duration_manipulation_targetAtFixation,jsons/v1_VE1000_randls_35_rotated.json,http://54.235.29.9/FacialAge/BNav_EC2/DepthDuration/v2_depth_duration_MTurk/v2_DepthDuration_HTML.html#327,327,1070,779,1440,900,8-29-2022,8-42-33,140,depth_duration_stimuli/003129_2014-05-12_10-48-10_094959634447_rgbf000100-resize_0/003129_2014-05-12_10-48-10_094959634447_rgbf000100-resize_0-target.png,1000,4.9305,13,3682,1001,feet,jsons/v1_VE1000_randls_35_rotated.json,811432,1155803,39,Man
140,719580,DepthScenes,duration_manipulation_targetAtFixation,jsons/v1_VE1000_randls_35_rotated.json,http://54.235.29.9/FacialAge/BNav_EC2/DepthDuration/v2_depth_duration_MTurk/v2_DepthDuration_HTML.html#327,327,1070,779,1440,900,8-29-2022,8-42-33,141,depth_duration_stimuli/000414_2014-06-04_19-49-13_260595134347_rgbf000044-resize_0/000414_2014-06-04_19-49-13_260595134347_rgbf000044-resize_0-target.png,1000,4.329,13,6386,989,feet,jsons/v1_VE1000_randls_35_rotated.json,811432,1155803,39,Man
141,719580,DepthScenes,duration_manipulation_targetAtFixation,jsons/v1_VE1000_randls_35_rotated.json,http://54.235.29.9/FacialAge/BNav_EC2/DepthDuration/v2_depth_duration_MTurk/v2_DepthDuration_HTML.html#327,327,1070,779,1440,900,8-29-2022,8-42-33,142,depth_duration_stimuli/000866_2014-06-09_20-45-42_260595134347_rgbf000139-resize_1/000866_2014-06-09_20-45-42_260595134347_rgbf000139-resize_1-target.png,1000,3.2155,10,4291,999,feet,jsons/v1_VE1000_randls_35_rotated.json,811432,1155803,39,Man
142,719580,DepthScenes,duration_manipulation_targetAtFixation,jsons/v1_VE1000_randls_35_rotated.json,http://54.235.29.9/FacialAge/BNav_EC2/DepthDuration/v2_depth_duration_MTurk/v2_DepthDuration_HTML.html#327,327,1070,779,1440,900,8-29-2022,8-42-33,143,depth_duration_stimuli/002989_2014-06-15_12-25-03_094959634447_rgbf000150-resize_3/002989_2014-06-15_12-25-03_094959634447_rgbf000150-resize_3-target.png,1000,4.1975,13,3722,990,feet,jsons/v1_VE1000_randls_35_rotated.json,811432,1155803,39,Man
143,719580,DepthScenes,duration_manipulation_targetAtFixation,jsons/v1_VE1000_randls_35_rotated.json,http://54.235.29.9/FacialAge/BNav_EC2/DepthDuration/v2_depth_duration_MTurk/v2_DepthDuration_HTML.html#327,327,1070,779,1440,900,8-29-2022,8-42-33,144,depth_duration_stimuli/000677_2014-06-08_23-10-32_260595134347_rgbf000158-resize_6/000677_2014-06-08_23-10-32_260595134347_rgbf000158-resize_6-target.png,1000,3.556,0,4367,998,feet,jsons/v1_VE1000_randls_35_rotated.json,811432,1155803,39,Man
144,719580,DepthScenes,duration_manipulation_targetAtFixation,jsons/v1_VE1000_randls_35_rotated.json,http://54.235.29.9/FacialAge/BNav_EC2/DepthDuration/v2_depth_duration_MTurk/v2_DepthDuration_HTML.html#327,327,1070,779,1440,900,8-29-2022,8-42-33,145,depth_duration_stimuli/001029_2014-06-08_13-17-57_260595134347_rgbf000065-resize_1/001029_2014-06-08_13-17-57_260595134347_rgbf000065-resize_1-target.png,1000,3.0835,9,3396,1010,feet,jsons/v1_VE1000_randls_35_rotated.json,811432,1155803,39,Man
145,719580,DepthScenes,duration_manipulation_targetAtFixation,jsons/v1_VE1000_randls_35_rotated.json,http://54.235.29.9/FacialAge/BNav_EC2/DepthDuration/v2_depth_duration_MTurk/v2_DepthDuration_HTML.html#327,327,1070,779,1440,900,8-29-2022,8-42-33,146,depth_duration_stimuli/003048_2014-06-15_13-49-43_094959634447_rgbf000150-resize_1/003048_2014-06-15_13-49-43_094959634447_rgbf000150-resize_1-target.png,1000,4.0035,0,3943,989,feet,jsons/v1_VE1000_randls_35_rotated.json,811432,1155803,39,Man
146,719580,DepthScenes,duration_manipulation_targetAtFixation,jsons/v1_VE1000_randls_35_rotated.json,http://54.235.29.9/FacialAge/BNav_EC2/DepthDuration/v2_depth_duration_MTurk/v2_DepthDuration_HTML.html#327,327,1070,779,1440,900,8-29-2022,8-42-33,147,depth_duration_stimuli/002043_2014-06-24_20-29-38_260595134347_rgbf000039-resize_4/002043_2014-06-24_20-29-38_260595134347_rgbf000039-resize_4-target.png,1000,2.8435,8,9372,994,feet,jsons/v1_VE1000_randls_35_rotated.json,811432,1155803,39,Man
147,719580,DepthScenes,duration_manipulation_targetAtFixation,jsons/v1_VE1000_randls_35_rotated.json,http://54.235.29.9/FacialAge/BNav_EC2/DepthDuration/v2_depth_duration_MTurk/v2_DepthDuration_HTML.html#327,327,1070,779,1440,900,8-29-2022,8-42-33,148,depth_duration_stimuli/002340_2014-06-28_20-05-46_260595134347_rgbf000113-resize_0/002340_2014-06-28_20-05-46_260595134347_rgbf000113-resize_0-target.png,1000,2.4735,8,5644,987,feet,jsons/v1_VE1000_randls_35_rotated.json,811432,1155803,39,Man
148,719580,DepthScenes,duration_manipulation_targetAtFixation,jsons/v1_VE1000_randls_35_rotated.json,http://54.235.29.9/FacialAge/BNav_EC2/DepthDuration/v2_depth_duration_MTurk/v2_DepthDuration_HTML.html#327,327,1070,779,1440,900,8-29-2022,8-42-33,149,depth_duration_stimuli/001016_2014-06-09_16-16-10_260595134347_rgbf000112-resize_5/001016_2014-06-09_16-16-10_260595134347_rgbf000112-resize_5-target.png,1000,1.6565,7,4491,1002,feet,jsons/v1_VE1000_randls_35_rotated.json,811432,1155803,39,Man
149,719580,DepthScenes,duration_manipulation_targetAtFixation,jsons/v1_VE1000_randls_35_rotated.json,http://54.235.29.9/FacialAge/BNav_EC2/DepthDuration/v2_depth_duration_MTurk/v2_DepthDuration_HTML.html#327,327,1070,779,1440,900,8-29-2022,8-42-33,150,depth_duration_stimuli/002103_2014-06-25_20-00-40_260595134347_rgbf000049-resize_0/002103_2014-06-25_20-00-40_260595134347_rgbf000049-resize_0-target.png,1000,4.105,10,4625,1002,feet,jsons/v1_VE1000_randls_35_rotated.json,811432,1155803,39,Man
150,719580,DepthScenes,duration_manipulation_targetAtFixation,jsons/v1_VE1000_randls_35_rotated.json,http://54.235.29.9/FacialAge/BNav_EC2/DepthDuration/v2_depth_duration_MTurk/v2_DepthDuration_HTML.html#327,327,1070,779,1440,900,8-29-2022,8-42-33,151,depth_duration_stimuli/002039_2014-06-24_20-22-38_260595134347_rgbf000084-resize_1/002039_2014-06-24_20-22-38_260595134347_rgbf000084-resize_1-target.png,1000,4.408,14,4849,999,feet,jsons/v1_VE1000_randls_35_rotated.json,811432,1155803,39,Man
151,719580,DepthScenes,duration_manipulation_targetAtFixation,jsons/v1_VE1000_randls_35_rotated.json,http://54.235.29.9/FacialAge/BNav_EC2/DepthDuration/v2_depth_duration_MTurk/v2_DepthDuration_HTML.html#327,327,1070,779,1440,900,8-29-2022,8-42-33,152,depth_duration_stimuli/000569_2014-06-09_22-51-47_260595134347_rgbf000141-resize_3/000569_2014-06-09_22-51-47_260595134347_rgbf000141-resize-original.jpg,1000,4.512,0,4197,1001,feet,jsons/v1_VE1000_randls_35_rotated.json,811432,1155803,39,Man
152,719580,DepthScenes,duration_manipulation_targetAtFixation,jsons/v1_VE1000_randls_35_rotated.json,http://54.235.29.9/FacialAge/BNav_EC2/DepthDuration/v2_depth_duration_MTurk/v2_DepthDuration_HTML.html#327,327,1070,779,1440,900,8-29-2022,8-42-33,153,depth_duration_stimuli/001132_2014-06-17_14-48-54_260595134347_rgbf000100-resize_2/001132_2014-06-17_14-48-54_260595134347_rgbf000100-resize_2-target.png,1000,3.753,10,4760,988,feet,jsons/v1_VE1000_randls_35_rotated.json,811432,1155803,39,Man
153,719580,DepthScenes,duration_manipulation_targetAtFixation,jsons/v1_VE1000_randls_35_rotated.json,http://54.235.29.9/FacialAge/BNav_EC2/DepthDuration/v2_depth_duration_MTurk/v2_DepthDuration_HTML.html#327,327,1070,779,1440,900,8-29-2022,8-42-33,154,depth_duration_stimuli/001133_2014-06-17_14-49-16_260595134347_rgbf000100-resize_0/001133_2014-06-17_14-49-16_260595134347_rgbf000100-resize_0-target.png,1000,4.2115,12,4918,996,feet,jsons/v1_VE1000_randls_35_rotated.json,811432,1155803,39,Man
154,719580,DepthScenes,duration_manipulation_targetAtFixation,jsons/v1_VE1000_randls_35_rotated.json,http://54.235.29.9/FacialAge/BNav_EC2/DepthDuration/v2_depth_duration_MTurk/v2_DepthDuration_HTML.html#327,327,1070,779,1440,900,8-29-2022,8-42-33,155,depth_duration_stimuli/001100_2014-06-15_17-46-26_260595134347_rgbf000225-resize_2/001100_2014-06-15_17-46-26_260595134347_rgbf000225-resize_2-target.png,1000,2.24,2,4259,1000,feet,jsons/v1_VE1000_randls_35_rotated.json,811432,1155803,39,Man
155,719580,DepthScenes,duration_manipulation_targetAtFixation,jsons/v1_VE1000_randls_35_rotated.json,http://54.235.29.9/FacialAge/BNav_EC2/DepthDuration/v2_depth_duration_MTurk/v2_DepthDuration_HTML.html#327,327,1070,779,1440,900,8-29-2022,8-42-33,156,depth_duration_stimuli/002784_2014-06-22_19-26-30_094959634447_rgbf000083-resize_3/002784_2014-06-22_19-26-30_094959634447_rgbf000083-resize_3-target.png,1000,1.8046666666667,3,4178,1003,feet,jsons/v1_VE1000_randls_35_rotated.json,811432,1155803,39,Man
156,719580,DepthScenes,duration_manipulation_targetAtFixation,jsons/v1_VE1000_randls_35_rotated.json,http://54.235.29.9/FacialAge/BNav_EC2/DepthDuration/v2_depth_duration_MTurk/v2_DepthDuration_HTML.html#327,327,1070,779,1440,900,8-29-2022,8-42-33,157,depth_duration_stimuli/002199_2014-06-28_18-33-56_260595134347_rgbf000074-resize_0/002199_2014-06-28_18-33-56_260595134347_rgbf000074-resize_0-target.png,1000,1.996,3,4347,1000,feet,jsons/v1_VE1000_randls_35_rotated.json,811432,1155803,39,Man
157,719580,DepthScenes,duration_manipulation_targetAtFixation,jsons/v1_VE1000_randls_35_rotated.json,http://54.235.29.9/FacialAge/BNav_EC2/DepthDuration/v2_depth_duration_MTurk/v2_DepthDuration_HTML.html#327,327,1070,779,1440,900,8-29-2022,8-42-33,158,depth_duration_stimuli/001056_2014-06-08_18-46-44_260595134347_rgbf000068-resize_0/001056_2014-06-08_18-46-44_260595134347_rgbf000068-resize_0-target.png,1000,2.6625,7,4371,1002,feet,jsons/v1_VE1000_randls_35_rotated.json,811432,1155803,39,Man
158,719580,DepthScenes,duration_manipulation_targetAtFixation,jsons/v1_VE1000_randls_35_rotated.json,http://54.235.29.9/FacialAge/BNav_EC2/DepthDuration/v2_depth_duration_MTurk/v2_DepthDuration_HTML.html#327,327,1070,779,1440,900,8-29-2022,8-42-33,159,depth_duration_stimuli/002678_2014-06-13_16-15-32_094959634447_rgbf000151-resize_6/002678_2014-06-13_16-15-32_094959634447_rgbf000151-resize_6-target.png,1000,2.1830000000000003,6,4402,1010,feet,jsons/v1_VE1000_randls_35_rotated.json,811432,1155803,39,Man
159,719580,DepthScenes,duration_manipulation_targetAtFixation,jsons/v1_VE1000_randls_35_rotated.json,http://54.235.29.9/FacialAge/BNav_EC2/DepthDuration/v2_depth_duration_MTurk/v2_DepthDuration_HTML.html#327,327,1070,779,1440,900,8-29-2022,8-42-33,160,depth_duration_stimuli/000368_2014-06-09_15-53-01_260595134347_rgbf000155-resize_2/000368_2014-06-09_15-53-01_260595134347_rgbf000155-resize_2-target.png,1000,2.4859999999999998,4,5168,988,feet,jsons/v1_VE1000_randls_35_rotated.json,811432,1155803,39,Man
160,719580,DepthScenes,duration_manipulation_targetAtFixation,jsons/v1_VE1000_randls_35_rotated.json,http://54.235.29.9/FacialAge/BNav_EC2/DepthDuration/v2_depth_duration_MTurk/v2_DepthDuration_HTML.html#327,327,1070,779,1440,900,8-29-2022,8-42-33,161,depth_duration_stimuli/001516_2014-06-20_16-25-09_260595134347_rgbf000076-resize_2/001516_2014-06-20_16-25-09_260595134347_rgbf000076-resize_2-target.png,1000,1.7445,9,5180,1007,feet,jsons/v1_VE1000_randls_35_rotated.json,811432,1155803,39,Man
161,719580,DepthScenes,duration_manipulation_targetAtFixation,jsons/v1_VE1000_randls_35_rotated.json,http://54.235.29.9/FacialAge/BNav_EC2/DepthDuration/v2_depth_duration_MTurk/v2_DepthDuration_HTML.html#327,327,1070,779,1440,900,8-29-2022,8-42-33,162,depth_duration_stimuli/002118_2014-06-25_20-32-08_260595134347_rgbf000078-resize_1/002118_2014-06-25_20-32-08_260595134347_rgbf000078-resize_1-target.png,1000,2.6460000000000004,5,5164,1000,feet,jsons/v1_VE1000_randls_35_rotated.json,811432,1155803,39,Man
162,719580,DepthScenes,duration_manipulation_targetAtFixation,jsons/v1_VE1000_randls_35_rotated.json,http://54.235.29.9/FacialAge/BNav_EC2/DepthDuration/v2_depth_duration_MTurk/v2_DepthDuration_HTML.html#327,327,1070,779,1440,900,8-29-2022,8-42-33,163,depth_duration_stimuli/002637_2014-06-24_14-51-13_094959634447_rgbf000066-resize_4/002637_2014-06-24_14-51-13_094959634447_rgbf000066-resize_4-target.png,1000,1.9955,8,5858,1008,feet,jsons/v1_VE1000_randls_35_rotated.json,811432,1155803,39,Man
163,719580,DepthScenes,duration_manipulation_targetAtFixation,jsons/v1_VE1000_randls_35_rotated.json,http://54.235.29.9/FacialAge/BNav_EC2/DepthDuration/v2_depth_duration_MTurk/v2_DepthDuration_HTML.html#327,327,1070,779,1440,900,8-29-2022,8-42-33,164,depth_duration_stimuli/003534_2014-05-22_15-06-10_094959634447_rgbf000102-resize_4/003534_2014-05-22_15-06-10_094959634447_rgbf000102-resize_4-target.png,1000,1.426,4,3107,1001,feet,jsons/v1_VE1000_randls_35_rotated.json,811432,1155803,39,Man
