,subjID,experimentName,versionName,sequenceName,url,selected_row,windowWidth,windowHeight,screenWidth,screenHeight,startDate,startTime,trial,stimulus,duration,actual_depth,depth_estimate,trial_RT,log_sceneDuration,unitSelection,seq_filepath,experimentTime,totalTime,age,gender
0,720390,DepthScenes,duration_manipulation_targetAtFixation,jsons/v1_VE1000_randls_37_rotated.json,http://54.235.29.9/FacialAge/BNav_EC2/DepthDuration/v2_depth_duration_MTurk/v2_DepthDuration_HTML.html#38,38,1920,947,1920,1080,8-22-2022,8-27-20,1,depth_duration_stimuli/000191_2014-05-12_17-07-38_260595134347_rgbf000199-resize_0/000191_2014-05-12_17-07-38_260595134347_rgbf000199-resize_0-target.png,1000,3.7995,15,4725,996,feet,jsons/v1_VE1000_randls_37_rotated.json,541108,675361,36,Non-binary
1,720390,DepthScenes,duration_manipulation_targetAtFixation,jsons/v1_VE1000_randls_37_rotated.json,http://54.235.29.9/FacialAge/BNav_EC2/DepthDuration/v2_depth_duration_MTurk/v2_DepthDuration_HTML.html#38,38,1920,947,1920,1080,8-22-2022,8-27-20,2,depth_duration_stimuli/000493_2014-06-09_21-01-18_260595134347_rgbf000196-resize_3/000493_2014-06-09_21-01-18_260595134347_rgbf000196-resize_3-target.png,1000,3.44,5,3315,994,feet,jsons/v1_VE1000_randls_37_rotated.json,541108,675361,36,Non-binary
2,720390,DepthScenes,duration_manipulation_targetAtFixation,jsons/v1_VE1000_randls_37_rotated.json,http://54.235.29.9/FacialAge/BNav_EC2/DepthDuration/v2_depth_duration_MTurk/v2_DepthDuration_HTML.html#38,38,1920,947,1920,1080,8-22-2022,8-27-20,3,depth_duration_stimuli/003048_2014-06-15_13-49-43_094959634447_rgbf000150-resize_1/003048_2014-06-15_13-49-43_094959634447_rgbf000150-resize_1-target.png,1000,4.0035,10,2811,999,feet,jsons/v1_VE1000_randls_37_rotated.json,541108,675361,36,Non-binary
3,720390,DepthScenes,duration_manipulation_targetAtFixation,jsons/v1_VE1000_randls_37_rotated.json,http://54.235.29.9/FacialAge/BNav_EC2/DepthDuration/v2_depth_duration_MTurk/v2_DepthDuration_HTML.html#38,38,1920,947,1920,1080,8-22-2022,8-27-20,4,depth_duration_stimuli/002043_2014-06-24_20-29-38_260595134347_rgbf000039-resize_4/002043_2014-06-24_20-29-38_260595134347_rgbf000039-resize_4-target.png,1000,2.8435,9,2852,1005,feet,jsons/v1_VE1000_randls_37_rotated.json,541108,675361,36,Non-binary
4,720390,DepthScenes,duration_manipulation_targetAtFixation,jsons/v1_VE1000_randls_37_rotated.json,http://54.235.29.9/FacialAge/BNav_EC2/DepthDuration/v2_depth_duration_MTurk/v2_DepthDuration_HTML.html#38,38,1920,947,1920,1080,8-22-2022,8-27-20,5,depth_duration_stimuli/002199_2014-06-28_18-33-56_260595134347_rgbf000074-resize_0/002199_2014-06-28_18-33-56_260595134347_rgbf000074-resize_0-target.png,1000,1.996,2,2824,1010,feet,jsons/v1_VE1000_randls_37_rotated.json,541108,675361,36,Non-binary
5,720390,DepthScenes,duration_manipulation_targetAtFixation,jsons/v1_VE1000_randls_37_rotated.json,http://54.235.29.9/FacialAge/BNav_EC2/DepthDuration/v2_depth_duration_MTurk/v2_DepthDuration_HTML.html#38,38,1920,947,1920,1080,8-22-2022,8-27-20,6,depth_duration_stimuli/001056_2014-06-08_18-46-44_260595134347_rgbf000068-resize_0/001056_2014-06-08_18-46-44_260595134347_rgbf000068-resize_0-target.png,1000,2.6625,7,3333,1009,feet,jsons/v1_VE1000_randls_37_rotated.json,541108,675361,36,Non-binary
6,720390,DepthScenes,duration_manipulation_targetAtFixation,jsons/v1_VE1000_randls_37_rotated.json,http://54.235.29.9/FacialAge/BNav_EC2/DepthDuration/v2_depth_duration_MTurk/v2_DepthDuration_HTML.html#38,38,1920,947,1920,1080,8-22-2022,8-27-20,7,depth_duration_stimuli/003423_2014-05-21_10-23-26_094959634447_rgbf002665-resize_2/003423_2014-05-21_10-23-26_094959634447_rgbf002665-resize_2-target.png,1000,3.2575,8,3006,993,feet,jsons/v1_VE1000_randls_37_rotated.json,541108,675361,36,Non-binary
7,720390,DepthScenes,duration_manipulation_targetAtFixation,jsons/v1_VE1000_randls_37_rotated.json,http://54.235.29.9/FacialAge/BNav_EC2/DepthDuration/v2_depth_duration_MTurk/v2_DepthDuration_HTML.html#38,38,1920,947,1920,1080,8-22-2022,8-27-20,8,depth_duration_stimuli/002905_2014-06-03_18-04-43_094959634447_rgbf000151-resize_2/002905_2014-06-03_18-04-43_094959634447_rgbf000151-resize_2-target.png,1000,2.0295,4,2837,992,feet,jsons/v1_VE1000_randls_37_rotated.json,541108,675361,36,Non-binary
8,720390,DepthScenes,duration_manipulation_targetAtFixation,jsons/v1_VE1000_randls_37_rotated.json,http://54.235.29.9/FacialAge/BNav_EC2/DepthDuration/v2_depth_duration_MTurk/v2_DepthDuration_HTML.html#38,38,1920,947,1920,1080,8-22-2022,8-27-20,9,depth_duration_stimuli/002425_2014-06-28_20-27-29_260595134347_rgbf000031-resize_8/002425_2014-06-28_20-27-29_260595134347_rgbf000031-resize_8-target.png,1000,3.8960000000000004,10,4084,998,feet,jsons/v1_VE1000_randls_37_rotated.json,541108,675361,36,Non-binary
9,720390,DepthScenes,duration_manipulation_targetAtFixation,jsons/v1_VE1000_randls_37_rotated.json,http://54.235.29.9/FacialAge/BNav_EC2/DepthDuration/v2_depth_duration_MTurk/v2_DepthDuration_HTML.html#38,38,1920,947,1920,1080,8-22-2022,8-27-20,10,depth_duration_stimuli/000642_2014-06-08_16-59-25_260595134347_rgbf000098-resize_2/000642_2014-06-08_16-59-25_260595134347_rgbf000098-resize_2-target.png,1000,2.8815,6,2699,1009,feet,jsons/v1_VE1000_randls_37_rotated.json,541108,675361,36,Non-binary
10,720390,DepthScenes,duration_manipulation_targetAtFixation,jsons/v1_VE1000_randls_37_rotated.json,http://54.235.29.9/FacialAge/BNav_EC2/DepthDuration/v2_depth_duration_MTurk/v2_DepthDuration_HTML.html#38,38,1920,947,1920,1080,8-22-2022,8-27-20,11,depth_duration_stimuli/003010_2014-06-15_12-54-35_094959634447_rgbf000112-resize_0/003010_2014-06-15_12-54-35_094959634447_rgbf000112-resize_0-target.png,1000,3.1185,12,2703,993,feet,jsons/v1_VE1000_randls_37_rotated.json,541108,675361,36,Non-binary
11,720390,DepthScenes,duration_manipulation_targetAtFixation,jsons/v1_VE1000_randls_37_rotated.json,http://54.235.29.9/FacialAge/BNav_EC2/DepthDuration/v2_depth_duration_MTurk/v2_DepthDuration_HTML.html#38,38,1920,947,1920,1080,8-22-2022,8-27-20,12,depth_duration_stimuli/001810_2014-06-26_20-51-35_260595134347_rgbf000040-resize_3/001810_2014-06-26_20-51-35_260595134347_rgbf000040-resize_3-target.png,1000,2.2525,5,2410,993,feet,jsons/v1_VE1000_randls_37_rotated.json,541108,675361,36,Non-binary
12,720390,DepthScenes,duration_manipulation_targetAtFixation,jsons/v1_VE1000_randls_37_rotated.json,http://54.235.29.9/FacialAge/BNav_EC2/DepthDuration/v2_depth_duration_MTurk/v2_DepthDuration_HTML.html#38,38,1920,947,1920,1080,8-22-2022,8-27-20,13,depth_duration_stimuli/001132_2014-06-17_14-48-54_260595134347_rgbf000100-resize_2/001132_2014-06-17_14-48-54_260595134347_rgbf000100-resize_2-target.png,1000,3.753,11,4314,993,feet,jsons/v1_VE1000_randls_37_rotated.json,541108,675361,36,Non-binary
13,720390,DepthScenes,duration_manipulation_targetAtFixation,jsons/v1_VE1000_randls_37_rotated.json,http://54.235.29.9/FacialAge/BNav_EC2/DepthDuration/v2_depth_duration_MTurk/v2_DepthDuration_HTML.html#38,38,1920,947,1920,1080,8-22-2022,8-27-20,14,depth_duration_stimuli/001133_2014-06-17_14-49-16_260595134347_rgbf000100-resize_0/001133_2014-06-17_14-49-16_260595134347_rgbf000100-resize_0-target.png,1000,4.2115,15,2977,1006,feet,jsons/v1_VE1000_randls_37_rotated.json,541108,675361,36,Non-binary
14,720390,DepthScenes,duration_manipulation_targetAtFixation,jsons/v1_VE1000_randls_37_rotated.json,http://54.235.29.9/FacialAge/BNav_EC2/DepthDuration/v2_depth_duration_MTurk/v2_DepthDuration_HTML.html#38,38,1920,947,1920,1080,8-22-2022,8-27-20,15,depth_duration_stimuli/000943_2014-06-09_19-31-07_260595134347_rgbf000128-resize_1/000943_2014-06-09_19-31-07_260595134347_rgbf000128-resize_1-target.png,1000,1.9765,5,2720,1011,feet,jsons/v1_VE1000_randls_37_rotated.json,541108,675361,36,Non-binary
15,720390,DepthScenes,duration_manipulation_targetAtFixation,jsons/v1_VE1000_randls_37_rotated.json,http://54.235.29.9/FacialAge/BNav_EC2/DepthDuration/v2_depth_duration_MTurk/v2_DepthDuration_HTML.html#38,38,1920,947,1920,1080,8-22-2022,8-27-20,16,depth_duration_stimuli/003070_2014-06-15_14-58-27_094959634447_rgbf000150-resize_3/003070_2014-06-15_14-58-27_094959634447_rgbf000150-resize_3-target.png,1000,2.9415,6,3246,994,feet,jsons/v1_VE1000_randls_37_rotated.json,541108,675361,36,Non-binary
16,720390,DepthScenes,duration_manipulation_targetAtFixation,jsons/v1_VE1000_randls_37_rotated.json,http://54.235.29.9/FacialAge/BNav_EC2/DepthDuration/v2_depth_duration_MTurk/v2_DepthDuration_HTML.html#38,38,1920,947,1920,1080,8-22-2022,8-27-20,17,depth_duration_stimuli/003490_2014-05-21_15-50-11_094959634447_rgbf000101-resize_3/003490_2014-05-21_15-50-11_094959634447_rgbf000101-resize_3-target.png,1000,3.6445,8,3064,1006,feet,jsons/v1_VE1000_randls_37_rotated.json,541108,675361,36,Non-binary
17,720390,DepthScenes,duration_manipulation_targetAtFixation,jsons/v1_VE1000_randls_37_rotated.json,http://54.235.29.9/FacialAge/BNav_EC2/DepthDuration/v2_depth_duration_MTurk/v2_DepthDuration_HTML.html#38,38,1920,947,1920,1080,8-22-2022,8-27-20,18,depth_duration_stimuli/001175_2014-06-17_15-45-55_260595134347_rgbf000129-resize_4/001175_2014-06-17_15-45-55_260595134347_rgbf000129-resize_4-target.png,1000,4.255,14,3301,996,feet,jsons/v1_VE1000_randls_37_rotated.json,541108,675361,36,Non-binary
18,720390,DepthScenes,duration_manipulation_targetAtFixation,jsons/v1_VE1000_randls_37_rotated.json,http://54.235.29.9/FacialAge/BNav_EC2/DepthDuration/v2_depth_duration_MTurk/v2_DepthDuration_HTML.html#38,38,1920,947,1920,1080,8-22-2022,8-27-20,19,depth_duration_stimuli/001498_2014-06-19_17-45-14_260595134347_rgbf000129-resize_4/001498_2014-06-19_17-45-14_260595134347_rgbf000129-resize-original.jpg,1000,1.4075,0,2648,991,feet,jsons/v1_VE1000_randls_37_rotated.json,541108,675361,36,Non-binary
19,720390,DepthScenes,duration_manipulation_targetAtFixation,jsons/v1_VE1000_randls_37_rotated.json,http://54.235.29.9/FacialAge/BNav_EC2/DepthDuration/v2_depth_duration_MTurk/v2_DepthDuration_HTML.html#38,38,1920,947,1920,1080,8-22-2022,8-27-20,20,depth_duration_stimuli/000780_2014-06-08_22-28-29_260595134347_rgbf000126-resize_1/000780_2014-06-08_22-28-29_260595134347_rgbf000126-resize_1-target.png,1000,3.3825,9,3517,992,feet,jsons/v1_VE1000_randls_37_rotated.json,541108,675361,36,Non-binary
20,720390,DepthScenes,duration_manipulation_targetAtFixation,jsons/v1_VE1000_randls_37_rotated.json,http://54.235.29.9/FacialAge/BNav_EC2/DepthDuration/v2_depth_duration_MTurk/v2_DepthDuration_HTML.html#38,38,1920,947,1920,1080,8-22-2022,8-27-20,21,depth_duration_stimuli/002445_2014-06-28_20-32-16_260595134347_rgbf000029-resize_4/002445_2014-06-28_20-32-16_260595134347_rgbf000029-resize_4-target.png,1000,2.5315,6,4117,996,feet,jsons/v1_VE1000_randls_37_rotated.json,541108,675361,36,Non-binary
21,720390,DepthScenes,duration_manipulation_targetAtFixation,jsons/v1_VE1000_randls_37_rotated.json,http://54.235.29.9/FacialAge/BNav_EC2/DepthDuration/v2_depth_duration_MTurk/v2_DepthDuration_HTML.html#38,38,1920,947,1920,1080,8-22-2022,8-27-20,22,depth_duration_stimuli/000457_2014-06-08_16-52-43_260595134347_rgbf000199-resize_1/000457_2014-06-08_16-52-43_260595134347_rgbf000199-resize_1-target.png,1000,3.6489999999999996,10,3430,1004,feet,jsons/v1_VE1000_randls_37_rotated.json,541108,675361,36,Non-binary
22,720390,DepthScenes,duration_manipulation_targetAtFixation,jsons/v1_VE1000_randls_37_rotated.json,http://54.235.29.9/FacialAge/BNav_EC2/DepthDuration/v2_depth_duration_MTurk/v2_DepthDuration_HTML.html#38,38,1920,947,1920,1080,8-22-2022,8-27-20,23,depth_duration_stimuli/000929_2014-06-09_16-33-19_260595134347_rgbf000139-resize_0/000929_2014-06-09_16-33-19_260595134347_rgbf000139-resize_0-target.png,1000,2.8680000000000003,8,2525,997,feet,jsons/v1_VE1000_randls_37_rotated.json,541108,675361,36,Non-binary
23,720390,DepthScenes,duration_manipulation_targetAtFixation,jsons/v1_VE1000_randls_37_rotated.json,http://54.235.29.9/FacialAge/BNav_EC2/DepthDuration/v2_depth_duration_MTurk/v2_DepthDuration_HTML.html#38,38,1920,947,1920,1080,8-22-2022,8-27-20,24,depth_duration_stimuli/002344_2014-06-28_20-06-29_260595134347_rgbf000030-resize_1/002344_2014-06-28_20-06-29_260595134347_rgbf000030-resize_1-target.png,1000,1.5795,2,2606,999,feet,jsons/v1_VE1000_randls_37_rotated.json,541108,675361,36,Non-binary
24,720390,DepthScenes,duration_manipulation_targetAtFixation,jsons/v1_VE1000_randls_37_rotated.json,http://54.235.29.9/FacialAge/BNav_EC2/DepthDuration/v2_depth_duration_MTurk/v2_DepthDuration_HTML.html#38,38,1920,947,1920,1080,8-22-2022,8-27-20,25,depth_duration_stimuli/002725_2014-06-22_11-47-51_094959634447_rgbf000070-resize_1/002725_2014-06-22_11-47-51_094959634447_rgbf000070-resize_1-target.png,1000,2.195,6,2417,1006,feet,jsons/v1_VE1000_randls_37_rotated.json,541108,675361,36,Non-binary
25,720390,DepthScenes,duration_manipulation_targetAtFixation,jsons/v1_VE1000_randls_37_rotated.json,http://54.235.29.9/FacialAge/BNav_EC2/DepthDuration/v2_depth_duration_MTurk/v2_DepthDuration_HTML.html#38,38,1920,947,1920,1080,8-22-2022,8-27-20,26,depth_duration_stimuli/001136_2014-06-17_15-19-41_260595134347_rgbf000076-resize_3/001136_2014-06-17_15-19-41_260595134347_rgbf000076-resize_3-target.png,1000,1.8655,5,2229,1009,feet,jsons/v1_VE1000_randls_37_rotated.json,541108,675361,36,Non-binary
26,720390,DepthScenes,duration_manipulation_targetAtFixation,jsons/v1_VE1000_randls_37_rotated.json,http://54.235.29.9/FacialAge/BNav_EC2/DepthDuration/v2_depth_duration_MTurk/v2_DepthDuration_HTML.html#38,38,1920,947,1920,1080,8-22-2022,8-27-20,27,depth_duration_stimuli/001164_2014-06-17_15-35-46_260595134347_rgbf000085-resize_3/001164_2014-06-17_15-35-46_260595134347_rgbf000085-resize_3-target.png,1000,2.354,7,2486,992,feet,jsons/v1_VE1000_randls_37_rotated.json,541108,675361,36,Non-binary
27,720390,DepthScenes,duration_manipulation_targetAtFixation,jsons/v1_VE1000_randls_37_rotated.json,http://54.235.29.9/FacialAge/BNav_EC2/DepthDuration/v2_depth_duration_MTurk/v2_DepthDuration_HTML.html#38,38,1920,947,1920,1080,8-22-2022,8-27-20,28,depth_duration_stimuli/001094_2014-06-15_17-36-00_260595134347_rgbf000205-resize_0/001094_2014-06-15_17-36-00_260595134347_rgbf000205-resize_0-target.png,1000,4.2175,14,2915,995,feet,jsons/v1_VE1000_randls_37_rotated.json,541108,675361,36,Non-binary
28,720390,DepthScenes,duration_manipulation_targetAtFixation,jsons/v1_VE1000_randls_37_rotated.json,http://54.235.29.9/FacialAge/BNav_EC2/DepthDuration/v2_depth_duration_MTurk/v2_DepthDuration_HTML.html#38,38,1920,947,1920,1080,8-22-2022,8-27-20,29,depth_duration_stimuli/000692_2014-06-08_13-09-42_260595134347_rgbf000199-resize_2/000692_2014-06-08_13-09-42_260595134347_rgbf000199-resize_2-target.png,1000,3.661,20,2771,1011,feet,jsons/v1_VE1000_randls_37_rotated.json,541108,675361,36,Non-binary
29,720390,DepthScenes,duration_manipulation_targetAtFixation,jsons/v1_VE1000_randls_37_rotated.json,http://54.235.29.9/FacialAge/BNav_EC2/DepthDuration/v2_depth_duration_MTurk/v2_DepthDuration_HTML.html#38,38,1920,947,1920,1080,8-22-2022,8-27-20,30,depth_duration_stimuli/002072_2014-06-24_21-48-06_260595134347_rgbf000115-resize_0/002072_2014-06-24_21-48-06_260595134347_rgbf000115-resize-original.jpg,1000,4.702,0,2336,1008,feet,jsons/v1_VE1000_randls_37_rotated.json,541108,675361,36,Non-binary
30,720390,DepthScenes,duration_manipulation_targetAtFixation,jsons/v1_VE1000_randls_37_rotated.json,http://54.235.29.9/FacialAge/BNav_EC2/DepthDuration/v2_depth_duration_MTurk/v2_DepthDuration_HTML.html#38,38,1920,947,1920,1080,8-22-2022,8-27-20,31,depth_duration_stimuli/002568_2014-06-24_13-59-21_094959634447_rgbf000062-resize_4/002568_2014-06-24_13-59-21_094959634447_rgbf000062-resize_4-target.png,1000,3.015,7,2608,995,feet,jsons/v1_VE1000_randls_37_rotated.json,541108,675361,36,Non-binary
31,720390,DepthScenes,duration_manipulation_targetAtFixation,jsons/v1_VE1000_randls_37_rotated.json,http://54.235.29.9/FacialAge/BNav_EC2/DepthDuration/v2_depth_duration_MTurk/v2_DepthDuration_HTML.html#38,38,1920,947,1920,1080,8-22-2022,8-27-20,32,depth_duration_stimuli/003492_2014-05-21_15-50-55_094959634447_rgbf000828-resize_1/003492_2014-05-21_15-50-55_094959634447_rgbf000828-resize_1-target.png,1000,4.06875,12,2484,993,feet,jsons/v1_VE1000_randls_37_rotated.json,541108,675361,36,Non-binary
32,720390,DepthScenes,duration_manipulation_targetAtFixation,jsons/v1_VE1000_randls_37_rotated.json,http://54.235.29.9/FacialAge/BNav_EC2/DepthDuration/v2_depth_duration_MTurk/v2_DepthDuration_HTML.html#38,38,1920,947,1920,1080,8-22-2022,8-27-20,33,depth_duration_stimuli/000109_2014-05-14_23-41-52_260595134347_rgbf000035-resize_9/000109_2014-05-14_23-41-52_260595134347_rgbf000035-resize_9-target.png,1000,1.3545,3,2275,992,feet,jsons/v1_VE1000_randls_37_rotated.json,541108,675361,36,Non-binary
33,720390,DepthScenes,duration_manipulation_targetAtFixation,jsons/v1_VE1000_randls_37_rotated.json,http://54.235.29.9/FacialAge/BNav_EC2/DepthDuration/v2_depth_duration_MTurk/v2_DepthDuration_HTML.html#38,38,1920,947,1920,1080,8-22-2022,8-27-20,34,depth_duration_stimuli/000470_2014-06-09_19-42-40_260595134347_rgbf000094-resize_1/000470_2014-06-09_19-42-40_260595134347_rgbf000094-resize_1-target.png,1000,1.831,5,2424,1002,feet,jsons/v1_VE1000_randls_37_rotated.json,541108,675361,36,Non-binary
34,720390,DepthScenes,duration_manipulation_targetAtFixation,jsons/v1_VE1000_randls_37_rotated.json,http://54.235.29.9/FacialAge/BNav_EC2/DepthDuration/v2_depth_duration_MTurk/v2_DepthDuration_HTML.html#38,38,1920,947,1920,1080,8-22-2022,8-27-20,35,depth_duration_stimuli/000927_2014-06-09_16-32-30_260595134347_rgbf000123-resize_3/000927_2014-06-09_16-32-30_260595134347_rgbf000123-resize_3-target.png,1000,2.6785,10,2582,1014,feet,jsons/v1_VE1000_randls_37_rotated.json,541108,675361,36,Non-binary
35,720390,DepthScenes,duration_manipulation_targetAtFixation,jsons/v1_VE1000_randls_37_rotated.json,http://54.235.29.9/FacialAge/BNav_EC2/DepthDuration/v2_depth_duration_MTurk/v2_DepthDuration_HTML.html#38,38,1920,947,1920,1080,8-22-2022,8-27-20,36,depth_duration_stimuli/001110_2014-06-15_17-25-28_260595134347_rgbf000150-resize_1/001110_2014-06-15_17-25-28_260595134347_rgbf000150-resize_1-target.png,1000,1.7115,5,2516,995,feet,jsons/v1_VE1000_randls_37_rotated.json,541108,675361,36,Non-binary
36,720390,DepthScenes,duration_manipulation_targetAtFixation,jsons/v1_VE1000_randls_37_rotated.json,http://54.235.29.9/FacialAge/BNav_EC2/DepthDuration/v2_depth_duration_MTurk/v2_DepthDuration_HTML.html#38,38,1920,947,1920,1080,8-22-2022,8-27-20,37,depth_duration_stimuli/002758_2014-06-22_19-11-20_094959634447_rgbf000128-resize_1/002758_2014-06-22_19-11-20_094959634447_rgbf000128-resize_1-target.png,1000,2.555,4,2882,991,feet,jsons/v1_VE1000_randls_37_rotated.json,541108,675361,36,Non-binary
37,720390,DepthScenes,duration_manipulation_targetAtFixation,jsons/v1_VE1000_randls_37_rotated.json,http://54.235.29.9/FacialAge/BNav_EC2/DepthDuration/v2_depth_duration_MTurk/v2_DepthDuration_HTML.html#38,38,1920,947,1920,1080,8-22-2022,8-27-20,38,depth_duration_stimuli/002630_2014-06-24_14-47-50_094959634447_rgbf000055-resize_1/002630_2014-06-24_14-47-50_094959634447_rgbf000055-resize_1-target.png,1000,3.0095,12,2749,1010,feet,jsons/v1_VE1000_randls_37_rotated.json,541108,675361,36,Non-binary
38,720390,DepthScenes,duration_manipulation_targetAtFixation,jsons/v1_VE1000_randls_37_rotated.json,http://54.235.29.9/FacialAge/BNav_EC2/DepthDuration/v2_depth_duration_MTurk/v2_DepthDuration_HTML.html#38,38,1920,947,1920,1080,8-22-2022,8-27-20,39,depth_duration_stimuli/000103_2014-05-14_22-01-17_260595134347_rgbf000152-resize_5/000103_2014-05-14_22-01-17_260595134347_rgbf000152-resize_5-target.png,1000,1.993,6,2529,991,feet,jsons/v1_VE1000_randls_37_rotated.json,541108,675361,36,Non-binary
39,720390,DepthScenes,duration_manipulation_targetAtFixation,jsons/v1_VE1000_randls_37_rotated.json,http://54.235.29.9/FacialAge/BNav_EC2/DepthDuration/v2_depth_duration_MTurk/v2_DepthDuration_HTML.html#38,38,1920,947,1920,1080,8-22-2022,8-27-20,40,depth_duration_stimuli/001555_2014-06-20_17-12-10_260595134347_rgbf000065-resize_4/001555_2014-06-20_17-12-10_260595134347_rgbf000065-resize_4-target.png,1000,1.633,2,2356,1011,feet,jsons/v1_VE1000_randls_37_rotated.json,541108,675361,36,Non-binary
40,720390,DepthScenes,duration_manipulation_targetAtFixation,jsons/v1_VE1000_randls_37_rotated.json,http://54.235.29.9/FacialAge/BNav_EC2/DepthDuration/v2_depth_duration_MTurk/v2_DepthDuration_HTML.html#38,38,1920,947,1920,1080,8-22-2022,8-27-20,41,depth_duration_stimuli/001584_2014-06-20_11-07-43_260595134347_rgbf000002-resize_1/001584_2014-06-20_11-07-43_260595134347_rgbf000002-resize_1-target.png,1000,3.53,12,2706,1013,feet,jsons/v1_VE1000_randls_37_rotated.json,541108,675361,36,Non-binary
41,720390,DepthScenes,duration_manipulation_targetAtFixation,jsons/v1_VE1000_randls_37_rotated.json,http://54.235.29.9/FacialAge/BNav_EC2/DepthDuration/v2_depth_duration_MTurk/v2_DepthDuration_HTML.html#38,38,1920,947,1920,1080,8-22-2022,8-27-20,42,depth_duration_stimuli/003621_2014-05-23_18-06-08_094959634447_rgbf000101-resize_1/003621_2014-05-23_18-06-08_094959634447_rgbf000101-resize_1-target.png,1000,3.9835,16,2915,990,feet,jsons/v1_VE1000_randls_37_rotated.json,541108,675361,36,Non-binary
42,720390,DepthScenes,duration_manipulation_targetAtFixation,jsons/v1_VE1000_randls_37_rotated.json,http://54.235.29.9/FacialAge/BNav_EC2/DepthDuration/v2_depth_duration_MTurk/v2_DepthDuration_HTML.html#38,38,1920,947,1920,1080,8-22-2022,8-27-20,43,depth_duration_stimuli/002467_2014-06-28_20-38-07_260595134347_rgbf000026-resize_2/002467_2014-06-28_20-38-07_260595134347_rgbf000026-resize_2-target.png,1000,4.742,20,2404,1015,feet,jsons/v1_VE1000_randls_37_rotated.json,541108,675361,36,Non-binary
43,720390,DepthScenes,duration_manipulation_targetAtFixation,jsons/v1_VE1000_randls_37_rotated.json,http://54.235.29.9/FacialAge/BNav_EC2/DepthDuration/v2_depth_duration_MTurk/v2_DepthDuration_HTML.html#38,38,1920,947,1920,1080,8-22-2022,8-27-20,44,depth_duration_stimuli/002570_2014-06-24_13-59-54_094959634447_rgbf000059-resize_0/002570_2014-06-24_13-59-54_094959634447_rgbf000059-resize_0-target.png,1000,4.037,12,2680,1005,feet,jsons/v1_VE1000_randls_37_rotated.json,541108,675361,36,Non-binary
44,720390,DepthScenes,duration_manipulation_targetAtFixation,jsons/v1_VE1000_randls_37_rotated.json,http://54.235.29.9/FacialAge/BNav_EC2/DepthDuration/v2_depth_duration_MTurk/v2_DepthDuration_HTML.html#38,38,1920,947,1920,1080,8-22-2022,8-27-20,45,depth_duration_stimuli/002444_2014-06-28_20-32-08_260595134347_rgbf000027-resize_0/002444_2014-06-28_20-32-08_260595134347_rgbf000027-resize_0-target.png,1000,4.388999999999999,16,3102,1012,feet,jsons/v1_VE1000_randls_37_rotated.json,541108,675361,36,Non-binary
45,720390,DepthScenes,duration_manipulation_targetAtFixation,jsons/v1_VE1000_randls_37_rotated.json,http://54.235.29.9/FacialAge/BNav_EC2/DepthDuration/v2_depth_duration_MTurk/v2_DepthDuration_HTML.html#38,38,1920,947,1920,1080,8-22-2022,8-27-20,46,depth_duration_stimuli/000436_2014-06-09_22-25-11_260595134347_rgbf000137-resize_1/000436_2014-06-09_22-25-11_260595134347_rgbf000137-resize_1-target.png,1000,4.0705,22,2942,1000,feet,jsons/v1_VE1000_randls_37_rotated.json,541108,675361,36,Non-binary
46,720390,DepthScenes,duration_manipulation_targetAtFixation,jsons/v1_VE1000_randls_37_rotated.json,http://54.235.29.9/FacialAge/BNav_EC2/DepthDuration/v2_depth_duration_MTurk/v2_DepthDuration_HTML.html#38,38,1920,947,1920,1080,8-22-2022,8-27-20,47,depth_duration_stimuli/002209_2014-06-28_18-36-10_260595134347_rgbf000051-resize_1/002209_2014-06-28_18-36-10_260595134347_rgbf000051-resize_1-target.png,1000,2.057,5,2310,1010,feet,jsons/v1_VE1000_randls_37_rotated.json,541108,675361,36,Non-binary
47,720390,DepthScenes,duration_manipulation_targetAtFixation,jsons/v1_VE1000_randls_37_rotated.json,http://54.235.29.9/FacialAge/BNav_EC2/DepthDuration/v2_depth_duration_MTurk/v2_DepthDuration_HTML.html#38,38,1920,947,1920,1080,8-22-2022,8-27-20,48,depth_duration_stimuli/002763_2014-06-22_19-13-10_094959634447_rgbf000075-resize_4/002763_2014-06-22_19-13-10_094959634447_rgbf000075-resize_4-target.png,1000,1.68375,4,2873,994,feet,jsons/v1_VE1000_randls_37_rotated.json,541108,675361,36,Non-binary
48,720390,DepthScenes,duration_manipulation_targetAtFixation,jsons/v1_VE1000_randls_37_rotated.json,http://54.235.29.9/FacialAge/BNav_EC2/DepthDuration/v2_depth_duration_MTurk/v2_DepthDuration_HTML.html#38,38,1920,947,1920,1080,8-22-2022,8-27-20,49,depth_duration_stimuli/001170_2014-06-17_15-43-44_260595134347_rgbf000096-resize_6/001170_2014-06-17_15-43-44_260595134347_rgbf000096-resize-original.jpg,1000,1.1909999999999998,0,2246,993,feet,jsons/v1_VE1000_randls_37_rotated.json,541108,675361,36,Non-binary
49,720390,DepthScenes,duration_manipulation_targetAtFixation,jsons/v1_VE1000_randls_37_rotated.json,http://54.235.29.9/FacialAge/BNav_EC2/DepthDuration/v2_depth_duration_MTurk/v2_DepthDuration_HTML.html#38,38,1920,947,1920,1080,8-22-2022,8-27-20,50,depth_duration_stimuli/003129_2014-05-12_10-48-10_094959634447_rgbf000100-resize_0/003129_2014-05-12_10-48-10_094959634447_rgbf000100-resize_0-target.png,1000,4.9305,13,3463,1014,feet,jsons/v1_VE1000_randls_37_rotated.json,541108,675361,36,Non-binary
50,720390,DepthScenes,duration_manipulation_targetAtFixation,jsons/v1_VE1000_randls_37_rotated.json,http://54.235.29.9/FacialAge/BNav_EC2/DepthDuration/v2_depth_duration_MTurk/v2_DepthDuration_HTML.html#38,38,1920,947,1920,1080,8-22-2022,8-27-20,51,depth_duration_stimuli/000414_2014-06-04_19-49-13_260595134347_rgbf000044-resize_0/000414_2014-06-04_19-49-13_260595134347_rgbf000044-resize_0-target.png,1000,4.329,14,3073,995,feet,jsons/v1_VE1000_randls_37_rotated.json,541108,675361,36,Non-binary
51,720390,DepthScenes,duration_manipulation_targetAtFixation,jsons/v1_VE1000_randls_37_rotated.json,http://54.235.29.9/FacialAge/BNav_EC2/DepthDuration/v2_depth_duration_MTurk/v2_DepthDuration_HTML.html#38,38,1920,947,1920,1080,8-22-2022,8-27-20,52,depth_duration_stimuli/000749_2014-06-08_21-55-06_260595134347_rgbf000070-resize_2/000749_2014-06-08_21-55-06_260595134347_rgbf000070-resize_2-target.png,1000,2.331,7,3091,1002,feet,jsons/v1_VE1000_randls_37_rotated.json,541108,675361,36,Non-binary
52,720390,DepthScenes,duration_manipulation_targetAtFixation,jsons/v1_VE1000_randls_37_rotated.json,http://54.235.29.9/FacialAge/BNav_EC2/DepthDuration/v2_depth_duration_MTurk/v2_DepthDuration_HTML.html#38,38,1920,947,1920,1080,8-22-2022,8-27-20,53,depth_duration_stimuli/002788_2014-06-22_19-36-03_094959634447_rgbf000088-resize_2/002788_2014-06-22_19-36-03_094959634447_rgbf000088-resize_2-target.png,1000,1.6465,3,2310,1004,feet,jsons/v1_VE1000_randls_37_rotated.json,541108,675361,36,Non-binary
53,720390,DepthScenes,duration_manipulation_targetAtFixation,jsons/v1_VE1000_randls_37_rotated.json,http://54.235.29.9/FacialAge/BNav_EC2/DepthDuration/v2_depth_duration_MTurk/v2_DepthDuration_HTML.html#38,38,1920,947,1920,1080,8-22-2022,8-27-20,54,depth_duration_stimuli/003083_2014-06-15_15-21-03_094959634447_rgbf000063-resize_1/003083_2014-06-15_15-21-03_094959634447_rgbf000063-resize_1-target.png,1000,4.1405,15,2770,993,feet,jsons/v1_VE1000_randls_37_rotated.json,541108,675361,36,Non-binary
54,720390,DepthScenes,duration_manipulation_targetAtFixation,jsons/v1_VE1000_randls_37_rotated.json,http://54.235.29.9/FacialAge/BNav_EC2/DepthDuration/v2_depth_duration_MTurk/v2_DepthDuration_HTML.html#38,38,1920,947,1920,1080,8-22-2022,8-27-20,55,depth_duration_stimuli/000486_2014-06-09_20-47-20_260595134347_rgbf000143-resize_2/000486_2014-06-09_20-47-20_260595134347_rgbf000143-resize_2-target.png,1000,4.8325,16,3420,999,feet,jsons/v1_VE1000_randls_37_rotated.json,541108,675361,36,Non-binary
55,720390,DepthScenes,duration_manipulation_targetAtFixation,jsons/v1_VE1000_randls_37_rotated.json,http://54.235.29.9/FacialAge/BNav_EC2/DepthDuration/v2_depth_duration_MTurk/v2_DepthDuration_HTML.html#38,38,1920,947,1920,1080,8-22-2022,8-27-20,56,depth_duration_stimuli/000549_2014-06-08_22-10-24_260595134347_rgbf000247-resize_3/000549_2014-06-08_22-10-24_260595134347_rgbf000247-resize_3-target.png,1000,1.841,4,2555,999,feet,jsons/v1_VE1000_randls_37_rotated.json,541108,675361,36,Non-binary
56,720390,DepthScenes,duration_manipulation_targetAtFixation,jsons/v1_VE1000_randls_37_rotated.json,http://54.235.29.9/FacialAge/BNav_EC2/DepthDuration/v2_depth_duration_MTurk/v2_DepthDuration_HTML.html#38,38,1920,947,1920,1080,8-22-2022,8-27-20,57,depth_duration_stimuli/001055_2014-06-08_18-45-35_260595134347_rgbf000111-resize_4/001055_2014-06-08_18-45-35_260595134347_rgbf000111-resize_4-target.png,1000,2.4290000000000003,12,2912,993,feet,jsons/v1_VE1000_randls_37_rotated.json,541108,675361,36,Non-binary
57,720390,DepthScenes,duration_manipulation_targetAtFixation,jsons/v1_VE1000_randls_37_rotated.json,http://54.235.29.9/FacialAge/BNav_EC2/DepthDuration/v2_depth_duration_MTurk/v2_DepthDuration_HTML.html#38,38,1920,947,1920,1080,8-22-2022,8-27-20,58,depth_duration_stimuli/000137_2014-05-20_17-04-49_260595134347_rgbf000120-resize_1/000137_2014-05-20_17-04-49_260595134347_rgbf000120-resize_1-target.png,1000,3.786,14,2509,997,feet,jsons/v1_VE1000_randls_37_rotated.json,541108,675361,36,Non-binary
58,720390,DepthScenes,duration_manipulation_targetAtFixation,jsons/v1_VE1000_randls_37_rotated.json,http://54.235.29.9/FacialAge/BNav_EC2/DepthDuration/v2_depth_duration_MTurk/v2_DepthDuration_HTML.html#38,38,1920,947,1920,1080,8-22-2022,8-27-20,59,depth_duration_stimuli/000736_2014-06-08_18-24-15_260595134347_rgbf000206-resize_3/000736_2014-06-08_18-24-15_260595134347_rgbf000206-resize_3-target.png,1000,3.515,8,2462,999,feet,jsons/v1_VE1000_randls_37_rotated.json,541108,675361,36,Non-binary
59,720390,DepthScenes,duration_manipulation_targetAtFixation,jsons/v1_VE1000_randls_37_rotated.json,http://54.235.29.9/FacialAge/BNav_EC2/DepthDuration/v2_depth_duration_MTurk/v2_DepthDuration_HTML.html#38,38,1920,947,1920,1080,8-22-2022,8-27-20,60,depth_duration_stimuli/002953_2014-06-08_17-32-18_094959634447_rgbf000059-resize_5/002953_2014-06-08_17-32-18_094959634447_rgbf000059-resize_5-target.png,1000,1.551,4,2591,996,feet,jsons/v1_VE1000_randls_37_rotated.json,541108,675361,36,Non-binary
60,720390,DepthScenes,duration_manipulation_targetAtFixation,jsons/v1_VE1000_randls_37_rotated.json,http://54.235.29.9/FacialAge/BNav_EC2/DepthDuration/v2_depth_duration_MTurk/v2_DepthDuration_HTML.html#38,38,1920,947,1920,1080,8-22-2022,8-27-20,61,depth_duration_stimuli/000878_2014-06-08_22-52-45_260595134347_rgbf000045-resize_2/000878_2014-06-08_22-52-45_260595134347_rgbf000045-resize_2-target.png,1000,2.092,8,2740,1008,feet,jsons/v1_VE1000_randls_37_rotated.json,541108,675361,36,Non-binary
61,720390,DepthScenes,duration_manipulation_targetAtFixation,jsons/v1_VE1000_randls_37_rotated.json,http://54.235.29.9/FacialAge/BNav_EC2/DepthDuration/v2_depth_duration_MTurk/v2_DepthDuration_HTML.html#38,38,1920,947,1920,1080,8-22-2022,8-27-20,62,depth_duration_stimuli/003081_2014-06-15_15-19-16_094959634447_rgbf000150-resize_1/003081_2014-06-15_15-19-16_094959634447_rgbf000150-resize_1-target.png,1000,3.9125,12,2987,992,feet,jsons/v1_VE1000_randls_37_rotated.json,541108,675361,36,Non-binary
62,720390,DepthScenes,duration_manipulation_targetAtFixation,jsons/v1_VE1000_randls_37_rotated.json,http://54.235.29.9/FacialAge/BNav_EC2/DepthDuration/v2_depth_duration_MTurk/v2_DepthDuration_HTML.html#38,38,1920,947,1920,1080,8-22-2022,8-27-20,63,depth_duration_stimuli/001417_2014-06-19_16-25-36_260595134347_rgbf000115-resize_5/001417_2014-06-19_16-25-36_260595134347_rgbf000115-resize_5-target.png,1000,4.6255,15,2779,1004,feet,jsons/v1_VE1000_randls_37_rotated.json,541108,675361,36,Non-binary
63,720390,DepthScenes,duration_manipulation_targetAtFixation,jsons/v1_VE1000_randls_37_rotated.json,http://54.235.29.9/FacialAge/BNav_EC2/DepthDuration/v2_depth_duration_MTurk/v2_DepthDuration_HTML.html#38,38,1920,947,1920,1080,8-22-2022,8-27-20,64,depth_duration_stimuli/001235_2014-06-17_16-37-36_260595134347_rgbf000084-resize_4/001235_2014-06-17_16-37-36_260595134347_rgbf000084-resize_4-target.png,1000,3.6605,11,3733,996,feet,jsons/v1_VE1000_randls_37_rotated.json,541108,675361,36,Non-binary
64,720390,DepthScenes,duration_manipulation_targetAtFixation,jsons/v1_VE1000_randls_37_rotated.json,http://54.235.29.9/FacialAge/BNav_EC2/DepthDuration/v2_depth_duration_MTurk/v2_DepthDuration_HTML.html#38,38,1920,947,1920,1080,8-22-2022,8-27-20,65,depth_duration_stimuli/000788_2014-06-08_22-34-36_260595134347_rgbf000131-resize_1/000788_2014-06-08_22-34-36_260595134347_rgbf000131-resize_1-target.png,1000,3.359,8,2405,999,feet,jsons/v1_VE1000_randls_37_rotated.json,541108,675361,36,Non-binary
65,720390,DepthScenes,duration_manipulation_targetAtFixation,jsons/v1_VE1000_randls_37_rotated.json,http://54.235.29.9/FacialAge/BNav_EC2/DepthDuration/v2_depth_duration_MTurk/v2_DepthDuration_HTML.html#38,38,1920,947,1920,1080,8-22-2022,8-27-20,66,depth_duration_stimuli/001540_2014-06-20_17-01-05_260595134347_rgbf000086-resize_2/001540_2014-06-20_17-01-05_260595134347_rgbf000086-resize-original.jpg,1000,1.459,0,2512,998,feet,jsons/v1_VE1000_randls_37_rotated.json,541108,675361,36,Non-binary
66,720390,DepthScenes,duration_manipulation_targetAtFixation,jsons/v1_VE1000_randls_37_rotated.json,http://54.235.29.9/FacialAge/BNav_EC2/DepthDuration/v2_depth_duration_MTurk/v2_DepthDuration_HTML.html#38,38,1920,947,1920,1080,8-22-2022,8-27-20,67,depth_duration_stimuli/001450_2014-06-19_17-02-03_260595134347_rgbf000203-resize_4/001450_2014-06-19_17-02-03_260595134347_rgbf000203-resize_4-target.png,1000,4.0106666666667,16,3624,999,feet,jsons/v1_VE1000_randls_37_rotated.json,541108,675361,36,Non-binary
67,720390,DepthScenes,duration_manipulation_targetAtFixation,jsons/v1_VE1000_randls_37_rotated.json,http://54.235.29.9/FacialAge/BNav_EC2/DepthDuration/v2_depth_duration_MTurk/v2_DepthDuration_HTML.html#38,38,1920,947,1920,1080,8-22-2022,8-27-20,68,depth_duration_stimuli/001449_2014-06-19_17-01-27_260595134347_rgbf000116-resize_2/001449_2014-06-19_17-01-27_260595134347_rgbf000116-resize_2-target.png,1000,3.452,8,2233,993,feet,jsons/v1_VE1000_randls_37_rotated.json,541108,675361,36,Non-binary
68,720390,DepthScenes,duration_manipulation_targetAtFixation,jsons/v1_VE1000_randls_37_rotated.json,http://54.235.29.9/FacialAge/BNav_EC2/DepthDuration/v2_depth_duration_MTurk/v2_DepthDuration_HTML.html#38,38,1920,947,1920,1080,8-22-2022,8-27-20,69,depth_duration_stimuli/002637_2014-06-24_14-51-13_094959634447_rgbf000066-resize_4/002637_2014-06-24_14-51-13_094959634447_rgbf000066-resize_4-target.png,1000,1.9955,7,2785,998,feet,jsons/v1_VE1000_randls_37_rotated.json,541108,675361,36,Non-binary
69,720390,DepthScenes,duration_manipulation_targetAtFixation,jsons/v1_VE1000_randls_37_rotated.json,http://54.235.29.9/FacialAge/BNav_EC2/DepthDuration/v2_depth_duration_MTurk/v2_DepthDuration_HTML.html#38,38,1920,947,1920,1080,8-22-2022,8-27-20,70,depth_duration_stimuli/003534_2014-05-22_15-06-10_094959634447_rgbf000102-resize_4/003534_2014-05-22_15-06-10_094959634447_rgbf000102-resize_4-target.png,1000,1.426,3,4450,997,feet,jsons/v1_VE1000_randls_37_rotated.json,541108,675361,36,Non-binary
70,720390,DepthScenes,duration_manipulation_targetAtFixation,jsons/v1_VE1000_randls_37_rotated.json,http://54.235.29.9/FacialAge/BNav_EC2/DepthDuration/v2_depth_duration_MTurk/v2_DepthDuration_HTML.html#38,38,1920,947,1920,1080,8-22-2022,8-27-20,71,depth_duration_stimuli/002657_2014-06-13_15-29-54_094959634447_rgbf000150-resize_1/002657_2014-06-13_15-29-54_094959634447_rgbf000150-resize_1-target.png,1000,4.919,10,2415,998,feet,jsons/v1_VE1000_randls_37_rotated.json,541108,675361,36,Non-binary
71,720390,DepthScenes,duration_manipulation_targetAtFixation,jsons/v1_VE1000_randls_37_rotated.json,http://54.235.29.9/FacialAge/BNav_EC2/DepthDuration/v2_depth_duration_MTurk/v2_DepthDuration_HTML.html#38,38,1920,947,1920,1080,8-22-2022,8-27-20,72,depth_duration_stimuli/002375_2014-06-28_20-13-44_260595134347_rgbf000032-resize_1/002375_2014-06-28_20-13-44_260595134347_rgbf000032-resize_1-target.png,1000,4.0175,8,2493,998,feet,jsons/v1_VE1000_randls_37_rotated.json,541108,675361,36,Non-binary
72,720390,DepthScenes,duration_manipulation_targetAtFixation,jsons/v1_VE1000_randls_37_rotated.json,http://54.235.29.9/FacialAge/BNav_EC2/DepthDuration/v2_depth_duration_MTurk/v2_DepthDuration_HTML.html#38,38,1920,947,1920,1080,8-22-2022,8-27-20,73,depth_duration_stimuli/003495_2014-05-21_16-01-51_094959634447_rgbf000100-resize_3/003495_2014-05-21_16-01-51_094959634447_rgbf000100-resize_3-target.png,1000,1.6255,3,2704,999,feet,jsons/v1_VE1000_randls_37_rotated.json,541108,675361,36,Non-binary
73,720390,DepthScenes,duration_manipulation_targetAtFixation,jsons/v1_VE1000_randls_37_rotated.json,http://54.235.29.9/FacialAge/BNav_EC2/DepthDuration/v2_depth_duration_MTurk/v2_DepthDuration_HTML.html#38,38,1920,947,1920,1080,8-22-2022,8-27-20,74,depth_duration_stimuli/001244_2014-06-17_16-47-45_260595134347_rgbf000030-resize_4/001244_2014-06-17_16-47-45_260595134347_rgbf000030-resize_4-target.png,1000,2.0425,6,2340,1008,feet,jsons/v1_VE1000_randls_37_rotated.json,541108,675361,36,Non-binary
74,720390,DepthScenes,duration_manipulation_targetAtFixation,jsons/v1_VE1000_randls_37_rotated.json,http://54.235.29.9/FacialAge/BNav_EC2/DepthDuration/v2_depth_duration_MTurk/v2_DepthDuration_HTML.html#38,38,1920,947,1920,1080,8-22-2022,8-27-20,75,depth_duration_stimuli/002136_2014-06-25_21-18-03_260595134347_rgbf000109-resize_3/002136_2014-06-25_21-18-03_260595134347_rgbf000109-resize_3-target.png,1000,1.9569999999999999,5,2380,995,feet,jsons/v1_VE1000_randls_37_rotated.json,541108,675361,36,Non-binary
75,720390,DepthScenes,duration_manipulation_targetAtFixation,jsons/v1_VE1000_randls_37_rotated.json,http://54.235.29.9/FacialAge/BNav_EC2/DepthDuration/v2_depth_duration_MTurk/v2_DepthDuration_HTML.html#38,38,1920,947,1920,1080,8-22-2022,8-27-20,76,depth_duration_stimuli/002964_2014-06-08_17-46-11_094959634447_rgbf000091-resize_4/002964_2014-06-08_17-46-11_094959634447_rgbf000091-resize_4-target.png,1000,1.6909999999999998,4,2290,995,feet,jsons/v1_VE1000_randls_37_rotated.json,541108,675361,36,Non-binary
76,720390,DepthScenes,duration_manipulation_targetAtFixation,jsons/v1_VE1000_randls_37_rotated.json,http://54.235.29.9/FacialAge/BNav_EC2/DepthDuration/v2_depth_duration_MTurk/v2_DepthDuration_HTML.html#38,38,1920,947,1920,1080,8-22-2022,8-27-20,77,depth_duration_stimuli/002678_2014-06-13_16-15-32_094959634447_rgbf000151-resize_6/002678_2014-06-13_16-15-32_094959634447_rgbf000151-resize_6-target.png,1000,2.1830000000000003,6,2812,992,feet,jsons/v1_VE1000_randls_37_rotated.json,541108,675361,36,Non-binary
77,720390,DepthScenes,duration_manipulation_targetAtFixation,jsons/v1_VE1000_randls_37_rotated.json,http://54.235.29.9/FacialAge/BNav_EC2/DepthDuration/v2_depth_duration_MTurk/v2_DepthDuration_HTML.html#38,38,1920,947,1920,1080,8-22-2022,8-27-20,78,depth_duration_stimuli/000368_2014-06-09_15-53-01_260595134347_rgbf000155-resize_2/000368_2014-06-09_15-53-01_260595134347_rgbf000155-resize_2-target.png,1000,2.4859999999999998,5,2599,1007,feet,jsons/v1_VE1000_randls_37_rotated.json,541108,675361,36,Non-binary
78,720390,DepthScenes,duration_manipulation_targetAtFixation,jsons/v1_VE1000_randls_37_rotated.json,http://54.235.29.9/FacialAge/BNav_EC2/DepthDuration/v2_depth_duration_MTurk/v2_DepthDuration_HTML.html#38,38,1920,947,1920,1080,8-22-2022,8-27-20,79,depth_duration_stimuli/000556_2014-06-09_22-42-56_260595134347_rgbf000214-resize_1/000556_2014-06-09_22-42-56_260595134347_rgbf000214-resize_1-target.png,1000,4.8415,14,3017,998,feet,jsons/v1_VE1000_randls_37_rotated.json,541108,675361,36,Non-binary
79,720390,DepthScenes,duration_manipulation_targetAtFixation,jsons/v1_VE1000_randls_37_rotated.json,http://54.235.29.9/FacialAge/BNav_EC2/DepthDuration/v2_depth_duration_MTurk/v2_DepthDuration_HTML.html#38,38,1920,947,1920,1080,8-22-2022,8-27-20,80,depth_duration_stimuli/001158_2014-06-17_15-32-16_260595134347_rgbf000138-resize_2/001158_2014-06-17_15-32-16_260595134347_rgbf000138-resize_2-target.png,1000,4.5315,20,3126,1010,feet,jsons/v1_VE1000_randls_37_rotated.json,541108,675361,36,Non-binary
80,720390,DepthScenes,duration_manipulation_targetAtFixation,jsons/v1_VE1000_randls_37_rotated.json,http://54.235.29.9/FacialAge/BNav_EC2/DepthDuration/v2_depth_duration_MTurk/v2_DepthDuration_HTML.html#38,38,1920,947,1920,1080,8-22-2022,8-27-20,81,depth_duration_stimuli/000665_2014-06-09_20-42-35_260595134347_rgbf000110-resize_1/000665_2014-06-09_20-42-35_260595134347_rgbf000110-resize_1-target.png,1000,3.057,12,3349,992,feet,jsons/v1_VE1000_randls_37_rotated.json,541108,675361,36,Non-binary
81,720390,DepthScenes,duration_manipulation_targetAtFixation,jsons/v1_VE1000_randls_37_rotated.json,http://54.235.29.9/FacialAge/BNav_EC2/DepthDuration/v2_depth_duration_MTurk/v2_DepthDuration_HTML.html#38,38,1920,947,1920,1080,8-22-2022,8-27-20,82,depth_duration_stimuli/001150_2014-06-17_15-27-34_260595134347_rgbf000108-resize_2/001150_2014-06-17_15-27-34_260595134347_rgbf000108-resize_2-target.png,1000,4.0325,15,2767,1009,feet,jsons/v1_VE1000_randls_37_rotated.json,541108,675361,36,Non-binary
82,720390,DepthScenes,duration_manipulation_targetAtFixation,jsons/v1_VE1000_randls_37_rotated.json,http://54.235.29.9/FacialAge/BNav_EC2/DepthDuration/v2_depth_duration_MTurk/v2_DepthDuration_HTML.html#38,38,1920,947,1920,1080,8-22-2022,8-27-20,83,depth_duration_stimuli/001617_2014-06-20_11-35-32_260595134347_rgbf000066-resize_1/001617_2014-06-20_11-35-32_260595134347_rgbf000066-resize_1-target.png,1000,3.7910000000000004,14,2522,1005,feet,jsons/v1_VE1000_randls_37_rotated.json,541108,675361,36,Non-binary
83,720390,DepthScenes,duration_manipulation_targetAtFixation,jsons/v1_VE1000_randls_37_rotated.json,http://54.235.29.9/FacialAge/BNav_EC2/DepthDuration/v2_depth_duration_MTurk/v2_DepthDuration_HTML.html#38,38,1920,947,1920,1080,8-22-2022,8-27-20,84,depth_duration_stimuli/001806_2014-06-26_20-50-20_260595134347_rgbf000091-resize_1/001806_2014-06-26_20-50-20_260595134347_rgbf000091-resize_1-target.png,1000,2.7305,6,2244,993,feet,jsons/v1_VE1000_randls_37_rotated.json,541108,675361,36,Non-binary
84,720390,DepthScenes,duration_manipulation_targetAtFixation,jsons/v1_VE1000_randls_37_rotated.json,http://54.235.29.9/FacialAge/BNav_EC2/DepthDuration/v2_depth_duration_MTurk/v2_DepthDuration_HTML.html#38,38,1920,947,1920,1080,8-22-2022,8-27-20,85,depth_duration_stimuli/001100_2014-06-15_17-46-26_260595134347_rgbf000225-resize_2/001100_2014-06-15_17-46-26_260595134347_rgbf000225-resize_2-target.png,1000,2.24,3,2222,997,feet,jsons/v1_VE1000_randls_37_rotated.json,541108,675361,36,Non-binary
85,720390,DepthScenes,duration_manipulation_targetAtFixation,jsons/v1_VE1000_randls_37_rotated.json,http://54.235.29.9/FacialAge/BNav_EC2/DepthDuration/v2_depth_duration_MTurk/v2_DepthDuration_HTML.html#38,38,1920,947,1920,1080,8-22-2022,8-27-20,86,depth_duration_stimuli/002784_2014-06-22_19-26-30_094959634447_rgbf000083-resize_3/002784_2014-06-22_19-26-30_094959634447_rgbf000083-resize_3-target.png,1000,1.8046666666667,4,2691,994,feet,jsons/v1_VE1000_randls_37_rotated.json,541108,675361,36,Non-binary
86,720390,DepthScenes,duration_manipulation_targetAtFixation,jsons/v1_VE1000_randls_37_rotated.json,http://54.235.29.9/FacialAge/BNav_EC2/DepthDuration/v2_depth_duration_MTurk/v2_DepthDuration_HTML.html#38,38,1920,947,1920,1080,8-22-2022,8-27-20,87,depth_duration_stimuli/003587_2014-05-23_16-48-02_094959634447_rgbf002384-resize_2/003587_2014-05-23_16-48-02_094959634447_rgbf002384-resize_2-target.png,1000,1.357,2,2433,1012,feet,jsons/v1_VE1000_randls_37_rotated.json,541108,675361,36,Non-binary
87,720390,DepthScenes,duration_manipulation_targetAtFixation,jsons/v1_VE1000_randls_37_rotated.json,http://54.235.29.9/FacialAge/BNav_EC2/DepthDuration/v2_depth_duration_MTurk/v2_DepthDuration_HTML.html#38,38,1920,947,1920,1080,8-22-2022,8-27-20,88,depth_duration_stimuli/001167_2014-06-17_15-38-07_260595134347_rgbf000108-resize_0/001167_2014-06-17_15-38-07_260595134347_rgbf000108-resize_0-target.png,1000,1.8505,3,2278,992,feet,jsons/v1_VE1000_randls_37_rotated.json,541108,675361,36,Non-binary
88,720390,DepthScenes,duration_manipulation_targetAtFixation,jsons/v1_VE1000_randls_37_rotated.json,http://54.235.29.9/FacialAge/BNav_EC2/DepthDuration/v2_depth_duration_MTurk/v2_DepthDuration_HTML.html#38,38,1920,947,1920,1080,8-22-2022,8-27-20,89,depth_duration_stimuli/000502_2014-06-08_23-02-32_260595134347_rgbf000063-resize_4/000502_2014-06-08_23-02-32_260595134347_rgbf000063-resize_4-target.png,1000,2.431,6,2281,995,feet,jsons/v1_VE1000_randls_37_rotated.json,541108,675361,36,Non-binary
89,720390,DepthScenes,duration_manipulation_targetAtFixation,jsons/v1_VE1000_randls_37_rotated.json,http://54.235.29.9/FacialAge/BNav_EC2/DepthDuration/v2_depth_duration_MTurk/v2_DepthDuration_HTML.html#38,38,1920,947,1920,1080,8-22-2022,8-27-20,90,depth_duration_stimuli/001199_2014-06-17_16-03-48_260595134347_rgbf000077-resize_0/001199_2014-06-17_16-03-48_260595134347_rgbf000077-resize_0-target.png,1000,3.4375,10,2891,1007,feet,jsons/v1_VE1000_randls_37_rotated.json,541108,675361,36,Non-binary
90,720390,DepthScenes,duration_manipulation_targetAtFixation,jsons/v1_VE1000_randls_37_rotated.json,http://54.235.29.9/FacialAge/BNav_EC2/DepthDuration/v2_depth_duration_MTurk/v2_DepthDuration_HTML.html#38,38,1920,947,1920,1080,8-22-2022,8-27-20,91,depth_duration_stimuli/001815_2014-06-26_20-52-55_260595134347_rgbf000020-resize_0/001815_2014-06-26_20-52-55_260595134347_rgbf000020-resize_0-target.png,1000,3.3865,12,3307,1011,feet,jsons/v1_VE1000_randls_37_rotated.json,541108,675361,36,Non-binary
91,720390,DepthScenes,duration_manipulation_targetAtFixation,jsons/v1_VE1000_randls_37_rotated.json,http://54.235.29.9/FacialAge/BNav_EC2/DepthDuration/v2_depth_duration_MTurk/v2_DepthDuration_HTML.html#38,38,1920,947,1920,1080,8-22-2022,8-27-20,92,depth_duration_stimuli/001808_2014-06-26_20-50-58_260595134347_rgbf000029-resize_1/001808_2014-06-26_20-50-58_260595134347_rgbf000029-resize_1-target.png,1000,4.249,14,2405,1008,feet,jsons/v1_VE1000_randls_37_rotated.json,541108,675361,36,Non-binary
92,720390,DepthScenes,duration_manipulation_targetAtFixation,jsons/v1_VE1000_randls_37_rotated.json,http://54.235.29.9/FacialAge/BNav_EC2/DepthDuration/v2_depth_duration_MTurk/v2_DepthDuration_HTML.html#38,38,1920,947,1920,1080,8-22-2022,8-27-20,93,depth_duration_stimuli/000734_2014-06-08_17-39-11_260595134347_rgbf000128-resize_2/000734_2014-06-08_17-39-11_260595134347_rgbf000128-resize_2-target.png,1000,4.098,10,2659,1003,feet,jsons/v1_VE1000_randls_37_rotated.json,541108,675361,36,Non-binary
93,720390,DepthScenes,duration_manipulation_targetAtFixation,jsons/v1_VE1000_randls_37_rotated.json,http://54.235.29.9/FacialAge/BNav_EC2/DepthDuration/v2_depth_duration_MTurk/v2_DepthDuration_HTML.html#38,38,1920,947,1920,1080,8-22-2022,8-27-20,94,depth_duration_stimuli/000739_2014-06-08_18-45-58_260595134347_rgbf000068-resize_1/000739_2014-06-08_18-45-58_260595134347_rgbf000068-resize_1-target.png,1000,3.534,12,2728,994,feet,jsons/v1_VE1000_randls_37_rotated.json,541108,675361,36,Non-binary
94,720390,DepthScenes,duration_manipulation_targetAtFixation,jsons/v1_VE1000_randls_37_rotated.json,http://54.235.29.9/FacialAge/BNav_EC2/DepthDuration/v2_depth_duration_MTurk/v2_DepthDuration_HTML.html#38,38,1920,947,1920,1080,8-22-2022,8-27-20,95,depth_duration_stimuli/000677_2014-06-08_23-10-32_260595134347_rgbf000158-resize_6/000677_2014-06-08_23-10-32_260595134347_rgbf000158-resize_6-target.png,1000,3.556,14,2364,992,feet,jsons/v1_VE1000_randls_37_rotated.json,541108,675361,36,Non-binary
95,720390,DepthScenes,duration_manipulation_targetAtFixation,jsons/v1_VE1000_randls_37_rotated.json,http://54.235.29.9/FacialAge/BNav_EC2/DepthDuration/v2_depth_duration_MTurk/v2_DepthDuration_HTML.html#38,38,1920,947,1920,1080,8-22-2022,8-27-20,96,depth_duration_stimuli/001029_2014-06-08_13-17-57_260595134347_rgbf000065-resize_1/001029_2014-06-08_13-17-57_260595134347_rgbf000065-resize_1-target.png,1000,3.0835,10,2909,999,feet,jsons/v1_VE1000_randls_37_rotated.json,541108,675361,36,Non-binary
96,720390,DepthScenes,duration_manipulation_targetAtFixation,jsons/v1_VE1000_randls_37_rotated.json,http://54.235.29.9/FacialAge/BNav_EC2/DepthDuration/v2_depth_duration_MTurk/v2_DepthDuration_HTML.html#38,38,1920,947,1920,1080,8-22-2022,8-27-20,97,depth_duration_stimuli/002323_2014-06-28_20-01-54_260595134347_rgbf000051-resize_4/002323_2014-06-28_20-01-54_260595134347_rgbf000051-resize_4-target.png,1000,3.7310000000000003,20,2431,991,feet,jsons/v1_VE1000_randls_37_rotated.json,541108,675361,36,Non-binary
97,720390,DepthScenes,duration_manipulation_targetAtFixation,jsons/v1_VE1000_randls_37_rotated.json,http://54.235.29.9/FacialAge/BNav_EC2/DepthDuration/v2_depth_duration_MTurk/v2_DepthDuration_HTML.html#38,38,1920,947,1920,1080,8-22-2022,8-27-20,98,depth_duration_stimuli/000917_2014-06-09_22-45-29_260595134347_rgbf000149-resize_3/000917_2014-06-09_22-45-29_260595134347_rgbf000149-resize_3-target.png,1000,4.1865,18,3264,1006,feet,jsons/v1_VE1000_randls_37_rotated.json,541108,675361,36,Non-binary
98,720390,DepthScenes,duration_manipulation_targetAtFixation,jsons/v1_VE1000_randls_37_rotated.json,http://54.235.29.9/FacialAge/BNav_EC2/DepthDuration/v2_depth_duration_MTurk/v2_DepthDuration_HTML.html#38,38,1920,947,1920,1080,8-22-2022,8-27-20,99,depth_duration_stimuli/001222_2014-06-17_16-24-06_260595134347_rgbf000073-resize_0/001222_2014-06-17_16-24-06_260595134347_rgbf000073-resize-original.jpg,1000,1.4385,0,2514,1008,feet,jsons/v1_VE1000_randls_37_rotated.json,541108,675361,36,Non-binary
99,720390,DepthScenes,duration_manipulation_targetAtFixation,jsons/v1_VE1000_randls_37_rotated.json,http://54.235.29.9/FacialAge/BNav_EC2/DepthDuration/v2_depth_duration_MTurk/v2_DepthDuration_HTML.html#38,38,1920,947,1920,1080,8-22-2022,8-27-20,100,depth_duration_stimuli/001650_2014-06-20_12-09-00_260595134347_rgbf000087-resize_3/001650_2014-06-20_12-09-00_260595134347_rgbf000087-resize_3-target.png,1000,1.9505,2,2314,991,feet,jsons/v1_VE1000_randls_37_rotated.json,541108,675361,36,Non-binary
100,720390,DepthScenes,duration_manipulation_targetAtFixation,jsons/v1_VE1000_randls_37_rotated.json,http://54.235.29.9/FacialAge/BNav_EC2/DepthDuration/v2_depth_duration_MTurk/v2_DepthDuration_HTML.html#38,38,1920,947,1920,1080,8-22-2022,8-27-20,101,depth_duration_stimuli/000682_2014-06-08_23-14-58_260595134347_rgbf000041-resize_5/000682_2014-06-08_23-14-58_260595134347_rgbf000041-resize_5-target.png,1000,2.7239999999999998,7,2810,1012,feet,jsons/v1_VE1000_randls_37_rotated.json,541108,675361,36,Non-binary
101,720390,DepthScenes,duration_manipulation_targetAtFixation,jsons/v1_VE1000_randls_37_rotated.json,http://54.235.29.9/FacialAge/BNav_EC2/DepthDuration/v2_depth_duration_MTurk/v2_DepthDuration_HTML.html#38,38,1920,947,1920,1080,8-22-2022,8-27-20,102,depth_duration_stimuli/001392_2014-06-19_16-07-59_260595134347_rgbf000046-resize_1/001392_2014-06-19_16-07-59_260595134347_rgbf000046-resize_1-target.png,1000,4.135,10,2543,996,feet,jsons/v1_VE1000_randls_37_rotated.json,541108,675361,36,Non-binary
102,720390,DepthScenes,duration_manipulation_targetAtFixation,jsons/v1_VE1000_randls_37_rotated.json,http://54.235.29.9/FacialAge/BNav_EC2/DepthDuration/v2_depth_duration_MTurk/v2_DepthDuration_HTML.html#38,38,1920,947,1920,1080,8-22-2022,8-27-20,103,depth_duration_stimuli/001570_2014-06-20_17-21-09_260595134347_rgbf000135-resize_4/001570_2014-06-20_17-21-09_260595134347_rgbf000135-resize_4-target.png,1000,4.467,12,2770,1006,feet,jsons/v1_VE1000_randls_37_rotated.json,541108,675361,36,Non-binary
103,720390,DepthScenes,duration_manipulation_targetAtFixation,jsons/v1_VE1000_randls_37_rotated.json,http://54.235.29.9/FacialAge/BNav_EC2/DepthDuration/v2_depth_duration_MTurk/v2_DepthDuration_HTML.html#38,38,1920,947,1920,1080,8-22-2022,8-27-20,104,depth_duration_stimuli/003338_2014-05-20_11-01-23_094959634447_rgbf000051-resize_6/003338_2014-05-20_11-01-23_094959634447_rgbf000051-resize_6-target.png,1000,1.693,3,2339,1007,feet,jsons/v1_VE1000_randls_37_rotated.json,541108,675361,36,Non-binary
104,720390,DepthScenes,duration_manipulation_targetAtFixation,jsons/v1_VE1000_randls_37_rotated.json,http://54.235.29.9/FacialAge/BNav_EC2/DepthDuration/v2_depth_duration_MTurk/v2_DepthDuration_HTML.html#38,38,1920,947,1920,1080,8-22-2022,8-27-20,105,depth_duration_stimuli/002509_2014-06-24_13-19-22_094959634447_rgbf000077-resize_0/002509_2014-06-24_13-19-22_094959634447_rgbf000077-resize_0-target.png,1000,1.3065,3,2463,1006,feet,jsons/v1_VE1000_randls_37_rotated.json,541108,675361,36,Non-binary
105,720390,DepthScenes,duration_manipulation_targetAtFixation,jsons/v1_VE1000_randls_37_rotated.json,http://54.235.29.9/FacialAge/BNav_EC2/DepthDuration/v2_depth_duration_MTurk/v2_DepthDuration_HTML.html#38,38,1920,947,1920,1080,8-22-2022,8-27-20,106,depth_duration_stimuli/000409_2014-06-04_19-23-33_260595134347_rgbf000067-resize_0/000409_2014-06-04_19-23-33_260595134347_rgbf000067-resize_0-target.png,1000,3.7335,8,2743,1009,feet,jsons/v1_VE1000_randls_37_rotated.json,541108,675361,36,Non-binary
106,720390,DepthScenes,duration_manipulation_targetAtFixation,jsons/v1_VE1000_randls_37_rotated.json,http://54.235.29.9/FacialAge/BNav_EC2/DepthDuration/v2_depth_duration_MTurk/v2_DepthDuration_HTML.html#38,38,1920,947,1920,1080,8-22-2022,8-27-20,107,depth_duration_stimuli/002663_2014-06-13_15-50-26_094959634447_rgbf000075-resize_1/002663_2014-06-13_15-50-26_094959634447_rgbf000075-resize_1-target.png,1000,4.7495,16,3290,999,feet,jsons/v1_VE1000_randls_37_rotated.json,541108,675361,36,Non-binary
107,720390,DepthScenes,duration_manipulation_targetAtFixation,jsons/v1_VE1000_randls_37_rotated.json,http://54.235.29.9/FacialAge/BNav_EC2/DepthDuration/v2_depth_duration_MTurk/v2_DepthDuration_HTML.html#38,38,1920,947,1920,1080,8-22-2022,8-27-20,108,depth_duration_stimuli/001516_2014-06-20_16-25-09_260595134347_rgbf000076-resize_2/001516_2014-06-20_16-25-09_260595134347_rgbf000076-resize_2-target.png,1000,1.7445,5,2413,997,feet,jsons/v1_VE1000_randls_37_rotated.json,541108,675361,36,Non-binary
108,720390,DepthScenes,duration_manipulation_targetAtFixation,jsons/v1_VE1000_randls_37_rotated.json,http://54.235.29.9/FacialAge/BNav_EC2/DepthDuration/v2_depth_duration_MTurk/v2_DepthDuration_HTML.html#38,38,1920,947,1920,1080,8-22-2022,8-27-20,109,depth_duration_stimuli/002118_2014-06-25_20-32-08_260595134347_rgbf000078-resize_1/002118_2014-06-25_20-32-08_260595134347_rgbf000078-resize_1-target.png,1000,2.6460000000000004,7,3059,994,feet,jsons/v1_VE1000_randls_37_rotated.json,541108,675361,36,Non-binary
109,720390,DepthScenes,duration_manipulation_targetAtFixation,jsons/v1_VE1000_randls_37_rotated.json,http://54.235.29.9/FacialAge/BNav_EC2/DepthDuration/v2_depth_duration_MTurk/v2_DepthDuration_HTML.html#38,38,1920,947,1920,1080,8-22-2022,8-27-20,110,depth_duration_stimuli/000483_2014-06-09_20-41-45_260595134347_rgbf000116-resize_4/000483_2014-06-09_20-41-45_260595134347_rgbf000116-resize_4-target.png,1000,1.337,2,2487,995,feet,jsons/v1_VE1000_randls_37_rotated.json,541108,675361,36,Non-binary
110,720390,DepthScenes,duration_manipulation_targetAtFixation,jsons/v1_VE1000_randls_37_rotated.json,http://54.235.29.9/FacialAge/BNav_EC2/DepthDuration/v2_depth_duration_MTurk/v2_DepthDuration_HTML.html#38,38,1920,947,1920,1080,8-22-2022,8-27-20,111,depth_duration_stimuli/000469_2014-06-09_19-42-10_260595134347_rgbf000081-resize_1/000469_2014-06-09_19-42-10_260595134347_rgbf000081-resize_1-target.png,1000,1.652,3,2190,999,feet,jsons/v1_VE1000_randls_37_rotated.json,541108,675361,36,Non-binary
111,720390,DepthScenes,duration_manipulation_targetAtFixation,jsons/v1_VE1000_randls_37_rotated.json,http://54.235.29.9/FacialAge/BNav_EC2/DepthDuration/v2_depth_duration_MTurk/v2_DepthDuration_HTML.html#38,38,1920,947,1920,1080,8-22-2022,8-27-20,112,depth_duration_stimuli/002340_2014-06-28_20-05-46_260595134347_rgbf000113-resize_0/002340_2014-06-28_20-05-46_260595134347_rgbf000113-resize_0-target.png,1000,2.4735,10,2639,1005,feet,jsons/v1_VE1000_randls_37_rotated.json,541108,675361,36,Non-binary
112,720390,DepthScenes,duration_manipulation_targetAtFixation,jsons/v1_VE1000_randls_37_rotated.json,http://54.235.29.9/FacialAge/BNav_EC2/DepthDuration/v2_depth_duration_MTurk/v2_DepthDuration_HTML.html#38,38,1920,947,1920,1080,8-22-2022,8-27-20,113,depth_duration_stimuli/001016_2014-06-09_16-16-10_260595134347_rgbf000112-resize_5/001016_2014-06-09_16-16-10_260595134347_rgbf000112-resize_5-target.png,1000,1.6565,8,2257,1000,feet,jsons/v1_VE1000_randls_37_rotated.json,541108,675361,36,Non-binary
113,720390,DepthScenes,duration_manipulation_targetAtFixation,jsons/v1_VE1000_randls_37_rotated.json,http://54.235.29.9/FacialAge/BNav_EC2/DepthDuration/v2_depth_duration_MTurk/v2_DepthDuration_HTML.html#38,38,1920,947,1920,1080,8-22-2022,8-27-20,114,depth_duration_stimuli/002750_2014-06-22_19-08-03_094959634447_rgbf000094-resize_4/002750_2014-06-22_19-08-03_094959634447_rgbf000094-resize_4-target.png,1000,2.354,9,2795,994,feet,jsons/v1_VE1000_randls_37_rotated.json,541108,675361,36,Non-binary
114,720390,DepthScenes,duration_manipulation_targetAtFixation,jsons/v1_VE1000_randls_37_rotated.json,http://54.235.29.9/FacialAge/BNav_EC2/DepthDuration/v2_depth_duration_MTurk/v2_DepthDuration_HTML.html#38,38,1920,947,1920,1080,8-22-2022,8-27-20,115,depth_duration_stimuli/002549_2014-06-24_13-41-39_094959634447_rgbf000022-resize_3/002549_2014-06-24_13-41-39_094959634447_rgbf000022-resize_3-target.png,1000,1.476,4,4126,996,feet,jsons/v1_VE1000_randls_37_rotated.json,541108,675361,36,Non-binary
115,720390,DepthScenes,duration_manipulation_targetAtFixation,jsons/v1_VE1000_randls_37_rotated.json,http://54.235.29.9/FacialAge/BNav_EC2/DepthDuration/v2_depth_duration_MTurk/v2_DepthDuration_HTML.html#38,38,1920,947,1920,1080,8-22-2022,8-27-20,116,depth_duration_stimuli/000866_2014-06-09_20-45-42_260595134347_rgbf000139-resize_1/000866_2014-06-09_20-45-42_260595134347_rgbf000139-resize_1-target.png,1000,3.2155,7,3265,997,feet,jsons/v1_VE1000_randls_37_rotated.json,541108,675361,36,Non-binary
116,720390,DepthScenes,duration_manipulation_targetAtFixation,jsons/v1_VE1000_randls_37_rotated.json,http://54.235.29.9/FacialAge/BNav_EC2/DepthDuration/v2_depth_duration_MTurk/v2_DepthDuration_HTML.html#38,38,1920,947,1920,1080,8-22-2022,8-27-20,117,depth_duration_stimuli/002989_2014-06-15_12-25-03_094959634447_rgbf000150-resize_3/002989_2014-06-15_12-25-03_094959634447_rgbf000150-resize_3-target.png,1000,4.1975,20,3202,993,feet,jsons/v1_VE1000_randls_37_rotated.json,541108,675361,36,Non-binary
117,720390,DepthScenes,duration_manipulation_targetAtFixation,jsons/v1_VE1000_randls_37_rotated.json,http://54.235.29.9/FacialAge/BNav_EC2/DepthDuration/v2_depth_duration_MTurk/v2_DepthDuration_HTML.html#38,38,1920,947,1920,1080,8-22-2022,8-27-20,118,depth_duration_stimuli/001571_2014-06-20_17-21-32_260595134347_rgbf000089-resize_1/001571_2014-06-20_17-21-32_260595134347_rgbf000089-resize_1-target.png,1000,1.86,5,2140,990,feet,jsons/v1_VE1000_randls_37_rotated.json,541108,675361,36,Non-binary
118,720390,DepthScenes,duration_manipulation_targetAtFixation,jsons/v1_VE1000_randls_37_rotated.json,http://54.235.29.9/FacialAge/BNav_EC2/DepthDuration/v2_depth_duration_MTurk/v2_DepthDuration_HTML.html#38,38,1920,947,1920,1080,8-22-2022,8-27-20,119,depth_duration_stimuli/002272_2014-06-28_18-53-56_260595134347_rgbf000067-resize_2/002272_2014-06-28_18-53-56_260595134347_rgbf000067-resize_2-target.png,1000,1.138,4,2161,997,feet,jsons/v1_VE1000_randls_37_rotated.json,541108,675361,36,Non-binary
119,720390,DepthScenes,duration_manipulation_targetAtFixation,jsons/v1_VE1000_randls_37_rotated.json,http://54.235.29.9/FacialAge/BNav_EC2/DepthDuration/v2_depth_duration_MTurk/v2_DepthDuration_HTML.html#38,38,1920,947,1920,1080,8-22-2022,8-27-20,120,depth_duration_stimuli/000787_2014-06-08_22-33-53_260595134347_rgbf000175-resize_1/000787_2014-06-08_22-33-53_260595134347_rgbf000175-resize-original.jpg,1000,4.784,0,2198,1009,feet,jsons/v1_VE1000_randls_37_rotated.json,541108,675361,36,Non-binary
120,720390,DepthScenes,duration_manipulation_targetAtFixation,jsons/v1_VE1000_randls_37_rotated.json,http://54.235.29.9/FacialAge/BNav_EC2/DepthDuration/v2_depth_duration_MTurk/v2_DepthDuration_HTML.html#38,38,1920,947,1920,1080,8-22-2022,8-27-20,121,depth_duration_stimuli/002875_2014-06-01_15-19-00_094959634447_rgbf000151-resize_1/002875_2014-06-01_15-19-00_094959634447_rgbf000151-resize_1-target.png,1000,1.9675,6,2457,1012,feet,jsons/v1_VE1000_randls_37_rotated.json,541108,675361,36,Non-binary
121,720390,DepthScenes,duration_manipulation_targetAtFixation,jsons/v1_VE1000_randls_37_rotated.json,http://54.235.29.9/FacialAge/BNav_EC2/DepthDuration/v2_depth_duration_MTurk/v2_DepthDuration_HTML.html#38,38,1920,947,1920,1080,8-22-2022,8-27-20,122,depth_duration_stimuli/001011_2014-06-08_23-18-54_260595134347_rgbf000044-resize_4/001011_2014-06-08_23-18-54_260595134347_rgbf000044-resize_4-target.png,1000,2.4730000000000003,10,2394,1006,feet,jsons/v1_VE1000_randls_37_rotated.json,541108,675361,36,Non-binary
122,720390,DepthScenes,duration_manipulation_targetAtFixation,jsons/v1_VE1000_randls_37_rotated.json,http://54.235.29.9/FacialAge/BNav_EC2/DepthDuration/v2_depth_duration_MTurk/v2_DepthDuration_HTML.html#38,38,1920,947,1920,1080,8-22-2022,8-27-20,123,depth_duration_stimuli/002103_2014-06-25_20-00-40_260595134347_rgbf000049-resize_0/002103_2014-06-25_20-00-40_260595134347_rgbf000049-resize_0-target.png,1000,4.105,10,2262,994,feet,jsons/v1_VE1000_randls_37_rotated.json,541108,675361,36,Non-binary
123,720390,DepthScenes,duration_manipulation_targetAtFixation,jsons/v1_VE1000_randls_37_rotated.json,http://54.235.29.9/FacialAge/BNav_EC2/DepthDuration/v2_depth_duration_MTurk/v2_DepthDuration_HTML.html#38,38,1920,947,1920,1080,8-22-2022,8-27-20,124,depth_duration_stimuli/002039_2014-06-24_20-22-38_260595134347_rgbf000084-resize_1/002039_2014-06-24_20-22-38_260595134347_rgbf000084-resize_1-target.png,1000,4.408,20,2633,1005,feet,jsons/v1_VE1000_randls_37_rotated.json,541108,675361,36,Non-binary
124,720390,DepthScenes,duration_manipulation_targetAtFixation,jsons/v1_VE1000_randls_37_rotated.json,http://54.235.29.9/FacialAge/BNav_EC2/DepthDuration/v2_depth_duration_MTurk/v2_DepthDuration_HTML.html#38,38,1920,947,1920,1080,8-22-2022,8-27-20,125,depth_duration_stimuli/001214_2014-06-17_16-13-55_260595134347_rgbf000111-resize_0/001214_2014-06-17_16-13-55_260595134347_rgbf000111-resize_0-target.png,1000,2.6505,8,2622,1010,feet,jsons/v1_VE1000_randls_37_rotated.json,541108,675361,36,Non-binary
125,720390,DepthScenes,duration_manipulation_targetAtFixation,jsons/v1_VE1000_randls_37_rotated.json,http://54.235.29.9/FacialAge/BNav_EC2/DepthDuration/v2_depth_duration_MTurk/v2_DepthDuration_HTML.html#38,38,1920,947,1920,1080,8-22-2022,8-27-20,126,depth_duration_stimuli/000810_2014-06-08_17-20-01_260595134347_rgbf000105-resize_0/000810_2014-06-08_17-20-01_260595134347_rgbf000105-resize_0-target.png,1000,1.4865,6,2133,994,feet,jsons/v1_VE1000_randls_37_rotated.json,541108,675361,36,Non-binary
126,720390,DepthScenes,duration_manipulation_targetAtFixation,jsons/v1_VE1000_randls_37_rotated.json,http://54.235.29.9/FacialAge/BNav_EC2/DepthDuration/v2_depth_duration_MTurk/v2_DepthDuration_HTML.html#38,38,1920,947,1920,1080,8-22-2022,8-27-20,127,depth_duration_stimuli/002995_2014-06-15_12-31-26_094959634447_rgbf000150-resize_1/002995_2014-06-15_12-31-26_094959634447_rgbf000150-resize_1-target.png,1000,3.8360000000000003,20,2300,1006,feet,jsons/v1_VE1000_randls_37_rotated.json,541108,675361,36,Non-binary
127,720390,DepthScenes,duration_manipulation_targetAtFixation,jsons/v1_VE1000_randls_37_rotated.json,http://54.235.29.9/FacialAge/BNav_EC2/DepthDuration/v2_depth_duration_MTurk/v2_DepthDuration_HTML.html#38,38,1920,947,1920,1080,8-22-2022,8-27-20,128,depth_duration_stimuli/002748_2014-06-22_19-07-22_094959634447_rgbf000078-resize_1/002748_2014-06-22_19-07-22_094959634447_rgbf000078-resize_1-target.png,1000,4.6705,22,2427,996,feet,jsons/v1_VE1000_randls_37_rotated.json,541108,675361,36,Non-binary
128,720390,DepthScenes,duration_manipulation_targetAtFixation,jsons/v1_VE1000_randls_37_rotated.json,http://54.235.29.9/FacialAge/BNav_EC2/DepthDuration/v2_depth_duration_MTurk/v2_DepthDuration_HTML.html#38,38,1920,947,1920,1080,8-22-2022,8-27-20,129,depth_duration_stimuli/000691_2014-06-08_13-08-50_260595134347_rgbf000132-resize_3/000691_2014-06-08_13-08-50_260595134347_rgbf000132-resize_3-target.png,1000,4.1530000000000005,16,4559,1009,feet,jsons/v1_VE1000_randls_37_rotated.json,541108,675361,36,Non-binary
129,720390,DepthScenes,duration_manipulation_targetAtFixation,jsons/v1_VE1000_randls_37_rotated.json,http://54.235.29.9/FacialAge/BNav_EC2/DepthDuration/v2_depth_duration_MTurk/v2_DepthDuration_HTML.html#38,38,1920,947,1920,1080,8-22-2022,8-27-20,130,depth_duration_stimuli/002213_2014-06-28_18-37-58_260595134347_rgbf000055-resize_1/002213_2014-06-28_18-37-58_260595134347_rgbf000055-resize_1-target.png,1000,3.62,20,3161,998,feet,jsons/v1_VE1000_randls_37_rotated.json,541108,675361,36,Non-binary
130,720390,DepthScenes,duration_manipulation_targetAtFixation,jsons/v1_VE1000_randls_37_rotated.json,http://54.235.29.9/FacialAge/BNav_EC2/DepthDuration/v2_depth_duration_MTurk/v2_DepthDuration_HTML.html#38,38,1920,947,1920,1080,8-22-2022,8-27-20,131,depth_duration_stimuli/002639_2014-06-24_14-51-37_094959634447_rgbf000074-resize_4/002639_2014-06-24_14-51-37_094959634447_rgbf000074-resize_4-target.png,1000,4.0375,16,5758,997,feet,jsons/v1_VE1000_randls_37_rotated.json,541108,675361,36,Non-binary
131,720390,DepthScenes,duration_manipulation_targetAtFixation,jsons/v1_VE1000_randls_37_rotated.json,http://54.235.29.9/FacialAge/BNav_EC2/DepthDuration/v2_depth_duration_MTurk/v2_DepthDuration_HTML.html#38,38,1920,947,1920,1080,8-22-2022,8-27-20,132,depth_duration_stimuli/003292_2014-05-14_21-53-49_094959634447_rgbf000100-resize_2/003292_2014-05-14_21-53-49_094959634447_rgbf000100-resize_2-target.png,1000,3.4815,10,2695,1010,feet,jsons/v1_VE1000_randls_37_rotated.json,541108,675361,36,Non-binary
132,720390,DepthScenes,duration_manipulation_targetAtFixation,jsons/v1_VE1000_randls_37_rotated.json,http://54.235.29.9/FacialAge/BNav_EC2/DepthDuration/v2_depth_duration_MTurk/v2_DepthDuration_HTML.html#38,38,1920,947,1920,1080,8-22-2022,8-27-20,133,depth_duration_stimuli/003079_2014-06-15_15-18-20_094959634447_rgbf000152-resize_8/003079_2014-06-15_15-18-20_094959634447_rgbf000152-resize_8-target.png,1000,2.8775,16,4024,990,feet,jsons/v1_VE1000_randls_37_rotated.json,541108,675361,36,Non-binary
133,720390,DepthScenes,duration_manipulation_targetAtFixation,jsons/v1_VE1000_randls_37_rotated.json,http://54.235.29.9/FacialAge/BNav_EC2/DepthDuration/v2_depth_duration_MTurk/v2_DepthDuration_HTML.html#38,38,1920,947,1920,1080,8-22-2022,8-27-20,134,depth_duration_stimuli/000506_2014-06-08_23-21-00_260595134347_rgbf000070-resize_7/000506_2014-06-08_23-21-00_260595134347_rgbf000070-resize_7-target.png,1000,4.0585,12,2656,1002,feet,jsons/v1_VE1000_randls_37_rotated.json,541108,675361,36,Non-binary
134,720390,DepthScenes,duration_manipulation_targetAtFixation,jsons/v1_VE1000_randls_37_rotated.json,http://54.235.29.9/FacialAge/BNav_EC2/DepthDuration/v2_depth_duration_MTurk/v2_DepthDuration_HTML.html#38,38,1920,947,1920,1080,8-22-2022,8-27-20,135,depth_duration_stimuli/000375_2014-06-08_11-17-29_260595134347_rgbf000133-resize_2/000375_2014-06-08_11-17-29_260595134347_rgbf000133-resize-original.jpg,1000,4.718,0,2097,1004,feet,jsons/v1_VE1000_randls_37_rotated.json,541108,675361,36,Non-binary
135,720390,DepthScenes,duration_manipulation_targetAtFixation,jsons/v1_VE1000_randls_37_rotated.json,http://54.235.29.9/FacialAge/BNav_EC2/DepthDuration/v2_depth_duration_MTurk/v2_DepthDuration_HTML.html#38,38,1920,947,1920,1080,8-22-2022,8-27-20,136,depth_duration_stimuli/000854_2014-06-09_19-43-13_260595134347_rgbf000066-resize_0/000854_2014-06-09_19-43-13_260595134347_rgbf000066-resize_0-target.png,1000,3.068,6,2155,995,feet,jsons/v1_VE1000_randls_37_rotated.json,541108,675361,36,Non-binary
136,720390,DepthScenes,duration_manipulation_targetAtFixation,jsons/v1_VE1000_randls_37_rotated.json,http://54.235.29.9/FacialAge/BNav_EC2/DepthDuration/v2_depth_duration_MTurk/v2_DepthDuration_HTML.html#38,38,1920,947,1920,1080,8-22-2022,8-27-20,137,depth_duration_stimuli/000758_2014-06-08_22-05-08_260595134347_rgbf000085-resize_0/000758_2014-06-08_22-05-08_260595134347_rgbf000085-resize_0-target.png,1000,3.3810000000000002,12,2408,1002,feet,jsons/v1_VE1000_randls_37_rotated.json,541108,675361,36,Non-binary
137,720390,DepthScenes,duration_manipulation_targetAtFixation,jsons/v1_VE1000_randls_37_rotated.json,http://54.235.29.9/FacialAge/BNav_EC2/DepthDuration/v2_depth_duration_MTurk/v2_DepthDuration_HTML.html#38,38,1920,947,1920,1080,8-22-2022,8-27-20,138,depth_duration_stimuli/001447_2014-06-19_17-00-32_260595134347_rgbf000082-resize_5/001447_2014-06-19_17-00-32_260595134347_rgbf000082-resize_5-target.png,1000,4.13775,10,2301,1005,feet,jsons/v1_VE1000_randls_37_rotated.json,541108,675361,36,Non-binary
138,720390,DepthScenes,duration_manipulation_targetAtFixation,jsons/v1_VE1000_randls_37_rotated.json,http://54.235.29.9/FacialAge/BNav_EC2/DepthDuration/v2_depth_duration_MTurk/v2_DepthDuration_HTML.html#38,38,1920,947,1920,1080,8-22-2022,8-27-20,139,depth_duration_stimuli/000447_2014-06-08_16-15-46_260595134347_rgbf000130-resize_1/000447_2014-06-08_16-15-46_260595134347_rgbf000130-resize_1-target.png,1000,4.479,16,5409,997,feet,jsons/v1_VE1000_randls_37_rotated.json,541108,675361,36,Non-binary
139,720390,DepthScenes,duration_manipulation_targetAtFixation,jsons/v1_VE1000_randls_37_rotated.json,http://54.235.29.9/FacialAge/BNav_EC2/DepthDuration/v2_depth_duration_MTurk/v2_DepthDuration_HTML.html#38,38,1920,947,1920,1080,8-22-2022,8-27-20,140,depth_duration_stimuli/002414_2014-06-28_20-24-58_260595134347_rgbf000067-resize_4/002414_2014-06-28_20-24-58_260595134347_rgbf000067-resize_4-target.png,1000,4.363,20,2416,998,feet,jsons/v1_VE1000_randls_37_rotated.json,541108,675361,36,Non-binary
140,720390,DepthScenes,duration_manipulation_targetAtFixation,jsons/v1_VE1000_randls_37_rotated.json,http://54.235.29.9/FacialAge/BNav_EC2/DepthDuration/v2_depth_duration_MTurk/v2_DepthDuration_HTML.html#38,38,1920,947,1920,1080,8-22-2022,8-27-20,141,depth_duration_stimuli/000773_2014-06-08_22-24-54_260595134347_rgbf000093-resize_1/000773_2014-06-08_22-24-54_260595134347_rgbf000093-resize_1-target.png,1000,4.973,14,2879,1007,feet,jsons/v1_VE1000_randls_37_rotated.json,541108,675361,36,Non-binary
141,720390,DepthScenes,duration_manipulation_targetAtFixation,jsons/v1_VE1000_randls_37_rotated.json,http://54.235.29.9/FacialAge/BNav_EC2/DepthDuration/v2_depth_duration_MTurk/v2_DepthDuration_HTML.html#38,38,1920,947,1920,1080,8-22-2022,8-27-20,142,depth_duration_stimuli/002660_2014-06-13_15-44-18_094959634447_rgbf001878-resize_2/002660_2014-06-13_15-44-18_094959634447_rgbf001878-resize_2-target.png,1000,3.576,10,2255,998,feet,jsons/v1_VE1000_randls_37_rotated.json,541108,675361,36,Non-binary
142,720390,DepthScenes,duration_manipulation_targetAtFixation,jsons/v1_VE1000_randls_37_rotated.json,http://54.235.29.9/FacialAge/BNav_EC2/DepthDuration/v2_depth_duration_MTurk/v2_DepthDuration_HTML.html#38,38,1920,947,1920,1080,8-22-2022,8-27-20,143,depth_duration_stimuli/002153_2014-06-25_21-27-18_260595134347_rgbf000038-resize_5/002153_2014-06-25_21-27-18_260595134347_rgbf000038-resize_5-target.png,1000,2.505,6,2835,1011,feet,jsons/v1_VE1000_randls_37_rotated.json,541108,675361,36,Non-binary
143,720390,DepthScenes,duration_manipulation_targetAtFixation,jsons/v1_VE1000_randls_37_rotated.json,http://54.235.29.9/FacialAge/BNav_EC2/DepthDuration/v2_depth_duration_MTurk/v2_DepthDuration_HTML.html#38,38,1920,947,1920,1080,8-22-2022,8-27-20,144,depth_duration_stimuli/002949_2014-06-26_15-57-42_094959634447_rgbf000079-resize_1/002949_2014-06-26_15-57-42_094959634447_rgbf000079-resize_1-target.png,1000,1.8915,4,3486,1000,feet,jsons/v1_VE1000_randls_37_rotated.json,541108,675361,36,Non-binary
144,720390,DepthScenes,duration_manipulation_targetAtFixation,jsons/v1_VE1000_randls_37_rotated.json,http://54.235.29.9/FacialAge/BNav_EC2/DepthDuration/v2_depth_duration_MTurk/v2_DepthDuration_HTML.html#38,38,1920,947,1920,1080,8-22-2022,8-27-20,145,depth_duration_stimuli/000522_2014-06-08_13-35-06_260595134347_rgbf000244-resize_1/000522_2014-06-08_13-35-06_260595134347_rgbf000244-resize_1-target.png,1000,2.3715,3,2186,1010,feet,jsons/v1_VE1000_randls_37_rotated.json,541108,675361,36,Non-binary
145,720390,DepthScenes,duration_manipulation_targetAtFixation,jsons/v1_VE1000_randls_37_rotated.json,http://54.235.29.9/FacialAge/BNav_EC2/DepthDuration/v2_depth_duration_MTurk/v2_DepthDuration_HTML.html#38,38,1920,947,1920,1080,8-22-2022,8-27-20,146,depth_duration_stimuli/001828_2014-06-26_21-40-03_260595134347_rgbf000024-resize_0/001828_2014-06-26_21-40-03_260595134347_rgbf000024-resize_0-target.png,1000,4.8260000000000005,20,3920,1006,feet,jsons/v1_VE1000_randls_37_rotated.json,541108,675361,36,Non-binary
146,720390,DepthScenes,duration_manipulation_targetAtFixation,jsons/v1_VE1000_randls_37_rotated.json,http://54.235.29.9/FacialAge/BNav_EC2/DepthDuration/v2_depth_duration_MTurk/v2_DepthDuration_HTML.html#38,38,1920,947,1920,1080,8-22-2022,8-27-20,147,depth_duration_stimuli/000009_2014-05-26_14-32-05_260595134347_rgbf000034-resize_3/000009_2014-05-26_14-32-05_260595134347_rgbf000034-resize_3-target.png,1000,3.8715,22,2388,1008,feet,jsons/v1_VE1000_randls_37_rotated.json,541108,675361,36,Non-binary
147,720390,DepthScenes,duration_manipulation_targetAtFixation,jsons/v1_VE1000_randls_37_rotated.json,http://54.235.29.9/FacialAge/BNav_EC2/DepthDuration/v2_depth_duration_MTurk/v2_DepthDuration_HTML.html#38,38,1920,947,1920,1080,8-22-2022,8-27-20,148,depth_duration_stimuli/001032_2014-06-08_13-23-17_260595134347_rgbf000021-resize_3/001032_2014-06-08_13-23-17_260595134347_rgbf000021-resize_3-target.png,1000,3.2725,10,2826,993,feet,jsons/v1_VE1000_randls_37_rotated.json,541108,675361,36,Non-binary
148,720390,DepthScenes,duration_manipulation_targetAtFixation,jsons/v1_VE1000_randls_37_rotated.json,http://54.235.29.9/FacialAge/BNav_EC2/DepthDuration/v2_depth_duration_MTurk/v2_DepthDuration_HTML.html#38,38,1920,947,1920,1080,8-22-2022,8-27-20,149,depth_duration_stimuli/001059_2014-06-08_21-53-27_260595134347_rgbf000061-resize_4/001059_2014-06-08_21-53-27_260595134347_rgbf000061-resize_4-target.png,1000,2.4185,7,2673,993,feet,jsons/v1_VE1000_randls_37_rotated.json,541108,675361,36,Non-binary
149,720390,DepthScenes,duration_manipulation_targetAtFixation,jsons/v1_VE1000_randls_37_rotated.json,http://54.235.29.9/FacialAge/BNav_EC2/DepthDuration/v2_depth_duration_MTurk/v2_DepthDuration_HTML.html#38,38,1920,947,1920,1080,8-22-2022,8-27-20,150,depth_duration_stimuli/000742_2014-06-08_18-48-09_260595134347_rgbf000164-resize_4/000742_2014-06-08_18-48-09_260595134347_rgbf000164-resize_4-target.png,1000,4.632,14,2879,1005,feet,jsons/v1_VE1000_randls_37_rotated.json,541108,675361,36,Non-binary
150,720390,DepthScenes,duration_manipulation_targetAtFixation,jsons/v1_VE1000_randls_37_rotated.json,http://54.235.29.9/FacialAge/BNav_EC2/DepthDuration/v2_depth_duration_MTurk/v2_DepthDuration_HTML.html#38,38,1920,947,1920,1080,8-22-2022,8-27-20,151,depth_duration_stimuli/001066_2014-06-08_22-03-20_260595134347_rgbf000066-resize_4/001066_2014-06-08_22-03-20_260595134347_rgbf000066-resize_4-target.png,1000,4.2330000000000005,20,3118,1002,feet,jsons/v1_VE1000_randls_37_rotated.json,541108,675361,36,Non-binary
151,720390,DepthScenes,duration_manipulation_targetAtFixation,jsons/v1_VE1000_randls_37_rotated.json,http://54.235.29.9/FacialAge/BNav_EC2/DepthDuration/v2_depth_duration_MTurk/v2_DepthDuration_HTML.html#38,38,1920,947,1920,1080,8-22-2022,8-27-20,152,depth_duration_stimuli/000569_2014-06-09_22-51-47_260595134347_rgbf000141-resize_3/000569_2014-06-09_22-51-47_260595134347_rgbf000141-resize-original.jpg,1000,4.512,0,2645,999,feet,jsons/v1_VE1000_randls_37_rotated.json,541108,675361,36,Non-binary
152,720390,DepthScenes,duration_manipulation_targetAtFixation,jsons/v1_VE1000_randls_37_rotated.json,http://54.235.29.9/FacialAge/BNav_EC2/DepthDuration/v2_depth_duration_MTurk/v2_DepthDuration_HTML.html#38,38,1920,947,1920,1080,8-22-2022,8-27-20,153,depth_duration_stimuli/000709_2014-06-08_13-51-55_260595134347_rgbf000068-resize_3/000709_2014-06-08_13-51-55_260595134347_rgbf000068-resize_3-target.png,1000,1.8030000000000002,7,2912,1011,feet,jsons/v1_VE1000_randls_37_rotated.json,541108,675361,36,Non-binary
153,720390,DepthScenes,duration_manipulation_targetAtFixation,jsons/v1_VE1000_randls_37_rotated.json,http://54.235.29.9/FacialAge/BNav_EC2/DepthDuration/v2_depth_duration_MTurk/v2_DepthDuration_HTML.html#38,38,1920,947,1920,1080,8-22-2022,8-27-20,154,depth_duration_stimuli/002057_2014-06-24_21-00-13_260595134347_rgbf000120-resize_1/002057_2014-06-24_21-00-13_260595134347_rgbf000120-resize_1-target.png,1000,2.967,12,2703,997,feet,jsons/v1_VE1000_randls_37_rotated.json,541108,675361,36,Non-binary
154,720390,DepthScenes,duration_manipulation_targetAtFixation,jsons/v1_VE1000_randls_37_rotated.json,http://54.235.29.9/FacialAge/BNav_EC2/DepthDuration/v2_depth_duration_MTurk/v2_DepthDuration_HTML.html#38,38,1920,947,1920,1080,8-22-2022,8-27-20,155,depth_duration_stimuli/003228_2014-05-14_13-42-35_094959634447_rgbf000101-resize_1/003228_2014-05-14_13-42-35_094959634447_rgbf000101-resize_1-target.png,1000,1.9680000000000002,4,2238,995,feet,jsons/v1_VE1000_randls_37_rotated.json,541108,675361,36,Non-binary
155,720390,DepthScenes,duration_manipulation_targetAtFixation,jsons/v1_VE1000_randls_37_rotated.json,http://54.235.29.9/FacialAge/BNav_EC2/DepthDuration/v2_depth_duration_MTurk/v2_DepthDuration_HTML.html#38,38,1920,947,1920,1080,8-22-2022,8-27-20,156,depth_duration_stimuli/002600_2014-06-24_14-27-04_094959634447_rgbf000074-resize_2/002600_2014-06-24_14-27-04_094959634447_rgbf000074-resize_2-target.png,1000,2.7575,8,2112,1000,feet,jsons/v1_VE1000_randls_37_rotated.json,541108,675361,36,Non-binary
156,720390,DepthScenes,duration_manipulation_targetAtFixation,jsons/v1_VE1000_randls_37_rotated.json,http://54.235.29.9/FacialAge/BNav_EC2/DepthDuration/v2_depth_duration_MTurk/v2_DepthDuration_HTML.html#38,38,1920,947,1920,1080,8-22-2022,8-27-20,157,depth_duration_stimuli/002805_2014-06-22_19-54-03_094959634447_rgbf000079-resize_1/002805_2014-06-22_19-54-03_094959634447_rgbf000079-resize_1-target.png,1000,3.1439999999999997,12,2553,995,feet,jsons/v1_VE1000_randls_37_rotated.json,541108,675361,36,Non-binary
157,720390,DepthScenes,duration_manipulation_targetAtFixation,jsons/v1_VE1000_randls_37_rotated.json,http://54.235.29.9/FacialAge/BNav_EC2/DepthDuration/v2_depth_duration_MTurk/v2_DepthDuration_HTML.html#38,38,1920,947,1920,1080,8-22-2022,8-27-20,158,depth_duration_stimuli/000906_2014-06-08_13-35-43_260595134347_rgbf000155-resize_1/000906_2014-06-08_13-35-43_260595134347_rgbf000155-resize_1-target.png,1000,2.8489999999999998,10,2965,1006,feet,jsons/v1_VE1000_randls_37_rotated.json,541108,675361,36,Non-binary
158,720390,DepthScenes,duration_manipulation_targetAtFixation,jsons/v1_VE1000_randls_37_rotated.json,http://54.235.29.9/FacialAge/BNav_EC2/DepthDuration/v2_depth_duration_MTurk/v2_DepthDuration_HTML.html#38,38,1920,947,1920,1080,8-22-2022,8-27-20,159,depth_duration_stimuli/002545_2014-06-24_13-38-53_094959634447_rgbf000080-resize_4/002545_2014-06-24_13-38-53_094959634447_rgbf000080-resize_4-target.png,1000,1.9205,7,2524,994,feet,jsons/v1_VE1000_randls_37_rotated.json,541108,675361,36,Non-binary
159,720390,DepthScenes,duration_manipulation_targetAtFixation,jsons/v1_VE1000_randls_37_rotated.json,http://54.235.29.9/FacialAge/BNav_EC2/DepthDuration/v2_depth_duration_MTurk/v2_DepthDuration_HTML.html#38,38,1920,947,1920,1080,8-22-2022,8-27-20,160,depth_duration_stimuli/001092_2014-06-15_17-34-58_260595134347_rgbf000171-resize_3/001092_2014-06-15_17-34-58_260595134347_rgbf000171-resize_3-target.png,1000,2.6935,7,2465,995,feet,jsons/v1_VE1000_randls_37_rotated.json,541108,675361,36,Non-binary
160,720390,DepthScenes,duration_manipulation_targetAtFixation,jsons/v1_VE1000_randls_37_rotated.json,http://54.235.29.9/FacialAge/BNav_EC2/DepthDuration/v2_depth_duration_MTurk/v2_DepthDuration_HTML.html#38,38,1920,947,1920,1080,8-22-2022,8-27-20,161,depth_duration_stimuli/001052_2014-06-08_18-24-54_260595134347_rgbf000130-resize_1/001052_2014-06-08_18-24-54_260595134347_rgbf000130-resize_1-target.png,1000,4.1045,14,2311,1007,feet,jsons/v1_VE1000_randls_37_rotated.json,541108,675361,36,Non-binary
161,720390,DepthScenes,duration_manipulation_targetAtFixation,jsons/v1_VE1000_randls_37_rotated.json,http://54.235.29.9/FacialAge/BNav_EC2/DepthDuration/v2_depth_duration_MTurk/v2_DepthDuration_HTML.html#38,38,1920,947,1920,1080,8-22-2022,8-27-20,162,depth_duration_stimuli/002988_2014-06-15_12-24-20_094959634447_rgbf000150-resize_1/002988_2014-06-15_12-24-20_094959634447_rgbf000150-resize_1-target.png,1000,4.7669999999999995,20,2196,997,feet,jsons/v1_VE1000_randls_37_rotated.json,541108,675361,36,Non-binary
162,720390,DepthScenes,duration_manipulation_targetAtFixation,jsons/v1_VE1000_randls_37_rotated.json,http://54.235.29.9/FacialAge/BNav_EC2/DepthDuration/v2_depth_duration_MTurk/v2_DepthDuration_HTML.html#38,38,1920,947,1920,1080,8-22-2022,8-27-20,163,depth_duration_stimuli/000635_2014-06-08_16-38-42_260595134347_rgbf000106-resize_1/000635_2014-06-08_16-38-42_260595134347_rgbf000106-resize_1-target.png,1000,2.074,10,2174,993,feet,jsons/v1_VE1000_randls_37_rotated.json,541108,675361,36,Non-binary
163,720390,DepthScenes,duration_manipulation_targetAtFixation,jsons/v1_VE1000_randls_37_rotated.json,http://54.235.29.9/FacialAge/BNav_EC2/DepthDuration/v2_depth_duration_MTurk/v2_DepthDuration_HTML.html#38,38,1920,947,1920,1080,8-22-2022,8-27-20,164,depth_duration_stimuli/002279_2014-06-28_18-55-32_260595134347_rgbf000040-resize_5/002279_2014-06-28_18-55-32_260595134347_rgbf000040-resize_5-target.png,1000,1.5043333333333,3,2945,995,feet,jsons/v1_VE1000_randls_37_rotated.json,541108,675361,36,Non-binary
