,subjID,experimentName,versionName,sequenceName,url,selected_row,windowWidth,windowHeight,screenWidth,screenHeight,startDate,startTime,trial,stimulus,duration,actual_depth,depth_estimate,trial_RT,log_sceneDuration,unitSelection,seq_filepath,experimentTime,totalTime,age,gender
0,721406,DepthScenes,duration_manipulation_targetAtFixation,jsons/VE125_randls_21.json,http://54.235.29.9/FacialAge/BNav_EC2/DepthDuration/v2_depth_duration_MTurk/v2_DepthDuration_HTML.html#139,139,1366,625,1366,768,8-21-2022,7-10-10,1,depth_duration_stimuli/000009_2014-05-26_14-32-05_260595134347_rgbf000034-resize_3/000009_2014-05-26_14-32-05_260595134347_rgbf000034-resize_3-target.png,125,3.8715,4,4884,123,meters,jsons/VE125_randls_21.json,853791,1016387,43,Man
1,721406,DepthScenes,duration_manipulation_targetAtFixation,jsons/VE125_randls_21.json,http://54.235.29.9/FacialAge/BNav_EC2/DepthDuration/v2_depth_duration_MTurk/v2_DepthDuration_HTML.html#139,139,1366,625,1366,768,8-21-2022,7-10-10,2,depth_duration_stimuli/001828_2014-06-26_21-40-03_260595134347_rgbf000024-resize_0/001828_2014-06-26_21-40-03_260595134347_rgbf000024-resize_0-target.png,125,4.8260000000000005,5,4507,126,meters,jsons/VE125_randls_21.json,853791,1016387,43,Man
2,721406,DepthScenes,duration_manipulation_targetAtFixation,jsons/VE125_randls_21.json,http://54.235.29.9/FacialAge/BNav_EC2/DepthDuration/v2_depth_duration_MTurk/v2_DepthDuration_HTML.html#139,139,1366,625,1366,768,8-21-2022,7-10-10,3,depth_duration_stimuli/001056_2014-06-08_18-46-44_260595134347_rgbf000068-resize_0/001056_2014-06-08_18-46-44_260595134347_rgbf000068-resize_0-target.png,125,2.6625,5,3554,124,meters,jsons/VE125_randls_21.json,853791,1016387,43,Man
3,721406,DepthScenes,duration_manipulation_targetAtFixation,jsons/VE125_randls_21.json,http://54.235.29.9/FacialAge/BNav_EC2/DepthDuration/v2_depth_duration_MTurk/v2_DepthDuration_HTML.html#139,139,1366,625,1366,768,8-21-2022,7-10-10,4,depth_duration_stimuli/002199_2014-06-28_18-33-56_260595134347_rgbf000074-resize_0/002199_2014-06-28_18-33-56_260595134347_rgbf000074-resize_0-target.png,125,1.996,7,3899,126,meters,jsons/VE125_randls_21.json,853791,1016387,43,Man
4,721406,DepthScenes,duration_manipulation_targetAtFixation,jsons/VE125_randls_21.json,http://54.235.29.9/FacialAge/BNav_EC2/DepthDuration/v2_depth_duration_MTurk/v2_DepthDuration_HTML.html#139,139,1366,625,1366,768,8-21-2022,7-10-10,5,depth_duration_stimuli/000469_2014-06-09_19-42-10_260595134347_rgbf000081-resize_1/000469_2014-06-09_19-42-10_260595134347_rgbf000081-resize_1-target.png,125,1.652,2,4550,126,meters,jsons/VE125_randls_21.json,853791,1016387,43,Man
5,721406,DepthScenes,duration_manipulation_targetAtFixation,jsons/VE125_randls_21.json,http://54.235.29.9/FacialAge/BNav_EC2/DepthDuration/v2_depth_duration_MTurk/v2_DepthDuration_HTML.html#139,139,1366,625,1366,768,8-21-2022,7-10-10,6,depth_duration_stimuli/000483_2014-06-09_20-41-45_260595134347_rgbf000116-resize_4/000483_2014-06-09_20-41-45_260595134347_rgbf000116-resize_4-target.png,125,1.337,2,4482,126,meters,jsons/VE125_randls_21.json,853791,1016387,43,Man
6,721406,DepthScenes,duration_manipulation_targetAtFixation,jsons/VE125_randls_21.json,http://54.235.29.9/FacialAge/BNav_EC2/DepthDuration/v2_depth_duration_MTurk/v2_DepthDuration_HTML.html#139,139,1366,625,1366,768,8-21-2022,7-10-10,7,depth_duration_stimuli/001175_2014-06-17_15-45-55_260595134347_rgbf000129-resize_4/001175_2014-06-17_15-45-55_260595134347_rgbf000129-resize_4-target.png,125,4.255,4,4741,125,meters,jsons/VE125_randls_21.json,853791,1016387,43,Man
7,721406,DepthScenes,duration_manipulation_targetAtFixation,jsons/VE125_randls_21.json,http://54.235.29.9/FacialAge/BNav_EC2/DepthDuration/v2_depth_duration_MTurk/v2_DepthDuration_HTML.html#139,139,1366,625,1366,768,8-21-2022,7-10-10,8,depth_duration_stimuli/003490_2014-05-21_15-50-11_094959634447_rgbf000101-resize_3/003490_2014-05-21_15-50-11_094959634447_rgbf000101-resize_3-target.png,125,3.6445,5,4017,124,meters,jsons/VE125_randls_21.json,853791,1016387,43,Man
8,721406,DepthScenes,duration_manipulation_targetAtFixation,jsons/VE125_randls_21.json,http://54.235.29.9/FacialAge/BNav_EC2/DepthDuration/v2_depth_duration_MTurk/v2_DepthDuration_HTML.html#139,139,1366,625,1366,768,8-21-2022,7-10-10,9,depth_duration_stimuli/002509_2014-06-24_13-19-22_094959634447_rgbf000077-resize_0/002509_2014-06-24_13-19-22_094959634447_rgbf000077-resize_0-target.png,125,1.3065,6,4195,123,meters,jsons/VE125_randls_21.json,853791,1016387,43,Man
9,721406,DepthScenes,duration_manipulation_targetAtFixation,jsons/VE125_randls_21.json,http://54.235.29.9/FacialAge/BNav_EC2/DepthDuration/v2_depth_duration_MTurk/v2_DepthDuration_HTML.html#139,139,1366,625,1366,768,8-21-2022,7-10-10,10,depth_duration_stimuli/003338_2014-05-20_11-01-23_094959634447_rgbf000051-resize_6/003338_2014-05-20_11-01-23_094959634447_rgbf000051-resize_6-target.png,125,1.693,7,3977,125,meters,jsons/VE125_randls_21.json,853791,1016387,43,Man
10,721406,DepthScenes,duration_manipulation_targetAtFixation,jsons/VE125_randls_21.json,http://54.235.29.9/FacialAge/BNav_EC2/DepthDuration/v2_depth_duration_MTurk/v2_DepthDuration_HTML.html#139,139,1366,625,1366,768,8-21-2022,7-10-10,11,depth_duration_stimuli/000493_2014-06-09_21-01-18_260595134347_rgbf000196-resize_3/000493_2014-06-09_21-01-18_260595134347_rgbf000196-resize_3-target.png,125,3.44,8,3979,126,meters,jsons/VE125_randls_21.json,853791,1016387,43,Man
11,721406,DepthScenes,duration_manipulation_targetAtFixation,jsons/VE125_randls_21.json,http://54.235.29.9/FacialAge/BNav_EC2/DepthDuration/v2_depth_duration_MTurk/v2_DepthDuration_HTML.html#139,139,1366,625,1366,768,8-21-2022,7-10-10,12,depth_duration_stimuli/000191_2014-05-12_17-07-38_260595134347_rgbf000199-resize_0/000191_2014-05-12_17-07-38_260595134347_rgbf000199-resize_0-target.png,125,3.7995,8,5511,126,meters,jsons/VE125_randls_21.json,853791,1016387,43,Man
12,721406,DepthScenes,duration_manipulation_targetAtFixation,jsons/VE125_randls_21.json,http://54.235.29.9/FacialAge/BNav_EC2/DepthDuration/v2_depth_duration_MTurk/v2_DepthDuration_HTML.html#139,139,1366,625,1366,768,8-21-2022,7-10-10,13,depth_duration_stimuli/000569_2014-06-09_22-51-47_260595134347_rgbf000141-resize_3/000569_2014-06-09_22-51-47_260595134347_rgbf000141-resize-original.jpg,125,4.512,8,4177,126,meters,jsons/VE125_randls_21.json,853791,1016387,43,Man
13,721406,DepthScenes,duration_manipulation_targetAtFixation,jsons/VE125_randls_21.json,http://54.235.29.9/FacialAge/BNav_EC2/DepthDuration/v2_depth_duration_MTurk/v2_DepthDuration_HTML.html#139,139,1366,625,1366,768,8-21-2022,7-10-10,14,depth_duration_stimuli/001555_2014-06-20_17-12-10_260595134347_rgbf000065-resize_4/001555_2014-06-20_17-12-10_260595134347_rgbf000065-resize_4-target.png,125,1.633,0,4253,126,meters,jsons/VE125_randls_21.json,853791,1016387,43,Man
14,721406,DepthScenes,duration_manipulation_targetAtFixation,jsons/VE125_randls_21.json,http://54.235.29.9/FacialAge/BNav_EC2/DepthDuration/v2_depth_duration_MTurk/v2_DepthDuration_HTML.html#139,139,1366,625,1366,768,8-21-2022,7-10-10,15,depth_duration_stimuli/000103_2014-05-14_22-01-17_260595134347_rgbf000152-resize_5/000103_2014-05-14_22-01-17_260595134347_rgbf000152-resize_5-target.png,125,1.993,6,3915,126,meters,jsons/VE125_randls_21.json,853791,1016387,43,Man
15,721406,DepthScenes,duration_manipulation_targetAtFixation,jsons/VE125_randls_21.json,http://54.235.29.9/FacialAge/BNav_EC2/DepthDuration/v2_depth_duration_MTurk/v2_DepthDuration_HTML.html#139,139,1366,625,1366,768,8-21-2022,7-10-10,16,depth_duration_stimuli/000642_2014-06-08_16-59-25_260595134347_rgbf000098-resize_2/000642_2014-06-08_16-59-25_260595134347_rgbf000098-resize_2-target.png,125,2.8815,4,4458,125,meters,jsons/VE125_randls_21.json,853791,1016387,43,Man
16,721406,DepthScenes,duration_manipulation_targetAtFixation,jsons/VE125_randls_21.json,http://54.235.29.9/FacialAge/BNav_EC2/DepthDuration/v2_depth_duration_MTurk/v2_DepthDuration_HTML.html#139,139,1366,625,1366,768,8-21-2022,7-10-10,17,depth_duration_stimuli/002425_2014-06-28_20-27-29_260595134347_rgbf000031-resize_8/002425_2014-06-28_20-27-29_260595134347_rgbf000031-resize_8-target.png,125,3.8960000000000004,6,3582,125,meters,jsons/VE125_randls_21.json,853791,1016387,43,Man
17,721406,DepthScenes,duration_manipulation_targetAtFixation,jsons/VE125_randls_21.json,http://54.235.29.9/FacialAge/BNav_EC2/DepthDuration/v2_depth_duration_MTurk/v2_DepthDuration_HTML.html#139,139,1366,625,1366,768,8-21-2022,7-10-10,18,depth_duration_stimuli/001449_2014-06-19_17-01-27_260595134347_rgbf000116-resize_2/001449_2014-06-19_17-01-27_260595134347_rgbf000116-resize_2-target.png,125,3.452,7,3993,124,meters,jsons/VE125_randls_21.json,853791,1016387,43,Man
18,721406,DepthScenes,duration_manipulation_targetAtFixation,jsons/VE125_randls_21.json,http://54.235.29.9/FacialAge/BNav_EC2/DepthDuration/v2_depth_duration_MTurk/v2_DepthDuration_HTML.html#139,139,1366,625,1366,768,8-21-2022,7-10-10,19,depth_duration_stimuli/001450_2014-06-19_17-02-03_260595134347_rgbf000203-resize_4/001450_2014-06-19_17-02-03_260595134347_rgbf000203-resize_4-target.png,125,4.0106666666667,8,3659,126,meters,jsons/VE125_randls_21.json,853791,1016387,43,Man
19,721406,DepthScenes,duration_manipulation_targetAtFixation,jsons/VE125_randls_21.json,http://54.235.29.9/FacialAge/BNav_EC2/DepthDuration/v2_depth_duration_MTurk/v2_DepthDuration_HTML.html#139,139,1366,625,1366,768,8-21-2022,7-10-10,20,depth_duration_stimuli/001055_2014-06-08_18-45-35_260595134347_rgbf000111-resize_4/001055_2014-06-08_18-45-35_260595134347_rgbf000111-resize_4-target.png,125,2.4290000000000003,0,3779,126,meters,jsons/VE125_randls_21.json,853791,1016387,43,Man
20,721406,DepthScenes,duration_manipulation_targetAtFixation,jsons/VE125_randls_21.json,http://54.235.29.9/FacialAge/BNav_EC2/DepthDuration/v2_depth_duration_MTurk/v2_DepthDuration_HTML.html#139,139,1366,625,1366,768,8-21-2022,7-10-10,21,depth_duration_stimuli/000549_2014-06-08_22-10-24_260595134347_rgbf000247-resize_3/000549_2014-06-08_22-10-24_260595134347_rgbf000247-resize_3-target.png,125,1.841,0,3854,126,meters,jsons/VE125_randls_21.json,853791,1016387,43,Man
21,721406,DepthScenes,duration_manipulation_targetAtFixation,jsons/VE125_randls_21.json,http://54.235.29.9/FacialAge/BNav_EC2/DepthDuration/v2_depth_duration_MTurk/v2_DepthDuration_HTML.html#139,139,1366,625,1366,768,8-21-2022,7-10-10,22,depth_duration_stimuli/001011_2014-06-08_23-18-54_260595134347_rgbf000044-resize_4/001011_2014-06-08_23-18-54_260595134347_rgbf000044-resize_4-target.png,125,2.4730000000000003,5,4172,126,meters,jsons/VE125_randls_21.json,853791,1016387,43,Man
22,721406,DepthScenes,duration_manipulation_targetAtFixation,jsons/VE125_randls_21.json,http://54.235.29.9/FacialAge/BNav_EC2/DepthDuration/v2_depth_duration_MTurk/v2_DepthDuration_HTML.html#139,139,1366,625,1366,768,8-21-2022,7-10-10,23,depth_duration_stimuli/002875_2014-06-01_15-19-00_094959634447_rgbf000151-resize_1/002875_2014-06-01_15-19-00_094959634447_rgbf000151-resize_1-target.png,125,1.9675,6,3410,124,meters,jsons/VE125_randls_21.json,853791,1016387,43,Man
23,721406,DepthScenes,duration_manipulation_targetAtFixation,jsons/VE125_randls_21.json,http://54.235.29.9/FacialAge/BNav_EC2/DepthDuration/v2_depth_duration_MTurk/v2_DepthDuration_HTML.html#139,139,1366,625,1366,768,8-21-2022,7-10-10,24,depth_duration_stimuli/000758_2014-06-08_22-05-08_260595134347_rgbf000085-resize_0/000758_2014-06-08_22-05-08_260595134347_rgbf000085-resize_0-target.png,125,3.3810000000000002,7,3635,125,meters,jsons/VE125_randls_21.json,853791,1016387,43,Man
24,721406,DepthScenes,duration_manipulation_targetAtFixation,jsons/VE125_randls_21.json,http://54.235.29.9/FacialAge/BNav_EC2/DepthDuration/v2_depth_duration_MTurk/v2_DepthDuration_HTML.html#139,139,1366,625,1366,768,8-21-2022,7-10-10,25,depth_duration_stimuli/000854_2014-06-09_19-43-13_260595134347_rgbf000066-resize_0/000854_2014-06-09_19-43-13_260595134347_rgbf000066-resize_0-target.png,125,3.068,8,3796,126,meters,jsons/VE125_randls_21.json,853791,1016387,43,Man
25,721406,DepthScenes,duration_manipulation_targetAtFixation,jsons/VE125_randls_21.json,http://54.235.29.9/FacialAge/BNav_EC2/DepthDuration/v2_depth_duration_MTurk/v2_DepthDuration_HTML.html#139,139,1366,625,1366,768,8-21-2022,7-10-10,26,depth_duration_stimuli/000470_2014-06-09_19-42-40_260595134347_rgbf000094-resize_1/000470_2014-06-09_19-42-40_260595134347_rgbf000094-resize_1-target.png,125,1.831,2,3883,125,meters,jsons/VE125_randls_21.json,853791,1016387,43,Man
26,721406,DepthScenes,duration_manipulation_targetAtFixation,jsons/VE125_randls_21.json,http://54.235.29.9/FacialAge/BNav_EC2/DepthDuration/v2_depth_duration_MTurk/v2_DepthDuration_HTML.html#139,139,1366,625,1366,768,8-21-2022,7-10-10,27,depth_duration_stimuli/000109_2014-05-14_23-41-52_260595134347_rgbf000035-resize_9/000109_2014-05-14_23-41-52_260595134347_rgbf000035-resize_9-target.png,125,1.3545,3,3657,125,meters,jsons/VE125_randls_21.json,853791,1016387,43,Man
27,721406,DepthScenes,duration_manipulation_targetAtFixation,jsons/VE125_randls_21.json,http://54.235.29.9/FacialAge/BNav_EC2/DepthDuration/v2_depth_duration_MTurk/v2_DepthDuration_HTML.html#139,139,1366,625,1366,768,8-21-2022,7-10-10,28,depth_duration_stimuli/001244_2014-06-17_16-47-45_260595134347_rgbf000030-resize_4/001244_2014-06-17_16-47-45_260595134347_rgbf000030-resize_4-target.png,125,2.0425,4,4421,126,meters,jsons/VE125_randls_21.json,853791,1016387,43,Man
28,721406,DepthScenes,duration_manipulation_targetAtFixation,jsons/VE125_randls_21.json,http://54.235.29.9/FacialAge/BNav_EC2/DepthDuration/v2_depth_duration_MTurk/v2_DepthDuration_HTML.html#139,139,1366,625,1366,768,8-21-2022,7-10-10,29,depth_duration_stimuli/003495_2014-05-21_16-01-51_094959634447_rgbf000100-resize_3/003495_2014-05-21_16-01-51_094959634447_rgbf000100-resize_3-target.png,125,1.6255,5,3834,125,meters,jsons/VE125_randls_21.json,853791,1016387,43,Man
29,721406,DepthScenes,duration_manipulation_targetAtFixation,jsons/VE125_randls_21.json,http://54.235.29.9/FacialAge/BNav_EC2/DepthDuration/v2_depth_duration_MTurk/v2_DepthDuration_HTML.html#139,139,1366,625,1366,768,8-21-2022,7-10-10,30,depth_duration_stimuli/000375_2014-06-08_11-17-29_260595134347_rgbf000133-resize_2/000375_2014-06-08_11-17-29_260595134347_rgbf000133-resize-original.jpg,125,4.718,6,4261,126,meters,jsons/VE125_randls_21.json,853791,1016387,43,Man
30,721406,DepthScenes,duration_manipulation_targetAtFixation,jsons/VE125_randls_21.json,http://54.235.29.9/FacialAge/BNav_EC2/DepthDuration/v2_depth_duration_MTurk/v2_DepthDuration_HTML.html#139,139,1366,625,1366,768,8-21-2022,7-10-10,31,depth_duration_stimuli/002905_2014-06-03_18-04-43_094959634447_rgbf000151-resize_2/002905_2014-06-03_18-04-43_094959634447_rgbf000151-resize_2-target.png,125,2.0295,2,4105,123,meters,jsons/VE125_randls_21.json,853791,1016387,43,Man
31,721406,DepthScenes,duration_manipulation_targetAtFixation,jsons/VE125_randls_21.json,http://54.235.29.9/FacialAge/BNav_EC2/DepthDuration/v2_depth_duration_MTurk/v2_DepthDuration_HTML.html#139,139,1366,625,1366,768,8-21-2022,7-10-10,32,depth_duration_stimuli/003423_2014-05-21_10-23-26_094959634447_rgbf002665-resize_2/003423_2014-05-21_10-23-26_094959634447_rgbf002665-resize_2-target.png,125,3.2575,6,5067,125,meters,jsons/VE125_randls_21.json,853791,1016387,43,Man
32,721406,DepthScenes,duration_manipulation_targetAtFixation,jsons/VE125_randls_21.json,http://54.235.29.9/FacialAge/BNav_EC2/DepthDuration/v2_depth_duration_MTurk/v2_DepthDuration_HTML.html#139,139,1366,625,1366,768,8-21-2022,7-10-10,33,depth_duration_stimuli/002118_2014-06-25_20-32-08_260595134347_rgbf000078-resize_1/002118_2014-06-25_20-32-08_260595134347_rgbf000078-resize_1-target.png,125,2.6460000000000004,6,4037,125,meters,jsons/VE125_randls_21.json,853791,1016387,43,Man
33,721406,DepthScenes,duration_manipulation_targetAtFixation,jsons/VE125_randls_21.json,http://54.235.29.9/FacialAge/BNav_EC2/DepthDuration/v2_depth_duration_MTurk/v2_DepthDuration_HTML.html#139,139,1366,625,1366,768,8-21-2022,7-10-10,34,depth_duration_stimuli/001516_2014-06-20_16-25-09_260595134347_rgbf000076-resize_2/001516_2014-06-20_16-25-09_260595134347_rgbf000076-resize_2-target.png,125,1.7445,7,3844,125,meters,jsons/VE125_randls_21.json,853791,1016387,43,Man
34,721406,DepthScenes,duration_manipulation_targetAtFixation,jsons/VE125_randls_21.json,http://54.235.29.9/FacialAge/BNav_EC2/DepthDuration/v2_depth_duration_MTurk/v2_DepthDuration_HTML.html#139,139,1366,625,1366,768,8-21-2022,7-10-10,35,depth_duration_stimuli/002153_2014-06-25_21-27-18_260595134347_rgbf000038-resize_5/002153_2014-06-25_21-27-18_260595134347_rgbf000038-resize_5-target.png,125,2.505,4,4333,124,meters,jsons/VE125_randls_21.json,853791,1016387,43,Man
35,721406,DepthScenes,duration_manipulation_targetAtFixation,jsons/VE125_randls_21.json,http://54.235.29.9/FacialAge/BNav_EC2/DepthDuration/v2_depth_duration_MTurk/v2_DepthDuration_HTML.html#139,139,1366,625,1366,768,8-21-2022,7-10-10,36,depth_duration_stimuli/002660_2014-06-13_15-44-18_094959634447_rgbf001878-resize_2/002660_2014-06-13_15-44-18_094959634447_rgbf001878-resize_2-target.png,125,3.576,5,3889,126,meters,jsons/VE125_randls_21.json,853791,1016387,43,Man
36,721406,DepthScenes,duration_manipulation_targetAtFixation,jsons/VE125_randls_21.json,http://54.235.29.9/FacialAge/BNav_EC2/DepthDuration/v2_depth_duration_MTurk/v2_DepthDuration_HTML.html#139,139,1366,625,1366,768,8-21-2022,7-10-10,37,depth_duration_stimuli/002600_2014-06-24_14-27-04_094959634447_rgbf000074-resize_2/002600_2014-06-24_14-27-04_094959634447_rgbf000074-resize_2-target.png,125,2.7575,3,4075,124,meters,jsons/VE125_randls_21.json,853791,1016387,43,Man
37,721406,DepthScenes,duration_manipulation_targetAtFixation,jsons/VE125_randls_21.json,http://54.235.29.9/FacialAge/BNav_EC2/DepthDuration/v2_depth_duration_MTurk/v2_DepthDuration_HTML.html#139,139,1366,625,1366,768,8-21-2022,7-10-10,38,depth_duration_stimuli/003228_2014-05-14_13-42-35_094959634447_rgbf000101-resize_1/003228_2014-05-14_13-42-35_094959634447_rgbf000101-resize_1-target.png,125,1.9680000000000002,0,3852,126,meters,jsons/VE125_randls_21.json,853791,1016387,43,Man
38,721406,DepthScenes,duration_manipulation_targetAtFixation,jsons/VE125_randls_21.json,http://54.235.29.9/FacialAge/BNav_EC2/DepthDuration/v2_depth_duration_MTurk/v2_DepthDuration_HTML.html#139,139,1366,625,1366,768,8-21-2022,7-10-10,39,depth_duration_stimuli/002964_2014-06-08_17-46-11_094959634447_rgbf000091-resize_4/002964_2014-06-08_17-46-11_094959634447_rgbf000091-resize_4-target.png,125,1.6909999999999998,3,4467,124,meters,jsons/VE125_randls_21.json,853791,1016387,43,Man
39,721406,DepthScenes,duration_manipulation_targetAtFixation,jsons/VE125_randls_21.json,http://54.235.29.9/FacialAge/BNav_EC2/DepthDuration/v2_depth_duration_MTurk/v2_DepthDuration_HTML.html#139,139,1366,625,1366,768,8-21-2022,7-10-10,40,depth_duration_stimuli/002136_2014-06-25_21-18-03_260595134347_rgbf000109-resize_3/002136_2014-06-25_21-18-03_260595134347_rgbf000109-resize_3-target.png,125,1.9569999999999999,4,30531,126,meters,jsons/VE125_randls_21.json,853791,1016387,43,Man
40,721406,DepthScenes,duration_manipulation_targetAtFixation,jsons/VE125_randls_21.json,http://54.235.29.9/FacialAge/BNav_EC2/DepthDuration/v2_depth_duration_MTurk/v2_DepthDuration_HTML.html#139,139,1366,625,1366,768,8-21-2022,7-10-10,41,depth_duration_stimuli/003070_2014-06-15_14-58-27_094959634447_rgbf000150-resize_3/003070_2014-06-15_14-58-27_094959634447_rgbf000150-resize_3-target.png,125,2.9415,5,5892,125,meters,jsons/VE125_randls_21.json,853791,1016387,43,Man
41,721406,DepthScenes,duration_manipulation_targetAtFixation,jsons/VE125_randls_21.json,http://54.235.29.9/FacialAge/BNav_EC2/DepthDuration/v2_depth_duration_MTurk/v2_DepthDuration_HTML.html#139,139,1366,625,1366,768,8-21-2022,7-10-10,42,depth_duration_stimuli/000943_2014-06-09_19-31-07_260595134347_rgbf000128-resize_1/000943_2014-06-09_19-31-07_260595134347_rgbf000128-resize_1-target.png,125,1.9765,6,3811,125,meters,jsons/VE125_randls_21.json,853791,1016387,43,Man
42,721406,DepthScenes,duration_manipulation_targetAtFixation,jsons/VE125_randls_21.json,http://54.235.29.9/FacialAge/BNav_EC2/DepthDuration/v2_depth_duration_MTurk/v2_DepthDuration_HTML.html#139,139,1366,625,1366,768,8-21-2022,7-10-10,43,depth_duration_stimuli/001150_2014-06-17_15-27-34_260595134347_rgbf000108-resize_2/001150_2014-06-17_15-27-34_260595134347_rgbf000108-resize_2-target.png,125,4.0325,7,4210,124,meters,jsons/VE125_randls_21.json,853791,1016387,43,Man
43,721406,DepthScenes,duration_manipulation_targetAtFixation,jsons/VE125_randls_21.json,http://54.235.29.9/FacialAge/BNav_EC2/DepthDuration/v2_depth_duration_MTurk/v2_DepthDuration_HTML.html#139,139,1366,625,1366,768,8-21-2022,7-10-10,44,depth_duration_stimuli/000665_2014-06-09_20-42-35_260595134347_rgbf000110-resize_1/000665_2014-06-09_20-42-35_260595134347_rgbf000110-resize_1-target.png,125,3.057,8,3829,125,meters,jsons/VE125_randls_21.json,853791,1016387,43,Man
44,721406,DepthScenes,duration_manipulation_targetAtFixation,jsons/VE125_randls_21.json,http://54.235.29.9/FacialAge/BNav_EC2/DepthDuration/v2_depth_duration_MTurk/v2_DepthDuration_HTML.html#139,139,1366,625,1366,768,8-21-2022,7-10-10,45,depth_duration_stimuli/000787_2014-06-08_22-33-53_260595134347_rgbf000175-resize_1/000787_2014-06-08_22-33-53_260595134347_rgbf000175-resize-original.jpg,125,4.784,9,3876,125,meters,jsons/VE125_randls_21.json,853791,1016387,43,Man
45,721406,DepthScenes,duration_manipulation_targetAtFixation,jsons/VE125_randls_21.json,http://54.235.29.9/FacialAge/BNav_EC2/DepthDuration/v2_depth_duration_MTurk/v2_DepthDuration_HTML.html#139,139,1366,625,1366,768,8-21-2022,7-10-10,46,depth_duration_stimuli/001092_2014-06-15_17-34-58_260595134347_rgbf000171-resize_3/001092_2014-06-15_17-34-58_260595134347_rgbf000171-resize_3-target.png,125,2.6935,3,4257,125,meters,jsons/VE125_randls_21.json,853791,1016387,43,Man
46,721406,DepthScenes,duration_manipulation_targetAtFixation,jsons/VE125_randls_21.json,http://54.235.29.9/FacialAge/BNav_EC2/DepthDuration/v2_depth_duration_MTurk/v2_DepthDuration_HTML.html#139,139,1366,625,1366,768,8-21-2022,7-10-10,47,depth_duration_stimuli/002545_2014-06-24_13-38-53_094959634447_rgbf000080-resize_4/002545_2014-06-24_13-38-53_094959634447_rgbf000080-resize_4-target.png,125,1.9205,5,4082,124,meters,jsons/VE125_randls_21.json,853791,1016387,43,Man
47,721406,DepthScenes,duration_manipulation_targetAtFixation,jsons/VE125_randls_21.json,http://54.235.29.9/FacialAge/BNav_EC2/DepthDuration/v2_depth_duration_MTurk/v2_DepthDuration_HTML.html#139,139,1366,625,1366,768,8-21-2022,7-10-10,48,depth_duration_stimuli/002445_2014-06-28_20-32-16_260595134347_rgbf000029-resize_4/002445_2014-06-28_20-32-16_260595134347_rgbf000029-resize_4-target.png,125,2.5315,6,3632,125,meters,jsons/VE125_randls_21.json,853791,1016387,43,Man
48,721406,DepthScenes,duration_manipulation_targetAtFixation,jsons/VE125_randls_21.json,http://54.235.29.9/FacialAge/BNav_EC2/DepthDuration/v2_depth_duration_MTurk/v2_DepthDuration_HTML.html#139,139,1366,625,1366,768,8-21-2022,7-10-10,49,depth_duration_stimuli/000780_2014-06-08_22-28-29_260595134347_rgbf000126-resize_1/000780_2014-06-08_22-28-29_260595134347_rgbf000126-resize_1-target.png,125,3.3825,7,3564,125,meters,jsons/VE125_randls_21.json,853791,1016387,43,Man
49,721406,DepthScenes,duration_manipulation_targetAtFixation,jsons/VE125_randls_21.json,http://54.235.29.9/FacialAge/BNav_EC2/DepthDuration/v2_depth_duration_MTurk/v2_DepthDuration_HTML.html#139,139,1366,625,1366,768,8-21-2022,7-10-10,50,depth_duration_stimuli/001059_2014-06-08_21-53-27_260595134347_rgbf000061-resize_4/001059_2014-06-08_21-53-27_260595134347_rgbf000061-resize_4-target.png,125,2.4185,8,3917,125,meters,jsons/VE125_randls_21.json,853791,1016387,43,Man
50,721406,DepthScenes,duration_manipulation_targetAtFixation,jsons/VE125_randls_21.json,http://54.235.29.9/FacialAge/BNav_EC2/DepthDuration/v2_depth_duration_MTurk/v2_DepthDuration_HTML.html#139,139,1366,625,1366,768,8-21-2022,7-10-10,51,depth_duration_stimuli/001032_2014-06-08_13-23-17_260595134347_rgbf000021-resize_3/001032_2014-06-08_13-23-17_260595134347_rgbf000021-resize_3-target.png,125,3.2725,9,3960,125,meters,jsons/VE125_randls_21.json,853791,1016387,43,Man
51,721406,DepthScenes,duration_manipulation_targetAtFixation,jsons/VE125_randls_21.json,http://54.235.29.9/FacialAge/BNav_EC2/DepthDuration/v2_depth_duration_MTurk/v2_DepthDuration_HTML.html#139,139,1366,625,1366,768,8-21-2022,7-10-10,52,depth_duration_stimuli/003492_2014-05-21_15-50-55_094959634447_rgbf000828-resize_1/003492_2014-05-21_15-50-55_094959634447_rgbf000828-resize_1-target.png,125,4.06875,5,3676,125,meters,jsons/VE125_randls_21.json,853791,1016387,43,Man
52,721406,DepthScenes,duration_manipulation_targetAtFixation,jsons/VE125_randls_21.json,http://54.235.29.9/FacialAge/BNav_EC2/DepthDuration/v2_depth_duration_MTurk/v2_DepthDuration_HTML.html#139,139,1366,625,1366,768,8-21-2022,7-10-10,53,depth_duration_stimuli/002568_2014-06-24_13-59-21_094959634447_rgbf000062-resize_4/002568_2014-06-24_13-59-21_094959634447_rgbf000062-resize_4-target.png,125,3.015,3,3492,126,meters,jsons/VE125_randls_21.json,853791,1016387,43,Man
53,721406,DepthScenes,duration_manipulation_targetAtFixation,jsons/VE125_randls_21.json,http://54.235.29.9/FacialAge/BNav_EC2/DepthDuration/v2_depth_duration_MTurk/v2_DepthDuration_HTML.html#139,139,1366,625,1366,768,8-21-2022,7-10-10,54,depth_duration_stimuli/000447_2014-06-08_16-15-46_260595134347_rgbf000130-resize_1/000447_2014-06-08_16-15-46_260595134347_rgbf000130-resize_1-target.png,125,4.479,5,3736,126,meters,jsons/VE125_randls_21.json,853791,1016387,43,Man
54,721406,DepthScenes,duration_manipulation_targetAtFixation,jsons/VE125_randls_21.json,http://54.235.29.9/FacialAge/BNav_EC2/DepthDuration/v2_depth_duration_MTurk/v2_DepthDuration_HTML.html#139,139,1366,625,1366,768,8-21-2022,7-10-10,55,depth_duration_stimuli/001447_2014-06-19_17-00-32_260595134347_rgbf000082-resize_5/001447_2014-06-19_17-00-32_260595134347_rgbf000082-resize_5-target.png,125,4.13775,2,3937,125,meters,jsons/VE125_randls_21.json,853791,1016387,43,Man
55,721406,DepthScenes,duration_manipulation_targetAtFixation,jsons/VE125_randls_21.json,http://54.235.29.9/FacialAge/BNav_EC2/DepthDuration/v2_depth_duration_MTurk/v2_DepthDuration_HTML.html#139,139,1366,625,1366,768,8-21-2022,7-10-10,56,depth_duration_stimuli/003292_2014-05-14_21-53-49_094959634447_rgbf000100-resize_2/003292_2014-05-14_21-53-49_094959634447_rgbf000100-resize_2-target.png,125,3.4815,8,4001,125,meters,jsons/VE125_randls_21.json,853791,1016387,43,Man
56,721406,DepthScenes,duration_manipulation_targetAtFixation,jsons/VE125_randls_21.json,http://54.235.29.9/FacialAge/BNav_EC2/DepthDuration/v2_depth_duration_MTurk/v2_DepthDuration_HTML.html#139,139,1366,625,1366,768,8-21-2022,7-10-10,57,depth_duration_stimuli/002639_2014-06-24_14-51-37_094959634447_rgbf000074-resize_4/002639_2014-06-24_14-51-37_094959634447_rgbf000074-resize_4-target.png,125,4.0375,7,3515,125,meters,jsons/VE125_randls_21.json,853791,1016387,43,Man
57,721406,DepthScenes,duration_manipulation_targetAtFixation,jsons/VE125_randls_21.json,http://54.235.29.9/FacialAge/BNav_EC2/DepthDuration/v2_depth_duration_MTurk/v2_DepthDuration_HTML.html#139,139,1366,625,1366,768,8-21-2022,7-10-10,58,depth_duration_stimuli/002057_2014-06-24_21-00-13_260595134347_rgbf000120-resize_1/002057_2014-06-24_21-00-13_260595134347_rgbf000120-resize_1-target.png,125,2.967,8,3611,125,meters,jsons/VE125_randls_21.json,853791,1016387,43,Man
58,721406,DepthScenes,duration_manipulation_targetAtFixation,jsons/VE125_randls_21.json,http://54.235.29.9/FacialAge/BNav_EC2/DepthDuration/v2_depth_duration_MTurk/v2_DepthDuration_HTML.html#139,139,1366,625,1366,768,8-21-2022,7-10-10,59,depth_duration_stimuli/000709_2014-06-08_13-51-55_260595134347_rgbf000068-resize_3/000709_2014-06-08_13-51-55_260595134347_rgbf000068-resize_3-target.png,125,1.8030000000000002,4,4297,124,meters,jsons/VE125_randls_21.json,853791,1016387,43,Man
59,721406,DepthScenes,duration_manipulation_targetAtFixation,jsons/VE125_randls_21.json,http://54.235.29.9/FacialAge/BNav_EC2/DepthDuration/v2_depth_duration_MTurk/v2_DepthDuration_HTML.html#139,139,1366,625,1366,768,8-21-2022,7-10-10,60,depth_duration_stimuli/000736_2014-06-08_18-24-15_260595134347_rgbf000206-resize_3/000736_2014-06-08_18-24-15_260595134347_rgbf000206-resize_3-target.png,125,3.515,6,4325,125,meters,jsons/VE125_randls_21.json,853791,1016387,43,Man
60,721406,DepthScenes,duration_manipulation_targetAtFixation,jsons/VE125_randls_21.json,http://54.235.29.9/FacialAge/BNav_EC2/DepthDuration/v2_depth_duration_MTurk/v2_DepthDuration_HTML.html#139,139,1366,625,1366,768,8-21-2022,7-10-10,61,depth_duration_stimuli/000137_2014-05-20_17-04-49_260595134347_rgbf000120-resize_1/000137_2014-05-20_17-04-49_260595134347_rgbf000120-resize_1-target.png,125,3.786,0,3574,125,meters,jsons/VE125_randls_21.json,853791,1016387,43,Man
61,721406,DepthScenes,duration_manipulation_targetAtFixation,jsons/VE125_randls_21.json,http://54.235.29.9/FacialAge/BNav_EC2/DepthDuration/v2_depth_duration_MTurk/v2_DepthDuration_HTML.html#139,139,1366,625,1366,768,8-21-2022,7-10-10,62,depth_duration_stimuli/000788_2014-06-08_22-34-36_260595134347_rgbf000131-resize_1/000788_2014-06-08_22-34-36_260595134347_rgbf000131-resize_1-target.png,125,3.359,5,4669,125,meters,jsons/VE125_randls_21.json,853791,1016387,43,Man
62,721406,DepthScenes,duration_manipulation_targetAtFixation,jsons/VE125_randls_21.json,http://54.235.29.9/FacialAge/BNav_EC2/DepthDuration/v2_depth_duration_MTurk/v2_DepthDuration_HTML.html#139,139,1366,625,1366,768,8-21-2022,7-10-10,63,depth_duration_stimuli/001235_2014-06-17_16-37-36_260595134347_rgbf000084-resize_4/001235_2014-06-17_16-37-36_260595134347_rgbf000084-resize_4-target.png,125,3.6605,0,4183,126,meters,jsons/VE125_randls_21.json,853791,1016387,43,Man
63,721406,DepthScenes,duration_manipulation_targetAtFixation,jsons/VE125_randls_21.json,http://54.235.29.9/FacialAge/BNav_EC2/DepthDuration/v2_depth_duration_MTurk/v2_DepthDuration_HTML.html#139,139,1366,625,1366,768,8-21-2022,7-10-10,64,depth_duration_stimuli/002272_2014-06-28_18-53-56_260595134347_rgbf000067-resize_2/002272_2014-06-28_18-53-56_260595134347_rgbf000067-resize_2-target.png,125,1.138,5,3607,125,meters,jsons/VE125_randls_21.json,853791,1016387,43,Man
64,721406,DepthScenes,duration_manipulation_targetAtFixation,jsons/VE125_randls_21.json,http://54.235.29.9/FacialAge/BNav_EC2/DepthDuration/v2_depth_duration_MTurk/v2_DepthDuration_HTML.html#139,139,1366,625,1366,768,8-21-2022,7-10-10,65,depth_duration_stimuli/001571_2014-06-20_17-21-32_260595134347_rgbf000089-resize_1/001571_2014-06-20_17-21-32_260595134347_rgbf000089-resize_1-target.png,125,1.86,7,3285,124,meters,jsons/VE125_randls_21.json,853791,1016387,43,Man
65,721406,DepthScenes,duration_manipulation_targetAtFixation,jsons/VE125_randls_21.json,http://54.235.29.9/FacialAge/BNav_EC2/DepthDuration/v2_depth_duration_MTurk/v2_DepthDuration_HTML.html#139,139,1366,625,1366,768,8-21-2022,7-10-10,66,depth_duration_stimuli/001222_2014-06-17_16-24-06_260595134347_rgbf000073-resize_0/001222_2014-06-17_16-24-06_260595134347_rgbf000073-resize-original.jpg,125,1.4385,8,3542,125,meters,jsons/VE125_randls_21.json,853791,1016387,43,Man
66,721406,DepthScenes,duration_manipulation_targetAtFixation,jsons/VE125_randls_21.json,http://54.235.29.9/FacialAge/BNav_EC2/DepthDuration/v2_depth_duration_MTurk/v2_DepthDuration_HTML.html#139,139,1366,625,1366,768,8-21-2022,7-10-10,67,depth_duration_stimuli/000739_2014-06-08_18-45-58_260595134347_rgbf000068-resize_1/000739_2014-06-08_18-45-58_260595134347_rgbf000068-resize_1-target.png,125,3.534,5,3802,124,meters,jsons/VE125_randls_21.json,853791,1016387,43,Man
67,721406,DepthScenes,duration_manipulation_targetAtFixation,jsons/VE125_randls_21.json,http://54.235.29.9/FacialAge/BNav_EC2/DepthDuration/v2_depth_duration_MTurk/v2_DepthDuration_HTML.html#139,139,1366,625,1366,768,8-21-2022,7-10-10,68,depth_duration_stimuli/000734_2014-06-08_17-39-11_260595134347_rgbf000128-resize_2/000734_2014-06-08_17-39-11_260595134347_rgbf000128-resize_2-target.png,125,4.098,6,3485,125,meters,jsons/VE125_randls_21.json,853791,1016387,43,Man
68,721406,DepthScenes,duration_manipulation_targetAtFixation,jsons/VE125_randls_21.json,http://54.235.29.9/FacialAge/BNav_EC2/DepthDuration/v2_depth_duration_MTurk/v2_DepthDuration_HTML.html#139,139,1366,625,1366,768,8-21-2022,7-10-10,69,depth_duration_stimuli/001016_2014-06-09_16-16-10_260595134347_rgbf000112-resize_5/001016_2014-06-09_16-16-10_260595134347_rgbf000112-resize_5-target.png,125,1.6565,7,3770,125,meters,jsons/VE125_randls_21.json,853791,1016387,43,Man
69,721406,DepthScenes,duration_manipulation_targetAtFixation,jsons/VE125_randls_21.json,http://54.235.29.9/FacialAge/BNav_EC2/DepthDuration/v2_depth_duration_MTurk/v2_DepthDuration_HTML.html#139,139,1366,625,1366,768,8-21-2022,7-10-10,70,depth_duration_stimuli/002340_2014-06-28_20-05-46_260595134347_rgbf000113-resize_0/002340_2014-06-28_20-05-46_260595134347_rgbf000113-resize_0-target.png,125,2.4735,8,3510,125,meters,jsons/VE125_randls_21.json,853791,1016387,43,Man
70,721406,DepthScenes,duration_manipulation_targetAtFixation,jsons/VE125_randls_21.json,http://54.235.29.9/FacialAge/BNav_EC2/DepthDuration/v2_depth_duration_MTurk/v2_DepthDuration_HTML.html#139,139,1366,625,1366,768,8-21-2022,7-10-10,71,depth_duration_stimuli/001110_2014-06-15_17-25-28_260595134347_rgbf000150-resize_1/001110_2014-06-15_17-25-28_260595134347_rgbf000150-resize_1-target.png,125,1.7115,0,3369,125,meters,jsons/VE125_randls_21.json,853791,1016387,43,Man
71,721406,DepthScenes,duration_manipulation_targetAtFixation,jsons/VE125_randls_21.json,http://54.235.29.9/FacialAge/BNav_EC2/DepthDuration/v2_depth_duration_MTurk/v2_DepthDuration_HTML.html#139,139,1366,625,1366,768,8-21-2022,7-10-10,72,depth_duration_stimuli/000927_2014-06-09_16-32-30_260595134347_rgbf000123-resize_3/000927_2014-06-09_16-32-30_260595134347_rgbf000123-resize_3-target.png,125,2.6785,0,3501,126,meters,jsons/VE125_randls_21.json,853791,1016387,43,Man
72,721406,DepthScenes,duration_manipulation_targetAtFixation,jsons/VE125_randls_21.json,http://54.235.29.9/FacialAge/BNav_EC2/DepthDuration/v2_depth_duration_MTurk/v2_DepthDuration_HTML.html#139,139,1366,625,1366,768,8-21-2022,7-10-10,73,depth_duration_stimuli/002375_2014-06-28_20-13-44_260595134347_rgbf000032-resize_1/002375_2014-06-28_20-13-44_260595134347_rgbf000032-resize_1-target.png,125,4.0175,4,3490,125,meters,jsons/VE125_randls_21.json,853791,1016387,43,Man
73,721406,DepthScenes,duration_manipulation_targetAtFixation,jsons/VE125_randls_21.json,http://54.235.29.9/FacialAge/BNav_EC2/DepthDuration/v2_depth_duration_MTurk/v2_DepthDuration_HTML.html#139,139,1366,625,1366,768,8-21-2022,7-10-10,74,depth_duration_stimuli/002657_2014-06-13_15-29-54_094959634447_rgbf000150-resize_1/002657_2014-06-13_15-29-54_094959634447_rgbf000150-resize_1-target.png,125,4.919,0,3499,126,meters,jsons/VE125_randls_21.json,853791,1016387,43,Man
74,721406,DepthScenes,duration_manipulation_targetAtFixation,jsons/VE125_randls_21.json,http://54.235.29.9/FacialAge/BNav_EC2/DepthDuration/v2_depth_duration_MTurk/v2_DepthDuration_HTML.html#139,139,1366,625,1366,768,8-21-2022,7-10-10,75,depth_duration_stimuli/000773_2014-06-08_22-24-54_260595134347_rgbf000093-resize_1/000773_2014-06-08_22-24-54_260595134347_rgbf000093-resize_1-target.png,125,4.973,7,3859,125,meters,jsons/VE125_randls_21.json,853791,1016387,43,Man
75,721406,DepthScenes,duration_manipulation_targetAtFixation,jsons/VE125_randls_21.json,http://54.235.29.9/FacialAge/BNav_EC2/DepthDuration/v2_depth_duration_MTurk/v2_DepthDuration_HTML.html#139,139,1366,625,1366,768,8-21-2022,7-10-10,76,depth_duration_stimuli/002414_2014-06-28_20-24-58_260595134347_rgbf000067-resize_4/002414_2014-06-28_20-24-58_260595134347_rgbf000067-resize_4-target.png,125,4.363,8,3253,126,meters,jsons/VE125_randls_21.json,853791,1016387,43,Man
76,721406,DepthScenes,duration_manipulation_targetAtFixation,jsons/VE125_randls_21.json,http://54.235.29.9/FacialAge/BNav_EC2/DepthDuration/v2_depth_duration_MTurk/v2_DepthDuration_HTML.html#139,139,1366,625,1366,768,8-21-2022,7-10-10,77,depth_duration_stimuli/000436_2014-06-09_22-25-11_260595134347_rgbf000137-resize_1/000436_2014-06-09_22-25-11_260595134347_rgbf000137-resize_1-target.png,125,4.0705,9,3372,125,meters,jsons/VE125_randls_21.json,853791,1016387,43,Man
77,721406,DepthScenes,duration_manipulation_targetAtFixation,jsons/VE125_randls_21.json,http://54.235.29.9/FacialAge/BNav_EC2/DepthDuration/v2_depth_duration_MTurk/v2_DepthDuration_HTML.html#139,139,1366,625,1366,768,8-21-2022,7-10-10,78,depth_duration_stimuli/002444_2014-06-28_20-32-08_260595134347_rgbf000027-resize_0/002444_2014-06-28_20-32-08_260595134347_rgbf000027-resize_0-target.png,125,4.388999999999999,5,3706,125,meters,jsons/VE125_randls_21.json,853791,1016387,43,Man
78,721406,DepthScenes,duration_manipulation_targetAtFixation,jsons/VE125_randls_21.json,http://54.235.29.9/FacialAge/BNav_EC2/DepthDuration/v2_depth_duration_MTurk/v2_DepthDuration_HTML.html#139,139,1366,625,1366,768,8-21-2022,7-10-10,79,depth_duration_stimuli/002570_2014-06-24_13-59-54_094959634447_rgbf000059-resize_0/002570_2014-06-24_13-59-54_094959634447_rgbf000059-resize_0-target.png,125,4.037,6,3884,125,meters,jsons/VE125_randls_21.json,853791,1016387,43,Man
79,721406,DepthScenes,duration_manipulation_targetAtFixation,jsons/VE125_randls_21.json,http://54.235.29.9/FacialAge/BNav_EC2/DepthDuration/v2_depth_duration_MTurk/v2_DepthDuration_HTML.html#139,139,1366,625,1366,768,8-21-2022,7-10-10,80,depth_duration_stimuli/002467_2014-06-28_20-38-07_260595134347_rgbf000026-resize_2/002467_2014-06-28_20-38-07_260595134347_rgbf000026-resize_2-target.png,125,4.742,8,33428,126,meters,jsons/VE125_randls_21.json,853791,1016387,43,Man
80,721406,DepthScenes,duration_manipulation_targetAtFixation,jsons/VE125_randls_21.json,http://54.235.29.9/FacialAge/BNav_EC2/DepthDuration/v2_depth_duration_MTurk/v2_DepthDuration_HTML.html#139,139,1366,625,1366,768,8-21-2022,7-10-10,81,depth_duration_stimuli/002725_2014-06-22_11-47-51_094959634447_rgbf000070-resize_1/002725_2014-06-22_11-47-51_094959634447_rgbf000070-resize_1-target.png,125,2.195,9,5267,125,meters,jsons/VE125_randls_21.json,853791,1016387,43,Man
81,721406,DepthScenes,duration_manipulation_targetAtFixation,jsons/VE125_randls_21.json,http://54.235.29.9/FacialAge/BNav_EC2/DepthDuration/v2_depth_duration_MTurk/v2_DepthDuration_HTML.html#139,139,1366,625,1366,768,8-21-2022,7-10-10,82,depth_duration_stimuli/002344_2014-06-28_20-06-29_260595134347_rgbf000030-resize_1/002344_2014-06-28_20-06-29_260595134347_rgbf000030-resize_1-target.png,125,1.5795,0,4201,124,meters,jsons/VE125_randls_21.json,853791,1016387,43,Man
82,721406,DepthScenes,duration_manipulation_targetAtFixation,jsons/VE125_randls_21.json,http://54.235.29.9/FacialAge/BNav_EC2/DepthDuration/v2_depth_duration_MTurk/v2_DepthDuration_HTML.html#139,139,1366,625,1366,768,8-21-2022,7-10-10,83,depth_duration_stimuli/003534_2014-05-22_15-06-10_094959634447_rgbf000102-resize_4/003534_2014-05-22_15-06-10_094959634447_rgbf000102-resize_4-target.png,125,1.426,4,4637,125,meters,jsons/VE125_randls_21.json,853791,1016387,43,Man
83,721406,DepthScenes,duration_manipulation_targetAtFixation,jsons/VE125_randls_21.json,http://54.235.29.9/FacialAge/BNav_EC2/DepthDuration/v2_depth_duration_MTurk/v2_DepthDuration_HTML.html#139,139,1366,625,1366,768,8-21-2022,7-10-10,84,depth_duration_stimuli/002637_2014-06-24_14-51-13_094959634447_rgbf000066-resize_4/002637_2014-06-24_14-51-13_094959634447_rgbf000066-resize_4-target.png,125,1.9955,0,3548,125,meters,jsons/VE125_randls_21.json,853791,1016387,43,Man
84,721406,DepthScenes,duration_manipulation_targetAtFixation,jsons/VE125_randls_21.json,http://54.235.29.9/FacialAge/BNav_EC2/DepthDuration/v2_depth_duration_MTurk/v2_DepthDuration_HTML.html#139,139,1366,625,1366,768,8-21-2022,7-10-10,85,depth_duration_stimuli/000878_2014-06-08_22-52-45_260595134347_rgbf000045-resize_2/000878_2014-06-08_22-52-45_260595134347_rgbf000045-resize_2-target.png,125,2.092,5,4021,125,meters,jsons/VE125_randls_21.json,853791,1016387,43,Man
85,721406,DepthScenes,duration_manipulation_targetAtFixation,jsons/VE125_randls_21.json,http://54.235.29.9/FacialAge/BNav_EC2/DepthDuration/v2_depth_duration_MTurk/v2_DepthDuration_HTML.html#139,139,1366,625,1366,768,8-21-2022,7-10-10,86,depth_duration_stimuli/002953_2014-06-08_17-32-18_094959634447_rgbf000059-resize_5/002953_2014-06-08_17-32-18_094959634447_rgbf000059-resize_5-target.png,125,1.551,0,3626,126,meters,jsons/VE125_randls_21.json,853791,1016387,43,Man
86,721406,DepthScenes,duration_manipulation_targetAtFixation,jsons/VE125_randls_21.json,http://54.235.29.9/FacialAge/BNav_EC2/DepthDuration/v2_depth_duration_MTurk/v2_DepthDuration_HTML.html#139,139,1366,625,1366,768,8-21-2022,7-10-10,87,depth_duration_stimuli/001133_2014-06-17_14-49-16_260595134347_rgbf000100-resize_0/001133_2014-06-17_14-49-16_260595134347_rgbf000100-resize_0-target.png,125,4.2115,4,4076,125,meters,jsons/VE125_randls_21.json,853791,1016387,43,Man
87,721406,DepthScenes,duration_manipulation_targetAtFixation,jsons/VE125_randls_21.json,http://54.235.29.9/FacialAge/BNav_EC2/DepthDuration/v2_depth_duration_MTurk/v2_DepthDuration_HTML.html#139,139,1366,625,1366,768,8-21-2022,7-10-10,88,depth_duration_stimuli/001132_2014-06-17_14-48-54_260595134347_rgbf000100-resize_2/001132_2014-06-17_14-48-54_260595134347_rgbf000100-resize_2-target.png,125,3.753,0,3811,125,meters,jsons/VE125_randls_21.json,853791,1016387,43,Man
88,721406,DepthScenes,duration_manipulation_targetAtFixation,jsons/VE125_randls_21.json,http://54.235.29.9/FacialAge/BNav_EC2/DepthDuration/v2_depth_duration_MTurk/v2_DepthDuration_HTML.html#139,139,1366,625,1366,768,8-21-2022,7-10-10,89,depth_duration_stimuli/002788_2014-06-22_19-36-03_094959634447_rgbf000088-resize_2/002788_2014-06-22_19-36-03_094959634447_rgbf000088-resize_2-target.png,125,1.6465,8,5195,126,meters,jsons/VE125_randls_21.json,853791,1016387,43,Man
89,721406,DepthScenes,duration_manipulation_targetAtFixation,jsons/VE125_randls_21.json,http://54.235.29.9/FacialAge/BNav_EC2/DepthDuration/v2_depth_duration_MTurk/v2_DepthDuration_HTML.html#139,139,1366,625,1366,768,8-21-2022,7-10-10,90,depth_duration_stimuli/000749_2014-06-08_21-55-06_260595134347_rgbf000070-resize_2/000749_2014-06-08_21-55-06_260595134347_rgbf000070-resize_2-target.png,125,2.331,0,3812,125,meters,jsons/VE125_randls_21.json,853791,1016387,43,Man
90,721406,DepthScenes,duration_manipulation_targetAtFixation,jsons/VE125_randls_21.json,http://54.235.29.9/FacialAge/BNav_EC2/DepthDuration/v2_depth_duration_MTurk/v2_DepthDuration_HTML.html#139,139,1366,625,1366,768,8-21-2022,7-10-10,91,depth_duration_stimuli/002988_2014-06-15_12-24-20_094959634447_rgbf000150-resize_1/002988_2014-06-15_12-24-20_094959634447_rgbf000150-resize_1-target.png,125,4.7669999999999995,5,4075,124,meters,jsons/VE125_randls_21.json,853791,1016387,43,Man
91,721406,DepthScenes,duration_manipulation_targetAtFixation,jsons/VE125_randls_21.json,http://54.235.29.9/FacialAge/BNav_EC2/DepthDuration/v2_depth_duration_MTurk/v2_DepthDuration_HTML.html#139,139,1366,625,1366,768,8-21-2022,7-10-10,92,depth_duration_stimuli/001052_2014-06-08_18-24-54_260595134347_rgbf000130-resize_1/001052_2014-06-08_18-24-54_260595134347_rgbf000130-resize_1-target.png,125,4.1045,5,26824,124,meters,jsons/VE125_randls_21.json,853791,1016387,43,Man
92,721406,DepthScenes,duration_manipulation_targetAtFixation,jsons/VE125_randls_21.json,http://54.235.29.9/FacialAge/BNav_EC2/DepthDuration/v2_depth_duration_MTurk/v2_DepthDuration_HTML.html#139,139,1366,625,1366,768,8-21-2022,7-10-10,93,depth_duration_stimuli/000368_2014-06-09_15-53-01_260595134347_rgbf000155-resize_2/000368_2014-06-09_15-53-01_260595134347_rgbf000155-resize_2-target.png,125,2.4859999999999998,6,3882,124,meters,jsons/VE125_randls_21.json,853791,1016387,43,Man
93,721406,DepthScenes,duration_manipulation_targetAtFixation,jsons/VE125_randls_21.json,http://54.235.29.9/FacialAge/BNav_EC2/DepthDuration/v2_depth_duration_MTurk/v2_DepthDuration_HTML.html#139,139,1366,625,1366,768,8-21-2022,7-10-10,94,depth_duration_stimuli/002678_2014-06-13_16-15-32_094959634447_rgbf000151-resize_6/002678_2014-06-13_16-15-32_094959634447_rgbf000151-resize_6-target.png,125,2.1830000000000003,7,3311,125,meters,jsons/VE125_randls_21.json,853791,1016387,43,Man
94,721406,DepthScenes,duration_manipulation_targetAtFixation,jsons/VE125_randls_21.json,http://54.235.29.9/FacialAge/BNav_EC2/DepthDuration/v2_depth_duration_MTurk/v2_DepthDuration_HTML.html#139,139,1366,625,1366,768,8-21-2022,7-10-10,95,depth_duration_stimuli/001066_2014-06-08_22-03-20_260595134347_rgbf000066-resize_4/001066_2014-06-08_22-03-20_260595134347_rgbf000066-resize_4-target.png,125,4.2330000000000005,8,4039,126,meters,jsons/VE125_randls_21.json,853791,1016387,43,Man
95,721406,DepthScenes,duration_manipulation_targetAtFixation,jsons/VE125_randls_21.json,http://54.235.29.9/FacialAge/BNav_EC2/DepthDuration/v2_depth_duration_MTurk/v2_DepthDuration_HTML.html#139,139,1366,625,1366,768,8-21-2022,7-10-10,96,depth_duration_stimuli/000742_2014-06-08_18-48-09_260595134347_rgbf000164-resize_4/000742_2014-06-08_18-48-09_260595134347_rgbf000164-resize_4-target.png,125,4.632,0,3427,126,meters,jsons/VE125_randls_21.json,853791,1016387,43,Man
96,721406,DepthScenes,duration_manipulation_targetAtFixation,jsons/VE125_randls_21.json,http://54.235.29.9/FacialAge/BNav_EC2/DepthDuration/v2_depth_duration_MTurk/v2_DepthDuration_HTML.html#139,139,1366,625,1366,768,8-21-2022,7-10-10,97,depth_duration_stimuli/001808_2014-06-26_20-50-58_260595134347_rgbf000029-resize_1/001808_2014-06-26_20-50-58_260595134347_rgbf000029-resize_1-target.png,125,4.249,9,4572,125,meters,jsons/VE125_randls_21.json,853791,1016387,43,Man
97,721406,DepthScenes,duration_manipulation_targetAtFixation,jsons/VE125_randls_21.json,http://54.235.29.9/FacialAge/BNav_EC2/DepthDuration/v2_depth_duration_MTurk/v2_DepthDuration_HTML.html#139,139,1366,625,1366,768,8-21-2022,7-10-10,98,depth_duration_stimuli/001815_2014-06-26_20-52-55_260595134347_rgbf000020-resize_0/001815_2014-06-26_20-52-55_260595134347_rgbf000020-resize_0-target.png,125,3.3865,0,4116,124,meters,jsons/VE125_randls_21.json,853791,1016387,43,Man
98,721406,DepthScenes,duration_manipulation_targetAtFixation,jsons/VE125_randls_21.json,http://54.235.29.9/FacialAge/BNav_EC2/DepthDuration/v2_depth_duration_MTurk/v2_DepthDuration_HTML.html#139,139,1366,625,1366,768,8-21-2022,7-10-10,99,depth_duration_stimuli/001540_2014-06-20_17-01-05_260595134347_rgbf000086-resize_2/001540_2014-06-20_17-01-05_260595134347_rgbf000086-resize-original.jpg,125,1.459,0,3268,124,meters,jsons/VE125_randls_21.json,853791,1016387,43,Man
99,721406,DepthScenes,duration_manipulation_targetAtFixation,jsons/VE125_randls_21.json,http://54.235.29.9/FacialAge/BNav_EC2/DepthDuration/v2_depth_duration_MTurk/v2_DepthDuration_HTML.html#139,139,1366,625,1366,768,8-21-2022,7-10-10,100,depth_duration_stimuli/002763_2014-06-22_19-13-10_094959634447_rgbf000075-resize_4/002763_2014-06-22_19-13-10_094959634447_rgbf000075-resize_4-target.png,125,1.68375,5,4434,125,meters,jsons/VE125_randls_21.json,853791,1016387,43,Man
100,721406,DepthScenes,duration_manipulation_targetAtFixation,jsons/VE125_randls_21.json,http://54.235.29.9/FacialAge/BNav_EC2/DepthDuration/v2_depth_duration_MTurk/v2_DepthDuration_HTML.html#139,139,1366,625,1366,768,8-21-2022,7-10-10,101,depth_duration_stimuli/002209_2014-06-28_18-36-10_260595134347_rgbf000051-resize_1/002209_2014-06-28_18-36-10_260595134347_rgbf000051-resize_1-target.png,125,2.057,6,3428,124,meters,jsons/VE125_randls_21.json,853791,1016387,43,Man
101,721406,DepthScenes,duration_manipulation_targetAtFixation,jsons/VE125_randls_21.json,http://54.235.29.9/FacialAge/BNav_EC2/DepthDuration/v2_depth_duration_MTurk/v2_DepthDuration_HTML.html#139,139,1366,625,1366,768,8-21-2022,7-10-10,102,depth_duration_stimuli/000682_2014-06-08_23-14-58_260595134347_rgbf000041-resize_5/000682_2014-06-08_23-14-58_260595134347_rgbf000041-resize_5-target.png,125,2.7239999999999998,8,3914,124,meters,jsons/VE125_randls_21.json,853791,1016387,43,Man
102,721406,DepthScenes,duration_manipulation_targetAtFixation,jsons/VE125_randls_21.json,http://54.235.29.9/FacialAge/BNav_EC2/DepthDuration/v2_depth_duration_MTurk/v2_DepthDuration_HTML.html#139,139,1366,625,1366,768,8-21-2022,7-10-10,103,depth_duration_stimuli/001650_2014-06-20_12-09-00_260595134347_rgbf000087-resize_3/001650_2014-06-20_12-09-00_260595134347_rgbf000087-resize_3-target.png,125,1.9505,9,3540,125,meters,jsons/VE125_randls_21.json,853791,1016387,43,Man
103,721406,DepthScenes,duration_manipulation_targetAtFixation,jsons/VE125_randls_21.json,http://54.235.29.9/FacialAge/BNav_EC2/DepthDuration/v2_depth_duration_MTurk/v2_DepthDuration_HTML.html#139,139,1366,625,1366,768,8-21-2022,7-10-10,104,depth_duration_stimuli/001164_2014-06-17_15-35-46_260595134347_rgbf000085-resize_3/001164_2014-06-17_15-35-46_260595134347_rgbf000085-resize_3-target.png,125,2.354,4,4040,125,meters,jsons/VE125_randls_21.json,853791,1016387,43,Man
104,721406,DepthScenes,duration_manipulation_targetAtFixation,jsons/VE125_randls_21.json,http://54.235.29.9/FacialAge/BNav_EC2/DepthDuration/v2_depth_duration_MTurk/v2_DepthDuration_HTML.html#139,139,1366,625,1366,768,8-21-2022,7-10-10,105,depth_duration_stimuli/001136_2014-06-17_15-19-41_260595134347_rgbf000076-resize_3/001136_2014-06-17_15-19-41_260595134347_rgbf000076-resize_3-target.png,125,1.8655,0,3715,124,meters,jsons/VE125_randls_21.json,853791,1016387,43,Man
105,721406,DepthScenes,duration_manipulation_targetAtFixation,jsons/VE125_randls_21.json,http://54.235.29.9/FacialAge/BNav_EC2/DepthDuration/v2_depth_duration_MTurk/v2_DepthDuration_HTML.html#139,139,1366,625,1366,768,8-21-2022,7-10-10,106,depth_duration_stimuli/002039_2014-06-24_20-22-38_260595134347_rgbf000084-resize_1/002039_2014-06-24_20-22-38_260595134347_rgbf000084-resize_1-target.png,125,4.408,6,3803,126,meters,jsons/VE125_randls_21.json,853791,1016387,43,Man
106,721406,DepthScenes,duration_manipulation_targetAtFixation,jsons/VE125_randls_21.json,http://54.235.29.9/FacialAge/BNav_EC2/DepthDuration/v2_depth_duration_MTurk/v2_DepthDuration_HTML.html#139,139,1366,625,1366,768,8-21-2022,7-10-10,107,depth_duration_stimuli/002103_2014-06-25_20-00-40_260595134347_rgbf000049-resize_0/002103_2014-06-25_20-00-40_260595134347_rgbf000049-resize_0-target.png,125,4.105,7,3428,125,meters,jsons/VE125_randls_21.json,853791,1016387,43,Man
107,721406,DepthScenes,duration_manipulation_targetAtFixation,jsons/VE125_randls_21.json,http://54.235.29.9/FacialAge/BNav_EC2/DepthDuration/v2_depth_duration_MTurk/v2_DepthDuration_HTML.html#139,139,1366,625,1366,768,8-21-2022,7-10-10,108,depth_duration_stimuli/001158_2014-06-17_15-32-16_260595134347_rgbf000138-resize_2/001158_2014-06-17_15-32-16_260595134347_rgbf000138-resize_2-target.png,125,4.5315,8,3876,125,meters,jsons/VE125_randls_21.json,853791,1016387,43,Man
108,721406,DepthScenes,duration_manipulation_targetAtFixation,jsons/VE125_randls_21.json,http://54.235.29.9/FacialAge/BNav_EC2/DepthDuration/v2_depth_duration_MTurk/v2_DepthDuration_HTML.html#139,139,1366,625,1366,768,8-21-2022,7-10-10,109,depth_duration_stimuli/000556_2014-06-09_22-42-56_260595134347_rgbf000214-resize_1/000556_2014-06-09_22-42-56_260595134347_rgbf000214-resize_1-target.png,125,4.8415,0,3419,125,meters,jsons/VE125_randls_21.json,853791,1016387,43,Man
109,721406,DepthScenes,duration_manipulation_targetAtFixation,jsons/VE125_randls_21.json,http://54.235.29.9/FacialAge/BNav_EC2/DepthDuration/v2_depth_duration_MTurk/v2_DepthDuration_HTML.html#139,139,1366,625,1366,768,8-21-2022,7-10-10,110,depth_duration_stimuli/002549_2014-06-24_13-41-39_094959634447_rgbf000022-resize_3/002549_2014-06-24_13-41-39_094959634447_rgbf000022-resize_3-target.png,125,1.476,0,4690,125,meters,jsons/VE125_randls_21.json,853791,1016387,43,Man
110,721406,DepthScenes,duration_manipulation_targetAtFixation,jsons/VE125_randls_21.json,http://54.235.29.9/FacialAge/BNav_EC2/DepthDuration/v2_depth_duration_MTurk/v2_DepthDuration_HTML.html#139,139,1366,625,1366,768,8-21-2022,7-10-10,111,depth_duration_stimuli/002750_2014-06-22_19-08-03_094959634447_rgbf000094-resize_4/002750_2014-06-22_19-08-03_094959634447_rgbf000094-resize_4-target.png,125,2.354,8,44512,190,meters,jsons/VE125_randls_21.json,853791,1016387,43,Man
111,721406,DepthScenes,duration_manipulation_targetAtFixation,jsons/VE125_randls_21.json,http://54.235.29.9/FacialAge/BNav_EC2/DepthDuration/v2_depth_duration_MTurk/v2_DepthDuration_HTML.html#139,139,1366,625,1366,768,8-21-2022,7-10-10,112,depth_duration_stimuli/001570_2014-06-20_17-21-09_260595134347_rgbf000135-resize_4/001570_2014-06-20_17-21-09_260595134347_rgbf000135-resize_4-target.png,125,4.467,8,3920,126,meters,jsons/VE125_randls_21.json,853791,1016387,43,Man
112,721406,DepthScenes,duration_manipulation_targetAtFixation,jsons/VE125_randls_21.json,http://54.235.29.9/FacialAge/BNav_EC2/DepthDuration/v2_depth_duration_MTurk/v2_DepthDuration_HTML.html#139,139,1366,625,1366,768,8-21-2022,7-10-10,113,depth_duration_stimuli/001392_2014-06-19_16-07-59_260595134347_rgbf000046-resize_1/001392_2014-06-19_16-07-59_260595134347_rgbf000046-resize_1-target.png,125,4.135,0,3227,125,meters,jsons/VE125_randls_21.json,853791,1016387,43,Man
113,721406,DepthScenes,duration_manipulation_targetAtFixation,jsons/VE125_randls_21.json,http://54.235.29.9/FacialAge/BNav_EC2/DepthDuration/v2_depth_duration_MTurk/v2_DepthDuration_HTML.html#139,139,1366,625,1366,768,8-21-2022,7-10-10,114,depth_duration_stimuli/001810_2014-06-26_20-51-35_260595134347_rgbf000040-resize_3/001810_2014-06-26_20-51-35_260595134347_rgbf000040-resize_3-target.png,125,2.2525,4,4115,126,meters,jsons/VE125_randls_21.json,853791,1016387,43,Man
114,721406,DepthScenes,duration_manipulation_targetAtFixation,jsons/VE125_randls_21.json,http://54.235.29.9/FacialAge/BNav_EC2/DepthDuration/v2_depth_duration_MTurk/v2_DepthDuration_HTML.html#139,139,1366,625,1366,768,8-21-2022,7-10-10,115,depth_duration_stimuli/003010_2014-06-15_12-54-35_094959634447_rgbf000112-resize_0/003010_2014-06-15_12-54-35_094959634447_rgbf000112-resize_0-target.png,125,3.1185,6,3589,126,meters,jsons/VE125_randls_21.json,853791,1016387,43,Man
115,721406,DepthScenes,duration_manipulation_targetAtFixation,jsons/VE125_randls_21.json,http://54.235.29.9/FacialAge/BNav_EC2/DepthDuration/v2_depth_duration_MTurk/v2_DepthDuration_HTML.html#139,139,1366,625,1366,768,8-21-2022,7-10-10,116,depth_duration_stimuli/001170_2014-06-17_15-43-44_260595134347_rgbf000096-resize_6/001170_2014-06-17_15-43-44_260595134347_rgbf000096-resize-original.jpg,125,1.1909999999999998,0,3535,125,meters,jsons/VE125_randls_21.json,853791,1016387,43,Man
116,721406,DepthScenes,duration_manipulation_targetAtFixation,jsons/VE125_randls_21.json,http://54.235.29.9/FacialAge/BNav_EC2/DepthDuration/v2_depth_duration_MTurk/v2_DepthDuration_HTML.html#139,139,1366,625,1366,768,8-21-2022,7-10-10,117,depth_duration_stimuli/003621_2014-05-23_18-06-08_094959634447_rgbf000101-resize_1/003621_2014-05-23_18-06-08_094959634447_rgbf000101-resize_1-target.png,125,3.9835,7,4249,125,meters,jsons/VE125_randls_21.json,853791,1016387,43,Man
117,721406,DepthScenes,duration_manipulation_targetAtFixation,jsons/VE125_randls_21.json,http://54.235.29.9/FacialAge/BNav_EC2/DepthDuration/v2_depth_duration_MTurk/v2_DepthDuration_HTML.html#139,139,1366,625,1366,768,8-21-2022,7-10-10,118,depth_duration_stimuli/001584_2014-06-20_11-07-43_260595134347_rgbf000002-resize_1/001584_2014-06-20_11-07-43_260595134347_rgbf000002-resize_1-target.png,125,3.53,8,3821,125,meters,jsons/VE125_randls_21.json,853791,1016387,43,Man
118,721406,DepthScenes,duration_manipulation_targetAtFixation,jsons/VE125_randls_21.json,http://54.235.29.9/FacialAge/BNav_EC2/DepthDuration/v2_depth_duration_MTurk/v2_DepthDuration_HTML.html#139,139,1366,625,1366,768,8-21-2022,7-10-10,119,depth_duration_stimuli/002663_2014-06-13_15-50-26_094959634447_rgbf000075-resize_1/002663_2014-06-13_15-50-26_094959634447_rgbf000075-resize_1-target.png,125,4.7495,8,4681,126,meters,jsons/VE125_randls_21.json,853791,1016387,43,Man
119,721406,DepthScenes,duration_manipulation_targetAtFixation,jsons/VE125_randls_21.json,http://54.235.29.9/FacialAge/BNav_EC2/DepthDuration/v2_depth_duration_MTurk/v2_DepthDuration_HTML.html#139,139,1366,625,1366,768,8-21-2022,7-10-10,120,depth_duration_stimuli/000409_2014-06-04_19-23-33_260595134347_rgbf000067-resize_0/000409_2014-06-04_19-23-33_260595134347_rgbf000067-resize_0-target.png,125,3.7335,9,3380,125,meters,jsons/VE125_randls_21.json,853791,1016387,43,Man
120,721406,DepthScenes,duration_manipulation_targetAtFixation,jsons/VE125_randls_21.json,http://54.235.29.9/FacialAge/BNav_EC2/DepthDuration/v2_depth_duration_MTurk/v2_DepthDuration_HTML.html#139,139,1366,625,1366,768,8-21-2022,7-10-10,121,depth_duration_stimuli/000917_2014-06-09_22-45-29_260595134347_rgbf000149-resize_3/000917_2014-06-09_22-45-29_260595134347_rgbf000149-resize_3-target.png,125,4.1865,8,3812,126,meters,jsons/VE125_randls_21.json,853791,1016387,43,Man
121,721406,DepthScenes,duration_manipulation_targetAtFixation,jsons/VE125_randls_21.json,http://54.235.29.9/FacialAge/BNav_EC2/DepthDuration/v2_depth_duration_MTurk/v2_DepthDuration_HTML.html#139,139,1366,625,1366,768,8-21-2022,7-10-10,122,depth_duration_stimuli/002323_2014-06-28_20-01-54_260595134347_rgbf000051-resize_4/002323_2014-06-28_20-01-54_260595134347_rgbf000051-resize_4-target.png,125,3.7310000000000003,0,3353,124,meters,jsons/VE125_randls_21.json,853791,1016387,43,Man
122,721406,DepthScenes,duration_manipulation_targetAtFixation,jsons/VE125_randls_21.json,http://54.235.29.9/FacialAge/BNav_EC2/DepthDuration/v2_depth_duration_MTurk/v2_DepthDuration_HTML.html#139,139,1366,625,1366,768,8-21-2022,7-10-10,123,depth_duration_stimuli/001167_2014-06-17_15-38-07_260595134347_rgbf000108-resize_0/001167_2014-06-17_15-38-07_260595134347_rgbf000108-resize_0-target.png,125,1.8505,3,3516,125,meters,jsons/VE125_randls_21.json,853791,1016387,43,Man
123,721406,DepthScenes,duration_manipulation_targetAtFixation,jsons/VE125_randls_21.json,http://54.235.29.9/FacialAge/BNav_EC2/DepthDuration/v2_depth_duration_MTurk/v2_DepthDuration_HTML.html#139,139,1366,625,1366,768,8-21-2022,7-10-10,124,depth_duration_stimuli/003587_2014-05-23_16-48-02_094959634447_rgbf002384-resize_2/003587_2014-05-23_16-48-02_094959634447_rgbf002384-resize_2-target.png,125,1.357,4,3793,125,meters,jsons/VE125_randls_21.json,853791,1016387,43,Man
124,721406,DepthScenes,duration_manipulation_targetAtFixation,jsons/VE125_randls_21.json,http://54.235.29.9/FacialAge/BNav_EC2/DepthDuration/v2_depth_duration_MTurk/v2_DepthDuration_HTML.html#139,139,1366,625,1366,768,8-21-2022,7-10-10,125,depth_duration_stimuli/002748_2014-06-22_19-07-22_094959634447_rgbf000078-resize_1/002748_2014-06-22_19-07-22_094959634447_rgbf000078-resize_1-target.png,125,4.6705,7,4606,125,meters,jsons/VE125_randls_21.json,853791,1016387,43,Man
125,721406,DepthScenes,duration_manipulation_targetAtFixation,jsons/VE125_randls_21.json,http://54.235.29.9/FacialAge/BNav_EC2/DepthDuration/v2_depth_duration_MTurk/v2_DepthDuration_HTML.html#139,139,1366,625,1366,768,8-21-2022,7-10-10,126,depth_duration_stimuli/002995_2014-06-15_12-31-26_094959634447_rgbf000150-resize_1/002995_2014-06-15_12-31-26_094959634447_rgbf000150-resize_1-target.png,125,3.8360000000000003,8,4010,124,meters,jsons/VE125_randls_21.json,853791,1016387,43,Man
126,721406,DepthScenes,duration_manipulation_targetAtFixation,jsons/VE125_randls_21.json,http://54.235.29.9/FacialAge/BNav_EC2/DepthDuration/v2_depth_duration_MTurk/v2_DepthDuration_HTML.html#139,139,1366,625,1366,768,8-21-2022,7-10-10,127,depth_duration_stimuli/002989_2014-06-15_12-25-03_094959634447_rgbf000150-resize_3/002989_2014-06-15_12-25-03_094959634447_rgbf000150-resize_3-target.png,125,4.1975,9,4106,125,meters,jsons/VE125_randls_21.json,853791,1016387,43,Man
127,721406,DepthScenes,duration_manipulation_targetAtFixation,jsons/VE125_randls_21.json,http://54.235.29.9/FacialAge/BNav_EC2/DepthDuration/v2_depth_duration_MTurk/v2_DepthDuration_HTML.html#139,139,1366,625,1366,768,8-21-2022,7-10-10,128,depth_duration_stimuli/000866_2014-06-09_20-45-42_260595134347_rgbf000139-resize_1/000866_2014-06-09_20-45-42_260595134347_rgbf000139-resize_1-target.png,125,3.2155,5,4584,125,meters,jsons/VE125_randls_21.json,853791,1016387,43,Man
128,721406,DepthScenes,duration_manipulation_targetAtFixation,jsons/VE125_randls_21.json,http://54.235.29.9/FacialAge/BNav_EC2/DepthDuration/v2_depth_duration_MTurk/v2_DepthDuration_HTML.html#139,139,1366,625,1366,768,8-21-2022,7-10-10,129,depth_duration_stimuli/001029_2014-06-08_13-17-57_260595134347_rgbf000065-resize_1/001029_2014-06-08_13-17-57_260595134347_rgbf000065-resize_1-target.png,125,3.0835,5,4103,126,meters,jsons/VE125_randls_21.json,853791,1016387,43,Man
129,721406,DepthScenes,duration_manipulation_targetAtFixation,jsons/VE125_randls_21.json,http://54.235.29.9/FacialAge/BNav_EC2/DepthDuration/v2_depth_duration_MTurk/v2_DepthDuration_HTML.html#139,139,1366,625,1366,768,8-21-2022,7-10-10,130,depth_duration_stimuli/000677_2014-06-08_23-10-32_260595134347_rgbf000158-resize_6/000677_2014-06-08_23-10-32_260595134347_rgbf000158-resize_6-target.png,125,3.556,7,3411,124,meters,jsons/VE125_randls_21.json,853791,1016387,43,Man
130,721406,DepthScenes,duration_manipulation_targetAtFixation,jsons/VE125_randls_21.json,http://54.235.29.9/FacialAge/BNav_EC2/DepthDuration/v2_depth_duration_MTurk/v2_DepthDuration_HTML.html#139,139,1366,625,1366,768,8-21-2022,7-10-10,131,depth_duration_stimuli/000906_2014-06-08_13-35-43_260595134347_rgbf000155-resize_1/000906_2014-06-08_13-35-43_260595134347_rgbf000155-resize_1-target.png,125,2.8489999999999998,8,3744,126,meters,jsons/VE125_randls_21.json,853791,1016387,43,Man
131,721406,DepthScenes,duration_manipulation_targetAtFixation,jsons/VE125_randls_21.json,http://54.235.29.9/FacialAge/BNav_EC2/DepthDuration/v2_depth_duration_MTurk/v2_DepthDuration_HTML.html#139,139,1366,625,1366,768,8-21-2022,7-10-10,132,depth_duration_stimuli/002805_2014-06-22_19-54-03_094959634447_rgbf000079-resize_1/002805_2014-06-22_19-54-03_094959634447_rgbf000079-resize_1-target.png,125,3.1439999999999997,9,3316,125,meters,jsons/VE125_randls_21.json,853791,1016387,43,Man
132,721406,DepthScenes,duration_manipulation_targetAtFixation,jsons/VE125_randls_21.json,http://54.235.29.9/FacialAge/BNav_EC2/DepthDuration/v2_depth_duration_MTurk/v2_DepthDuration_HTML.html#139,139,1366,625,1366,768,8-21-2022,7-10-10,133,depth_duration_stimuli/001417_2014-06-19_16-25-36_260595134347_rgbf000115-resize_5/001417_2014-06-19_16-25-36_260595134347_rgbf000115-resize_5-target.png,125,4.6255,4,4061,126,meters,jsons/VE125_randls_21.json,853791,1016387,43,Man
133,721406,DepthScenes,duration_manipulation_targetAtFixation,jsons/VE125_randls_21.json,http://54.235.29.9/FacialAge/BNav_EC2/DepthDuration/v2_depth_duration_MTurk/v2_DepthDuration_HTML.html#139,139,1366,625,1366,768,8-21-2022,7-10-10,134,depth_duration_stimuli/003081_2014-06-15_15-19-16_094959634447_rgbf000150-resize_1/003081_2014-06-15_15-19-16_094959634447_rgbf000150-resize_1-target.png,125,3.9125,5,3854,126,meters,jsons/VE125_randls_21.json,853791,1016387,43,Man
134,721406,DepthScenes,duration_manipulation_targetAtFixation,jsons/VE125_randls_21.json,http://54.235.29.9/FacialAge/BNav_EC2/DepthDuration/v2_depth_duration_MTurk/v2_DepthDuration_HTML.html#139,139,1366,625,1366,768,8-21-2022,7-10-10,135,depth_duration_stimuli/002072_2014-06-24_21-48-06_260595134347_rgbf000115-resize_0/002072_2014-06-24_21-48-06_260595134347_rgbf000115-resize-original.jpg,125,4.702,3,3980,124,meters,jsons/VE125_randls_21.json,853791,1016387,43,Man
135,721406,DepthScenes,duration_manipulation_targetAtFixation,jsons/VE125_randls_21.json,http://54.235.29.9/FacialAge/BNav_EC2/DepthDuration/v2_depth_duration_MTurk/v2_DepthDuration_HTML.html#139,139,1366,625,1366,768,8-21-2022,7-10-10,136,depth_duration_stimuli/000486_2014-06-09_20-47-20_260595134347_rgbf000143-resize_2/000486_2014-06-09_20-47-20_260595134347_rgbf000143-resize_2-target.png,125,4.8325,6,4478,123,meters,jsons/VE125_randls_21.json,853791,1016387,43,Man
136,721406,DepthScenes,duration_manipulation_targetAtFixation,jsons/VE125_randls_21.json,http://54.235.29.9/FacialAge/BNav_EC2/DepthDuration/v2_depth_duration_MTurk/v2_DepthDuration_HTML.html#139,139,1366,625,1366,768,8-21-2022,7-10-10,137,depth_duration_stimuli/003083_2014-06-15_15-21-03_094959634447_rgbf000063-resize_1/003083_2014-06-15_15-21-03_094959634447_rgbf000063-resize_1-target.png,125,4.1405,6,5103,124,meters,jsons/VE125_randls_21.json,853791,1016387,43,Man
137,721406,DepthScenes,duration_manipulation_targetAtFixation,jsons/VE125_randls_21.json,http://54.235.29.9/FacialAge/BNav_EC2/DepthDuration/v2_depth_duration_MTurk/v2_DepthDuration_HTML.html#139,139,1366,625,1366,768,8-21-2022,7-10-10,138,depth_duration_stimuli/002043_2014-06-24_20-29-38_260595134347_rgbf000039-resize_4/002043_2014-06-24_20-29-38_260595134347_rgbf000039-resize_4-target.png,125,2.8435,6,3892,126,meters,jsons/VE125_randls_21.json,853791,1016387,43,Man
138,721406,DepthScenes,duration_manipulation_targetAtFixation,jsons/VE125_randls_21.json,http://54.235.29.9/FacialAge/BNav_EC2/DepthDuration/v2_depth_duration_MTurk/v2_DepthDuration_HTML.html#139,139,1366,625,1366,768,8-21-2022,7-10-10,139,depth_duration_stimuli/003048_2014-06-15_13-49-43_094959634447_rgbf000150-resize_1/003048_2014-06-15_13-49-43_094959634447_rgbf000150-resize_1-target.png,125,4.0035,4,5961,124,meters,jsons/VE125_randls_21.json,853791,1016387,43,Man
139,721406,DepthScenes,duration_manipulation_targetAtFixation,jsons/VE125_randls_21.json,http://54.235.29.9/FacialAge/BNav_EC2/DepthDuration/v2_depth_duration_MTurk/v2_DepthDuration_HTML.html#139,139,1366,625,1366,768,8-21-2022,7-10-10,140,depth_duration_stimuli/002213_2014-06-28_18-37-58_260595134347_rgbf000055-resize_1/002213_2014-06-28_18-37-58_260595134347_rgbf000055-resize_1-target.png,125,3.62,3,4267,124,meters,jsons/VE125_randls_21.json,853791,1016387,43,Man
140,721406,DepthScenes,duration_manipulation_targetAtFixation,jsons/VE125_randls_21.json,http://54.235.29.9/FacialAge/BNav_EC2/DepthDuration/v2_depth_duration_MTurk/v2_DepthDuration_HTML.html#139,139,1366,625,1366,768,8-21-2022,7-10-10,141,depth_duration_stimuli/000691_2014-06-08_13-08-50_260595134347_rgbf000132-resize_3/000691_2014-06-08_13-08-50_260595134347_rgbf000132-resize_3-target.png,125,4.1530000000000005,5,3524,126,meters,jsons/VE125_randls_21.json,853791,1016387,43,Man
141,721406,DepthScenes,duration_manipulation_targetAtFixation,jsons/VE125_randls_21.json,http://54.235.29.9/FacialAge/BNav_EC2/DepthDuration/v2_depth_duration_MTurk/v2_DepthDuration_HTML.html#139,139,1366,625,1366,768,8-21-2022,7-10-10,142,depth_duration_stimuli/001806_2014-06-26_20-50-20_260595134347_rgbf000091-resize_1/001806_2014-06-26_20-50-20_260595134347_rgbf000091-resize_1-target.png,125,2.7305,6,4028,126,meters,jsons/VE125_randls_21.json,853791,1016387,43,Man
142,721406,DepthScenes,duration_manipulation_targetAtFixation,jsons/VE125_randls_21.json,http://54.235.29.9/FacialAge/BNav_EC2/DepthDuration/v2_depth_duration_MTurk/v2_DepthDuration_HTML.html#139,139,1366,625,1366,768,8-21-2022,7-10-10,143,depth_duration_stimuli/001617_2014-06-20_11-35-32_260595134347_rgbf000066-resize_1/001617_2014-06-20_11-35-32_260595134347_rgbf000066-resize_1-target.png,125,3.7910000000000004,0,3367,125,meters,jsons/VE125_randls_21.json,853791,1016387,43,Man
143,721406,DepthScenes,duration_manipulation_targetAtFixation,jsons/VE125_randls_21.json,http://54.235.29.9/FacialAge/BNav_EC2/DepthDuration/v2_depth_duration_MTurk/v2_DepthDuration_HTML.html#139,139,1366,625,1366,768,8-21-2022,7-10-10,144,depth_duration_stimuli/000506_2014-06-08_23-21-00_260595134347_rgbf000070-resize_7/000506_2014-06-08_23-21-00_260595134347_rgbf000070-resize_7-target.png,125,4.0585,8,3811,124,meters,jsons/VE125_randls_21.json,853791,1016387,43,Man
144,721406,DepthScenes,duration_manipulation_targetAtFixation,jsons/VE125_randls_21.json,http://54.235.29.9/FacialAge/BNav_EC2/DepthDuration/v2_depth_duration_MTurk/v2_DepthDuration_HTML.html#139,139,1366,625,1366,768,8-21-2022,7-10-10,145,depth_duration_stimuli/003079_2014-06-15_15-18-20_094959634447_rgbf000152-resize_8/003079_2014-06-15_15-18-20_094959634447_rgbf000152-resize_8-target.png,125,2.8775,9,3326,121,meters,jsons/VE125_randls_21.json,853791,1016387,43,Man
145,721406,DepthScenes,duration_manipulation_targetAtFixation,jsons/VE125_randls_21.json,http://54.235.29.9/FacialAge/BNav_EC2/DepthDuration/v2_depth_duration_MTurk/v2_DepthDuration_HTML.html#139,139,1366,625,1366,768,8-21-2022,7-10-10,146,depth_duration_stimuli/001498_2014-06-19_17-45-14_260595134347_rgbf000129-resize_4/001498_2014-06-19_17-45-14_260595134347_rgbf000129-resize-original.jpg,125,1.4075,4,4308,126,meters,jsons/VE125_randls_21.json,853791,1016387,43,Man
146,721406,DepthScenes,duration_manipulation_targetAtFixation,jsons/VE125_randls_21.json,http://54.235.29.9/FacialAge/BNav_EC2/DepthDuration/v2_depth_duration_MTurk/v2_DepthDuration_HTML.html#139,139,1366,625,1366,768,8-21-2022,7-10-10,147,depth_duration_stimuli/002784_2014-06-22_19-26-30_094959634447_rgbf000083-resize_3/002784_2014-06-22_19-26-30_094959634447_rgbf000083-resize_3-target.png,125,1.8046666666667,3,4282,125,meters,jsons/VE125_randls_21.json,853791,1016387,43,Man
147,721406,DepthScenes,duration_manipulation_targetAtFixation,jsons/VE125_randls_21.json,http://54.235.29.9/FacialAge/BNav_EC2/DepthDuration/v2_depth_duration_MTurk/v2_DepthDuration_HTML.html#139,139,1366,625,1366,768,8-21-2022,7-10-10,148,depth_duration_stimuli/001100_2014-06-15_17-46-26_260595134347_rgbf000225-resize_2/001100_2014-06-15_17-46-26_260595134347_rgbf000225-resize_2-target.png,125,2.24,0,4376,126,meters,jsons/VE125_randls_21.json,853791,1016387,43,Man
148,721406,DepthScenes,duration_manipulation_targetAtFixation,jsons/VE125_randls_21.json,http://54.235.29.9/FacialAge/BNav_EC2/DepthDuration/v2_depth_duration_MTurk/v2_DepthDuration_HTML.html#139,139,1366,625,1366,768,8-21-2022,7-10-10,149,depth_duration_stimuli/000692_2014-06-08_13-09-42_260595134347_rgbf000199-resize_2/000692_2014-06-08_13-09-42_260595134347_rgbf000199-resize_2-target.png,125,3.661,3,3728,125,meters,jsons/VE125_randls_21.json,853791,1016387,43,Man
149,721406,DepthScenes,duration_manipulation_targetAtFixation,jsons/VE125_randls_21.json,http://54.235.29.9/FacialAge/BNav_EC2/DepthDuration/v2_depth_duration_MTurk/v2_DepthDuration_HTML.html#139,139,1366,625,1366,768,8-21-2022,7-10-10,150,depth_duration_stimuli/001094_2014-06-15_17-36-00_260595134347_rgbf000205-resize_0/001094_2014-06-15_17-36-00_260595134347_rgbf000205-resize_0-target.png,125,4.2175,0,3936,124,meters,jsons/VE125_randls_21.json,853791,1016387,43,Man
150,721406,DepthScenes,duration_manipulation_targetAtFixation,jsons/VE125_randls_21.json,http://54.235.29.9/FacialAge/BNav_EC2/DepthDuration/v2_depth_duration_MTurk/v2_DepthDuration_HTML.html#139,139,1366,625,1366,768,8-21-2022,7-10-10,151,depth_duration_stimuli/001199_2014-06-17_16-03-48_260595134347_rgbf000077-resize_0/001199_2014-06-17_16-03-48_260595134347_rgbf000077-resize_0-target.png,125,3.4375,4,4019,125,meters,jsons/VE125_randls_21.json,853791,1016387,43,Man
151,721406,DepthScenes,duration_manipulation_targetAtFixation,jsons/VE125_randls_21.json,http://54.235.29.9/FacialAge/BNav_EC2/DepthDuration/v2_depth_duration_MTurk/v2_DepthDuration_HTML.html#139,139,1366,625,1366,768,8-21-2022,7-10-10,152,depth_duration_stimuli/000502_2014-06-08_23-02-32_260595134347_rgbf000063-resize_4/000502_2014-06-08_23-02-32_260595134347_rgbf000063-resize_4-target.png,125,2.431,0,3436,125,meters,jsons/VE125_randls_21.json,853791,1016387,43,Man
152,721406,DepthScenes,duration_manipulation_targetAtFixation,jsons/VE125_randls_21.json,http://54.235.29.9/FacialAge/BNav_EC2/DepthDuration/v2_depth_duration_MTurk/v2_DepthDuration_HTML.html#139,139,1366,625,1366,768,8-21-2022,7-10-10,153,depth_duration_stimuli/002630_2014-06-24_14-47-50_094959634447_rgbf000055-resize_1/002630_2014-06-24_14-47-50_094959634447_rgbf000055-resize_1-target.png,125,3.0095,3,4036,125,meters,jsons/VE125_randls_21.json,853791,1016387,43,Man
153,721406,DepthScenes,duration_manipulation_targetAtFixation,jsons/VE125_randls_21.json,http://54.235.29.9/FacialAge/BNav_EC2/DepthDuration/v2_depth_duration_MTurk/v2_DepthDuration_HTML.html#139,139,1366,625,1366,768,8-21-2022,7-10-10,154,depth_duration_stimuli/002758_2014-06-22_19-11-20_094959634447_rgbf000128-resize_1/002758_2014-06-22_19-11-20_094959634447_rgbf000128-resize_1-target.png,125,2.555,4,3723,125,meters,jsons/VE125_randls_21.json,853791,1016387,43,Man
154,721406,DepthScenes,duration_manipulation_targetAtFixation,jsons/VE125_randls_21.json,http://54.235.29.9/FacialAge/BNav_EC2/DepthDuration/v2_depth_duration_MTurk/v2_DepthDuration_HTML.html#139,139,1366,625,1366,768,8-21-2022,7-10-10,155,depth_duration_stimuli/000810_2014-06-08_17-20-01_260595134347_rgbf000105-resize_0/000810_2014-06-08_17-20-01_260595134347_rgbf000105-resize_0-target.png,125,1.4865,3,3988,126,meters,jsons/VE125_randls_21.json,853791,1016387,43,Man
155,721406,DepthScenes,duration_manipulation_targetAtFixation,jsons/VE125_randls_21.json,http://54.235.29.9/FacialAge/BNav_EC2/DepthDuration/v2_depth_duration_MTurk/v2_DepthDuration_HTML.html#139,139,1366,625,1366,768,8-21-2022,7-10-10,156,depth_duration_stimuli/001214_2014-06-17_16-13-55_260595134347_rgbf000111-resize_0/001214_2014-06-17_16-13-55_260595134347_rgbf000111-resize_0-target.png,125,2.6505,4,5163,125,meters,jsons/VE125_randls_21.json,853791,1016387,43,Man
156,721406,DepthScenes,duration_manipulation_targetAtFixation,jsons/VE125_randls_21.json,http://54.235.29.9/FacialAge/BNav_EC2/DepthDuration/v2_depth_duration_MTurk/v2_DepthDuration_HTML.html#139,139,1366,625,1366,768,8-21-2022,7-10-10,157,depth_duration_stimuli/000929_2014-06-09_16-33-19_260595134347_rgbf000139-resize_0/000929_2014-06-09_16-33-19_260595134347_rgbf000139-resize_0-target.png,125,2.8680000000000003,2,5404,125,meters,jsons/VE125_randls_21.json,853791,1016387,43,Man
157,721406,DepthScenes,duration_manipulation_targetAtFixation,jsons/VE125_randls_21.json,http://54.235.29.9/FacialAge/BNav_EC2/DepthDuration/v2_depth_duration_MTurk/v2_DepthDuration_HTML.html#139,139,1366,625,1366,768,8-21-2022,7-10-10,158,depth_duration_stimuli/000457_2014-06-08_16-52-43_260595134347_rgbf000199-resize_1/000457_2014-06-08_16-52-43_260595134347_rgbf000199-resize_1-target.png,125,3.6489999999999996,4,4011,125,meters,jsons/VE125_randls_21.json,853791,1016387,43,Man
158,721406,DepthScenes,duration_manipulation_targetAtFixation,jsons/VE125_randls_21.json,http://54.235.29.9/FacialAge/BNav_EC2/DepthDuration/v2_depth_duration_MTurk/v2_DepthDuration_HTML.html#139,139,1366,625,1366,768,8-21-2022,7-10-10,159,depth_duration_stimuli/002279_2014-06-28_18-55-32_260595134347_rgbf000040-resize_5/002279_2014-06-28_18-55-32_260595134347_rgbf000040-resize_5-target.png,125,1.5043333333333,5,4354,125,meters,jsons/VE125_randls_21.json,853791,1016387,43,Man
159,721406,DepthScenes,duration_manipulation_targetAtFixation,jsons/VE125_randls_21.json,http://54.235.29.9/FacialAge/BNav_EC2/DepthDuration/v2_depth_duration_MTurk/v2_DepthDuration_HTML.html#139,139,1366,625,1366,768,8-21-2022,7-10-10,160,depth_duration_stimuli/000635_2014-06-08_16-38-42_260595134347_rgbf000106-resize_1/000635_2014-06-08_16-38-42_260595134347_rgbf000106-resize_1-target.png,125,2.074,6,3639,125,meters,jsons/VE125_randls_21.json,853791,1016387,43,Man
160,721406,DepthScenes,duration_manipulation_targetAtFixation,jsons/VE125_randls_21.json,http://54.235.29.9/FacialAge/BNav_EC2/DepthDuration/v2_depth_duration_MTurk/v2_DepthDuration_HTML.html#139,139,1366,625,1366,768,8-21-2022,7-10-10,161,depth_duration_stimuli/000414_2014-06-04_19-49-13_260595134347_rgbf000044-resize_0/000414_2014-06-04_19-49-13_260595134347_rgbf000044-resize_0-target.png,125,4.329,7,3737,126,meters,jsons/VE125_randls_21.json,853791,1016387,43,Man
161,721406,DepthScenes,duration_manipulation_targetAtFixation,jsons/VE125_randls_21.json,http://54.235.29.9/FacialAge/BNav_EC2/DepthDuration/v2_depth_duration_MTurk/v2_DepthDuration_HTML.html#139,139,1366,625,1366,768,8-21-2022,7-10-10,162,depth_duration_stimuli/003129_2014-05-12_10-48-10_094959634447_rgbf000100-resize_0/003129_2014-05-12_10-48-10_094959634447_rgbf000100-resize_0-target.png,125,4.9305,8,3666,126,meters,jsons/VE125_randls_21.json,853791,1016387,43,Man
162,721406,DepthScenes,duration_manipulation_targetAtFixation,jsons/VE125_randls_21.json,http://54.235.29.9/FacialAge/BNav_EC2/DepthDuration/v2_depth_duration_MTurk/v2_DepthDuration_HTML.html#139,139,1366,625,1366,768,8-21-2022,7-10-10,163,depth_duration_stimuli/000522_2014-06-08_13-35-06_260595134347_rgbf000244-resize_1/000522_2014-06-08_13-35-06_260595134347_rgbf000244-resize_1-target.png,125,2.3715,4,3810,125,meters,jsons/VE125_randls_21.json,853791,1016387,43,Man
163,721406,DepthScenes,duration_manipulation_targetAtFixation,jsons/VE125_randls_21.json,http://54.235.29.9/FacialAge/BNav_EC2/DepthDuration/v2_depth_duration_MTurk/v2_DepthDuration_HTML.html#139,139,1366,625,1366,768,8-21-2022,7-10-10,164,depth_duration_stimuli/002949_2014-06-26_15-57-42_094959634447_rgbf000079-resize_1/002949_2014-06-26_15-57-42_094959634447_rgbf000079-resize_1-target.png,125,1.8915,6,3356,126,meters,jsons/VE125_randls_21.json,853791,1016387,43,Man
