,subjID,experimentName,versionName,sequenceName,url,selected_row,windowWidth,windowHeight,screenWidth,screenHeight,startDate,startTime,trial,stimulus,duration,actual_depth,depth_estimate,trial_RT,log_sceneDuration,unitSelection,seq_filepath,experimentTime,totalTime,age,gender
0,723081,DepthScenes,duration_manipulation_targetAtFixation,jsons/v1_VE250_randls_5.json,http://54.235.29.9/FacialAge/BNav_EC2/DepthDuration/v2_depth_duration_MTurk/v2_DepthDuration_HTML.html#8,8,1536,722,1536,864,8-20-2022,11-0-7,1,depth_duration_stimuli/002057_2014-06-24_21-00-13_260595134347_rgbf000120-resize_1/002057_2014-06-24_21-00-13_260595134347_rgbf000120-resize_1-target.png,250,2.967,7,4425,267,feet,jsons/v1_VE250_randls_5.json,525358,1201903,27,Man
1,723081,DepthScenes,duration_manipulation_targetAtFixation,jsons/v1_VE250_randls_5.json,http://54.235.29.9/FacialAge/BNav_EC2/DepthDuration/v2_depth_duration_MTurk/v2_DepthDuration_HTML.html#8,8,1536,722,1536,864,8-20-2022,11-0-7,2,depth_duration_stimuli/000709_2014-06-08_13-51-55_260595134347_rgbf000068-resize_3/000709_2014-06-08_13-51-55_260595134347_rgbf000068-resize_3-target.png,250,1.8030000000000002,4,13100,253,feet,jsons/v1_VE250_randls_5.json,525358,1201903,27,Man
2,723081,DepthScenes,duration_manipulation_targetAtFixation,jsons/v1_VE250_randls_5.json,http://54.235.29.9/FacialAge/BNav_EC2/DepthDuration/v2_depth_duration_MTurk/v2_DepthDuration_HTML.html#8,8,1536,722,1536,864,8-20-2022,11-0-7,3,depth_duration_stimuli/000692_2014-06-08_13-09-42_260595134347_rgbf000199-resize_2/000692_2014-06-08_13-09-42_260595134347_rgbf000199-resize_2-target.png,250,3.661,10,3144,239,feet,jsons/v1_VE250_randls_5.json,525358,1201903,27,Man
3,723081,DepthScenes,duration_manipulation_targetAtFixation,jsons/v1_VE250_randls_5.json,http://54.235.29.9/FacialAge/BNav_EC2/DepthDuration/v2_depth_duration_MTurk/v2_DepthDuration_HTML.html#8,8,1536,722,1536,864,8-20-2022,11-0-7,4,depth_duration_stimuli/001094_2014-06-15_17-36-00_260595134347_rgbf000205-resize_0/001094_2014-06-15_17-36-00_260595134347_rgbf000205-resize_0-target.png,250,4.2175,5,3561,249,feet,jsons/v1_VE250_randls_5.json,525358,1201903,27,Man
4,723081,DepthScenes,duration_manipulation_targetAtFixation,jsons/v1_VE250_randls_5.json,http://54.235.29.9/FacialAge/BNav_EC2/DepthDuration/v2_depth_duration_MTurk/v2_DepthDuration_HTML.html#8,8,1536,722,1536,864,8-20-2022,11-0-7,5,depth_duration_stimuli/000788_2014-06-08_22-34-36_260595134347_rgbf000131-resize_1/000788_2014-06-08_22-34-36_260595134347_rgbf000131-resize_1-target.png,250,3.359,7,2816,236,feet,jsons/v1_VE250_randls_5.json,525358,1201903,27,Man
5,723081,DepthScenes,duration_manipulation_targetAtFixation,jsons/v1_VE250_randls_5.json,http://54.235.29.9/FacialAge/BNav_EC2/DepthDuration/v2_depth_duration_MTurk/v2_DepthDuration_HTML.html#8,8,1536,722,1536,864,8-20-2022,11-0-7,6,depth_duration_stimuli/001235_2014-06-17_16-37-36_260595134347_rgbf000084-resize_4/001235_2014-06-17_16-37-36_260595134347_rgbf000084-resize_4-target.png,250,3.6605,5,3783,248,feet,jsons/v1_VE250_randls_5.json,525358,1201903,27,Man
6,723081,DepthScenes,duration_manipulation_targetAtFixation,jsons/v1_VE250_randls_5.json,http://54.235.29.9/FacialAge/BNav_EC2/DepthDuration/v2_depth_duration_MTurk/v2_DepthDuration_HTML.html#8,8,1536,722,1536,864,8-20-2022,11-0-7,7,depth_duration_stimuli/001244_2014-06-17_16-47-45_260595134347_rgbf000030-resize_4/001244_2014-06-17_16-47-45_260595134347_rgbf000030-resize_4-target.png,250,2.0425,3,2471,259,feet,jsons/v1_VE250_randls_5.json,525358,1201903,27,Man
7,723081,DepthScenes,duration_manipulation_targetAtFixation,jsons/v1_VE250_randls_5.json,http://54.235.29.9/FacialAge/BNav_EC2/DepthDuration/v2_depth_duration_MTurk/v2_DepthDuration_HTML.html#8,8,1536,722,1536,864,8-20-2022,11-0-7,8,depth_duration_stimuli/003495_2014-05-21_16-01-51_094959634447_rgbf000100-resize_3/003495_2014-05-21_16-01-51_094959634447_rgbf000100-resize_3-target.png,250,1.6255,4,2355,249,feet,jsons/v1_VE250_randls_5.json,525358,1201903,27,Man
8,723081,DepthScenes,duration_manipulation_targetAtFixation,jsons/v1_VE250_randls_5.json,http://54.235.29.9/FacialAge/BNav_EC2/DepthDuration/v2_depth_duration_MTurk/v2_DepthDuration_HTML.html#8,8,1536,722,1536,864,8-20-2022,11-0-7,9,depth_duration_stimuli/003492_2014-05-21_15-50-55_094959634447_rgbf000828-resize_1/003492_2014-05-21_15-50-55_094959634447_rgbf000828-resize_1-target.png,250,4.06875,7,2940,244,feet,jsons/v1_VE250_randls_5.json,525358,1201903,27,Man
9,723081,DepthScenes,duration_manipulation_targetAtFixation,jsons/v1_VE250_randls_5.json,http://54.235.29.9/FacialAge/BNav_EC2/DepthDuration/v2_depth_duration_MTurk/v2_DepthDuration_HTML.html#8,8,1536,722,1536,864,8-20-2022,11-0-7,10,depth_duration_stimuli/002568_2014-06-24_13-59-21_094959634447_rgbf000062-resize_4/002568_2014-06-24_13-59-21_094959634447_rgbf000062-resize_4-target.png,250,3.015,5,3275,249,feet,jsons/v1_VE250_randls_5.json,525358,1201903,27,Man
10,723081,DepthScenes,duration_manipulation_targetAtFixation,jsons/v1_VE250_randls_5.json,http://54.235.29.9/FacialAge/BNav_EC2/DepthDuration/v2_depth_duration_MTurk/v2_DepthDuration_HTML.html#8,8,1536,722,1536,864,8-20-2022,11-0-7,11,depth_duration_stimuli/001555_2014-06-20_17-12-10_260595134347_rgbf000065-resize_4/001555_2014-06-20_17-12-10_260595134347_rgbf000065-resize_4-target.png,250,1.633,3,2493,239,feet,jsons/v1_VE250_randls_5.json,525358,1201903,27,Man
11,723081,DepthScenes,duration_manipulation_targetAtFixation,jsons/v1_VE250_randls_5.json,http://54.235.29.9/FacialAge/BNav_EC2/DepthDuration/v2_depth_duration_MTurk/v2_DepthDuration_HTML.html#8,8,1536,722,1536,864,8-20-2022,11-0-7,12,depth_duration_stimuli/000103_2014-05-14_22-01-17_260595134347_rgbf000152-resize_5/000103_2014-05-14_22-01-17_260595134347_rgbf000152-resize_5-target.png,250,1.993,6,2363,249,feet,jsons/v1_VE250_randls_5.json,525358,1201903,27,Man
12,723081,DepthScenes,duration_manipulation_targetAtFixation,jsons/v1_VE250_randls_5.json,http://54.235.29.9/FacialAge/BNav_EC2/DepthDuration/v2_depth_duration_MTurk/v2_DepthDuration_HTML.html#8,8,1536,722,1536,864,8-20-2022,11-0-7,13,depth_duration_stimuli/000569_2014-06-09_22-51-47_260595134347_rgbf000141-resize_3/000569_2014-06-09_22-51-47_260595134347_rgbf000141-resize-original.jpg,250,4.512,0,3267,234,feet,jsons/v1_VE250_randls_5.json,525358,1201903,27,Man
13,723081,DepthScenes,duration_manipulation_targetAtFixation,jsons/v1_VE250_randls_5.json,http://54.235.29.9/FacialAge/BNav_EC2/DepthDuration/v2_depth_duration_MTurk/v2_DepthDuration_HTML.html#8,8,1536,722,1536,864,8-20-2022,11-0-7,14,depth_duration_stimuli/002905_2014-06-03_18-04-43_094959634447_rgbf000151-resize_2/002905_2014-06-03_18-04-43_094959634447_rgbf000151-resize_2-target.png,250,2.0295,4,2495,238,feet,jsons/v1_VE250_randls_5.json,525358,1201903,27,Man
14,723081,DepthScenes,duration_manipulation_targetAtFixation,jsons/v1_VE250_randls_5.json,http://54.235.29.9/FacialAge/BNav_EC2/DepthDuration/v2_depth_duration_MTurk/v2_DepthDuration_HTML.html#8,8,1536,722,1536,864,8-20-2022,11-0-7,15,depth_duration_stimuli/003423_2014-05-21_10-23-26_094959634447_rgbf002665-resize_2/003423_2014-05-21_10-23-26_094959634447_rgbf002665-resize_2-target.png,250,3.2575,10,2989,260,feet,jsons/v1_VE250_randls_5.json,525358,1201903,27,Man
15,723081,DepthScenes,duration_manipulation_targetAtFixation,jsons/v1_VE250_randls_5.json,http://54.235.29.9/FacialAge/BNav_EC2/DepthDuration/v2_depth_duration_MTurk/v2_DepthDuration_HTML.html#8,8,1536,722,1536,864,8-20-2022,11-0-7,16,depth_duration_stimuli/000917_2014-06-09_22-45-29_260595134347_rgbf000149-resize_3/000917_2014-06-09_22-45-29_260595134347_rgbf000149-resize_3-target.png,250,4.1865,7,2691,258,feet,jsons/v1_VE250_randls_5.json,525358,1201903,27,Man
16,723081,DepthScenes,duration_manipulation_targetAtFixation,jsons/v1_VE250_randls_5.json,http://54.235.29.9/FacialAge/BNav_EC2/DepthDuration/v2_depth_duration_MTurk/v2_DepthDuration_HTML.html#8,8,1536,722,1536,864,8-20-2022,11-0-7,17,depth_duration_stimuli/002323_2014-06-28_20-01-54_260595134347_rgbf000051-resize_4/002323_2014-06-28_20-01-54_260595134347_rgbf000051-resize_4-target.png,250,3.7310000000000003,12,3239,253,feet,jsons/v1_VE250_randls_5.json,525358,1201903,27,Man
17,723081,DepthScenes,duration_manipulation_targetAtFixation,jsons/v1_VE250_randls_5.json,http://54.235.29.9/FacialAge/BNav_EC2/DepthDuration/v2_depth_duration_MTurk/v2_DepthDuration_HTML.html#8,8,1536,722,1536,864,8-20-2022,11-0-7,18,depth_duration_stimuli/002118_2014-06-25_20-32-08_260595134347_rgbf000078-resize_1/002118_2014-06-25_20-32-08_260595134347_rgbf000078-resize_1-target.png,250,2.6460000000000004,5,3967,255,feet,jsons/v1_VE250_randls_5.json,525358,1201903,27,Man
18,723081,DepthScenes,duration_manipulation_targetAtFixation,jsons/v1_VE250_randls_5.json,http://54.235.29.9/FacialAge/BNav_EC2/DepthDuration/v2_depth_duration_MTurk/v2_DepthDuration_HTML.html#8,8,1536,722,1536,864,8-20-2022,11-0-7,19,depth_duration_stimuli/001516_2014-06-20_16-25-09_260595134347_rgbf000076-resize_2/001516_2014-06-20_16-25-09_260595134347_rgbf000076-resize_2-target.png,250,1.7445,3,2222,249,feet,jsons/v1_VE250_randls_5.json,525358,1201903,27,Man
19,723081,DepthScenes,duration_manipulation_targetAtFixation,jsons/v1_VE250_randls_5.json,http://54.235.29.9/FacialAge/BNav_EC2/DepthDuration/v2_depth_duration_MTurk/v2_DepthDuration_HTML.html#8,8,1536,722,1536,864,8-20-2022,11-0-7,20,depth_duration_stimuli/002600_2014-06-24_14-27-04_094959634447_rgbf000074-resize_2/002600_2014-06-24_14-27-04_094959634447_rgbf000074-resize_2-target.png,250,2.7575,6,2244,249,feet,jsons/v1_VE250_randls_5.json,525358,1201903,27,Man
20,723081,DepthScenes,duration_manipulation_targetAtFixation,jsons/v1_VE250_randls_5.json,http://54.235.29.9/FacialAge/BNav_EC2/DepthDuration/v2_depth_duration_MTurk/v2_DepthDuration_HTML.html#8,8,1536,722,1536,864,8-20-2022,11-0-7,21,depth_duration_stimuli/003228_2014-05-14_13-42-35_094959634447_rgbf000101-resize_1/003228_2014-05-14_13-42-35_094959634447_rgbf000101-resize_1-target.png,250,1.9680000000000002,3,2087,249,feet,jsons/v1_VE250_randls_5.json,525358,1201903,27,Man
21,723081,DepthScenes,duration_manipulation_targetAtFixation,jsons/v1_VE250_randls_5.json,http://54.235.29.9/FacialAge/BNav_EC2/DepthDuration/v2_depth_duration_MTurk/v2_DepthDuration_HTML.html#8,8,1536,722,1536,864,8-20-2022,11-0-7,22,depth_duration_stimuli/000470_2014-06-09_19-42-40_260595134347_rgbf000094-resize_1/000470_2014-06-09_19-42-40_260595134347_rgbf000094-resize_1-target.png,250,1.831,4,1906,249,feet,jsons/v1_VE250_randls_5.json,525358,1201903,27,Man
22,723081,DepthScenes,duration_manipulation_targetAtFixation,jsons/v1_VE250_randls_5.json,http://54.235.29.9/FacialAge/BNav_EC2/DepthDuration/v2_depth_duration_MTurk/v2_DepthDuration_HTML.html#8,8,1536,722,1536,864,8-20-2022,11-0-7,23,depth_duration_stimuli/000109_2014-05-14_23-41-52_260595134347_rgbf000035-resize_9/000109_2014-05-14_23-41-52_260595134347_rgbf000035-resize_9-target.png,250,1.3545,3,3063,260,feet,jsons/v1_VE250_randls_5.json,525358,1201903,27,Man
23,723081,DepthScenes,duration_manipulation_targetAtFixation,jsons/v1_VE250_randls_5.json,http://54.235.29.9/FacialAge/BNav_EC2/DepthDuration/v2_depth_duration_MTurk/v2_DepthDuration_HTML.html#8,8,1536,722,1536,864,8-20-2022,11-0-7,24,depth_duration_stimuli/000506_2014-06-08_23-21-00_260595134347_rgbf000070-resize_7/000506_2014-06-08_23-21-00_260595134347_rgbf000070-resize_7-target.png,250,4.0585,7,2412,259,feet,jsons/v1_VE250_randls_5.json,525358,1201903,27,Man
24,723081,DepthScenes,duration_manipulation_targetAtFixation,jsons/v1_VE250_randls_5.json,http://54.235.29.9/FacialAge/BNav_EC2/DepthDuration/v2_depth_duration_MTurk/v2_DepthDuration_HTML.html#8,8,1536,722,1536,864,8-20-2022,11-0-7,25,depth_duration_stimuli/003079_2014-06-15_15-18-20_094959634447_rgbf000152-resize_8/003079_2014-06-15_15-18-20_094959634447_rgbf000152-resize_8-target.png,250,2.8775,8,2424,244,feet,jsons/v1_VE250_randls_5.json,525358,1201903,27,Man
25,723081,DepthScenes,duration_manipulation_targetAtFixation,jsons/v1_VE250_randls_5.json,http://54.235.29.9/FacialAge/BNav_EC2/DepthDuration/v2_depth_duration_MTurk/v2_DepthDuration_HTML.html#8,8,1536,722,1536,864,8-20-2022,11-0-7,26,depth_duration_stimuli/001167_2014-06-17_15-38-07_260595134347_rgbf000108-resize_0/001167_2014-06-17_15-38-07_260595134347_rgbf000108-resize_0-target.png,250,1.8505,4,2099,259,feet,jsons/v1_VE250_randls_5.json,525358,1201903,27,Man
26,723081,DepthScenes,duration_manipulation_targetAtFixation,jsons/v1_VE250_randls_5.json,http://54.235.29.9/FacialAge/BNav_EC2/DepthDuration/v2_depth_duration_MTurk/v2_DepthDuration_HTML.html#8,8,1536,722,1536,864,8-20-2022,11-0-7,27,depth_duration_stimuli/003587_2014-05-23_16-48-02_094959634447_rgbf002384-resize_2/003587_2014-05-23_16-48-02_094959634447_rgbf002384-resize_2-target.png,250,1.357,3,2147,260,feet,jsons/v1_VE250_randls_5.json,525358,1201903,27,Man
27,723081,DepthScenes,duration_manipulation_targetAtFixation,jsons/v1_VE250_randls_5.json,http://54.235.29.9/FacialAge/BNav_EC2/DepthDuration/v2_depth_duration_MTurk/v2_DepthDuration_HTML.html#8,8,1536,722,1536,864,8-20-2022,11-0-7,28,depth_duration_stimuli/001055_2014-06-08_18-45-35_260595134347_rgbf000111-resize_4/001055_2014-06-08_18-45-35_260595134347_rgbf000111-resize_4-target.png,250,2.4290000000000003,7,2223,249,feet,jsons/v1_VE250_randls_5.json,525358,1201903,27,Man
28,723081,DepthScenes,duration_manipulation_targetAtFixation,jsons/v1_VE250_randls_5.json,http://54.235.29.9/FacialAge/BNav_EC2/DepthDuration/v2_depth_duration_MTurk/v2_DepthDuration_HTML.html#8,8,1536,722,1536,864,8-20-2022,11-0-7,29,depth_duration_stimuli/000549_2014-06-08_22-10-24_260595134347_rgbf000247-resize_3/000549_2014-06-08_22-10-24_260595134347_rgbf000247-resize_3-target.png,250,1.841,5,1975,243,feet,jsons/v1_VE250_randls_5.json,525358,1201903,27,Man
29,723081,DepthScenes,duration_manipulation_targetAtFixation,jsons/v1_VE250_randls_5.json,http://54.235.29.9/FacialAge/BNav_EC2/DepthDuration/v2_depth_duration_MTurk/v2_DepthDuration_HTML.html#8,8,1536,722,1536,864,8-20-2022,11-0-7,30,depth_duration_stimuli/000375_2014-06-08_11-17-29_260595134347_rgbf000133-resize_2/000375_2014-06-08_11-17-29_260595134347_rgbf000133-resize-original.jpg,250,4.718,0,2288,245,feet,jsons/v1_VE250_randls_5.json,525358,1201903,27,Man
30,723081,DepthScenes,duration_manipulation_targetAtFixation,jsons/v1_VE250_randls_5.json,http://54.235.29.9/FacialAge/BNav_EC2/DepthDuration/v2_depth_duration_MTurk/v2_DepthDuration_HTML.html#8,8,1536,722,1536,864,8-20-2022,11-0-7,31,depth_duration_stimuli/000739_2014-06-08_18-45-58_260595134347_rgbf000068-resize_1/000739_2014-06-08_18-45-58_260595134347_rgbf000068-resize_1-target.png,250,3.534,6,2393,254,feet,jsons/v1_VE250_randls_5.json,525358,1201903,27,Man
31,723081,DepthScenes,duration_manipulation_targetAtFixation,jsons/v1_VE250_randls_5.json,http://54.235.29.9/FacialAge/BNav_EC2/DepthDuration/v2_depth_duration_MTurk/v2_DepthDuration_HTML.html#8,8,1536,722,1536,864,8-20-2022,11-0-7,32,depth_duration_stimuli/000734_2014-06-08_17-39-11_260595134347_rgbf000128-resize_2/000734_2014-06-08_17-39-11_260595134347_rgbf000128-resize_2-target.png,250,4.098,6,2339,239,feet,jsons/v1_VE250_randls_5.json,525358,1201903,27,Man
32,723081,DepthScenes,duration_manipulation_targetAtFixation,jsons/v1_VE250_randls_5.json,http://54.235.29.9/FacialAge/BNav_EC2/DepthDuration/v2_depth_duration_MTurk/v2_DepthDuration_HTML.html#8,8,1536,722,1536,864,8-20-2022,11-0-7,33,depth_duration_stimuli/000642_2014-06-08_16-59-25_260595134347_rgbf000098-resize_2/000642_2014-06-08_16-59-25_260595134347_rgbf000098-resize_2-target.png,250,2.8815,6,2410,247,feet,jsons/v1_VE250_randls_5.json,525358,1201903,27,Man
33,723081,DepthScenes,duration_manipulation_targetAtFixation,jsons/v1_VE250_randls_5.json,http://54.235.29.9/FacialAge/BNav_EC2/DepthDuration/v2_depth_duration_MTurk/v2_DepthDuration_HTML.html#8,8,1536,722,1536,864,8-20-2022,11-0-7,34,depth_duration_stimuli/002425_2014-06-28_20-27-29_260595134347_rgbf000031-resize_8/002425_2014-06-28_20-27-29_260595134347_rgbf000031-resize_8-target.png,250,3.8960000000000004,7,1968,264,feet,jsons/v1_VE250_randls_5.json,525358,1201903,27,Man
34,723081,DepthScenes,duration_manipulation_targetAtFixation,jsons/v1_VE250_randls_5.json,http://54.235.29.9/FacialAge/BNav_EC2/DepthDuration/v2_depth_duration_MTurk/v2_DepthDuration_HTML.html#8,8,1536,722,1536,864,8-20-2022,11-0-7,35,depth_duration_stimuli/001810_2014-06-26_20-51-35_260595134347_rgbf000040-resize_3/001810_2014-06-26_20-51-35_260595134347_rgbf000040-resize_3-target.png,250,2.2525,5,1925,249,feet,jsons/v1_VE250_randls_5.json,525358,1201903,27,Man
35,723081,DepthScenes,duration_manipulation_targetAtFixation,jsons/v1_VE250_randls_5.json,http://54.235.29.9/FacialAge/BNav_EC2/DepthDuration/v2_depth_duration_MTurk/v2_DepthDuration_HTML.html#8,8,1536,722,1536,864,8-20-2022,11-0-7,36,depth_duration_stimuli/003010_2014-06-15_12-54-35_094959634447_rgbf000112-resize_0/003010_2014-06-15_12-54-35_094959634447_rgbf000112-resize_0-target.png,250,3.1185,6,2375,255,feet,jsons/v1_VE250_randls_5.json,525358,1201903,27,Man
36,723081,DepthScenes,duration_manipulation_targetAtFixation,jsons/v1_VE250_randls_5.json,http://54.235.29.9/FacialAge/BNav_EC2/DepthDuration/v2_depth_duration_MTurk/v2_DepthDuration_HTML.html#8,8,1536,722,1536,864,8-20-2022,11-0-7,37,depth_duration_stimuli/001016_2014-06-09_16-16-10_260595134347_rgbf000112-resize_5/001016_2014-06-09_16-16-10_260595134347_rgbf000112-resize_5-target.png,250,1.6565,4,2159,259,feet,jsons/v1_VE250_randls_5.json,525358,1201903,27,Man
37,723081,DepthScenes,duration_manipulation_targetAtFixation,jsons/v1_VE250_randls_5.json,http://54.235.29.9/FacialAge/BNav_EC2/DepthDuration/v2_depth_duration_MTurk/v2_DepthDuration_HTML.html#8,8,1536,864,1536,864,8-20-2022,11-0-7,38,depth_duration_stimuli/002340_2014-06-28_20-05-46_260595134347_rgbf000113-resize_0/002340_2014-06-28_20-05-46_260595134347_rgbf000113-resize_0-target.png,250,2.4735,5,5593,239,feet,jsons/v1_VE250_randls_5.json,525358,1201903,27,Man
38,723081,DepthScenes,duration_manipulation_targetAtFixation,jsons/v1_VE250_randls_5.json,http://54.235.29.9/FacialAge/BNav_EC2/DepthDuration/v2_depth_duration_MTurk/v2_DepthDuration_HTML.html#8,8,1536,864,1536,864,8-20-2022,11-0-7,39,depth_duration_stimuli/003621_2014-05-23_18-06-08_094959634447_rgbf000101-resize_1/003621_2014-05-23_18-06-08_094959634447_rgbf000101-resize_1-target.png,250,3.9835,10,4191,249,feet,jsons/v1_VE250_randls_5.json,525358,1201903,27,Man
39,723081,DepthScenes,duration_manipulation_targetAtFixation,jsons/v1_VE250_randls_5.json,http://54.235.29.9/FacialAge/BNav_EC2/DepthDuration/v2_depth_duration_MTurk/v2_DepthDuration_HTML.html#8,8,1536,864,1536,864,8-20-2022,11-0-7,40,depth_duration_stimuli/001584_2014-06-20_11-07-43_260595134347_rgbf000002-resize_1/001584_2014-06-20_11-07-43_260595134347_rgbf000002-resize_1-target.png,250,3.53,6,2175,242,feet,jsons/v1_VE250_randls_5.json,525358,1201903,27,Man
40,723081,DepthScenes,duration_manipulation_targetAtFixation,jsons/v1_VE250_randls_5.json,http://54.235.29.9/FacialAge/BNav_EC2/DepthDuration/v2_depth_duration_MTurk/v2_DepthDuration_HTML.html#8,8,1536,864,1536,864,8-20-2022,11-0-7,41,depth_duration_stimuli/001133_2014-06-17_14-49-16_260595134347_rgbf000100-resize_0/001133_2014-06-17_14-49-16_260595134347_rgbf000100-resize_0-target.png,250,4.2115,10,2944,238,feet,jsons/v1_VE250_randls_5.json,525358,1201903,27,Man
41,723081,DepthScenes,duration_manipulation_targetAtFixation,jsons/v1_VE250_randls_5.json,http://54.235.29.9/FacialAge/BNav_EC2/DepthDuration/v2_depth_duration_MTurk/v2_DepthDuration_HTML.html#8,8,1536,864,1536,864,8-20-2022,11-0-7,42,depth_duration_stimuli/001132_2014-06-17_14-48-54_260595134347_rgbf000100-resize_2/001132_2014-06-17_14-48-54_260595134347_rgbf000100-resize_2-target.png,250,3.753,9,2245,249,feet,jsons/v1_VE250_randls_5.json,525358,1201903,27,Man
42,723081,DepthScenes,duration_manipulation_targetAtFixation,jsons/v1_VE250_randls_5.json,http://54.235.29.9/FacialAge/BNav_EC2/DepthDuration/v2_depth_duration_MTurk/v2_DepthDuration_HTML.html#8,8,1536,864,1536,864,8-20-2022,11-0-7,43,depth_duration_stimuli/000682_2014-06-08_23-14-58_260595134347_rgbf000041-resize_5/000682_2014-06-08_23-14-58_260595134347_rgbf000041-resize_5-target.png,250,2.7239999999999998,7,2235,259,feet,jsons/v1_VE250_randls_5.json,525358,1201903,27,Man
43,723081,DepthScenes,duration_manipulation_targetAtFixation,jsons/v1_VE250_randls_5.json,http://54.235.29.9/FacialAge/BNav_EC2/DepthDuration/v2_depth_duration_MTurk/v2_DepthDuration_HTML.html#8,8,1536,864,1536,864,8-20-2022,11-0-7,44,depth_duration_stimuli/001650_2014-06-20_12-09-00_260595134347_rgbf000087-resize_3/001650_2014-06-20_12-09-00_260595134347_rgbf000087-resize_3-target.png,250,1.9505,4,3389,235,feet,jsons/v1_VE250_randls_5.json,525358,1201903,27,Man
44,723081,DepthScenes,duration_manipulation_targetAtFixation,jsons/v1_VE250_randls_5.json,http://54.235.29.9/FacialAge/BNav_EC2/DepthDuration/v2_depth_duration_MTurk/v2_DepthDuration_HTML.html#8,8,1536,864,1536,864,8-20-2022,11-0-7,45,depth_duration_stimuli/000787_2014-06-08_22-33-53_260595134347_rgbf000175-resize_1/000787_2014-06-08_22-33-53_260595134347_rgbf000175-resize-original.jpg,250,4.784,0,2225,239,feet,jsons/v1_VE250_randls_5.json,525358,1201903,27,Man
45,723081,DepthScenes,duration_manipulation_targetAtFixation,jsons/v1_VE250_randls_5.json,http://54.235.29.9/FacialAge/BNav_EC2/DepthDuration/v2_depth_duration_MTurk/v2_DepthDuration_HTML.html#8,8,1536,864,1536,864,8-20-2022,11-0-7,46,depth_duration_stimuli/001806_2014-06-26_20-50-20_260595134347_rgbf000091-resize_1/001806_2014-06-26_20-50-20_260595134347_rgbf000091-resize_1-target.png,250,2.7305,4,2316,249,feet,jsons/v1_VE250_randls_5.json,525358,1201903,27,Man
46,723081,DepthScenes,duration_manipulation_targetAtFixation,jsons/v1_VE250_randls_5.json,http://54.235.29.9/FacialAge/BNav_EC2/DepthDuration/v2_depth_duration_MTurk/v2_DepthDuration_HTML.html#8,8,1536,864,1536,864,8-20-2022,11-0-7,47,depth_duration_stimuli/001617_2014-06-20_11-35-32_260595134347_rgbf000066-resize_1/001617_2014-06-20_11-35-32_260595134347_rgbf000066-resize_1-target.png,250,3.7910000000000004,5,2145,249,feet,jsons/v1_VE250_randls_5.json,525358,1201903,27,Man
47,723081,DepthScenes,duration_manipulation_targetAtFixation,jsons/v1_VE250_randls_5.json,http://54.235.29.9/FacialAge/BNav_EC2/DepthDuration/v2_depth_duration_MTurk/v2_DepthDuration_HTML.html#8,8,1536,864,1536,864,8-20-2022,11-0-7,48,depth_duration_stimuli/001158_2014-06-17_15-32-16_260595134347_rgbf000138-resize_2/001158_2014-06-17_15-32-16_260595134347_rgbf000138-resize_2-target.png,250,4.5315,10,3582,238,feet,jsons/v1_VE250_randls_5.json,525358,1201903,27,Man
48,723081,DepthScenes,duration_manipulation_targetAtFixation,jsons/v1_VE250_randls_5.json,http://54.235.29.9/FacialAge/BNav_EC2/DepthDuration/v2_depth_duration_MTurk/v2_DepthDuration_HTML.html#8,8,1536,864,1536,864,8-20-2022,11-0-7,49,depth_duration_stimuli/000556_2014-06-09_22-42-56_260595134347_rgbf000214-resize_1/000556_2014-06-09_22-42-56_260595134347_rgbf000214-resize_1-target.png,250,4.8415,12,2552,238,feet,jsons/v1_VE250_randls_5.json,525358,1201903,27,Man
49,723081,DepthScenes,duration_manipulation_targetAtFixation,jsons/v1_VE250_randls_5.json,http://54.235.29.9/FacialAge/BNav_EC2/DepthDuration/v2_depth_duration_MTurk/v2_DepthDuration_HTML.html#8,8,1536,864,1536,864,8-20-2022,11-0-7,50,depth_duration_stimuli/001175_2014-06-17_15-45-55_260595134347_rgbf000129-resize_4/001175_2014-06-17_15-45-55_260595134347_rgbf000129-resize_4-target.png,250,4.255,12,2595,239,feet,jsons/v1_VE250_randls_5.json,525358,1201903,27,Man
50,723081,DepthScenes,duration_manipulation_targetAtFixation,jsons/v1_VE250_randls_5.json,http://54.235.29.9/FacialAge/BNav_EC2/DepthDuration/v2_depth_duration_MTurk/v2_DepthDuration_HTML.html#8,8,1536,864,1536,864,8-20-2022,11-0-7,51,depth_duration_stimuli/003490_2014-05-21_15-50-11_094959634447_rgbf000101-resize_3/003490_2014-05-21_15-50-11_094959634447_rgbf000101-resize_3-target.png,250,3.6445,8,4410,255,feet,jsons/v1_VE250_randls_5.json,525358,1201903,27,Man
51,723081,DepthScenes,duration_manipulation_targetAtFixation,jsons/v1_VE250_randls_5.json,http://54.235.29.9/FacialAge/BNav_EC2/DepthDuration/v2_depth_duration_MTurk/v2_DepthDuration_HTML.html#8,8,1536,864,1536,864,8-20-2022,11-0-7,52,depth_duration_stimuli/000486_2014-06-09_20-47-20_260595134347_rgbf000143-resize_2/000486_2014-06-09_20-47-20_260595134347_rgbf000143-resize_2-target.png,250,4.8325,7,2603,254,feet,jsons/v1_VE250_randls_5.json,525358,1201903,27,Man
52,723081,DepthScenes,duration_manipulation_targetAtFixation,jsons/v1_VE250_randls_5.json,http://54.235.29.9/FacialAge/BNav_EC2/DepthDuration/v2_depth_duration_MTurk/v2_DepthDuration_HTML.html#8,8,1536,864,1536,864,8-20-2022,11-0-7,53,depth_duration_stimuli/003083_2014-06-15_15-21-03_094959634447_rgbf000063-resize_1/003083_2014-06-15_15-21-03_094959634447_rgbf000063-resize_1-target.png,250,4.1405,7,4057,250,feet,jsons/v1_VE250_randls_5.json,525358,1201903,27,Man
53,723081,DepthScenes,duration_manipulation_targetAtFixation,jsons/v1_VE250_randls_5.json,http://54.235.29.9/FacialAge/BNav_EC2/DepthDuration/v2_depth_duration_MTurk/v2_DepthDuration_HTML.html#8,8,1536,864,1536,864,8-20-2022,11-0-7,54,depth_duration_stimuli/001570_2014-06-20_17-21-09_260595134347_rgbf000135-resize_4/001570_2014-06-20_17-21-09_260595134347_rgbf000135-resize_4-target.png,250,4.467,7,2664,245,feet,jsons/v1_VE250_randls_5.json,525358,1201903,27,Man
54,723081,DepthScenes,duration_manipulation_targetAtFixation,jsons/v1_VE250_randls_5.json,http://54.235.29.9/FacialAge/BNav_EC2/DepthDuration/v2_depth_duration_MTurk/v2_DepthDuration_HTML.html#8,8,1536,864,1536,864,8-20-2022,11-0-7,55,depth_duration_stimuli/001392_2014-06-19_16-07-59_260595134347_rgbf000046-resize_1/001392_2014-06-19_16-07-59_260595134347_rgbf000046-resize_1-target.png,250,4.135,7,2747,236,feet,jsons/v1_VE250_randls_5.json,525358,1201903,27,Man
55,723081,DepthScenes,duration_manipulation_targetAtFixation,jsons/v1_VE250_randls_5.json,http://54.235.29.9/FacialAge/BNav_EC2/DepthDuration/v2_depth_duration_MTurk/v2_DepthDuration_HTML.html#8,8,1536,864,1536,864,8-20-2022,11-0-7,56,depth_duration_stimuli/001199_2014-06-17_16-03-48_260595134347_rgbf000077-resize_0/001199_2014-06-17_16-03-48_260595134347_rgbf000077-resize_0-target.png,250,3.4375,9,3144,250,feet,jsons/v1_VE250_randls_5.json,525358,1201903,27,Man
56,723081,DepthScenes,duration_manipulation_targetAtFixation,jsons/v1_VE250_randls_5.json,http://54.235.29.9/FacialAge/BNav_EC2/DepthDuration/v2_depth_duration_MTurk/v2_DepthDuration_HTML.html#8,8,1536,864,1536,864,8-20-2022,11-0-7,57,depth_duration_stimuli/000502_2014-06-08_23-02-32_260595134347_rgbf000063-resize_4/000502_2014-06-08_23-02-32_260595134347_rgbf000063-resize_4-target.png,250,2.431,5,2719,247,feet,jsons/v1_VE250_randls_5.json,525358,1201903,27,Man
57,723081,DepthScenes,duration_manipulation_targetAtFixation,jsons/v1_VE250_randls_5.json,http://54.235.29.9/FacialAge/BNav_EC2/DepthDuration/v2_depth_duration_MTurk/v2_DepthDuration_HTML.html#8,8,1536,864,1536,864,8-20-2022,11-0-7,58,depth_duration_stimuli/002279_2014-06-28_18-55-32_260595134347_rgbf000040-resize_5/002279_2014-06-28_18-55-32_260595134347_rgbf000040-resize_5-target.png,250,1.5043333333333,4,2112,239,feet,jsons/v1_VE250_randls_5.json,525358,1201903,27,Man
58,723081,DepthScenes,duration_manipulation_targetAtFixation,jsons/v1_VE250_randls_5.json,http://54.235.29.9/FacialAge/BNav_EC2/DepthDuration/v2_depth_duration_MTurk/v2_DepthDuration_HTML.html#8,8,1536,864,1536,864,8-20-2022,11-0-7,59,depth_duration_stimuli/000635_2014-06-08_16-38-42_260595134347_rgbf000106-resize_1/000635_2014-06-08_16-38-42_260595134347_rgbf000106-resize_1-target.png,250,2.074,6,2212,258,feet,jsons/v1_VE250_randls_5.json,525358,1201903,27,Man
59,723081,DepthScenes,duration_manipulation_targetAtFixation,jsons/v1_VE250_randls_5.json,http://54.235.29.9/FacialAge/BNav_EC2/DepthDuration/v2_depth_duration_MTurk/v2_DepthDuration_HTML.html#8,8,1536,864,1536,864,8-20-2022,11-0-7,60,depth_duration_stimuli/000447_2014-06-08_16-15-46_260595134347_rgbf000130-resize_1/000447_2014-06-08_16-15-46_260595134347_rgbf000130-resize_1-target.png,250,4.479,8,3204,245,feet,jsons/v1_VE250_randls_5.json,525358,1201903,27,Man
60,723081,DepthScenes,duration_manipulation_targetAtFixation,jsons/v1_VE250_randls_5.json,http://54.235.29.9/FacialAge/BNav_EC2/DepthDuration/v2_depth_duration_MTurk/v2_DepthDuration_HTML.html#8,8,1536,864,1536,864,8-20-2022,11-0-7,61,depth_duration_stimuli/001447_2014-06-19_17-00-32_260595134347_rgbf000082-resize_5/001447_2014-06-19_17-00-32_260595134347_rgbf000082-resize_5-target.png,250,4.13775,6,2943,256,feet,jsons/v1_VE250_randls_5.json,525358,1201903,27,Man
61,723081,DepthScenes,duration_manipulation_targetAtFixation,jsons/v1_VE250_randls_5.json,http://54.235.29.9/FacialAge/BNav_EC2/DepthDuration/v2_depth_duration_MTurk/v2_DepthDuration_HTML.html#8,8,1536,864,1536,864,8-20-2022,11-0-7,62,depth_duration_stimuli/000810_2014-06-08_17-20-01_260595134347_rgbf000105-resize_0/000810_2014-06-08_17-20-01_260595134347_rgbf000105-resize_0-target.png,250,1.4865,3,2306,249,feet,jsons/v1_VE250_randls_5.json,525358,1201903,27,Man
62,723081,DepthScenes,duration_manipulation_targetAtFixation,jsons/v1_VE250_randls_5.json,http://54.235.29.9/FacialAge/BNav_EC2/DepthDuration/v2_depth_duration_MTurk/v2_DepthDuration_HTML.html#8,8,1536,864,1536,864,8-20-2022,11-0-7,63,depth_duration_stimuli/001214_2014-06-17_16-13-55_260595134347_rgbf000111-resize_0/001214_2014-06-17_16-13-55_260595134347_rgbf000111-resize_0-target.png,250,2.6505,6,2505,260,feet,jsons/v1_VE250_randls_5.json,525358,1201903,27,Man
63,723081,DepthScenes,duration_manipulation_targetAtFixation,jsons/v1_VE250_randls_5.json,http://54.235.29.9/FacialAge/BNav_EC2/DepthDuration/v2_depth_duration_MTurk/v2_DepthDuration_HTML.html#8,8,1536,864,1536,864,8-20-2022,11-0-7,64,depth_duration_stimuli/001449_2014-06-19_17-01-27_260595134347_rgbf000116-resize_2/001449_2014-06-19_17-01-27_260595134347_rgbf000116-resize_2-target.png,250,3.452,6,4508,248,feet,jsons/v1_VE250_randls_5.json,525358,1201903,27,Man
64,723081,DepthScenes,duration_manipulation_targetAtFixation,jsons/v1_VE250_randls_5.json,http://54.235.29.9/FacialAge/BNav_EC2/DepthDuration/v2_depth_duration_MTurk/v2_DepthDuration_HTML.html#8,8,1536,864,1536,864,8-20-2022,11-0-7,65,depth_duration_stimuli/001450_2014-06-19_17-02-03_260595134347_rgbf000203-resize_4/001450_2014-06-19_17-02-03_260595134347_rgbf000203-resize_4-target.png,250,4.0106666666667,7,2391,255,feet,jsons/v1_VE250_randls_5.json,525358,1201903,27,Man
65,723081,DepthScenes,duration_manipulation_targetAtFixation,jsons/v1_VE250_randls_5.json,http://54.235.29.9/FacialAge/BNav_EC2/DepthDuration/v2_depth_duration_MTurk/v2_DepthDuration_HTML.html#8,8,1536,864,1536,864,8-20-2022,11-0-7,66,depth_duration_stimuli/001222_2014-06-17_16-24-06_260595134347_rgbf000073-resize_0/001222_2014-06-17_16-24-06_260595134347_rgbf000073-resize-original.jpg,250,1.4385,0,2863,249,feet,jsons/v1_VE250_randls_5.json,525358,1201903,27,Man
66,723081,DepthScenes,duration_manipulation_targetAtFixation,jsons/v1_VE250_randls_5.json,http://54.235.29.9/FacialAge/BNav_EC2/DepthDuration/v2_depth_duration_MTurk/v2_DepthDuration_HTML.html#8,8,1536,864,1536,864,8-20-2022,11-0-7,67,depth_duration_stimuli/000758_2014-06-08_22-05-08_260595134347_rgbf000085-resize_0/000758_2014-06-08_22-05-08_260595134347_rgbf000085-resize_0-target.png,250,3.3810000000000002,7,3860,239,feet,jsons/v1_VE250_randls_5.json,525358,1201903,27,Man
67,723081,DepthScenes,duration_manipulation_targetAtFixation,jsons/v1_VE250_randls_5.json,http://54.235.29.9/FacialAge/BNav_EC2/DepthDuration/v2_depth_duration_MTurk/v2_DepthDuration_HTML.html#8,8,1536,864,1536,864,8-20-2022,11-0-7,68,depth_duration_stimuli/000854_2014-06-09_19-43-13_260595134347_rgbf000066-resize_0/000854_2014-06-09_19-43-13_260595134347_rgbf000066-resize_0-target.png,250,3.068,2,2309,253,feet,jsons/v1_VE250_randls_5.json,525358,1201903,27,Man
68,723081,DepthScenes,duration_manipulation_targetAtFixation,jsons/v1_VE250_randls_5.json,http://54.235.29.9/FacialAge/BNav_EC2/DepthDuration/v2_depth_duration_MTurk/v2_DepthDuration_HTML.html#8,8,1536,864,1536,864,8-20-2022,11-0-7,69,depth_duration_stimuli/002153_2014-06-25_21-27-18_260595134347_rgbf000038-resize_5/002153_2014-06-25_21-27-18_260595134347_rgbf000038-resize_5-target.png,250,2.505,5,3877,250,feet,jsons/v1_VE250_randls_5.json,525358,1201903,27,Man
69,723081,DepthScenes,duration_manipulation_targetAtFixation,jsons/v1_VE250_randls_5.json,http://54.235.29.9/FacialAge/BNav_EC2/DepthDuration/v2_depth_duration_MTurk/v2_DepthDuration_HTML.html#8,8,1536,864,1536,864,8-20-2022,11-0-7,70,depth_duration_stimuli/002660_2014-06-13_15-44-18_094959634447_rgbf001878-resize_2/002660_2014-06-13_15-44-18_094959634447_rgbf001878-resize_2-target.png,250,3.576,6,5866,259,feet,jsons/v1_VE250_randls_5.json,525358,1201903,27,Man
70,723081,DepthScenes,duration_manipulation_targetAtFixation,jsons/v1_VE250_randls_5.json,http://54.235.29.9/FacialAge/BNav_EC2/DepthDuration/v2_depth_duration_MTurk/v2_DepthDuration_HTML.html#8,8,1536,864,1536,864,8-20-2022,11-0-7,71,depth_duration_stimuli/002725_2014-06-22_11-47-51_094959634447_rgbf000070-resize_1/002725_2014-06-22_11-47-51_094959634447_rgbf000070-resize_1-target.png,250,2.195,4,1957,250,feet,jsons/v1_VE250_randls_5.json,525358,1201903,27,Man
71,723081,DepthScenes,duration_manipulation_targetAtFixation,jsons/v1_VE250_randls_5.json,http://54.235.29.9/FacialAge/BNav_EC2/DepthDuration/v2_depth_duration_MTurk/v2_DepthDuration_HTML.html#8,8,1536,864,1536,864,8-20-2022,11-0-7,72,depth_duration_stimuli/002344_2014-06-28_20-06-29_260595134347_rgbf000030-resize_1/002344_2014-06-28_20-06-29_260595134347_rgbf000030-resize_1-target.png,250,1.5795,2,1977,249,feet,jsons/v1_VE250_randls_5.json,525358,1201903,27,Man
72,723081,DepthScenes,duration_manipulation_targetAtFixation,jsons/v1_VE250_randls_5.json,http://54.235.29.9/FacialAge/BNav_EC2/DepthDuration/v2_depth_duration_MTurk/v2_DepthDuration_HTML.html#8,8,1536,864,1536,864,8-20-2022,11-0-7,73,depth_duration_stimuli/002213_2014-06-28_18-37-58_260595134347_rgbf000055-resize_1/002213_2014-06-28_18-37-58_260595134347_rgbf000055-resize_1-target.png,250,3.62,8,3169,255,feet,jsons/v1_VE250_randls_5.json,525358,1201903,27,Man
73,723081,DepthScenes,duration_manipulation_targetAtFixation,jsons/v1_VE250_randls_5.json,http://54.235.29.9/FacialAge/BNav_EC2/DepthDuration/v2_depth_duration_MTurk/v2_DepthDuration_HTML.html#8,8,1536,864,1536,864,8-20-2022,11-0-7,74,depth_duration_stimuli/000691_2014-06-08_13-08-50_260595134347_rgbf000132-resize_3/000691_2014-06-08_13-08-50_260595134347_rgbf000132-resize_3-target.png,250,4.1530000000000005,7,2024,249,feet,jsons/v1_VE250_randls_5.json,525358,1201903,27,Man
74,723081,DepthScenes,duration_manipulation_targetAtFixation,jsons/v1_VE250_randls_5.json,http://54.235.29.9/FacialAge/BNav_EC2/DepthDuration/v2_depth_duration_MTurk/v2_DepthDuration_HTML.html#8,8,1536,864,1536,864,8-20-2022,11-0-7,75,depth_duration_stimuli/002964_2014-06-08_17-46-11_094959634447_rgbf000091-resize_4/002964_2014-06-08_17-46-11_094959634447_rgbf000091-resize_4-target.png,250,1.6909999999999998,2,2607,255,feet,jsons/v1_VE250_randls_5.json,525358,1201903,27,Man
75,723081,DepthScenes,duration_manipulation_targetAtFixation,jsons/v1_VE250_randls_5.json,http://54.235.29.9/FacialAge/BNav_EC2/DepthDuration/v2_depth_duration_MTurk/v2_DepthDuration_HTML.html#8,8,1536,864,1536,864,8-20-2022,11-0-7,76,depth_duration_stimuli/002136_2014-06-25_21-18-03_260595134347_rgbf000109-resize_3/002136_2014-06-25_21-18-03_260595134347_rgbf000109-resize_3-target.png,250,1.9569999999999999,4,2225,259,feet,jsons/v1_VE250_randls_5.json,525358,1201903,27,Man
76,723081,DepthScenes,duration_manipulation_targetAtFixation,jsons/v1_VE250_randls_5.json,http://54.235.29.9/FacialAge/BNav_EC2/DepthDuration/v2_depth_duration_MTurk/v2_DepthDuration_HTML.html#8,8,1536,864,1536,864,8-20-2022,11-0-7,77,depth_duration_stimuli/001808_2014-06-26_20-50-58_260595134347_rgbf000029-resize_1/001808_2014-06-26_20-50-58_260595134347_rgbf000029-resize_1-target.png,250,4.249,7,2636,239,feet,jsons/v1_VE250_randls_5.json,525358,1201903,27,Man
77,723081,DepthScenes,duration_manipulation_targetAtFixation,jsons/v1_VE250_randls_5.json,http://54.235.29.9/FacialAge/BNav_EC2/DepthDuration/v2_depth_duration_MTurk/v2_DepthDuration_HTML.html#8,8,1536,864,1536,864,8-20-2022,11-0-7,78,depth_duration_stimuli/001815_2014-06-26_20-52-55_260595134347_rgbf000020-resize_0/001815_2014-06-26_20-52-55_260595134347_rgbf000020-resize_0-target.png,250,3.3865,7,1921,260,feet,jsons/v1_VE250_randls_5.json,525358,1201903,27,Man
78,723081,DepthScenes,duration_manipulation_targetAtFixation,jsons/v1_VE250_randls_5.json,http://54.235.29.9/FacialAge/BNav_EC2/DepthDuration/v2_depth_duration_MTurk/v2_DepthDuration_HTML.html#8,8,1536,864,1536,864,8-20-2022,11-0-7,79,depth_duration_stimuli/001059_2014-06-08_21-53-27_260595134347_rgbf000061-resize_4/001059_2014-06-08_21-53-27_260595134347_rgbf000061-resize_4-target.png,250,2.4185,0,3092,27,feet,jsons/v1_VE250_randls_5.json,525358,1201903,27,Man
79,723081,DepthScenes,duration_manipulation_targetAtFixation,jsons/v1_VE250_randls_5.json,http://54.235.29.9/FacialAge/BNav_EC2/DepthDuration/v2_depth_duration_MTurk/v2_DepthDuration_HTML.html#8,8,1536,864,1536,864,8-20-2022,11-0-7,80,depth_duration_stimuli/001032_2014-06-08_13-23-17_260595134347_rgbf000021-resize_3/001032_2014-06-08_13-23-17_260595134347_rgbf000021-resize_3-target.png,250,3.2725,6,2393,259,feet,jsons/v1_VE250_randls_5.json,525358,1201903,27,Man
80,723081,DepthScenes,duration_manipulation_targetAtFixation,jsons/v1_VE250_randls_5.json,http://54.235.29.9/FacialAge/BNav_EC2/DepthDuration/v2_depth_duration_MTurk/v2_DepthDuration_HTML.html#8,8,1536,864,1536,864,8-20-2022,11-0-7,81,depth_duration_stimuli/001056_2014-06-08_18-46-44_260595134347_rgbf000068-resize_0/001056_2014-06-08_18-46-44_260595134347_rgbf000068-resize_0-target.png,250,2.6625,7,2040,253,feet,jsons/v1_VE250_randls_5.json,525358,1201903,27,Man
81,723081,DepthScenes,duration_manipulation_targetAtFixation,jsons/v1_VE250_randls_5.json,http://54.235.29.9/FacialAge/BNav_EC2/DepthDuration/v2_depth_duration_MTurk/v2_DepthDuration_HTML.html#8,8,1536,864,1536,864,8-20-2022,11-0-7,82,depth_duration_stimuli/002199_2014-06-28_18-33-56_260595134347_rgbf000074-resize_0/002199_2014-06-28_18-33-56_260595134347_rgbf000074-resize_0-target.png,250,1.996,3,1955,261,feet,jsons/v1_VE250_randls_5.json,525358,1201903,27,Man
82,723081,DepthScenes,duration_manipulation_targetAtFixation,jsons/v1_VE250_randls_5.json,http://54.235.29.9/FacialAge/BNav_EC2/DepthDuration/v2_depth_duration_MTurk/v2_DepthDuration_HTML.html#8,8,1536,864,1536,864,8-20-2022,11-0-7,83,depth_duration_stimuli/000736_2014-06-08_18-24-15_260595134347_rgbf000206-resize_3/000736_2014-06-08_18-24-15_260595134347_rgbf000206-resize_3-target.png,250,3.515,6,2119,253,feet,jsons/v1_VE250_randls_5.json,525358,1201903,27,Man
83,723081,DepthScenes,duration_manipulation_targetAtFixation,jsons/v1_VE250_randls_5.json,http://54.235.29.9/FacialAge/BNav_EC2/DepthDuration/v2_depth_duration_MTurk/v2_DepthDuration_HTML.html#8,8,1536,864,1536,864,8-20-2022,11-0-7,84,depth_duration_stimuli/000137_2014-05-20_17-04-49_260595134347_rgbf000120-resize_1/000137_2014-05-20_17-04-49_260595134347_rgbf000120-resize_1-target.png,250,3.786,7,2461,239,feet,jsons/v1_VE250_randls_5.json,525358,1201903,27,Man
84,723081,DepthScenes,duration_manipulation_targetAtFixation,jsons/v1_VE250_randls_5.json,http://54.235.29.9/FacialAge/BNav_EC2/DepthDuration/v2_depth_duration_MTurk/v2_DepthDuration_HTML.html#8,8,1536,864,1536,864,8-20-2022,11-0-7,85,depth_duration_stimuli/003534_2014-05-22_15-06-10_094959634447_rgbf000102-resize_4/003534_2014-05-22_15-06-10_094959634447_rgbf000102-resize_4-target.png,250,1.426,2,2433,244,feet,jsons/v1_VE250_randls_5.json,525358,1201903,27,Man
85,723081,DepthScenes,duration_manipulation_targetAtFixation,jsons/v1_VE250_randls_5.json,http://54.235.29.9/FacialAge/BNav_EC2/DepthDuration/v2_depth_duration_MTurk/v2_DepthDuration_HTML.html#8,8,1536,864,1536,864,8-20-2022,11-0-7,86,depth_duration_stimuli/002637_2014-06-24_14-51-13_094959634447_rgbf000066-resize_4/002637_2014-06-24_14-51-13_094959634447_rgbf000066-resize_4-target.png,250,1.9955,5,2660,259,feet,jsons/v1_VE250_randls_5.json,525358,1201903,27,Man
86,723081,DepthScenes,duration_manipulation_targetAtFixation,jsons/v1_VE250_randls_5.json,http://54.235.29.9/FacialAge/BNav_EC2/DepthDuration/v2_depth_duration_MTurk/v2_DepthDuration_HTML.html#8,8,1536,864,1536,864,8-20-2022,11-0-7,87,depth_duration_stimuli/003292_2014-05-14_21-53-49_094959634447_rgbf000100-resize_2/003292_2014-05-14_21-53-49_094959634447_rgbf000100-resize_2-target.png,250,3.4815,7,2039,264,feet,jsons/v1_VE250_randls_5.json,525358,1201903,27,Man
87,723081,DepthScenes,duration_manipulation_targetAtFixation,jsons/v1_VE250_randls_5.json,http://54.235.29.9/FacialAge/BNav_EC2/DepthDuration/v2_depth_duration_MTurk/v2_DepthDuration_HTML.html#8,8,1536,864,1536,864,8-20-2022,11-0-7,88,depth_duration_stimuli/002639_2014-06-24_14-51-37_094959634447_rgbf000074-resize_4/002639_2014-06-24_14-51-37_094959634447_rgbf000074-resize_4-target.png,250,4.0375,10,2187,240,feet,jsons/v1_VE250_randls_5.json,525358,1201903,27,Man
88,723081,DepthScenes,duration_manipulation_targetAtFixation,jsons/v1_VE250_randls_5.json,http://54.235.29.9/FacialAge/BNav_EC2/DepthDuration/v2_depth_duration_MTurk/v2_DepthDuration_HTML.html#8,8,1536,864,1536,864,8-20-2022,11-0-7,89,depth_duration_stimuli/000929_2014-06-09_16-33-19_260595134347_rgbf000139-resize_0/000929_2014-06-09_16-33-19_260595134347_rgbf000139-resize_0-target.png,250,2.8680000000000003,6,7785,239,feet,jsons/v1_VE250_randls_5.json,525358,1201903,27,Man
89,723081,DepthScenes,duration_manipulation_targetAtFixation,jsons/v1_VE250_randls_5.json,http://54.235.29.9/FacialAge/BNav_EC2/DepthDuration/v2_depth_duration_MTurk/v2_DepthDuration_HTML.html#8,8,1536,864,1536,864,8-20-2022,11-0-7,90,depth_duration_stimuli/000457_2014-06-08_16-52-43_260595134347_rgbf000199-resize_1/000457_2014-06-08_16-52-43_260595134347_rgbf000199-resize_1-target.png,250,3.6489999999999996,0,3413,236,feet,jsons/v1_VE250_randls_5.json,525358,1201903,27,Man
90,723081,DepthScenes,duration_manipulation_targetAtFixation,jsons/v1_VE250_randls_5.json,http://54.235.29.9/FacialAge/BNav_EC2/DepthDuration/v2_depth_duration_MTurk/v2_DepthDuration_HTML.html#8,8,1536,864,1536,864,8-20-2022,11-0-7,91,depth_duration_stimuli/002570_2014-06-24_13-59-54_094959634447_rgbf000059-resize_0/002570_2014-06-24_13-59-54_094959634447_rgbf000059-resize_0-target.png,250,4.037,8,2533,249,feet,jsons/v1_VE250_randls_5.json,525358,1201903,27,Man
91,723081,DepthScenes,duration_manipulation_targetAtFixation,jsons/v1_VE250_randls_5.json,http://54.235.29.9/FacialAge/BNav_EC2/DepthDuration/v2_depth_duration_MTurk/v2_DepthDuration_HTML.html#8,8,1536,864,1536,864,8-20-2022,11-0-7,92,depth_duration_stimuli/002467_2014-06-28_20-38-07_260595134347_rgbf000026-resize_2/002467_2014-06-28_20-38-07_260595134347_rgbf000026-resize_2-target.png,250,4.742,8,2174,258,feet,jsons/v1_VE250_randls_5.json,525358,1201903,27,Man
92,723081,DepthScenes,duration_manipulation_targetAtFixation,jsons/v1_VE250_randls_5.json,http://54.235.29.9/FacialAge/BNav_EC2/DepthDuration/v2_depth_duration_MTurk/v2_DepthDuration_HTML.html#8,8,1536,864,1536,864,8-20-2022,11-0-7,93,depth_duration_stimuli/001417_2014-06-19_16-25-36_260595134347_rgbf000115-resize_5/001417_2014-06-19_16-25-36_260595134347_rgbf000115-resize_5-target.png,250,4.6255,7,2289,269,feet,jsons/v1_VE250_randls_5.json,525358,1201903,27,Man
93,723081,DepthScenes,duration_manipulation_targetAtFixation,jsons/v1_VE250_randls_5.json,http://54.235.29.9/FacialAge/BNav_EC2/DepthDuration/v2_depth_duration_MTurk/v2_DepthDuration_HTML.html#8,8,1536,864,1536,864,8-20-2022,11-0-7,94,depth_duration_stimuli/003081_2014-06-15_15-19-16_094959634447_rgbf000150-resize_1/003081_2014-06-15_15-19-16_094959634447_rgbf000150-resize_1-target.png,250,3.9125,7,2190,244,feet,jsons/v1_VE250_randls_5.json,525358,1201903,27,Man
94,723081,DepthScenes,duration_manipulation_targetAtFixation,jsons/v1_VE250_randls_5.json,http://54.235.29.9/FacialAge/BNav_EC2/DepthDuration/v2_depth_duration_MTurk/v2_DepthDuration_HTML.html#8,8,1536,864,1536,864,8-20-2022,11-0-7,95,depth_duration_stimuli/002630_2014-06-24_14-47-50_094959634447_rgbf000055-resize_1/002630_2014-06-24_14-47-50_094959634447_rgbf000055-resize_1-target.png,250,3.0095,6,2249,249,feet,jsons/v1_VE250_randls_5.json,525358,1201903,27,Man
95,723081,DepthScenes,duration_manipulation_targetAtFixation,jsons/v1_VE250_randls_5.json,http://54.235.29.9/FacialAge/BNav_EC2/DepthDuration/v2_depth_duration_MTurk/v2_DepthDuration_HTML.html#8,8,1536,864,1536,864,8-20-2022,11-0-7,96,depth_duration_stimuli/002758_2014-06-22_19-11-20_094959634447_rgbf000128-resize_1/002758_2014-06-22_19-11-20_094959634447_rgbf000128-resize_1-target.png,250,2.555,5,3297,244,feet,jsons/v1_VE250_randls_5.json,525358,1201903,27,Man
96,723081,DepthScenes,duration_manipulation_targetAtFixation,jsons/v1_VE250_randls_5.json,http://54.235.29.9/FacialAge/BNav_EC2/DepthDuration/v2_depth_duration_MTurk/v2_DepthDuration_HTML.html#8,8,1536,864,1536,864,8-20-2022,11-0-7,97,depth_duration_stimuli/002272_2014-06-28_18-53-56_260595134347_rgbf000067-resize_2/002272_2014-06-28_18-53-56_260595134347_rgbf000067-resize_2-target.png,250,1.138,3,2097,258,feet,jsons/v1_VE250_randls_5.json,525358,1201903,27,Man
97,723081,DepthScenes,duration_manipulation_targetAtFixation,jsons/v1_VE250_randls_5.json,http://54.235.29.9/FacialAge/BNav_EC2/DepthDuration/v2_depth_duration_MTurk/v2_DepthDuration_HTML.html#8,8,1536,864,1536,864,8-20-2022,11-0-7,98,depth_duration_stimuli/001571_2014-06-20_17-21-32_260595134347_rgbf000089-resize_1/001571_2014-06-20_17-21-32_260595134347_rgbf000089-resize_1-target.png,250,1.86,4,3142,248,feet,jsons/v1_VE250_randls_5.json,525358,1201903,27,Man
98,723081,DepthScenes,duration_manipulation_targetAtFixation,jsons/v1_VE250_randls_5.json,http://54.235.29.9/FacialAge/BNav_EC2/DepthDuration/v2_depth_duration_MTurk/v2_DepthDuration_HTML.html#8,8,1536,864,1536,864,8-20-2022,11-0-7,99,depth_duration_stimuli/001540_2014-06-20_17-01-05_260595134347_rgbf000086-resize_2/001540_2014-06-20_17-01-05_260595134347_rgbf000086-resize-original.jpg,250,1.459,0,2460,248,feet,jsons/v1_VE250_randls_5.json,525358,1201903,27,Man
99,723081,DepthScenes,duration_manipulation_targetAtFixation,jsons/v1_VE250_randls_5.json,http://54.235.29.9/FacialAge/BNav_EC2/DepthDuration/v2_depth_duration_MTurk/v2_DepthDuration_HTML.html#8,8,1536,864,1536,864,8-20-2022,11-0-7,100,depth_duration_stimuli/000906_2014-06-08_13-35-43_260595134347_rgbf000155-resize_1/000906_2014-06-08_13-35-43_260595134347_rgbf000155-resize_1-target.png,250,2.8489999999999998,5,2880,239,feet,jsons/v1_VE250_randls_5.json,525358,1201903,27,Man
100,723081,DepthScenes,duration_manipulation_targetAtFixation,jsons/v1_VE250_randls_5.json,http://54.235.29.9/FacialAge/BNav_EC2/DepthDuration/v2_depth_duration_MTurk/v2_DepthDuration_HTML.html#8,8,1536,864,1536,864,8-20-2022,11-0-7,101,depth_duration_stimuli/002805_2014-06-22_19-54-03_094959634447_rgbf000079-resize_1/002805_2014-06-22_19-54-03_094959634447_rgbf000079-resize_1-target.png,250,3.1439999999999997,6,2639,247,feet,jsons/v1_VE250_randls_5.json,525358,1201903,27,Man
101,723081,DepthScenes,duration_manipulation_targetAtFixation,jsons/v1_VE250_randls_5.json,http://54.235.29.9/FacialAge/BNav_EC2/DepthDuration/v2_depth_duration_MTurk/v2_DepthDuration_HTML.html#8,8,1536,864,1536,864,8-20-2022,11-0-7,102,depth_duration_stimuli/001092_2014-06-15_17-34-58_260595134347_rgbf000171-resize_3/001092_2014-06-15_17-34-58_260595134347_rgbf000171-resize_3-target.png,250,2.6935,6,2394,242,feet,jsons/v1_VE250_randls_5.json,525358,1201903,27,Man
102,723081,DepthScenes,duration_manipulation_targetAtFixation,jsons/v1_VE250_randls_5.json,http://54.235.29.9/FacialAge/BNav_EC2/DepthDuration/v2_depth_duration_MTurk/v2_DepthDuration_HTML.html#8,8,1536,864,1536,864,8-20-2022,11-0-7,103,depth_duration_stimuli/002545_2014-06-24_13-38-53_094959634447_rgbf000080-resize_4/002545_2014-06-24_13-38-53_094959634447_rgbf000080-resize_4-target.png,250,1.9205,7,2002,263,feet,jsons/v1_VE250_randls_5.json,525358,1201903,27,Man
103,723081,DepthScenes,duration_manipulation_targetAtFixation,jsons/v1_VE250_randls_5.json,http://54.235.29.9/FacialAge/BNav_EC2/DepthDuration/v2_depth_duration_MTurk/v2_DepthDuration_HTML.html#8,8,1536,864,1536,864,8-20-2022,11-0-7,104,depth_duration_stimuli/000368_2014-06-09_15-53-01_260595134347_rgbf000155-resize_2/000368_2014-06-09_15-53-01_260595134347_rgbf000155-resize_2-target.png,250,2.4859999999999998,4,2299,249,feet,jsons/v1_VE250_randls_5.json,525358,1201903,27,Man
104,723081,DepthScenes,duration_manipulation_targetAtFixation,jsons/v1_VE250_randls_5.json,http://54.235.29.9/FacialAge/BNav_EC2/DepthDuration/v2_depth_duration_MTurk/v2_DepthDuration_HTML.html#8,8,1536,864,1536,864,8-20-2022,11-0-7,105,depth_duration_stimuli/002678_2014-06-13_16-15-32_094959634447_rgbf000151-resize_6/002678_2014-06-13_16-15-32_094959634447_rgbf000151-resize_6-target.png,250,2.1830000000000003,6,3628,248,feet,jsons/v1_VE250_randls_5.json,525358,1201903,27,Man
105,723081,DepthScenes,duration_manipulation_targetAtFixation,jsons/v1_VE250_randls_5.json,http://54.235.29.9/FacialAge/BNav_EC2/DepthDuration/v2_depth_duration_MTurk/v2_DepthDuration_HTML.html#8,8,1536,864,1536,864,8-20-2022,11-0-7,106,depth_duration_stimuli/000436_2014-06-09_22-25-11_260595134347_rgbf000137-resize_1/000436_2014-06-09_22-25-11_260595134347_rgbf000137-resize_1-target.png,250,4.0705,8,2367,259,feet,jsons/v1_VE250_randls_5.json,525358,1201903,27,Man
106,723081,DepthScenes,duration_manipulation_targetAtFixation,jsons/v1_VE250_randls_5.json,http://54.235.29.9/FacialAge/BNav_EC2/DepthDuration/v2_depth_duration_MTurk/v2_DepthDuration_HTML.html#8,8,1536,864,1536,864,8-20-2022,11-0-7,107,depth_duration_stimuli/002444_2014-06-28_20-32-08_260595134347_rgbf000027-resize_0/002444_2014-06-28_20-32-08_260595134347_rgbf000027-resize_0-target.png,250,4.388999999999999,8,2505,247,feet,jsons/v1_VE250_randls_5.json,525358,1201903,27,Man
107,723081,DepthScenes,duration_manipulation_targetAtFixation,jsons/v1_VE250_randls_5.json,http://54.235.29.9/FacialAge/BNav_EC2/DepthDuration/v2_depth_duration_MTurk/v2_DepthDuration_HTML.html#8,8,1536,864,1536,864,8-20-2022,11-0-7,108,depth_duration_stimuli/000414_2014-06-04_19-49-13_260595134347_rgbf000044-resize_0/000414_2014-06-04_19-49-13_260595134347_rgbf000044-resize_0-target.png,250,4.329,8,2196,246,feet,jsons/v1_VE250_randls_5.json,525358,1201903,27,Man
108,723081,DepthScenes,duration_manipulation_targetAtFixation,jsons/v1_VE250_randls_5.json,http://54.235.29.9/FacialAge/BNav_EC2/DepthDuration/v2_depth_duration_MTurk/v2_DepthDuration_HTML.html#8,8,1536,864,1536,864,8-20-2022,11-0-7,109,depth_duration_stimuli/003129_2014-05-12_10-48-10_094959634447_rgbf000100-resize_0/003129_2014-05-12_10-48-10_094959634447_rgbf000100-resize_0-target.png,250,4.9305,8,1961,249,feet,jsons/v1_VE250_randls_5.json,525358,1201903,27,Man
109,723081,DepthScenes,duration_manipulation_targetAtFixation,jsons/v1_VE250_randls_5.json,http://54.235.29.9/FacialAge/BNav_EC2/DepthDuration/v2_depth_duration_MTurk/v2_DepthDuration_HTML.html#8,8,1536,864,1536,864,8-20-2022,11-0-7,110,depth_duration_stimuli/000493_2014-06-09_21-01-18_260595134347_rgbf000196-resize_3/000493_2014-06-09_21-01-18_260595134347_rgbf000196-resize_3-target.png,250,3.44,6,2120,250,feet,jsons/v1_VE250_randls_5.json,525358,1201903,27,Man
110,723081,DepthScenes,duration_manipulation_targetAtFixation,jsons/v1_VE250_randls_5.json,http://54.235.29.9/FacialAge/BNav_EC2/DepthDuration/v2_depth_duration_MTurk/v2_DepthDuration_HTML.html#8,8,1536,864,1536,864,8-20-2022,11-0-7,111,depth_duration_stimuli/000191_2014-05-12_17-07-38_260595134347_rgbf000199-resize_0/000191_2014-05-12_17-07-38_260595134347_rgbf000199-resize_0-target.png,250,3.7995,7,2008,239,feet,jsons/v1_VE250_randls_5.json,525358,1201903,27,Man
111,723081,DepthScenes,duration_manipulation_targetAtFixation,jsons/v1_VE250_randls_5.json,http://54.235.29.9/FacialAge/BNav_EC2/DepthDuration/v2_depth_duration_MTurk/v2_DepthDuration_HTML.html#8,8,1536,864,1536,864,8-20-2022,11-0-7,112,depth_duration_stimuli/002375_2014-06-28_20-13-44_260595134347_rgbf000032-resize_1/002375_2014-06-28_20-13-44_260595134347_rgbf000032-resize_1-target.png,250,4.0175,6,2104,239,feet,jsons/v1_VE250_randls_5.json,525358,1201903,27,Man
112,723081,DepthScenes,duration_manipulation_targetAtFixation,jsons/v1_VE250_randls_5.json,http://54.235.29.9/FacialAge/BNav_EC2/DepthDuration/v2_depth_duration_MTurk/v2_DepthDuration_HTML.html#8,8,1536,864,1536,864,8-20-2022,11-0-7,113,depth_duration_stimuli/002657_2014-06-13_15-29-54_094959634447_rgbf000150-resize_1/002657_2014-06-13_15-29-54_094959634447_rgbf000150-resize_1-target.png,250,4.919,8,1979,254,feet,jsons/v1_VE250_randls_5.json,525358,1201903,27,Man
113,723081,DepthScenes,duration_manipulation_targetAtFixation,jsons/v1_VE250_randls_5.json,http://54.235.29.9/FacialAge/BNav_EC2/DepthDuration/v2_depth_duration_MTurk/v2_DepthDuration_HTML.html#8,8,1536,864,1536,864,8-20-2022,11-0-7,114,depth_duration_stimuli/002763_2014-06-22_19-13-10_094959634447_rgbf000075-resize_4/002763_2014-06-22_19-13-10_094959634447_rgbf000075-resize_4-target.png,250,1.68375,4,2037,240,feet,jsons/v1_VE250_randls_5.json,525358,1201903,27,Man
114,723081,DepthScenes,duration_manipulation_targetAtFixation,jsons/v1_VE250_randls_5.json,http://54.235.29.9/FacialAge/BNav_EC2/DepthDuration/v2_depth_duration_MTurk/v2_DepthDuration_HTML.html#8,8,1536,864,1536,864,8-20-2022,11-0-7,115,depth_duration_stimuli/002209_2014-06-28_18-36-10_260595134347_rgbf000051-resize_1/002209_2014-06-28_18-36-10_260595134347_rgbf000051-resize_1-target.png,250,2.057,5,1825,256,feet,jsons/v1_VE250_randls_5.json,525358,1201903,27,Man
115,723081,DepthScenes,duration_manipulation_targetAtFixation,jsons/v1_VE250_randls_5.json,http://54.235.29.9/FacialAge/BNav_EC2/DepthDuration/v2_depth_duration_MTurk/v2_DepthDuration_HTML.html#8,8,1536,864,1536,864,8-20-2022,11-0-7,116,depth_duration_stimuli/001170_2014-06-17_15-43-44_260595134347_rgbf000096-resize_6/001170_2014-06-17_15-43-44_260595134347_rgbf000096-resize-original.jpg,250,1.1909999999999998,0,4183,260,feet,jsons/v1_VE250_randls_5.json,525358,1201903,27,Man
116,723081,DepthScenes,duration_manipulation_targetAtFixation,jsons/v1_VE250_randls_5.json,http://54.235.29.9/FacialAge/BNav_EC2/DepthDuration/v2_depth_duration_MTurk/v2_DepthDuration_HTML.html#8,8,1536,864,1536,864,8-20-2022,11-0-7,117,depth_duration_stimuli/002788_2014-06-22_19-36-03_094959634447_rgbf000088-resize_2/002788_2014-06-22_19-36-03_094959634447_rgbf000088-resize_2-target.png,250,1.6465,5,2107,248,feet,jsons/v1_VE250_randls_5.json,525358,1201903,27,Man
117,723081,DepthScenes,duration_manipulation_targetAtFixation,jsons/v1_VE250_randls_5.json,http://54.235.29.9/FacialAge/BNav_EC2/DepthDuration/v2_depth_duration_MTurk/v2_DepthDuration_HTML.html#8,8,1536,864,1536,864,8-20-2022,11-0-7,118,depth_duration_stimuli/000749_2014-06-08_21-55-06_260595134347_rgbf000070-resize_2/000749_2014-06-08_21-55-06_260595134347_rgbf000070-resize_2-target.png,250,2.331,5,2419,234,feet,jsons/v1_VE250_randls_5.json,525358,1201903,27,Man
118,723081,DepthScenes,duration_manipulation_targetAtFixation,jsons/v1_VE250_randls_5.json,http://54.235.29.9/FacialAge/BNav_EC2/DepthDuration/v2_depth_duration_MTurk/v2_DepthDuration_HTML.html#8,8,1536,864,1536,864,8-20-2022,11-0-7,119,depth_duration_stimuli/000773_2014-06-08_22-24-54_260595134347_rgbf000093-resize_1/000773_2014-06-08_22-24-54_260595134347_rgbf000093-resize_1-target.png,250,4.973,7,2086,249,feet,jsons/v1_VE250_randls_5.json,525358,1201903,27,Man
119,723081,DepthScenes,duration_manipulation_targetAtFixation,jsons/v1_VE250_randls_5.json,http://54.235.29.9/FacialAge/BNav_EC2/DepthDuration/v2_depth_duration_MTurk/v2_DepthDuration_HTML.html#8,8,1536,864,1536,864,8-20-2022,11-0-7,120,depth_duration_stimuli/002414_2014-06-28_20-24-58_260595134347_rgbf000067-resize_4/002414_2014-06-28_20-24-58_260595134347_rgbf000067-resize_4-target.png,250,4.363,8,1903,239,feet,jsons/v1_VE250_randls_5.json,525358,1201903,27,Man
120,723081,DepthScenes,duration_manipulation_targetAtFixation,jsons/v1_VE250_randls_5.json,http://54.235.29.9/FacialAge/BNav_EC2/DepthDuration/v2_depth_duration_MTurk/v2_DepthDuration_HTML.html#8,8,1536,864,1536,864,8-20-2022,11-0-7,121,depth_duration_stimuli/002989_2014-06-15_12-25-03_094959634447_rgbf000150-resize_3/002989_2014-06-15_12-25-03_094959634447_rgbf000150-resize_3-target.png,250,4.1975,9,2331,245,feet,jsons/v1_VE250_randls_5.json,525358,1201903,27,Man
121,723081,DepthScenes,duration_manipulation_targetAtFixation,jsons/v1_VE250_randls_5.json,http://54.235.29.9/FacialAge/BNav_EC2/DepthDuration/v2_depth_duration_MTurk/v2_DepthDuration_HTML.html#8,8,1536,864,1536,864,8-20-2022,11-0-7,122,depth_duration_stimuli/000866_2014-06-09_20-45-42_260595134347_rgbf000139-resize_1/000866_2014-06-09_20-45-42_260595134347_rgbf000139-resize_1-target.png,250,3.2155,5,1955,255,feet,jsons/v1_VE250_randls_5.json,525358,1201903,27,Man
122,723081,DepthScenes,duration_manipulation_targetAtFixation,jsons/v1_VE250_randls_5.json,http://54.235.29.9/FacialAge/BNav_EC2/DepthDuration/v2_depth_duration_MTurk/v2_DepthDuration_HTML.html#8,8,1536,864,1536,864,8-20-2022,11-0-7,123,depth_duration_stimuli/000522_2014-06-08_13-35-06_260595134347_rgbf000244-resize_1/000522_2014-06-08_13-35-06_260595134347_rgbf000244-resize_1-target.png,250,2.3715,5,1943,259,feet,jsons/v1_VE250_randls_5.json,525358,1201903,27,Man
123,723081,DepthScenes,duration_manipulation_targetAtFixation,jsons/v1_VE250_randls_5.json,http://54.235.29.9/FacialAge/BNav_EC2/DepthDuration/v2_depth_duration_MTurk/v2_DepthDuration_HTML.html#8,8,1536,864,1536,864,8-20-2022,11-0-7,124,depth_duration_stimuli/002949_2014-06-26_15-57-42_094959634447_rgbf000079-resize_1/002949_2014-06-26_15-57-42_094959634447_rgbf000079-resize_1-target.png,250,1.8915,5,1869,256,feet,jsons/v1_VE250_randls_5.json,525358,1201903,27,Man
124,723081,DepthScenes,duration_manipulation_targetAtFixation,jsons/v1_VE250_randls_5.json,http://54.235.29.9/FacialAge/BNav_EC2/DepthDuration/v2_depth_duration_MTurk/v2_DepthDuration_HTML.html#8,8,1536,864,1536,864,8-20-2022,11-0-7,125,depth_duration_stimuli/002445_2014-06-28_20-32-16_260595134347_rgbf000029-resize_4/002445_2014-06-28_20-32-16_260595134347_rgbf000029-resize_4-target.png,250,2.5315,6,3396,249,feet,jsons/v1_VE250_randls_5.json,525358,1201903,27,Man
125,723081,DepthScenes,duration_manipulation_targetAtFixation,jsons/v1_VE250_randls_5.json,http://54.235.29.9/FacialAge/BNav_EC2/DepthDuration/v2_depth_duration_MTurk/v2_DepthDuration_HTML.html#8,8,1536,864,1536,864,8-20-2022,11-0-7,126,depth_duration_stimuli/000780_2014-06-08_22-28-29_260595134347_rgbf000126-resize_1/000780_2014-06-08_22-28-29_260595134347_rgbf000126-resize_1-target.png,250,3.3825,7,2021,250,feet,jsons/v1_VE250_randls_5.json,525358,1201903,27,Man
126,723081,DepthScenes,duration_manipulation_targetAtFixation,jsons/v1_VE250_randls_5.json,http://54.235.29.9/FacialAge/BNav_EC2/DepthDuration/v2_depth_duration_MTurk/v2_DepthDuration_HTML.html#8,8,1536,864,1536,864,8-20-2022,11-0-7,127,depth_duration_stimuli/003070_2014-06-15_14-58-27_094959634447_rgbf000150-resize_3/003070_2014-06-15_14-58-27_094959634447_rgbf000150-resize_3-target.png,250,2.9415,8,2117,253,feet,jsons/v1_VE250_randls_5.json,525358,1201903,27,Man
127,723081,DepthScenes,duration_manipulation_targetAtFixation,jsons/v1_VE250_randls_5.json,http://54.235.29.9/FacialAge/BNav_EC2/DepthDuration/v2_depth_duration_MTurk/v2_DepthDuration_HTML.html#8,8,1536,864,1536,864,8-20-2022,11-0-7,128,depth_duration_stimuli/000943_2014-06-09_19-31-07_260595134347_rgbf000128-resize_1/000943_2014-06-09_19-31-07_260595134347_rgbf000128-resize_1-target.png,250,1.9765,5,2075,259,feet,jsons/v1_VE250_randls_5.json,525358,1201903,27,Man
128,723081,DepthScenes,duration_manipulation_targetAtFixation,jsons/v1_VE250_randls_5.json,http://54.235.29.9/FacialAge/BNav_EC2/DepthDuration/v2_depth_duration_MTurk/v2_DepthDuration_HTML.html#8,8,1536,864,1536,864,8-20-2022,11-0-7,129,depth_duration_stimuli/002748_2014-06-22_19-07-22_094959634447_rgbf000078-resize_1/002748_2014-06-22_19-07-22_094959634447_rgbf000078-resize_1-target.png,250,4.6705,11,2474,240,feet,jsons/v1_VE250_randls_5.json,525358,1201903,27,Man
129,723081,DepthScenes,duration_manipulation_targetAtFixation,jsons/v1_VE250_randls_5.json,http://54.235.29.9/FacialAge/BNav_EC2/DepthDuration/v2_depth_duration_MTurk/v2_DepthDuration_HTML.html#8,8,1536,864,1536,864,8-20-2022,11-0-7,130,depth_duration_stimuli/002995_2014-06-15_12-31-26_094959634447_rgbf000150-resize_1/002995_2014-06-15_12-31-26_094959634447_rgbf000150-resize_1-target.png,250,3.8360000000000003,10,2322,249,feet,jsons/v1_VE250_randls_5.json,525358,1201903,27,Man
130,723081,DepthScenes,duration_manipulation_targetAtFixation,jsons/v1_VE250_randls_5.json,http://54.235.29.9/FacialAge/BNav_EC2/DepthDuration/v2_depth_duration_MTurk/v2_DepthDuration_HTML.html#8,8,1536,864,1536,864,8-20-2022,11-0-7,131,depth_duration_stimuli/001066_2014-06-08_22-03-20_260595134347_rgbf000066-resize_4/001066_2014-06-08_22-03-20_260595134347_rgbf000066-resize_4-target.png,250,4.2330000000000005,10,2903,254,feet,jsons/v1_VE250_randls_5.json,525358,1201903,27,Man
131,723081,DepthScenes,duration_manipulation_targetAtFixation,jsons/v1_VE250_randls_5.json,http://54.235.29.9/FacialAge/BNav_EC2/DepthDuration/v2_depth_duration_MTurk/v2_DepthDuration_HTML.html#8,8,1536,864,1536,864,8-20-2022,11-0-7,132,depth_duration_stimuli/000742_2014-06-08_18-48-09_260595134347_rgbf000164-resize_4/000742_2014-06-08_18-48-09_260595134347_rgbf000164-resize_4-target.png,250,4.632,9,2733,250,feet,jsons/v1_VE250_randls_5.json,525358,1201903,27,Man
132,723081,DepthScenes,duration_manipulation_targetAtFixation,jsons/v1_VE250_randls_5.json,http://54.235.29.9/FacialAge/BNav_EC2/DepthDuration/v2_depth_duration_MTurk/v2_DepthDuration_HTML.html#8,8,1536,864,1536,864,8-20-2022,11-0-7,133,depth_duration_stimuli/002784_2014-06-22_19-26-30_094959634447_rgbf000083-resize_3/002784_2014-06-22_19-26-30_094959634447_rgbf000083-resize_3-target.png,250,1.8046666666667,3,2993,260,feet,jsons/v1_VE250_randls_5.json,525358,1201903,27,Man
133,723081,DepthScenes,duration_manipulation_targetAtFixation,jsons/v1_VE250_randls_5.json,http://54.235.29.9/FacialAge/BNav_EC2/DepthDuration/v2_depth_duration_MTurk/v2_DepthDuration_HTML.html#8,8,1536,864,1536,864,8-20-2022,11-0-7,134,depth_duration_stimuli/001100_2014-06-15_17-46-26_260595134347_rgbf000225-resize_2/001100_2014-06-15_17-46-26_260595134347_rgbf000225-resize_2-target.png,250,2.24,4,2472,258,feet,jsons/v1_VE250_randls_5.json,525358,1201903,27,Man
134,723081,DepthScenes,duration_manipulation_targetAtFixation,jsons/v1_VE250_randls_5.json,http://54.235.29.9/FacialAge/BNav_EC2/DepthDuration/v2_depth_duration_MTurk/v2_DepthDuration_HTML.html#8,8,1536,864,1536,864,8-20-2022,11-0-7,135,depth_duration_stimuli/002072_2014-06-24_21-48-06_260595134347_rgbf000115-resize_0/002072_2014-06-24_21-48-06_260595134347_rgbf000115-resize-original.jpg,250,4.702,0,2497,265,feet,jsons/v1_VE250_randls_5.json,525358,1201903,27,Man
135,723081,DepthScenes,duration_manipulation_targetAtFixation,jsons/v1_VE250_randls_5.json,http://54.235.29.9/FacialAge/BNav_EC2/DepthDuration/v2_depth_duration_MTurk/v2_DepthDuration_HTML.html#8,8,1536,864,1536,864,8-20-2022,11-0-7,136,depth_duration_stimuli/001029_2014-06-08_13-17-57_260595134347_rgbf000065-resize_1/001029_2014-06-08_13-17-57_260595134347_rgbf000065-resize_1-target.png,250,3.0835,7,2160,240,feet,jsons/v1_VE250_randls_5.json,525358,1201903,27,Man
136,723081,DepthScenes,duration_manipulation_targetAtFixation,jsons/v1_VE250_randls_5.json,http://54.235.29.9/FacialAge/BNav_EC2/DepthDuration/v2_depth_duration_MTurk/v2_DepthDuration_HTML.html#8,8,1536,864,1536,864,8-20-2022,11-0-7,137,depth_duration_stimuli/000677_2014-06-08_23-10-32_260595134347_rgbf000158-resize_6/000677_2014-06-08_23-10-32_260595134347_rgbf000158-resize_6-target.png,250,3.556,8,2172,242,feet,jsons/v1_VE250_randls_5.json,525358,1201903,27,Man
137,723081,DepthScenes,duration_manipulation_targetAtFixation,jsons/v1_VE250_randls_5.json,http://54.235.29.9/FacialAge/BNav_EC2/DepthDuration/v2_depth_duration_MTurk/v2_DepthDuration_HTML.html#8,8,1536,864,1536,864,8-20-2022,11-0-7,138,depth_duration_stimuli/002549_2014-06-24_13-41-39_094959634447_rgbf000022-resize_3/002549_2014-06-24_13-41-39_094959634447_rgbf000022-resize_3-target.png,250,1.476,5,1935,260,feet,jsons/v1_VE250_randls_5.json,525358,1201903,27,Man
138,723081,DepthScenes,duration_manipulation_targetAtFixation,jsons/v1_VE250_randls_5.json,http://54.235.29.9/FacialAge/BNav_EC2/DepthDuration/v2_depth_duration_MTurk/v2_DepthDuration_HTML.html#8,8,1536,864,1536,864,8-20-2022,11-0-7,139,depth_duration_stimuli/002750_2014-06-22_19-08-03_094959634447_rgbf000094-resize_4/002750_2014-06-22_19-08-03_094959634447_rgbf000094-resize_4-target.png,250,2.354,7,2421,259,feet,jsons/v1_VE250_randls_5.json,525358,1201903,27,Man
139,723081,DepthScenes,duration_manipulation_targetAtFixation,jsons/v1_VE250_randls_5.json,http://54.235.29.9/FacialAge/BNav_EC2/DepthDuration/v2_depth_duration_MTurk/v2_DepthDuration_HTML.html#8,8,1536,864,1536,864,8-20-2022,11-0-7,140,depth_duration_stimuli/002039_2014-06-24_20-22-38_260595134347_rgbf000084-resize_1/002039_2014-06-24_20-22-38_260595134347_rgbf000084-resize_1-target.png,250,4.408,10,3015,249,feet,jsons/v1_VE250_randls_5.json,525358,1201903,27,Man
140,723081,DepthScenes,duration_manipulation_targetAtFixation,jsons/v1_VE250_randls_5.json,http://54.235.29.9/FacialAge/BNav_EC2/DepthDuration/v2_depth_duration_MTurk/v2_DepthDuration_HTML.html#8,8,1536,864,1536,864,8-20-2022,11-0-7,141,depth_duration_stimuli/002103_2014-06-25_20-00-40_260595134347_rgbf000049-resize_0/002103_2014-06-25_20-00-40_260595134347_rgbf000049-resize_0-target.png,250,4.105,7,2075,244,feet,jsons/v1_VE250_randls_5.json,525358,1201903,27,Man
141,723081,DepthScenes,duration_manipulation_targetAtFixation,jsons/v1_VE250_randls_5.json,http://54.235.29.9/FacialAge/BNav_EC2/DepthDuration/v2_depth_duration_MTurk/v2_DepthDuration_HTML.html#8,8,1536,864,1536,864,8-20-2022,11-0-7,142,depth_duration_stimuli/002509_2014-06-24_13-19-22_094959634447_rgbf000077-resize_0/002509_2014-06-24_13-19-22_094959634447_rgbf000077-resize_0-target.png,250,1.3065,3,1842,249,feet,jsons/v1_VE250_randls_5.json,525358,1201903,27,Man
142,723081,DepthScenes,duration_manipulation_targetAtFixation,jsons/v1_VE250_randls_5.json,http://54.235.29.9/FacialAge/BNav_EC2/DepthDuration/v2_depth_duration_MTurk/v2_DepthDuration_HTML.html#8,8,1536,864,1536,864,8-20-2022,11-0-7,143,depth_duration_stimuli/003338_2014-05-20_11-01-23_094959634447_rgbf000051-resize_6/003338_2014-05-20_11-01-23_094959634447_rgbf000051-resize_6-target.png,250,1.693,5,2019,257,feet,jsons/v1_VE250_randls_5.json,525358,1201903,27,Man
143,723081,DepthScenes,duration_manipulation_targetAtFixation,jsons/v1_VE250_randls_5.json,http://54.235.29.9/FacialAge/BNav_EC2/DepthDuration/v2_depth_duration_MTurk/v2_DepthDuration_HTML.html#8,8,1536,864,1536,864,8-20-2022,11-0-7,144,depth_duration_stimuli/001110_2014-06-15_17-25-28_260595134347_rgbf000150-resize_1/001110_2014-06-15_17-25-28_260595134347_rgbf000150-resize_1-target.png,250,1.7115,5,1994,242,feet,jsons/v1_VE250_randls_5.json,525358,1201903,27,Man
144,723081,DepthScenes,duration_manipulation_targetAtFixation,jsons/v1_VE250_randls_5.json,http://54.235.29.9/FacialAge/BNav_EC2/DepthDuration/v2_depth_duration_MTurk/v2_DepthDuration_HTML.html#8,8,1536,864,1536,864,8-20-2022,11-0-7,145,depth_duration_stimuli/000927_2014-06-09_16-32-30_260595134347_rgbf000123-resize_3/000927_2014-06-09_16-32-30_260595134347_rgbf000123-resize_3-target.png,250,2.6785,7,1752,261,feet,jsons/v1_VE250_randls_5.json,525358,1201903,27,Man
145,723081,DepthScenes,duration_manipulation_targetAtFixation,jsons/v1_VE250_randls_5.json,http://54.235.29.9/FacialAge/BNav_EC2/DepthDuration/v2_depth_duration_MTurk/v2_DepthDuration_HTML.html#8,8,1536,864,1536,864,8-20-2022,11-0-7,146,depth_duration_stimuli/001498_2014-06-19_17-45-14_260595134347_rgbf000129-resize_4/001498_2014-06-19_17-45-14_260595134347_rgbf000129-resize-original.jpg,250,1.4075,0,2298,247,feet,jsons/v1_VE250_randls_5.json,525358,1201903,27,Man
146,723081,DepthScenes,duration_manipulation_targetAtFixation,jsons/v1_VE250_randls_5.json,http://54.235.29.9/FacialAge/BNav_EC2/DepthDuration/v2_depth_duration_MTurk/v2_DepthDuration_HTML.html#8,8,1536,864,1536,864,8-20-2022,11-0-7,147,depth_duration_stimuli/001011_2014-06-08_23-18-54_260595134347_rgbf000044-resize_4/001011_2014-06-08_23-18-54_260595134347_rgbf000044-resize_4-target.png,250,2.4730000000000003,8,2299,260,feet,jsons/v1_VE250_randls_5.json,525358,1201903,27,Man
147,723081,DepthScenes,duration_manipulation_targetAtFixation,jsons/v1_VE250_randls_5.json,http://54.235.29.9/FacialAge/BNav_EC2/DepthDuration/v2_depth_duration_MTurk/v2_DepthDuration_HTML.html#8,8,1536,864,1536,864,8-20-2022,11-0-7,148,depth_duration_stimuli/002875_2014-06-01_15-19-00_094959634447_rgbf000151-resize_1/002875_2014-06-01_15-19-00_094959634447_rgbf000151-resize_1-target.png,250,1.9675,6,1984,240,feet,jsons/v1_VE250_randls_5.json,525358,1201903,27,Man
148,723081,DepthScenes,duration_manipulation_targetAtFixation,jsons/v1_VE250_randls_5.json,http://54.235.29.9/FacialAge/BNav_EC2/DepthDuration/v2_depth_duration_MTurk/v2_DepthDuration_HTML.html#8,8,1536,864,1536,864,8-20-2022,11-0-7,149,depth_duration_stimuli/001150_2014-06-17_15-27-34_260595134347_rgbf000108-resize_2/001150_2014-06-17_15-27-34_260595134347_rgbf000108-resize_2-target.png,250,4.0325,7,4239,240,feet,jsons/v1_VE250_randls_5.json,525358,1201903,27,Man
149,723081,DepthScenes,duration_manipulation_targetAtFixation,jsons/v1_VE250_randls_5.json,http://54.235.29.9/FacialAge/BNav_EC2/DepthDuration/v2_depth_duration_MTurk/v2_DepthDuration_HTML.html#8,8,1536,864,1536,864,8-20-2022,11-0-7,150,depth_duration_stimuli/000665_2014-06-09_20-42-35_260595134347_rgbf000110-resize_1/000665_2014-06-09_20-42-35_260595134347_rgbf000110-resize_1-target.png,250,3.057,7,2433,262,feet,jsons/v1_VE250_randls_5.json,525358,1201903,27,Man
150,723081,DepthScenes,duration_manipulation_targetAtFixation,jsons/v1_VE250_randls_5.json,http://54.235.29.9/FacialAge/BNav_EC2/DepthDuration/v2_depth_duration_MTurk/v2_DepthDuration_HTML.html#8,8,1536,864,1536,864,8-20-2022,11-0-7,151,depth_duration_stimuli/002043_2014-06-24_20-29-38_260595134347_rgbf000039-resize_4/002043_2014-06-24_20-29-38_260595134347_rgbf000039-resize_4-target.png,250,2.8435,6,2561,239,feet,jsons/v1_VE250_randls_5.json,525358,1201903,27,Man
151,723081,DepthScenes,duration_manipulation_targetAtFixation,jsons/v1_VE250_randls_5.json,http://54.235.29.9/FacialAge/BNav_EC2/DepthDuration/v2_depth_duration_MTurk/v2_DepthDuration_HTML.html#8,8,1536,864,1536,864,8-20-2022,11-0-7,152,depth_duration_stimuli/003048_2014-06-15_13-49-43_094959634447_rgbf000150-resize_1/003048_2014-06-15_13-49-43_094959634447_rgbf000150-resize_1-target.png,250,4.0035,7,1839,249,feet,jsons/v1_VE250_randls_5.json,525358,1201903,27,Man
152,723081,DepthScenes,duration_manipulation_targetAtFixation,jsons/v1_VE250_randls_5.json,http://54.235.29.9/FacialAge/BNav_EC2/DepthDuration/v2_depth_duration_MTurk/v2_DepthDuration_HTML.html#8,8,1536,864,1536,864,8-20-2022,11-0-7,153,depth_duration_stimuli/002988_2014-06-15_12-24-20_094959634447_rgbf000150-resize_1/002988_2014-06-15_12-24-20_094959634447_rgbf000150-resize_1-target.png,250,4.7669999999999995,8,1822,253,feet,jsons/v1_VE250_randls_5.json,525358,1201903,27,Man
153,723081,DepthScenes,duration_manipulation_targetAtFixation,jsons/v1_VE250_randls_5.json,http://54.235.29.9/FacialAge/BNav_EC2/DepthDuration/v2_depth_duration_MTurk/v2_DepthDuration_HTML.html#8,8,1536,864,1536,864,8-20-2022,11-0-7,154,depth_duration_stimuli/001052_2014-06-08_18-24-54_260595134347_rgbf000130-resize_1/001052_2014-06-08_18-24-54_260595134347_rgbf000130-resize_1-target.png,250,4.1045,6,2123,255,feet,jsons/v1_VE250_randls_5.json,525358,1201903,27,Man
154,723081,DepthScenes,duration_manipulation_targetAtFixation,jsons/v1_VE250_randls_5.json,http://54.235.29.9/FacialAge/BNav_EC2/DepthDuration/v2_depth_duration_MTurk/v2_DepthDuration_HTML.html#8,8,1536,864,1536,864,8-20-2022,11-0-7,155,depth_duration_stimuli/002663_2014-06-13_15-50-26_094959634447_rgbf000075-resize_1/002663_2014-06-13_15-50-26_094959634447_rgbf000075-resize_1-target.png,250,4.7495,10,1816,247,feet,jsons/v1_VE250_randls_5.json,525358,1201903,27,Man
155,723081,DepthScenes,duration_manipulation_targetAtFixation,jsons/v1_VE250_randls_5.json,http://54.235.29.9/FacialAge/BNav_EC2/DepthDuration/v2_depth_duration_MTurk/v2_DepthDuration_HTML.html#8,8,1536,864,1536,864,8-20-2022,11-0-7,156,depth_duration_stimuli/000409_2014-06-04_19-23-33_260595134347_rgbf000067-resize_0/000409_2014-06-04_19-23-33_260595134347_rgbf000067-resize_0-target.png,250,3.7335,8,1962,249,feet,jsons/v1_VE250_randls_5.json,525358,1201903,27,Man
156,723081,DepthScenes,duration_manipulation_targetAtFixation,jsons/v1_VE250_randls_5.json,http://54.235.29.9/FacialAge/BNav_EC2/DepthDuration/v2_depth_duration_MTurk/v2_DepthDuration_HTML.html#8,8,1536,864,1536,864,8-20-2022,11-0-7,157,depth_duration_stimuli/000009_2014-05-26_14-32-05_260595134347_rgbf000034-resize_3/000009_2014-05-26_14-32-05_260595134347_rgbf000034-resize_3-target.png,250,3.8715,8,2681,239,feet,jsons/v1_VE250_randls_5.json,525358,1201903,27,Man
157,723081,DepthScenes,duration_manipulation_targetAtFixation,jsons/v1_VE250_randls_5.json,http://54.235.29.9/FacialAge/BNav_EC2/DepthDuration/v2_depth_duration_MTurk/v2_DepthDuration_HTML.html#8,8,1536,864,1536,864,8-20-2022,11-0-7,158,depth_duration_stimuli/001828_2014-06-26_21-40-03_260595134347_rgbf000024-resize_0/001828_2014-06-26_21-40-03_260595134347_rgbf000024-resize_0-target.png,250,4.8260000000000005,8,5693,254,feet,jsons/v1_VE250_randls_5.json,525358,1201903,27,Man
158,723081,DepthScenes,duration_manipulation_targetAtFixation,jsons/v1_VE250_randls_5.json,http://54.235.29.9/FacialAge/BNav_EC2/DepthDuration/v2_depth_duration_MTurk/v2_DepthDuration_HTML.html#8,8,1536,864,1536,864,8-20-2022,11-0-7,159,depth_duration_stimuli/000878_2014-06-08_22-52-45_260595134347_rgbf000045-resize_2/000878_2014-06-08_22-52-45_260595134347_rgbf000045-resize_2-target.png,250,2.092,6,1910,256,feet,jsons/v1_VE250_randls_5.json,525358,1201903,27,Man
159,723081,DepthScenes,duration_manipulation_targetAtFixation,jsons/v1_VE250_randls_5.json,http://54.235.29.9/FacialAge/BNav_EC2/DepthDuration/v2_depth_duration_MTurk/v2_DepthDuration_HTML.html#8,8,1536,864,1536,864,8-20-2022,11-0-7,160,depth_duration_stimuli/002953_2014-06-08_17-32-18_094959634447_rgbf000059-resize_5/002953_2014-06-08_17-32-18_094959634447_rgbf000059-resize_5-target.png,250,1.551,4,1566,240,feet,jsons/v1_VE250_randls_5.json,525358,1201903,27,Man
160,723081,DepthScenes,duration_manipulation_targetAtFixation,jsons/v1_VE250_randls_5.json,http://54.235.29.9/FacialAge/BNav_EC2/DepthDuration/v2_depth_duration_MTurk/v2_DepthDuration_HTML.html#8,8,1536,864,1536,864,8-20-2022,11-0-7,161,depth_duration_stimuli/001164_2014-06-17_15-35-46_260595134347_rgbf000085-resize_3/001164_2014-06-17_15-35-46_260595134347_rgbf000085-resize_3-target.png,250,2.354,6,2229,259,feet,jsons/v1_VE250_randls_5.json,525358,1201903,27,Man
161,723081,DepthScenes,duration_manipulation_targetAtFixation,jsons/v1_VE250_randls_5.json,http://54.235.29.9/FacialAge/BNav_EC2/DepthDuration/v2_depth_duration_MTurk/v2_DepthDuration_HTML.html#8,8,1536,864,1536,864,8-20-2022,11-0-7,162,depth_duration_stimuli/001136_2014-06-17_15-19-41_260595134347_rgbf000076-resize_3/001136_2014-06-17_15-19-41_260595134347_rgbf000076-resize_3-target.png,250,1.8655,5,2699,259,feet,jsons/v1_VE250_randls_5.json,525358,1201903,27,Man
162,723081,DepthScenes,duration_manipulation_targetAtFixation,jsons/v1_VE250_randls_5.json,http://54.235.29.9/FacialAge/BNav_EC2/DepthDuration/v2_depth_duration_MTurk/v2_DepthDuration_HTML.html#8,8,1536,864,1536,864,8-20-2022,11-0-7,163,depth_duration_stimuli/000469_2014-06-09_19-42-10_260595134347_rgbf000081-resize_1/000469_2014-06-09_19-42-10_260595134347_rgbf000081-resize_1-target.png,250,1.652,4,1896,249,feet,jsons/v1_VE250_randls_5.json,525358,1201903,27,Man
163,723081,DepthScenes,duration_manipulation_targetAtFixation,jsons/v1_VE250_randls_5.json,http://54.235.29.9/FacialAge/BNav_EC2/DepthDuration/v2_depth_duration_MTurk/v2_DepthDuration_HTML.html#8,8,1536,864,1536,864,8-20-2022,11-0-7,164,depth_duration_stimuli/000483_2014-06-09_20-41-45_260595134347_rgbf000116-resize_4/000483_2014-06-09_20-41-45_260595134347_rgbf000116-resize_4-target.png,250,1.337,4,5379,239,feet,jsons/v1_VE250_randls_5.json,525358,1201903,27,Man
