,subjID,experimentName,versionName,sequenceName,url,selected_row,windowWidth,windowHeight,screenWidth,screenHeight,startDate,startTime,trial,stimulus,duration,actual_depth,depth_estimate,trial_RT,log_sceneDuration,unitSelection,seq_filepath,experimentTime,totalTime,age,gender
0,725003,DepthScenes,duration_manipulation_targetAtFixation,jsons/VE125_randls_69_rotated.json,http://54.235.29.9/FacialAge/BNav_EC2/DepthDuration/v2_depth_duration_MTurk/v2_DepthDuration_HTML.html#51,51,1366,625,1366,768,8-29-2022,10-42-2,1,depth_duration_stimuli/000780_2014-06-08_22-28-29_260595134347_rgbf000126-resize_1/000780_2014-06-08_22-28-29_260595134347_rgbf000126-resize_1-target.png,125,3.3825,0,5603,104,feet,jsons/VE125_randls_69_rotated.json,1840226,2002691,62,Man
1,725003,DepthScenes,duration_manipulation_targetAtFixation,jsons/VE125_randls_69_rotated.json,http://54.235.29.9/FacialAge/BNav_EC2/DepthDuration/v2_depth_duration_MTurk/v2_DepthDuration_HTML.html#51,51,1366,625,1366,768,8-29-2022,10-42-2,2,depth_duration_stimuli/002445_2014-06-28_20-32-16_260595134347_rgbf000029-resize_4/002445_2014-06-28_20-32-16_260595134347_rgbf000029-resize_4-target.png,125,2.5315,74,11320,126,feet,jsons/VE125_randls_69_rotated.json,1840226,2002691,62,Man
2,725003,DepthScenes,duration_manipulation_targetAtFixation,jsons/VE125_randls_69_rotated.json,http://54.235.29.9/FacialAge/BNav_EC2/DepthDuration/v2_depth_duration_MTurk/v2_DepthDuration_HTML.html#51,51,1366,625,1366,768,8-29-2022,10-42-2,3,depth_duration_stimuli/000691_2014-06-08_13-08-50_260595134347_rgbf000132-resize_3/000691_2014-06-08_13-08-50_260595134347_rgbf000132-resize_3-target.png,125,4.1530000000000005,88,4130,153,feet,jsons/VE125_randls_69_rotated.json,1840226,2002691,62,Man
3,725003,DepthScenes,duration_manipulation_targetAtFixation,jsons/VE125_randls_69_rotated.json,http://54.235.29.9/FacialAge/BNav_EC2/DepthDuration/v2_depth_duration_MTurk/v2_DepthDuration_HTML.html#51,51,1366,625,1366,768,8-29-2022,10-42-2,4,depth_duration_stimuli/002213_2014-06-28_18-37-58_260595134347_rgbf000055-resize_1/002213_2014-06-28_18-37-58_260595134347_rgbf000055-resize_1-target.png,125,3.62,66,4226,124,feet,jsons/VE125_randls_69_rotated.json,1840226,2002691,62,Man
4,725003,DepthScenes,duration_manipulation_targetAtFixation,jsons/VE125_randls_69_rotated.json,http://54.235.29.9/FacialAge/BNav_EC2/DepthDuration/v2_depth_duration_MTurk/v2_DepthDuration_HTML.html#51,51,1366,625,1366,768,8-29-2022,10-42-2,5,depth_duration_stimuli/001447_2014-06-19_17-00-32_260595134347_rgbf000082-resize_5/001447_2014-06-19_17-00-32_260595134347_rgbf000082-resize_5-target.png,125,4.13775,58,5210,130,feet,jsons/VE125_randls_69_rotated.json,1840226,2002691,62,Man
5,725003,DepthScenes,duration_manipulation_targetAtFixation,jsons/VE125_randls_69_rotated.json,http://54.235.29.9/FacialAge/BNav_EC2/DepthDuration/v2_depth_duration_MTurk/v2_DepthDuration_HTML.html#51,51,1366,625,1366,768,8-29-2022,10-42-2,6,depth_duration_stimuli/000447_2014-06-08_16-15-46_260595134347_rgbf000130-resize_1/000447_2014-06-08_16-15-46_260595134347_rgbf000130-resize_1-target.png,125,4.479,47,4198,124,feet,jsons/VE125_randls_69_rotated.json,1840226,2002691,62,Man
6,725003,DepthScenes,duration_manipulation_targetAtFixation,jsons/VE125_randls_69_rotated.json,http://54.235.29.9/FacialAge/BNav_EC2/DepthDuration/v2_depth_duration_MTurk/v2_DepthDuration_HTML.html#51,51,1366,625,1366,768,8-29-2022,10-42-2,7,depth_duration_stimuli/000502_2014-06-08_23-02-32_260595134347_rgbf000063-resize_4/000502_2014-06-08_23-02-32_260595134347_rgbf000063-resize_4-target.png,125,2.431,85,4161,121,feet,jsons/VE125_randls_69_rotated.json,1840226,2002691,62,Man
7,725003,DepthScenes,duration_manipulation_targetAtFixation,jsons/VE125_randls_69_rotated.json,http://54.235.29.9/FacialAge/BNav_EC2/DepthDuration/v2_depth_duration_MTurk/v2_DepthDuration_HTML.html#51,51,1366,625,1366,768,8-29-2022,10-42-2,8,depth_duration_stimuli/001199_2014-06-17_16-03-48_260595134347_rgbf000077-resize_0/001199_2014-06-17_16-03-48_260595134347_rgbf000077-resize_0-target.png,125,3.4375,75,4306,126,feet,jsons/VE125_randls_69_rotated.json,1840226,2002691,62,Man
8,725003,DepthScenes,duration_manipulation_targetAtFixation,jsons/VE125_randls_69_rotated.json,http://54.235.29.9/FacialAge/BNav_EC2/DepthDuration/v2_depth_duration_MTurk/v2_DepthDuration_HTML.html#51,51,1366,625,1366,768,8-29-2022,10-42-2,9,depth_duration_stimuli/003129_2014-05-12_10-48-10_094959634447_rgbf000100-resize_0/003129_2014-05-12_10-48-10_094959634447_rgbf000100-resize_0-target.png,125,4.9305,58,3888,129,feet,jsons/VE125_randls_69_rotated.json,1840226,2002691,62,Man
9,725003,DepthScenes,duration_manipulation_targetAtFixation,jsons/VE125_randls_69_rotated.json,http://54.235.29.9/FacialAge/BNav_EC2/DepthDuration/v2_depth_duration_MTurk/v2_DepthDuration_HTML.html#51,51,1366,625,1366,768,8-29-2022,10-42-2,10,depth_duration_stimuli/000414_2014-06-04_19-49-13_260595134347_rgbf000044-resize_0/000414_2014-06-04_19-49-13_260595134347_rgbf000044-resize_0-target.png,125,4.329,69,4290,127,feet,jsons/VE125_randls_69_rotated.json,1840226,2002691,62,Man
10,725003,DepthScenes,duration_manipulation_targetAtFixation,jsons/VE125_randls_69_rotated.json,http://54.235.29.9/FacialAge/BNav_EC2/DepthDuration/v2_depth_duration_MTurk/v2_DepthDuration_HTML.html#51,51,1366,625,1366,768,8-29-2022,10-42-2,11,depth_duration_stimuli/003587_2014-05-23_16-48-02_094959634447_rgbf002384-resize_2/003587_2014-05-23_16-48-02_094959634447_rgbf002384-resize_2-target.png,125,1.357,85,3785,125,feet,jsons/VE125_randls_69_rotated.json,1840226,2002691,62,Man
11,725003,DepthScenes,duration_manipulation_targetAtFixation,jsons/VE125_randls_69_rotated.json,http://54.235.29.9/FacialAge/BNav_EC2/DepthDuration/v2_depth_duration_MTurk/v2_DepthDuration_HTML.html#51,51,1366,625,1366,768,8-29-2022,10-42-2,12,depth_duration_stimuli/001167_2014-06-17_15-38-07_260595134347_rgbf000108-resize_0/001167_2014-06-17_15-38-07_260595134347_rgbf000108-resize_0-target.png,125,1.8505,58,4333,107,feet,jsons/VE125_randls_69_rotated.json,1840226,2002691,62,Man
12,725003,DepthScenes,duration_manipulation_targetAtFixation,jsons/VE125_randls_69_rotated.json,http://54.235.29.9/FacialAge/BNav_EC2/DepthDuration/v2_depth_duration_MTurk/v2_DepthDuration_HTML.html#51,51,1366,625,1366,768,8-29-2022,10-42-2,13,depth_duration_stimuli/002637_2014-06-24_14-51-13_094959634447_rgbf000066-resize_4/002637_2014-06-24_14-51-13_094959634447_rgbf000066-resize_4-target.png,125,1.9955,55,4142,124,feet,jsons/VE125_randls_69_rotated.json,1840226,2002691,62,Man
13,725003,DepthScenes,duration_manipulation_targetAtFixation,jsons/VE125_randls_69_rotated.json,http://54.235.29.9/FacialAge/BNav_EC2/DepthDuration/v2_depth_duration_MTurk/v2_DepthDuration_HTML.html#51,51,1366,625,1366,768,8-29-2022,10-42-2,14,depth_duration_stimuli/003534_2014-05-22_15-06-10_094959634447_rgbf000102-resize_4/003534_2014-05-22_15-06-10_094959634447_rgbf000102-resize_4-target.png,125,1.426,69,3762,124,feet,jsons/VE125_randls_69_rotated.json,1840226,2002691,62,Man
14,725003,DepthScenes,duration_manipulation_targetAtFixation,jsons/VE125_randls_69_rotated.json,http://54.235.29.9/FacialAge/BNav_EC2/DepthDuration/v2_depth_duration_MTurk/v2_DepthDuration_HTML.html#51,51,1366,625,1366,768,8-29-2022,10-42-2,15,depth_duration_stimuli/000409_2014-06-04_19-23-33_260595134347_rgbf000067-resize_0/000409_2014-06-04_19-23-33_260595134347_rgbf000067-resize_0-target.png,125,3.7335,96,4152,122,feet,jsons/VE125_randls_69_rotated.json,1840226,2002691,62,Man
15,725003,DepthScenes,duration_manipulation_targetAtFixation,jsons/VE125_randls_69_rotated.json,http://54.235.29.9/FacialAge/BNav_EC2/DepthDuration/v2_depth_duration_MTurk/v2_DepthDuration_HTML.html#51,51,1366,625,1366,768,8-29-2022,10-42-2,16,depth_duration_stimuli/002663_2014-06-13_15-50-26_094959634447_rgbf000075-resize_1/002663_2014-06-13_15-50-26_094959634447_rgbf000075-resize_1-target.png,125,4.7495,85,5988,134,feet,jsons/VE125_randls_69_rotated.json,1840226,2002691,62,Man
16,725003,DepthScenes,duration_manipulation_targetAtFixation,jsons/VE125_randls_69_rotated.json,http://54.235.29.9/FacialAge/BNav_EC2/DepthDuration/v2_depth_duration_MTurk/v2_DepthDuration_HTML.html#51,51,1366,625,1366,768,8-29-2022,10-42-2,17,depth_duration_stimuli/000749_2014-06-08_21-55-06_260595134347_rgbf000070-resize_2/000749_2014-06-08_21-55-06_260595134347_rgbf000070-resize_2-target.png,125,2.331,44,4289,179,feet,jsons/VE125_randls_69_rotated.json,1840226,2002691,62,Man
17,725003,DepthScenes,duration_manipulation_targetAtFixation,jsons/VE125_randls_69_rotated.json,http://54.235.29.9/FacialAge/BNav_EC2/DepthDuration/v2_depth_duration_MTurk/v2_DepthDuration_HTML.html#51,51,1366,625,1366,768,8-29-2022,10-42-2,18,depth_duration_stimuli/002788_2014-06-22_19-36-03_094959634447_rgbf000088-resize_2/002788_2014-06-22_19-36-03_094959634447_rgbf000088-resize_2-target.png,125,1.6465,55,3792,121,feet,jsons/VE125_randls_69_rotated.json,1840226,2002691,62,Man
18,725003,DepthScenes,duration_manipulation_targetAtFixation,jsons/VE125_randls_69_rotated.json,http://54.235.29.9/FacialAge/BNav_EC2/DepthDuration/v2_depth_duration_MTurk/v2_DepthDuration_HTML.html#51,51,1366,625,1366,768,8-29-2022,10-42-2,19,depth_duration_stimuli/001498_2014-06-19_17-45-14_260595134347_rgbf000129-resize_4/001498_2014-06-19_17-45-14_260595134347_rgbf000129-resize-original.jpg,125,1.4075,0,3546,122,feet,jsons/VE125_randls_69_rotated.json,1840226,2002691,62,Man
19,725003,DepthScenes,duration_manipulation_targetAtFixation,jsons/VE125_randls_69_rotated.json,http://54.235.29.9/FacialAge/BNav_EC2/DepthDuration/v2_depth_duration_MTurk/v2_DepthDuration_HTML.html#51,51,1366,625,1366,768,8-29-2022,10-42-2,20,depth_duration_stimuli/003048_2014-06-15_13-49-43_094959634447_rgbf000150-resize_1/003048_2014-06-15_13-49-43_094959634447_rgbf000150-resize_1-target.png,125,4.0035,55,3852,117,feet,jsons/VE125_randls_69_rotated.json,1840226,2002691,62,Man
20,725003,DepthScenes,duration_manipulation_targetAtFixation,jsons/VE125_randls_69_rotated.json,http://54.235.29.9/FacialAge/BNav_EC2/DepthDuration/v2_depth_duration_MTurk/v2_DepthDuration_HTML.html#51,51,1366,625,1366,768,8-29-2022,10-42-2,21,depth_duration_stimuli/002043_2014-06-24_20-29-38_260595134347_rgbf000039-resize_4/002043_2014-06-24_20-29-38_260595134347_rgbf000039-resize_4-target.png,125,2.8435,68,4335,115,feet,jsons/VE125_randls_69_rotated.json,1840226,2002691,62,Man
21,725003,DepthScenes,duration_manipulation_targetAtFixation,jsons/VE125_randls_69_rotated.json,http://54.235.29.9/FacialAge/BNav_EC2/DepthDuration/v2_depth_duration_MTurk/v2_DepthDuration_HTML.html#51,51,1366,625,1366,768,8-29-2022,10-42-2,22,depth_duration_stimuli/000137_2014-05-20_17-04-49_260595134347_rgbf000120-resize_1/000137_2014-05-20_17-04-49_260595134347_rgbf000120-resize_1-target.png,125,3.786,85,3570,111,feet,jsons/VE125_randls_69_rotated.json,1840226,2002691,62,Man
22,725003,DepthScenes,duration_manipulation_targetAtFixation,jsons/VE125_randls_69_rotated.json,http://54.235.29.9/FacialAge/BNav_EC2/DepthDuration/v2_depth_duration_MTurk/v2_DepthDuration_HTML.html#51,51,1366,625,1366,768,8-29-2022,10-42-2,23,depth_duration_stimuli/000736_2014-06-08_18-24-15_260595134347_rgbf000206-resize_3/000736_2014-06-08_18-24-15_260595134347_rgbf000206-resize_3-target.png,125,3.515,74,4778,128,feet,jsons/VE125_randls_69_rotated.json,1840226,2002691,62,Man
23,725003,DepthScenes,duration_manipulation_targetAtFixation,jsons/VE125_randls_69_rotated.json,http://54.235.29.9/FacialAge/BNav_EC2/DepthDuration/v2_depth_duration_MTurk/v2_DepthDuration_HTML.html#51,51,1366,625,1366,768,8-29-2022,10-42-2,24,depth_duration_stimuli/002639_2014-06-24_14-51-37_094959634447_rgbf000074-resize_4/002639_2014-06-24_14-51-37_094959634447_rgbf000074-resize_4-target.png,125,4.0375,96,4309,119,feet,jsons/VE125_randls_69_rotated.json,1840226,2002691,62,Man
24,725003,DepthScenes,duration_manipulation_targetAtFixation,jsons/VE125_randls_69_rotated.json,http://54.235.29.9/FacialAge/BNav_EC2/DepthDuration/v2_depth_duration_MTurk/v2_DepthDuration_HTML.html#51,51,1366,625,1366,768,8-29-2022,10-42-2,25,depth_duration_stimuli/003292_2014-05-14_21-53-49_094959634447_rgbf000100-resize_2/003292_2014-05-14_21-53-49_094959634447_rgbf000100-resize_2-target.png,125,3.4815,85,3984,109,feet,jsons/VE125_randls_69_rotated.json,1840226,2002691,62,Man
25,725003,DepthScenes,duration_manipulation_targetAtFixation,jsons/VE125_randls_69_rotated.json,http://54.235.29.9/FacialAge/BNav_EC2/DepthDuration/v2_depth_duration_MTurk/v2_DepthDuration_HTML.html#51,51,1366,625,1366,768,8-29-2022,10-42-2,26,depth_duration_stimuli/001132_2014-06-17_14-48-54_260595134347_rgbf000100-resize_2/001132_2014-06-17_14-48-54_260595134347_rgbf000100-resize_2-target.png,125,3.753,85,3968,129,feet,jsons/VE125_randls_69_rotated.json,1840226,2002691,62,Man
26,725003,DepthScenes,duration_manipulation_targetAtFixation,jsons/VE125_randls_69_rotated.json,http://54.235.29.9/FacialAge/BNav_EC2/DepthDuration/v2_depth_duration_MTurk/v2_DepthDuration_HTML.html#51,51,1366,625,1366,768,8-29-2022,10-42-2,27,depth_duration_stimuli/001133_2014-06-17_14-49-16_260595134347_rgbf000100-resize_0/001133_2014-06-17_14-49-16_260595134347_rgbf000100-resize_0-target.png,125,4.2115,45,4503,125,feet,jsons/VE125_randls_69_rotated.json,1840226,2002691,62,Man
27,725003,DepthScenes,duration_manipulation_targetAtFixation,jsons/VE125_randls_69_rotated.json,http://54.235.29.9/FacialAge/BNav_EC2/DepthDuration/v2_depth_duration_MTurk/v2_DepthDuration_HTML.html#51,51,1366,625,1366,768,8-29-2022,10-42-2,28,depth_duration_stimuli/003081_2014-06-15_15-19-16_094959634447_rgbf000150-resize_1/003081_2014-06-15_15-19-16_094959634447_rgbf000150-resize_1-target.png,125,3.9125,85,3711,111,feet,jsons/VE125_randls_69_rotated.json,1840226,2002691,62,Man
28,725003,DepthScenes,duration_manipulation_targetAtFixation,jsons/VE125_randls_69_rotated.json,http://54.235.29.9/FacialAge/BNav_EC2/DepthDuration/v2_depth_duration_MTurk/v2_DepthDuration_HTML.html#51,51,1366,625,1366,768,8-29-2022,10-42-2,29,depth_duration_stimuli/001417_2014-06-19_16-25-36_260595134347_rgbf000115-resize_5/001417_2014-06-19_16-25-36_260595134347_rgbf000115-resize_5-target.png,125,4.6255,96,3747,123,feet,jsons/VE125_randls_69_rotated.json,1840226,2002691,62,Man
29,725003,DepthScenes,duration_manipulation_targetAtFixation,jsons/VE125_randls_69_rotated.json,http://54.235.29.9/FacialAge/BNav_EC2/DepthDuration/v2_depth_duration_MTurk/v2_DepthDuration_HTML.html#51,51,1366,625,1366,768,8-29-2022,10-42-2,30,depth_duration_stimuli/002072_2014-06-24_21-48-06_260595134347_rgbf000115-resize_0/002072_2014-06-24_21-48-06_260595134347_rgbf000115-resize-original.jpg,125,4.702,85,3820,121,feet,jsons/VE125_randls_69_rotated.json,1840226,2002691,62,Man
30,725003,DepthScenes,duration_manipulation_targetAtFixation,jsons/VE125_randls_69_rotated.json,http://54.235.29.9/FacialAge/BNav_EC2/DepthDuration/v2_depth_duration_MTurk/v2_DepthDuration_HTML.html#51,51,1366,625,1366,768,8-29-2022,10-42-2,31,depth_duration_stimuli/003423_2014-05-21_10-23-26_094959634447_rgbf002665-resize_2/003423_2014-05-21_10-23-26_094959634447_rgbf002665-resize_2-target.png,125,3.2575,85,3965,127,feet,jsons/VE125_randls_69_rotated.json,1840226,2002691,62,Man
31,725003,DepthScenes,duration_manipulation_targetAtFixation,jsons/VE125_randls_69_rotated.json,http://54.235.29.9/FacialAge/BNav_EC2/DepthDuration/v2_depth_duration_MTurk/v2_DepthDuration_HTML.html#51,51,1366,625,1366,768,8-29-2022,10-42-2,32,depth_duration_stimuli/002905_2014-06-03_18-04-43_094959634447_rgbf000151-resize_2/002905_2014-06-03_18-04-43_094959634447_rgbf000151-resize_2-target.png,125,2.0295,99,4327,119,feet,jsons/VE125_randls_69_rotated.json,1840226,2002691,62,Man
32,725003,DepthScenes,duration_manipulation_targetAtFixation,jsons/VE125_randls_69_rotated.json,http://54.235.29.9/FacialAge/BNav_EC2/DepthDuration/v2_depth_duration_MTurk/v2_DepthDuration_HTML.html#51,51,1366,625,1366,768,8-29-2022,10-42-2,33,depth_duration_stimuli/002340_2014-06-28_20-05-46_260595134347_rgbf000113-resize_0/002340_2014-06-28_20-05-46_260595134347_rgbf000113-resize_0-target.png,125,2.4735,77,11188,124,feet,jsons/VE125_randls_69_rotated.json,1840226,2002691,62,Man
33,725003,DepthScenes,duration_manipulation_targetAtFixation,jsons/VE125_randls_69_rotated.json,http://54.235.29.9/FacialAge/BNav_EC2/DepthDuration/v2_depth_duration_MTurk/v2_DepthDuration_HTML.html#51,51,1366,625,1366,768,8-29-2022,10-42-2,34,depth_duration_stimuli/001016_2014-06-09_16-16-10_260595134347_rgbf000112-resize_5/001016_2014-06-09_16-16-10_260595134347_rgbf000112-resize_5-target.png,125,1.6565,88,4214,264,feet,jsons/VE125_randls_69_rotated.json,1840226,2002691,62,Man
34,725003,DepthScenes,duration_manipulation_targetAtFixation,jsons/VE125_randls_69_rotated.json,http://54.235.29.9/FacialAge/BNav_EC2/DepthDuration/v2_depth_duration_MTurk/v2_DepthDuration_HTML.html#51,51,1366,625,1366,768,8-29-2022,10-42-2,35,depth_duration_stimuli/002414_2014-06-28_20-24-58_260595134347_rgbf000067-resize_4/002414_2014-06-28_20-24-58_260595134347_rgbf000067-resize_4-target.png,125,4.363,52,3881,125,feet,jsons/VE125_randls_69_rotated.json,1840226,2002691,62,Man
35,725003,DepthScenes,duration_manipulation_targetAtFixation,jsons/VE125_randls_69_rotated.json,http://54.235.29.9/FacialAge/BNav_EC2/DepthDuration/v2_depth_duration_MTurk/v2_DepthDuration_HTML.html#51,51,1366,625,1366,768,8-29-2022,10-42-2,36,depth_duration_stimuli/000773_2014-06-08_22-24-54_260595134347_rgbf000093-resize_1/000773_2014-06-08_22-24-54_260595134347_rgbf000093-resize_1-target.png,125,4.973,85,17302,132,feet,jsons/VE125_randls_69_rotated.json,1840226,2002691,62,Man
36,725003,DepthScenes,duration_manipulation_targetAtFixation,jsons/VE125_randls_69_rotated.json,http://54.235.29.9/FacialAge/BNav_EC2/DepthDuration/v2_depth_duration_MTurk/v2_DepthDuration_HTML.html#51,51,1366,625,1366,768,8-29-2022,10-42-2,37,depth_duration_stimuli/000483_2014-06-09_20-41-45_260595134347_rgbf000116-resize_4/000483_2014-06-09_20-41-45_260595134347_rgbf000116-resize_4-target.png,125,1.337,55,6511,127,feet,jsons/VE125_randls_69_rotated.json,1840226,2002691,62,Man
37,725003,DepthScenes,duration_manipulation_targetAtFixation,jsons/VE125_randls_69_rotated.json,http://54.235.29.9/FacialAge/BNav_EC2/DepthDuration/v2_depth_duration_MTurk/v2_DepthDuration_HTML.html#51,51,1366,625,1366,768,8-29-2022,10-42-2,38,depth_duration_stimuli/000469_2014-06-09_19-42-10_260595134347_rgbf000081-resize_1/000469_2014-06-09_19-42-10_260595134347_rgbf000081-resize_1-target.png,125,1.652,66,8744,124,feet,jsons/VE125_randls_69_rotated.json,1840226,2002691,62,Man
38,725003,DepthScenes,duration_manipulation_targetAtFixation,jsons/VE125_randls_69_rotated.json,http://54.235.29.9/FacialAge/BNav_EC2/DepthDuration/v2_depth_duration_MTurk/v2_DepthDuration_HTML.html#51,51,1366,625,1366,768,8-29-2022,10-42-2,39,depth_duration_stimuli/003079_2014-06-15_15-18-20_094959634447_rgbf000152-resize_8/003079_2014-06-15_15-18-20_094959634447_rgbf000152-resize_8-target.png,125,2.8775,88,4321,121,feet,jsons/VE125_randls_69_rotated.json,1840226,2002691,62,Man
39,725003,DepthScenes,duration_manipulation_targetAtFixation,jsons/VE125_randls_69_rotated.json,http://54.235.29.9/FacialAge/BNav_EC2/DepthDuration/v2_depth_duration_MTurk/v2_DepthDuration_HTML.html#51,51,1366,625,1366,768,8-29-2022,10-42-2,40,depth_duration_stimuli/000506_2014-06-08_23-21-00_260595134347_rgbf000070-resize_7/000506_2014-06-08_23-21-00_260595134347_rgbf000070-resize_7-target.png,125,4.0585,52,4817,113,feet,jsons/VE125_randls_69_rotated.json,1840226,2002691,62,Man
40,725003,DepthScenes,duration_manipulation_targetAtFixation,jsons/VE125_randls_69_rotated.json,http://54.235.29.9/FacialAge/BNav_EC2/DepthDuration/v2_depth_duration_MTurk/v2_DepthDuration_HTML.html#51,51,1366,625,1366,768,8-29-2022,10-42-2,41,depth_duration_stimuli/000457_2014-06-08_16-52-43_260595134347_rgbf000199-resize_1/000457_2014-06-08_16-52-43_260595134347_rgbf000199-resize_1-target.png,125,3.6489999999999996,85,4489,118,feet,jsons/VE125_randls_69_rotated.json,1840226,2002691,62,Man
41,725003,DepthScenes,duration_manipulation_targetAtFixation,jsons/VE125_randls_69_rotated.json,http://54.235.29.9/FacialAge/BNav_EC2/DepthDuration/v2_depth_duration_MTurk/v2_DepthDuration_HTML.html#51,51,1366,625,1366,768,8-29-2022,10-42-2,42,depth_duration_stimuli/000929_2014-06-09_16-33-19_260595134347_rgbf000139-resize_0/000929_2014-06-09_16-33-19_260595134347_rgbf000139-resize_0-target.png,125,2.8680000000000003,44,4160,125,feet,jsons/VE125_randls_69_rotated.json,1840226,2002691,62,Man
42,725003,DepthScenes,duration_manipulation_targetAtFixation,jsons/VE125_randls_69_rotated.json,http://54.235.29.9/FacialAge/BNav_EC2/DepthDuration/v2_depth_duration_MTurk/v2_DepthDuration_HTML.html#51,51,1366,625,1366,768,8-29-2022,10-42-2,43,depth_duration_stimuli/002103_2014-06-25_20-00-40_260595134347_rgbf000049-resize_0/002103_2014-06-25_20-00-40_260595134347_rgbf000049-resize_0-target.png,125,4.105,96,4257,123,feet,jsons/VE125_randls_69_rotated.json,1840226,2002691,62,Man
43,725003,DepthScenes,duration_manipulation_targetAtFixation,jsons/VE125_randls_69_rotated.json,http://54.235.29.9/FacialAge/BNav_EC2/DepthDuration/v2_depth_duration_MTurk/v2_DepthDuration_HTML.html#51,51,1366,625,1366,768,8-29-2022,10-42-2,44,depth_duration_stimuli/002039_2014-06-24_20-22-38_260595134347_rgbf000084-resize_1/002039_2014-06-24_20-22-38_260595134347_rgbf000084-resize_1-target.png,125,4.408,85,4755,124,feet,jsons/VE125_randls_69_rotated.json,1840226,2002691,62,Man
44,725003,DepthScenes,duration_manipulation_targetAtFixation,jsons/VE125_randls_69_rotated.json,http://54.235.29.9/FacialAge/BNav_EC2/DepthDuration/v2_depth_duration_MTurk/v2_DepthDuration_HTML.html#51,51,1366,625,1366,768,8-29-2022,10-42-2,45,depth_duration_stimuli/003338_2014-05-20_11-01-23_094959634447_rgbf000051-resize_6/003338_2014-05-20_11-01-23_094959634447_rgbf000051-resize_6-target.png,125,1.693,85,5134,131,feet,jsons/VE125_randls_69_rotated.json,1840226,2002691,62,Man
45,725003,DepthScenes,duration_manipulation_targetAtFixation,jsons/VE125_randls_69_rotated.json,http://54.235.29.9/FacialAge/BNav_EC2/DepthDuration/v2_depth_duration_MTurk/v2_DepthDuration_HTML.html#51,51,1366,625,1366,768,8-29-2022,10-42-2,46,depth_duration_stimuli/002509_2014-06-24_13-19-22_094959634447_rgbf000077-resize_0/002509_2014-06-24_13-19-22_094959634447_rgbf000077-resize_0-target.png,125,1.3065,85,10991,125,feet,jsons/VE125_randls_69_rotated.json,1840226,2002691,62,Man
46,725003,DepthScenes,duration_manipulation_targetAtFixation,jsons/VE125_randls_69_rotated.json,http://54.235.29.9/FacialAge/BNav_EC2/DepthDuration/v2_depth_duration_MTurk/v2_DepthDuration_HTML.html#51,51,1366,625,1366,768,8-29-2022,10-42-2,47,depth_duration_stimuli/002344_2014-06-28_20-06-29_260595134347_rgbf000030-resize_1/002344_2014-06-28_20-06-29_260595134347_rgbf000030-resize_1-target.png,125,1.5795,47,4078,121,feet,jsons/VE125_randls_69_rotated.json,1840226,2002691,62,Man
47,725003,DepthScenes,duration_manipulation_targetAtFixation,jsons/VE125_randls_69_rotated.json,http://54.235.29.9/FacialAge/BNav_EC2/DepthDuration/v2_depth_duration_MTurk/v2_DepthDuration_HTML.html#51,51,1366,625,1366,768,8-29-2022,10-42-2,48,depth_duration_stimuli/002725_2014-06-22_11-47-51_094959634447_rgbf000070-resize_1/002725_2014-06-22_11-47-51_094959634447_rgbf000070-resize_1-target.png,125,2.195,85,5554,125,feet,jsons/VE125_randls_69_rotated.json,1840226,2002691,62,Man
48,725003,DepthScenes,duration_manipulation_targetAtFixation,jsons/VE125_randls_69_rotated.json,http://54.235.29.9/FacialAge/BNav_EC2/DepthDuration/v2_depth_duration_MTurk/v2_DepthDuration_HTML.html#51,51,1366,625,1366,768,8-29-2022,10-42-2,49,depth_duration_stimuli/001170_2014-06-17_15-43-44_260595134347_rgbf000096-resize_6/001170_2014-06-17_15-43-44_260595134347_rgbf000096-resize-original.jpg,125,1.1909999999999998,85,159963,127,feet,jsons/VE125_randls_69_rotated.json,1840226,2002691,62,Man
49,725003,DepthScenes,duration_manipulation_targetAtFixation,jsons/VE125_randls_69_rotated.json,http://54.235.29.9/FacialAge/BNav_EC2/DepthDuration/v2_depth_duration_MTurk/v2_DepthDuration_HTML.html#51,51,1366,625,1366,768,8-29-2022,10-42-2,50,depth_duration_stimuli/000665_2014-06-09_20-42-35_260595134347_rgbf000110-resize_1/000665_2014-06-09_20-42-35_260595134347_rgbf000110-resize_1-target.png,125,3.057,55,1005442,135,feet,jsons/VE125_randls_69_rotated.json,1840226,2002691,62,Man
50,725003,DepthScenes,duration_manipulation_targetAtFixation,jsons/VE125_randls_69_rotated.json,http://54.235.29.9/FacialAge/BNav_EC2/DepthDuration/v2_depth_duration_MTurk/v2_DepthDuration_HTML.html#51,51,1366,625,1366,768,8-29-2022,10-42-2,51,depth_duration_stimuli/001150_2014-06-17_15-27-34_260595134347_rgbf000108-resize_2/001150_2014-06-17_15-27-34_260595134347_rgbf000108-resize_2-target.png,125,4.0325,66,3330,124,feet,jsons/VE125_randls_69_rotated.json,1840226,2002691,62,Man
51,725003,DepthScenes,duration_manipulation_targetAtFixation,jsons/VE125_randls_69_rotated.json,http://54.235.29.9/FacialAge/BNav_EC2/DepthDuration/v2_depth_duration_MTurk/v2_DepthDuration_HTML.html#51,51,1366,625,1366,768,8-29-2022,10-42-2,52,depth_duration_stimuli/002678_2014-06-13_16-15-32_094959634447_rgbf000151-resize_6/002678_2014-06-13_16-15-32_094959634447_rgbf000151-resize_6-target.png,125,2.1830000000000003,64,2979,124,feet,jsons/VE125_randls_69_rotated.json,1840226,2002691,62,Man
52,725003,DepthScenes,duration_manipulation_targetAtFixation,jsons/VE125_randls_69_rotated.json,http://54.235.29.9/FacialAge/BNav_EC2/DepthDuration/v2_depth_duration_MTurk/v2_DepthDuration_HTML.html#51,51,1366,625,1366,768,8-29-2022,10-42-2,53,depth_duration_stimuli/000368_2014-06-09_15-53-01_260595134347_rgbf000155-resize_2/000368_2014-06-09_15-53-01_260595134347_rgbf000155-resize_2-target.png,125,2.4859999999999998,55,2527,29,feet,jsons/VE125_randls_69_rotated.json,1840226,2002691,62,Man
53,725003,DepthScenes,duration_manipulation_targetAtFixation,jsons/VE125_randls_69_rotated.json,http://54.235.29.9/FacialAge/BNav_EC2/DepthDuration/v2_depth_duration_MTurk/v2_DepthDuration_HTML.html#51,51,1366,625,1366,768,8-29-2022,10-42-2,54,depth_duration_stimuli/001392_2014-06-19_16-07-59_260595134347_rgbf000046-resize_1/001392_2014-06-19_16-07-59_260595134347_rgbf000046-resize_1-target.png,125,4.135,66,5257,133,feet,jsons/VE125_randls_69_rotated.json,1840226,2002691,62,Man
54,725003,DepthScenes,duration_manipulation_targetAtFixation,jsons/VE125_randls_69_rotated.json,http://54.235.29.9/FacialAge/BNav_EC2/DepthDuration/v2_depth_duration_MTurk/v2_DepthDuration_HTML.html#51,51,1366,625,1366,768,8-29-2022,10-42-2,55,depth_duration_stimuli/001570_2014-06-20_17-21-09_260595134347_rgbf000135-resize_4/001570_2014-06-20_17-21-09_260595134347_rgbf000135-resize_4-target.png,125,4.467,44,20636,125,feet,jsons/VE125_randls_69_rotated.json,1840226,2002691,62,Man
55,725003,DepthScenes,duration_manipulation_targetAtFixation,jsons/VE125_randls_69_rotated.json,http://54.235.29.9/FacialAge/BNav_EC2/DepthDuration/v2_depth_duration_MTurk/v2_DepthDuration_HTML.html#51,51,1366,625,1366,768,8-29-2022,10-42-2,56,depth_duration_stimuli/003228_2014-05-14_13-42-35_094959634447_rgbf000101-resize_1/003228_2014-05-14_13-42-35_094959634447_rgbf000101-resize_1-target.png,125,1.9680000000000002,33,3128,123,feet,jsons/VE125_randls_69_rotated.json,1840226,2002691,62,Man
56,725003,DepthScenes,duration_manipulation_targetAtFixation,jsons/VE125_randls_69_rotated.json,http://54.235.29.9/FacialAge/BNav_EC2/DepthDuration/v2_depth_duration_MTurk/v2_DepthDuration_HTML.html#51,51,1366,625,1366,768,8-29-2022,10-42-2,57,depth_duration_stimuli/002600_2014-06-24_14-27-04_094959634447_rgbf000074-resize_2/002600_2014-06-24_14-27-04_094959634447_rgbf000074-resize_2-target.png,125,2.7575,88,3064,121,feet,jsons/VE125_randls_69_rotated.json,1840226,2002691,62,Man
57,725003,DepthScenes,duration_manipulation_targetAtFixation,jsons/VE125_randls_69_rotated.json,http://54.235.29.9/FacialAge/BNav_EC2/DepthDuration/v2_depth_duration_MTurk/v2_DepthDuration_HTML.html#51,51,1366,625,1366,768,8-29-2022,10-42-2,58,depth_duration_stimuli/001214_2014-06-17_16-13-55_260595134347_rgbf000111-resize_0/001214_2014-06-17_16-13-55_260595134347_rgbf000111-resize_0-target.png,125,2.6505,88,2457,127,feet,jsons/VE125_randls_69_rotated.json,1840226,2002691,62,Man
58,725003,DepthScenes,duration_manipulation_targetAtFixation,jsons/VE125_randls_69_rotated.json,http://54.235.29.9/FacialAge/BNav_EC2/DepthDuration/v2_depth_duration_MTurk/v2_DepthDuration_HTML.html#51,51,1366,625,1366,768,8-29-2022,10-42-2,59,depth_duration_stimuli/000810_2014-06-08_17-20-01_260595134347_rgbf000105-resize_0/000810_2014-06-08_17-20-01_260595134347_rgbf000105-resize_0-target.png,125,1.4865,77,2445,121,feet,jsons/VE125_randls_69_rotated.json,1840226,2002691,62,Man
59,725003,DepthScenes,duration_manipulation_targetAtFixation,jsons/VE125_randls_69_rotated.json,http://54.235.29.9/FacialAge/BNav_EC2/DepthDuration/v2_depth_duration_MTurk/v2_DepthDuration_HTML.html#51,51,1366,625,1366,768,8-29-2022,10-42-2,60,depth_duration_stimuli/000556_2014-06-09_22-42-56_260595134347_rgbf000214-resize_1/000556_2014-06-09_22-42-56_260595134347_rgbf000214-resize_1-target.png,125,4.8415,99,2838,129,feet,jsons/VE125_randls_69_rotated.json,1840226,2002691,62,Man
60,725003,DepthScenes,duration_manipulation_targetAtFixation,jsons/VE125_randls_69_rotated.json,http://54.235.29.9/FacialAge/BNav_EC2/DepthDuration/v2_depth_duration_MTurk/v2_DepthDuration_HTML.html#51,51,1366,625,1366,768,8-29-2022,10-42-2,61,depth_duration_stimuli/001158_2014-06-17_15-32-16_260595134347_rgbf000138-resize_2/001158_2014-06-17_15-32-16_260595134347_rgbf000138-resize_2-target.png,125,4.5315,77,2371,126,feet,jsons/VE125_randls_69_rotated.json,1840226,2002691,62,Man
61,725003,DepthScenes,duration_manipulation_targetAtFixation,jsons/VE125_randls_69_rotated.json,http://54.235.29.9/FacialAge/BNav_EC2/DepthDuration/v2_depth_duration_MTurk/v2_DepthDuration_HTML.html#51,51,1366,625,1366,768,8-29-2022,10-42-2,62,depth_duration_stimuli/003010_2014-06-15_12-54-35_094959634447_rgbf000112-resize_0/003010_2014-06-15_12-54-35_094959634447_rgbf000112-resize_0-target.png,125,3.1185,88,5762,134,feet,jsons/VE125_randls_69_rotated.json,1840226,2002691,62,Man
62,725003,DepthScenes,duration_manipulation_targetAtFixation,jsons/VE125_randls_69_rotated.json,http://54.235.29.9/FacialAge/BNav_EC2/DepthDuration/v2_depth_duration_MTurk/v2_DepthDuration_HTML.html#51,51,1366,625,1366,768,8-29-2022,10-42-2,63,depth_duration_stimuli/001810_2014-06-26_20-51-35_260595134347_rgbf000040-resize_3/001810_2014-06-26_20-51-35_260595134347_rgbf000040-resize_3-target.png,125,2.2525,66,3784,112,feet,jsons/VE125_randls_69_rotated.json,1840226,2002691,62,Man
63,725003,DepthScenes,duration_manipulation_targetAtFixation,jsons/VE125_randls_69_rotated.json,http://54.235.29.9/FacialAge/BNav_EC2/DepthDuration/v2_depth_duration_MTurk/v2_DepthDuration_HTML.html#51,51,1366,625,1366,768,8-29-2022,10-42-2,64,depth_duration_stimuli/002568_2014-06-24_13-59-21_094959634447_rgbf000062-resize_4/002568_2014-06-24_13-59-21_094959634447_rgbf000062-resize_4-target.png,125,3.015,55,2924,120,feet,jsons/VE125_randls_69_rotated.json,1840226,2002691,62,Man
64,725003,DepthScenes,duration_manipulation_targetAtFixation,jsons/VE125_randls_69_rotated.json,http://54.235.29.9/FacialAge/BNav_EC2/DepthDuration/v2_depth_duration_MTurk/v2_DepthDuration_HTML.html#51,51,1366,625,1366,768,8-29-2022,10-42-2,65,depth_duration_stimuli/003492_2014-05-21_15-50-55_094959634447_rgbf000828-resize_1/003492_2014-05-21_15-50-55_094959634447_rgbf000828-resize_1-target.png,125,4.06875,66,2583,124,feet,jsons/VE125_randls_69_rotated.json,1840226,2002691,62,Man
65,725003,DepthScenes,duration_manipulation_targetAtFixation,jsons/VE125_randls_69_rotated.json,http://54.235.29.9/FacialAge/BNav_EC2/DepthDuration/v2_depth_duration_MTurk/v2_DepthDuration_HTML.html#51,51,1366,625,1366,768,8-29-2022,10-42-2,66,depth_duration_stimuli/001540_2014-06-20_17-01-05_260595134347_rgbf000086-resize_2/001540_2014-06-20_17-01-05_260595134347_rgbf000086-resize-original.jpg,125,1.459,55,2752,122,feet,jsons/VE125_randls_69_rotated.json,1840226,2002691,62,Man
66,725003,DepthScenes,duration_manipulation_targetAtFixation,jsons/VE125_randls_69_rotated.json,http://54.235.29.9/FacialAge/BNav_EC2/DepthDuration/v2_depth_duration_MTurk/v2_DepthDuration_HTML.html#51,51,1366,625,1366,768,8-29-2022,10-42-2,67,depth_duration_stimuli/000854_2014-06-09_19-43-13_260595134347_rgbf000066-resize_0/000854_2014-06-09_19-43-13_260595134347_rgbf000066-resize_0-target.png,125,3.068,66,2644,111,feet,jsons/VE125_randls_69_rotated.json,1840226,2002691,62,Man
67,725003,DepthScenes,duration_manipulation_targetAtFixation,jsons/VE125_randls_69_rotated.json,http://54.235.29.9/FacialAge/BNav_EC2/DepthDuration/v2_depth_duration_MTurk/v2_DepthDuration_HTML.html#51,51,1366,625,1366,768,8-29-2022,10-42-2,68,depth_duration_stimuli/000758_2014-06-08_22-05-08_260595134347_rgbf000085-resize_0/000758_2014-06-08_22-05-08_260595134347_rgbf000085-resize_0-target.png,125,3.3810000000000002,99,2709,121,feet,jsons/VE125_randls_69_rotated.json,1840226,2002691,62,Man
68,725003,DepthScenes,duration_manipulation_targetAtFixation,jsons/VE125_randls_69_rotated.json,http://54.235.29.9/FacialAge/BNav_EC2/DepthDuration/v2_depth_duration_MTurk/v2_DepthDuration_HTML.html#51,51,1366,625,1366,768,8-29-2022,10-42-2,69,depth_duration_stimuli/000109_2014-05-14_23-41-52_260595134347_rgbf000035-resize_9/000109_2014-05-14_23-41-52_260595134347_rgbf000035-resize_9-target.png,125,1.3545,88,2249,124,feet,jsons/VE125_randls_69_rotated.json,1840226,2002691,62,Man
69,725003,DepthScenes,duration_manipulation_targetAtFixation,jsons/VE125_randls_69_rotated.json,http://54.235.29.9/FacialAge/BNav_EC2/DepthDuration/v2_depth_duration_MTurk/v2_DepthDuration_HTML.html#51,51,1366,625,1366,768,8-29-2022,10-42-2,70,depth_duration_stimuli/000470_2014-06-09_19-42-40_260595134347_rgbf000094-resize_1/000470_2014-06-09_19-42-40_260595134347_rgbf000094-resize_1-target.png,125,1.831,77,3017,123,feet,jsons/VE125_randls_69_rotated.json,1840226,2002691,62,Man
70,725003,DepthScenes,duration_manipulation_targetAtFixation,jsons/VE125_randls_69_rotated.json,http://54.235.29.9/FacialAge/BNav_EC2/DepthDuration/v2_depth_duration_MTurk/v2_DepthDuration_HTML.html#51,51,1366,625,1366,768,8-29-2022,10-42-2,71,depth_duration_stimuli/002444_2014-06-28_20-32-08_260595134347_rgbf000027-resize_0/002444_2014-06-28_20-32-08_260595134347_rgbf000027-resize_0-target.png,125,4.388999999999999,55,3579,124,feet,jsons/VE125_randls_69_rotated.json,1840226,2002691,62,Man
71,725003,DepthScenes,duration_manipulation_targetAtFixation,jsons/VE125_randls_69_rotated.json,http://54.235.29.9/FacialAge/BNav_EC2/DepthDuration/v2_depth_duration_MTurk/v2_DepthDuration_HTML.html#51,51,1366,625,1366,768,8-29-2022,10-42-2,72,depth_duration_stimuli/000436_2014-06-09_22-25-11_260595134347_rgbf000137-resize_1/000436_2014-06-09_22-25-11_260595134347_rgbf000137-resize_1-target.png,125,4.0705,66,2482,120,feet,jsons/VE125_randls_69_rotated.json,1840226,2002691,62,Man
72,725003,DepthScenes,duration_manipulation_targetAtFixation,jsons/VE125_randls_69_rotated.json,http://54.235.29.9/FacialAge/BNav_EC2/DepthDuration/v2_depth_duration_MTurk/v2_DepthDuration_HTML.html#51,51,1366,625,1366,768,8-29-2022,10-42-2,73,depth_duration_stimuli/001136_2014-06-17_15-19-41_260595134347_rgbf000076-resize_3/001136_2014-06-17_15-19-41_260595134347_rgbf000076-resize_3-target.png,125,1.8655,77,2788,140,feet,jsons/VE125_randls_69_rotated.json,1840226,2002691,62,Man
73,725003,DepthScenes,duration_manipulation_targetAtFixation,jsons/VE125_randls_69_rotated.json,http://54.235.29.9/FacialAge/BNav_EC2/DepthDuration/v2_depth_duration_MTurk/v2_DepthDuration_HTML.html#51,51,1366,625,1366,768,8-29-2022,10-42-2,74,depth_duration_stimuli/001164_2014-06-17_15-35-46_260595134347_rgbf000085-resize_3/001164_2014-06-17_15-35-46_260595134347_rgbf000085-resize_3-target.png,125,2.354,55,2357,127,feet,jsons/VE125_randls_69_rotated.json,1840226,2002691,62,Man
74,725003,DepthScenes,duration_manipulation_targetAtFixation,jsons/VE125_randls_69_rotated.json,http://54.235.29.9/FacialAge/BNav_EC2/DepthDuration/v2_depth_duration_MTurk/v2_DepthDuration_HTML.html#51,51,1366,625,1366,768,8-29-2022,10-42-2,75,depth_duration_stimuli/001650_2014-06-20_12-09-00_260595134347_rgbf000087-resize_3/001650_2014-06-20_12-09-00_260595134347_rgbf000087-resize_3-target.png,125,1.9505,45,2587,125,feet,jsons/VE125_randls_69_rotated.json,1840226,2002691,62,Man
75,725003,DepthScenes,duration_manipulation_targetAtFixation,jsons/VE125_randls_69_rotated.json,http://54.235.29.9/FacialAge/BNav_EC2/DepthDuration/v2_depth_duration_MTurk/v2_DepthDuration_HTML.html#51,51,1366,625,1366,768,8-29-2022,10-42-2,76,depth_duration_stimuli/000682_2014-06-08_23-14-58_260595134347_rgbf000041-resize_5/000682_2014-06-08_23-14-58_260595134347_rgbf000041-resize_5-target.png,125,2.7239999999999998,55,2568,111,feet,jsons/VE125_randls_69_rotated.json,1840226,2002691,62,Man
76,725003,DepthScenes,duration_manipulation_targetAtFixation,jsons/VE125_randls_69_rotated.json,http://54.235.29.9/FacialAge/BNav_EC2/DepthDuration/v2_depth_duration_MTurk/v2_DepthDuration_HTML.html#51,51,1366,625,1366,768,8-29-2022,10-42-2,77,depth_duration_stimuli/000549_2014-06-08_22-10-24_260595134347_rgbf000247-resize_3/000549_2014-06-08_22-10-24_260595134347_rgbf000247-resize_3-target.png,125,1.841,66,2372,123,feet,jsons/VE125_randls_69_rotated.json,1840226,2002691,62,Man
77,725003,DepthScenes,duration_manipulation_targetAtFixation,jsons/VE125_randls_69_rotated.json,http://54.235.29.9/FacialAge/BNav_EC2/DepthDuration/v2_depth_duration_MTurk/v2_DepthDuration_HTML.html#51,51,1366,625,1366,768,8-29-2022,10-42-2,78,depth_duration_stimuli/001055_2014-06-08_18-45-35_260595134347_rgbf000111-resize_4/001055_2014-06-08_18-45-35_260595134347_rgbf000111-resize_4-target.png,125,2.4290000000000003,88,2978,113,feet,jsons/VE125_randls_69_rotated.json,1840226,2002691,62,Man
78,725003,DepthScenes,duration_manipulation_targetAtFixation,jsons/VE125_randls_69_rotated.json,http://54.235.29.9/FacialAge/BNav_EC2/DepthDuration/v2_depth_duration_MTurk/v2_DepthDuration_HTML.html#51,51,1366,625,1366,768,8-29-2022,10-42-2,79,depth_duration_stimuli/002209_2014-06-28_18-36-10_260595134347_rgbf000051-resize_1/002209_2014-06-28_18-36-10_260595134347_rgbf000051-resize_1-target.png,125,2.057,45,2431,123,feet,jsons/VE125_randls_69_rotated.json,1840226,2002691,62,Man
79,725003,DepthScenes,duration_manipulation_targetAtFixation,jsons/VE125_randls_69_rotated.json,http://54.235.29.9/FacialAge/BNav_EC2/DepthDuration/v2_depth_duration_MTurk/v2_DepthDuration_HTML.html#51,51,1366,625,1366,768,8-29-2022,10-42-2,80,depth_duration_stimuli/002763_2014-06-22_19-13-10_094959634447_rgbf000075-resize_4/002763_2014-06-22_19-13-10_094959634447_rgbf000075-resize_4-target.png,125,1.68375,55,2214,126,feet,jsons/VE125_randls_69_rotated.json,1840226,2002691,62,Man
80,725003,DepthScenes,duration_manipulation_targetAtFixation,jsons/VE125_randls_69_rotated.json,http://54.235.29.9/FacialAge/BNav_EC2/DepthDuration/v2_depth_duration_MTurk/v2_DepthDuration_HTML.html#51,51,1366,625,1366,768,8-29-2022,10-42-2,81,depth_duration_stimuli/001032_2014-06-08_13-23-17_260595134347_rgbf000021-resize_3/001032_2014-06-08_13-23-17_260595134347_rgbf000021-resize_3-target.png,125,3.2725,57,2576,136,feet,jsons/VE125_randls_69_rotated.json,1840226,2002691,62,Man
81,725003,DepthScenes,duration_manipulation_targetAtFixation,jsons/VE125_randls_69_rotated.json,http://54.235.29.9/FacialAge/BNav_EC2/DepthDuration/v2_depth_duration_MTurk/v2_DepthDuration_HTML.html#51,51,1366,625,1366,768,8-29-2022,10-42-2,82,depth_duration_stimuli/001059_2014-06-08_21-53-27_260595134347_rgbf000061-resize_4/001059_2014-06-08_21-53-27_260595134347_rgbf000061-resize_4-target.png,125,2.4185,58,2437,117,feet,jsons/VE125_randls_69_rotated.json,1840226,2002691,62,Man
82,725003,DepthScenes,duration_manipulation_targetAtFixation,jsons/VE125_randls_69_rotated.json,http://54.235.29.9/FacialAge/BNav_EC2/DepthDuration/v2_depth_duration_MTurk/v2_DepthDuration_HTML.html#51,51,1366,625,1366,768,8-29-2022,10-42-2,83,depth_duration_stimuli/000734_2014-06-08_17-39-11_260595134347_rgbf000128-resize_2/000734_2014-06-08_17-39-11_260595134347_rgbf000128-resize_2-target.png,125,4.098,85,2314,130,feet,jsons/VE125_randls_69_rotated.json,1840226,2002691,62,Man
83,725003,DepthScenes,duration_manipulation_targetAtFixation,jsons/VE125_randls_69_rotated.json,http://54.235.29.9/FacialAge/BNav_EC2/DepthDuration/v2_depth_duration_MTurk/v2_DepthDuration_HTML.html#51,51,1366,625,1366,768,8-29-2022,10-42-2,84,depth_duration_stimuli/000739_2014-06-08_18-45-58_260595134347_rgbf000068-resize_1/000739_2014-06-08_18-45-58_260595134347_rgbf000068-resize_1-target.png,125,3.534,65,3227,122,feet,jsons/VE125_randls_69_rotated.json,1840226,2002691,62,Man
84,725003,DepthScenes,duration_manipulation_targetAtFixation,jsons/VE125_randls_69_rotated.json,http://54.235.29.9/FacialAge/BNav_EC2/DepthDuration/v2_depth_duration_MTurk/v2_DepthDuration_HTML.html#51,51,1366,625,1366,768,8-29-2022,10-42-2,85,depth_duration_stimuli/002199_2014-06-28_18-33-56_260595134347_rgbf000074-resize_0/002199_2014-06-28_18-33-56_260595134347_rgbf000074-resize_0-target.png,125,1.996,55,2446,80,feet,jsons/VE125_randls_69_rotated.json,1840226,2002691,62,Man
85,725003,DepthScenes,duration_manipulation_targetAtFixation,jsons/VE125_randls_69_rotated.json,http://54.235.29.9/FacialAge/BNav_EC2/DepthDuration/v2_depth_duration_MTurk/v2_DepthDuration_HTML.html#51,51,1366,625,1366,768,8-29-2022,10-42-2,86,depth_duration_stimuli/001056_2014-06-08_18-46-44_260595134347_rgbf000068-resize_0/001056_2014-06-08_18-46-44_260595134347_rgbf000068-resize_0-target.png,125,2.6625,99,2485,125,feet,jsons/VE125_randls_69_rotated.json,1840226,2002691,62,Man
86,725003,DepthScenes,duration_manipulation_targetAtFixation,jsons/VE125_randls_69_rotated.json,http://54.235.29.9/FacialAge/BNav_EC2/DepthDuration/v2_depth_duration_MTurk/v2_DepthDuration_HTML.html#51,51,1366,625,1366,768,8-29-2022,10-42-2,87,depth_duration_stimuli/003490_2014-05-21_15-50-11_094959634447_rgbf000101-resize_3/003490_2014-05-21_15-50-11_094959634447_rgbf000101-resize_3-target.png,125,3.6445,85,2537,109,feet,jsons/VE125_randls_69_rotated.json,1840226,2002691,62,Man
87,725003,DepthScenes,duration_manipulation_targetAtFixation,jsons/VE125_randls_69_rotated.json,http://54.235.29.9/FacialAge/BNav_EC2/DepthDuration/v2_depth_duration_MTurk/v2_DepthDuration_HTML.html#51,51,1366,625,1366,768,8-29-2022,10-42-2,88,depth_duration_stimuli/001175_2014-06-17_15-45-55_260595134347_rgbf000129-resize_4/001175_2014-06-17_15-45-55_260595134347_rgbf000129-resize_4-target.png,125,4.255,75,2423,136,feet,jsons/VE125_randls_69_rotated.json,1840226,2002691,62,Man
88,725003,DepthScenes,duration_manipulation_targetAtFixation,jsons/VE125_randls_69_rotated.json,http://54.235.29.9/FacialAge/BNav_EC2/DepthDuration/v2_depth_duration_MTurk/v2_DepthDuration_HTML.html#51,51,1366,625,1366,768,8-29-2022,10-42-2,89,depth_duration_stimuli/002657_2014-06-13_15-29-54_094959634447_rgbf000150-resize_1/002657_2014-06-13_15-29-54_094959634447_rgbf000150-resize_1-target.png,125,4.919,75,2236,125,feet,jsons/VE125_randls_69_rotated.json,1840226,2002691,62,Man
89,725003,DepthScenes,duration_manipulation_targetAtFixation,jsons/VE125_randls_69_rotated.json,http://54.235.29.9/FacialAge/BNav_EC2/DepthDuration/v2_depth_duration_MTurk/v2_DepthDuration_HTML.html#51,51,1366,625,1366,768,8-29-2022,10-42-2,90,depth_duration_stimuli/002375_2014-06-28_20-13-44_260595134347_rgbf000032-resize_1/002375_2014-06-28_20-13-44_260595134347_rgbf000032-resize_1-target.png,125,4.0175,85,2569,126,feet,jsons/VE125_randls_69_rotated.json,1840226,2002691,62,Man
90,725003,DepthScenes,duration_manipulation_targetAtFixation,jsons/VE125_randls_69_rotated.json,http://54.235.29.9/FacialAge/BNav_EC2/DepthDuration/v2_depth_duration_MTurk/v2_DepthDuration_HTML.html#51,51,1366,625,1366,768,8-29-2022,10-42-2,91,depth_duration_stimuli/002425_2014-06-28_20-27-29_260595134347_rgbf000031-resize_8/002425_2014-06-28_20-27-29_260595134347_rgbf000031-resize_8-target.png,125,3.8960000000000004,75,2117,162,feet,jsons/VE125_randls_69_rotated.json,1840226,2002691,62,Man
91,725003,DepthScenes,duration_manipulation_targetAtFixation,jsons/VE125_randls_69_rotated.json,http://54.235.29.9/FacialAge/BNav_EC2/DepthDuration/v2_depth_duration_MTurk/v2_DepthDuration_HTML.html#51,51,1366,625,1366,768,8-29-2022,10-42-2,92,depth_duration_stimuli/000642_2014-06-08_16-59-25_260595134347_rgbf000098-resize_2/000642_2014-06-08_16-59-25_260595134347_rgbf000098-resize_2-target.png,125,2.8815,85,2320,135,feet,jsons/VE125_randls_69_rotated.json,1840226,2002691,62,Man
92,725003,DepthScenes,duration_manipulation_targetAtFixation,jsons/VE125_randls_69_rotated.json,http://54.235.29.9/FacialAge/BNav_EC2/DepthDuration/v2_depth_duration_MTurk/v2_DepthDuration_HTML.html#51,51,1366,625,1366,768,8-29-2022,10-42-2,93,depth_duration_stimuli/001450_2014-06-19_17-02-03_260595134347_rgbf000203-resize_4/001450_2014-06-19_17-02-03_260595134347_rgbf000203-resize_4-target.png,125,4.0106666666667,75,3199,119,feet,jsons/VE125_randls_69_rotated.json,1840226,2002691,62,Man
93,725003,DepthScenes,duration_manipulation_targetAtFixation,jsons/VE125_randls_69_rotated.json,http://54.235.29.9/FacialAge/BNav_EC2/DepthDuration/v2_depth_duration_MTurk/v2_DepthDuration_HTML.html#51,51,1366,625,1366,768,8-29-2022,10-42-2,94,depth_duration_stimuli/001449_2014-06-19_17-01-27_260595134347_rgbf000116-resize_2/001449_2014-06-19_17-01-27_260595134347_rgbf000116-resize_2-target.png,125,3.452,85,2206,129,feet,jsons/VE125_randls_69_rotated.json,1840226,2002691,62,Man
94,725003,DepthScenes,duration_manipulation_targetAtFixation,jsons/VE125_randls_69_rotated.json,http://54.235.29.9/FacialAge/BNav_EC2/DepthDuration/v2_depth_duration_MTurk/v2_DepthDuration_HTML.html#51,51,1366,625,1366,768,8-29-2022,10-42-2,95,depth_duration_stimuli/000709_2014-06-08_13-51-55_260595134347_rgbf000068-resize_3/000709_2014-06-08_13-51-55_260595134347_rgbf000068-resize_3-target.png,125,1.8030000000000002,75,2997,126,feet,jsons/VE125_randls_69_rotated.json,1840226,2002691,62,Man
95,725003,DepthScenes,duration_manipulation_targetAtFixation,jsons/VE125_randls_69_rotated.json,http://54.235.29.9/FacialAge/BNav_EC2/DepthDuration/v2_depth_duration_MTurk/v2_DepthDuration_HTML.html#51,51,1366,625,1366,768,8-29-2022,10-42-2,96,depth_duration_stimuli/002057_2014-06-24_21-00-13_260595134347_rgbf000120-resize_1/002057_2014-06-24_21-00-13_260595134347_rgbf000120-resize_1-target.png,125,2.967,55,2480,124,feet,jsons/VE125_randls_69_rotated.json,1840226,2002691,62,Man
96,725003,DepthScenes,duration_manipulation_targetAtFixation,jsons/VE125_randls_69_rotated.json,http://54.235.29.9/FacialAge/BNav_EC2/DepthDuration/v2_depth_duration_MTurk/v2_DepthDuration_HTML.html#51,51,1366,625,1366,768,8-29-2022,10-42-2,97,depth_duration_stimuli/002949_2014-06-26_15-57-42_094959634447_rgbf000079-resize_1/002949_2014-06-26_15-57-42_094959634447_rgbf000079-resize_1-target.png,125,1.8915,66,2057,123,feet,jsons/VE125_randls_69_rotated.json,1840226,2002691,62,Man
97,725003,DepthScenes,duration_manipulation_targetAtFixation,jsons/VE125_randls_69_rotated.json,http://54.235.29.9/FacialAge/BNav_EC2/DepthDuration/v2_depth_duration_MTurk/v2_DepthDuration_HTML.html#51,51,1366,625,1366,768,8-29-2022,10-42-2,98,depth_duration_stimuli/000522_2014-06-08_13-35-06_260595134347_rgbf000244-resize_1/000522_2014-06-08_13-35-06_260595134347_rgbf000244-resize_1-target.png,125,2.3715,75,2616,130,feet,jsons/VE125_randls_69_rotated.json,1840226,2002691,62,Man
98,725003,DepthScenes,duration_manipulation_targetAtFixation,jsons/VE125_randls_69_rotated.json,http://54.235.29.9/FacialAge/BNav_EC2/DepthDuration/v2_depth_duration_MTurk/v2_DepthDuration_HTML.html#51,51,1366,625,1366,768,8-29-2022,10-42-2,99,depth_duration_stimuli/001222_2014-06-17_16-24-06_260595134347_rgbf000073-resize_0/001222_2014-06-17_16-24-06_260595134347_rgbf000073-resize-original.jpg,125,1.4385,85,2598,123,feet,jsons/VE125_randls_69_rotated.json,1840226,2002691,62,Man
99,725003,DepthScenes,duration_manipulation_targetAtFixation,jsons/VE125_randls_69_rotated.json,http://54.235.29.9/FacialAge/BNav_EC2/DepthDuration/v2_depth_duration_MTurk/v2_DepthDuration_HTML.html#51,51,1366,625,1366,768,8-29-2022,10-42-2,100,depth_duration_stimuli/001235_2014-06-17_16-37-36_260595134347_rgbf000084-resize_4/001235_2014-06-17_16-37-36_260595134347_rgbf000084-resize_4-target.png,125,3.6605,44,3761,123,feet,jsons/VE125_randls_69_rotated.json,1840226,2002691,62,Man
100,725003,DepthScenes,duration_manipulation_targetAtFixation,jsons/VE125_randls_69_rotated.json,http://54.235.29.9/FacialAge/BNav_EC2/DepthDuration/v2_depth_duration_MTurk/v2_DepthDuration_HTML.html#51,51,1366,625,1366,768,8-29-2022,10-42-2,101,depth_duration_stimuli/000788_2014-06-08_22-34-36_260595134347_rgbf000131-resize_1/000788_2014-06-08_22-34-36_260595134347_rgbf000131-resize_1-target.png,125,3.359,85,2737,130,feet,jsons/VE125_randls_69_rotated.json,1840226,2002691,62,Man
101,725003,DepthScenes,duration_manipulation_targetAtFixation,jsons/VE125_randls_69_rotated.json,http://54.235.29.9/FacialAge/BNav_EC2/DepthDuration/v2_depth_duration_MTurk/v2_DepthDuration_HTML.html#51,51,1366,625,1366,768,8-29-2022,10-42-2,102,depth_duration_stimuli/000191_2014-05-12_17-07-38_260595134347_rgbf000199-resize_0/000191_2014-05-12_17-07-38_260595134347_rgbf000199-resize_0-target.png,125,3.7995,74,2222,108,feet,jsons/VE125_randls_69_rotated.json,1840226,2002691,62,Man
102,725003,DepthScenes,duration_manipulation_targetAtFixation,jsons/VE125_randls_69_rotated.json,http://54.235.29.9/FacialAge/BNav_EC2/DepthDuration/v2_depth_duration_MTurk/v2_DepthDuration_HTML.html#51,51,1366,625,1366,768,8-29-2022,10-42-2,103,depth_duration_stimuli/000493_2014-06-09_21-01-18_260595134347_rgbf000196-resize_3/000493_2014-06-09_21-01-18_260595134347_rgbf000196-resize_3-target.png,125,3.44,85,2274,127,feet,jsons/VE125_randls_69_rotated.json,1840226,2002691,62,Man
103,725003,DepthScenes,duration_manipulation_targetAtFixation,jsons/VE125_randls_69_rotated.json,http://54.235.29.9/FacialAge/BNav_EC2/DepthDuration/v2_depth_duration_MTurk/v2_DepthDuration_HTML.html#51,51,1366,625,1366,768,8-29-2022,10-42-2,104,depth_duration_stimuli/000742_2014-06-08_18-48-09_260595134347_rgbf000164-resize_4/000742_2014-06-08_18-48-09_260595134347_rgbf000164-resize_4-target.png,125,4.632,75,2689,128,feet,jsons/VE125_randls_69_rotated.json,1840226,2002691,62,Man
104,725003,DepthScenes,duration_manipulation_targetAtFixation,jsons/VE125_randls_69_rotated.json,http://54.235.29.9/FacialAge/BNav_EC2/DepthDuration/v2_depth_duration_MTurk/v2_DepthDuration_HTML.html#51,51,1366,625,1366,768,8-29-2022,10-42-2,105,depth_duration_stimuli/001066_2014-06-08_22-03-20_260595134347_rgbf000066-resize_4/001066_2014-06-08_22-03-20_260595134347_rgbf000066-resize_4-target.png,125,4.2330000000000005,85,2728,130,feet,jsons/VE125_randls_69_rotated.json,1840226,2002691,62,Man
105,725003,DepthScenes,duration_manipulation_targetAtFixation,jsons/VE125_randls_69_rotated.json,http://54.235.29.9/FacialAge/BNav_EC2/DepthDuration/v2_depth_duration_MTurk/v2_DepthDuration_HTML.html#51,51,1366,625,1366,768,8-29-2022,10-42-2,106,depth_duration_stimuli/000677_2014-06-08_23-10-32_260595134347_rgbf000158-resize_6/000677_2014-06-08_23-10-32_260595134347_rgbf000158-resize_6-target.png,125,3.556,99,2798,128,feet,jsons/VE125_randls_69_rotated.json,1840226,2002691,62,Man
106,725003,DepthScenes,duration_manipulation_targetAtFixation,jsons/VE125_randls_69_rotated.json,http://54.235.29.9/FacialAge/BNav_EC2/DepthDuration/v2_depth_duration_MTurk/v2_DepthDuration_HTML.html#51,51,1366,625,1366,768,8-29-2022,10-42-2,107,depth_duration_stimuli/001029_2014-06-08_13-17-57_260595134347_rgbf000065-resize_1/001029_2014-06-08_13-17-57_260595134347_rgbf000065-resize_1-target.png,125,3.0835,85,5805,127,feet,jsons/VE125_randls_69_rotated.json,1840226,2002691,62,Man
107,725003,DepthScenes,duration_manipulation_targetAtFixation,jsons/VE125_randls_69_rotated.json,http://54.235.29.9/FacialAge/BNav_EC2/DepthDuration/v2_depth_duration_MTurk/v2_DepthDuration_HTML.html#51,51,1366,625,1366,768,8-29-2022,10-42-2,108,depth_duration_stimuli/001584_2014-06-20_11-07-43_260595134347_rgbf000002-resize_1/001584_2014-06-20_11-07-43_260595134347_rgbf000002-resize_1-target.png,125,3.53,75,2254,126,feet,jsons/VE125_randls_69_rotated.json,1840226,2002691,62,Man
108,725003,DepthScenes,duration_manipulation_targetAtFixation,jsons/VE125_randls_69_rotated.json,http://54.235.29.9/FacialAge/BNav_EC2/DepthDuration/v2_depth_duration_MTurk/v2_DepthDuration_HTML.html#51,51,1366,625,1366,768,8-29-2022,10-42-2,109,depth_duration_stimuli/003621_2014-05-23_18-06-08_094959634447_rgbf000101-resize_1/003621_2014-05-23_18-06-08_094959634447_rgbf000101-resize_1-target.png,125,3.9835,85,2499,134,feet,jsons/VE125_randls_69_rotated.json,1840226,2002691,62,Man
109,725003,DepthScenes,duration_manipulation_targetAtFixation,jsons/VE125_randls_69_rotated.json,http://54.235.29.9/FacialAge/BNav_EC2/DepthDuration/v2_depth_duration_MTurk/v2_DepthDuration_HTML.html#51,51,1366,625,1366,768,8-29-2022,10-42-2,110,depth_duration_stimuli/000943_2014-06-09_19-31-07_260595134347_rgbf000128-resize_1/000943_2014-06-09_19-31-07_260595134347_rgbf000128-resize_1-target.png,125,1.9765,75,2586,124,feet,jsons/VE125_randls_69_rotated.json,1840226,2002691,62,Man
110,725003,DepthScenes,duration_manipulation_targetAtFixation,jsons/VE125_randls_69_rotated.json,http://54.235.29.9/FacialAge/BNav_EC2/DepthDuration/v2_depth_duration_MTurk/v2_DepthDuration_HTML.html#51,51,1366,625,1366,768,8-29-2022,10-42-2,111,depth_duration_stimuli/003070_2014-06-15_14-58-27_094959634447_rgbf000150-resize_3/003070_2014-06-15_14-58-27_094959634447_rgbf000150-resize_3-target.png,125,2.9415,77,2516,109,feet,jsons/VE125_randls_69_rotated.json,1840226,2002691,62,Man
111,725003,DepthScenes,duration_manipulation_targetAtFixation,jsons/VE125_randls_69_rotated.json,http://54.235.29.9/FacialAge/BNav_EC2/DepthDuration/v2_depth_duration_MTurk/v2_DepthDuration_HTML.html#51,51,1366,625,1366,768,8-29-2022,10-42-2,112,depth_duration_stimuli/002467_2014-06-28_20-38-07_260595134347_rgbf000026-resize_2/002467_2014-06-28_20-38-07_260595134347_rgbf000026-resize_2-target.png,125,4.742,76,3120,124,feet,jsons/VE125_randls_69_rotated.json,1840226,2002691,62,Man
112,725003,DepthScenes,duration_manipulation_targetAtFixation,jsons/VE125_randls_69_rotated.json,http://54.235.29.9/FacialAge/BNav_EC2/DepthDuration/v2_depth_duration_MTurk/v2_DepthDuration_HTML.html#51,51,1366,625,1366,768,8-29-2022,10-42-2,113,depth_duration_stimuli/002570_2014-06-24_13-59-54_094959634447_rgbf000059-resize_0/002570_2014-06-24_13-59-54_094959634447_rgbf000059-resize_0-target.png,125,4.037,85,2760,123,feet,jsons/VE125_randls_69_rotated.json,1840226,2002691,62,Man
113,725003,DepthScenes,duration_manipulation_targetAtFixation,jsons/VE125_randls_69_rotated.json,http://54.235.29.9/FacialAge/BNav_EC2/DepthDuration/v2_depth_duration_MTurk/v2_DepthDuration_HTML.html#51,51,1366,625,1366,768,8-29-2022,10-42-2,114,depth_duration_stimuli/001100_2014-06-15_17-46-26_260595134347_rgbf000225-resize_2/001100_2014-06-15_17-46-26_260595134347_rgbf000225-resize_2-target.png,125,2.24,75,2662,113,feet,jsons/VE125_randls_69_rotated.json,1840226,2002691,62,Man
114,725003,DepthScenes,duration_manipulation_targetAtFixation,jsons/VE125_randls_69_rotated.json,http://54.235.29.9/FacialAge/BNav_EC2/DepthDuration/v2_depth_duration_MTurk/v2_DepthDuration_HTML.html#51,51,1366,625,1366,768,8-29-2022,10-42-2,115,depth_duration_stimuli/002784_2014-06-22_19-26-30_094959634447_rgbf000083-resize_3/002784_2014-06-22_19-26-30_094959634447_rgbf000083-resize_3-target.png,125,1.8046666666667,76,2414,125,feet,jsons/VE125_randls_69_rotated.json,1840226,2002691,62,Man
115,725003,DepthScenes,duration_manipulation_targetAtFixation,jsons/VE125_randls_69_rotated.json,http://54.235.29.9/FacialAge/BNav_EC2/DepthDuration/v2_depth_duration_MTurk/v2_DepthDuration_HTML.html#51,51,1366,625,1366,768,8-29-2022,10-42-2,116,depth_duration_stimuli/001094_2014-06-15_17-36-00_260595134347_rgbf000205-resize_0/001094_2014-06-15_17-36-00_260595134347_rgbf000205-resize_0-target.png,125,4.2175,85,2596,122,feet,jsons/VE125_randls_69_rotated.json,1840226,2002691,62,Man
116,725003,DepthScenes,duration_manipulation_targetAtFixation,jsons/VE125_randls_69_rotated.json,http://54.235.29.9/FacialAge/BNav_EC2/DepthDuration/v2_depth_duration_MTurk/v2_DepthDuration_HTML.html#51,51,1366,625,1366,768,8-29-2022,10-42-2,117,depth_duration_stimuli/000692_2014-06-08_13-09-42_260595134347_rgbf000199-resize_2/000692_2014-06-08_13-09-42_260595134347_rgbf000199-resize_2-target.png,125,3.661,75,2647,135,feet,jsons/VE125_randls_69_rotated.json,1840226,2002691,62,Man
117,725003,DepthScenes,duration_manipulation_targetAtFixation,jsons/VE125_randls_69_rotated.json,http://54.235.29.9/FacialAge/BNav_EC2/DepthDuration/v2_depth_duration_MTurk/v2_DepthDuration_HTML.html#51,51,1366,625,1366,768,8-29-2022,10-42-2,118,depth_duration_stimuli/002758_2014-06-22_19-11-20_094959634447_rgbf000128-resize_1/002758_2014-06-22_19-11-20_094959634447_rgbf000128-resize_1-target.png,125,2.555,78,3067,113,feet,jsons/VE125_randls_69_rotated.json,1840226,2002691,62,Man
118,725003,DepthScenes,duration_manipulation_targetAtFixation,jsons/VE125_randls_69_rotated.json,http://54.235.29.9/FacialAge/BNav_EC2/DepthDuration/v2_depth_duration_MTurk/v2_DepthDuration_HTML.html#51,51,1366,625,1366,768,8-29-2022,10-42-2,119,depth_duration_stimuli/002630_2014-06-24_14-47-50_094959634447_rgbf000055-resize_1/002630_2014-06-24_14-47-50_094959634447_rgbf000055-resize_1-target.png,125,3.0095,76,2859,115,feet,jsons/VE125_randls_69_rotated.json,1840226,2002691,62,Man
119,725003,DepthScenes,duration_manipulation_targetAtFixation,jsons/VE125_randls_69_rotated.json,http://54.235.29.9/FacialAge/BNav_EC2/DepthDuration/v2_depth_duration_MTurk/v2_DepthDuration_HTML.html#51,51,1366,625,1366,768,8-29-2022,10-42-2,120,depth_duration_stimuli/000787_2014-06-08_22-33-53_260595134347_rgbf000175-resize_1/000787_2014-06-08_22-33-53_260595134347_rgbf000175-resize-original.jpg,125,4.784,75,2544,112,feet,jsons/VE125_randls_69_rotated.json,1840226,2002691,62,Man
120,725003,DepthScenes,duration_manipulation_targetAtFixation,jsons/VE125_randls_69_rotated.json,http://54.235.29.9/FacialAge/BNav_EC2/DepthDuration/v2_depth_duration_MTurk/v2_DepthDuration_HTML.html#51,51,1366,625,1366,768,8-29-2022,10-42-2,121,depth_duration_stimuli/003083_2014-06-15_15-21-03_094959634447_rgbf000063-resize_1/003083_2014-06-15_15-21-03_094959634447_rgbf000063-resize_1-target.png,125,4.1405,85,2795,157,feet,jsons/VE125_randls_69_rotated.json,1840226,2002691,62,Man
121,725003,DepthScenes,duration_manipulation_targetAtFixation,jsons/VE125_randls_69_rotated.json,http://54.235.29.9/FacialAge/BNav_EC2/DepthDuration/v2_depth_duration_MTurk/v2_DepthDuration_HTML.html#51,51,1366,625,1366,768,8-29-2022,10-42-2,122,depth_duration_stimuli/000486_2014-06-09_20-47-20_260595134347_rgbf000143-resize_2/000486_2014-06-09_20-47-20_260595134347_rgbf000143-resize_2-target.png,125,4.8325,75,2486,102,feet,jsons/VE125_randls_69_rotated.json,1840226,2002691,62,Man
122,725003,DepthScenes,duration_manipulation_targetAtFixation,jsons/VE125_randls_69_rotated.json,http://54.235.29.9/FacialAge/BNav_EC2/DepthDuration/v2_depth_duration_MTurk/v2_DepthDuration_HTML.html#51,51,1366,625,1366,768,8-29-2022,10-42-2,123,depth_duration_stimuli/002805_2014-06-22_19-54-03_094959634447_rgbf000079-resize_1/002805_2014-06-22_19-54-03_094959634447_rgbf000079-resize_1-target.png,125,3.1439999999999997,85,2128,123,feet,jsons/VE125_randls_69_rotated.json,1840226,2002691,62,Man
123,725003,DepthScenes,duration_manipulation_targetAtFixation,jsons/VE125_randls_69_rotated.json,http://54.235.29.9/FacialAge/BNav_EC2/DepthDuration/v2_depth_duration_MTurk/v2_DepthDuration_HTML.html#51,51,1366,625,1366,768,8-29-2022,10-42-2,124,depth_duration_stimuli/000906_2014-06-08_13-35-43_260595134347_rgbf000155-resize_1/000906_2014-06-08_13-35-43_260595134347_rgbf000155-resize_1-target.png,125,2.8489999999999998,75,2443,126,feet,jsons/VE125_randls_69_rotated.json,1840226,2002691,62,Man
124,725003,DepthScenes,duration_manipulation_targetAtFixation,jsons/VE125_randls_69_rotated.json,http://54.235.29.9/FacialAge/BNav_EC2/DepthDuration/v2_depth_duration_MTurk/v2_DepthDuration_HTML.html#51,51,1366,625,1366,768,8-29-2022,10-42-2,125,depth_duration_stimuli/001571_2014-06-20_17-21-32_260595134347_rgbf000089-resize_1/001571_2014-06-20_17-21-32_260595134347_rgbf000089-resize_1-target.png,125,1.86,88,3280,126,feet,jsons/VE125_randls_69_rotated.json,1840226,2002691,62,Man
125,725003,DepthScenes,duration_manipulation_targetAtFixation,jsons/VE125_randls_69_rotated.json,http://54.235.29.9/FacialAge/BNav_EC2/DepthDuration/v2_depth_duration_MTurk/v2_DepthDuration_HTML.html#51,51,1366,625,1366,768,8-29-2022,10-42-2,126,depth_duration_stimuli/002272_2014-06-28_18-53-56_260595134347_rgbf000067-resize_2/002272_2014-06-28_18-53-56_260595134347_rgbf000067-resize_2-target.png,125,1.138,88,3158,120,feet,jsons/VE125_randls_69_rotated.json,1840226,2002691,62,Man
126,725003,DepthScenes,duration_manipulation_targetAtFixation,jsons/VE125_randls_69_rotated.json,http://54.235.29.9/FacialAge/BNav_EC2/DepthDuration/v2_depth_duration_MTurk/v2_DepthDuration_HTML.html#51,51,1366,625,1366,768,8-29-2022,10-42-2,127,depth_duration_stimuli/000866_2014-06-09_20-45-42_260595134347_rgbf000139-resize_1/000866_2014-06-09_20-45-42_260595134347_rgbf000139-resize_1-target.png,125,3.2155,55,3985,119,feet,jsons/VE125_randls_69_rotated.json,1840226,2002691,62,Man
127,725003,DepthScenes,duration_manipulation_targetAtFixation,jsons/VE125_randls_69_rotated.json,http://54.235.29.9/FacialAge/BNav_EC2/DepthDuration/v2_depth_duration_MTurk/v2_DepthDuration_HTML.html#51,51,1366,625,1366,768,8-29-2022,10-42-2,128,depth_duration_stimuli/002989_2014-06-15_12-25-03_094959634447_rgbf000150-resize_3/002989_2014-06-15_12-25-03_094959634447_rgbf000150-resize_3-target.png,125,4.1975,77,3150,126,feet,jsons/VE125_randls_69_rotated.json,1840226,2002691,62,Man
128,725003,DepthScenes,duration_manipulation_targetAtFixation,jsons/VE125_randls_69_rotated.json,http://54.235.29.9/FacialAge/BNav_EC2/DepthDuration/v2_depth_duration_MTurk/v2_DepthDuration_HTML.html#51,51,1366,625,1366,768,8-29-2022,10-42-2,129,depth_duration_stimuli/001052_2014-06-08_18-24-54_260595134347_rgbf000130-resize_1/001052_2014-06-08_18-24-54_260595134347_rgbf000130-resize_1-target.png,125,4.1045,85,2834,119,feet,jsons/VE125_randls_69_rotated.json,1840226,2002691,62,Man
129,725003,DepthScenes,duration_manipulation_targetAtFixation,jsons/VE125_randls_69_rotated.json,http://54.235.29.9/FacialAge/BNav_EC2/DepthDuration/v2_depth_duration_MTurk/v2_DepthDuration_HTML.html#51,51,1366,625,1366,768,8-29-2022,10-42-2,130,depth_duration_stimuli/002988_2014-06-15_12-24-20_094959634447_rgbf000150-resize_1/002988_2014-06-15_12-24-20_094959634447_rgbf000150-resize_1-target.png,125,4.7669999999999995,46,3750,115,feet,jsons/VE125_randls_69_rotated.json,1840226,2002691,62,Man
130,725003,DepthScenes,duration_manipulation_targetAtFixation,jsons/VE125_randls_69_rotated.json,http://54.235.29.9/FacialAge/BNav_EC2/DepthDuration/v2_depth_duration_MTurk/v2_DepthDuration_HTML.html#51,51,1366,625,1366,768,8-29-2022,10-42-2,131,depth_duration_stimuli/003495_2014-05-21_16-01-51_094959634447_rgbf000100-resize_3/003495_2014-05-21_16-01-51_094959634447_rgbf000100-resize_3-target.png,125,1.6255,55,2778,125,feet,jsons/VE125_randls_69_rotated.json,1840226,2002691,62,Man
131,725003,DepthScenes,duration_manipulation_targetAtFixation,jsons/VE125_randls_69_rotated.json,http://54.235.29.9/FacialAge/BNav_EC2/DepthDuration/v2_depth_duration_MTurk/v2_DepthDuration_HTML.html#51,51,1366,625,1366,768,8-29-2022,10-42-2,132,depth_duration_stimuli/001244_2014-06-17_16-47-45_260595134347_rgbf000030-resize_4/001244_2014-06-17_16-47-45_260595134347_rgbf000030-resize_4-target.png,125,2.0425,56,2515,121,feet,jsons/VE125_randls_69_rotated.json,1840226,2002691,62,Man
132,725003,DepthScenes,duration_manipulation_targetAtFixation,jsons/VE125_randls_69_rotated.json,http://54.235.29.9/FacialAge/BNav_EC2/DepthDuration/v2_depth_duration_MTurk/v2_DepthDuration_HTML.html#51,51,1366,625,1366,768,8-29-2022,10-42-2,133,depth_duration_stimuli/002136_2014-06-25_21-18-03_260595134347_rgbf000109-resize_3/002136_2014-06-25_21-18-03_260595134347_rgbf000109-resize_3-target.png,125,1.9569999999999999,46,2795,111,feet,jsons/VE125_randls_69_rotated.json,1840226,2002691,62,Man
133,725003,DepthScenes,duration_manipulation_targetAtFixation,jsons/VE125_randls_69_rotated.json,http://54.235.29.9/FacialAge/BNav_EC2/DepthDuration/v2_depth_duration_MTurk/v2_DepthDuration_HTML.html#51,51,1366,625,1366,768,8-29-2022,10-42-2,134,depth_duration_stimuli/002964_2014-06-08_17-46-11_094959634447_rgbf000091-resize_4/002964_2014-06-08_17-46-11_094959634447_rgbf000091-resize_4-target.png,125,1.6909999999999998,65,6504,123,feet,jsons/VE125_randls_69_rotated.json,1840226,2002691,62,Man
134,725003,DepthScenes,duration_manipulation_targetAtFixation,jsons/VE125_randls_69_rotated.json,http://54.235.29.9/FacialAge/BNav_EC2/DepthDuration/v2_depth_duration_MTurk/v2_DepthDuration_HTML.html#51,51,1366,625,1366,768,8-29-2022,10-42-2,135,depth_duration_stimuli/000375_2014-06-08_11-17-29_260595134347_rgbf000133-resize_2/000375_2014-06-08_11-17-29_260595134347_rgbf000133-resize-original.jpg,125,4.718,75,3049,125,feet,jsons/VE125_randls_69_rotated.json,1840226,2002691,62,Man
135,725003,DepthScenes,duration_manipulation_targetAtFixation,jsons/VE125_randls_69_rotated.json,http://54.235.29.9/FacialAge/BNav_EC2/DepthDuration/v2_depth_duration_MTurk/v2_DepthDuration_HTML.html#51,51,1366,625,1366,768,8-29-2022,10-42-2,136,depth_duration_stimuli/002660_2014-06-13_15-44-18_094959634447_rgbf001878-resize_2/002660_2014-06-13_15-44-18_094959634447_rgbf001878-resize_2-target.png,125,3.576,85,2453,130,feet,jsons/VE125_randls_69_rotated.json,1840226,2002691,62,Man
136,725003,DepthScenes,duration_manipulation_targetAtFixation,jsons/VE125_randls_69_rotated.json,http://54.235.29.9/FacialAge/BNav_EC2/DepthDuration/v2_depth_duration_MTurk/v2_DepthDuration_HTML.html#51,51,1366,625,1366,768,8-29-2022,10-42-2,137,depth_duration_stimuli/002153_2014-06-25_21-27-18_260595134347_rgbf000038-resize_5/002153_2014-06-25_21-27-18_260595134347_rgbf000038-resize_5-target.png,125,2.505,75,2882,108,feet,jsons/VE125_randls_69_rotated.json,1840226,2002691,62,Man
137,725003,DepthScenes,duration_manipulation_targetAtFixation,jsons/VE125_randls_69_rotated.json,http://54.235.29.9/FacialAge/BNav_EC2/DepthDuration/v2_depth_duration_MTurk/v2_DepthDuration_HTML.html#51,51,1366,625,1366,768,8-29-2022,10-42-2,138,depth_duration_stimuli/000927_2014-06-09_16-32-30_260595134347_rgbf000123-resize_3/000927_2014-06-09_16-32-30_260595134347_rgbf000123-resize_3-target.png,125,2.6785,77,4747,125,feet,jsons/VE125_randls_69_rotated.json,1840226,2002691,62,Man
138,725003,DepthScenes,duration_manipulation_targetAtFixation,jsons/VE125_randls_69_rotated.json,http://54.235.29.9/FacialAge/BNav_EC2/DepthDuration/v2_depth_duration_MTurk/v2_DepthDuration_HTML.html#51,51,1366,625,1366,768,8-29-2022,10-42-2,139,depth_duration_stimuli/001110_2014-06-15_17-25-28_260595134347_rgbf000150-resize_1/001110_2014-06-15_17-25-28_260595134347_rgbf000150-resize_1-target.png,125,1.7115,25,2833,126,feet,jsons/VE125_randls_69_rotated.json,1840226,2002691,62,Man
139,725003,DepthScenes,duration_manipulation_targetAtFixation,jsons/VE125_randls_69_rotated.json,http://54.235.29.9/FacialAge/BNav_EC2/DepthDuration/v2_depth_duration_MTurk/v2_DepthDuration_HTML.html#51,51,1366,625,1366,768,8-29-2022,10-42-2,140,depth_duration_stimuli/001516_2014-06-20_16-25-09_260595134347_rgbf000076-resize_2/001516_2014-06-20_16-25-09_260595134347_rgbf000076-resize_2-target.png,125,1.7445,56,3195,108,feet,jsons/VE125_randls_69_rotated.json,1840226,2002691,62,Man
140,725003,DepthScenes,duration_manipulation_targetAtFixation,jsons/VE125_randls_69_rotated.json,http://54.235.29.9/FacialAge/BNav_EC2/DepthDuration/v2_depth_duration_MTurk/v2_DepthDuration_HTML.html#51,51,1366,625,1366,768,8-29-2022,10-42-2,141,depth_duration_stimuli/002118_2014-06-25_20-32-08_260595134347_rgbf000078-resize_1/002118_2014-06-25_20-32-08_260595134347_rgbf000078-resize_1-target.png,125,2.6460000000000004,65,2417,119,feet,jsons/VE125_randls_69_rotated.json,1840226,2002691,62,Man
141,725003,DepthScenes,duration_manipulation_targetAtFixation,jsons/VE125_randls_69_rotated.json,http://54.235.29.9/FacialAge/BNav_EC2/DepthDuration/v2_depth_duration_MTurk/v2_DepthDuration_HTML.html#51,51,1366,625,1366,768,8-29-2022,10-42-2,142,depth_duration_stimuli/002995_2014-06-15_12-31-26_094959634447_rgbf000150-resize_1/002995_2014-06-15_12-31-26_094959634447_rgbf000150-resize_1-target.png,125,3.8360000000000003,65,2395,124,feet,jsons/VE125_randls_69_rotated.json,1840226,2002691,62,Man
142,725003,DepthScenes,duration_manipulation_targetAtFixation,jsons/VE125_randls_69_rotated.json,http://54.235.29.9/FacialAge/BNav_EC2/DepthDuration/v2_depth_duration_MTurk/v2_DepthDuration_HTML.html#51,51,1366,625,1366,768,8-29-2022,10-42-2,143,depth_duration_stimuli/002748_2014-06-22_19-07-22_094959634447_rgbf000078-resize_1/002748_2014-06-22_19-07-22_094959634447_rgbf000078-resize_1-target.png,125,4.6705,53,2683,126,feet,jsons/VE125_randls_69_rotated.json,1840226,2002691,62,Man
143,725003,DepthScenes,duration_manipulation_targetAtFixation,jsons/VE125_randls_69_rotated.json,http://54.235.29.9/FacialAge/BNav_EC2/DepthDuration/v2_depth_duration_MTurk/v2_DepthDuration_HTML.html#51,51,1366,625,1366,768,8-29-2022,10-42-2,144,depth_duration_stimuli/000103_2014-05-14_22-01-17_260595134347_rgbf000152-resize_5/000103_2014-05-14_22-01-17_260595134347_rgbf000152-resize_5-target.png,125,1.993,56,2559,124,feet,jsons/VE125_randls_69_rotated.json,1840226,2002691,62,Man
144,725003,DepthScenes,duration_manipulation_targetAtFixation,jsons/VE125_randls_69_rotated.json,http://54.235.29.9/FacialAge/BNav_EC2/DepthDuration/v2_depth_duration_MTurk/v2_DepthDuration_HTML.html#51,51,1366,625,1366,768,8-29-2022,10-42-2,145,depth_duration_stimuli/001555_2014-06-20_17-12-10_260595134347_rgbf000065-resize_4/001555_2014-06-20_17-12-10_260595134347_rgbf000065-resize_4-target.png,125,1.633,69,2927,116,feet,jsons/VE125_randls_69_rotated.json,1840226,2002691,62,Man
145,725003,DepthScenes,duration_manipulation_targetAtFixation,jsons/VE125_randls_69_rotated.json,http://54.235.29.9/FacialAge/BNav_EC2/DepthDuration/v2_depth_duration_MTurk/v2_DepthDuration_HTML.html#51,51,1366,625,1366,768,8-29-2022,10-42-2,146,depth_duration_stimuli/000635_2014-06-08_16-38-42_260595134347_rgbf000106-resize_1/000635_2014-06-08_16-38-42_260595134347_rgbf000106-resize_1-target.png,125,2.074,68,3083,122,feet,jsons/VE125_randls_69_rotated.json,1840226,2002691,62,Man
146,725003,DepthScenes,duration_manipulation_targetAtFixation,jsons/VE125_randls_69_rotated.json,http://54.235.29.9/FacialAge/BNav_EC2/DepthDuration/v2_depth_duration_MTurk/v2_DepthDuration_HTML.html#51,51,1366,625,1366,768,8-29-2022,10-42-2,147,depth_duration_stimuli/002279_2014-06-28_18-55-32_260595134347_rgbf000040-resize_5/002279_2014-06-28_18-55-32_260595134347_rgbf000040-resize_5-target.png,125,1.5043333333333,68,2660,121,feet,jsons/VE125_randls_69_rotated.json,1840226,2002691,62,Man
147,725003,DepthScenes,duration_manipulation_targetAtFixation,jsons/VE125_randls_69_rotated.json,http://54.235.29.9/FacialAge/BNav_EC2/DepthDuration/v2_depth_duration_MTurk/v2_DepthDuration_HTML.html#51,51,1366,625,1366,768,8-29-2022,10-42-2,148,depth_duration_stimuli/001617_2014-06-20_11-35-32_260595134347_rgbf000066-resize_1/001617_2014-06-20_11-35-32_260595134347_rgbf000066-resize_1-target.png,125,3.7910000000000004,65,2848,143,feet,jsons/VE125_randls_69_rotated.json,1840226,2002691,62,Man
148,725003,DepthScenes,duration_manipulation_targetAtFixation,jsons/VE125_randls_69_rotated.json,http://54.235.29.9/FacialAge/BNav_EC2/DepthDuration/v2_depth_duration_MTurk/v2_DepthDuration_HTML.html#51,51,1366,625,1366,768,8-29-2022,10-42-2,149,depth_duration_stimuli/001806_2014-06-26_20-50-20_260595134347_rgbf000091-resize_1/001806_2014-06-26_20-50-20_260595134347_rgbf000091-resize_1-target.png,125,2.7305,65,2786,117,feet,jsons/VE125_randls_69_rotated.json,1840226,2002691,62,Man
149,725003,DepthScenes,duration_manipulation_targetAtFixation,jsons/VE125_randls_69_rotated.json,http://54.235.29.9/FacialAge/BNav_EC2/DepthDuration/v2_depth_duration_MTurk/v2_DepthDuration_HTML.html#51,51,1366,625,1366,768,8-29-2022,10-42-2,150,depth_duration_stimuli/002323_2014-06-28_20-01-54_260595134347_rgbf000051-resize_4/002323_2014-06-28_20-01-54_260595134347_rgbf000051-resize_4-target.png,125,3.7310000000000003,68,3103,134,feet,jsons/VE125_randls_69_rotated.json,1840226,2002691,62,Man
150,725003,DepthScenes,duration_manipulation_targetAtFixation,jsons/VE125_randls_69_rotated.json,http://54.235.29.9/FacialAge/BNav_EC2/DepthDuration/v2_depth_duration_MTurk/v2_DepthDuration_HTML.html#51,51,1366,625,1366,768,8-29-2022,10-42-2,151,depth_duration_stimuli/000917_2014-06-09_22-45-29_260595134347_rgbf000149-resize_3/000917_2014-06-09_22-45-29_260595134347_rgbf000149-resize_3-target.png,125,4.1865,67,3388,124,feet,jsons/VE125_randls_69_rotated.json,1840226,2002691,62,Man
151,725003,DepthScenes,duration_manipulation_targetAtFixation,jsons/VE125_randls_69_rotated.json,http://54.235.29.9/FacialAge/BNav_EC2/DepthDuration/v2_depth_duration_MTurk/v2_DepthDuration_HTML.html#51,51,1366,625,1366,768,8-29-2022,10-42-2,152,depth_duration_stimuli/000569_2014-06-09_22-51-47_260595134347_rgbf000141-resize_3/000569_2014-06-09_22-51-47_260595134347_rgbf000141-resize-original.jpg,125,4.512,62,3224,109,feet,jsons/VE125_randls_69_rotated.json,1840226,2002691,62,Man
152,725003,DepthScenes,duration_manipulation_targetAtFixation,jsons/VE125_randls_69_rotated.json,http://54.235.29.9/FacialAge/BNav_EC2/DepthDuration/v2_depth_duration_MTurk/v2_DepthDuration_HTML.html#51,51,1366,625,1366,768,8-29-2022,10-42-2,153,depth_duration_stimuli/001828_2014-06-26_21-40-03_260595134347_rgbf000024-resize_0/001828_2014-06-26_21-40-03_260595134347_rgbf000024-resize_0-target.png,125,4.8260000000000005,63,3695,126,feet,jsons/VE125_randls_69_rotated.json,1840226,2002691,62,Man
153,725003,DepthScenes,duration_manipulation_targetAtFixation,jsons/VE125_randls_69_rotated.json,http://54.235.29.9/FacialAge/BNav_EC2/DepthDuration/v2_depth_duration_MTurk/v2_DepthDuration_HTML.html#51,51,1366,625,1366,768,8-29-2022,10-42-2,154,depth_duration_stimuli/000009_2014-05-26_14-32-05_260595134347_rgbf000034-resize_3/000009_2014-05-26_14-32-05_260595134347_rgbf000034-resize_3-target.png,125,3.8715,64,3702,123,feet,jsons/VE125_randls_69_rotated.json,1840226,2002691,62,Man
154,725003,DepthScenes,duration_manipulation_targetAtFixation,jsons/VE125_randls_69_rotated.json,http://54.235.29.9/FacialAge/BNav_EC2/DepthDuration/v2_depth_duration_MTurk/v2_DepthDuration_HTML.html#51,51,1366,625,1366,768,8-29-2022,10-42-2,155,depth_duration_stimuli/001815_2014-06-26_20-52-55_260595134347_rgbf000020-resize_0/001815_2014-06-26_20-52-55_260595134347_rgbf000020-resize_0-target.png,125,3.3865,16,3137,126,feet,jsons/VE125_randls_69_rotated.json,1840226,2002691,62,Man
155,725003,DepthScenes,duration_manipulation_targetAtFixation,jsons/VE125_randls_69_rotated.json,http://54.235.29.9/FacialAge/BNav_EC2/DepthDuration/v2_depth_duration_MTurk/v2_DepthDuration_HTML.html#51,51,1366,625,1366,768,8-29-2022,10-42-2,156,depth_duration_stimuli/001808_2014-06-26_20-50-58_260595134347_rgbf000029-resize_1/001808_2014-06-26_20-50-58_260595134347_rgbf000029-resize_1-target.png,125,4.249,61,2564,114,feet,jsons/VE125_randls_69_rotated.json,1840226,2002691,62,Man
156,725003,DepthScenes,duration_manipulation_targetAtFixation,jsons/VE125_randls_69_rotated.json,http://54.235.29.9/FacialAge/BNav_EC2/DepthDuration/v2_depth_duration_MTurk/v2_DepthDuration_HTML.html#51,51,1366,625,1366,768,8-29-2022,10-42-2,157,depth_duration_stimuli/002545_2014-06-24_13-38-53_094959634447_rgbf000080-resize_4/002545_2014-06-24_13-38-53_094959634447_rgbf000080-resize_4-target.png,125,1.9205,45,2691,129,feet,jsons/VE125_randls_69_rotated.json,1840226,2002691,62,Man
157,725003,DepthScenes,duration_manipulation_targetAtFixation,jsons/VE125_randls_69_rotated.json,http://54.235.29.9/FacialAge/BNav_EC2/DepthDuration/v2_depth_duration_MTurk/v2_DepthDuration_HTML.html#51,51,1366,625,1366,768,8-29-2022,10-42-2,158,depth_duration_stimuli/001092_2014-06-15_17-34-58_260595134347_rgbf000171-resize_3/001092_2014-06-15_17-34-58_260595134347_rgbf000171-resize_3-target.png,125,2.6935,54,2374,125,feet,jsons/VE125_randls_69_rotated.json,1840226,2002691,62,Man
158,725003,DepthScenes,duration_manipulation_targetAtFixation,jsons/VE125_randls_69_rotated.json,http://54.235.29.9/FacialAge/BNav_EC2/DepthDuration/v2_depth_duration_MTurk/v2_DepthDuration_HTML.html#51,51,1366,625,1366,768,8-29-2022,10-42-2,159,depth_duration_stimuli/002875_2014-06-01_15-19-00_094959634447_rgbf000151-resize_1/002875_2014-06-01_15-19-00_094959634447_rgbf000151-resize_1-target.png,125,1.9675,75,2704,129,feet,jsons/VE125_randls_69_rotated.json,1840226,2002691,62,Man
159,725003,DepthScenes,duration_manipulation_targetAtFixation,jsons/VE125_randls_69_rotated.json,http://54.235.29.9/FacialAge/BNav_EC2/DepthDuration/v2_depth_duration_MTurk/v2_DepthDuration_HTML.html#51,51,1366,625,1366,768,8-29-2022,10-42-2,160,depth_duration_stimuli/001011_2014-06-08_23-18-54_260595134347_rgbf000044-resize_4/001011_2014-06-08_23-18-54_260595134347_rgbf000044-resize_4-target.png,125,2.4730000000000003,76,2618,121,feet,jsons/VE125_randls_69_rotated.json,1840226,2002691,62,Man
160,725003,DepthScenes,duration_manipulation_targetAtFixation,jsons/VE125_randls_69_rotated.json,http://54.235.29.9/FacialAge/BNav_EC2/DepthDuration/v2_depth_duration_MTurk/v2_DepthDuration_HTML.html#51,51,1366,625,1366,768,8-29-2022,10-42-2,161,depth_duration_stimuli/002750_2014-06-22_19-08-03_094959634447_rgbf000094-resize_4/002750_2014-06-22_19-08-03_094959634447_rgbf000094-resize_4-target.png,125,2.354,76,2666,121,feet,jsons/VE125_randls_69_rotated.json,1840226,2002691,62,Man
161,725003,DepthScenes,duration_manipulation_targetAtFixation,jsons/VE125_randls_69_rotated.json,http://54.235.29.9/FacialAge/BNav_EC2/DepthDuration/v2_depth_duration_MTurk/v2_DepthDuration_HTML.html#51,51,1366,625,1366,768,8-29-2022,10-42-2,162,depth_duration_stimuli/002549_2014-06-24_13-41-39_094959634447_rgbf000022-resize_3/002549_2014-06-24_13-41-39_094959634447_rgbf000022-resize_3-target.png,125,1.476,72,2490,144,feet,jsons/VE125_randls_69_rotated.json,1840226,2002691,62,Man
162,725003,DepthScenes,duration_manipulation_targetAtFixation,jsons/VE125_randls_69_rotated.json,http://54.235.29.9/FacialAge/BNav_EC2/DepthDuration/v2_depth_duration_MTurk/v2_DepthDuration_HTML.html#51,51,1366,625,1366,768,8-29-2022,10-42-2,163,depth_duration_stimuli/002953_2014-06-08_17-32-18_094959634447_rgbf000059-resize_5/002953_2014-06-08_17-32-18_094959634447_rgbf000059-resize_5-target.png,125,1.551,73,2615,125,feet,jsons/VE125_randls_69_rotated.json,1840226,2002691,62,Man
163,725003,DepthScenes,duration_manipulation_targetAtFixation,jsons/VE125_randls_69_rotated.json,http://54.235.29.9/FacialAge/BNav_EC2/DepthDuration/v2_depth_duration_MTurk/v2_DepthDuration_HTML.html#51,51,1366,625,1366,768,8-29-2022,10-42-2,164,depth_duration_stimuli/000878_2014-06-08_22-52-45_260595134347_rgbf000045-resize_2/000878_2014-06-08_22-52-45_260595134347_rgbf000045-resize_2-target.png,125,2.092,78,2667,125,feet,jsons/VE125_randls_69_rotated.json,1840226,2002691,62,Man
