,subjID,experimentName,versionName,sequenceName,url,selected_row,windowWidth,windowHeight,screenWidth,screenHeight,startDate,startTime,trial,stimulus,duration,actual_depth,depth_estimate,trial_RT,log_sceneDuration,unitSelection,seq_filepath,experimentTime,totalTime,age,gender
0,726595,DepthScenes,duration_manipulation_targetAtFixation,jsons/v1_VE1000_randls_31_rotated.json,http://54.235.29.9/FacialAge/BNav_EC2/DepthDuration/v2_depth_duration_MTurk/v2_DepthDuration_HTML.html#55,55,1515,853,1364,768,8-22-2022,8-7-55,1,depth_duration_stimuli/001136_2014-06-17_15-19-41_260595134347_rgbf000076-resize_3/001136_2014-06-17_15-19-41_260595134347_rgbf000076-resize_3-target.png,1000,1.8655,2,658134,999,meters,jsons/v1_VE1000_randls_31_rotated.json,1708443,1907799,24,Man
1,726595,DepthScenes,duration_manipulation_targetAtFixation,jsons/v1_VE1000_randls_31_rotated.json,http://54.235.29.9/FacialAge/BNav_EC2/DepthDuration/v2_depth_duration_MTurk/v2_DepthDuration_HTML.html#55,55,1515,853,1364,768,8-22-2022,8-7-55,2,depth_duration_stimuli/001164_2014-06-17_15-35-46_260595134347_rgbf000085-resize_3/001164_2014-06-17_15-35-46_260595134347_rgbf000085-resize_3-target.png,1000,2.354,2,4450,998,meters,jsons/v1_VE1000_randls_31_rotated.json,1708443,1907799,24,Man
2,726595,DepthScenes,duration_manipulation_targetAtFixation,jsons/v1_VE1000_randls_31_rotated.json,http://54.235.29.9/FacialAge/BNav_EC2/DepthDuration/v2_depth_duration_MTurk/v2_DepthDuration_HTML.html#55,55,1515,853,1364,768,8-22-2022,8-7-55,3,depth_duration_stimuli/001828_2014-06-26_21-40-03_260595134347_rgbf000024-resize_0/001828_2014-06-26_21-40-03_260595134347_rgbf000024-resize_0-target.png,1000,4.8260000000000005,2,6489,998,meters,jsons/v1_VE1000_randls_31_rotated.json,1708443,1907799,24,Man
3,726595,DepthScenes,duration_manipulation_targetAtFixation,jsons/v1_VE1000_randls_31_rotated.json,http://54.235.29.9/FacialAge/BNav_EC2/DepthDuration/v2_depth_duration_MTurk/v2_DepthDuration_HTML.html#55,55,1515,853,1364,768,8-22-2022,8-7-55,4,depth_duration_stimuli/000009_2014-05-26_14-32-05_260595134347_rgbf000034-resize_3/000009_2014-05-26_14-32-05_260595134347_rgbf000034-resize_3-target.png,1000,3.8715,2,5608,1000,meters,jsons/v1_VE1000_randls_31_rotated.json,1708443,1907799,24,Man
4,726595,DepthScenes,duration_manipulation_targetAtFixation,jsons/v1_VE1000_randls_31_rotated.json,http://54.235.29.9/FacialAge/BNav_EC2/DepthDuration/v2_depth_duration_MTurk/v2_DepthDuration_HTML.html#55,55,1515,853,1364,768,8-22-2022,8-7-55,5,depth_duration_stimuli/002340_2014-06-28_20-05-46_260595134347_rgbf000113-resize_0/002340_2014-06-28_20-05-46_260595134347_rgbf000113-resize_0-target.png,1000,2.4735,1,7419,1001,meters,jsons/v1_VE1000_randls_31_rotated.json,1708443,1907799,24,Man
5,726595,DepthScenes,duration_manipulation_targetAtFixation,jsons/v1_VE1000_randls_31_rotated.json,http://54.235.29.9/FacialAge/BNav_EC2/DepthDuration/v2_depth_duration_MTurk/v2_DepthDuration_HTML.html#55,55,1515,853,1364,768,8-22-2022,8-7-55,6,depth_duration_stimuli/001016_2014-06-09_16-16-10_260595134347_rgbf000112-resize_5/001016_2014-06-09_16-16-10_260595134347_rgbf000112-resize_5-target.png,1000,1.6565,2,6479,1000,meters,jsons/v1_VE1000_randls_31_rotated.json,1708443,1907799,24,Man
6,726595,DepthScenes,duration_manipulation_targetAtFixation,jsons/v1_VE1000_randls_31_rotated.json,http://54.235.29.9/FacialAge/BNav_EC2/DepthDuration/v2_depth_duration_MTurk/v2_DepthDuration_HTML.html#55,55,1515,853,1364,768,8-22-2022,8-7-55,7,depth_duration_stimuli/001617_2014-06-20_11-35-32_260595134347_rgbf000066-resize_1/001617_2014-06-20_11-35-32_260595134347_rgbf000066-resize_1-target.png,1000,3.7910000000000004,1,5059,1000,meters,jsons/v1_VE1000_randls_31_rotated.json,1708443,1907799,24,Man
7,726595,DepthScenes,duration_manipulation_targetAtFixation,jsons/v1_VE1000_randls_31_rotated.json,http://54.235.29.9/FacialAge/BNav_EC2/DepthDuration/v2_depth_duration_MTurk/v2_DepthDuration_HTML.html#55,55,1515,853,1364,768,8-22-2022,8-7-55,8,depth_duration_stimuli/001806_2014-06-26_20-50-20_260595134347_rgbf000091-resize_1/001806_2014-06-26_20-50-20_260595134347_rgbf000091-resize_1-target.png,1000,2.7305,1,4006,888,meters,jsons/v1_VE1000_randls_31_rotated.json,1708443,1907799,24,Man
8,726595,DepthScenes,duration_manipulation_targetAtFixation,jsons/v1_VE1000_randls_31_rotated.json,http://54.235.29.9/FacialAge/BNav_EC2/DepthDuration/v2_depth_duration_MTurk/v2_DepthDuration_HTML.html#55,55,1515,853,1364,768,8-22-2022,8-7-55,9,depth_duration_stimuli/000502_2014-06-08_23-02-32_260595134347_rgbf000063-resize_4/000502_2014-06-08_23-02-32_260595134347_rgbf000063-resize_4-target.png,1000,2.431,1,5970,1000,meters,jsons/v1_VE1000_randls_31_rotated.json,1708443,1907799,24,Man
9,726595,DepthScenes,duration_manipulation_targetAtFixation,jsons/v1_VE1000_randls_31_rotated.json,http://54.235.29.9/FacialAge/BNav_EC2/DepthDuration/v2_depth_duration_MTurk/v2_DepthDuration_HTML.html#55,55,1515,853,1364,768,8-22-2022,8-7-55,10,depth_duration_stimuli/001199_2014-06-17_16-03-48_260595134347_rgbf000077-resize_0/001199_2014-06-17_16-03-48_260595134347_rgbf000077-resize_0-target.png,1000,3.4375,1,3373,1000,meters,jsons/v1_VE1000_randls_31_rotated.json,1708443,1907799,24,Man
10,726595,DepthScenes,duration_manipulation_targetAtFixation,jsons/v1_VE1000_randls_31_rotated.json,http://54.235.29.9/FacialAge/BNav_EC2/DepthDuration/v2_depth_duration_MTurk/v2_DepthDuration_HTML.html#55,55,1515,853,1364,768,8-22-2022,8-7-55,11,depth_duration_stimuli/000709_2014-06-08_13-51-55_260595134347_rgbf000068-resize_3/000709_2014-06-08_13-51-55_260595134347_rgbf000068-resize_3-target.png,1000,1.8030000000000002,2,9227,1000,meters,jsons/v1_VE1000_randls_31_rotated.json,1708443,1907799,24,Man
11,726595,DepthScenes,duration_manipulation_targetAtFixation,jsons/v1_VE1000_randls_31_rotated.json,http://54.235.29.9/FacialAge/BNav_EC2/DepthDuration/v2_depth_duration_MTurk/v2_DepthDuration_HTML.html#55,55,1515,853,1364,768,8-22-2022,8-7-55,12,depth_duration_stimuli/002057_2014-06-24_21-00-13_260595134347_rgbf000120-resize_1/002057_2014-06-24_21-00-13_260595134347_rgbf000120-resize_1-target.png,1000,2.967,1,2682,1026,meters,jsons/v1_VE1000_randls_31_rotated.json,1708443,1907799,24,Man
12,726595,DepthScenes,duration_manipulation_targetAtFixation,jsons/v1_VE1000_randls_31_rotated.json,http://54.235.29.9/FacialAge/BNav_EC2/DepthDuration/v2_depth_duration_MTurk/v2_DepthDuration_HTML.html#55,55,1515,853,1364,768,8-22-2022,8-7-55,13,depth_duration_stimuli/000665_2014-06-09_20-42-35_260595134347_rgbf000110-resize_1/000665_2014-06-09_20-42-35_260595134347_rgbf000110-resize_1-target.png,1000,3.057,2,9492,1000,meters,jsons/v1_VE1000_randls_31_rotated.json,1708443,1907799,24,Man
13,726595,DepthScenes,duration_manipulation_targetAtFixation,jsons/v1_VE1000_randls_31_rotated.json,http://54.235.29.9/FacialAge/BNav_EC2/DepthDuration/v2_depth_duration_MTurk/v2_DepthDuration_HTML.html#55,55,1515,853,1364,768,8-22-2022,8-7-55,14,depth_duration_stimuli/001150_2014-06-17_15-27-34_260595134347_rgbf000108-resize_2/001150_2014-06-17_15-27-34_260595134347_rgbf000108-resize_2-target.png,1000,4.0325,1,3033,1003,meters,jsons/v1_VE1000_randls_31_rotated.json,1708443,1907799,24,Man
14,726595,DepthScenes,duration_manipulation_targetAtFixation,jsons/v1_VE1000_randls_31_rotated.json,http://54.235.29.9/FacialAge/BNav_EC2/DepthDuration/v2_depth_duration_MTurk/v2_DepthDuration_HTML.html#55,55,1515,853,1364,768,8-22-2022,8-7-55,15,depth_duration_stimuli/000734_2014-06-08_17-39-11_260595134347_rgbf000128-resize_2/000734_2014-06-08_17-39-11_260595134347_rgbf000128-resize_2-target.png,1000,4.098,1,5021,999,meters,jsons/v1_VE1000_randls_31_rotated.json,1708443,1907799,24,Man
15,726595,DepthScenes,duration_manipulation_targetAtFixation,jsons/v1_VE1000_randls_31_rotated.json,http://54.235.29.9/FacialAge/BNav_EC2/DepthDuration/v2_depth_duration_MTurk/v2_DepthDuration_HTML.html#55,55,1515,853,1364,768,8-22-2022,8-7-55,16,depth_duration_stimuli/000739_2014-06-08_18-45-58_260595134347_rgbf000068-resize_1/000739_2014-06-08_18-45-58_260595134347_rgbf000068-resize_1-target.png,1000,3.534,2,2918,1164,meters,jsons/v1_VE1000_randls_31_rotated.json,1708443,1907799,24,Man
16,726595,DepthScenes,duration_manipulation_targetAtFixation,jsons/v1_VE1000_randls_31_rotated.json,http://54.235.29.9/FacialAge/BNav_EC2/DepthDuration/v2_depth_duration_MTurk/v2_DepthDuration_HTML.html#55,55,1515,853,1364,768,8-22-2022,8-7-55,17,depth_duration_stimuli/000635_2014-06-08_16-38-42_260595134347_rgbf000106-resize_1/000635_2014-06-08_16-38-42_260595134347_rgbf000106-resize_1-target.png,1000,2.074,2,4430,986,meters,jsons/v1_VE1000_randls_31_rotated.json,1708443,1907799,24,Man
17,726595,DepthScenes,duration_manipulation_targetAtFixation,jsons/v1_VE1000_randls_31_rotated.json,http://54.235.29.9/FacialAge/BNav_EC2/DepthDuration/v2_depth_duration_MTurk/v2_DepthDuration_HTML.html#55,55,1515,853,1364,768,8-22-2022,8-7-55,18,depth_duration_stimuli/002279_2014-06-28_18-55-32_260595134347_rgbf000040-resize_5/002279_2014-06-28_18-55-32_260595134347_rgbf000040-resize_5-target.png,1000,1.5043333333333,2,4579,1009,meters,jsons/v1_VE1000_randls_31_rotated.json,1708443,1907799,24,Man
18,726595,DepthScenes,duration_manipulation_targetAtFixation,jsons/v1_VE1000_randls_31_rotated.json,http://54.235.29.9/FacialAge/BNav_EC2/DepthDuration/v2_depth_duration_MTurk/v2_DepthDuration_HTML.html#55,55,1515,853,1364,768,8-22-2022,8-7-55,19,depth_duration_stimuli/001498_2014-06-19_17-45-14_260595134347_rgbf000129-resize_4/001498_2014-06-19_17-45-14_260595134347_rgbf000129-resize-original.jpg,1000,1.4075,2,2954,997,meters,jsons/v1_VE1000_randls_31_rotated.json,1708443,1907799,24,Man
19,726595,DepthScenes,duration_manipulation_targetAtFixation,jsons/v1_VE1000_randls_31_rotated.json,http://54.235.29.9/FacialAge/BNav_EC2/DepthDuration/v2_depth_duration_MTurk/v2_DepthDuration_HTML.html#55,55,1515,853,1364,768,8-22-2022,8-7-55,20,depth_duration_stimuli/003083_2014-06-15_15-21-03_094959634447_rgbf000063-resize_1/003083_2014-06-15_15-21-03_094959634447_rgbf000063-resize_1-target.png,1000,4.1405,2,4242,1000,meters,jsons/v1_VE1000_randls_31_rotated.json,1708443,1907799,24,Man
20,726595,DepthScenes,duration_manipulation_targetAtFixation,jsons/v1_VE1000_randls_31_rotated.json,http://54.235.29.9/FacialAge/BNav_EC2/DepthDuration/v2_depth_duration_MTurk/v2_DepthDuration_HTML.html#55,55,1515,853,1364,768,8-22-2022,8-7-55,21,depth_duration_stimuli/000486_2014-06-09_20-47-20_260595134347_rgbf000143-resize_2/000486_2014-06-09_20-47-20_260595134347_rgbf000143-resize_2-target.png,1000,4.8325,2,4307,1072,meters,jsons/v1_VE1000_randls_31_rotated.json,1708443,1907799,24,Man
21,726595,DepthScenes,duration_manipulation_targetAtFixation,jsons/v1_VE1000_randls_31_rotated.json,http://54.235.29.9/FacialAge/BNav_EC2/DepthDuration/v2_depth_duration_MTurk/v2_DepthDuration_HTML.html#55,55,1515,853,1364,768,8-22-2022,8-7-55,22,depth_duration_stimuli/001132_2014-06-17_14-48-54_260595134347_rgbf000100-resize_2/001132_2014-06-17_14-48-54_260595134347_rgbf000100-resize_2-target.png,1000,3.753,3,2785,992,meters,jsons/v1_VE1000_randls_31_rotated.json,1708443,1907799,24,Man
22,726595,DepthScenes,duration_manipulation_targetAtFixation,jsons/v1_VE1000_randls_31_rotated.json,http://54.235.29.9/FacialAge/BNav_EC2/DepthDuration/v2_depth_duration_MTurk/v2_DepthDuration_HTML.html#55,55,1515,853,1364,768,8-22-2022,8-7-55,23,depth_duration_stimuli/001133_2014-06-17_14-49-16_260595134347_rgbf000100-resize_0/001133_2014-06-17_14-49-16_260595134347_rgbf000100-resize_0-target.png,1000,4.2115,1,2944,995,meters,jsons/v1_VE1000_randls_31_rotated.json,1708443,1907799,24,Man
23,726595,DepthScenes,duration_manipulation_targetAtFixation,jsons/v1_VE1000_randls_31_rotated.json,http://54.235.29.9/FacialAge/BNav_EC2/DepthDuration/v2_depth_duration_MTurk/v2_DepthDuration_HTML.html#55,55,1515,853,1364,768,8-22-2022,8-7-55,24,depth_duration_stimuli/001650_2014-06-20_12-09-00_260595134347_rgbf000087-resize_3/001650_2014-06-20_12-09-00_260595134347_rgbf000087-resize_3-target.png,1000,1.9505,1,2333,840,meters,jsons/v1_VE1000_randls_31_rotated.json,1708443,1907799,24,Man
24,726595,DepthScenes,duration_manipulation_targetAtFixation,jsons/v1_VE1000_randls_31_rotated.json,http://54.235.29.9/FacialAge/BNav_EC2/DepthDuration/v2_depth_duration_MTurk/v2_DepthDuration_HTML.html#55,55,1515,853,1364,768,8-22-2022,8-7-55,25,depth_duration_stimuli/000682_2014-06-08_23-14-58_260595134347_rgbf000041-resize_5/000682_2014-06-08_23-14-58_260595134347_rgbf000041-resize_5-target.png,1000,2.7239999999999998,3,6002,998,meters,jsons/v1_VE1000_randls_31_rotated.json,1708443,1907799,24,Man
25,726595,DepthScenes,duration_manipulation_targetAtFixation,jsons/v1_VE1000_randls_31_rotated.json,http://54.235.29.9/FacialAge/BNav_EC2/DepthDuration/v2_depth_duration_MTurk/v2_DepthDuration_HTML.html#55,55,1515,853,1364,768,8-22-2022,8-7-55,26,depth_duration_stimuli/000691_2014-06-08_13-08-50_260595134347_rgbf000132-resize_3/000691_2014-06-08_13-08-50_260595134347_rgbf000132-resize_3-target.png,1000,4.1530000000000005,2,3530,1000,meters,jsons/v1_VE1000_randls_31_rotated.json,1708443,1907799,24,Man
26,726595,DepthScenes,duration_manipulation_targetAtFixation,jsons/v1_VE1000_randls_31_rotated.json,http://54.235.29.9/FacialAge/BNav_EC2/DepthDuration/v2_depth_duration_MTurk/v2_DepthDuration_HTML.html#55,55,1515,853,1364,768,8-22-2022,8-7-55,27,depth_duration_stimuli/002213_2014-06-28_18-37-58_260595134347_rgbf000055-resize_1/002213_2014-06-28_18-37-58_260595134347_rgbf000055-resize_1-target.png,1000,3.62,1,2787,847,meters,jsons/v1_VE1000_randls_31_rotated.json,1708443,1907799,24,Man
27,726595,DepthScenes,duration_manipulation_targetAtFixation,jsons/v1_VE1000_randls_31_rotated.json,http://54.235.29.9/FacialAge/BNav_EC2/DepthDuration/v2_depth_duration_MTurk/v2_DepthDuration_HTML.html#55,55,1515,853,1364,768,8-22-2022,8-7-55,28,depth_duration_stimuli/002637_2014-06-24_14-51-13_094959634447_rgbf000066-resize_4/002637_2014-06-24_14-51-13_094959634447_rgbf000066-resize_4-target.png,1000,1.9955,2,6012,999,meters,jsons/v1_VE1000_randls_31_rotated.json,1708443,1907799,24,Man
28,726595,DepthScenes,duration_manipulation_targetAtFixation,jsons/v1_VE1000_randls_31_rotated.json,http://54.235.29.9/FacialAge/BNav_EC2/DepthDuration/v2_depth_duration_MTurk/v2_DepthDuration_HTML.html#55,55,1515,853,1364,768,8-22-2022,8-7-55,29,depth_duration_stimuli/003534_2014-05-22_15-06-10_094959634447_rgbf000102-resize_4/003534_2014-05-22_15-06-10_094959634447_rgbf000102-resize_4-target.png,1000,1.426,1,2947,803,meters,jsons/v1_VE1000_randls_31_rotated.json,1708443,1907799,24,Man
29,726595,DepthScenes,duration_manipulation_targetAtFixation,jsons/v1_VE1000_randls_31_rotated.json,http://54.235.29.9/FacialAge/BNav_EC2/DepthDuration/v2_depth_duration_MTurk/v2_DepthDuration_HTML.html#55,55,1515,853,1364,768,8-22-2022,8-7-55,30,depth_duration_stimuli/002072_2014-06-24_21-48-06_260595134347_rgbf000115-resize_0/002072_2014-06-24_21-48-06_260595134347_rgbf000115-resize-original.jpg,1000,4.702,2,3257,998,meters,jsons/v1_VE1000_randls_31_rotated.json,1708443,1907799,24,Man
30,726595,DepthScenes,duration_manipulation_targetAtFixation,jsons/v1_VE1000_randls_31_rotated.json,http://54.235.29.9/FacialAge/BNav_EC2/DepthDuration/v2_depth_duration_MTurk/v2_DepthDuration_HTML.html#55,55,1515,853,1364,768,8-22-2022,8-7-55,31,depth_duration_stimuli/001235_2014-06-17_16-37-36_260595134347_rgbf000084-resize_4/001235_2014-06-17_16-37-36_260595134347_rgbf000084-resize_4-target.png,1000,3.6605,1,2866,1003,meters,jsons/v1_VE1000_randls_31_rotated.json,1708443,1907799,24,Man
31,726595,DepthScenes,duration_manipulation_targetAtFixation,jsons/v1_VE1000_randls_31_rotated.json,http://54.235.29.9/FacialAge/BNav_EC2/DepthDuration/v2_depth_duration_MTurk/v2_DepthDuration_HTML.html#55,55,1515,853,1364,768,8-22-2022,8-7-55,32,depth_duration_stimuli/000788_2014-06-08_22-34-36_260595134347_rgbf000131-resize_1/000788_2014-06-08_22-34-36_260595134347_rgbf000131-resize_1-target.png,1000,3.359,4,7268,1000,meters,jsons/v1_VE1000_randls_31_rotated.json,1708443,1907799,24,Man
32,726595,DepthScenes,duration_manipulation_targetAtFixation,jsons/v1_VE1000_randls_31_rotated.json,http://54.235.29.9/FacialAge/BNav_EC2/DepthDuration/v2_depth_duration_MTurk/v2_DepthDuration_HTML.html#55,55,1515,853,1364,768,8-22-2022,8-7-55,33,depth_duration_stimuli/002136_2014-06-25_21-18-03_260595134347_rgbf000109-resize_3/002136_2014-06-25_21-18-03_260595134347_rgbf000109-resize_3-target.png,1000,1.9569999999999999,3,5759,1001,meters,jsons/v1_VE1000_randls_31_rotated.json,1708443,1907799,24,Man
33,726595,DepthScenes,duration_manipulation_targetAtFixation,jsons/v1_VE1000_randls_31_rotated.json,http://54.235.29.9/FacialAge/BNav_EC2/DepthDuration/v2_depth_duration_MTurk/v2_DepthDuration_HTML.html#55,55,1515,853,1364,768,8-22-2022,8-7-55,34,depth_duration_stimuli/002964_2014-06-08_17-46-11_094959634447_rgbf000091-resize_4/002964_2014-06-08_17-46-11_094959634447_rgbf000091-resize_4-target.png,1000,1.6909999999999998,2,3022,1000,meters,jsons/v1_VE1000_randls_31_rotated.json,1708443,1907799,24,Man
34,726595,DepthScenes,duration_manipulation_targetAtFixation,jsons/v1_VE1000_randls_31_rotated.json,http://54.235.29.9/FacialAge/BNav_EC2/DepthDuration/v2_depth_duration_MTurk/v2_DepthDuration_HTML.html#55,55,1515,853,1364,768,8-22-2022,8-7-55,35,depth_duration_stimuli/001815_2014-06-26_20-52-55_260595134347_rgbf000020-resize_0/001815_2014-06-26_20-52-55_260595134347_rgbf000020-resize_0-target.png,1000,3.3865,4,4771,1000,meters,jsons/v1_VE1000_randls_31_rotated.json,1708443,1907799,24,Man
35,726595,DepthScenes,duration_manipulation_targetAtFixation,jsons/v1_VE1000_randls_31_rotated.json,http://54.235.29.9/FacialAge/BNav_EC2/DepthDuration/v2_depth_duration_MTurk/v2_DepthDuration_HTML.html#55,55,1515,853,1364,768,8-22-2022,8-7-55,36,depth_duration_stimuli/001808_2014-06-26_20-50-58_260595134347_rgbf000029-resize_1/001808_2014-06-26_20-50-58_260595134347_rgbf000029-resize_1-target.png,1000,4.249,2,11008,1000,meters,jsons/v1_VE1000_randls_31_rotated.json,1708443,1907799,24,Man
36,726595,DepthScenes,duration_manipulation_targetAtFixation,jsons/v1_VE1000_randls_31_rotated.json,http://54.235.29.9/FacialAge/BNav_EC2/DepthDuration/v2_depth_duration_MTurk/v2_DepthDuration_HTML.html#55,55,1515,853,1364,768,8-22-2022,8-7-55,37,depth_duration_stimuli/000103_2014-05-14_22-01-17_260595134347_rgbf000152-resize_5/000103_2014-05-14_22-01-17_260595134347_rgbf000152-resize_5-target.png,1000,1.993,2,32714,1006,meters,jsons/v1_VE1000_randls_31_rotated.json,1708443,1907799,24,Man
37,726595,DepthScenes,duration_manipulation_targetAtFixation,jsons/v1_VE1000_randls_31_rotated.json,http://54.235.29.9/FacialAge/BNav_EC2/DepthDuration/v2_depth_duration_MTurk/v2_DepthDuration_HTML.html#55,55,1515,853,1364,768,8-22-2022,8-7-55,38,depth_duration_stimuli/001555_2014-06-20_17-12-10_260595134347_rgbf000065-resize_4/001555_2014-06-20_17-12-10_260595134347_rgbf000065-resize_4-target.png,1000,1.633,3,3184,998,meters,jsons/v1_VE1000_randls_31_rotated.json,1708443,1907799,24,Man
38,726595,DepthScenes,duration_manipulation_targetAtFixation,jsons/v1_VE1000_randls_31_rotated.json,http://54.235.29.9/FacialAge/BNav_EC2/DepthDuration/v2_depth_duration_MTurk/v2_DepthDuration_HTML.html#55,55,1515,853,1364,768,8-22-2022,8-7-55,39,depth_duration_stimuli/001100_2014-06-15_17-46-26_260595134347_rgbf000225-resize_2/001100_2014-06-15_17-46-26_260595134347_rgbf000225-resize_2-target.png,1000,2.24,3,3596,1064,meters,jsons/v1_VE1000_randls_31_rotated.json,1708443,1907799,24,Man
39,726595,DepthScenes,duration_manipulation_targetAtFixation,jsons/v1_VE1000_randls_31_rotated.json,http://54.235.29.9/FacialAge/BNav_EC2/DepthDuration/v2_depth_duration_MTurk/v2_DepthDuration_HTML.html#55,55,1515,853,1364,768,8-22-2022,8-7-55,40,depth_duration_stimuli/002784_2014-06-22_19-26-30_094959634447_rgbf000083-resize_3/002784_2014-06-22_19-26-30_094959634447_rgbf000083-resize_3-target.png,1000,1.8046666666667,1,6236,1000,meters,jsons/v1_VE1000_randls_31_rotated.json,1708443,1907799,24,Man
40,726595,DepthScenes,duration_manipulation_targetAtFixation,jsons/v1_VE1000_randls_31_rotated.json,http://54.235.29.9/FacialAge/BNav_EC2/DepthDuration/v2_depth_duration_MTurk/v2_DepthDuration_HTML.html#55,55,1515,853,1364,768,8-22-2022,8-7-55,41,depth_duration_stimuli/002444_2014-06-28_20-32-08_260595134347_rgbf000027-resize_0/002444_2014-06-28_20-32-08_260595134347_rgbf000027-resize_0-target.png,1000,4.388999999999999,2,4194,999,meters,jsons/v1_VE1000_randls_31_rotated.json,1708443,1907799,24,Man
41,726595,DepthScenes,duration_manipulation_targetAtFixation,jsons/v1_VE1000_randls_31_rotated.json,http://54.235.29.9/FacialAge/BNav_EC2/DepthDuration/v2_depth_duration_MTurk/v2_DepthDuration_HTML.html#55,55,1515,853,1364,768,8-22-2022,8-7-55,42,depth_duration_stimuli/000436_2014-06-09_22-25-11_260595134347_rgbf000137-resize_1/000436_2014-06-09_22-25-11_260595134347_rgbf000137-resize_1-target.png,1000,4.0705,2,3155,1000,meters,jsons/v1_VE1000_randls_31_rotated.json,1708443,1907799,24,Man
42,726595,DepthScenes,duration_manipulation_targetAtFixation,jsons/v1_VE1000_randls_31_rotated.json,http://54.235.29.9/FacialAge/BNav_EC2/DepthDuration/v2_depth_duration_MTurk/v2_DepthDuration_HTML.html#55,55,1515,853,1364,768,8-22-2022,8-7-55,43,depth_duration_stimuli/002414_2014-06-28_20-24-58_260595134347_rgbf000067-resize_4/002414_2014-06-28_20-24-58_260595134347_rgbf000067-resize_4-target.png,1000,4.363,3,3410,1000,meters,jsons/v1_VE1000_randls_31_rotated.json,1708443,1907799,24,Man
43,726595,DepthScenes,duration_manipulation_targetAtFixation,jsons/v1_VE1000_randls_31_rotated.json,http://54.235.29.9/FacialAge/BNav_EC2/DepthDuration/v2_depth_duration_MTurk/v2_DepthDuration_HTML.html#55,55,1515,853,1364,768,8-22-2022,8-7-55,44,depth_duration_stimuli/000773_2014-06-08_22-24-54_260595134347_rgbf000093-resize_1/000773_2014-06-08_22-24-54_260595134347_rgbf000093-resize_1-target.png,1000,4.973,3,2674,1099,meters,jsons/v1_VE1000_randls_31_rotated.json,1708443,1907799,24,Man
44,726595,DepthScenes,duration_manipulation_targetAtFixation,jsons/v1_VE1000_randls_31_rotated.json,http://54.235.29.9/FacialAge/BNav_EC2/DepthDuration/v2_depth_duration_MTurk/v2_DepthDuration_HTML.html#55,55,1515,853,1364,768,8-22-2022,8-7-55,45,depth_duration_stimuli/002568_2014-06-24_13-59-21_094959634447_rgbf000062-resize_4/002568_2014-06-24_13-59-21_094959634447_rgbf000062-resize_4-target.png,1000,3.015,3,2868,1229,meters,jsons/v1_VE1000_randls_31_rotated.json,1708443,1907799,24,Man
45,726595,DepthScenes,duration_manipulation_targetAtFixation,jsons/v1_VE1000_randls_31_rotated.json,http://54.235.29.9/FacialAge/BNav_EC2/DepthDuration/v2_depth_duration_MTurk/v2_DepthDuration_HTML.html#55,55,1515,853,1364,768,8-22-2022,8-7-55,46,depth_duration_stimuli/003492_2014-05-21_15-50-55_094959634447_rgbf000828-resize_1/003492_2014-05-21_15-50-55_094959634447_rgbf000828-resize_1-target.png,1000,4.06875,1,3858,999,meters,jsons/v1_VE1000_randls_31_rotated.json,1708443,1907799,24,Man
46,726595,DepthScenes,duration_manipulation_targetAtFixation,jsons/v1_VE1000_randls_31_rotated.json,http://54.235.29.9/FacialAge/BNav_EC2/DepthDuration/v2_depth_duration_MTurk/v2_DepthDuration_HTML.html#55,55,1515,853,1364,768,8-22-2022,8-7-55,47,depth_duration_stimuli/003079_2014-06-15_15-18-20_094959634447_rgbf000152-resize_8/003079_2014-06-15_15-18-20_094959634447_rgbf000152-resize_8-target.png,1000,2.8775,2,4269,1000,meters,jsons/v1_VE1000_randls_31_rotated.json,1708443,1907799,24,Man
47,726595,DepthScenes,duration_manipulation_targetAtFixation,jsons/v1_VE1000_randls_31_rotated.json,http://54.235.29.9/FacialAge/BNav_EC2/DepthDuration/v2_depth_duration_MTurk/v2_DepthDuration_HTML.html#55,55,1515,853,1364,768,8-22-2022,8-7-55,48,depth_duration_stimuli/000506_2014-06-08_23-21-00_260595134347_rgbf000070-resize_7/000506_2014-06-08_23-21-00_260595134347_rgbf000070-resize_7-target.png,1000,4.0585,3,3184,1000,meters,jsons/v1_VE1000_randls_31_rotated.json,1708443,1907799,24,Man
48,726595,DepthScenes,duration_manipulation_targetAtFixation,jsons/v1_VE1000_randls_31_rotated.json,http://54.235.29.9/FacialAge/BNav_EC2/DepthDuration/v2_depth_duration_MTurk/v2_DepthDuration_HTML.html#55,55,1515,853,1364,768,8-22-2022,8-7-55,49,depth_duration_stimuli/001170_2014-06-17_15-43-44_260595134347_rgbf000096-resize_6/001170_2014-06-17_15-43-44_260595134347_rgbf000096-resize-original.jpg,1000,1.1909999999999998,2,7293,1000,meters,jsons/v1_VE1000_randls_31_rotated.json,1708443,1907799,24,Man
49,726595,DepthScenes,duration_manipulation_targetAtFixation,jsons/v1_VE1000_randls_31_rotated.json,http://54.235.29.9/FacialAge/BNav_EC2/DepthDuration/v2_depth_duration_MTurk/v2_DepthDuration_HTML.html#55,55,1515,853,1364,768,8-22-2022,8-7-55,50,depth_duration_stimuli/002949_2014-06-26_15-57-42_094959634447_rgbf000079-resize_1/002949_2014-06-26_15-57-42_094959634447_rgbf000079-resize_1-target.png,1000,1.8915,2,5890,999,meters,jsons/v1_VE1000_randls_31_rotated.json,1708443,1907799,24,Man
50,726595,DepthScenes,duration_manipulation_targetAtFixation,jsons/v1_VE1000_randls_31_rotated.json,http://54.235.29.9/FacialAge/BNav_EC2/DepthDuration/v2_depth_duration_MTurk/v2_DepthDuration_HTML.html#55,55,1515,853,1364,768,8-22-2022,8-7-55,51,depth_duration_stimuli/000522_2014-06-08_13-35-06_260595134347_rgbf000244-resize_1/000522_2014-06-08_13-35-06_260595134347_rgbf000244-resize_1-target.png,1000,2.3715,2,5893,1002,meters,jsons/v1_VE1000_randls_31_rotated.json,1708443,1907799,24,Man
51,726595,DepthScenes,duration_manipulation_targetAtFixation,jsons/v1_VE1000_randls_31_rotated.json,http://54.235.29.9/FacialAge/BNav_EC2/DepthDuration/v2_depth_duration_MTurk/v2_DepthDuration_HTML.html#55,55,1515,853,1364,768,8-22-2022,8-7-55,52,depth_duration_stimuli/001571_2014-06-20_17-21-32_260595134347_rgbf000089-resize_1/001571_2014-06-20_17-21-32_260595134347_rgbf000089-resize_1-target.png,1000,1.86,2,2638,973,meters,jsons/v1_VE1000_randls_31_rotated.json,1708443,1907799,24,Man
52,726595,DepthScenes,duration_manipulation_targetAtFixation,jsons/v1_VE1000_randls_31_rotated.json,http://54.235.29.9/FacialAge/BNav_EC2/DepthDuration/v2_depth_duration_MTurk/v2_DepthDuration_HTML.html#55,55,1515,853,1364,768,8-22-2022,8-7-55,53,depth_duration_stimuli/002272_2014-06-28_18-53-56_260595134347_rgbf000067-resize_2/002272_2014-06-28_18-53-56_260595134347_rgbf000067-resize_2-target.png,1000,1.138,2,2852,999,meters,jsons/v1_VE1000_randls_31_rotated.json,1708443,1907799,24,Man
53,726595,DepthScenes,duration_manipulation_targetAtFixation,jsons/v1_VE1000_randls_31_rotated.json,http://54.235.29.9/FacialAge/BNav_EC2/DepthDuration/v2_depth_duration_MTurk/v2_DepthDuration_HTML.html#55,55,1515,853,1364,768,8-22-2022,8-7-55,54,depth_duration_stimuli/000549_2014-06-08_22-10-24_260595134347_rgbf000247-resize_3/000549_2014-06-08_22-10-24_260595134347_rgbf000247-resize_3-target.png,1000,1.841,3,5157,999,meters,jsons/v1_VE1000_randls_31_rotated.json,1708443,1907799,24,Man
54,726595,DepthScenes,duration_manipulation_targetAtFixation,jsons/v1_VE1000_randls_31_rotated.json,http://54.235.29.9/FacialAge/BNav_EC2/DepthDuration/v2_depth_duration_MTurk/v2_DepthDuration_HTML.html#55,55,1515,853,1364,768,8-22-2022,8-7-55,55,depth_duration_stimuli/001055_2014-06-08_18-45-35_260595134347_rgbf000111-resize_4/001055_2014-06-08_18-45-35_260595134347_rgbf000111-resize_4-target.png,1000,2.4290000000000003,3,3294,1000,meters,jsons/v1_VE1000_randls_31_rotated.json,1708443,1907799,24,Man
55,726595,DepthScenes,duration_manipulation_targetAtFixation,jsons/v1_VE1000_randls_31_rotated.json,http://54.235.29.9/FacialAge/BNav_EC2/DepthDuration/v2_depth_duration_MTurk/v2_DepthDuration_HTML.html#55,55,1515,853,1364,768,8-22-2022,8-7-55,56,depth_duration_stimuli/003495_2014-05-21_16-01-51_094959634447_rgbf000100-resize_3/003495_2014-05-21_16-01-51_094959634447_rgbf000100-resize_3-target.png,1000,1.6255,2,3482,1001,meters,jsons/v1_VE1000_randls_31_rotated.json,1708443,1907799,24,Man
56,726595,DepthScenes,duration_manipulation_targetAtFixation,jsons/v1_VE1000_randls_31_rotated.json,http://54.235.29.9/FacialAge/BNav_EC2/DepthDuration/v2_depth_duration_MTurk/v2_DepthDuration_HTML.html#55,55,1515,853,1364,768,8-22-2022,8-7-55,57,depth_duration_stimuli/001244_2014-06-17_16-47-45_260595134347_rgbf000030-resize_4/001244_2014-06-17_16-47-45_260595134347_rgbf000030-resize_4-target.png,1000,2.0425,3,3176,1000,meters,jsons/v1_VE1000_randls_31_rotated.json,1708443,1907799,24,Man
57,726595,DepthScenes,duration_manipulation_targetAtFixation,jsons/v1_VE1000_randls_31_rotated.json,http://54.235.29.9/FacialAge/BNav_EC2/DepthDuration/v2_depth_duration_MTurk/v2_DepthDuration_HTML.html#55,55,1515,853,1364,768,8-22-2022,8-7-55,58,depth_duration_stimuli/003081_2014-06-15_15-19-16_094959634447_rgbf000150-resize_1/003081_2014-06-15_15-19-16_094959634447_rgbf000150-resize_1-target.png,1000,3.9125,1,3604,1000,meters,jsons/v1_VE1000_randls_31_rotated.json,1708443,1907799,24,Man
58,726595,DepthScenes,duration_manipulation_targetAtFixation,jsons/v1_VE1000_randls_31_rotated.json,http://54.235.29.9/FacialAge/BNav_EC2/DepthDuration/v2_depth_duration_MTurk/v2_DepthDuration_HTML.html#55,55,1515,853,1364,768,8-22-2022,8-7-55,59,depth_duration_stimuli/001417_2014-06-19_16-25-36_260595134347_rgbf000115-resize_5/001417_2014-06-19_16-25-36_260595134347_rgbf000115-resize_5-target.png,1000,4.6255,2,3077,922,meters,jsons/v1_VE1000_randls_31_rotated.json,1708443,1907799,24,Man
59,726595,DepthScenes,duration_manipulation_targetAtFixation,jsons/v1_VE1000_randls_31_rotated.json,http://54.235.29.9/FacialAge/BNav_EC2/DepthDuration/v2_depth_duration_MTurk/v2_DepthDuration_HTML.html#55,55,1515,853,1364,768,8-22-2022,8-7-55,60,depth_duration_stimuli/000943_2014-06-09_19-31-07_260595134347_rgbf000128-resize_1/000943_2014-06-09_19-31-07_260595134347_rgbf000128-resize_1-target.png,1000,1.9765,3,9253,1000,meters,jsons/v1_VE1000_randls_31_rotated.json,1708443,1907799,24,Man
60,726595,DepthScenes,duration_manipulation_targetAtFixation,jsons/v1_VE1000_randls_31_rotated.json,http://54.235.29.9/FacialAge/BNav_EC2/DepthDuration/v2_depth_duration_MTurk/v2_DepthDuration_HTML.html#55,55,1515,853,1364,768,8-22-2022,8-7-55,61,depth_duration_stimuli/003070_2014-06-15_14-58-27_094959634447_rgbf000150-resize_3/003070_2014-06-15_14-58-27_094959634447_rgbf000150-resize_3-target.png,1000,2.9415,2,4248,999,meters,jsons/v1_VE1000_randls_31_rotated.json,1708443,1907799,24,Man
61,726595,DepthScenes,duration_manipulation_targetAtFixation,jsons/v1_VE1000_randls_31_rotated.json,http://54.235.29.9/FacialAge/BNav_EC2/DepthDuration/v2_depth_duration_MTurk/v2_DepthDuration_HTML.html#55,55,1515,853,1364,768,8-22-2022,8-7-55,62,depth_duration_stimuli/000556_2014-06-09_22-42-56_260595134347_rgbf000214-resize_1/000556_2014-06-09_22-42-56_260595134347_rgbf000214-resize_1-target.png,1000,4.8415,1,2890,998,meters,jsons/v1_VE1000_randls_31_rotated.json,1708443,1907799,24,Man
62,726595,DepthScenes,duration_manipulation_targetAtFixation,jsons/v1_VE1000_randls_31_rotated.json,http://54.235.29.9/FacialAge/BNav_EC2/DepthDuration/v2_depth_duration_MTurk/v2_DepthDuration_HTML.html#55,55,1515,853,1364,768,8-22-2022,8-7-55,63,depth_duration_stimuli/001158_2014-06-17_15-32-16_260595134347_rgbf000138-resize_2/001158_2014-06-17_15-32-16_260595134347_rgbf000138-resize_2-target.png,1000,4.5315,2,5794,1000,meters,jsons/v1_VE1000_randls_31_rotated.json,1708443,1907799,24,Man
63,726595,DepthScenes,duration_manipulation_targetAtFixation,jsons/v1_VE1000_randls_31_rotated.json,http://54.235.29.9/FacialAge/BNav_EC2/DepthDuration/v2_depth_duration_MTurk/v2_DepthDuration_HTML.html#55,55,1515,853,1364,768,8-22-2022,8-7-55,64,depth_duration_stimuli/002657_2014-06-13_15-29-54_094959634447_rgbf000150-resize_1/002657_2014-06-13_15-29-54_094959634447_rgbf000150-resize_1-target.png,1000,4.919,2,3092,999,meters,jsons/v1_VE1000_randls_31_rotated.json,1708443,1907799,24,Man
64,726595,DepthScenes,duration_manipulation_targetAtFixation,jsons/v1_VE1000_randls_31_rotated.json,http://54.235.29.9/FacialAge/BNav_EC2/DepthDuration/v2_depth_duration_MTurk/v2_DepthDuration_HTML.html#55,55,1515,853,1364,768,8-22-2022,8-7-55,65,depth_duration_stimuli/002375_2014-06-28_20-13-44_260595134347_rgbf000032-resize_1/002375_2014-06-28_20-13-44_260595134347_rgbf000032-resize_1-target.png,1000,4.0175,3,9717,999,meters,jsons/v1_VE1000_randls_31_rotated.json,1708443,1907799,24,Man
65,726595,DepthScenes,duration_manipulation_targetAtFixation,jsons/v1_VE1000_randls_31_rotated.json,http://54.235.29.9/FacialAge/BNav_EC2/DepthDuration/v2_depth_duration_MTurk/v2_DepthDuration_HTML.html#55,55,1515,853,1364,768,8-22-2022,8-7-55,66,depth_duration_stimuli/001540_2014-06-20_17-01-05_260595134347_rgbf000086-resize_2/001540_2014-06-20_17-01-05_260595134347_rgbf000086-resize-original.jpg,1000,1.459,2,4307,1044,meters,jsons/v1_VE1000_randls_31_rotated.json,1708443,1907799,24,Man
66,726595,DepthScenes,duration_manipulation_targetAtFixation,jsons/v1_VE1000_randls_31_rotated.json,http://54.235.29.9/FacialAge/BNav_EC2/DepthDuration/v2_depth_duration_MTurk/v2_DepthDuration_HTML.html#55,55,1515,853,1364,768,8-22-2022,8-7-55,67,depth_duration_stimuli/003010_2014-06-15_12-54-35_094959634447_rgbf000112-resize_0/003010_2014-06-15_12-54-35_094959634447_rgbf000112-resize_0-target.png,1000,3.1185,1,6007,702,meters,jsons/v1_VE1000_randls_31_rotated.json,1708443,1907799,24,Man
67,726595,DepthScenes,duration_manipulation_targetAtFixation,jsons/v1_VE1000_randls_31_rotated.json,http://54.235.29.9/FacialAge/BNav_EC2/DepthDuration/v2_depth_duration_MTurk/v2_DepthDuration_HTML.html#55,55,1515,853,1364,768,8-22-2022,8-7-55,68,depth_duration_stimuli/001810_2014-06-26_20-51-35_260595134347_rgbf000040-resize_3/001810_2014-06-26_20-51-35_260595134347_rgbf000040-resize_3-target.png,1000,2.2525,2,2891,1001,meters,jsons/v1_VE1000_randls_31_rotated.json,1708443,1907799,24,Man
68,726595,DepthScenes,duration_manipulation_targetAtFixation,jsons/v1_VE1000_randls_31_rotated.json,http://54.235.29.9/FacialAge/BNav_EC2/DepthDuration/v2_depth_duration_MTurk/v2_DepthDuration_HTML.html#55,55,1515,853,1364,768,8-22-2022,8-7-55,69,depth_duration_stimuli/002678_2014-06-13_16-15-32_094959634447_rgbf000151-resize_6/002678_2014-06-13_16-15-32_094959634447_rgbf000151-resize_6-target.png,1000,2.1830000000000003,2,3494,999,meters,jsons/v1_VE1000_randls_31_rotated.json,1708443,1907799,24,Man
69,726595,DepthScenes,duration_manipulation_targetAtFixation,jsons/v1_VE1000_randls_31_rotated.json,http://54.235.29.9/FacialAge/BNav_EC2/DepthDuration/v2_depth_duration_MTurk/v2_DepthDuration_HTML.html#55,55,1515,853,1364,768,8-22-2022,8-7-55,70,depth_duration_stimuli/000368_2014-06-09_15-53-01_260595134347_rgbf000155-resize_2/000368_2014-06-09_15-53-01_260595134347_rgbf000155-resize_2-target.png,1000,2.4859999999999998,1,3015,1002,meters,jsons/v1_VE1000_randls_31_rotated.json,1708443,1907799,24,Man
70,726595,DepthScenes,duration_manipulation_targetAtFixation,jsons/v1_VE1000_randls_31_rotated.json,http://54.235.29.9/FacialAge/BNav_EC2/DepthDuration/v2_depth_duration_MTurk/v2_DepthDuration_HTML.html#55,55,1515,853,1364,768,8-22-2022,8-7-55,71,depth_duration_stimuli/002660_2014-06-13_15-44-18_094959634447_rgbf001878-resize_2/002660_2014-06-13_15-44-18_094959634447_rgbf001878-resize_2-target.png,1000,3.576,2,2637,996,meters,jsons/v1_VE1000_randls_31_rotated.json,1708443,1907799,24,Man
71,726595,DepthScenes,duration_manipulation_targetAtFixation,jsons/v1_VE1000_randls_31_rotated.json,http://54.235.29.9/FacialAge/BNav_EC2/DepthDuration/v2_depth_duration_MTurk/v2_DepthDuration_HTML.html#55,55,1515,853,1364,768,8-22-2022,8-7-55,72,depth_duration_stimuli/002153_2014-06-25_21-27-18_260595134347_rgbf000038-resize_5/002153_2014-06-25_21-27-18_260595134347_rgbf000038-resize_5-target.png,1000,2.505,3,7196,999,meters,jsons/v1_VE1000_randls_31_rotated.json,1708443,1907799,24,Man
72,726595,DepthScenes,duration_manipulation_targetAtFixation,jsons/v1_VE1000_randls_31_rotated.json,http://54.235.29.9/FacialAge/BNav_EC2/DepthDuration/v2_depth_duration_MTurk/v2_DepthDuration_HTML.html#55,55,1515,853,1364,768,8-22-2022,8-7-55,73,depth_duration_stimuli/001094_2014-06-15_17-36-00_260595134347_rgbf000205-resize_0/001094_2014-06-15_17-36-00_260595134347_rgbf000205-resize_0-target.png,1000,4.2175,1,3636,999,meters,jsons/v1_VE1000_randls_31_rotated.json,1708443,1907799,24,Man
73,726595,DepthScenes,duration_manipulation_targetAtFixation,jsons/v1_VE1000_randls_31_rotated.json,http://54.235.29.9/FacialAge/BNav_EC2/DepthDuration/v2_depth_duration_MTurk/v2_DepthDuration_HTML.html#55,55,1515,853,1364,768,8-22-2022,8-7-55,74,depth_duration_stimuli/000692_2014-06-08_13-09-42_260595134347_rgbf000199-resize_2/000692_2014-06-08_13-09-42_260595134347_rgbf000199-resize_2-target.png,1000,3.661,2,4769,999,meters,jsons/v1_VE1000_randls_31_rotated.json,1708443,1907799,24,Man
74,726595,DepthScenes,duration_manipulation_targetAtFixation,jsons/v1_VE1000_randls_31_rotated.json,http://54.235.29.9/FacialAge/BNav_EC2/DepthDuration/v2_depth_duration_MTurk/v2_DepthDuration_HTML.html#55,55,1515,853,1364,768,8-22-2022,8-7-55,75,depth_duration_stimuli/001447_2014-06-19_17-00-32_260595134347_rgbf000082-resize_5/001447_2014-06-19_17-00-32_260595134347_rgbf000082-resize_5-target.png,1000,4.13775,3,3266,1039,meters,jsons/v1_VE1000_randls_31_rotated.json,1708443,1907799,24,Man
75,726595,DepthScenes,duration_manipulation_targetAtFixation,jsons/v1_VE1000_randls_31_rotated.json,http://54.235.29.9/FacialAge/BNav_EC2/DepthDuration/v2_depth_duration_MTurk/v2_DepthDuration_HTML.html#55,55,1515,853,1364,768,8-22-2022,8-7-55,76,depth_duration_stimuli/000447_2014-06-08_16-15-46_260595134347_rgbf000130-resize_1/000447_2014-06-08_16-15-46_260595134347_rgbf000130-resize_1-target.png,1000,4.479,2,5252,1000,meters,jsons/v1_VE1000_randls_31_rotated.json,1708443,1907799,24,Man
76,726595,DepthScenes,duration_manipulation_targetAtFixation,jsons/v1_VE1000_randls_31_rotated.json,http://54.235.29.9/FacialAge/BNav_EC2/DepthDuration/v2_depth_duration_MTurk/v2_DepthDuration_HTML.html#55,55,1515,853,1364,768,8-22-2022,8-7-55,77,depth_duration_stimuli/001214_2014-06-17_16-13-55_260595134347_rgbf000111-resize_0/001214_2014-06-17_16-13-55_260595134347_rgbf000111-resize_0-target.png,1000,2.6505,2,4944,999,meters,jsons/v1_VE1000_randls_31_rotated.json,1708443,1907799,24,Man
77,726595,DepthScenes,duration_manipulation_targetAtFixation,jsons/v1_VE1000_randls_31_rotated.json,http://54.235.29.9/FacialAge/BNav_EC2/DepthDuration/v2_depth_duration_MTurk/v2_DepthDuration_HTML.html#55,55,1515,853,1364,768,8-22-2022,8-7-55,78,depth_duration_stimuli/000810_2014-06-08_17-20-01_260595134347_rgbf000105-resize_0/000810_2014-06-08_17-20-01_260595134347_rgbf000105-resize_0-target.png,1000,1.4865,1,9501,1000,meters,jsons/v1_VE1000_randls_31_rotated.json,1708443,1907799,24,Man
78,726595,DepthScenes,duration_manipulation_targetAtFixation,jsons/v1_VE1000_randls_31_rotated.json,http://54.235.29.9/FacialAge/BNav_EC2/DepthDuration/v2_depth_duration_MTurk/v2_DepthDuration_HTML.html#55,55,1515,853,1364,768,8-22-2022,8-7-55,79,depth_duration_stimuli/003423_2014-05-21_10-23-26_094959634447_rgbf002665-resize_2/003423_2014-05-21_10-23-26_094959634447_rgbf002665-resize_2-target.png,1000,3.2575,2,5156,1000,meters,jsons/v1_VE1000_randls_31_rotated.json,1708443,1907799,24,Man
79,726595,DepthScenes,duration_manipulation_targetAtFixation,jsons/v1_VE1000_randls_31_rotated.json,http://54.235.29.9/FacialAge/BNav_EC2/DepthDuration/v2_depth_duration_MTurk/v2_DepthDuration_HTML.html#55,55,1515,853,1364,768,8-22-2022,8-7-55,80,depth_duration_stimuli/002905_2014-06-03_18-04-43_094959634447_rgbf000151-resize_2/002905_2014-06-03_18-04-43_094959634447_rgbf000151-resize_2-target.png,1000,2.0295,3,7731,1001,meters,jsons/v1_VE1000_randls_31_rotated.json,1708443,1907799,24,Man
80,726595,DepthScenes,duration_manipulation_targetAtFixation,jsons/v1_VE1000_randls_31_rotated.json,http://54.235.29.9/FacialAge/BNav_EC2/DepthDuration/v2_depth_duration_MTurk/v2_DepthDuration_HTML.html#55,55,1515,853,1364,768,8-22-2022,8-7-55,81,depth_duration_stimuli/002875_2014-06-01_15-19-00_094959634447_rgbf000151-resize_1/002875_2014-06-01_15-19-00_094959634447_rgbf000151-resize_1-target.png,1000,1.9675,3,3516,999,meters,jsons/v1_VE1000_randls_31_rotated.json,1708443,1907799,24,Man
81,726595,DepthScenes,duration_manipulation_targetAtFixation,jsons/v1_VE1000_randls_31_rotated.json,http://54.235.29.9/FacialAge/BNav_EC2/DepthDuration/v2_depth_duration_MTurk/v2_DepthDuration_HTML.html#55,55,1515,853,1364,768,8-22-2022,8-7-55,82,depth_duration_stimuli/001011_2014-06-08_23-18-54_260595134347_rgbf000044-resize_4/001011_2014-06-08_23-18-54_260595134347_rgbf000044-resize_4-target.png,1000,2.4730000000000003,3,4746,1000,meters,jsons/v1_VE1000_randls_31_rotated.json,1708443,1907799,24,Man
82,726595,DepthScenes,duration_manipulation_targetAtFixation,jsons/v1_VE1000_randls_31_rotated.json,http://54.235.29.9/FacialAge/BNav_EC2/DepthDuration/v2_depth_duration_MTurk/v2_DepthDuration_HTML.html#55,55,1515,853,1364,768,8-22-2022,8-7-55,83,depth_duration_stimuli/001450_2014-06-19_17-02-03_260595134347_rgbf000203-resize_4/001450_2014-06-19_17-02-03_260595134347_rgbf000203-resize_4-target.png,1000,4.0106666666667,1,5129,1000,meters,jsons/v1_VE1000_randls_31_rotated.json,1708443,1907799,24,Man
83,726595,DepthScenes,duration_manipulation_targetAtFixation,jsons/v1_VE1000_randls_31_rotated.json,http://54.235.29.9/FacialAge/BNav_EC2/DepthDuration/v2_depth_duration_MTurk/v2_DepthDuration_HTML.html#55,55,1515,853,1364,768,8-22-2022,8-7-55,84,depth_duration_stimuli/001449_2014-06-19_17-01-27_260595134347_rgbf000116-resize_2/001449_2014-06-19_17-01-27_260595134347_rgbf000116-resize_2-target.png,1000,3.452,2,3483,999,meters,jsons/v1_VE1000_randls_31_rotated.json,1708443,1907799,24,Man
84,726595,DepthScenes,duration_manipulation_targetAtFixation,jsons/v1_VE1000_randls_31_rotated.json,http://54.235.29.9/FacialAge/BNav_EC2/DepthDuration/v2_depth_duration_MTurk/v2_DepthDuration_HTML.html#55,55,1515,853,1364,768,8-22-2022,8-7-55,85,depth_duration_stimuli/003129_2014-05-12_10-48-10_094959634447_rgbf000100-resize_0/003129_2014-05-12_10-48-10_094959634447_rgbf000100-resize_0-target.png,1000,4.9305,2,3268,999,meters,jsons/v1_VE1000_randls_31_rotated.json,1708443,1907799,24,Man
85,726595,DepthScenes,duration_manipulation_targetAtFixation,jsons/v1_VE1000_randls_31_rotated.json,http://54.235.29.9/FacialAge/BNav_EC2/DepthDuration/v2_depth_duration_MTurk/v2_DepthDuration_HTML.html#55,55,1515,853,1364,768,8-22-2022,8-7-55,86,depth_duration_stimuli/000414_2014-06-04_19-49-13_260595134347_rgbf000044-resize_0/000414_2014-06-04_19-49-13_260595134347_rgbf000044-resize_0-target.png,1000,4.329,2,2740,997,meters,jsons/v1_VE1000_randls_31_rotated.json,1708443,1907799,24,Man
86,726595,DepthScenes,duration_manipulation_targetAtFixation,jsons/v1_VE1000_randls_31_rotated.json,http://54.235.29.9/FacialAge/BNav_EC2/DepthDuration/v2_depth_duration_MTurk/v2_DepthDuration_HTML.html#55,55,1515,853,1364,768,8-22-2022,8-7-55,87,depth_duration_stimuli/002103_2014-06-25_20-00-40_260595134347_rgbf000049-resize_0/002103_2014-06-25_20-00-40_260595134347_rgbf000049-resize_0-target.png,1000,4.105,1,3882,1030,meters,jsons/v1_VE1000_randls_31_rotated.json,1708443,1907799,24,Man
87,726595,DepthScenes,duration_manipulation_targetAtFixation,jsons/v1_VE1000_randls_31_rotated.json,http://54.235.29.9/FacialAge/BNav_EC2/DepthDuration/v2_depth_duration_MTurk/v2_DepthDuration_HTML.html#55,55,1515,853,1364,768,8-22-2022,8-7-55,88,depth_duration_stimuli/002039_2014-06-24_20-22-38_260595134347_rgbf000084-resize_1/002039_2014-06-24_20-22-38_260595134347_rgbf000084-resize_1-target.png,1000,4.408,2,4842,1094,meters,jsons/v1_VE1000_randls_31_rotated.json,1708443,1907799,24,Man
88,726595,DepthScenes,duration_manipulation_targetAtFixation,jsons/v1_VE1000_randls_31_rotated.json,http://54.235.29.9/FacialAge/BNav_EC2/DepthDuration/v2_depth_duration_MTurk/v2_DepthDuration_HTML.html#55,55,1515,853,1364,768,8-22-2022,8-7-55,89,depth_duration_stimuli/000457_2014-06-08_16-52-43_260595134347_rgbf000199-resize_1/000457_2014-06-08_16-52-43_260595134347_rgbf000199-resize_1-target.png,1000,3.6489999999999996,1,4702,994,meters,jsons/v1_VE1000_randls_31_rotated.json,1708443,1907799,24,Man
89,726595,DepthScenes,duration_manipulation_targetAtFixation,jsons/v1_VE1000_randls_31_rotated.json,http://54.235.29.9/FacialAge/BNav_EC2/DepthDuration/v2_depth_duration_MTurk/v2_DepthDuration_HTML.html#55,55,1515,853,1364,768,8-22-2022,8-7-55,90,depth_duration_stimuli/000929_2014-06-09_16-33-19_260595134347_rgbf000139-resize_0/000929_2014-06-09_16-33-19_260595134347_rgbf000139-resize_0-target.png,1000,2.8680000000000003,2,3368,999,meters,jsons/v1_VE1000_randls_31_rotated.json,1708443,1907799,24,Man
90,726595,DepthScenes,duration_manipulation_targetAtFixation,jsons/v1_VE1000_randls_31_rotated.json,http://54.235.29.9/FacialAge/BNav_EC2/DepthDuration/v2_depth_duration_MTurk/v2_DepthDuration_HTML.html#55,55,1515,853,1364,768,8-22-2022,8-7-55,91,depth_duration_stimuli/002995_2014-06-15_12-31-26_094959634447_rgbf000150-resize_1/002995_2014-06-15_12-31-26_094959634447_rgbf000150-resize_1-target.png,1000,3.8360000000000003,3,3362,998,meters,jsons/v1_VE1000_randls_31_rotated.json,1708443,1907799,24,Man
91,726595,DepthScenes,duration_manipulation_targetAtFixation,jsons/v1_VE1000_randls_31_rotated.json,http://54.235.29.9/FacialAge/BNav_EC2/DepthDuration/v2_depth_duration_MTurk/v2_DepthDuration_HTML.html#55,55,1515,853,1364,768,8-22-2022,8-7-55,92,depth_duration_stimuli/002748_2014-06-22_19-07-22_094959634447_rgbf000078-resize_1/002748_2014-06-22_19-07-22_094959634447_rgbf000078-resize_1-target.png,1000,4.6705,1,5354,998,meters,jsons/v1_VE1000_randls_31_rotated.json,1708443,1907799,24,Man
92,726595,DepthScenes,duration_manipulation_targetAtFixation,jsons/v1_VE1000_randls_31_rotated.json,http://54.235.29.9/FacialAge/BNav_EC2/DepthDuration/v2_depth_duration_MTurk/v2_DepthDuration_HTML.html#55,55,1515,853,1364,768,8-22-2022,8-7-55,93,depth_duration_stimuli/000109_2014-05-14_23-41-52_260595134347_rgbf000035-resize_9/000109_2014-05-14_23-41-52_260595134347_rgbf000035-resize_9-target.png,1000,1.3545,2,2873,999,meters,jsons/v1_VE1000_randls_31_rotated.json,1708443,1907799,24,Man
93,726595,DepthScenes,duration_manipulation_targetAtFixation,jsons/v1_VE1000_randls_31_rotated.json,http://54.235.29.9/FacialAge/BNav_EC2/DepthDuration/v2_depth_duration_MTurk/v2_DepthDuration_HTML.html#55,55,1515,853,1364,768,8-22-2022,8-7-55,94,depth_duration_stimuli/000470_2014-06-09_19-42-40_260595134347_rgbf000094-resize_1/000470_2014-06-09_19-42-40_260595134347_rgbf000094-resize_1-target.png,1000,1.831,1,7864,995,meters,jsons/v1_VE1000_randls_31_rotated.json,1708443,1907799,24,Man
94,726595,DepthScenes,duration_manipulation_targetAtFixation,jsons/v1_VE1000_randls_31_rotated.json,http://54.235.29.9/FacialAge/BNav_EC2/DepthDuration/v2_depth_duration_MTurk/v2_DepthDuration_HTML.html#55,55,1515,853,1364,768,8-22-2022,8-7-55,95,depth_duration_stimuli/000137_2014-05-20_17-04-49_260595134347_rgbf000120-resize_1/000137_2014-05-20_17-04-49_260595134347_rgbf000120-resize_1-target.png,1000,3.786,2,8636,837,meters,jsons/v1_VE1000_randls_31_rotated.json,1708443,1907799,24,Man
95,726595,DepthScenes,duration_manipulation_targetAtFixation,jsons/v1_VE1000_randls_31_rotated.json,http://54.235.29.9/FacialAge/BNav_EC2/DepthDuration/v2_depth_duration_MTurk/v2_DepthDuration_HTML.html#55,55,1515,853,1364,768,8-22-2022,8-7-55,96,depth_duration_stimuli/000736_2014-06-08_18-24-15_260595134347_rgbf000206-resize_3/000736_2014-06-08_18-24-15_260595134347_rgbf000206-resize_3-target.png,1000,3.515,1,8262,998,meters,jsons/v1_VE1000_randls_31_rotated.json,1708443,1907799,24,Man
96,726595,DepthScenes,duration_manipulation_targetAtFixation,jsons/v1_VE1000_randls_31_rotated.json,http://54.235.29.9/FacialAge/BNav_EC2/DepthDuration/v2_depth_duration_MTurk/v2_DepthDuration_HTML.html#55,55,1515,853,1364,768,8-22-2022,8-7-55,97,depth_duration_stimuli/002545_2014-06-24_13-38-53_094959634447_rgbf000080-resize_4/002545_2014-06-24_13-38-53_094959634447_rgbf000080-resize_4-target.png,1000,1.9205,2,6839,954,meters,jsons/v1_VE1000_randls_31_rotated.json,1708443,1907799,24,Man
97,726595,DepthScenes,duration_manipulation_targetAtFixation,jsons/v1_VE1000_randls_31_rotated.json,http://54.235.29.9/FacialAge/BNav_EC2/DepthDuration/v2_depth_duration_MTurk/v2_DepthDuration_HTML.html#55,55,1515,853,1364,768,8-22-2022,8-7-55,98,depth_duration_stimuli/001092_2014-06-15_17-34-58_260595134347_rgbf000171-resize_3/001092_2014-06-15_17-34-58_260595134347_rgbf000171-resize_3-target.png,1000,2.6935,2,11521,999,meters,jsons/v1_VE1000_randls_31_rotated.json,1708443,1907799,24,Man
98,726595,DepthScenes,duration_manipulation_targetAtFixation,jsons/v1_VE1000_randls_31_rotated.json,http://54.235.29.9/FacialAge/BNav_EC2/DepthDuration/v2_depth_duration_MTurk/v2_DepthDuration_HTML.html#55,55,1515,853,1364,768,8-22-2022,8-7-55,99,depth_duration_stimuli/001222_2014-06-17_16-24-06_260595134347_rgbf000073-resize_0/001222_2014-06-17_16-24-06_260595134347_rgbf000073-resize-original.jpg,1000,1.4385,1,77774,998,meters,jsons/v1_VE1000_randls_31_rotated.json,1708443,1907799,24,Man
99,726595,DepthScenes,duration_manipulation_targetAtFixation,jsons/v1_VE1000_randls_31_rotated.json,http://54.235.29.9/FacialAge/BNav_EC2/DepthDuration/v2_depth_duration_MTurk/v2_DepthDuration_HTML.html#55,55,1515,853,1364,768,8-22-2022,8-7-55,100,depth_duration_stimuli/001052_2014-06-08_18-24-54_260595134347_rgbf000130-resize_1/001052_2014-06-08_18-24-54_260595134347_rgbf000130-resize_1-target.png,1000,4.1045,2,5506,995,meters,jsons/v1_VE1000_randls_31_rotated.json,1708443,1907799,24,Man
100,726595,DepthScenes,duration_manipulation_targetAtFixation,jsons/v1_VE1000_randls_31_rotated.json,http://54.235.29.9/FacialAge/BNav_EC2/DepthDuration/v2_depth_duration_MTurk/v2_DepthDuration_HTML.html#55,55,1515,853,1364,768,8-22-2022,8-7-55,101,depth_duration_stimuli/002988_2014-06-15_12-24-20_094959634447_rgbf000150-resize_1/002988_2014-06-15_12-24-20_094959634447_rgbf000150-resize_1-target.png,1000,4.7669999999999995,1,7841,1001,meters,jsons/v1_VE1000_randls_31_rotated.json,1708443,1907799,24,Man
101,726595,DepthScenes,duration_manipulation_targetAtFixation,jsons/v1_VE1000_randls_31_rotated.json,http://54.235.29.9/FacialAge/BNav_EC2/DepthDuration/v2_depth_duration_MTurk/v2_DepthDuration_HTML.html#55,55,1515,853,1364,768,8-22-2022,8-7-55,102,depth_duration_stimuli/002209_2014-06-28_18-36-10_260595134347_rgbf000051-resize_1/002209_2014-06-28_18-36-10_260595134347_rgbf000051-resize_1-target.png,1000,2.057,1,5930,999,meters,jsons/v1_VE1000_randls_31_rotated.json,1708443,1907799,24,Man
102,726595,DepthScenes,duration_manipulation_targetAtFixation,jsons/v1_VE1000_randls_31_rotated.json,http://54.235.29.9/FacialAge/BNav_EC2/DepthDuration/v2_depth_duration_MTurk/v2_DepthDuration_HTML.html#55,55,1515,853,1364,768,8-22-2022,8-7-55,103,depth_duration_stimuli/002763_2014-06-22_19-13-10_094959634447_rgbf000075-resize_4/002763_2014-06-22_19-13-10_094959634447_rgbf000075-resize_4-target.png,1000,1.68375,1,3162,1265,meters,jsons/v1_VE1000_randls_31_rotated.json,1708443,1907799,24,Man
103,726595,DepthScenes,duration_manipulation_targetAtFixation,jsons/v1_VE1000_randls_31_rotated.json,http://54.235.29.9/FacialAge/BNav_EC2/DepthDuration/v2_depth_duration_MTurk/v2_DepthDuration_HTML.html#55,55,1515,853,1364,768,8-22-2022,8-7-55,104,depth_duration_stimuli/001584_2014-06-20_11-07-43_260595134347_rgbf000002-resize_1/001584_2014-06-20_11-07-43_260595134347_rgbf000002-resize_1-target.png,1000,3.53,2,4115,1000,meters,jsons/v1_VE1000_randls_31_rotated.json,1708443,1907799,24,Man
104,726595,DepthScenes,duration_manipulation_targetAtFixation,jsons/v1_VE1000_randls_31_rotated.json,http://54.235.29.9/FacialAge/BNav_EC2/DepthDuration/v2_depth_duration_MTurk/v2_DepthDuration_HTML.html#55,55,1515,853,1364,768,8-22-2022,8-7-55,105,depth_duration_stimuli/003621_2014-05-23_18-06-08_094959634447_rgbf000101-resize_1/003621_2014-05-23_18-06-08_094959634447_rgbf000101-resize_1-target.png,1000,3.9835,1,4009,1000,meters,jsons/v1_VE1000_randls_31_rotated.json,1708443,1907799,24,Man
105,726595,DepthScenes,duration_manipulation_targetAtFixation,jsons/v1_VE1000_randls_31_rotated.json,http://54.235.29.9/FacialAge/BNav_EC2/DepthDuration/v2_depth_duration_MTurk/v2_DepthDuration_HTML.html#55,55,1515,853,1364,768,8-22-2022,8-7-55,106,depth_duration_stimuli/002467_2014-06-28_20-38-07_260595134347_rgbf000026-resize_2/002467_2014-06-28_20-38-07_260595134347_rgbf000026-resize_2-target.png,1000,4.742,3,7609,783,meters,jsons/v1_VE1000_randls_31_rotated.json,1708443,1907799,24,Man
106,726595,DepthScenes,duration_manipulation_targetAtFixation,jsons/v1_VE1000_randls_31_rotated.json,http://54.235.29.9/FacialAge/BNav_EC2/DepthDuration/v2_depth_duration_MTurk/v2_DepthDuration_HTML.html#55,55,1515,853,1364,768,8-22-2022,8-7-55,107,depth_duration_stimuli/002570_2014-06-24_13-59-54_094959634447_rgbf000059-resize_0/002570_2014-06-24_13-59-54_094959634447_rgbf000059-resize_0-target.png,1000,4.037,2,3610,1001,meters,jsons/v1_VE1000_randls_31_rotated.json,1708443,1907799,24,Man
107,726595,DepthScenes,duration_manipulation_targetAtFixation,jsons/v1_VE1000_randls_31_rotated.json,http://54.235.29.9/FacialAge/BNav_EC2/DepthDuration/v2_depth_duration_MTurk/v2_DepthDuration_HTML.html#55,55,1515,853,1364,768,8-22-2022,8-7-55,108,depth_duration_stimuli/000483_2014-06-09_20-41-45_260595134347_rgbf000116-resize_4/000483_2014-06-09_20-41-45_260595134347_rgbf000116-resize_4-target.png,1000,1.337,1,4950,919,meters,jsons/v1_VE1000_randls_31_rotated.json,1708443,1907799,24,Man
108,726595,DepthScenes,duration_manipulation_targetAtFixation,jsons/v1_VE1000_randls_31_rotated.json,http://54.235.29.9/FacialAge/BNav_EC2/DepthDuration/v2_depth_duration_MTurk/v2_DepthDuration_HTML.html#55,55,1515,853,1364,768,8-22-2022,8-7-55,109,depth_duration_stimuli/000469_2014-06-09_19-42-10_260595134347_rgbf000081-resize_1/000469_2014-06-09_19-42-10_260595134347_rgbf000081-resize_1-target.png,1000,1.652,1,6217,999,meters,jsons/v1_VE1000_randls_31_rotated.json,1708443,1907799,24,Man
109,726595,DepthScenes,duration_manipulation_targetAtFixation,jsons/v1_VE1000_randls_31_rotated.json,http://54.235.29.9/FacialAge/BNav_EC2/DepthDuration/v2_depth_duration_MTurk/v2_DepthDuration_HTML.html#55,55,1515,853,1364,768,8-22-2022,8-7-55,110,depth_duration_stimuli/002805_2014-06-22_19-54-03_094959634447_rgbf000079-resize_1/002805_2014-06-22_19-54-03_094959634447_rgbf000079-resize_1-target.png,1000,3.1439999999999997,1,5099,975,meters,jsons/v1_VE1000_randls_31_rotated.json,1708443,1907799,24,Man
110,726595,DepthScenes,duration_manipulation_targetAtFixation,jsons/v1_VE1000_randls_31_rotated.json,http://54.235.29.9/FacialAge/BNav_EC2/DepthDuration/v2_depth_duration_MTurk/v2_DepthDuration_HTML.html#55,55,1515,853,1364,768,8-22-2022,8-7-55,111,depth_duration_stimuli/000906_2014-06-08_13-35-43_260595134347_rgbf000155-resize_1/000906_2014-06-08_13-35-43_260595134347_rgbf000155-resize_1-target.png,1000,2.8489999999999998,2,3242,1086,meters,jsons/v1_VE1000_randls_31_rotated.json,1708443,1907799,24,Man
111,726595,DepthScenes,duration_manipulation_targetAtFixation,jsons/v1_VE1000_randls_31_rotated.json,http://54.235.29.9/FacialAge/BNav_EC2/DepthDuration/v2_depth_duration_MTurk/v2_DepthDuration_HTML.html#55,55,1515,853,1364,768,8-22-2022,8-7-55,112,depth_duration_stimuli/003587_2014-05-23_16-48-02_094959634447_rgbf002384-resize_2/003587_2014-05-23_16-48-02_094959634447_rgbf002384-resize_2-target.png,1000,1.357,3,3882,1019,meters,jsons/v1_VE1000_randls_31_rotated.json,1708443,1907799,24,Man
112,726595,DepthScenes,duration_manipulation_targetAtFixation,jsons/v1_VE1000_randls_31_rotated.json,http://54.235.29.9/FacialAge/BNav_EC2/DepthDuration/v2_depth_duration_MTurk/v2_DepthDuration_HTML.html#55,55,1515,853,1364,768,8-22-2022,8-7-55,113,depth_duration_stimuli/001167_2014-06-17_15-38-07_260595134347_rgbf000108-resize_0/001167_2014-06-17_15-38-07_260595134347_rgbf000108-resize_0-target.png,1000,1.8505,2,3667,998,meters,jsons/v1_VE1000_randls_31_rotated.json,1708443,1907799,24,Man
113,726595,DepthScenes,duration_manipulation_targetAtFixation,jsons/v1_VE1000_randls_31_rotated.json,http://54.235.29.9/FacialAge/BNav_EC2/DepthDuration/v2_depth_duration_MTurk/v2_DepthDuration_HTML.html#55,55,1515,853,1364,768,8-22-2022,8-7-55,114,depth_duration_stimuli/001516_2014-06-20_16-25-09_260595134347_rgbf000076-resize_2/001516_2014-06-20_16-25-09_260595134347_rgbf000076-resize_2-target.png,1000,1.7445,2,6697,1000,meters,jsons/v1_VE1000_randls_31_rotated.json,1708443,1907799,24,Man
114,726595,DepthScenes,duration_manipulation_targetAtFixation,jsons/v1_VE1000_randls_31_rotated.json,http://54.235.29.9/FacialAge/BNav_EC2/DepthDuration/v2_depth_duration_MTurk/v2_DepthDuration_HTML.html#55,55,1515,853,1364,768,8-22-2022,8-7-55,115,depth_duration_stimuli/002118_2014-06-25_20-32-08_260595134347_rgbf000078-resize_1/002118_2014-06-25_20-32-08_260595134347_rgbf000078-resize_1-target.png,1000,2.6460000000000004,1,4338,999,meters,jsons/v1_VE1000_randls_31_rotated.json,1708443,1907799,24,Man
115,726595,DepthScenes,duration_manipulation_targetAtFixation,jsons/v1_VE1000_randls_31_rotated.json,http://54.235.29.9/FacialAge/BNav_EC2/DepthDuration/v2_depth_duration_MTurk/v2_DepthDuration_HTML.html#55,55,1515,853,1364,768,8-22-2022,8-7-55,116,depth_duration_stimuli/002758_2014-06-22_19-11-20_094959634447_rgbf000128-resize_1/002758_2014-06-22_19-11-20_094959634447_rgbf000128-resize_1-target.png,1000,2.555,2,3596,1000,meters,jsons/v1_VE1000_randls_31_rotated.json,1708443,1907799,24,Man
116,726595,DepthScenes,duration_manipulation_targetAtFixation,jsons/v1_VE1000_randls_31_rotated.json,http://54.235.29.9/FacialAge/BNav_EC2/DepthDuration/v2_depth_duration_MTurk/v2_DepthDuration_HTML.html#55,55,1515,853,1364,768,8-22-2022,8-7-55,117,depth_duration_stimuli/002630_2014-06-24_14-47-50_094959634447_rgbf000055-resize_1/002630_2014-06-24_14-47-50_094959634447_rgbf000055-resize_1-target.png,1000,3.0095,2,3464,1000,meters,jsons/v1_VE1000_randls_31_rotated.json,1708443,1907799,24,Man
117,726595,DepthScenes,duration_manipulation_targetAtFixation,jsons/v1_VE1000_randls_31_rotated.json,http://54.235.29.9/FacialAge/BNav_EC2/DepthDuration/v2_depth_duration_MTurk/v2_DepthDuration_HTML.html#55,55,1515,853,1364,768,8-22-2022,8-7-55,118,depth_duration_stimuli/003338_2014-05-20_11-01-23_094959634447_rgbf000051-resize_6/003338_2014-05-20_11-01-23_094959634447_rgbf000051-resize_6-target.png,1000,1.693,2,5979,999,meters,jsons/v1_VE1000_randls_31_rotated.json,1708443,1907799,24,Man
118,726595,DepthScenes,duration_manipulation_targetAtFixation,jsons/v1_VE1000_randls_31_rotated.json,http://54.235.29.9/FacialAge/BNav_EC2/DepthDuration/v2_depth_duration_MTurk/v2_DepthDuration_HTML.html#55,55,1515,853,1364,768,8-22-2022,8-7-55,119,depth_duration_stimuli/002509_2014-06-24_13-19-22_094959634447_rgbf000077-resize_0/002509_2014-06-24_13-19-22_094959634447_rgbf000077-resize_0-target.png,1000,1.3065,2,4875,1022,meters,jsons/v1_VE1000_randls_31_rotated.json,1708443,1907799,24,Man
119,726595,DepthScenes,duration_manipulation_targetAtFixation,jsons/v1_VE1000_randls_31_rotated.json,http://54.235.29.9/FacialAge/BNav_EC2/DepthDuration/v2_depth_duration_MTurk/v2_DepthDuration_HTML.html#55,55,1515,853,1364,768,8-22-2022,8-7-55,120,depth_duration_stimuli/000787_2014-06-08_22-33-53_260595134347_rgbf000175-resize_1/000787_2014-06-08_22-33-53_260595134347_rgbf000175-resize-original.jpg,1000,4.784,1,3297,1021,meters,jsons/v1_VE1000_randls_31_rotated.json,1708443,1907799,24,Man
120,726595,DepthScenes,duration_manipulation_targetAtFixation,jsons/v1_VE1000_randls_31_rotated.json,http://54.235.29.9/FacialAge/BNav_EC2/DepthDuration/v2_depth_duration_MTurk/v2_DepthDuration_HTML.html#55,55,1515,853,1364,768,8-22-2022,8-7-55,121,depth_duration_stimuli/000749_2014-06-08_21-55-06_260595134347_rgbf000070-resize_2/000749_2014-06-08_21-55-06_260595134347_rgbf000070-resize_2-target.png,1000,2.331,2,4354,1000,meters,jsons/v1_VE1000_randls_31_rotated.json,1708443,1907799,24,Man
121,726595,DepthScenes,duration_manipulation_targetAtFixation,jsons/v1_VE1000_randls_31_rotated.json,http://54.235.29.9/FacialAge/BNav_EC2/DepthDuration/v2_depth_duration_MTurk/v2_DepthDuration_HTML.html#55,55,1515,853,1364,768,8-22-2022,8-7-55,122,depth_duration_stimuli/002788_2014-06-22_19-36-03_094959634447_rgbf000088-resize_2/002788_2014-06-22_19-36-03_094959634447_rgbf000088-resize_2-target.png,1000,1.6465,2,4708,999,meters,jsons/v1_VE1000_randls_31_rotated.json,1708443,1907799,24,Man
122,726595,DepthScenes,duration_manipulation_targetAtFixation,jsons/v1_VE1000_randls_31_rotated.json,http://54.235.29.9/FacialAge/BNav_EC2/DepthDuration/v2_depth_duration_MTurk/v2_DepthDuration_HTML.html#55,55,1515,853,1364,768,8-22-2022,8-7-55,123,depth_duration_stimuli/002953_2014-06-08_17-32-18_094959634447_rgbf000059-resize_5/002953_2014-06-08_17-32-18_094959634447_rgbf000059-resize_5-target.png,1000,1.551,2,5075,1002,meters,jsons/v1_VE1000_randls_31_rotated.json,1708443,1907799,24,Man
123,726595,DepthScenes,duration_manipulation_targetAtFixation,jsons/v1_VE1000_randls_31_rotated.json,http://54.235.29.9/FacialAge/BNav_EC2/DepthDuration/v2_depth_duration_MTurk/v2_DepthDuration_HTML.html#55,55,1515,853,1364,768,8-22-2022,8-7-55,124,depth_duration_stimuli/000878_2014-06-08_22-52-45_260595134347_rgbf000045-resize_2/000878_2014-06-08_22-52-45_260595134347_rgbf000045-resize_2-target.png,1000,2.092,1,7113,1000,meters,jsons/v1_VE1000_randls_31_rotated.json,1708443,1907799,24,Man
124,726595,DepthScenes,duration_manipulation_targetAtFixation,jsons/v1_VE1000_randls_31_rotated.json,http://54.235.29.9/FacialAge/BNav_EC2/DepthDuration/v2_depth_duration_MTurk/v2_DepthDuration_HTML.html#55,55,1515,853,1364,768,8-22-2022,8-7-55,125,depth_duration_stimuli/002639_2014-06-24_14-51-37_094959634447_rgbf000074-resize_4/002639_2014-06-24_14-51-37_094959634447_rgbf000074-resize_4-target.png,1000,4.0375,2,5901,1002,meters,jsons/v1_VE1000_randls_31_rotated.json,1708443,1907799,24,Man
125,726595,DepthScenes,duration_manipulation_targetAtFixation,jsons/v1_VE1000_randls_31_rotated.json,http://54.235.29.9/FacialAge/BNav_EC2/DepthDuration/v2_depth_duration_MTurk/v2_DepthDuration_HTML.html#55,55,1515,853,1364,768,8-22-2022,8-7-55,126,depth_duration_stimuli/003292_2014-05-14_21-53-49_094959634447_rgbf000100-resize_2/003292_2014-05-14_21-53-49_094959634447_rgbf000100-resize_2-target.png,1000,3.4815,3,3484,1000,meters,jsons/v1_VE1000_randls_31_rotated.json,1708443,1907799,24,Man
126,726595,DepthScenes,duration_manipulation_targetAtFixation,jsons/v1_VE1000_randls_31_rotated.json,http://54.235.29.9/FacialAge/BNav_EC2/DepthDuration/v2_depth_duration_MTurk/v2_DepthDuration_HTML.html#55,55,1515,853,1364,768,8-22-2022,8-7-55,127,depth_duration_stimuli/000927_2014-06-09_16-32-30_260595134347_rgbf000123-resize_3/000927_2014-06-09_16-32-30_260595134347_rgbf000123-resize_3-target.png,1000,2.6785,1,7818,979,meters,jsons/v1_VE1000_randls_31_rotated.json,1708443,1907799,24,Man
127,726595,DepthScenes,duration_manipulation_targetAtFixation,jsons/v1_VE1000_randls_31_rotated.json,http://54.235.29.9/FacialAge/BNav_EC2/DepthDuration/v2_depth_duration_MTurk/v2_DepthDuration_HTML.html#55,55,1515,853,1364,768,8-22-2022,8-7-55,128,depth_duration_stimuli/001110_2014-06-15_17-25-28_260595134347_rgbf000150-resize_1/001110_2014-06-15_17-25-28_260595134347_rgbf000150-resize_1-target.png,1000,1.7115,1,3861,1001,meters,jsons/v1_VE1000_randls_31_rotated.json,1708443,1907799,24,Man
128,726595,DepthScenes,duration_manipulation_targetAtFixation,jsons/v1_VE1000_randls_31_rotated.json,http://54.235.29.9/FacialAge/BNav_EC2/DepthDuration/v2_depth_duration_MTurk/v2_DepthDuration_HTML.html#55,55,1515,853,1364,768,8-22-2022,8-7-55,129,depth_duration_stimuli/000409_2014-06-04_19-23-33_260595134347_rgbf000067-resize_0/000409_2014-06-04_19-23-33_260595134347_rgbf000067-resize_0-target.png,1000,3.7335,3,3943,997,meters,jsons/v1_VE1000_randls_31_rotated.json,1708443,1907799,24,Man
129,726595,DepthScenes,duration_manipulation_targetAtFixation,jsons/v1_VE1000_randls_31_rotated.json,http://54.235.29.9/FacialAge/BNav_EC2/DepthDuration/v2_depth_duration_MTurk/v2_DepthDuration_HTML.html#55,55,1515,853,1364,768,8-22-2022,8-7-55,130,depth_duration_stimuli/002663_2014-06-13_15-50-26_094959634447_rgbf000075-resize_1/002663_2014-06-13_15-50-26_094959634447_rgbf000075-resize_1-target.png,1000,4.7495,1,8448,1038,meters,jsons/v1_VE1000_randls_31_rotated.json,1708443,1907799,24,Man
130,726595,DepthScenes,duration_manipulation_targetAtFixation,jsons/v1_VE1000_randls_31_rotated.json,http://54.235.29.9/FacialAge/BNav_EC2/DepthDuration/v2_depth_duration_MTurk/v2_DepthDuration_HTML.html#55,55,1515,853,1364,768,8-22-2022,8-7-55,131,depth_duration_stimuli/002750_2014-06-22_19-08-03_094959634447_rgbf000094-resize_4/002750_2014-06-22_19-08-03_094959634447_rgbf000094-resize_4-target.png,1000,2.354,2,3691,1000,meters,jsons/v1_VE1000_randls_31_rotated.json,1708443,1907799,24,Man
131,726595,DepthScenes,duration_manipulation_targetAtFixation,jsons/v1_VE1000_randls_31_rotated.json,http://54.235.29.9/FacialAge/BNav_EC2/DepthDuration/v2_depth_duration_MTurk/v2_DepthDuration_HTML.html#55,55,1515,853,1364,768,8-22-2022,8-7-55,132,depth_duration_stimuli/002549_2014-06-24_13-41-39_094959634447_rgbf000022-resize_3/002549_2014-06-24_13-41-39_094959634447_rgbf000022-resize_3-target.png,1000,1.476,3,4379,999,meters,jsons/v1_VE1000_randls_31_rotated.json,1708443,1907799,24,Man
132,726595,DepthScenes,duration_manipulation_targetAtFixation,jsons/v1_VE1000_randls_31_rotated.json,http://54.235.29.9/FacialAge/BNav_EC2/DepthDuration/v2_depth_duration_MTurk/v2_DepthDuration_HTML.html#55,55,1515,853,1364,768,8-22-2022,8-7-55,133,depth_duration_stimuli/002344_2014-06-28_20-06-29_260595134347_rgbf000030-resize_1/002344_2014-06-28_20-06-29_260595134347_rgbf000030-resize_1-target.png,1000,1.5795,1,3060,983,meters,jsons/v1_VE1000_randls_31_rotated.json,1708443,1907799,24,Man
133,726595,DepthScenes,duration_manipulation_targetAtFixation,jsons/v1_VE1000_randls_31_rotated.json,http://54.235.29.9/FacialAge/BNav_EC2/DepthDuration/v2_depth_duration_MTurk/v2_DepthDuration_HTML.html#55,55,1515,853,1364,768,8-22-2022,8-7-55,134,depth_duration_stimuli/002725_2014-06-22_11-47-51_094959634447_rgbf000070-resize_1/002725_2014-06-22_11-47-51_094959634447_rgbf000070-resize_1-target.png,1000,2.195,3,4634,1000,meters,jsons/v1_VE1000_randls_31_rotated.json,1708443,1907799,24,Man
134,726595,DepthScenes,duration_manipulation_targetAtFixation,jsons/v1_VE1000_randls_31_rotated.json,http://54.235.29.9/FacialAge/BNav_EC2/DepthDuration/v2_depth_duration_MTurk/v2_DepthDuration_HTML.html#55,55,1515,853,1364,768,8-22-2022,8-7-55,135,depth_duration_stimuli/000375_2014-06-08_11-17-29_260595134347_rgbf000133-resize_2/000375_2014-06-08_11-17-29_260595134347_rgbf000133-resize-original.jpg,1000,4.718,2,3314,999,meters,jsons/v1_VE1000_randls_31_rotated.json,1708443,1907799,24,Man
135,726595,DepthScenes,duration_manipulation_targetAtFixation,jsons/v1_VE1000_randls_31_rotated.json,http://54.235.29.9/FacialAge/BNav_EC2/DepthDuration/v2_depth_duration_MTurk/v2_DepthDuration_HTML.html#55,55,1515,853,1364,768,8-22-2022,8-7-55,136,depth_duration_stimuli/000742_2014-06-08_18-48-09_260595134347_rgbf000164-resize_4/000742_2014-06-08_18-48-09_260595134347_rgbf000164-resize_4-target.png,1000,4.632,1,4931,1002,meters,jsons/v1_VE1000_randls_31_rotated.json,1708443,1907799,24,Man
136,726595,DepthScenes,duration_manipulation_targetAtFixation,jsons/v1_VE1000_randls_31_rotated.json,http://54.235.29.9/FacialAge/BNav_EC2/DepthDuration/v2_depth_duration_MTurk/v2_DepthDuration_HTML.html#55,55,1515,853,1364,768,8-22-2022,8-7-55,137,depth_duration_stimuli/001066_2014-06-08_22-03-20_260595134347_rgbf000066-resize_4/001066_2014-06-08_22-03-20_260595134347_rgbf000066-resize_4-target.png,1000,4.2330000000000005,2,3401,999,meters,jsons/v1_VE1000_randls_31_rotated.json,1708443,1907799,24,Man
137,726595,DepthScenes,duration_manipulation_targetAtFixation,jsons/v1_VE1000_randls_31_rotated.json,http://54.235.29.9/FacialAge/BNav_EC2/DepthDuration/v2_depth_duration_MTurk/v2_DepthDuration_HTML.html#55,55,1515,853,1364,768,8-22-2022,8-7-55,138,depth_duration_stimuli/002323_2014-06-28_20-01-54_260595134347_rgbf000051-resize_4/002323_2014-06-28_20-01-54_260595134347_rgbf000051-resize_4-target.png,1000,3.7310000000000003,1,8140,1315,meters,jsons/v1_VE1000_randls_31_rotated.json,1708443,1907799,24,Man
138,726595,DepthScenes,duration_manipulation_targetAtFixation,jsons/v1_VE1000_randls_31_rotated.json,http://54.235.29.9/FacialAge/BNav_EC2/DepthDuration/v2_depth_duration_MTurk/v2_DepthDuration_HTML.html#55,55,1515,853,1364,768,8-22-2022,8-7-55,139,depth_duration_stimuli/000917_2014-06-09_22-45-29_260595134347_rgbf000149-resize_3/000917_2014-06-09_22-45-29_260595134347_rgbf000149-resize_3-target.png,1000,4.1865,2,5066,1000,meters,jsons/v1_VE1000_randls_31_rotated.json,1708443,1907799,24,Man
139,726595,DepthScenes,duration_manipulation_targetAtFixation,jsons/v1_VE1000_randls_31_rotated.json,http://54.235.29.9/FacialAge/BNav_EC2/DepthDuration/v2_depth_duration_MTurk/v2_DepthDuration_HTML.html#55,55,1515,853,1364,768,8-22-2022,8-7-55,140,depth_duration_stimuli/003048_2014-06-15_13-49-43_094959634447_rgbf000150-resize_1/003048_2014-06-15_13-49-43_094959634447_rgbf000150-resize_1-target.png,1000,4.0035,2,119683,1184,meters,jsons/v1_VE1000_randls_31_rotated.json,1708443,1907799,24,Man
140,726595,DepthScenes,duration_manipulation_targetAtFixation,jsons/v1_VE1000_randls_31_rotated.json,http://54.235.29.9/FacialAge/BNav_EC2/DepthDuration/v2_depth_duration_MTurk/v2_DepthDuration_HTML.html#55,55,1515,853,1364,768,8-22-2022,8-7-55,141,depth_duration_stimuli/002043_2014-06-24_20-29-38_260595134347_rgbf000039-resize_4/002043_2014-06-24_20-29-38_260595134347_rgbf000039-resize_4-target.png,1000,2.8435,1,3451,1001,meters,jsons/v1_VE1000_randls_31_rotated.json,1708443,1907799,24,Man
141,726595,DepthScenes,duration_manipulation_targetAtFixation,jsons/v1_VE1000_randls_31_rotated.json,http://54.235.29.9/FacialAge/BNav_EC2/DepthDuration/v2_depth_duration_MTurk/v2_DepthDuration_HTML.html#55,55,1515,853,1364,768,8-22-2022,8-7-55,142,depth_duration_stimuli/001032_2014-06-08_13-23-17_260595134347_rgbf000021-resize_3/001032_2014-06-08_13-23-17_260595134347_rgbf000021-resize_3-target.png,1000,3.2725,1,4556,999,meters,jsons/v1_VE1000_randls_31_rotated.json,1708443,1907799,24,Man
142,726595,DepthScenes,duration_manipulation_targetAtFixation,jsons/v1_VE1000_randls_31_rotated.json,http://54.235.29.9/FacialAge/BNav_EC2/DepthDuration/v2_depth_duration_MTurk/v2_DepthDuration_HTML.html#55,55,1515,853,1364,768,8-22-2022,8-7-55,143,depth_duration_stimuli/001059_2014-06-08_21-53-27_260595134347_rgbf000061-resize_4/001059_2014-06-08_21-53-27_260595134347_rgbf000061-resize_4-target.png,1000,2.4185,1,3682,987,meters,jsons/v1_VE1000_randls_31_rotated.json,1708443,1907799,24,Man
143,726595,DepthScenes,duration_manipulation_targetAtFixation,jsons/v1_VE1000_randls_31_rotated.json,http://54.235.29.9/FacialAge/BNav_EC2/DepthDuration/v2_depth_duration_MTurk/v2_DepthDuration_HTML.html#55,55,1515,853,1364,768,8-22-2022,8-7-55,144,depth_duration_stimuli/001392_2014-06-19_16-07-59_260595134347_rgbf000046-resize_1/001392_2014-06-19_16-07-59_260595134347_rgbf000046-resize_1-target.png,1000,4.135,2,3234,999,meters,jsons/v1_VE1000_randls_31_rotated.json,1708443,1907799,24,Man
144,726595,DepthScenes,duration_manipulation_targetAtFixation,jsons/v1_VE1000_randls_31_rotated.json,http://54.235.29.9/FacialAge/BNav_EC2/DepthDuration/v2_depth_duration_MTurk/v2_DepthDuration_HTML.html#55,55,1515,853,1364,768,8-22-2022,8-7-55,145,depth_duration_stimuli/001570_2014-06-20_17-21-09_260595134347_rgbf000135-resize_4/001570_2014-06-20_17-21-09_260595134347_rgbf000135-resize_4-target.png,1000,4.467,2,3746,1000,meters,jsons/v1_VE1000_randls_31_rotated.json,1708443,1907799,24,Man
145,726595,DepthScenes,duration_manipulation_targetAtFixation,jsons/v1_VE1000_randls_31_rotated.json,http://54.235.29.9/FacialAge/BNav_EC2/DepthDuration/v2_depth_duration_MTurk/v2_DepthDuration_HTML.html#55,55,1515,853,1364,768,8-22-2022,8-7-55,146,depth_duration_stimuli/000191_2014-05-12_17-07-38_260595134347_rgbf000199-resize_0/000191_2014-05-12_17-07-38_260595134347_rgbf000199-resize_0-target.png,1000,3.7995,3,3401,1000,meters,jsons/v1_VE1000_randls_31_rotated.json,1708443,1907799,24,Man
146,726595,DepthScenes,duration_manipulation_targetAtFixation,jsons/v1_VE1000_randls_31_rotated.json,http://54.235.29.9/FacialAge/BNav_EC2/DepthDuration/v2_depth_duration_MTurk/v2_DepthDuration_HTML.html#55,55,1515,853,1364,768,8-22-2022,8-7-55,147,depth_duration_stimuli/000493_2014-06-09_21-01-18_260595134347_rgbf000196-resize_3/000493_2014-06-09_21-01-18_260595134347_rgbf000196-resize_3-target.png,1000,3.44,2,3367,998,meters,jsons/v1_VE1000_randls_31_rotated.json,1708443,1907799,24,Man
147,726595,DepthScenes,duration_manipulation_targetAtFixation,jsons/v1_VE1000_randls_31_rotated.json,http://54.235.29.9/FacialAge/BNav_EC2/DepthDuration/v2_depth_duration_MTurk/v2_DepthDuration_HTML.html#55,55,1515,853,1364,768,8-22-2022,8-7-55,148,depth_duration_stimuli/000677_2014-06-08_23-10-32_260595134347_rgbf000158-resize_6/000677_2014-06-08_23-10-32_260595134347_rgbf000158-resize_6-target.png,1000,3.556,1,3172,1000,meters,jsons/v1_VE1000_randls_31_rotated.json,1708443,1907799,24,Man
148,726595,DepthScenes,duration_manipulation_targetAtFixation,jsons/v1_VE1000_randls_31_rotated.json,http://54.235.29.9/FacialAge/BNav_EC2/DepthDuration/v2_depth_duration_MTurk/v2_DepthDuration_HTML.html#55,55,1515,853,1364,768,8-22-2022,8-7-55,149,depth_duration_stimuli/001029_2014-06-08_13-17-57_260595134347_rgbf000065-resize_1/001029_2014-06-08_13-17-57_260595134347_rgbf000065-resize_1-target.png,1000,3.0835,1,3042,1000,meters,jsons/v1_VE1000_randls_31_rotated.json,1708443,1907799,24,Man
149,726595,DepthScenes,duration_manipulation_targetAtFixation,jsons/v1_VE1000_randls_31_rotated.json,http://54.235.29.9/FacialAge/BNav_EC2/DepthDuration/v2_depth_duration_MTurk/v2_DepthDuration_HTML.html#55,55,1515,853,1364,768,8-22-2022,8-7-55,150,depth_duration_stimuli/000854_2014-06-09_19-43-13_260595134347_rgbf000066-resize_0/000854_2014-06-09_19-43-13_260595134347_rgbf000066-resize_0-target.png,1000,3.068,1,4257,999,meters,jsons/v1_VE1000_randls_31_rotated.json,1708443,1907799,24,Man
150,726595,DepthScenes,duration_manipulation_targetAtFixation,jsons/v1_VE1000_randls_31_rotated.json,http://54.235.29.9/FacialAge/BNav_EC2/DepthDuration/v2_depth_duration_MTurk/v2_DepthDuration_HTML.html#55,55,1515,853,1364,768,8-22-2022,8-7-55,151,depth_duration_stimuli/000758_2014-06-08_22-05-08_260595134347_rgbf000085-resize_0/000758_2014-06-08_22-05-08_260595134347_rgbf000085-resize_0-target.png,1000,3.3810000000000002,1,3560,1004,meters,jsons/v1_VE1000_randls_31_rotated.json,1708443,1907799,24,Man
151,726595,DepthScenes,duration_manipulation_targetAtFixation,jsons/v1_VE1000_randls_31_rotated.json,http://54.235.29.9/FacialAge/BNav_EC2/DepthDuration/v2_depth_duration_MTurk/v2_DepthDuration_HTML.html#55,55,1515,853,1364,768,8-22-2022,8-7-55,152,depth_duration_stimuli/000569_2014-06-09_22-51-47_260595134347_rgbf000141-resize_3/000569_2014-06-09_22-51-47_260595134347_rgbf000141-resize-original.jpg,1000,4.512,0,3732,1008,meters,jsons/v1_VE1000_randls_31_rotated.json,1708443,1907799,24,Man
152,726595,DepthScenes,duration_manipulation_targetAtFixation,jsons/v1_VE1000_randls_31_rotated.json,http://54.235.29.9/FacialAge/BNav_EC2/DepthDuration/v2_depth_duration_MTurk/v2_DepthDuration_HTML.html#55,55,1515,853,1364,768,8-22-2022,8-7-55,153,depth_duration_stimuli/003490_2014-05-21_15-50-11_094959634447_rgbf000101-resize_3/003490_2014-05-21_15-50-11_094959634447_rgbf000101-resize_3-target.png,1000,3.6445,1,3364,998,meters,jsons/v1_VE1000_randls_31_rotated.json,1708443,1907799,24,Man
153,726595,DepthScenes,duration_manipulation_targetAtFixation,jsons/v1_VE1000_randls_31_rotated.json,http://54.235.29.9/FacialAge/BNav_EC2/DepthDuration/v2_depth_duration_MTurk/v2_DepthDuration_HTML.html#55,55,1515,853,1364,768,8-22-2022,8-7-55,154,depth_duration_stimuli/001175_2014-06-17_15-45-55_260595134347_rgbf000129-resize_4/001175_2014-06-17_15-45-55_260595134347_rgbf000129-resize_4-target.png,1000,4.255,2,2896,1000,meters,jsons/v1_VE1000_randls_31_rotated.json,1708443,1907799,24,Man
154,726595,DepthScenes,duration_manipulation_targetAtFixation,jsons/v1_VE1000_randls_31_rotated.json,http://54.235.29.9/FacialAge/BNav_EC2/DepthDuration/v2_depth_duration_MTurk/v2_DepthDuration_HTML.html#55,55,1515,853,1364,768,8-22-2022,8-7-55,155,depth_duration_stimuli/000866_2014-06-09_20-45-42_260595134347_rgbf000139-resize_1/000866_2014-06-09_20-45-42_260595134347_rgbf000139-resize_1-target.png,1000,3.2155,2,2923,999,meters,jsons/v1_VE1000_randls_31_rotated.json,1708443,1907799,24,Man
155,726595,DepthScenes,duration_manipulation_targetAtFixation,jsons/v1_VE1000_randls_31_rotated.json,http://54.235.29.9/FacialAge/BNav_EC2/DepthDuration/v2_depth_duration_MTurk/v2_DepthDuration_HTML.html#55,55,1515,853,1364,768,8-22-2022,8-7-55,156,depth_duration_stimuli/002989_2014-06-15_12-25-03_094959634447_rgbf000150-resize_3/002989_2014-06-15_12-25-03_094959634447_rgbf000150-resize_3-target.png,1000,4.1975,3,3543,999,meters,jsons/v1_VE1000_randls_31_rotated.json,1708443,1907799,24,Man
156,726595,DepthScenes,duration_manipulation_targetAtFixation,jsons/v1_VE1000_randls_31_rotated.json,http://54.235.29.9/FacialAge/BNav_EC2/DepthDuration/v2_depth_duration_MTurk/v2_DepthDuration_HTML.html#55,55,1515,853,1364,768,8-22-2022,8-7-55,157,depth_duration_stimuli/000780_2014-06-08_22-28-29_260595134347_rgbf000126-resize_1/000780_2014-06-08_22-28-29_260595134347_rgbf000126-resize_1-target.png,1000,3.3825,2,2888,997,meters,jsons/v1_VE1000_randls_31_rotated.json,1708443,1907799,24,Man
157,726595,DepthScenes,duration_manipulation_targetAtFixation,jsons/v1_VE1000_randls_31_rotated.json,http://54.235.29.9/FacialAge/BNav_EC2/DepthDuration/v2_depth_duration_MTurk/v2_DepthDuration_HTML.html#55,55,1515,853,1364,768,8-22-2022,8-7-55,158,depth_duration_stimuli/002445_2014-06-28_20-32-16_260595134347_rgbf000029-resize_4/002445_2014-06-28_20-32-16_260595134347_rgbf000029-resize_4-target.png,1000,2.5315,1,3000,999,meters,jsons/v1_VE1000_randls_31_rotated.json,1708443,1907799,24,Man
158,726595,DepthScenes,duration_manipulation_targetAtFixation,jsons/v1_VE1000_randls_31_rotated.json,http://54.235.29.9/FacialAge/BNav_EC2/DepthDuration/v2_depth_duration_MTurk/v2_DepthDuration_HTML.html#55,55,1515,853,1364,768,8-22-2022,8-7-55,159,depth_duration_stimuli/003228_2014-05-14_13-42-35_094959634447_rgbf000101-resize_1/003228_2014-05-14_13-42-35_094959634447_rgbf000101-resize_1-target.png,1000,1.9680000000000002,1,2987,1000,meters,jsons/v1_VE1000_randls_31_rotated.json,1708443,1907799,24,Man
159,726595,DepthScenes,duration_manipulation_targetAtFixation,jsons/v1_VE1000_randls_31_rotated.json,http://54.235.29.9/FacialAge/BNav_EC2/DepthDuration/v2_depth_duration_MTurk/v2_DepthDuration_HTML.html#55,55,1515,853,1364,768,8-22-2022,8-7-55,160,depth_duration_stimuli/002600_2014-06-24_14-27-04_094959634447_rgbf000074-resize_2/002600_2014-06-24_14-27-04_094959634447_rgbf000074-resize_2-target.png,1000,2.7575,1,2795,961,meters,jsons/v1_VE1000_randls_31_rotated.json,1708443,1907799,24,Man
160,726595,DepthScenes,duration_manipulation_targetAtFixation,jsons/v1_VE1000_randls_31_rotated.json,http://54.235.29.9/FacialAge/BNav_EC2/DepthDuration/v2_depth_duration_MTurk/v2_DepthDuration_HTML.html#55,55,1515,853,1364,768,8-22-2022,8-7-55,161,depth_duration_stimuli/002425_2014-06-28_20-27-29_260595134347_rgbf000031-resize_8/002425_2014-06-28_20-27-29_260595134347_rgbf000031-resize_8-target.png,1000,3.8960000000000004,1,3674,1000,meters,jsons/v1_VE1000_randls_31_rotated.json,1708443,1907799,24,Man
161,726595,DepthScenes,duration_manipulation_targetAtFixation,jsons/v1_VE1000_randls_31_rotated.json,http://54.235.29.9/FacialAge/BNav_EC2/DepthDuration/v2_depth_duration_MTurk/v2_DepthDuration_HTML.html#55,55,1515,853,1364,768,8-22-2022,8-7-55,162,depth_duration_stimuli/000642_2014-06-08_16-59-25_260595134347_rgbf000098-resize_2/000642_2014-06-08_16-59-25_260595134347_rgbf000098-resize_2-target.png,1000,2.8815,1,3484,1000,meters,jsons/v1_VE1000_randls_31_rotated.json,1708443,1907799,24,Man
162,726595,DepthScenes,duration_manipulation_targetAtFixation,jsons/v1_VE1000_randls_31_rotated.json,http://54.235.29.9/FacialAge/BNav_EC2/DepthDuration/v2_depth_duration_MTurk/v2_DepthDuration_HTML.html#55,55,1515,853,1364,768,8-22-2022,8-7-55,163,depth_duration_stimuli/002199_2014-06-28_18-33-56_260595134347_rgbf000074-resize_0/002199_2014-06-28_18-33-56_260595134347_rgbf000074-resize_0-target.png,1000,1.996,1,2953,987,meters,jsons/v1_VE1000_randls_31_rotated.json,1708443,1907799,24,Man
163,726595,DepthScenes,duration_manipulation_targetAtFixation,jsons/v1_VE1000_randls_31_rotated.json,http://54.235.29.9/FacialAge/BNav_EC2/DepthDuration/v2_depth_duration_MTurk/v2_DepthDuration_HTML.html#55,55,1515,853,1364,768,8-22-2022,8-7-55,164,depth_duration_stimuli/001056_2014-06-08_18-46-44_260595134347_rgbf000068-resize_0/001056_2014-06-08_18-46-44_260595134347_rgbf000068-resize_0-target.png,1000,2.6625,1,2832,1001,meters,jsons/v1_VE1000_randls_31_rotated.json,1708443,1907799,24,Man
