,subjID,experimentName,versionName,sequenceName,url,selected_row,windowWidth,windowHeight,screenWidth,screenHeight,startDate,startTime,trial,stimulus,duration,actual_depth,depth_estimate,trial_RT,log_sceneDuration,unitSelection,seq_filepath,experimentTime,totalTime,age,gender
0,728200,DepthScenes,duration_manipulation_targetAtFixation,jsons/v1_VE250_randls_22_rotated.json,http://54.235.29.9/FacialAge/BNav_EC2/DepthDuration/v2_depth_duration_MTurk/v2_DepthDuration_HTML.html#63,63,1024,625,1024,768,8-29-2022,14-34-25,1,depth_duration_stimuli/002545_2014-06-24_13-38-53_094959634447_rgbf000080-resize_4/002545_2014-06-24_13-38-53_094959634447_rgbf000080-resize_4-target.png,250,1.9205,65,8349,308,meters,jsons/v1_VE250_randls_22_rotated.json,1499877,1926045,57,Woman
1,728200,DepthScenes,duration_manipulation_targetAtFixation,jsons/v1_VE250_randls_22_rotated.json,http://54.235.29.9/FacialAge/BNav_EC2/DepthDuration/v2_depth_duration_MTurk/v2_DepthDuration_HTML.html#63,63,1024,625,1024,768,8-29-2022,14-34-25,2,depth_duration_stimuli/001092_2014-06-15_17-34-58_260595134347_rgbf000171-resize_3/001092_2014-06-15_17-34-58_260595134347_rgbf000171-resize_3-target.png,250,2.6935,50,10595,256,meters,jsons/v1_VE250_randls_22_rotated.json,1499877,1926045,57,Woman
2,728200,DepthScenes,duration_manipulation_targetAtFixation,jsons/v1_VE250_randls_22_rotated.json,http://54.235.29.9/FacialAge/BNav_EC2/DepthDuration/v2_depth_duration_MTurk/v2_DepthDuration_HTML.html#63,63,1024,625,1024,768,8-29-2022,14-34-25,3,depth_duration_stimuli/002678_2014-06-13_16-15-32_094959634447_rgbf000151-resize_6/002678_2014-06-13_16-15-32_094959634447_rgbf000151-resize_6-target.png,250,2.1830000000000003,85,13880,250,meters,jsons/v1_VE250_randls_22_rotated.json,1499877,1926045,57,Woman
3,728200,DepthScenes,duration_manipulation_targetAtFixation,jsons/v1_VE250_randls_22_rotated.json,http://54.235.29.9/FacialAge/BNav_EC2/DepthDuration/v2_depth_duration_MTurk/v2_DepthDuration_HTML.html#63,63,1024,625,1024,768,8-29-2022,14-34-25,4,depth_duration_stimuli/000368_2014-06-09_15-53-01_260595134347_rgbf000155-resize_2/000368_2014-06-09_15-53-01_260595134347_rgbf000155-resize_2-target.png,250,2.4859999999999998,55,10364,255,meters,jsons/v1_VE250_randls_22_rotated.json,1499877,1926045,57,Woman
4,728200,DepthScenes,duration_manipulation_targetAtFixation,jsons/v1_VE250_randls_22_rotated.json,http://54.235.29.9/FacialAge/BNav_EC2/DepthDuration/v2_depth_duration_MTurk/v2_DepthDuration_HTML.html#63,63,1024,625,1024,768,8-29-2022,14-34-25,5,depth_duration_stimuli/001571_2014-06-20_17-21-32_260595134347_rgbf000089-resize_1/001571_2014-06-20_17-21-32_260595134347_rgbf000089-resize_1-target.png,250,1.86,75,10952,265,meters,jsons/v1_VE250_randls_22_rotated.json,1499877,1926045,57,Woman
5,728200,DepthScenes,duration_manipulation_targetAtFixation,jsons/v1_VE250_randls_22_rotated.json,http://54.235.29.9/FacialAge/BNav_EC2/DepthDuration/v2_depth_duration_MTurk/v2_DepthDuration_HTML.html#63,63,1024,625,1024,768,8-29-2022,14-34-25,6,depth_duration_stimuli/002272_2014-06-28_18-53-56_260595134347_rgbf000067-resize_2/002272_2014-06-28_18-53-56_260595134347_rgbf000067-resize_2-target.png,250,1.138,34,10153,250,meters,jsons/v1_VE250_randls_22_rotated.json,1499877,1926045,57,Woman
6,728200,DepthScenes,duration_manipulation_targetAtFixation,jsons/v1_VE250_randls_22_rotated.json,http://54.235.29.9/FacialAge/BNav_EC2/DepthDuration/v2_depth_duration_MTurk/v2_DepthDuration_HTML.html#63,63,1024,625,1024,768,8-29-2022,14-34-25,7,depth_duration_stimuli/002414_2014-06-28_20-24-58_260595134347_rgbf000067-resize_4/002414_2014-06-28_20-24-58_260595134347_rgbf000067-resize_4-target.png,250,4.363,65,8576,250,meters,jsons/v1_VE250_randls_22_rotated.json,1499877,1926045,57,Woman
7,728200,DepthScenes,duration_manipulation_targetAtFixation,jsons/v1_VE250_randls_22_rotated.json,http://54.235.29.9/FacialAge/BNav_EC2/DepthDuration/v2_depth_duration_MTurk/v2_DepthDuration_HTML.html#63,63,1024,625,1024,768,8-29-2022,14-34-25,8,depth_duration_stimuli/000773_2014-06-08_22-24-54_260595134347_rgbf000093-resize_1/000773_2014-06-08_22-24-54_260595134347_rgbf000093-resize_1-target.png,250,4.973,60,7988,249,meters,jsons/v1_VE250_randls_22_rotated.json,1499877,1926045,57,Woman
8,728200,DepthScenes,duration_manipulation_targetAtFixation,jsons/v1_VE250_randls_22_rotated.json,http://54.235.29.9/FacialAge/BNav_EC2/DepthDuration/v2_depth_duration_MTurk/v2_DepthDuration_HTML.html#63,63,1024,625,1024,768,8-29-2022,14-34-25,9,depth_duration_stimuli/000556_2014-06-09_22-42-56_260595134347_rgbf000214-resize_1/000556_2014-06-09_22-42-56_260595134347_rgbf000214-resize_1-target.png,250,4.8415,35,12897,258,meters,jsons/v1_VE250_randls_22_rotated.json,1499877,1926045,57,Woman
9,728200,DepthScenes,duration_manipulation_targetAtFixation,jsons/v1_VE250_randls_22_rotated.json,http://54.235.29.9/FacialAge/BNav_EC2/DepthDuration/v2_depth_duration_MTurk/v2_DepthDuration_HTML.html#63,63,1024,625,1024,768,8-29-2022,14-34-25,10,depth_duration_stimuli/001158_2014-06-17_15-32-16_260595134347_rgbf000138-resize_2/001158_2014-06-17_15-32-16_260595134347_rgbf000138-resize_2-target.png,250,4.5315,40,15053,250,meters,jsons/v1_VE250_randls_22_rotated.json,1499877,1926045,57,Woman
10,728200,DepthScenes,duration_manipulation_targetAtFixation,jsons/v1_VE250_randls_22_rotated.json,http://54.235.29.9/FacialAge/BNav_EC2/DepthDuration/v2_depth_duration_MTurk/v2_DepthDuration_HTML.html#63,63,1024,625,1024,768,8-29-2022,14-34-25,11,depth_duration_stimuli/001132_2014-06-17_14-48-54_260595134347_rgbf000100-resize_2/001132_2014-06-17_14-48-54_260595134347_rgbf000100-resize_2-target.png,250,3.753,45,19251,249,meters,jsons/v1_VE250_randls_22_rotated.json,1499877,1926045,57,Woman
11,728200,DepthScenes,duration_manipulation_targetAtFixation,jsons/v1_VE250_randls_22_rotated.json,http://54.235.29.9/FacialAge/BNav_EC2/DepthDuration/v2_depth_duration_MTurk/v2_DepthDuration_HTML.html#63,63,1024,625,1024,768,8-29-2022,14-34-25,12,depth_duration_stimuli/001133_2014-06-17_14-49-16_260595134347_rgbf000100-resize_0/001133_2014-06-17_14-49-16_260595134347_rgbf000100-resize_0-target.png,250,4.2115,55,8215,249,meters,jsons/v1_VE250_randls_22_rotated.json,1499877,1926045,57,Woman
12,728200,DepthScenes,duration_manipulation_targetAtFixation,jsons/v1_VE250_randls_22_rotated.json,http://54.235.29.9/FacialAge/BNav_EC2/DepthDuration/v2_depth_duration_MTurk/v2_DepthDuration_HTML.html#63,63,1024,625,1024,768,8-29-2022,14-34-25,13,depth_duration_stimuli/001100_2014-06-15_17-46-26_260595134347_rgbf000225-resize_2/001100_2014-06-15_17-46-26_260595134347_rgbf000225-resize_2-target.png,250,2.24,65,6598,251,meters,jsons/v1_VE250_randls_22_rotated.json,1499877,1926045,57,Woman
13,728200,DepthScenes,duration_manipulation_targetAtFixation,jsons/v1_VE250_randls_22_rotated.json,http://54.235.29.9/FacialAge/BNav_EC2/DepthDuration/v2_depth_duration_MTurk/v2_DepthDuration_HTML.html#63,63,1024,625,1024,768,8-29-2022,14-34-25,14,depth_duration_stimuli/002784_2014-06-22_19-26-30_094959634447_rgbf000083-resize_3/002784_2014-06-22_19-26-30_094959634447_rgbf000083-resize_3-target.png,250,1.8046666666667,60,21886,249,meters,jsons/v1_VE250_randls_22_rotated.json,1499877,1926045,57,Woman
14,728200,DepthScenes,duration_manipulation_targetAtFixation,jsons/v1_VE250_randls_22_rotated.json,http://54.235.29.9/FacialAge/BNav_EC2/DepthDuration/v2_depth_duration_MTurk/v2_DepthDuration_HTML.html#63,63,1024,625,1024,768,8-29-2022,14-34-25,15,depth_duration_stimuli/000927_2014-06-09_16-32-30_260595134347_rgbf000123-resize_3/000927_2014-06-09_16-32-30_260595134347_rgbf000123-resize_3-target.png,250,2.6785,35,9055,250,meters,jsons/v1_VE250_randls_22_rotated.json,1499877,1926045,57,Woman
15,728200,DepthScenes,duration_manipulation_targetAtFixation,jsons/v1_VE250_randls_22_rotated.json,http://54.235.29.9/FacialAge/BNav_EC2/DepthDuration/v2_depth_duration_MTurk/v2_DepthDuration_HTML.html#63,63,1024,625,1024,768,8-29-2022,14-34-25,16,depth_duration_stimuli/001110_2014-06-15_17-25-28_260595134347_rgbf000150-resize_1/001110_2014-06-15_17-25-28_260595134347_rgbf000150-resize_1-target.png,250,1.7115,50,9679,247,meters,jsons/v1_VE250_randls_22_rotated.json,1499877,1926045,57,Woman
16,728200,DepthScenes,duration_manipulation_targetAtFixation,jsons/v1_VE250_randls_22_rotated.json,http://54.235.29.9/FacialAge/BNav_EC2/DepthDuration/v2_depth_duration_MTurk/v2_DepthDuration_HTML.html#63,63,1024,625,1024,768,8-29-2022,14-34-25,17,depth_duration_stimuli/001052_2014-06-08_18-24-54_260595134347_rgbf000130-resize_1/001052_2014-06-08_18-24-54_260595134347_rgbf000130-resize_1-target.png,250,4.1045,85,11589,250,meters,jsons/v1_VE250_randls_22_rotated.json,1499877,1926045,57,Woman
17,728200,DepthScenes,duration_manipulation_targetAtFixation,jsons/v1_VE250_randls_22_rotated.json,http://54.235.29.9/FacialAge/BNav_EC2/DepthDuration/v2_depth_duration_MTurk/v2_DepthDuration_HTML.html#63,63,1024,625,1024,768,8-29-2022,14-34-25,18,depth_duration_stimuli/002988_2014-06-15_12-24-20_094959634447_rgbf000150-resize_1/002988_2014-06-15_12-24-20_094959634447_rgbf000150-resize_1-target.png,250,4.7669999999999995,65,8602,251,meters,jsons/v1_VE250_randls_22_rotated.json,1499877,1926045,57,Woman
18,728200,DepthScenes,duration_manipulation_targetAtFixation,jsons/v1_VE250_randls_22_rotated.json,http://54.235.29.9/FacialAge/BNav_EC2/DepthDuration/v2_depth_duration_MTurk/v2_DepthDuration_HTML.html#63,63,1024,625,1024,768,8-29-2022,14-34-25,19,depth_duration_stimuli/001498_2014-06-19_17-45-14_260595134347_rgbf000129-resize_4/001498_2014-06-19_17-45-14_260595134347_rgbf000129-resize-original.jpg,250,1.4075,55,13546,250,meters,jsons/v1_VE250_randls_22_rotated.json,1499877,1926045,57,Woman
19,728200,DepthScenes,duration_manipulation_targetAtFixation,jsons/v1_VE250_randls_22_rotated.json,http://54.235.29.9/FacialAge/BNav_EC2/DepthDuration/v2_depth_duration_MTurk/v2_DepthDuration_HTML.html#63,63,1024,625,1024,768,8-29-2022,14-34-25,20,depth_duration_stimuli/001650_2014-06-20_12-09-00_260595134347_rgbf000087-resize_3/001650_2014-06-20_12-09-00_260595134347_rgbf000087-resize_3-target.png,250,1.9505,65,10472,248,meters,jsons/v1_VE250_randls_22_rotated.json,1499877,1926045,57,Woman
20,728200,DepthScenes,duration_manipulation_targetAtFixation,jsons/v1_VE250_randls_22_rotated.json,http://54.235.29.9/FacialAge/BNav_EC2/DepthDuration/v2_depth_duration_MTurk/v2_DepthDuration_HTML.html#63,63,1024,625,1024,768,8-29-2022,14-34-25,21,depth_duration_stimuli/000682_2014-06-08_23-14-58_260595134347_rgbf000041-resize_5/000682_2014-06-08_23-14-58_260595134347_rgbf000041-resize_5-target.png,250,2.7239999999999998,75,6820,233,meters,jsons/v1_VE250_randls_22_rotated.json,1499877,1926045,57,Woman
21,728200,DepthScenes,duration_manipulation_targetAtFixation,jsons/v1_VE250_randls_22_rotated.json,http://54.235.29.9/FacialAge/BNav_EC2/DepthDuration/v2_depth_duration_MTurk/v2_DepthDuration_HTML.html#63,63,1024,625,1024,768,8-29-2022,14-34-25,22,depth_duration_stimuli/000742_2014-06-08_18-48-09_260595134347_rgbf000164-resize_4/000742_2014-06-08_18-48-09_260595134347_rgbf000164-resize_4-target.png,250,4.632,80,8543,278,meters,jsons/v1_VE250_randls_22_rotated.json,1499877,1926045,57,Woman
22,728200,DepthScenes,duration_manipulation_targetAtFixation,jsons/v1_VE250_randls_22_rotated.json,http://54.235.29.9/FacialAge/BNav_EC2/DepthDuration/v2_depth_duration_MTurk/v2_DepthDuration_HTML.html#63,63,1024,625,1024,768,8-29-2022,14-34-25,23,depth_duration_stimuli/001066_2014-06-08_22-03-20_260595134347_rgbf000066-resize_4/001066_2014-06-08_22-03-20_260595134347_rgbf000066-resize_4-target.png,250,4.2330000000000005,75,6860,238,meters,jsons/v1_VE250_randls_22_rotated.json,1499877,1926045,57,Woman
23,728200,DepthScenes,duration_manipulation_targetAtFixation,jsons/v1_VE250_randls_22_rotated.json,http://54.235.29.9/FacialAge/BNav_EC2/DepthDuration/v2_depth_duration_MTurk/v2_DepthDuration_HTML.html#63,63,1024,625,1024,768,8-29-2022,14-34-25,24,depth_duration_stimuli/000549_2014-06-08_22-10-24_260595134347_rgbf000247-resize_3/000549_2014-06-08_22-10-24_260595134347_rgbf000247-resize_3-target.png,250,1.841,60,10517,245,meters,jsons/v1_VE250_randls_22_rotated.json,1499877,1926045,57,Woman
24,728200,DepthScenes,duration_manipulation_targetAtFixation,jsons/v1_VE250_randls_22_rotated.json,http://54.235.29.9/FacialAge/BNav_EC2/DepthDuration/v2_depth_duration_MTurk/v2_DepthDuration_HTML.html#63,63,1024,625,1024,768,8-29-2022,14-34-25,25,depth_duration_stimuli/001055_2014-06-08_18-45-35_260595134347_rgbf000111-resize_4/001055_2014-06-08_18-45-35_260595134347_rgbf000111-resize_4-target.png,250,2.4290000000000003,55,7282,216,meters,jsons/v1_VE250_randls_22_rotated.json,1499877,1926045,57,Woman
25,728200,DepthScenes,duration_manipulation_targetAtFixation,jsons/v1_VE250_randls_22_rotated.json,http://54.235.29.9/FacialAge/BNav_EC2/DepthDuration/v2_depth_duration_MTurk/v2_DepthDuration_HTML.html#63,63,1024,625,1024,768,8-29-2022,14-34-25,26,depth_duration_stimuli/000734_2014-06-08_17-39-11_260595134347_rgbf000128-resize_2/000734_2014-06-08_17-39-11_260595134347_rgbf000128-resize_2-target.png,250,4.098,45,8003,234,meters,jsons/v1_VE250_randls_22_rotated.json,1499877,1926045,57,Woman
26,728200,DepthScenes,duration_manipulation_targetAtFixation,jsons/v1_VE250_randls_22_rotated.json,http://54.235.29.9/FacialAge/BNav_EC2/DepthDuration/v2_depth_duration_MTurk/v2_DepthDuration_HTML.html#63,63,1024,625,1024,768,8-29-2022,14-34-25,27,depth_duration_stimuli/000739_2014-06-08_18-45-58_260595134347_rgbf000068-resize_1/000739_2014-06-08_18-45-58_260595134347_rgbf000068-resize_1-target.png,250,3.534,60,6581,310,meters,jsons/v1_VE250_randls_22_rotated.json,1499877,1926045,57,Woman
27,728200,DepthScenes,duration_manipulation_targetAtFixation,jsons/v1_VE250_randls_22_rotated.json,http://54.235.29.9/FacialAge/BNav_EC2/DepthDuration/v2_depth_duration_MTurk/v2_DepthDuration_HTML.html#63,63,1024,625,1024,768,8-29-2022,14-34-25,28,depth_duration_stimuli/003010_2014-06-15_12-54-35_094959634447_rgbf000112-resize_0/003010_2014-06-15_12-54-35_094959634447_rgbf000112-resize_0-target.png,250,3.1185,70,15385,248,meters,jsons/v1_VE250_randls_22_rotated.json,1499877,1926045,57,Woman
28,728200,DepthScenes,duration_manipulation_targetAtFixation,jsons/v1_VE250_randls_22_rotated.json,http://54.235.29.9/FacialAge/BNav_EC2/DepthDuration/v2_depth_duration_MTurk/v2_DepthDuration_HTML.html#63,63,1024,625,1024,768,8-29-2022,14-34-25,29,depth_duration_stimuli/001810_2014-06-26_20-51-35_260595134347_rgbf000040-resize_3/001810_2014-06-26_20-51-35_260595134347_rgbf000040-resize_3-target.png,250,2.2525,65,6792,251,meters,jsons/v1_VE250_randls_22_rotated.json,1499877,1926045,57,Woman
29,728200,DepthScenes,duration_manipulation_targetAtFixation,jsons/v1_VE250_randls_22_rotated.json,http://54.235.29.9/FacialAge/BNav_EC2/DepthDuration/v2_depth_duration_MTurk/v2_DepthDuration_HTML.html#63,63,1024,625,1024,768,8-29-2022,14-34-25,30,depth_duration_stimuli/002072_2014-06-24_21-48-06_260595134347_rgbf000115-resize_0/002072_2014-06-24_21-48-06_260595134347_rgbf000115-resize-original.jpg,250,4.702,50,9223,249,meters,jsons/v1_VE250_randls_22_rotated.json,1499877,1926045,57,Woman
30,728200,DepthScenes,duration_manipulation_targetAtFixation,jsons/v1_VE250_randls_22_rotated.json,http://54.235.29.9/FacialAge/BNav_EC2/DepthDuration/v2_depth_duration_MTurk/v2_DepthDuration_HTML.html#63,63,1024,625,1024,768,8-29-2022,14-34-25,31,depth_duration_stimuli/002340_2014-06-28_20-05-46_260595134347_rgbf000113-resize_0/002340_2014-06-28_20-05-46_260595134347_rgbf000113-resize_0-target.png,250,2.4735,55,8558,262,meters,jsons/v1_VE250_randls_22_rotated.json,1499877,1926045,57,Woman
31,728200,DepthScenes,duration_manipulation_targetAtFixation,jsons/v1_VE250_randls_22_rotated.json,http://54.235.29.9/FacialAge/BNav_EC2/DepthDuration/v2_depth_duration_MTurk/v2_DepthDuration_HTML.html#63,63,1024,625,1024,768,8-29-2022,14-34-25,32,depth_duration_stimuli/001016_2014-06-09_16-16-10_260595134347_rgbf000112-resize_5/001016_2014-06-09_16-16-10_260595134347_rgbf000112-resize_5-target.png,250,1.6565,40,8587,248,meters,jsons/v1_VE250_randls_22_rotated.json,1499877,1926045,57,Woman
32,728200,DepthScenes,duration_manipulation_targetAtFixation,jsons/v1_VE250_randls_22_rotated.json,http://54.235.29.9/FacialAge/BNav_EC2/DepthDuration/v2_depth_duration_MTurk/v2_DepthDuration_HTML.html#63,63,1024,625,1024,768,8-29-2022,14-34-25,33,depth_duration_stimuli/002209_2014-06-28_18-36-10_260595134347_rgbf000051-resize_1/002209_2014-06-28_18-36-10_260595134347_rgbf000051-resize_1-target.png,250,2.057,53,15668,248,meters,jsons/v1_VE250_randls_22_rotated.json,1499877,1926045,57,Woman
33,728200,DepthScenes,duration_manipulation_targetAtFixation,jsons/v1_VE250_randls_22_rotated.json,http://54.235.29.9/FacialAge/BNav_EC2/DepthDuration/v2_depth_duration_MTurk/v2_DepthDuration_HTML.html#63,63,1024,625,1024,768,8-29-2022,14-34-25,34,depth_duration_stimuli/002763_2014-06-22_19-13-10_094959634447_rgbf000075-resize_4/002763_2014-06-22_19-13-10_094959634447_rgbf000075-resize_4-target.png,250,1.68375,50,13942,90,meters,jsons/v1_VE250_randls_22_rotated.json,1499877,1926045,57,Woman
34,728200,DepthScenes,duration_manipulation_targetAtFixation,jsons/v1_VE250_randls_22_rotated.json,http://54.235.29.9/FacialAge/BNav_EC2/DepthDuration/v2_depth_duration_MTurk/v2_DepthDuration_HTML.html#63,63,1024,625,1024,768,8-29-2022,14-34-25,35,depth_duration_stimuli/002199_2014-06-28_18-33-56_260595134347_rgbf000074-resize_0/002199_2014-06-28_18-33-56_260595134347_rgbf000074-resize_0-target.png,250,1.996,70,13073,228,meters,jsons/v1_VE250_randls_22_rotated.json,1499877,1926045,57,Woman
35,728200,DepthScenes,duration_manipulation_targetAtFixation,jsons/v1_VE250_randls_22_rotated.json,http://54.235.29.9/FacialAge/BNav_EC2/DepthDuration/v2_depth_duration_MTurk/v2_DepthDuration_HTML.html#63,63,1024,625,1024,768,8-29-2022,14-34-25,36,depth_duration_stimuli/001056_2014-06-08_18-46-44_260595134347_rgbf000068-resize_0/001056_2014-06-08_18-46-44_260595134347_rgbf000068-resize_0-target.png,250,2.6625,55,8807,249,meters,jsons/v1_VE250_randls_22_rotated.json,1499877,1926045,57,Woman
36,728200,DepthScenes,duration_manipulation_targetAtFixation,jsons/v1_VE250_randls_22_rotated.json,http://54.235.29.9/FacialAge/BNav_EC2/DepthDuration/v2_depth_duration_MTurk/v2_DepthDuration_HTML.html#63,63,1024,625,1024,768,8-29-2022,14-34-25,37,depth_duration_stimuli/003228_2014-05-14_13-42-35_094959634447_rgbf000101-resize_1/003228_2014-05-14_13-42-35_094959634447_rgbf000101-resize_1-target.png,250,1.9680000000000002,60,10345,250,meters,jsons/v1_VE250_randls_22_rotated.json,1499877,1926045,57,Woman
37,728200,DepthScenes,duration_manipulation_targetAtFixation,jsons/v1_VE250_randls_22_rotated.json,http://54.235.29.9/FacialAge/BNav_EC2/DepthDuration/v2_depth_duration_MTurk/v2_DepthDuration_HTML.html#63,63,1024,625,1024,768,8-29-2022,14-34-25,38,depth_duration_stimuli/002600_2014-06-24_14-27-04_094959634447_rgbf000074-resize_2/002600_2014-06-24_14-27-04_094959634447_rgbf000074-resize_2-target.png,250,2.7575,25,8451,249,meters,jsons/v1_VE250_randls_22_rotated.json,1499877,1926045,57,Woman
38,728200,DepthScenes,duration_manipulation_targetAtFixation,jsons/v1_VE250_randls_22_rotated.json,http://54.235.29.9/FacialAge/BNav_EC2/DepthDuration/v2_depth_duration_MTurk/v2_DepthDuration_HTML.html#63,63,1024,625,1024,768,8-29-2022,14-34-25,39,depth_duration_stimuli/000137_2014-05-20_17-04-49_260595134347_rgbf000120-resize_1/000137_2014-05-20_17-04-49_260595134347_rgbf000120-resize_1-target.png,250,3.786,56,10093,265,meters,jsons/v1_VE250_randls_22_rotated.json,1499877,1926045,57,Woman
39,728200,DepthScenes,duration_manipulation_targetAtFixation,jsons/v1_VE250_randls_22_rotated.json,http://54.235.29.9/FacialAge/BNav_EC2/DepthDuration/v2_depth_duration_MTurk/v2_DepthDuration_HTML.html#63,63,1024,625,1024,768,8-29-2022,14-34-25,40,depth_duration_stimuli/000736_2014-06-08_18-24-15_260595134347_rgbf000206-resize_3/000736_2014-06-08_18-24-15_260595134347_rgbf000206-resize_3-target.png,250,3.515,70,5952,247,meters,jsons/v1_VE250_randls_22_rotated.json,1499877,1926045,57,Woman
40,728200,DepthScenes,duration_manipulation_targetAtFixation,jsons/v1_VE250_randls_22_rotated.json,http://54.235.29.9/FacialAge/BNav_EC2/DepthDuration/v2_depth_duration_MTurk/v2_DepthDuration_HTML.html#63,63,1024,625,1024,768,8-29-2022,14-34-25,41,depth_duration_stimuli/000103_2014-05-14_22-01-17_260595134347_rgbf000152-resize_5/000103_2014-05-14_22-01-17_260595134347_rgbf000152-resize_5-target.png,250,1.993,55,13300,249,meters,jsons/v1_VE250_randls_22_rotated.json,1499877,1926045,57,Woman
41,728200,DepthScenes,duration_manipulation_targetAtFixation,jsons/v1_VE250_randls_22_rotated.json,http://54.235.29.9/FacialAge/BNav_EC2/DepthDuration/v2_depth_duration_MTurk/v2_DepthDuration_HTML.html#63,63,1024,625,1024,768,8-29-2022,14-34-25,42,depth_duration_stimuli/001555_2014-06-20_17-12-10_260595134347_rgbf000065-resize_4/001555_2014-06-20_17-12-10_260595134347_rgbf000065-resize_4-target.png,250,1.633,35,6904,189,meters,jsons/v1_VE250_randls_22_rotated.json,1499877,1926045,57,Woman
42,728200,DepthScenes,duration_manipulation_targetAtFixation,jsons/v1_VE250_randls_22_rotated.json,http://54.235.29.9/FacialAge/BNav_EC2/DepthDuration/v2_depth_duration_MTurk/v2_DepthDuration_HTML.html#63,63,1024,625,1024,768,8-29-2022,14-34-25,43,depth_duration_stimuli/003081_2014-06-15_15-19-16_094959634447_rgbf000150-resize_1/003081_2014-06-15_15-19-16_094959634447_rgbf000150-resize_1-target.png,250,3.9125,40,10837,250,meters,jsons/v1_VE250_randls_22_rotated.json,1499877,1926045,57,Woman
43,728200,DepthScenes,duration_manipulation_targetAtFixation,jsons/v1_VE250_randls_22_rotated.json,http://54.235.29.9/FacialAge/BNav_EC2/DepthDuration/v2_depth_duration_MTurk/v2_DepthDuration_HTML.html#63,63,1024,625,1024,768,8-29-2022,14-34-25,44,depth_duration_stimuli/001417_2014-06-19_16-25-36_260595134347_rgbf000115-resize_5/001417_2014-06-19_16-25-36_260595134347_rgbf000115-resize_5-target.png,250,4.6255,45,5924,251,meters,jsons/v1_VE250_randls_22_rotated.json,1499877,1926045,57,Woman
44,728200,DepthScenes,duration_manipulation_targetAtFixation,jsons/v1_VE250_randls_22_rotated.json,http://54.235.29.9/FacialAge/BNav_EC2/DepthDuration/v2_depth_duration_MTurk/v2_DepthDuration_HTML.html#63,63,1024,625,1024,768,8-29-2022,14-34-25,45,depth_duration_stimuli/000665_2014-06-09_20-42-35_260595134347_rgbf000110-resize_1/000665_2014-06-09_20-42-35_260595134347_rgbf000110-resize_1-target.png,250,3.057,40,8559,248,meters,jsons/v1_VE250_randls_22_rotated.json,1499877,1926045,57,Woman
45,728200,DepthScenes,duration_manipulation_targetAtFixation,jsons/v1_VE250_randls_22_rotated.json,http://54.235.29.9/FacialAge/BNav_EC2/DepthDuration/v2_depth_duration_MTurk/v2_DepthDuration_HTML.html#63,63,1024,625,1024,768,8-29-2022,14-34-25,46,depth_duration_stimuli/001150_2014-06-17_15-27-34_260595134347_rgbf000108-resize_2/001150_2014-06-17_15-27-34_260595134347_rgbf000108-resize_2-target.png,250,4.0325,25,5086,248,meters,jsons/v1_VE250_randls_22_rotated.json,1499877,1926045,57,Woman
46,728200,DepthScenes,duration_manipulation_targetAtFixation,jsons/v1_VE250_randls_22_rotated.json,http://54.235.29.9/FacialAge/BNav_EC2/DepthDuration/v2_depth_duration_MTurk/v2_DepthDuration_HTML.html#63,63,1024,625,1024,768,8-29-2022,14-34-25,47,depth_duration_stimuli/000854_2014-06-09_19-43-13_260595134347_rgbf000066-resize_0/000854_2014-06-09_19-43-13_260595134347_rgbf000066-resize_0-target.png,250,3.068,55,12294,249,meters,jsons/v1_VE250_randls_22_rotated.json,1499877,1926045,57,Woman
47,728200,DepthScenes,duration_manipulation_targetAtFixation,jsons/v1_VE250_randls_22_rotated.json,http://54.235.29.9/FacialAge/BNav_EC2/DepthDuration/v2_depth_duration_MTurk/v2_DepthDuration_HTML.html#63,63,1024,625,1024,768,8-29-2022,14-34-25,48,depth_duration_stimuli/000758_2014-06-08_22-05-08_260595134347_rgbf000085-resize_0/000758_2014-06-08_22-05-08_260595134347_rgbf000085-resize_0-target.png,250,3.3810000000000002,35,8457,282,meters,jsons/v1_VE250_randls_22_rotated.json,1499877,1926045,57,Woman
48,728200,DepthScenes,duration_manipulation_targetAtFixation,jsons/v1_VE250_randls_22_rotated.json,http://54.235.29.9/FacialAge/BNav_EC2/DepthDuration/v2_depth_duration_MTurk/v2_DepthDuration_HTML.html#63,63,1024,625,1024,768,8-29-2022,14-34-25,49,depth_duration_stimuli/001170_2014-06-17_15-43-44_260595134347_rgbf000096-resize_6/001170_2014-06-17_15-43-44_260595134347_rgbf000096-resize-original.jpg,250,1.1909999999999998,50,6512,248,meters,jsons/v1_VE250_randls_22_rotated.json,1499877,1926045,57,Woman
49,728200,DepthScenes,duration_manipulation_targetAtFixation,jsons/v1_VE250_randls_22_rotated.json,http://54.235.29.9/FacialAge/BNav_EC2/DepthDuration/v2_depth_duration_MTurk/v2_DepthDuration_HTML.html#63,63,1024,625,1024,768,8-29-2022,14-34-25,50,depth_duration_stimuli/001516_2014-06-20_16-25-09_260595134347_rgbf000076-resize_2/001516_2014-06-20_16-25-09_260595134347_rgbf000076-resize_2-target.png,250,1.7445,40,5774,203,meters,jsons/v1_VE250_randls_22_rotated.json,1499877,1926045,57,Woman
50,728200,DepthScenes,duration_manipulation_targetAtFixation,jsons/v1_VE250_randls_22_rotated.json,http://54.235.29.9/FacialAge/BNav_EC2/DepthDuration/v2_depth_duration_MTurk/v2_DepthDuration_HTML.html#63,63,1024,625,1024,768,8-29-2022,14-34-25,51,depth_duration_stimuli/002118_2014-06-25_20-32-08_260595134347_rgbf000078-resize_1/002118_2014-06-25_20-32-08_260595134347_rgbf000078-resize_1-target.png,250,2.6460000000000004,42,5414,248,meters,jsons/v1_VE250_randls_22_rotated.json,1499877,1926045,57,Woman
51,728200,DepthScenes,duration_manipulation_targetAtFixation,jsons/v1_VE250_randls_22_rotated.json,http://54.235.29.9/FacialAge/BNav_EC2/DepthDuration/v2_depth_duration_MTurk/v2_DepthDuration_HTML.html#63,63,1024,625,1024,768,8-29-2022,14-34-25,52,depth_duration_stimuli/002995_2014-06-15_12-31-26_094959634447_rgbf000150-resize_1/002995_2014-06-15_12-31-26_094959634447_rgbf000150-resize_1-target.png,250,3.8360000000000003,35,6890,249,meters,jsons/v1_VE250_randls_22_rotated.json,1499877,1926045,57,Woman
52,728200,DepthScenes,duration_manipulation_targetAtFixation,jsons/v1_VE250_randls_22_rotated.json,http://54.235.29.9/FacialAge/BNav_EC2/DepthDuration/v2_depth_duration_MTurk/v2_DepthDuration_HTML.html#63,63,1024,625,1024,768,8-29-2022,14-34-25,53,depth_duration_stimuli/002748_2014-06-22_19-07-22_094959634447_rgbf000078-resize_1/002748_2014-06-22_19-07-22_094959634447_rgbf000078-resize_1-target.png,250,4.6705,25,13651,305,meters,jsons/v1_VE250_randls_22_rotated.json,1499877,1926045,57,Woman
53,728200,DepthScenes,duration_manipulation_targetAtFixation,jsons/v1_VE250_randls_22_rotated.json,http://54.235.29.9/FacialAge/BNav_EC2/DepthDuration/v2_depth_duration_MTurk/v2_DepthDuration_HTML.html#63,63,1024,625,1024,768,8-29-2022,14-34-25,54,depth_duration_stimuli/003048_2014-06-15_13-49-43_094959634447_rgbf000150-resize_1/003048_2014-06-15_13-49-43_094959634447_rgbf000150-resize_1-target.png,250,4.0035,15,7664,250,meters,jsons/v1_VE250_randls_22_rotated.json,1499877,1926045,57,Woman
54,728200,DepthScenes,duration_manipulation_targetAtFixation,jsons/v1_VE250_randls_22_rotated.json,http://54.235.29.9/FacialAge/BNav_EC2/DepthDuration/v2_depth_duration_MTurk/v2_DepthDuration_HTML.html#63,63,1024,625,1024,768,8-29-2022,14-34-25,55,depth_duration_stimuli/002043_2014-06-24_20-29-38_260595134347_rgbf000039-resize_4/002043_2014-06-24_20-29-38_260595134347_rgbf000039-resize_4-target.png,250,2.8435,35,7211,222,meters,jsons/v1_VE250_randls_22_rotated.json,1499877,1926045,57,Woman
55,728200,DepthScenes,duration_manipulation_targetAtFixation,jsons/v1_VE250_randls_22_rotated.json,http://54.235.29.9/FacialAge/BNav_EC2/DepthDuration/v2_depth_duration_MTurk/v2_DepthDuration_HTML.html#63,63,1024,625,1024,768,8-29-2022,14-34-25,56,depth_duration_stimuli/000943_2014-06-09_19-31-07_260595134347_rgbf000128-resize_1/000943_2014-06-09_19-31-07_260595134347_rgbf000128-resize_1-target.png,250,1.9765,27,11191,249,meters,jsons/v1_VE250_randls_22_rotated.json,1499877,1926045,57,Woman
56,728200,DepthScenes,duration_manipulation_targetAtFixation,jsons/v1_VE250_randls_22_rotated.json,http://54.235.29.9/FacialAge/BNav_EC2/DepthDuration/v2_depth_duration_MTurk/v2_DepthDuration_HTML.html#63,63,1024,625,1024,768,8-29-2022,14-34-25,57,depth_duration_stimuli/003070_2014-06-15_14-58-27_094959634447_rgbf000150-resize_3/003070_2014-06-15_14-58-27_094959634447_rgbf000150-resize_3-target.png,250,2.9415,45,4849,256,meters,jsons/v1_VE250_randls_22_rotated.json,1499877,1926045,57,Woman
57,728200,DepthScenes,duration_manipulation_targetAtFixation,jsons/v1_VE250_randls_22_rotated.json,http://54.235.29.9/FacialAge/BNav_EC2/DepthDuration/v2_depth_duration_MTurk/v2_DepthDuration_HTML.html#63,63,1024,625,1024,768,8-29-2022,14-34-25,58,depth_duration_stimuli/003490_2014-05-21_15-50-11_094959634447_rgbf000101-resize_3/003490_2014-05-21_15-50-11_094959634447_rgbf000101-resize_3-target.png,250,3.6445,35,12380,249,meters,jsons/v1_VE250_randls_22_rotated.json,1499877,1926045,57,Woman
58,728200,DepthScenes,duration_manipulation_targetAtFixation,jsons/v1_VE250_randls_22_rotated.json,http://54.235.29.9/FacialAge/BNav_EC2/DepthDuration/v2_depth_duration_MTurk/v2_DepthDuration_HTML.html#63,63,1024,625,1024,768,8-29-2022,14-34-25,59,depth_duration_stimuli/001175_2014-06-17_15-45-55_260595134347_rgbf000129-resize_4/001175_2014-06-17_15-45-55_260595134347_rgbf000129-resize_4-target.png,250,4.255,60,9188,249,meters,jsons/v1_VE250_randls_22_rotated.json,1499877,1926045,57,Woman
59,728200,DepthScenes,duration_manipulation_targetAtFixation,jsons/v1_VE250_randls_22_rotated.json,http://54.235.29.9/FacialAge/BNav_EC2/DepthDuration/v2_depth_duration_MTurk/v2_DepthDuration_HTML.html#63,63,1024,625,1024,768,8-29-2022,14-34-25,60,depth_duration_stimuli/000191_2014-05-12_17-07-38_260595134347_rgbf000199-resize_0/000191_2014-05-12_17-07-38_260595134347_rgbf000199-resize_0-target.png,250,3.7995,55,8390,251,meters,jsons/v1_VE250_randls_22_rotated.json,1499877,1926045,57,Woman
60,728200,DepthScenes,duration_manipulation_targetAtFixation,jsons/v1_VE250_randls_22_rotated.json,http://54.235.29.9/FacialAge/BNav_EC2/DepthDuration/v2_depth_duration_MTurk/v2_DepthDuration_HTML.html#63,63,1024,625,1024,768,8-29-2022,14-34-25,61,depth_duration_stimuli/000493_2014-06-09_21-01-18_260595134347_rgbf000196-resize_3/000493_2014-06-09_21-01-18_260595134347_rgbf000196-resize_3-target.png,250,3.44,44,10983,321,meters,jsons/v1_VE250_randls_22_rotated.json,1499877,1926045,57,Woman
61,728200,DepthScenes,duration_manipulation_targetAtFixation,jsons/v1_VE250_randls_22_rotated.json,http://54.235.29.9/FacialAge/BNav_EC2/DepthDuration/v2_depth_duration_MTurk/v2_DepthDuration_HTML.html#63,63,1024,625,1024,768,8-29-2022,14-34-25,62,depth_duration_stimuli/001450_2014-06-19_17-02-03_260595134347_rgbf000203-resize_4/001450_2014-06-19_17-02-03_260595134347_rgbf000203-resize_4-target.png,250,4.0106666666667,25,6222,249,meters,jsons/v1_VE250_randls_22_rotated.json,1499877,1926045,57,Woman
62,728200,DepthScenes,duration_manipulation_targetAtFixation,jsons/v1_VE250_randls_22_rotated.json,http://54.235.29.9/FacialAge/BNav_EC2/DepthDuration/v2_depth_duration_MTurk/v2_DepthDuration_HTML.html#63,63,1024,625,1024,768,8-29-2022,14-34-25,63,depth_duration_stimuli/001449_2014-06-19_17-01-27_260595134347_rgbf000116-resize_2/001449_2014-06-19_17-01-27_260595134347_rgbf000116-resize_2-target.png,250,3.452,50,7230,249,meters,jsons/v1_VE250_randls_22_rotated.json,1499877,1926045,57,Woman
63,728200,DepthScenes,duration_manipulation_targetAtFixation,jsons/v1_VE250_randls_22_rotated.json,http://54.235.29.9/FacialAge/BNav_EC2/DepthDuration/v2_depth_duration_MTurk/v2_DepthDuration_HTML.html#63,63,1024,625,1024,768,8-29-2022,14-34-25,64,depth_duration_stimuli/001032_2014-06-08_13-23-17_260595134347_rgbf000021-resize_3/001032_2014-06-08_13-23-17_260595134347_rgbf000021-resize_3-target.png,250,3.2725,25,7305,249,meters,jsons/v1_VE250_randls_22_rotated.json,1499877,1926045,57,Woman
64,728200,DepthScenes,duration_manipulation_targetAtFixation,jsons/v1_VE250_randls_22_rotated.json,http://54.235.29.9/FacialAge/BNav_EC2/DepthDuration/v2_depth_duration_MTurk/v2_DepthDuration_HTML.html#63,63,1024,625,1024,768,8-29-2022,14-34-25,65,depth_duration_stimuli/001059_2014-06-08_21-53-27_260595134347_rgbf000061-resize_4/001059_2014-06-08_21-53-27_260595134347_rgbf000061-resize_4-target.png,250,2.4185,35,7125,249,meters,jsons/v1_VE250_randls_22_rotated.json,1499877,1926045,57,Woman
65,728200,DepthScenes,duration_manipulation_targetAtFixation,jsons/v1_VE250_randls_22_rotated.json,http://54.235.29.9/FacialAge/BNav_EC2/DepthDuration/v2_depth_duration_MTurk/v2_DepthDuration_HTML.html#63,63,1024,625,1024,768,8-29-2022,14-34-25,66,depth_duration_stimuli/001540_2014-06-20_17-01-05_260595134347_rgbf000086-resize_2/001540_2014-06-20_17-01-05_260595134347_rgbf000086-resize-original.jpg,250,1.459,30,10588,249,meters,jsons/v1_VE250_randls_22_rotated.json,1499877,1926045,57,Woman
66,728200,DepthScenes,duration_manipulation_targetAtFixation,jsons/v1_VE250_randls_22_rotated.json,http://54.235.29.9/FacialAge/BNav_EC2/DepthDuration/v2_depth_duration_MTurk/v2_DepthDuration_HTML.html#63,63,1024,625,1024,768,8-29-2022,14-34-25,67,depth_duration_stimuli/002103_2014-06-25_20-00-40_260595134347_rgbf000049-resize_0/002103_2014-06-25_20-00-40_260595134347_rgbf000049-resize_0-target.png,250,4.105,30,9565,169,meters,jsons/v1_VE250_randls_22_rotated.json,1499877,1926045,57,Woman
67,728200,DepthScenes,duration_manipulation_targetAtFixation,jsons/v1_VE250_randls_22_rotated.json,http://54.235.29.9/FacialAge/BNav_EC2/DepthDuration/v2_depth_duration_MTurk/v2_DepthDuration_HTML.html#63,63,1024,625,1024,768,8-29-2022,14-34-25,68,depth_duration_stimuli/002039_2014-06-24_20-22-38_260595134347_rgbf000084-resize_1/002039_2014-06-24_20-22-38_260595134347_rgbf000084-resize_1-target.png,250,4.408,60,10321,264,meters,jsons/v1_VE250_randls_22_rotated.json,1499877,1926045,57,Woman
68,728200,DepthScenes,duration_manipulation_targetAtFixation,jsons/v1_VE250_randls_22_rotated.json,http://54.235.29.9/FacialAge/BNav_EC2/DepthDuration/v2_depth_duration_MTurk/v2_DepthDuration_HTML.html#63,63,1024,625,1024,768,8-29-2022,14-34-25,69,depth_duration_stimuli/001392_2014-06-19_16-07-59_260595134347_rgbf000046-resize_1/001392_2014-06-19_16-07-59_260595134347_rgbf000046-resize_1-target.png,250,4.135,35,7678,251,meters,jsons/v1_VE250_randls_22_rotated.json,1499877,1926045,57,Woman
69,728200,DepthScenes,duration_manipulation_targetAtFixation,jsons/v1_VE250_randls_22_rotated.json,http://54.235.29.9/FacialAge/BNav_EC2/DepthDuration/v2_depth_duration_MTurk/v2_DepthDuration_HTML.html#63,63,1024,625,1024,768,8-29-2022,14-34-25,70,depth_duration_stimuli/001570_2014-06-20_17-21-09_260595134347_rgbf000135-resize_4/001570_2014-06-20_17-21-09_260595134347_rgbf000135-resize_4-target.png,250,4.467,30,4876,248,meters,jsons/v1_VE250_randls_22_rotated.json,1499877,1926045,57,Woman
70,728200,DepthScenes,duration_manipulation_targetAtFixation,jsons/v1_VE250_randls_22_rotated.json,http://54.235.29.9/FacialAge/BNav_EC2/DepthDuration/v2_depth_duration_MTurk/v2_DepthDuration_HTML.html#63,63,1024,625,1024,768,8-29-2022,14-34-25,71,depth_duration_stimuli/002136_2014-06-25_21-18-03_260595134347_rgbf000109-resize_3/002136_2014-06-25_21-18-03_260595134347_rgbf000109-resize_3-target.png,250,1.9569999999999999,35,8121,161,meters,jsons/v1_VE250_randls_22_rotated.json,1499877,1926045,57,Woman
71,728200,DepthScenes,duration_manipulation_targetAtFixation,jsons/v1_VE250_randls_22_rotated.json,http://54.235.29.9/FacialAge/BNav_EC2/DepthDuration/v2_depth_duration_MTurk/v2_DepthDuration_HTML.html#63,63,1024,625,1024,768,8-29-2022,14-34-25,72,depth_duration_stimuli/002964_2014-06-08_17-46-11_094959634447_rgbf000091-resize_4/002964_2014-06-08_17-46-11_094959634447_rgbf000091-resize_4-target.png,250,1.6909999999999998,20,6150,249,meters,jsons/v1_VE250_randls_22_rotated.json,1499877,1926045,57,Woman
72,728200,DepthScenes,duration_manipulation_targetAtFixation,jsons/v1_VE250_randls_22_rotated.json,http://54.235.29.9/FacialAge/BNav_EC2/DepthDuration/v2_depth_duration_MTurk/v2_DepthDuration_HTML.html#63,63,1024,625,1024,768,8-29-2022,14-34-25,73,depth_duration_stimuli/000677_2014-06-08_23-10-32_260595134347_rgbf000158-resize_6/000677_2014-06-08_23-10-32_260595134347_rgbf000158-resize_6-target.png,250,3.556,80,8198,248,meters,jsons/v1_VE250_randls_22_rotated.json,1499877,1926045,57,Woman
73,728200,DepthScenes,duration_manipulation_targetAtFixation,jsons/v1_VE250_randls_22_rotated.json,http://54.235.29.9/FacialAge/BNav_EC2/DepthDuration/v2_depth_duration_MTurk/v2_DepthDuration_HTML.html#63,63,1024,625,1024,768,8-29-2022,14-34-25,74,depth_duration_stimuli/001029_2014-06-08_13-17-57_260595134347_rgbf000065-resize_1/001029_2014-06-08_13-17-57_260595134347_rgbf000065-resize_1-target.png,250,3.0835,67,8631,250,meters,jsons/v1_VE250_randls_22_rotated.json,1499877,1926045,57,Woman
74,728200,DepthScenes,duration_manipulation_targetAtFixation,jsons/v1_VE250_randls_22_rotated.json,http://54.235.29.9/FacialAge/BNav_EC2/DepthDuration/v2_depth_duration_MTurk/v2_DepthDuration_HTML.html#63,63,1024,625,1024,768,8-29-2022,14-34-25,75,depth_duration_stimuli/003587_2014-05-23_16-48-02_094959634447_rgbf002384-resize_2/003587_2014-05-23_16-48-02_094959634447_rgbf002384-resize_2-target.png,250,1.357,20,8412,248,meters,jsons/v1_VE250_randls_22_rotated.json,1499877,1926045,57,Woman
75,728200,DepthScenes,duration_manipulation_targetAtFixation,jsons/v1_VE250_randls_22_rotated.json,http://54.235.29.9/FacialAge/BNav_EC2/DepthDuration/v2_depth_duration_MTurk/v2_DepthDuration_HTML.html#63,63,1024,625,1024,768,8-29-2022,14-34-25,76,depth_duration_stimuli/001167_2014-06-17_15-38-07_260595134347_rgbf000108-resize_0/001167_2014-06-17_15-38-07_260595134347_rgbf000108-resize_0-target.png,250,1.8505,30,6995,253,meters,jsons/v1_VE250_randls_22_rotated.json,1499877,1926045,57,Woman
76,728200,DepthScenes,duration_manipulation_targetAtFixation,jsons/v1_VE250_randls_22_rotated.json,http://54.235.29.9/FacialAge/BNav_EC2/DepthDuration/v2_depth_duration_MTurk/v2_DepthDuration_HTML.html#63,63,1024,625,1024,768,8-29-2022,14-34-25,77,depth_duration_stimuli/000866_2014-06-09_20-45-42_260595134347_rgbf000139-resize_1/000866_2014-06-09_20-45-42_260595134347_rgbf000139-resize_1-target.png,250,3.2155,38,9405,248,meters,jsons/v1_VE250_randls_22_rotated.json,1499877,1926045,57,Woman
77,728200,DepthScenes,duration_manipulation_targetAtFixation,jsons/v1_VE250_randls_22_rotated.json,http://54.235.29.9/FacialAge/BNav_EC2/DepthDuration/v2_depth_duration_MTurk/v2_DepthDuration_HTML.html#63,63,1024,625,1024,768,8-29-2022,14-34-25,78,depth_duration_stimuli/002989_2014-06-15_12-25-03_094959634447_rgbf000150-resize_3/002989_2014-06-15_12-25-03_094959634447_rgbf000150-resize_3-target.png,250,4.1975,25,6765,279,meters,jsons/v1_VE250_randls_22_rotated.json,1499877,1926045,57,Woman
78,728200,DepthScenes,duration_manipulation_targetAtFixation,jsons/v1_VE250_randls_22_rotated.json,http://54.235.29.9/FacialAge/BNav_EC2/DepthDuration/v2_depth_duration_MTurk/v2_DepthDuration_HTML.html#63,63,1024,625,1024,768,8-29-2022,14-34-25,79,depth_duration_stimuli/000409_2014-06-04_19-23-33_260595134347_rgbf000067-resize_0/000409_2014-06-04_19-23-33_260595134347_rgbf000067-resize_0-target.png,250,3.7335,47,10401,248,meters,jsons/v1_VE250_randls_22_rotated.json,1499877,1926045,57,Woman
79,728200,DepthScenes,duration_manipulation_targetAtFixation,jsons/v1_VE250_randls_22_rotated.json,http://54.235.29.9/FacialAge/BNav_EC2/DepthDuration/v2_depth_duration_MTurk/v2_DepthDuration_HTML.html#63,63,1024,625,1024,768,8-29-2022,14-34-25,80,depth_duration_stimuli/002663_2014-06-13_15-50-26_094959634447_rgbf000075-resize_1/002663_2014-06-13_15-50-26_094959634447_rgbf000075-resize_1-target.png,250,4.7495,20,16063,249,meters,jsons/v1_VE250_randls_22_rotated.json,1499877,1926045,57,Woman
80,728200,DepthScenes,duration_manipulation_targetAtFixation,jsons/v1_VE250_randls_22_rotated.json,http://54.235.29.9/FacialAge/BNav_EC2/DepthDuration/v2_depth_duration_MTurk/v2_DepthDuration_HTML.html#63,63,1024,625,1024,768,8-29-2022,14-34-25,81,depth_duration_stimuli/002953_2014-06-08_17-32-18_094959634447_rgbf000059-resize_5/002953_2014-06-08_17-32-18_094959634447_rgbf000059-resize_5-target.png,250,1.551,30,7579,237,meters,jsons/v1_VE250_randls_22_rotated.json,1499877,1926045,57,Woman
81,728200,DepthScenes,duration_manipulation_targetAtFixation,jsons/v1_VE250_randls_22_rotated.json,http://54.235.29.9/FacialAge/BNav_EC2/DepthDuration/v2_depth_duration_MTurk/v2_DepthDuration_HTML.html#63,63,1024,625,1024,768,8-29-2022,14-34-25,82,depth_duration_stimuli/000878_2014-06-08_22-52-45_260595134347_rgbf000045-resize_2/000878_2014-06-08_22-52-45_260595134347_rgbf000045-resize_2-target.png,250,2.092,25,9657,248,meters,jsons/v1_VE250_randls_22_rotated.json,1499877,1926045,57,Woman
82,728200,DepthScenes,duration_manipulation_targetAtFixation,jsons/v1_VE250_randls_22_rotated.json,http://54.235.29.9/FacialAge/BNav_EC2/DepthDuration/v2_depth_duration_MTurk/v2_DepthDuration_HTML.html#63,63,1024,625,1024,768,8-29-2022,14-34-25,83,depth_duration_stimuli/001094_2014-06-15_17-36-00_260595134347_rgbf000205-resize_0/001094_2014-06-15_17-36-00_260595134347_rgbf000205-resize_0-target.png,250,4.2175,75,8369,171,meters,jsons/v1_VE250_randls_22_rotated.json,1499877,1926045,57,Woman
83,728200,DepthScenes,duration_manipulation_targetAtFixation,jsons/v1_VE250_randls_22_rotated.json,http://54.235.29.9/FacialAge/BNav_EC2/DepthDuration/v2_depth_duration_MTurk/v2_DepthDuration_HTML.html#63,63,1024,625,1024,768,8-29-2022,14-34-25,84,depth_duration_stimuli/000692_2014-06-08_13-09-42_260595134347_rgbf000199-resize_2/000692_2014-06-08_13-09-42_260595134347_rgbf000199-resize_2-target.png,250,3.661,25,15765,182,meters,jsons/v1_VE250_randls_22_rotated.json,1499877,1926045,57,Woman
84,728200,DepthScenes,duration_manipulation_targetAtFixation,jsons/v1_VE250_randls_22_rotated.json,http://54.235.29.9/FacialAge/BNav_EC2/DepthDuration/v2_depth_duration_MTurk/v2_DepthDuration_HTML.html#63,63,1024,625,1024,768,8-29-2022,14-34-25,85,depth_duration_stimuli/001136_2014-06-17_15-19-41_260595134347_rgbf000076-resize_3/001136_2014-06-17_15-19-41_260595134347_rgbf000076-resize_3-target.png,250,1.8655,10,9218,263,meters,jsons/v1_VE250_randls_22_rotated.json,1499877,1926045,57,Woman
85,728200,DepthScenes,duration_manipulation_targetAtFixation,jsons/v1_VE250_randls_22_rotated.json,http://54.235.29.9/FacialAge/BNav_EC2/DepthDuration/v2_depth_duration_MTurk/v2_DepthDuration_HTML.html#63,63,1024,625,1024,768,8-29-2022,14-34-25,86,depth_duration_stimuli/001164_2014-06-17_15-35-46_260595134347_rgbf000085-resize_3/001164_2014-06-17_15-35-46_260595134347_rgbf000085-resize_3-target.png,250,2.354,28,4579,250,meters,jsons/v1_VE250_randls_22_rotated.json,1499877,1926045,57,Woman
86,728200,DepthScenes,duration_manipulation_targetAtFixation,jsons/v1_VE250_randls_22_rotated.json,http://54.235.29.9/FacialAge/BNav_EC2/DepthDuration/v2_depth_duration_MTurk/v2_DepthDuration_HTML.html#63,63,1024,625,1024,768,8-29-2022,14-34-25,87,depth_duration_stimuli/002657_2014-06-13_15-29-54_094959634447_rgbf000150-resize_1/002657_2014-06-13_15-29-54_094959634447_rgbf000150-resize_1-target.png,250,4.919,30,7218,248,meters,jsons/v1_VE250_randls_22_rotated.json,1499877,1926045,57,Woman
87,728200,DepthScenes,duration_manipulation_targetAtFixation,jsons/v1_VE250_randls_22_rotated.json,http://54.235.29.9/FacialAge/BNav_EC2/DepthDuration/v2_depth_duration_MTurk/v2_DepthDuration_HTML.html#63,63,1024,625,1024,768,8-29-2022,14-34-25,88,depth_duration_stimuli/002375_2014-06-28_20-13-44_260595134347_rgbf000032-resize_1/002375_2014-06-28_20-13-44_260595134347_rgbf000032-resize_1-target.png,250,4.0175,50,6475,249,meters,jsons/v1_VE250_randls_22_rotated.json,1499877,1926045,57,Woman
88,728200,DepthScenes,duration_manipulation_targetAtFixation,jsons/v1_VE250_randls_22_rotated.json,http://54.235.29.9/FacialAge/BNav_EC2/DepthDuration/v2_depth_duration_MTurk/v2_DepthDuration_HTML.html#63,63,1024,625,1024,768,8-29-2022,14-34-25,89,depth_duration_stimuli/002444_2014-06-28_20-32-08_260595134347_rgbf000027-resize_0/002444_2014-06-28_20-32-08_260595134347_rgbf000027-resize_0-target.png,250,4.388999999999999,45,8543,249,meters,jsons/v1_VE250_randls_22_rotated.json,1499877,1926045,57,Woman
89,728200,DepthScenes,duration_manipulation_targetAtFixation,jsons/v1_VE250_randls_22_rotated.json,http://54.235.29.9/FacialAge/BNav_EC2/DepthDuration/v2_depth_duration_MTurk/v2_DepthDuration_HTML.html#63,63,1024,625,1024,768,8-29-2022,14-34-25,90,depth_duration_stimuli/000436_2014-06-09_22-25-11_260595134347_rgbf000137-resize_1/000436_2014-06-09_22-25-11_260595134347_rgbf000137-resize_1-target.png,250,4.0705,20,4887,240,meters,jsons/v1_VE250_randls_22_rotated.json,1499877,1926045,57,Woman
90,728200,DepthScenes,duration_manipulation_targetAtFixation,jsons/v1_VE250_randls_22_rotated.json,http://54.235.29.9/FacialAge/BNav_EC2/DepthDuration/v2_depth_duration_MTurk/v2_DepthDuration_HTML.html#63,63,1024,625,1024,768,8-29-2022,14-34-25,91,depth_duration_stimuli/003079_2014-06-15_15-18-20_094959634447_rgbf000152-resize_8/003079_2014-06-15_15-18-20_094959634447_rgbf000152-resize_8-target.png,250,2.8775,57,9030,248,meters,jsons/v1_VE250_randls_22_rotated.json,1499877,1926045,57,Woman
91,728200,DepthScenes,duration_manipulation_targetAtFixation,jsons/v1_VE250_randls_22_rotated.json,http://54.235.29.9/FacialAge/BNav_EC2/DepthDuration/v2_depth_duration_MTurk/v2_DepthDuration_HTML.html#63,63,1024,625,1024,768,8-29-2022,14-34-25,92,depth_duration_stimuli/000506_2014-06-08_23-21-00_260595134347_rgbf000070-resize_7/000506_2014-06-08_23-21-00_260595134347_rgbf000070-resize_7-target.png,250,4.0585,35,6821,250,meters,jsons/v1_VE250_randls_22_rotated.json,1499877,1926045,57,Woman
92,728200,DepthScenes,duration_manipulation_targetAtFixation,jsons/v1_VE250_randls_22_rotated.json,http://54.235.29.9/FacialAge/BNav_EC2/DepthDuration/v2_depth_duration_MTurk/v2_DepthDuration_HTML.html#63,63,1024,625,1024,768,8-29-2022,14-34-25,93,depth_duration_stimuli/000502_2014-06-08_23-02-32_260595134347_rgbf000063-resize_4/000502_2014-06-08_23-02-32_260595134347_rgbf000063-resize_4-target.png,250,2.431,15,7342,217,meters,jsons/v1_VE250_randls_22_rotated.json,1499877,1926045,57,Woman
93,728200,DepthScenes,duration_manipulation_targetAtFixation,jsons/v1_VE250_randls_22_rotated.json,http://54.235.29.9/FacialAge/BNav_EC2/DepthDuration/v2_depth_duration_MTurk/v2_DepthDuration_HTML.html#63,63,1024,625,1024,768,8-29-2022,14-34-25,94,depth_duration_stimuli/001199_2014-06-17_16-03-48_260595134347_rgbf000077-resize_0/001199_2014-06-17_16-03-48_260595134347_rgbf000077-resize_0-target.png,250,3.4375,25,6337,265,meters,jsons/v1_VE250_randls_22_rotated.json,1499877,1926045,57,Woman
94,728200,DepthScenes,duration_manipulation_targetAtFixation,jsons/v1_VE250_randls_22_rotated.json,http://54.235.29.9/FacialAge/BNav_EC2/DepthDuration/v2_depth_duration_MTurk/v2_DepthDuration_HTML.html#63,63,1024,625,1024,768,8-29-2022,14-34-25,95,depth_duration_stimuli/000780_2014-06-08_22-28-29_260595134347_rgbf000126-resize_1/000780_2014-06-08_22-28-29_260595134347_rgbf000126-resize_1-target.png,250,3.3825,70,9325,248,meters,jsons/v1_VE250_randls_22_rotated.json,1499877,1926045,57,Woman
95,728200,DepthScenes,duration_manipulation_targetAtFixation,jsons/v1_VE250_randls_22_rotated.json,http://54.235.29.9/FacialAge/BNav_EC2/DepthDuration/v2_depth_duration_MTurk/v2_DepthDuration_HTML.html#63,63,1024,625,1024,768,8-29-2022,14-34-25,96,depth_duration_stimuli/002445_2014-06-28_20-32-16_260595134347_rgbf000029-resize_4/002445_2014-06-28_20-32-16_260595134347_rgbf000029-resize_4-target.png,250,2.5315,55,6354,248,meters,jsons/v1_VE250_randls_22_rotated.json,1499877,1926045,57,Woman
96,728200,DepthScenes,duration_manipulation_targetAtFixation,jsons/v1_VE250_randls_22_rotated.json,http://54.235.29.9/FacialAge/BNav_EC2/DepthDuration/v2_depth_duration_MTurk/v2_DepthDuration_HTML.html#63,63,1024,625,1024,768,8-29-2022,14-34-25,97,depth_duration_stimuli/001815_2014-06-26_20-52-55_260595134347_rgbf000020-resize_0/001815_2014-06-26_20-52-55_260595134347_rgbf000020-resize_0-target.png,250,3.3865,60,8007,249,meters,jsons/v1_VE250_randls_22_rotated.json,1499877,1926045,57,Woman
97,728200,DepthScenes,duration_manipulation_targetAtFixation,jsons/v1_VE250_randls_22_rotated.json,http://54.235.29.9/FacialAge/BNav_EC2/DepthDuration/v2_depth_duration_MTurk/v2_DepthDuration_HTML.html#63,63,1024,625,1024,768,8-29-2022,14-34-25,98,depth_duration_stimuli/001808_2014-06-26_20-50-58_260595134347_rgbf000029-resize_1/001808_2014-06-26_20-50-58_260595134347_rgbf000029-resize_1-target.png,250,4.249,60,8746,249,meters,jsons/v1_VE250_randls_22_rotated.json,1499877,1926045,57,Woman
98,728200,DepthScenes,duration_manipulation_targetAtFixation,jsons/v1_VE250_randls_22_rotated.json,http://54.235.29.9/FacialAge/BNav_EC2/DepthDuration/v2_depth_duration_MTurk/v2_DepthDuration_HTML.html#63,63,1024,625,1024,768,8-29-2022,14-34-25,99,depth_duration_stimuli/001222_2014-06-17_16-24-06_260595134347_rgbf000073-resize_0/001222_2014-06-17_16-24-06_260595134347_rgbf000073-resize-original.jpg,250,1.4385,34,8282,204,meters,jsons/v1_VE250_randls_22_rotated.json,1499877,1926045,57,Woman
99,728200,DepthScenes,duration_manipulation_targetAtFixation,jsons/v1_VE250_randls_22_rotated.json,http://54.235.29.9/FacialAge/BNav_EC2/DepthDuration/v2_depth_duration_MTurk/v2_DepthDuration_HTML.html#63,63,1024,625,1024,768,8-29-2022,14-34-25,100,depth_duration_stimuli/002425_2014-06-28_20-27-29_260595134347_rgbf000031-resize_8/002425_2014-06-28_20-27-29_260595134347_rgbf000031-resize_8-target.png,250,3.8960000000000004,23,10309,241,meters,jsons/v1_VE250_randls_22_rotated.json,1499877,1926045,57,Woman
100,728200,DepthScenes,duration_manipulation_targetAtFixation,jsons/v1_VE250_randls_22_rotated.json,http://54.235.29.9/FacialAge/BNav_EC2/DepthDuration/v2_depth_duration_MTurk/v2_DepthDuration_HTML.html#63,63,1024,625,1024,768,8-29-2022,14-34-25,101,depth_duration_stimuli/000642_2014-06-08_16-59-25_260595134347_rgbf000098-resize_2/000642_2014-06-08_16-59-25_260595134347_rgbf000098-resize_2-target.png,250,2.8815,22,5916,250,meters,jsons/v1_VE250_randls_22_rotated.json,1499877,1926045,57,Woman
101,728200,DepthScenes,duration_manipulation_targetAtFixation,jsons/v1_VE250_randls_22_rotated.json,http://54.235.29.9/FacialAge/BNav_EC2/DepthDuration/v2_depth_duration_MTurk/v2_DepthDuration_HTML.html#63,63,1024,625,1024,768,8-29-2022,14-34-25,102,depth_duration_stimuli/002758_2014-06-22_19-11-20_094959634447_rgbf000128-resize_1/002758_2014-06-22_19-11-20_094959634447_rgbf000128-resize_1-target.png,250,2.555,32,5911,262,meters,jsons/v1_VE250_randls_22_rotated.json,1499877,1926045,57,Woman
102,728200,DepthScenes,duration_manipulation_targetAtFixation,jsons/v1_VE250_randls_22_rotated.json,http://54.235.29.9/FacialAge/BNav_EC2/DepthDuration/v2_depth_duration_MTurk/v2_DepthDuration_HTML.html#63,63,1024,625,1024,768,8-29-2022,14-34-25,103,depth_duration_stimuli/002630_2014-06-24_14-47-50_094959634447_rgbf000055-resize_1/002630_2014-06-24_14-47-50_094959634447_rgbf000055-resize_1-target.png,250,3.0095,22,7773,139,meters,jsons/v1_VE250_randls_22_rotated.json,1499877,1926045,57,Woman
103,728200,DepthScenes,duration_manipulation_targetAtFixation,jsons/v1_VE250_randls_22_rotated.json,http://54.235.29.9/FacialAge/BNav_EC2/DepthDuration/v2_depth_duration_MTurk/v2_DepthDuration_HTML.html#63,63,1024,625,1024,768,8-29-2022,14-34-25,104,depth_duration_stimuli/003423_2014-05-21_10-23-26_094959634447_rgbf002665-resize_2/003423_2014-05-21_10-23-26_094959634447_rgbf002665-resize_2-target.png,250,3.2575,18,11475,280,meters,jsons/v1_VE250_randls_22_rotated.json,1499877,1926045,57,Woman
104,728200,DepthScenes,duration_manipulation_targetAtFixation,jsons/v1_VE250_randls_22_rotated.json,http://54.235.29.9/FacialAge/BNav_EC2/DepthDuration/v2_depth_duration_MTurk/v2_DepthDuration_HTML.html#63,63,1024,625,1024,768,8-29-2022,14-34-25,105,depth_duration_stimuli/002905_2014-06-03_18-04-43_094959634447_rgbf000151-resize_2/002905_2014-06-03_18-04-43_094959634447_rgbf000151-resize_2-target.png,250,2.0295,10,4943,248,meters,jsons/v1_VE250_randls_22_rotated.json,1499877,1926045,57,Woman
105,728200,DepthScenes,duration_manipulation_targetAtFixation,jsons/v1_VE250_randls_22_rotated.json,http://54.235.29.9/FacialAge/BNav_EC2/DepthDuration/v2_depth_duration_MTurk/v2_DepthDuration_HTML.html#63,63,1024,625,1024,768,8-29-2022,14-34-25,106,depth_duration_stimuli/003495_2014-05-21_16-01-51_094959634447_rgbf000100-resize_3/003495_2014-05-21_16-01-51_094959634447_rgbf000100-resize_3-target.png,250,1.6255,25,5504,248,meters,jsons/v1_VE250_randls_22_rotated.json,1499877,1926045,57,Woman
106,728200,DepthScenes,duration_manipulation_targetAtFixation,jsons/v1_VE250_randls_22_rotated.json,http://54.235.29.9/FacialAge/BNav_EC2/DepthDuration/v2_depth_duration_MTurk/v2_DepthDuration_HTML.html#63,63,1024,625,1024,768,8-29-2022,14-34-25,107,depth_duration_stimuli/001244_2014-06-17_16-47-45_260595134347_rgbf000030-resize_4/001244_2014-06-17_16-47-45_260595134347_rgbf000030-resize_4-target.png,250,2.0425,37,6235,249,meters,jsons/v1_VE250_randls_22_rotated.json,1499877,1926045,57,Woman
107,728200,DepthScenes,duration_manipulation_targetAtFixation,jsons/v1_VE250_randls_22_rotated.json,http://54.235.29.9/FacialAge/BNav_EC2/DepthDuration/v2_depth_duration_MTurk/v2_DepthDuration_HTML.html#63,63,1024,625,1024,768,8-29-2022,14-34-25,108,depth_duration_stimuli/002660_2014-06-13_15-44-18_094959634447_rgbf001878-resize_2/002660_2014-06-13_15-44-18_094959634447_rgbf001878-resize_2-target.png,250,3.576,30,8886,203,meters,jsons/v1_VE250_randls_22_rotated.json,1499877,1926045,57,Woman
108,728200,DepthScenes,duration_manipulation_targetAtFixation,jsons/v1_VE250_randls_22_rotated.json,http://54.235.29.9/FacialAge/BNav_EC2/DepthDuration/v2_depth_duration_MTurk/v2_DepthDuration_HTML.html#63,63,1024,625,1024,768,8-29-2022,14-34-25,109,depth_duration_stimuli/002153_2014-06-25_21-27-18_260595134347_rgbf000038-resize_5/002153_2014-06-25_21-27-18_260595134347_rgbf000038-resize_5-target.png,250,2.505,28,7736,248,meters,jsons/v1_VE250_randls_22_rotated.json,1499877,1926045,57,Woman
109,728200,DepthScenes,duration_manipulation_targetAtFixation,jsons/v1_VE250_randls_22_rotated.json,http://54.235.29.9/FacialAge/BNav_EC2/DepthDuration/v2_depth_duration_MTurk/v2_DepthDuration_HTML.html#63,63,1024,625,1024,768,8-29-2022,14-34-25,110,depth_duration_stimuli/002323_2014-06-28_20-01-54_260595134347_rgbf000051-resize_4/002323_2014-06-28_20-01-54_260595134347_rgbf000051-resize_4-target.png,250,3.7310000000000003,40,8838,281,meters,jsons/v1_VE250_randls_22_rotated.json,1499877,1926045,57,Woman
110,728200,DepthScenes,duration_manipulation_targetAtFixation,jsons/v1_VE250_randls_22_rotated.json,http://54.235.29.9/FacialAge/BNav_EC2/DepthDuration/v2_depth_duration_MTurk/v2_DepthDuration_HTML.html#63,63,1024,625,1024,768,8-29-2022,14-34-25,111,depth_duration_stimuli/000917_2014-06-09_22-45-29_260595134347_rgbf000149-resize_3/000917_2014-06-09_22-45-29_260595134347_rgbf000149-resize_3-target.png,250,4.1865,38,6754,258,meters,jsons/v1_VE250_randls_22_rotated.json,1499877,1926045,57,Woman
111,728200,DepthScenes,duration_manipulation_targetAtFixation,jsons/v1_VE250_randls_22_rotated.json,http://54.235.29.9/FacialAge/BNav_EC2/DepthDuration/v2_depth_duration_MTurk/v2_DepthDuration_HTML.html#63,63,1024,625,1024,768,8-29-2022,14-34-25,112,depth_duration_stimuli/001214_2014-06-17_16-13-55_260595134347_rgbf000111-resize_0/001214_2014-06-17_16-13-55_260595134347_rgbf000111-resize_0-target.png,250,2.6505,33,6548,248,meters,jsons/v1_VE250_randls_22_rotated.json,1499877,1926045,57,Woman
112,728200,DepthScenes,duration_manipulation_targetAtFixation,jsons/v1_VE250_randls_22_rotated.json,http://54.235.29.9/FacialAge/BNav_EC2/DepthDuration/v2_depth_duration_MTurk/v2_DepthDuration_HTML.html#63,63,1024,625,1024,768,8-29-2022,14-34-25,113,depth_duration_stimuli/000810_2014-06-08_17-20-01_260595134347_rgbf000105-resize_0/000810_2014-06-08_17-20-01_260595134347_rgbf000105-resize_0-target.png,250,1.4865,25,5546,265,meters,jsons/v1_VE250_randls_22_rotated.json,1499877,1926045,57,Woman
113,728200,DepthScenes,duration_manipulation_targetAtFixation,jsons/v1_VE250_randls_22_rotated.json,http://54.235.29.9/FacialAge/BNav_EC2/DepthDuration/v2_depth_duration_MTurk/v2_DepthDuration_HTML.html#63,63,1024,625,1024,768,8-29-2022,14-34-25,114,depth_duration_stimuli/000749_2014-06-08_21-55-06_260595134347_rgbf000070-resize_2/000749_2014-06-08_21-55-06_260595134347_rgbf000070-resize_2-target.png,250,2.331,19,6180,259,meters,jsons/v1_VE250_randls_22_rotated.json,1499877,1926045,57,Woman
114,728200,DepthScenes,duration_manipulation_targetAtFixation,jsons/v1_VE250_randls_22_rotated.json,http://54.235.29.9/FacialAge/BNav_EC2/DepthDuration/v2_depth_duration_MTurk/v2_DepthDuration_HTML.html#63,63,1024,625,1024,768,8-29-2022,14-34-25,115,depth_duration_stimuli/002788_2014-06-22_19-36-03_094959634447_rgbf000088-resize_2/002788_2014-06-22_19-36-03_094959634447_rgbf000088-resize_2-target.png,250,1.6465,10,4197,248,meters,jsons/v1_VE250_randls_22_rotated.json,1499877,1926045,57,Woman
115,728200,DepthScenes,duration_manipulation_targetAtFixation,jsons/v1_VE250_randls_22_rotated.json,http://54.235.29.9/FacialAge/BNav_EC2/DepthDuration/v2_depth_duration_MTurk/v2_DepthDuration_HTML.html#63,63,1024,625,1024,768,8-29-2022,14-34-25,116,depth_duration_stimuli/001584_2014-06-20_11-07-43_260595134347_rgbf000002-resize_1/001584_2014-06-20_11-07-43_260595134347_rgbf000002-resize_1-target.png,250,3.53,50,5697,249,meters,jsons/v1_VE250_randls_22_rotated.json,1499877,1926045,57,Woman
116,728200,DepthScenes,duration_manipulation_targetAtFixation,jsons/v1_VE250_randls_22_rotated.json,http://54.235.29.9/FacialAge/BNav_EC2/DepthDuration/v2_depth_duration_MTurk/v2_DepthDuration_HTML.html#63,63,1024,625,1024,768,8-29-2022,14-34-25,117,depth_duration_stimuli/003621_2014-05-23_18-06-08_094959634447_rgbf000101-resize_1/003621_2014-05-23_18-06-08_094959634447_rgbf000101-resize_1-target.png,250,3.9835,55,4211,249,meters,jsons/v1_VE250_randls_22_rotated.json,1499877,1926045,57,Woman
117,728200,DepthScenes,duration_manipulation_targetAtFixation,jsons/v1_VE250_randls_22_rotated.json,http://54.235.29.9/FacialAge/BNav_EC2/DepthDuration/v2_depth_duration_MTurk/v2_DepthDuration_HTML.html#63,63,1024,625,1024,768,8-29-2022,14-34-25,118,depth_duration_stimuli/000483_2014-06-09_20-41-45_260595134347_rgbf000116-resize_4/000483_2014-06-09_20-41-45_260595134347_rgbf000116-resize_4-target.png,250,1.337,78,7441,248,meters,jsons/v1_VE250_randls_22_rotated.json,1499877,1926045,57,Woman
118,728200,DepthScenes,duration_manipulation_targetAtFixation,jsons/v1_VE250_randls_22_rotated.json,http://54.235.29.9/FacialAge/BNav_EC2/DepthDuration/v2_depth_duration_MTurk/v2_DepthDuration_HTML.html#63,63,1024,625,1024,768,8-29-2022,14-34-25,119,depth_duration_stimuli/000469_2014-06-09_19-42-10_260595134347_rgbf000081-resize_1/000469_2014-06-09_19-42-10_260595134347_rgbf000081-resize_1-target.png,250,1.652,82,5749,245,meters,jsons/v1_VE250_randls_22_rotated.json,1499877,1926045,57,Woman
119,728200,DepthScenes,duration_manipulation_targetAtFixation,jsons/v1_VE250_randls_22_rotated.json,http://54.235.29.9/FacialAge/BNav_EC2/DepthDuration/v2_depth_duration_MTurk/v2_DepthDuration_HTML.html#63,63,1024,625,1024,768,8-29-2022,14-34-25,120,depth_duration_stimuli/000787_2014-06-08_22-33-53_260595134347_rgbf000175-resize_1/000787_2014-06-08_22-33-53_260595134347_rgbf000175-resize-original.jpg,250,4.784,70,6500,250,meters,jsons/v1_VE250_randls_22_rotated.json,1499877,1926045,57,Woman
120,728200,DepthScenes,duration_manipulation_targetAtFixation,jsons/v1_VE250_randls_22_rotated.json,http://54.235.29.9/FacialAge/BNav_EC2/DepthDuration/v2_depth_duration_MTurk/v2_DepthDuration_HTML.html#63,63,1024,625,1024,768,8-29-2022,14-34-25,121,depth_duration_stimuli/001235_2014-06-17_16-37-36_260595134347_rgbf000084-resize_4/001235_2014-06-17_16-37-36_260595134347_rgbf000084-resize_4-target.png,250,3.6605,35,5877,249,meters,jsons/v1_VE250_randls_22_rotated.json,1499877,1926045,57,Woman
121,728200,DepthScenes,duration_manipulation_targetAtFixation,jsons/v1_VE250_randls_22_rotated.json,http://54.235.29.9/FacialAge/BNav_EC2/DepthDuration/v2_depth_duration_MTurk/v2_DepthDuration_HTML.html#63,63,1024,625,1024,768,8-29-2022,14-34-25,122,depth_duration_stimuli/000788_2014-06-08_22-34-36_260595134347_rgbf000131-resize_1/000788_2014-06-08_22-34-36_260595134347_rgbf000131-resize_1-target.png,250,3.359,20,5620,249,meters,jsons/v1_VE250_randls_22_rotated.json,1499877,1926045,57,Woman
122,728200,DepthScenes,duration_manipulation_targetAtFixation,jsons/v1_VE250_randls_22_rotated.json,http://54.235.29.9/FacialAge/BNav_EC2/DepthDuration/v2_depth_duration_MTurk/v2_DepthDuration_HTML.html#63,63,1024,625,1024,768,8-29-2022,14-34-25,123,depth_duration_stimuli/000109_2014-05-14_23-41-52_260595134347_rgbf000035-resize_9/000109_2014-05-14_23-41-52_260595134347_rgbf000035-resize_9-target.png,250,1.3545,29,10250,250,meters,jsons/v1_VE250_randls_22_rotated.json,1499877,1926045,57,Woman
123,728200,DepthScenes,duration_manipulation_targetAtFixation,jsons/v1_VE250_randls_22_rotated.json,http://54.235.29.9/FacialAge/BNav_EC2/DepthDuration/v2_depth_duration_MTurk/v2_DepthDuration_HTML.html#63,63,1024,625,1024,768,8-29-2022,14-34-25,124,depth_duration_stimuli/000470_2014-06-09_19-42-40_260595134347_rgbf000094-resize_1/000470_2014-06-09_19-42-40_260595134347_rgbf000094-resize_1-target.png,250,1.831,65,18972,265,meters,jsons/v1_VE250_randls_22_rotated.json,1499877,1926045,57,Woman
124,728200,DepthScenes,duration_manipulation_targetAtFixation,jsons/v1_VE250_randls_22_rotated.json,http://54.235.29.9/FacialAge/BNav_EC2/DepthDuration/v2_depth_duration_MTurk/v2_DepthDuration_HTML.html#63,63,1024,625,1024,768,8-29-2022,14-34-25,125,depth_duration_stimuli/003338_2014-05-20_11-01-23_094959634447_rgbf000051-resize_6/003338_2014-05-20_11-01-23_094959634447_rgbf000051-resize_6-target.png,250,1.693,30,7523,239,meters,jsons/v1_VE250_randls_22_rotated.json,1499877,1926045,57,Woman
125,728200,DepthScenes,duration_manipulation_targetAtFixation,jsons/v1_VE250_randls_22_rotated.json,http://54.235.29.9/FacialAge/BNav_EC2/DepthDuration/v2_depth_duration_MTurk/v2_DepthDuration_HTML.html#63,63,1024,625,1024,768,8-29-2022,14-34-25,126,depth_duration_stimuli/002509_2014-06-24_13-19-22_094959634447_rgbf000077-resize_0/002509_2014-06-24_13-19-22_094959634447_rgbf000077-resize_0-target.png,250,1.3065,80,4741,248,meters,jsons/v1_VE250_randls_22_rotated.json,1499877,1926045,57,Woman
126,728200,DepthScenes,duration_manipulation_targetAtFixation,jsons/v1_VE250_randls_22_rotated.json,http://54.235.29.9/FacialAge/BNav_EC2/DepthDuration/v2_depth_duration_MTurk/v2_DepthDuration_HTML.html#63,63,1024,625,1024,768,8-29-2022,14-34-25,127,depth_duration_stimuli/000709_2014-06-08_13-51-55_260595134347_rgbf000068-resize_3/000709_2014-06-08_13-51-55_260595134347_rgbf000068-resize_3-target.png,250,1.8030000000000002,20,7151,246,meters,jsons/v1_VE250_randls_22_rotated.json,1499877,1926045,57,Woman
127,728200,DepthScenes,duration_manipulation_targetAtFixation,jsons/v1_VE250_randls_22_rotated.json,http://54.235.29.9/FacialAge/BNav_EC2/DepthDuration/v2_depth_duration_MTurk/v2_DepthDuration_HTML.html#63,63,1024,625,1024,768,8-29-2022,14-34-25,128,depth_duration_stimuli/002057_2014-06-24_21-00-13_260595134347_rgbf000120-resize_1/002057_2014-06-24_21-00-13_260595134347_rgbf000120-resize_1-target.png,250,2.967,52,5778,250,meters,jsons/v1_VE250_randls_22_rotated.json,1499877,1926045,57,Woman
128,728200,DepthScenes,duration_manipulation_targetAtFixation,jsons/v1_VE250_randls_22_rotated.json,http://54.235.29.9/FacialAge/BNav_EC2/DepthDuration/v2_depth_duration_MTurk/v2_DepthDuration_HTML.html#63,63,1024,625,1024,768,8-29-2022,14-34-25,129,depth_duration_stimuli/002637_2014-06-24_14-51-13_094959634447_rgbf000066-resize_4/002637_2014-06-24_14-51-13_094959634447_rgbf000066-resize_4-target.png,250,1.9955,13,10205,233,meters,jsons/v1_VE250_randls_22_rotated.json,1499877,1926045,57,Woman
129,728200,DepthScenes,duration_manipulation_targetAtFixation,jsons/v1_VE250_randls_22_rotated.json,http://54.235.29.9/FacialAge/BNav_EC2/DepthDuration/v2_depth_duration_MTurk/v2_DepthDuration_HTML.html#63,63,1024,625,1024,768,8-29-2022,14-34-25,130,depth_duration_stimuli/003534_2014-05-22_15-06-10_094959634447_rgbf000102-resize_4/003534_2014-05-22_15-06-10_094959634447_rgbf000102-resize_4-target.png,250,1.426,33,6907,289,meters,jsons/v1_VE250_randls_22_rotated.json,1499877,1926045,57,Woman
130,728200,DepthScenes,duration_manipulation_targetAtFixation,jsons/v1_VE250_randls_22_rotated.json,http://54.235.29.9/FacialAge/BNav_EC2/DepthDuration/v2_depth_duration_MTurk/v2_DepthDuration_HTML.html#63,63,1024,625,1024,768,8-29-2022,14-34-25,131,depth_duration_stimuli/002344_2014-06-28_20-06-29_260595134347_rgbf000030-resize_1/002344_2014-06-28_20-06-29_260595134347_rgbf000030-resize_1-target.png,250,1.5795,87,6512,248,meters,jsons/v1_VE250_randls_22_rotated.json,1499877,1926045,57,Woman
131,728200,DepthScenes,duration_manipulation_targetAtFixation,jsons/v1_VE250_randls_22_rotated.json,http://54.235.29.9/FacialAge/BNav_EC2/DepthDuration/v2_depth_duration_MTurk/v2_DepthDuration_HTML.html#63,63,1024,625,1024,768,8-29-2022,14-34-25,132,depth_duration_stimuli/002725_2014-06-22_11-47-51_094959634447_rgbf000070-resize_1/002725_2014-06-22_11-47-51_094959634447_rgbf000070-resize_1-target.png,250,2.195,27,6529,265,meters,jsons/v1_VE250_randls_22_rotated.json,1499877,1926045,57,Woman
132,728200,DepthScenes,duration_manipulation_targetAtFixation,jsons/v1_VE250_randls_22_rotated.json,http://54.235.29.9/FacialAge/BNav_EC2/DepthDuration/v2_depth_duration_MTurk/v2_DepthDuration_HTML.html#63,63,1024,625,1024,768,8-29-2022,14-34-25,133,depth_duration_stimuli/002805_2014-06-22_19-54-03_094959634447_rgbf000079-resize_1/002805_2014-06-22_19-54-03_094959634447_rgbf000079-resize_1-target.png,250,3.1439999999999997,18,6210,249,meters,jsons/v1_VE250_randls_22_rotated.json,1499877,1926045,57,Woman
133,728200,DepthScenes,duration_manipulation_targetAtFixation,jsons/v1_VE250_randls_22_rotated.json,http://54.235.29.9/FacialAge/BNav_EC2/DepthDuration/v2_depth_duration_MTurk/v2_DepthDuration_HTML.html#63,63,1024,625,1024,768,8-29-2022,14-34-25,134,depth_duration_stimuli/000906_2014-06-08_13-35-43_260595134347_rgbf000155-resize_1/000906_2014-06-08_13-35-43_260595134347_rgbf000155-resize_1-target.png,250,2.8489999999999998,72,13533,262,meters,jsons/v1_VE250_randls_22_rotated.json,1499877,1926045,57,Woman
134,728200,DepthScenes,duration_manipulation_targetAtFixation,jsons/v1_VE250_randls_22_rotated.json,http://54.235.29.9/FacialAge/BNav_EC2/DepthDuration/v2_depth_duration_MTurk/v2_DepthDuration_HTML.html#63,63,1024,625,1024,768,8-29-2022,14-34-25,135,depth_duration_stimuli/000375_2014-06-08_11-17-29_260595134347_rgbf000133-resize_2/000375_2014-06-08_11-17-29_260595134347_rgbf000133-resize-original.jpg,250,4.718,32,6901,250,meters,jsons/v1_VE250_randls_22_rotated.json,1499877,1926045,57,Woman
135,728200,DepthScenes,duration_manipulation_targetAtFixation,jsons/v1_VE250_randls_22_rotated.json,http://54.235.29.9/FacialAge/BNav_EC2/DepthDuration/v2_depth_duration_MTurk/v2_DepthDuration_HTML.html#63,63,1024,625,1024,768,8-29-2022,14-34-25,136,depth_duration_stimuli/003083_2014-06-15_15-21-03_094959634447_rgbf000063-resize_1/003083_2014-06-15_15-21-03_094959634447_rgbf000063-resize_1-target.png,250,4.1405,35,9513,266,meters,jsons/v1_VE250_randls_22_rotated.json,1499877,1926045,57,Woman
136,728200,DepthScenes,duration_manipulation_targetAtFixation,jsons/v1_VE250_randls_22_rotated.json,http://54.235.29.9/FacialAge/BNav_EC2/DepthDuration/v2_depth_duration_MTurk/v2_DepthDuration_HTML.html#63,63,1024,625,1024,768,8-29-2022,14-34-25,137,depth_duration_stimuli/000486_2014-06-09_20-47-20_260595134347_rgbf000143-resize_2/000486_2014-06-09_20-47-20_260595134347_rgbf000143-resize_2-target.png,250,4.8325,25,16177,249,meters,jsons/v1_VE250_randls_22_rotated.json,1499877,1926045,57,Woman
137,728200,DepthScenes,duration_manipulation_targetAtFixation,jsons/v1_VE250_randls_22_rotated.json,http://54.235.29.9/FacialAge/BNav_EC2/DepthDuration/v2_depth_duration_MTurk/v2_DepthDuration_HTML.html#63,63,1024,625,1024,768,8-29-2022,14-34-25,138,depth_duration_stimuli/002949_2014-06-26_15-57-42_094959634447_rgbf000079-resize_1/002949_2014-06-26_15-57-42_094959634447_rgbf000079-resize_1-target.png,250,1.8915,25,10864,253,meters,jsons/v1_VE250_randls_22_rotated.json,1499877,1926045,57,Woman
138,728200,DepthScenes,duration_manipulation_targetAtFixation,jsons/v1_VE250_randls_22_rotated.json,http://54.235.29.9/FacialAge/BNav_EC2/DepthDuration/v2_depth_duration_MTurk/v2_DepthDuration_HTML.html#63,63,1024,625,1024,768,8-29-2022,14-34-25,139,depth_duration_stimuli/000522_2014-06-08_13-35-06_260595134347_rgbf000244-resize_1/000522_2014-06-08_13-35-06_260595134347_rgbf000244-resize_1-target.png,250,2.3715,58,4745,248,meters,jsons/v1_VE250_randls_22_rotated.json,1499877,1926045,57,Woman
139,728200,DepthScenes,duration_manipulation_targetAtFixation,jsons/v1_VE250_randls_22_rotated.json,http://54.235.29.9/FacialAge/BNav_EC2/DepthDuration/v2_depth_duration_MTurk/v2_DepthDuration_HTML.html#63,63,1024,625,1024,768,8-29-2022,14-34-25,140,depth_duration_stimuli/001447_2014-06-19_17-00-32_260595134347_rgbf000082-resize_5/001447_2014-06-19_17-00-32_260595134347_rgbf000082-resize_5-target.png,250,4.13775,32,8128,250,meters,jsons/v1_VE250_randls_22_rotated.json,1499877,1926045,57,Woman
140,728200,DepthScenes,duration_manipulation_targetAtFixation,jsons/v1_VE250_randls_22_rotated.json,http://54.235.29.9/FacialAge/BNav_EC2/DepthDuration/v2_depth_duration_MTurk/v2_DepthDuration_HTML.html#63,63,1024,625,1024,768,8-29-2022,14-34-25,141,depth_duration_stimuli/000447_2014-06-08_16-15-46_260595134347_rgbf000130-resize_1/000447_2014-06-08_16-15-46_260595134347_rgbf000130-resize_1-target.png,250,4.479,38,6073,237,meters,jsons/v1_VE250_randls_22_rotated.json,1499877,1926045,57,Woman
141,728200,DepthScenes,duration_manipulation_targetAtFixation,jsons/v1_VE250_randls_22_rotated.json,http://54.235.29.9/FacialAge/BNav_EC2/DepthDuration/v2_depth_duration_MTurk/v2_DepthDuration_HTML.html#63,63,1024,625,1024,768,8-29-2022,14-34-25,142,depth_duration_stimuli/000457_2014-06-08_16-52-43_260595134347_rgbf000199-resize_1/000457_2014-06-08_16-52-43_260595134347_rgbf000199-resize_1-target.png,250,3.6489999999999996,17,7132,250,meters,jsons/v1_VE250_randls_22_rotated.json,1499877,1926045,57,Woman
142,728200,DepthScenes,duration_manipulation_targetAtFixation,jsons/v1_VE250_randls_22_rotated.json,http://54.235.29.9/FacialAge/BNav_EC2/DepthDuration/v2_depth_duration_MTurk/v2_DepthDuration_HTML.html#63,63,1024,625,1024,768,8-29-2022,14-34-25,143,depth_duration_stimuli/000929_2014-06-09_16-33-19_260595134347_rgbf000139-resize_0/000929_2014-06-09_16-33-19_260595134347_rgbf000139-resize_0-target.png,250,2.8680000000000003,32,11301,251,meters,jsons/v1_VE250_randls_22_rotated.json,1499877,1926045,57,Woman
143,728200,DepthScenes,duration_manipulation_targetAtFixation,jsons/v1_VE250_randls_22_rotated.json,http://54.235.29.9/FacialAge/BNav_EC2/DepthDuration/v2_depth_duration_MTurk/v2_DepthDuration_HTML.html#63,63,1024,625,1024,768,8-29-2022,14-34-25,144,depth_duration_stimuli/001828_2014-06-26_21-40-03_260595134347_rgbf000024-resize_0/001828_2014-06-26_21-40-03_260595134347_rgbf000024-resize_0-target.png,250,4.8260000000000005,37,8573,249,meters,jsons/v1_VE250_randls_22_rotated.json,1499877,1926045,57,Woman
144,728200,DepthScenes,duration_manipulation_targetAtFixation,jsons/v1_VE250_randls_22_rotated.json,http://54.235.29.9/FacialAge/BNav_EC2/DepthDuration/v2_depth_duration_MTurk/v2_DepthDuration_HTML.html#63,63,1024,625,1024,768,8-29-2022,14-34-25,145,depth_duration_stimuli/000009_2014-05-26_14-32-05_260595134347_rgbf000034-resize_3/000009_2014-05-26_14-32-05_260595134347_rgbf000034-resize_3-target.png,250,3.8715,55,6325,248,meters,jsons/v1_VE250_randls_22_rotated.json,1499877,1926045,57,Woman
145,728200,DepthScenes,duration_manipulation_targetAtFixation,jsons/v1_VE250_randls_22_rotated.json,http://54.235.29.9/FacialAge/BNav_EC2/DepthDuration/v2_depth_duration_MTurk/v2_DepthDuration_HTML.html#63,63,1024,625,1024,768,8-29-2022,14-34-25,146,depth_duration_stimuli/002639_2014-06-24_14-51-37_094959634447_rgbf000074-resize_4/002639_2014-06-24_14-51-37_094959634447_rgbf000074-resize_4-target.png,250,4.0375,35,15793,249,meters,jsons/v1_VE250_randls_22_rotated.json,1499877,1926045,57,Woman
146,728200,DepthScenes,duration_manipulation_targetAtFixation,jsons/v1_VE250_randls_22_rotated.json,http://54.235.29.9/FacialAge/BNav_EC2/DepthDuration/v2_depth_duration_MTurk/v2_DepthDuration_HTML.html#63,63,1024,625,1024,768,8-29-2022,14-34-25,147,depth_duration_stimuli/003292_2014-05-14_21-53-49_094959634447_rgbf000100-resize_2/003292_2014-05-14_21-53-49_094959634447_rgbf000100-resize_2-target.png,250,3.4815,35,10613,249,meters,jsons/v1_VE250_randls_22_rotated.json,1499877,1926045,57,Woman
147,728200,DepthScenes,duration_manipulation_targetAtFixation,jsons/v1_VE250_randls_22_rotated.json,http://54.235.29.9/FacialAge/BNav_EC2/DepthDuration/v2_depth_duration_MTurk/v2_DepthDuration_HTML.html#63,63,1024,625,1024,768,8-29-2022,14-34-25,148,depth_duration_stimuli/000691_2014-06-08_13-08-50_260595134347_rgbf000132-resize_3/000691_2014-06-08_13-08-50_260595134347_rgbf000132-resize_3-target.png,250,4.1530000000000005,78,7203,248,meters,jsons/v1_VE250_randls_22_rotated.json,1499877,1926045,57,Woman
148,728200,DepthScenes,duration_manipulation_targetAtFixation,jsons/v1_VE250_randls_22_rotated.json,http://54.235.29.9/FacialAge/BNav_EC2/DepthDuration/v2_depth_duration_MTurk/v2_DepthDuration_HTML.html#63,63,1024,625,1024,768,8-29-2022,14-34-25,149,depth_duration_stimuli/002213_2014-06-28_18-37-58_260595134347_rgbf000055-resize_1/002213_2014-06-28_18-37-58_260595134347_rgbf000055-resize_1-target.png,250,3.62,55,4541,249,meters,jsons/v1_VE250_randls_22_rotated.json,1499877,1926045,57,Woman
149,728200,DepthScenes,duration_manipulation_targetAtFixation,jsons/v1_VE250_randls_22_rotated.json,http://54.235.29.9/FacialAge/BNav_EC2/DepthDuration/v2_depth_duration_MTurk/v2_DepthDuration_HTML.html#63,63,1024,625,1024,768,8-29-2022,14-34-25,150,depth_duration_stimuli/002467_2014-06-28_20-38-07_260595134347_rgbf000026-resize_2/002467_2014-06-28_20-38-07_260595134347_rgbf000026-resize_2-target.png,250,4.742,26,6677,298,meters,jsons/v1_VE250_randls_22_rotated.json,1499877,1926045,57,Woman
150,728200,DepthScenes,duration_manipulation_targetAtFixation,jsons/v1_VE250_randls_22_rotated.json,http://54.235.29.9/FacialAge/BNav_EC2/DepthDuration/v2_depth_duration_MTurk/v2_DepthDuration_HTML.html#63,63,1024,625,1024,768,8-29-2022,14-34-25,151,depth_duration_stimuli/002570_2014-06-24_13-59-54_094959634447_rgbf000059-resize_0/002570_2014-06-24_13-59-54_094959634447_rgbf000059-resize_0-target.png,250,4.037,55,3928,247,meters,jsons/v1_VE250_randls_22_rotated.json,1499877,1926045,57,Woman
151,728200,DepthScenes,duration_manipulation_targetAtFixation,jsons/v1_VE250_randls_22_rotated.json,http://54.235.29.9/FacialAge/BNav_EC2/DepthDuration/v2_depth_duration_MTurk/v2_DepthDuration_HTML.html#63,63,1024,625,1024,768,8-29-2022,14-34-25,152,depth_duration_stimuli/000569_2014-06-09_22-51-47_260595134347_rgbf000141-resize_3/000569_2014-06-09_22-51-47_260595134347_rgbf000141-resize-original.jpg,250,4.512,43,6589,256,meters,jsons/v1_VE250_randls_22_rotated.json,1499877,1926045,57,Woman
152,728200,DepthScenes,duration_manipulation_targetAtFixation,jsons/v1_VE250_randls_22_rotated.json,http://54.235.29.9/FacialAge/BNav_EC2/DepthDuration/v2_depth_duration_MTurk/v2_DepthDuration_HTML.html#63,63,1024,625,1024,768,8-29-2022,14-34-25,153,depth_duration_stimuli/003129_2014-05-12_10-48-10_094959634447_rgbf000100-resize_0/003129_2014-05-12_10-48-10_094959634447_rgbf000100-resize_0-target.png,250,4.9305,58,6872,249,meters,jsons/v1_VE250_randls_22_rotated.json,1499877,1926045,57,Woman
153,728200,DepthScenes,duration_manipulation_targetAtFixation,jsons/v1_VE250_randls_22_rotated.json,http://54.235.29.9/FacialAge/BNav_EC2/DepthDuration/v2_depth_duration_MTurk/v2_DepthDuration_HTML.html#63,63,1024,625,1024,768,8-29-2022,14-34-25,154,depth_duration_stimuli/000414_2014-06-04_19-49-13_260595134347_rgbf000044-resize_0/000414_2014-06-04_19-49-13_260595134347_rgbf000044-resize_0-target.png,250,4.329,59,9115,251,meters,jsons/v1_VE250_randls_22_rotated.json,1499877,1926045,57,Woman
154,728200,DepthScenes,duration_manipulation_targetAtFixation,jsons/v1_VE250_randls_22_rotated.json,http://54.235.29.9/FacialAge/BNav_EC2/DepthDuration/v2_depth_duration_MTurk/v2_DepthDuration_HTML.html#63,63,1024,625,1024,768,8-29-2022,14-34-25,155,depth_duration_stimuli/002875_2014-06-01_15-19-00_094959634447_rgbf000151-resize_1/002875_2014-06-01_15-19-00_094959634447_rgbf000151-resize_1-target.png,250,1.9675,53,8858,250,meters,jsons/v1_VE250_randls_22_rotated.json,1499877,1926045,57,Woman
155,728200,DepthScenes,duration_manipulation_targetAtFixation,jsons/v1_VE250_randls_22_rotated.json,http://54.235.29.9/FacialAge/BNav_EC2/DepthDuration/v2_depth_duration_MTurk/v2_DepthDuration_HTML.html#63,63,1024,625,1024,768,8-29-2022,14-34-25,156,depth_duration_stimuli/001011_2014-06-08_23-18-54_260595134347_rgbf000044-resize_4/001011_2014-06-08_23-18-54_260595134347_rgbf000044-resize_4-target.png,250,2.4730000000000003,68,7108,249,meters,jsons/v1_VE250_randls_22_rotated.json,1499877,1926045,57,Woman
156,728200,DepthScenes,duration_manipulation_targetAtFixation,jsons/v1_VE250_randls_22_rotated.json,http://54.235.29.9/FacialAge/BNav_EC2/DepthDuration/v2_depth_duration_MTurk/v2_DepthDuration_HTML.html#63,63,1024,625,1024,768,8-29-2022,14-34-25,157,depth_duration_stimuli/002750_2014-06-22_19-08-03_094959634447_rgbf000094-resize_4/002750_2014-06-22_19-08-03_094959634447_rgbf000094-resize_4-target.png,250,2.354,43,9057,250,meters,jsons/v1_VE250_randls_22_rotated.json,1499877,1926045,57,Woman
157,728200,DepthScenes,duration_manipulation_targetAtFixation,jsons/v1_VE250_randls_22_rotated.json,http://54.235.29.9/FacialAge/BNav_EC2/DepthDuration/v2_depth_duration_MTurk/v2_DepthDuration_HTML.html#63,63,1024,625,1024,768,8-29-2022,14-34-25,158,depth_duration_stimuli/002549_2014-06-24_13-41-39_094959634447_rgbf000022-resize_3/002549_2014-06-24_13-41-39_094959634447_rgbf000022-resize_3-target.png,250,1.476,60,6919,244,meters,jsons/v1_VE250_randls_22_rotated.json,1499877,1926045,57,Woman
158,728200,DepthScenes,duration_manipulation_targetAtFixation,jsons/v1_VE250_randls_22_rotated.json,http://54.235.29.9/FacialAge/BNav_EC2/DepthDuration/v2_depth_duration_MTurk/v2_DepthDuration_HTML.html#63,63,1024,625,1024,768,8-29-2022,14-34-25,159,depth_duration_stimuli/000635_2014-06-08_16-38-42_260595134347_rgbf000106-resize_1/000635_2014-06-08_16-38-42_260595134347_rgbf000106-resize_1-target.png,250,2.074,57,8598,211,meters,jsons/v1_VE250_randls_22_rotated.json,1499877,1926045,57,Woman
159,728200,DepthScenes,duration_manipulation_targetAtFixation,jsons/v1_VE250_randls_22_rotated.json,http://54.235.29.9/FacialAge/BNav_EC2/DepthDuration/v2_depth_duration_MTurk/v2_DepthDuration_HTML.html#63,63,1024,625,1024,768,8-29-2022,14-34-25,160,depth_duration_stimuli/002279_2014-06-28_18-55-32_260595134347_rgbf000040-resize_5/002279_2014-06-28_18-55-32_260595134347_rgbf000040-resize_5-target.png,250,1.5043333333333,57,9599,402,meters,jsons/v1_VE250_randls_22_rotated.json,1499877,1926045,57,Woman
160,728200,DepthScenes,duration_manipulation_targetAtFixation,jsons/v1_VE250_randls_22_rotated.json,http://54.235.29.9/FacialAge/BNav_EC2/DepthDuration/v2_depth_duration_MTurk/v2_DepthDuration_HTML.html#63,63,1024,625,1024,768,8-29-2022,14-34-25,161,depth_duration_stimuli/002568_2014-06-24_13-59-21_094959634447_rgbf000062-resize_4/002568_2014-06-24_13-59-21_094959634447_rgbf000062-resize_4-target.png,250,3.015,15,9686,247,meters,jsons/v1_VE250_randls_22_rotated.json,1499877,1926045,57,Woman
161,728200,DepthScenes,duration_manipulation_targetAtFixation,jsons/v1_VE250_randls_22_rotated.json,http://54.235.29.9/FacialAge/BNav_EC2/DepthDuration/v2_depth_duration_MTurk/v2_DepthDuration_HTML.html#63,63,1024,625,1024,768,8-29-2022,14-34-25,162,depth_duration_stimuli/003492_2014-05-21_15-50-55_094959634447_rgbf000828-resize_1/003492_2014-05-21_15-50-55_094959634447_rgbf000828-resize_1-target.png,250,4.06875,25,6164,249,meters,jsons/v1_VE250_randls_22_rotated.json,1499877,1926045,57,Woman
162,728200,DepthScenes,duration_manipulation_targetAtFixation,jsons/v1_VE250_randls_22_rotated.json,http://54.235.29.9/FacialAge/BNav_EC2/DepthDuration/v2_depth_duration_MTurk/v2_DepthDuration_HTML.html#63,63,1024,625,1024,768,8-29-2022,14-34-25,163,depth_duration_stimuli/001617_2014-06-20_11-35-32_260595134347_rgbf000066-resize_1/001617_2014-06-20_11-35-32_260595134347_rgbf000066-resize_1-target.png,250,3.7910000000000004,88,7649,251,meters,jsons/v1_VE250_randls_22_rotated.json,1499877,1926045,57,Woman
163,728200,DepthScenes,duration_manipulation_targetAtFixation,jsons/v1_VE250_randls_22_rotated.json,http://54.235.29.9/FacialAge/BNav_EC2/DepthDuration/v2_depth_duration_MTurk/v2_DepthDuration_HTML.html#63,63,1024,625,1024,768,8-29-2022,14-34-25,164,depth_duration_stimuli/001806_2014-06-26_20-50-20_260595134347_rgbf000091-resize_1/001806_2014-06-26_20-50-20_260595134347_rgbf000091-resize_1-target.png,250,2.7305,85,5849,250,meters,jsons/v1_VE250_randls_22_rotated.json,1499877,1926045,57,Woman
