,subjID,experimentName,versionName,sequenceName,url,selected_row,windowWidth,windowHeight,screenWidth,screenHeight,startDate,startTime,trial,stimulus,duration,actual_depth,depth_estimate,trial_RT,log_sceneDuration,unitSelection,seq_filepath,experimentTime,totalTime,age,gender
0,729944,DepthScenes,duration_manipulation_targetAtFixation,jsons/v1_VE250_randls_77_rotated.json,http://54.235.29.9/FacialAge/BNav_EC2/DepthDuration/v2_depth_duration_MTurk/v2_DepthDuration_HTML.html#62,62,1364,625,1364,768,8-29-2022,9-40-41,1,depth_duration_stimuli/000556_2014-06-09_22-42-56_260595134347_rgbf000214-resize_1/000556_2014-06-09_22-42-56_260595134347_rgbf000214-resize_1-target.png,250,4.8415,2,7891,251,feet,jsons/v1_VE250_randls_77_rotated.json,2478828,2661890,37,Woman
1,729944,DepthScenes,duration_manipulation_targetAtFixation,jsons/v1_VE250_randls_77_rotated.json,http://54.235.29.9/FacialAge/BNav_EC2/DepthDuration/v2_depth_duration_MTurk/v2_DepthDuration_HTML.html#62,62,1364,625,1364,768,8-29-2022,9-40-41,2,depth_duration_stimuli/001158_2014-06-17_15-32-16_260595134347_rgbf000138-resize_2/001158_2014-06-17_15-32-16_260595134347_rgbf000138-resize_2-target.png,250,4.5315,0,4585,250,feet,jsons/v1_VE250_randls_77_rotated.json,2478828,2661890,37,Woman
2,729944,DepthScenes,duration_manipulation_targetAtFixation,jsons/v1_VE250_randls_77_rotated.json,http://54.235.29.9/FacialAge/BNav_EC2/DepthDuration/v2_depth_duration_MTurk/v2_DepthDuration_HTML.html#62,62,1364,625,1364,768,8-29-2022,9-40-41,3,depth_duration_stimuli/000549_2014-06-08_22-10-24_260595134347_rgbf000247-resize_3/000549_2014-06-08_22-10-24_260595134347_rgbf000247-resize_3-target.png,250,1.841,1,6627,231,feet,jsons/v1_VE250_randls_77_rotated.json,2478828,2661890,37,Woman
3,729944,DepthScenes,duration_manipulation_targetAtFixation,jsons/v1_VE250_randls_77_rotated.json,http://54.235.29.9/FacialAge/BNav_EC2/DepthDuration/v2_depth_duration_MTurk/v2_DepthDuration_HTML.html#62,62,1364,625,1364,768,8-29-2022,9-40-41,4,depth_duration_stimuli/001055_2014-06-08_18-45-35_260595134347_rgbf000111-resize_4/001055_2014-06-08_18-45-35_260595134347_rgbf000111-resize_4-target.png,250,2.4290000000000003,0,5209,249,feet,jsons/v1_VE250_randls_77_rotated.json,2478828,2661890,37,Woman
4,729944,DepthScenes,duration_manipulation_targetAtFixation,jsons/v1_VE250_randls_77_rotated.json,http://54.235.29.9/FacialAge/BNav_EC2/DepthDuration/v2_depth_duration_MTurk/v2_DepthDuration_HTML.html#62,62,1364,625,1364,768,8-29-2022,9-40-41,5,depth_duration_stimuli/000854_2014-06-09_19-43-13_260595134347_rgbf000066-resize_0/000854_2014-06-09_19-43-13_260595134347_rgbf000066-resize_0-target.png,250,3.068,2,7640,258,feet,jsons/v1_VE250_randls_77_rotated.json,2478828,2661890,37,Woman
5,729944,DepthScenes,duration_manipulation_targetAtFixation,jsons/v1_VE250_randls_77_rotated.json,http://54.235.29.9/FacialAge/BNav_EC2/DepthDuration/v2_depth_duration_MTurk/v2_DepthDuration_HTML.html#62,62,1364,625,1364,768,8-29-2022,9-40-41,6,depth_duration_stimuli/000758_2014-06-08_22-05-08_260595134347_rgbf000085-resize_0/000758_2014-06-08_22-05-08_260595134347_rgbf000085-resize_0-target.png,250,3.3810000000000002,4,5192,254,feet,jsons/v1_VE250_randls_77_rotated.json,2478828,2661890,37,Woman
6,729944,DepthScenes,duration_manipulation_targetAtFixation,jsons/v1_VE250_randls_77_rotated.json,http://54.235.29.9/FacialAge/BNav_EC2/DepthDuration/v2_depth_duration_MTurk/v2_DepthDuration_HTML.html#62,62,1364,625,1364,768,8-29-2022,9-40-41,7,depth_duration_stimuli/002637_2014-06-24_14-51-13_094959634447_rgbf000066-resize_4/002637_2014-06-24_14-51-13_094959634447_rgbf000066-resize_4-target.png,250,1.9955,4,6685,255,feet,jsons/v1_VE250_randls_77_rotated.json,2478828,2661890,37,Woman
7,729944,DepthScenes,duration_manipulation_targetAtFixation,jsons/v1_VE250_randls_77_rotated.json,http://54.235.29.9/FacialAge/BNav_EC2/DepthDuration/v2_depth_duration_MTurk/v2_DepthDuration_HTML.html#62,62,1364,625,1364,768,8-29-2022,9-40-41,8,depth_duration_stimuli/003534_2014-05-22_15-06-10_094959634447_rgbf000102-resize_4/003534_2014-05-22_15-06-10_094959634447_rgbf000102-resize_4-target.png,250,1.426,1,5240,243,feet,jsons/v1_VE250_randls_77_rotated.json,2478828,2661890,37,Woman
8,729944,DepthScenes,duration_manipulation_targetAtFixation,jsons/v1_VE250_randls_77_rotated.json,http://54.235.29.9/FacialAge/BNav_EC2/DepthDuration/v2_depth_duration_MTurk/v2_DepthDuration_HTML.html#62,62,1364,625,1364,768,8-29-2022,9-40-41,9,depth_duration_stimuli/002660_2014-06-13_15-44-18_094959634447_rgbf001878-resize_2/002660_2014-06-13_15-44-18_094959634447_rgbf001878-resize_2-target.png,250,3.576,3,7069,246,feet,jsons/v1_VE250_randls_77_rotated.json,2478828,2661890,37,Woman
9,729944,DepthScenes,duration_manipulation_targetAtFixation,jsons/v1_VE250_randls_77_rotated.json,http://54.235.29.9/FacialAge/BNav_EC2/DepthDuration/v2_depth_duration_MTurk/v2_DepthDuration_HTML.html#62,62,1364,625,1364,768,8-29-2022,9-40-41,10,depth_duration_stimuli/002153_2014-06-25_21-27-18_260595134347_rgbf000038-resize_5/002153_2014-06-25_21-27-18_260595134347_rgbf000038-resize_5-target.png,250,2.505,2,8186,247,feet,jsons/v1_VE250_randls_77_rotated.json,2478828,2661890,37,Woman
10,729944,DepthScenes,duration_manipulation_targetAtFixation,jsons/v1_VE250_randls_77_rotated.json,http://54.235.29.9/FacialAge/BNav_EC2/DepthDuration/v2_depth_duration_MTurk/v2_DepthDuration_HTML.html#62,62,1364,625,1364,768,8-29-2022,9-40-41,11,depth_duration_stimuli/000665_2014-06-09_20-42-35_260595134347_rgbf000110-resize_1/000665_2014-06-09_20-42-35_260595134347_rgbf000110-resize_1-target.png,250,3.057,3,10543,252,feet,jsons/v1_VE250_randls_77_rotated.json,2478828,2661890,37,Woman
11,729944,DepthScenes,duration_manipulation_targetAtFixation,jsons/v1_VE250_randls_77_rotated.json,http://54.235.29.9/FacialAge/BNav_EC2/DepthDuration/v2_depth_duration_MTurk/v2_DepthDuration_HTML.html#62,62,1364,625,1364,768,8-29-2022,9-40-41,12,depth_duration_stimuli/001150_2014-06-17_15-27-34_260595134347_rgbf000108-resize_2/001150_2014-06-17_15-27-34_260595134347_rgbf000108-resize_2-target.png,250,4.0325,0,8659,247,feet,jsons/v1_VE250_randls_77_rotated.json,2478828,2661890,37,Woman
12,729944,DepthScenes,duration_manipulation_targetAtFixation,jsons/v1_VE250_randls_77_rotated.json,http://54.235.29.9/FacialAge/BNav_EC2/DepthDuration/v2_depth_duration_MTurk/v2_DepthDuration_HTML.html#62,62,1364,625,1364,768,8-29-2022,9-40-41,13,depth_duration_stimuli/000409_2014-06-04_19-23-33_260595134347_rgbf000067-resize_0/000409_2014-06-04_19-23-33_260595134347_rgbf000067-resize_0-target.png,250,3.7335,1,10797,250,feet,jsons/v1_VE250_randls_77_rotated.json,2478828,2661890,37,Woman
13,729944,DepthScenes,duration_manipulation_targetAtFixation,jsons/v1_VE250_randls_77_rotated.json,http://54.235.29.9/FacialAge/BNav_EC2/DepthDuration/v2_depth_duration_MTurk/v2_DepthDuration_HTML.html#62,62,1364,625,1364,768,8-29-2022,9-40-41,14,depth_duration_stimuli/002663_2014-06-13_15-50-26_094959634447_rgbf000075-resize_1/002663_2014-06-13_15-50-26_094959634447_rgbf000075-resize_1-target.png,250,4.7495,2,8434,243,feet,jsons/v1_VE250_randls_77_rotated.json,2478828,2661890,37,Woman
14,729944,DepthScenes,duration_manipulation_targetAtFixation,jsons/v1_VE250_randls_77_rotated.json,http://54.235.29.9/FacialAge/BNav_EC2/DepthDuration/v2_depth_duration_MTurk/v2_DepthDuration_HTML.html#62,62,1364,625,1364,768,8-29-2022,9-40-41,15,depth_duration_stimuli/003338_2014-05-20_11-01-23_094959634447_rgbf000051-resize_6/003338_2014-05-20_11-01-23_094959634447_rgbf000051-resize_6-target.png,250,1.693,1,15168,252,feet,jsons/v1_VE250_randls_77_rotated.json,2478828,2661890,37,Woman
15,729944,DepthScenes,duration_manipulation_targetAtFixation,jsons/v1_VE250_randls_77_rotated.json,http://54.235.29.9/FacialAge/BNav_EC2/DepthDuration/v2_depth_duration_MTurk/v2_DepthDuration_HTML.html#62,62,1364,625,1364,768,8-29-2022,9-40-41,16,depth_duration_stimuli/002509_2014-06-24_13-19-22_094959634447_rgbf000077-resize_0/002509_2014-06-24_13-19-22_094959634447_rgbf000077-resize_0-target.png,250,1.3065,2,5769,250,feet,jsons/v1_VE250_randls_77_rotated.json,2478828,2661890,37,Woman
16,729944,DepthScenes,duration_manipulation_targetAtFixation,jsons/v1_VE250_randls_77_rotated.json,http://54.235.29.9/FacialAge/BNav_EC2/DepthDuration/v2_depth_duration_MTurk/v2_DepthDuration_HTML.html#62,62,1364,625,1364,768,8-29-2022,9-40-41,17,depth_duration_stimuli/003228_2014-05-14_13-42-35_094959634447_rgbf000101-resize_1/003228_2014-05-14_13-42-35_094959634447_rgbf000101-resize_1-target.png,250,1.9680000000000002,2,13545,249,feet,jsons/v1_VE250_randls_77_rotated.json,2478828,2661890,37,Woman
17,729944,DepthScenes,duration_manipulation_targetAtFixation,jsons/v1_VE250_randls_77_rotated.json,http://54.235.29.9/FacialAge/BNav_EC2/DepthDuration/v2_depth_duration_MTurk/v2_DepthDuration_HTML.html#62,62,1364,625,1364,768,8-29-2022,9-40-41,18,depth_duration_stimuli/002600_2014-06-24_14-27-04_094959634447_rgbf000074-resize_2/002600_2014-06-24_14-27-04_094959634447_rgbf000074-resize_2-target.png,250,2.7575,2,86219,255,feet,jsons/v1_VE250_randls_77_rotated.json,2478828,2661890,37,Woman
18,729944,DepthScenes,duration_manipulation_targetAtFixation,jsons/v1_VE250_randls_77_rotated.json,http://54.235.29.9/FacialAge/BNav_EC2/DepthDuration/v2_depth_duration_MTurk/v2_DepthDuration_HTML.html#62,62,1364,625,1364,768,8-29-2022,9-40-41,19,depth_duration_stimuli/001498_2014-06-19_17-45-14_260595134347_rgbf000129-resize_4/001498_2014-06-19_17-45-14_260595134347_rgbf000129-resize-original.jpg,250,1.4075,0,9190,248,feet,jsons/v1_VE250_randls_77_rotated.json,2478828,2661890,37,Woman
19,729944,DepthScenes,duration_manipulation_targetAtFixation,jsons/v1_VE250_randls_77_rotated.json,http://54.235.29.9/FacialAge/BNav_EC2/DepthDuration/v2_depth_duration_MTurk/v2_DepthDuration_HTML.html#62,62,1364,625,1364,768,8-29-2022,9-40-41,20,depth_duration_stimuli/001100_2014-06-15_17-46-26_260595134347_rgbf000225-resize_2/001100_2014-06-15_17-46-26_260595134347_rgbf000225-resize_2-target.png,250,2.24,2,6855,249,feet,jsons/v1_VE250_randls_77_rotated.json,2478828,2661890,37,Woman
20,729944,DepthScenes,duration_manipulation_targetAtFixation,jsons/v1_VE250_randls_77_rotated.json,http://54.235.29.9/FacialAge/BNav_EC2/DepthDuration/v2_depth_duration_MTurk/v2_DepthDuration_HTML.html#62,62,1364,625,1364,768,8-29-2022,9-40-41,21,depth_duration_stimuli/002784_2014-06-22_19-26-30_094959634447_rgbf000083-resize_3/002784_2014-06-22_19-26-30_094959634447_rgbf000083-resize_3-target.png,250,1.8046666666667,2,9384,250,feet,jsons/v1_VE250_randls_77_rotated.json,2478828,2661890,37,Woman
21,729944,DepthScenes,duration_manipulation_targetAtFixation,jsons/v1_VE250_randls_77_rotated.json,http://54.235.29.9/FacialAge/BNav_EC2/DepthDuration/v2_depth_duration_MTurk/v2_DepthDuration_HTML.html#62,62,1364,625,1364,768,8-29-2022,9-40-41,22,depth_duration_stimuli/002199_2014-06-28_18-33-56_260595134347_rgbf000074-resize_0/002199_2014-06-28_18-33-56_260595134347_rgbf000074-resize_0-target.png,250,1.996,1,5682,285,feet,jsons/v1_VE250_randls_77_rotated.json,2478828,2661890,37,Woman
22,729944,DepthScenes,duration_manipulation_targetAtFixation,jsons/v1_VE250_randls_77_rotated.json,http://54.235.29.9/FacialAge/BNav_EC2/DepthDuration/v2_depth_duration_MTurk/v2_DepthDuration_HTML.html#62,62,1364,625,1364,768,8-29-2022,9-40-41,23,depth_duration_stimuli/001056_2014-06-08_18-46-44_260595134347_rgbf000068-resize_0/001056_2014-06-08_18-46-44_260595134347_rgbf000068-resize_0-target.png,250,2.6625,2,6989,249,feet,jsons/v1_VE250_randls_77_rotated.json,2478828,2661890,37,Woman
23,729944,DepthScenes,duration_manipulation_targetAtFixation,jsons/v1_VE250_randls_77_rotated.json,http://54.235.29.9/FacialAge/BNav_EC2/DepthDuration/v2_depth_duration_MTurk/v2_DepthDuration_HTML.html#62,62,1364,625,1364,768,8-29-2022,9-40-41,24,depth_duration_stimuli/002136_2014-06-25_21-18-03_260595134347_rgbf000109-resize_3/002136_2014-06-25_21-18-03_260595134347_rgbf000109-resize_3-target.png,250,1.9569999999999999,3,10980,263,feet,jsons/v1_VE250_randls_77_rotated.json,2478828,2661890,37,Woman
24,729944,DepthScenes,duration_manipulation_targetAtFixation,jsons/v1_VE250_randls_77_rotated.json,http://54.235.29.9/FacialAge/BNav_EC2/DepthDuration/v2_depth_duration_MTurk/v2_DepthDuration_HTML.html#62,62,1364,625,1364,768,8-29-2022,9-40-41,25,depth_duration_stimuli/002964_2014-06-08_17-46-11_094959634447_rgbf000091-resize_4/002964_2014-06-08_17-46-11_094959634447_rgbf000091-resize_4-target.png,250,1.6909999999999998,1,6131,244,feet,jsons/v1_VE250_randls_77_rotated.json,2478828,2661890,37,Woman
25,729944,DepthScenes,duration_manipulation_targetAtFixation,jsons/v1_VE250_randls_77_rotated.json,http://54.235.29.9/FacialAge/BNav_EC2/DepthDuration/v2_depth_duration_MTurk/v2_DepthDuration_HTML.html#62,62,1364,625,1364,768,8-29-2022,9-40-41,26,depth_duration_stimuli/001571_2014-06-20_17-21-32_260595134347_rgbf000089-resize_1/001571_2014-06-20_17-21-32_260595134347_rgbf000089-resize_1-target.png,250,1.86,3,11039,250,feet,jsons/v1_VE250_randls_77_rotated.json,2478828,2661890,37,Woman
26,729944,DepthScenes,duration_manipulation_targetAtFixation,jsons/v1_VE250_randls_77_rotated.json,http://54.235.29.9/FacialAge/BNav_EC2/DepthDuration/v2_depth_duration_MTurk/v2_DepthDuration_HTML.html#62,62,1364,625,1364,768,8-29-2022,9-40-41,27,depth_duration_stimuli/002272_2014-06-28_18-53-56_260595134347_rgbf000067-resize_2/002272_2014-06-28_18-53-56_260595134347_rgbf000067-resize_2-target.png,250,1.138,2,6749,248,feet,jsons/v1_VE250_randls_77_rotated.json,2478828,2661890,37,Woman
27,729944,DepthScenes,duration_manipulation_targetAtFixation,jsons/v1_VE250_randls_77_rotated.json,http://54.235.29.9/FacialAge/BNav_EC2/DepthDuration/v2_depth_duration_MTurk/v2_DepthDuration_HTML.html#62,62,1364,625,1364,768,8-29-2022,9-40-41,28,depth_duration_stimuli/002323_2014-06-28_20-01-54_260595134347_rgbf000051-resize_4/002323_2014-06-28_20-01-54_260595134347_rgbf000051-resize_4-target.png,250,3.7310000000000003,3,16834,249,feet,jsons/v1_VE250_randls_77_rotated.json,2478828,2661890,37,Woman
28,729944,DepthScenes,duration_manipulation_targetAtFixation,jsons/v1_VE250_randls_77_rotated.json,http://54.235.29.9/FacialAge/BNav_EC2/DepthDuration/v2_depth_duration_MTurk/v2_DepthDuration_HTML.html#62,62,1364,625,1364,768,8-29-2022,9-40-41,29,depth_duration_stimuli/000917_2014-06-09_22-45-29_260595134347_rgbf000149-resize_3/000917_2014-06-09_22-45-29_260595134347_rgbf000149-resize_3-target.png,250,4.1865,3,38457,248,feet,jsons/v1_VE250_randls_77_rotated.json,2478828,2661890,37,Woman
29,729944,DepthScenes,duration_manipulation_targetAtFixation,jsons/v1_VE250_randls_77_rotated.json,http://54.235.29.9/FacialAge/BNav_EC2/DepthDuration/v2_depth_duration_MTurk/v2_DepthDuration_HTML.html#62,62,1364,625,1364,768,8-29-2022,9-40-41,30,depth_duration_stimuli/002072_2014-06-24_21-48-06_260595134347_rgbf000115-resize_0/002072_2014-06-24_21-48-06_260595134347_rgbf000115-resize-original.jpg,250,4.702,3,78146,252,feet,jsons/v1_VE250_randls_77_rotated.json,2478828,2661890,37,Woman
30,729944,DepthScenes,duration_manipulation_targetAtFixation,jsons/v1_VE250_randls_77_rotated.json,http://54.235.29.9/FacialAge/BNav_EC2/DepthDuration/v2_depth_duration_MTurk/v2_DepthDuration_HTML.html#62,62,1364,625,1364,768,8-29-2022,9-40-41,31,depth_duration_stimuli/002425_2014-06-28_20-27-29_260595134347_rgbf000031-resize_8/002425_2014-06-28_20-27-29_260595134347_rgbf000031-resize_8-target.png,250,3.8960000000000004,4,10269,249,feet,jsons/v1_VE250_randls_77_rotated.json,2478828,2661890,37,Woman
31,729944,DepthScenes,duration_manipulation_targetAtFixation,jsons/v1_VE250_randls_77_rotated.json,http://54.235.29.9/FacialAge/BNav_EC2/DepthDuration/v2_depth_duration_MTurk/v2_DepthDuration_HTML.html#62,62,1364,625,1364,768,8-29-2022,9-40-41,32,depth_duration_stimuli/000642_2014-06-08_16-59-25_260595134347_rgbf000098-resize_2/000642_2014-06-08_16-59-25_260595134347_rgbf000098-resize_2-target.png,250,2.8815,2,4556,251,feet,jsons/v1_VE250_randls_77_rotated.json,2478828,2661890,37,Woman
32,729944,DepthScenes,duration_manipulation_targetAtFixation,jsons/v1_VE250_randls_77_rotated.json,http://54.235.29.9/FacialAge/BNav_EC2/DepthDuration/v2_depth_duration_MTurk/v2_DepthDuration_HTML.html#62,62,1364,625,1364,768,8-29-2022,9-40-41,33,depth_duration_stimuli/000457_2014-06-08_16-52-43_260595134347_rgbf000199-resize_1/000457_2014-06-08_16-52-43_260595134347_rgbf000199-resize_1-target.png,250,3.6489999999999996,4,6400,250,feet,jsons/v1_VE250_randls_77_rotated.json,2478828,2661890,37,Woman
33,729944,DepthScenes,duration_manipulation_targetAtFixation,jsons/v1_VE250_randls_77_rotated.json,http://54.235.29.9/FacialAge/BNav_EC2/DepthDuration/v2_depth_duration_MTurk/v2_DepthDuration_HTML.html#62,62,1364,625,1364,768,8-29-2022,9-40-41,34,depth_duration_stimuli/000929_2014-06-09_16-33-19_260595134347_rgbf000139-resize_0/000929_2014-06-09_16-33-19_260595134347_rgbf000139-resize_0-target.png,250,2.8680000000000003,2,4839,250,feet,jsons/v1_VE250_randls_77_rotated.json,2478828,2661890,37,Woman
34,729944,DepthScenes,duration_manipulation_targetAtFixation,jsons/v1_VE250_randls_77_rotated.json,http://54.235.29.9/FacialAge/BNav_EC2/DepthDuration/v2_depth_duration_MTurk/v2_DepthDuration_HTML.html#62,62,1364,625,1364,768,8-29-2022,9-40-41,35,depth_duration_stimuli/003079_2014-06-15_15-18-20_094959634447_rgbf000152-resize_8/003079_2014-06-15_15-18-20_094959634447_rgbf000152-resize_8-target.png,250,2.8775,5,6292,261,feet,jsons/v1_VE250_randls_77_rotated.json,2478828,2661890,37,Woman
35,729944,DepthScenes,duration_manipulation_targetAtFixation,jsons/v1_VE250_randls_77_rotated.json,http://54.235.29.9/FacialAge/BNav_EC2/DepthDuration/v2_depth_duration_MTurk/v2_DepthDuration_HTML.html#62,62,1364,625,1364,768,8-29-2022,9-40-41,36,depth_duration_stimuli/000506_2014-06-08_23-21-00_260595134347_rgbf000070-resize_7/000506_2014-06-08_23-21-00_260595134347_rgbf000070-resize_7-target.png,250,4.0585,6,6643,251,feet,jsons/v1_VE250_randls_77_rotated.json,2478828,2661890,37,Woman
36,729944,DepthScenes,duration_manipulation_targetAtFixation,jsons/v1_VE250_randls_77_rotated.json,http://54.235.29.9/FacialAge/BNav_EC2/DepthDuration/v2_depth_duration_MTurk/v2_DepthDuration_HTML.html#62,62,1364,625,1364,768,8-29-2022,9-40-41,37,depth_duration_stimuli/002344_2014-06-28_20-06-29_260595134347_rgbf000030-resize_1/002344_2014-06-28_20-06-29_260595134347_rgbf000030-resize_1-target.png,250,1.5795,2,9800,248,feet,jsons/v1_VE250_randls_77_rotated.json,2478828,2661890,37,Woman
37,729944,DepthScenes,duration_manipulation_targetAtFixation,jsons/v1_VE250_randls_77_rotated.json,http://54.235.29.9/FacialAge/BNav_EC2/DepthDuration/v2_depth_duration_MTurk/v2_DepthDuration_HTML.html#62,62,1364,625,1364,768,8-29-2022,9-40-41,38,depth_duration_stimuli/002725_2014-06-22_11-47-51_094959634447_rgbf000070-resize_1/002725_2014-06-22_11-47-51_094959634447_rgbf000070-resize_1-target.png,250,2.195,4,5966,252,feet,jsons/v1_VE250_randls_77_rotated.json,2478828,2661890,37,Woman
38,729944,DepthScenes,duration_manipulation_targetAtFixation,jsons/v1_VE250_randls_77_rotated.json,http://54.235.29.9/FacialAge/BNav_EC2/DepthDuration/v2_depth_duration_MTurk/v2_DepthDuration_HTML.html#62,62,1364,625,1364,768,8-29-2022,9-40-41,39,depth_duration_stimuli/002678_2014-06-13_16-15-32_094959634447_rgbf000151-resize_6/002678_2014-06-13_16-15-32_094959634447_rgbf000151-resize_6-target.png,250,2.1830000000000003,5,15471,248,feet,jsons/v1_VE250_randls_77_rotated.json,2478828,2661890,37,Woman
39,729944,DepthScenes,duration_manipulation_targetAtFixation,jsons/v1_VE250_randls_77_rotated.json,http://54.235.29.9/FacialAge/BNav_EC2/DepthDuration/v2_depth_duration_MTurk/v2_DepthDuration_HTML.html#62,62,1364,625,1364,768,8-29-2022,9-40-41,40,depth_duration_stimuli/000368_2014-06-09_15-53-01_260595134347_rgbf000155-resize_2/000368_2014-06-09_15-53-01_260595134347_rgbf000155-resize_2-target.png,250,2.4859999999999998,4,10838,247,feet,jsons/v1_VE250_randls_77_rotated.json,2478828,2661890,37,Woman
40,729944,DepthScenes,duration_manipulation_targetAtFixation,jsons/v1_VE250_randls_77_rotated.json,http://54.235.29.9/FacialAge/BNav_EC2/DepthDuration/v2_depth_duration_MTurk/v2_DepthDuration_HTML.html#62,62,1364,625,1364,768,8-29-2022,9-40-41,41,depth_duration_stimuli/001650_2014-06-20_12-09-00_260595134347_rgbf000087-resize_3/001650_2014-06-20_12-09-00_260595134347_rgbf000087-resize_3-target.png,250,1.9505,4,11417,243,feet,jsons/v1_VE250_randls_77_rotated.json,2478828,2661890,37,Woman
41,729944,DepthScenes,duration_manipulation_targetAtFixation,jsons/v1_VE250_randls_77_rotated.json,http://54.235.29.9/FacialAge/BNav_EC2/DepthDuration/v2_depth_duration_MTurk/v2_DepthDuration_HTML.html#62,62,1364,625,1364,768,8-29-2022,9-40-41,42,depth_duration_stimuli/000682_2014-06-08_23-14-58_260595134347_rgbf000041-resize_5/000682_2014-06-08_23-14-58_260595134347_rgbf000041-resize_5-target.png,250,2.7239999999999998,3,6122,248,feet,jsons/v1_VE250_randls_77_rotated.json,2478828,2661890,37,Woman
42,729944,DepthScenes,duration_manipulation_targetAtFixation,jsons/v1_VE250_randls_77_rotated.json,http://54.235.29.9/FacialAge/BNav_EC2/DepthDuration/v2_depth_duration_MTurk/v2_DepthDuration_HTML.html#62,62,1364,625,1364,768,8-29-2022,9-40-41,43,depth_duration_stimuli/003048_2014-06-15_13-49-43_094959634447_rgbf000150-resize_1/003048_2014-06-15_13-49-43_094959634447_rgbf000150-resize_1-target.png,250,4.0035,5,7699,251,feet,jsons/v1_VE250_randls_77_rotated.json,2478828,2661890,37,Woman
43,729944,DepthScenes,duration_manipulation_targetAtFixation,jsons/v1_VE250_randls_77_rotated.json,http://54.235.29.9/FacialAge/BNav_EC2/DepthDuration/v2_depth_duration_MTurk/v2_DepthDuration_HTML.html#62,62,1364,625,1364,768,8-29-2022,9-40-41,44,depth_duration_stimuli/002043_2014-06-24_20-29-38_260595134347_rgbf000039-resize_4/002043_2014-06-24_20-29-38_260595134347_rgbf000039-resize_4-target.png,250,2.8435,2,147292,248,feet,jsons/v1_VE250_randls_77_rotated.json,2478828,2661890,37,Woman
44,729944,DepthScenes,duration_manipulation_targetAtFixation,jsons/v1_VE250_randls_77_rotated.json,http://54.235.29.9/FacialAge/BNav_EC2/DepthDuration/v2_depth_duration_MTurk/v2_DepthDuration_HTML.html#62,62,1364,625,1364,768,8-29-2022,9-40-41,45,depth_duration_stimuli/000103_2014-05-14_22-01-17_260595134347_rgbf000152-resize_5/000103_2014-05-14_22-01-17_260595134347_rgbf000152-resize_5-target.png,250,1.993,4,10094,255,feet,jsons/v1_VE250_randls_77_rotated.json,2478828,2661890,37,Woman
45,729944,DepthScenes,duration_manipulation_targetAtFixation,jsons/v1_VE250_randls_77_rotated.json,http://54.235.29.9/FacialAge/BNav_EC2/DepthDuration/v2_depth_duration_MTurk/v2_DepthDuration_HTML.html#62,62,1364,625,1364,768,8-29-2022,9-40-41,46,depth_duration_stimuli/001555_2014-06-20_17-12-10_260595134347_rgbf000065-resize_4/001555_2014-06-20_17-12-10_260595134347_rgbf000065-resize_4-target.png,250,1.633,2,4219,250,feet,jsons/v1_VE250_randls_77_rotated.json,2478828,2661890,37,Woman
46,729944,DepthScenes,duration_manipulation_targetAtFixation,jsons/v1_VE250_randls_77_rotated.json,http://54.235.29.9/FacialAge/BNav_EC2/DepthDuration/v2_depth_duration_MTurk/v2_DepthDuration_HTML.html#62,62,1364,625,1364,768,8-29-2022,9-40-41,47,depth_duration_stimuli/002805_2014-06-22_19-54-03_094959634447_rgbf000079-resize_1/002805_2014-06-22_19-54-03_094959634447_rgbf000079-resize_1-target.png,250,3.1439999999999997,3,7086,236,feet,jsons/v1_VE250_randls_77_rotated.json,2478828,2661890,37,Woman
47,729944,DepthScenes,duration_manipulation_targetAtFixation,jsons/v1_VE250_randls_77_rotated.json,http://54.235.29.9/FacialAge/BNav_EC2/DepthDuration/v2_depth_duration_MTurk/v2_DepthDuration_HTML.html#62,62,1364,625,1364,768,8-29-2022,9-40-41,48,depth_duration_stimuli/000906_2014-06-08_13-35-43_260595134347_rgbf000155-resize_1/000906_2014-06-08_13-35-43_260595134347_rgbf000155-resize_1-target.png,250,2.8489999999999998,4,6039,251,feet,jsons/v1_VE250_randls_77_rotated.json,2478828,2661890,37,Woman
48,729944,DepthScenes,duration_manipulation_targetAtFixation,jsons/v1_VE250_randls_77_rotated.json,http://54.235.29.9/FacialAge/BNav_EC2/DepthDuration/v2_depth_duration_MTurk/v2_DepthDuration_HTML.html#62,62,1364,625,1364,768,8-29-2022,9-40-41,49,depth_duration_stimuli/001170_2014-06-17_15-43-44_260595134347_rgbf000096-resize_6/001170_2014-06-17_15-43-44_260595134347_rgbf000096-resize-original.jpg,250,1.1909999999999998,0,5998,249,feet,jsons/v1_VE250_randls_77_rotated.json,2478828,2661890,37,Woman
49,729944,DepthScenes,duration_manipulation_targetAtFixation,jsons/v1_VE250_randls_77_rotated.json,http://54.235.29.9/FacialAge/BNav_EC2/DepthDuration/v2_depth_duration_MTurk/v2_DepthDuration_HTML.html#62,62,1364,625,1364,768,8-29-2022,9-40-41,50,depth_duration_stimuli/002758_2014-06-22_19-11-20_094959634447_rgbf000128-resize_1/002758_2014-06-22_19-11-20_094959634447_rgbf000128-resize_1-target.png,250,2.555,3,6829,250,feet,jsons/v1_VE250_randls_77_rotated.json,2478828,2661890,37,Woman
50,729944,DepthScenes,duration_manipulation_targetAtFixation,jsons/v1_VE250_randls_77_rotated.json,http://54.235.29.9/FacialAge/BNav_EC2/DepthDuration/v2_depth_duration_MTurk/v2_DepthDuration_HTML.html#62,62,1364,625,1364,768,8-29-2022,9-40-41,51,depth_duration_stimuli/002630_2014-06-24_14-47-50_094959634447_rgbf000055-resize_1/002630_2014-06-24_14-47-50_094959634447_rgbf000055-resize_1-target.png,250,3.0095,3,5668,267,feet,jsons/v1_VE250_randls_77_rotated.json,2478828,2661890,37,Woman
51,729944,DepthScenes,duration_manipulation_targetAtFixation,jsons/v1_VE250_randls_77_rotated.json,http://54.235.29.9/FacialAge/BNav_EC2/DepthDuration/v2_depth_duration_MTurk/v2_DepthDuration_HTML.html#62,62,1364,625,1364,768,8-29-2022,9-40-41,52,depth_duration_stimuli/002953_2014-06-08_17-32-18_094959634447_rgbf000059-resize_5/002953_2014-06-08_17-32-18_094959634447_rgbf000059-resize_5-target.png,250,1.551,4,7334,248,feet,jsons/v1_VE250_randls_77_rotated.json,2478828,2661890,37,Woman
52,729944,DepthScenes,duration_manipulation_targetAtFixation,jsons/v1_VE250_randls_77_rotated.json,http://54.235.29.9/FacialAge/BNav_EC2/DepthDuration/v2_depth_duration_MTurk/v2_DepthDuration_HTML.html#62,62,1364,625,1364,768,8-29-2022,9-40-41,53,depth_duration_stimuli/000878_2014-06-08_22-52-45_260595134347_rgbf000045-resize_2/000878_2014-06-08_22-52-45_260595134347_rgbf000045-resize_2-target.png,250,2.092,0,5242,255,feet,jsons/v1_VE250_randls_77_rotated.json,2478828,2661890,37,Woman
53,729944,DepthScenes,duration_manipulation_targetAtFixation,jsons/v1_VE250_randls_77_rotated.json,http://54.235.29.9/FacialAge/BNav_EC2/DepthDuration/v2_depth_duration_MTurk/v2_DepthDuration_HTML.html#62,62,1364,625,1364,768,8-29-2022,9-40-41,54,depth_duration_stimuli/002568_2014-06-24_13-59-21_094959634447_rgbf000062-resize_4/002568_2014-06-24_13-59-21_094959634447_rgbf000062-resize_4-target.png,250,3.015,3,6992,239,feet,jsons/v1_VE250_randls_77_rotated.json,2478828,2661890,37,Woman
54,729944,DepthScenes,duration_manipulation_targetAtFixation,jsons/v1_VE250_randls_77_rotated.json,http://54.235.29.9/FacialAge/BNav_EC2/DepthDuration/v2_depth_duration_MTurk/v2_DepthDuration_HTML.html#62,62,1364,625,1364,768,8-29-2022,9-40-41,55,depth_duration_stimuli/003492_2014-05-21_15-50-55_094959634447_rgbf000828-resize_1/003492_2014-05-21_15-50-55_094959634447_rgbf000828-resize_1-target.png,250,4.06875,2,40123,249,feet,jsons/v1_VE250_randls_77_rotated.json,2478828,2661890,37,Woman
55,729944,DepthScenes,duration_manipulation_targetAtFixation,jsons/v1_VE250_randls_77_rotated.json,http://54.235.29.9/FacialAge/BNav_EC2/DepthDuration/v2_depth_duration_MTurk/v2_DepthDuration_HTML.html#62,62,1364,625,1364,768,8-29-2022,9-40-41,56,depth_duration_stimuli/000927_2014-06-09_16-32-30_260595134347_rgbf000123-resize_3/000927_2014-06-09_16-32-30_260595134347_rgbf000123-resize_3-target.png,250,2.6785,4,6449,260,feet,jsons/v1_VE250_randls_77_rotated.json,2478828,2661890,37,Woman
56,729944,DepthScenes,duration_manipulation_targetAtFixation,jsons/v1_VE250_randls_77_rotated.json,http://54.235.29.9/FacialAge/BNav_EC2/DepthDuration/v2_depth_duration_MTurk/v2_DepthDuration_HTML.html#62,62,1364,625,1364,768,8-29-2022,9-40-41,57,depth_duration_stimuli/001110_2014-06-15_17-25-28_260595134347_rgbf000150-resize_1/001110_2014-06-15_17-25-28_260595134347_rgbf000150-resize_1-target.png,250,1.7115,3,9530,250,feet,jsons/v1_VE250_randls_77_rotated.json,2478828,2661890,37,Woman
57,729944,DepthScenes,duration_manipulation_targetAtFixation,jsons/v1_VE250_randls_77_rotated.json,http://54.235.29.9/FacialAge/BNav_EC2/DepthDuration/v2_depth_duration_MTurk/v2_DepthDuration_HTML.html#62,62,1364,625,1364,768,8-29-2022,9-40-41,58,depth_duration_stimuli/002657_2014-06-13_15-29-54_094959634447_rgbf000150-resize_1/002657_2014-06-13_15-29-54_094959634447_rgbf000150-resize_1-target.png,250,4.919,2,7942,251,feet,jsons/v1_VE250_randls_77_rotated.json,2478828,2661890,37,Woman
58,729944,DepthScenes,duration_manipulation_targetAtFixation,jsons/v1_VE250_randls_77_rotated.json,http://54.235.29.9/FacialAge/BNav_EC2/DepthDuration/v2_depth_duration_MTurk/v2_DepthDuration_HTML.html#62,62,1364,625,1364,768,8-29-2022,9-40-41,59,depth_duration_stimuli/002375_2014-06-28_20-13-44_260595134347_rgbf000032-resize_1/002375_2014-06-28_20-13-44_260595134347_rgbf000032-resize_1-target.png,250,4.0175,2,7878,250,feet,jsons/v1_VE250_randls_77_rotated.json,2478828,2661890,37,Woman
59,729944,DepthScenes,duration_manipulation_targetAtFixation,jsons/v1_VE250_randls_77_rotated.json,http://54.235.29.9/FacialAge/BNav_EC2/DepthDuration/v2_depth_duration_MTurk/v2_DepthDuration_HTML.html#62,62,1364,625,1364,768,8-29-2022,9-40-41,60,depth_duration_stimuli/000109_2014-05-14_23-41-52_260595134347_rgbf000035-resize_9/000109_2014-05-14_23-41-52_260595134347_rgbf000035-resize_9-target.png,250,1.3545,3,24458,247,feet,jsons/v1_VE250_randls_77_rotated.json,2478828,2661890,37,Woman
60,729944,DepthScenes,duration_manipulation_targetAtFixation,jsons/v1_VE250_randls_77_rotated.json,http://54.235.29.9/FacialAge/BNav_EC2/DepthDuration/v2_depth_duration_MTurk/v2_DepthDuration_HTML.html#62,62,1364,625,1364,768,8-29-2022,9-40-41,61,depth_duration_stimuli/000470_2014-06-09_19-42-40_260595134347_rgbf000094-resize_1/000470_2014-06-09_19-42-40_260595134347_rgbf000094-resize_1-target.png,250,1.831,2,5020,249,feet,jsons/v1_VE250_randls_77_rotated.json,2478828,2661890,37,Woman
61,729944,DepthScenes,duration_manipulation_targetAtFixation,jsons/v1_VE250_randls_77_rotated.json,http://54.235.29.9/FacialAge/BNav_EC2/DepthDuration/v2_depth_duration_MTurk/v2_DepthDuration_HTML.html#62,62,1364,625,1364,768,8-29-2022,9-40-41,62,depth_duration_stimuli/002414_2014-06-28_20-24-58_260595134347_rgbf000067-resize_4/002414_2014-06-28_20-24-58_260595134347_rgbf000067-resize_4-target.png,250,4.363,3,10523,251,feet,jsons/v1_VE250_randls_77_rotated.json,2478828,2661890,37,Woman
62,729944,DepthScenes,duration_manipulation_targetAtFixation,jsons/v1_VE250_randls_77_rotated.json,http://54.235.29.9/FacialAge/BNav_EC2/DepthDuration/v2_depth_duration_MTurk/v2_DepthDuration_HTML.html#62,62,1364,625,1364,768,8-29-2022,9-40-41,63,depth_duration_stimuli/000773_2014-06-08_22-24-54_260595134347_rgbf000093-resize_1/000773_2014-06-08_22-24-54_260595134347_rgbf000093-resize_1-target.png,250,4.973,4,5703,254,feet,jsons/v1_VE250_randls_77_rotated.json,2478828,2661890,37,Woman
63,729944,DepthScenes,duration_manipulation_targetAtFixation,jsons/v1_VE250_randls_77_rotated.json,http://54.235.29.9/FacialAge/BNav_EC2/DepthDuration/v2_depth_duration_MTurk/v2_DepthDuration_HTML.html#62,62,1364,625,1364,768,8-29-2022,9-40-41,64,depth_duration_stimuli/002875_2014-06-01_15-19-00_094959634447_rgbf000151-resize_1/002875_2014-06-01_15-19-00_094959634447_rgbf000151-resize_1-target.png,250,1.9675,4,7330,237,feet,jsons/v1_VE250_randls_77_rotated.json,2478828,2661890,37,Woman
64,729944,DepthScenes,duration_manipulation_targetAtFixation,jsons/v1_VE250_randls_77_rotated.json,http://54.235.29.9/FacialAge/BNav_EC2/DepthDuration/v2_depth_duration_MTurk/v2_DepthDuration_HTML.html#62,62,1364,625,1364,768,8-29-2022,9-40-41,65,depth_duration_stimuli/001011_2014-06-08_23-18-54_260595134347_rgbf000044-resize_4/001011_2014-06-08_23-18-54_260595134347_rgbf000044-resize_4-target.png,250,2.4730000000000003,6,5570,250,feet,jsons/v1_VE250_randls_77_rotated.json,2478828,2661890,37,Woman
65,729944,DepthScenes,duration_manipulation_targetAtFixation,jsons/v1_VE250_randls_77_rotated.json,http://54.235.29.9/FacialAge/BNav_EC2/DepthDuration/v2_depth_duration_MTurk/v2_DepthDuration_HTML.html#62,62,1364,625,1364,768,8-29-2022,9-40-41,66,depth_duration_stimuli/001540_2014-06-20_17-01-05_260595134347_rgbf000086-resize_2/001540_2014-06-20_17-01-05_260595134347_rgbf000086-resize-original.jpg,250,1.459,3,13963,242,feet,jsons/v1_VE250_randls_77_rotated.json,2478828,2661890,37,Woman
66,729944,DepthScenes,duration_manipulation_targetAtFixation,jsons/v1_VE250_randls_77_rotated.json,http://54.235.29.9/FacialAge/BNav_EC2/DepthDuration/v2_depth_duration_MTurk/v2_DepthDuration_HTML.html#62,62,1364,625,1364,768,8-29-2022,9-40-41,67,depth_duration_stimuli/000749_2014-06-08_21-55-06_260595134347_rgbf000070-resize_2/000749_2014-06-08_21-55-06_260595134347_rgbf000070-resize_2-target.png,250,2.331,4,11593,250,feet,jsons/v1_VE250_randls_77_rotated.json,2478828,2661890,37,Woman
67,729944,DepthScenes,duration_manipulation_targetAtFixation,jsons/v1_VE250_randls_77_rotated.json,http://54.235.29.9/FacialAge/BNav_EC2/DepthDuration/v2_depth_duration_MTurk/v2_DepthDuration_HTML.html#62,62,1364,625,1364,768,8-29-2022,9-40-41,68,depth_duration_stimuli/002788_2014-06-22_19-36-03_094959634447_rgbf000088-resize_2/002788_2014-06-22_19-36-03_094959634447_rgbf000088-resize_2-target.png,250,1.6465,4,5549,250,feet,jsons/v1_VE250_randls_77_rotated.json,2478828,2661890,37,Woman
68,729944,DepthScenes,duration_manipulation_targetAtFixation,jsons/v1_VE250_randls_77_rotated.json,http://54.235.29.9/FacialAge/BNav_EC2/DepthDuration/v2_depth_duration_MTurk/v2_DepthDuration_HTML.html#62,62,1364,625,1364,768,8-29-2022,9-40-41,69,depth_duration_stimuli/001584_2014-06-20_11-07-43_260595134347_rgbf000002-resize_1/001584_2014-06-20_11-07-43_260595134347_rgbf000002-resize_1-target.png,250,3.53,6,9497,249,feet,jsons/v1_VE250_randls_77_rotated.json,2478828,2661890,37,Woman
69,729944,DepthScenes,duration_manipulation_targetAtFixation,jsons/v1_VE250_randls_77_rotated.json,http://54.235.29.9/FacialAge/BNav_EC2/DepthDuration/v2_depth_duration_MTurk/v2_DepthDuration_HTML.html#62,62,1364,625,1364,768,8-29-2022,9-40-41,70,depth_duration_stimuli/003621_2014-05-23_18-06-08_094959634447_rgbf000101-resize_1/003621_2014-05-23_18-06-08_094959634447_rgbf000101-resize_1-target.png,250,3.9835,5,6126,249,feet,jsons/v1_VE250_randls_77_rotated.json,2478828,2661890,37,Woman
70,729944,DepthScenes,duration_manipulation_targetAtFixation,jsons/v1_VE250_randls_77_rotated.json,http://54.235.29.9/FacialAge/BNav_EC2/DepthDuration/v2_depth_duration_MTurk/v2_DepthDuration_HTML.html#62,62,1364,625,1364,768,8-29-2022,9-40-41,71,depth_duration_stimuli/002209_2014-06-28_18-36-10_260595134347_rgbf000051-resize_1/002209_2014-06-28_18-36-10_260595134347_rgbf000051-resize_1-target.png,250,2.057,3,167975,249,feet,jsons/v1_VE250_randls_77_rotated.json,2478828,2661890,37,Woman
71,729944,DepthScenes,duration_manipulation_targetAtFixation,jsons/v1_VE250_randls_77_rotated.json,http://54.235.29.9/FacialAge/BNav_EC2/DepthDuration/v2_depth_duration_MTurk/v2_DepthDuration_HTML.html#62,62,1364,625,1364,768,8-29-2022,9-40-41,72,depth_duration_stimuli/002763_2014-06-22_19-13-10_094959634447_rgbf000075-resize_4/002763_2014-06-22_19-13-10_094959634447_rgbf000075-resize_4-target.png,250,1.68375,3,23408,250,feet,jsons/v1_VE250_randls_77_rotated.json,2478828,2661890,37,Woman
72,729944,DepthScenes,duration_manipulation_targetAtFixation,jsons/v1_VE250_randls_77_rotated.json,http://54.235.29.9/FacialAge/BNav_EC2/DepthDuration/v2_depth_duration_MTurk/v2_DepthDuration_HTML.html#62,62,1364,625,1364,768,8-29-2022,9-40-41,73,depth_duration_stimuli/000742_2014-06-08_18-48-09_260595134347_rgbf000164-resize_4/000742_2014-06-08_18-48-09_260595134347_rgbf000164-resize_4-target.png,250,4.632,3,11258,248,feet,jsons/v1_VE250_randls_77_rotated.json,2478828,2661890,37,Woman
73,729944,DepthScenes,duration_manipulation_targetAtFixation,jsons/v1_VE250_randls_77_rotated.json,http://54.235.29.9/FacialAge/BNav_EC2/DepthDuration/v2_depth_duration_MTurk/v2_DepthDuration_HTML.html#62,62,1364,625,1364,768,8-29-2022,9-40-41,74,depth_duration_stimuli/001066_2014-06-08_22-03-20_260595134347_rgbf000066-resize_4/001066_2014-06-08_22-03-20_260595134347_rgbf000066-resize_4-target.png,250,4.2330000000000005,2,10230,250,feet,jsons/v1_VE250_randls_77_rotated.json,2478828,2661890,37,Woman
74,729944,DepthScenes,duration_manipulation_targetAtFixation,jsons/v1_VE250_randls_77_rotated.json,http://54.235.29.9/FacialAge/BNav_EC2/DepthDuration/v2_depth_duration_MTurk/v2_DepthDuration_HTML.html#62,62,1364,625,1364,768,8-29-2022,9-40-41,75,depth_duration_stimuli/001136_2014-06-17_15-19-41_260595134347_rgbf000076-resize_3/001136_2014-06-17_15-19-41_260595134347_rgbf000076-resize_3-target.png,250,1.8655,3,8967,251,feet,jsons/v1_VE250_randls_77_rotated.json,2478828,2661890,37,Woman
75,729944,DepthScenes,duration_manipulation_targetAtFixation,jsons/v1_VE250_randls_77_rotated.json,http://54.235.29.9/FacialAge/BNav_EC2/DepthDuration/v2_depth_duration_MTurk/v2_DepthDuration_HTML.html#62,62,1364,625,1364,768,8-29-2022,9-40-41,76,depth_duration_stimuli/001164_2014-06-17_15-35-46_260595134347_rgbf000085-resize_3/001164_2014-06-17_15-35-46_260595134347_rgbf000085-resize_3-target.png,250,2.354,2,5473,221,feet,jsons/v1_VE250_randls_77_rotated.json,2478828,2661890,37,Woman
76,729944,DepthScenes,duration_manipulation_targetAtFixation,jsons/v1_VE250_randls_77_rotated.json,http://54.235.29.9/FacialAge/BNav_EC2/DepthDuration/v2_depth_duration_MTurk/v2_DepthDuration_HTML.html#62,62,1364,625,1364,768,8-29-2022,9-40-41,77,depth_duration_stimuli/001094_2014-06-15_17-36-00_260595134347_rgbf000205-resize_0/001094_2014-06-15_17-36-00_260595134347_rgbf000205-resize_0-target.png,250,4.2175,3,10638,251,feet,jsons/v1_VE250_randls_77_rotated.json,2478828,2661890,37,Woman
77,729944,DepthScenes,duration_manipulation_targetAtFixation,jsons/v1_VE250_randls_77_rotated.json,http://54.235.29.9/FacialAge/BNav_EC2/DepthDuration/v2_depth_duration_MTurk/v2_DepthDuration_HTML.html#62,62,1364,625,1364,768,8-29-2022,9-40-41,78,depth_duration_stimuli/000692_2014-06-08_13-09-42_260595134347_rgbf000199-resize_2/000692_2014-06-08_13-09-42_260595134347_rgbf000199-resize_2-target.png,250,3.661,3,6524,249,feet,jsons/v1_VE250_randls_77_rotated.json,2478828,2661890,37,Woman
78,729944,DepthScenes,duration_manipulation_targetAtFixation,jsons/v1_VE250_randls_77_rotated.json,http://54.235.29.9/FacialAge/BNav_EC2/DepthDuration/v2_depth_duration_MTurk/v2_DepthDuration_HTML.html#62,62,1364,625,1364,768,8-29-2022,9-40-41,79,depth_duration_stimuli/000677_2014-06-08_23-10-32_260595134347_rgbf000158-resize_6/000677_2014-06-08_23-10-32_260595134347_rgbf000158-resize_6-target.png,250,3.556,3,7263,257,feet,jsons/v1_VE250_randls_77_rotated.json,2478828,2661890,37,Woman
79,729944,DepthScenes,duration_manipulation_targetAtFixation,jsons/v1_VE250_randls_77_rotated.json,http://54.235.29.9/FacialAge/BNav_EC2/DepthDuration/v2_depth_duration_MTurk/v2_DepthDuration_HTML.html#62,62,1364,625,1364,768,8-29-2022,9-40-41,80,depth_duration_stimuli/001029_2014-06-08_13-17-57_260595134347_rgbf000065-resize_1/001029_2014-06-08_13-17-57_260595134347_rgbf000065-resize_1-target.png,250,3.0835,4,6222,249,feet,jsons/v1_VE250_randls_77_rotated.json,2478828,2661890,37,Woman
80,729944,DepthScenes,duration_manipulation_targetAtFixation,jsons/v1_VE250_randls_77_rotated.json,http://54.235.29.9/FacialAge/BNav_EC2/DepthDuration/v2_depth_duration_MTurk/v2_DepthDuration_HTML.html#62,62,1364,625,1364,768,8-29-2022,9-40-41,81,depth_duration_stimuli/000780_2014-06-08_22-28-29_260595134347_rgbf000126-resize_1/000780_2014-06-08_22-28-29_260595134347_rgbf000126-resize_1-target.png,250,3.3825,4,7955,253,feet,jsons/v1_VE250_randls_77_rotated.json,2478828,2661890,37,Woman
81,729944,DepthScenes,duration_manipulation_targetAtFixation,jsons/v1_VE250_randls_77_rotated.json,http://54.235.29.9/FacialAge/BNav_EC2/DepthDuration/v2_depth_duration_MTurk/v2_DepthDuration_HTML.html#62,62,1364,625,1364,768,8-29-2022,9-40-41,82,depth_duration_stimuli/002445_2014-06-28_20-32-16_260595134347_rgbf000029-resize_4/002445_2014-06-28_20-32-16_260595134347_rgbf000029-resize_4-target.png,250,2.5315,3,6546,245,feet,jsons/v1_VE250_randls_77_rotated.json,2478828,2661890,37,Woman
82,729944,DepthScenes,duration_manipulation_targetAtFixation,jsons/v1_VE250_randls_77_rotated.json,http://54.235.29.9/FacialAge/BNav_EC2/DepthDuration/v2_depth_duration_MTurk/v2_DepthDuration_HTML.html#62,62,1364,625,1364,768,8-29-2022,9-40-41,83,depth_duration_stimuli/000483_2014-06-09_20-41-45_260595134347_rgbf000116-resize_4/000483_2014-06-09_20-41-45_260595134347_rgbf000116-resize_4-target.png,250,1.337,3,10417,249,feet,jsons/v1_VE250_randls_77_rotated.json,2478828,2661890,37,Woman
83,729944,DepthScenes,duration_manipulation_targetAtFixation,jsons/v1_VE250_randls_77_rotated.json,http://54.235.29.9/FacialAge/BNav_EC2/DepthDuration/v2_depth_duration_MTurk/v2_DepthDuration_HTML.html#62,62,1364,625,1364,768,8-29-2022,9-40-41,84,depth_duration_stimuli/000469_2014-06-09_19-42-10_260595134347_rgbf000081-resize_1/000469_2014-06-09_19-42-10_260595134347_rgbf000081-resize_1-target.png,250,1.652,3,16755,250,feet,jsons/v1_VE250_randls_77_rotated.json,2478828,2661890,37,Woman
84,729944,DepthScenes,duration_manipulation_targetAtFixation,jsons/v1_VE250_randls_77_rotated.json,http://54.235.29.9/FacialAge/BNav_EC2/DepthDuration/v2_depth_duration_MTurk/v2_DepthDuration_HTML.html#62,62,1364,625,1364,768,8-29-2022,9-40-41,85,depth_duration_stimuli/000502_2014-06-08_23-02-32_260595134347_rgbf000063-resize_4/000502_2014-06-08_23-02-32_260595134347_rgbf000063-resize_4-target.png,250,2.431,2,85569,231,feet,jsons/v1_VE250_randls_77_rotated.json,2478828,2661890,37,Woman
85,729944,DepthScenes,duration_manipulation_targetAtFixation,jsons/v1_VE250_randls_77_rotated.json,http://54.235.29.9/FacialAge/BNav_EC2/DepthDuration/v2_depth_duration_MTurk/v2_DepthDuration_HTML.html#62,62,1364,625,1364,768,8-29-2022,9-40-41,86,depth_duration_stimuli/001199_2014-06-17_16-03-48_260595134347_rgbf000077-resize_0/001199_2014-06-17_16-03-48_260595134347_rgbf000077-resize_0-target.png,250,3.4375,4,13193,269,feet,jsons/v1_VE250_randls_77_rotated.json,2478828,2661890,37,Woman
86,729944,DepthScenes,duration_manipulation_targetAtFixation,jsons/v1_VE250_randls_77_rotated.json,http://54.235.29.9/FacialAge/BNav_EC2/DepthDuration/v2_depth_duration_MTurk/v2_DepthDuration_HTML.html#62,62,1364,625,1364,768,8-29-2022,9-40-41,87,depth_duration_stimuli/000137_2014-05-20_17-04-49_260595134347_rgbf000120-resize_1/000137_2014-05-20_17-04-49_260595134347_rgbf000120-resize_1-target.png,250,3.786,4,9706,250,feet,jsons/v1_VE250_randls_77_rotated.json,2478828,2661890,37,Woman
87,729944,DepthScenes,duration_manipulation_targetAtFixation,jsons/v1_VE250_randls_77_rotated.json,http://54.235.29.9/FacialAge/BNav_EC2/DepthDuration/v2_depth_duration_MTurk/v2_DepthDuration_HTML.html#62,62,1364,625,1364,768,8-29-2022,9-40-41,88,depth_duration_stimuli/000736_2014-06-08_18-24-15_260595134347_rgbf000206-resize_3/000736_2014-06-08_18-24-15_260595134347_rgbf000206-resize_3-target.png,250,3.515,3,3813,251,feet,jsons/v1_VE250_randls_77_rotated.json,2478828,2661890,37,Woman
88,729944,DepthScenes,duration_manipulation_targetAtFixation,jsons/v1_VE250_randls_77_rotated.json,http://54.235.29.9/FacialAge/BNav_EC2/DepthDuration/v2_depth_duration_MTurk/v2_DepthDuration_HTML.html#62,62,1364,625,1364,768,8-29-2022,9-40-41,89,depth_duration_stimuli/003490_2014-05-21_15-50-11_094959634447_rgbf000101-resize_3/003490_2014-05-21_15-50-11_094959634447_rgbf000101-resize_3-target.png,250,3.6445,4,6431,248,feet,jsons/v1_VE250_randls_77_rotated.json,2478828,2661890,37,Woman
89,729944,DepthScenes,duration_manipulation_targetAtFixation,jsons/v1_VE250_randls_77_rotated.json,http://54.235.29.9/FacialAge/BNav_EC2/DepthDuration/v2_depth_duration_MTurk/v2_DepthDuration_HTML.html#62,62,1364,625,1364,768,8-29-2022,9-40-41,90,depth_duration_stimuli/001175_2014-06-17_15-45-55_260595134347_rgbf000129-resize_4/001175_2014-06-17_15-45-55_260595134347_rgbf000129-resize_4-target.png,250,4.255,5,5250,255,feet,jsons/v1_VE250_randls_77_rotated.json,2478828,2661890,37,Woman
90,729944,DepthScenes,duration_manipulation_targetAtFixation,jsons/v1_VE250_randls_77_rotated.json,http://54.235.29.9/FacialAge/BNav_EC2/DepthDuration/v2_depth_duration_MTurk/v2_DepthDuration_HTML.html#62,62,1364,625,1364,768,8-29-2022,9-40-41,91,depth_duration_stimuli/001447_2014-06-19_17-00-32_260595134347_rgbf000082-resize_5/001447_2014-06-19_17-00-32_260595134347_rgbf000082-resize_5-target.png,250,4.13775,3,8740,283,feet,jsons/v1_VE250_randls_77_rotated.json,2478828,2661890,37,Woman
91,729944,DepthScenes,duration_manipulation_targetAtFixation,jsons/v1_VE250_randls_77_rotated.json,http://54.235.29.9/FacialAge/BNav_EC2/DepthDuration/v2_depth_duration_MTurk/v2_DepthDuration_HTML.html#62,62,1364,625,1364,768,8-29-2022,9-40-41,92,depth_duration_stimuli/000447_2014-06-08_16-15-46_260595134347_rgbf000130-resize_1/000447_2014-06-08_16-15-46_260595134347_rgbf000130-resize_1-target.png,250,4.479,3,3913,199,feet,jsons/v1_VE250_randls_77_rotated.json,2478828,2661890,37,Woman
92,729944,DepthScenes,duration_manipulation_targetAtFixation,jsons/v1_VE250_randls_77_rotated.json,http://54.235.29.9/FacialAge/BNav_EC2/DepthDuration/v2_depth_duration_MTurk/v2_DepthDuration_HTML.html#62,62,1364,625,1364,768,8-29-2022,9-40-41,93,depth_duration_stimuli/000191_2014-05-12_17-07-38_260595134347_rgbf000199-resize_0/000191_2014-05-12_17-07-38_260595134347_rgbf000199-resize_0-target.png,250,3.7995,6,5998,251,feet,jsons/v1_VE250_randls_77_rotated.json,2478828,2661890,37,Woman
93,729944,DepthScenes,duration_manipulation_targetAtFixation,jsons/v1_VE250_randls_77_rotated.json,http://54.235.29.9/FacialAge/BNav_EC2/DepthDuration/v2_depth_duration_MTurk/v2_DepthDuration_HTML.html#62,62,1364,625,1364,768,8-29-2022,9-40-41,94,depth_duration_stimuli/000493_2014-06-09_21-01-18_260595134347_rgbf000196-resize_3/000493_2014-06-09_21-01-18_260595134347_rgbf000196-resize_3-target.png,250,3.44,5,4482,250,feet,jsons/v1_VE250_randls_77_rotated.json,2478828,2661890,37,Woman
94,729944,DepthScenes,duration_manipulation_targetAtFixation,jsons/v1_VE250_randls_77_rotated.json,http://54.235.29.9/FacialAge/BNav_EC2/DepthDuration/v2_depth_duration_MTurk/v2_DepthDuration_HTML.html#62,62,1364,625,1364,768,8-29-2022,9-40-41,95,depth_duration_stimuli/001828_2014-06-26_21-40-03_260595134347_rgbf000024-resize_0/001828_2014-06-26_21-40-03_260595134347_rgbf000024-resize_0-target.png,250,4.8260000000000005,5,9785,250,feet,jsons/v1_VE250_randls_77_rotated.json,2478828,2661890,37,Woman
95,729944,DepthScenes,duration_manipulation_targetAtFixation,jsons/v1_VE250_randls_77_rotated.json,http://54.235.29.9/FacialAge/BNav_EC2/DepthDuration/v2_depth_duration_MTurk/v2_DepthDuration_HTML.html#62,62,1364,625,1364,768,8-29-2022,9-40-41,96,depth_duration_stimuli/000009_2014-05-26_14-32-05_260595134347_rgbf000034-resize_3/000009_2014-05-26_14-32-05_260595134347_rgbf000034-resize_3-target.png,250,3.8715,6,5223,249,feet,jsons/v1_VE250_randls_77_rotated.json,2478828,2661890,37,Woman
96,729944,DepthScenes,duration_manipulation_targetAtFixation,jsons/v1_VE250_randls_77_rotated.json,http://54.235.29.9/FacialAge/BNav_EC2/DepthDuration/v2_depth_duration_MTurk/v2_DepthDuration_HTML.html#62,62,1364,625,1364,768,8-29-2022,9-40-41,97,depth_duration_stimuli/001617_2014-06-20_11-35-32_260595134347_rgbf000066-resize_1/001617_2014-06-20_11-35-32_260595134347_rgbf000066-resize_1-target.png,250,3.7910000000000004,5,7547,254,feet,jsons/v1_VE250_randls_77_rotated.json,2478828,2661890,37,Woman
97,729944,DepthScenes,duration_manipulation_targetAtFixation,jsons/v1_VE250_randls_77_rotated.json,http://54.235.29.9/FacialAge/BNav_EC2/DepthDuration/v2_depth_duration_MTurk/v2_DepthDuration_HTML.html#62,62,1364,625,1364,768,8-29-2022,9-40-41,98,depth_duration_stimuli/001806_2014-06-26_20-50-20_260595134347_rgbf000091-resize_1/001806_2014-06-26_20-50-20_260595134347_rgbf000091-resize_1-target.png,250,2.7305,2,8037,244,feet,jsons/v1_VE250_randls_77_rotated.json,2478828,2661890,37,Woman
98,729944,DepthScenes,duration_manipulation_targetAtFixation,jsons/v1_VE250_randls_77_rotated.json,http://54.235.29.9/FacialAge/BNav_EC2/DepthDuration/v2_depth_duration_MTurk/v2_DepthDuration_HTML.html#62,62,1364,625,1364,768,8-29-2022,9-40-41,99,depth_duration_stimuli/001222_2014-06-17_16-24-06_260595134347_rgbf000073-resize_0/001222_2014-06-17_16-24-06_260595134347_rgbf000073-resize-original.jpg,250,1.4385,0,8034,249,feet,jsons/v1_VE250_randls_77_rotated.json,2478828,2661890,37,Woman
99,729944,DepthScenes,duration_manipulation_targetAtFixation,jsons/v1_VE250_randls_77_rotated.json,http://54.235.29.9/FacialAge/BNav_EC2/DepthDuration/v2_depth_duration_MTurk/v2_DepthDuration_HTML.html#62,62,1364,625,1364,768,8-29-2022,9-40-41,100,depth_duration_stimuli/002750_2014-06-22_19-08-03_094959634447_rgbf000094-resize_4/002750_2014-06-22_19-08-03_094959634447_rgbf000094-resize_4-target.png,250,2.354,3,5132,249,feet,jsons/v1_VE250_randls_77_rotated.json,2478828,2661890,37,Woman
100,729944,DepthScenes,duration_manipulation_targetAtFixation,jsons/v1_VE250_randls_77_rotated.json,http://54.235.29.9/FacialAge/BNav_EC2/DepthDuration/v2_depth_duration_MTurk/v2_DepthDuration_HTML.html#62,62,1364,625,1364,768,8-29-2022,9-40-41,101,depth_duration_stimuli/002549_2014-06-24_13-41-39_094959634447_rgbf000022-resize_3/002549_2014-06-24_13-41-39_094959634447_rgbf000022-resize_3-target.png,250,1.476,3,6927,250,feet,jsons/v1_VE250_randls_77_rotated.json,2478828,2661890,37,Woman
101,729944,DepthScenes,duration_manipulation_targetAtFixation,jsons/v1_VE250_randls_77_rotated.json,http://54.235.29.9/FacialAge/BNav_EC2/DepthDuration/v2_depth_duration_MTurk/v2_DepthDuration_HTML.html#62,62,1364,625,1364,768,8-29-2022,9-40-41,102,depth_duration_stimuli/001450_2014-06-19_17-02-03_260595134347_rgbf000203-resize_4/001450_2014-06-19_17-02-03_260595134347_rgbf000203-resize_4-target.png,250,4.0106666666667,3,8823,260,feet,jsons/v1_VE250_randls_77_rotated.json,2478828,2661890,37,Woman
102,729944,DepthScenes,duration_manipulation_targetAtFixation,jsons/v1_VE250_randls_77_rotated.json,http://54.235.29.9/FacialAge/BNav_EC2/DepthDuration/v2_depth_duration_MTurk/v2_DepthDuration_HTML.html#62,62,1364,625,1364,768,8-29-2022,9-40-41,103,depth_duration_stimuli/001449_2014-06-19_17-01-27_260595134347_rgbf000116-resize_2/001449_2014-06-19_17-01-27_260595134347_rgbf000116-resize_2-target.png,250,3.452,3,5178,241,feet,jsons/v1_VE250_randls_77_rotated.json,2478828,2661890,37,Woman
103,729944,DepthScenes,duration_manipulation_targetAtFixation,jsons/v1_VE250_randls_77_rotated.json,http://54.235.29.9/FacialAge/BNav_EC2/DepthDuration/v2_depth_duration_MTurk/v2_DepthDuration_HTML.html#62,62,1364,625,1364,768,8-29-2022,9-40-41,104,depth_duration_stimuli/002103_2014-06-25_20-00-40_260595134347_rgbf000049-resize_0/002103_2014-06-25_20-00-40_260595134347_rgbf000049-resize_0-target.png,250,4.105,3,6293,251,feet,jsons/v1_VE250_randls_77_rotated.json,2478828,2661890,37,Woman
104,729944,DepthScenes,duration_manipulation_targetAtFixation,jsons/v1_VE250_randls_77_rotated.json,http://54.235.29.9/FacialAge/BNav_EC2/DepthDuration/v2_depth_duration_MTurk/v2_DepthDuration_HTML.html#62,62,1364,625,1364,768,8-29-2022,9-40-41,105,depth_duration_stimuli/002039_2014-06-24_20-22-38_260595134347_rgbf000084-resize_1/002039_2014-06-24_20-22-38_260595134347_rgbf000084-resize_1-target.png,250,4.408,2,6492,248,feet,jsons/v1_VE250_randls_77_rotated.json,2478828,2661890,37,Woman
105,729944,DepthScenes,duration_manipulation_targetAtFixation,jsons/v1_VE250_randls_77_rotated.json,http://54.235.29.9/FacialAge/BNav_EC2/DepthDuration/v2_depth_duration_MTurk/v2_DepthDuration_HTML.html#62,62,1364,625,1364,768,8-29-2022,9-40-41,106,depth_duration_stimuli/001052_2014-06-08_18-24-54_260595134347_rgbf000130-resize_1/001052_2014-06-08_18-24-54_260595134347_rgbf000130-resize_1-target.png,250,4.1045,3,8997,249,feet,jsons/v1_VE250_randls_77_rotated.json,2478828,2661890,37,Woman
106,729944,DepthScenes,duration_manipulation_targetAtFixation,jsons/v1_VE250_randls_77_rotated.json,http://54.235.29.9/FacialAge/BNav_EC2/DepthDuration/v2_depth_duration_MTurk/v2_DepthDuration_HTML.html#62,62,1364,625,1364,768,8-29-2022,9-40-41,107,depth_duration_stimuli/002988_2014-06-15_12-24-20_094959634447_rgbf000150-resize_1/002988_2014-06-15_12-24-20_094959634447_rgbf000150-resize_1-target.png,250,4.7669999999999995,4,5442,243,feet,jsons/v1_VE250_randls_77_rotated.json,2478828,2661890,37,Woman
107,729944,DepthScenes,duration_manipulation_targetAtFixation,jsons/v1_VE250_randls_77_rotated.json,http://54.235.29.9/FacialAge/BNav_EC2/DepthDuration/v2_depth_duration_MTurk/v2_DepthDuration_HTML.html#62,62,1364,625,1364,768,8-29-2022,9-40-41,108,depth_duration_stimuli/000943_2014-06-09_19-31-07_260595134347_rgbf000128-resize_1/000943_2014-06-09_19-31-07_260595134347_rgbf000128-resize_1-target.png,250,1.9765,5,8449,253,feet,jsons/v1_VE250_randls_77_rotated.json,2478828,2661890,37,Woman
108,729944,DepthScenes,duration_manipulation_targetAtFixation,jsons/v1_VE250_randls_77_rotated.json,http://54.235.29.9/FacialAge/BNav_EC2/DepthDuration/v2_depth_duration_MTurk/v2_DepthDuration_HTML.html#62,62,1364,625,1364,768,8-29-2022,9-40-41,109,depth_duration_stimuli/003070_2014-06-15_14-58-27_094959634447_rgbf000150-resize_3/003070_2014-06-15_14-58-27_094959634447_rgbf000150-resize_3-target.png,250,2.9415,2,9660,260,feet,jsons/v1_VE250_randls_77_rotated.json,2478828,2661890,37,Woman
109,729944,DepthScenes,duration_manipulation_targetAtFixation,jsons/v1_VE250_randls_77_rotated.json,http://54.235.29.9/FacialAge/BNav_EC2/DepthDuration/v2_depth_duration_MTurk/v2_DepthDuration_HTML.html#62,62,1364,625,1364,768,8-29-2022,9-40-41,110,depth_duration_stimuli/000734_2014-06-08_17-39-11_260595134347_rgbf000128-resize_2/000734_2014-06-08_17-39-11_260595134347_rgbf000128-resize_2-target.png,250,4.098,3,5629,228,feet,jsons/v1_VE250_randls_77_rotated.json,2478828,2661890,37,Woman
110,729944,DepthScenes,duration_manipulation_targetAtFixation,jsons/v1_VE250_randls_77_rotated.json,http://54.235.29.9/FacialAge/BNav_EC2/DepthDuration/v2_depth_duration_MTurk/v2_DepthDuration_HTML.html#62,62,1364,625,1364,768,8-29-2022,9-40-41,111,depth_duration_stimuli/000739_2014-06-08_18-45-58_260595134347_rgbf000068-resize_1/000739_2014-06-08_18-45-58_260595134347_rgbf000068-resize_1-target.png,250,3.534,3,4273,250,feet,jsons/v1_VE250_randls_77_rotated.json,2478828,2661890,37,Woman
111,729944,DepthScenes,duration_manipulation_targetAtFixation,jsons/v1_VE250_randls_77_rotated.json,http://54.235.29.9/FacialAge/BNav_EC2/DepthDuration/v2_depth_duration_MTurk/v2_DepthDuration_HTML.html#62,62,1364,625,1364,768,8-29-2022,9-40-41,112,depth_duration_stimuli/003010_2014-06-15_12-54-35_094959634447_rgbf000112-resize_0/003010_2014-06-15_12-54-35_094959634447_rgbf000112-resize_0-target.png,250,3.1185,4,5918,237,feet,jsons/v1_VE250_randls_77_rotated.json,2478828,2661890,37,Woman
112,729944,DepthScenes,duration_manipulation_targetAtFixation,jsons/v1_VE250_randls_77_rotated.json,http://54.235.29.9/FacialAge/BNav_EC2/DepthDuration/v2_depth_duration_MTurk/v2_DepthDuration_HTML.html#62,62,1364,625,1364,768,8-29-2022,9-40-41,113,depth_duration_stimuli/001810_2014-06-26_20-51-35_260595134347_rgbf000040-resize_3/001810_2014-06-26_20-51-35_260595134347_rgbf000040-resize_3-target.png,250,2.2525,2,78496,236,feet,jsons/v1_VE250_randls_77_rotated.json,2478828,2661890,37,Woman
113,729944,DepthScenes,duration_manipulation_targetAtFixation,jsons/v1_VE250_randls_77_rotated.json,http://54.235.29.9/FacialAge/BNav_EC2/DepthDuration/v2_depth_duration_MTurk/v2_DepthDuration_HTML.html#62,62,1364,625,1364,768,8-29-2022,9-40-41,114,depth_duration_stimuli/001132_2014-06-17_14-48-54_260595134347_rgbf000100-resize_2/001132_2014-06-17_14-48-54_260595134347_rgbf000100-resize_2-target.png,250,3.753,3,66289,255,feet,jsons/v1_VE250_randls_77_rotated.json,2478828,2661890,37,Woman
114,729944,DepthScenes,duration_manipulation_targetAtFixation,jsons/v1_VE250_randls_77_rotated.json,http://54.235.29.9/FacialAge/BNav_EC2/DepthDuration/v2_depth_duration_MTurk/v2_DepthDuration_HTML.html#62,62,1364,625,1364,768,8-29-2022,9-40-41,115,depth_duration_stimuli/001133_2014-06-17_14-49-16_260595134347_rgbf000100-resize_0/001133_2014-06-17_14-49-16_260595134347_rgbf000100-resize_0-target.png,250,4.2115,3,15374,249,feet,jsons/v1_VE250_randls_77_rotated.json,2478828,2661890,37,Woman
115,729944,DepthScenes,duration_manipulation_targetAtFixation,jsons/v1_VE250_randls_77_rotated.json,http://54.235.29.9/FacialAge/BNav_EC2/DepthDuration/v2_depth_duration_MTurk/v2_DepthDuration_HTML.html#62,62,1364,625,1364,768,8-29-2022,9-40-41,116,depth_duration_stimuli/001516_2014-06-20_16-25-09_260595134347_rgbf000076-resize_2/001516_2014-06-20_16-25-09_260595134347_rgbf000076-resize_2-target.png,250,1.7445,3,9240,258,feet,jsons/v1_VE250_randls_77_rotated.json,2478828,2661890,37,Woman
116,729944,DepthScenes,duration_manipulation_targetAtFixation,jsons/v1_VE250_randls_77_rotated.json,http://54.235.29.9/FacialAge/BNav_EC2/DepthDuration/v2_depth_duration_MTurk/v2_DepthDuration_HTML.html#62,62,1364,625,1364,768,8-29-2022,9-40-41,117,depth_duration_stimuli/002118_2014-06-25_20-32-08_260595134347_rgbf000078-resize_1/002118_2014-06-25_20-32-08_260595134347_rgbf000078-resize_1-target.png,250,2.6460000000000004,3,38607,238,feet,jsons/v1_VE250_randls_77_rotated.json,2478828,2661890,37,Woman
117,729944,DepthScenes,duration_manipulation_targetAtFixation,jsons/v1_VE250_randls_77_rotated.json,http://54.235.29.9/FacialAge/BNav_EC2/DepthDuration/v2_depth_duration_MTurk/v2_DepthDuration_HTML.html#62,62,1364,625,1364,768,8-29-2022,9-40-41,118,depth_duration_stimuli/001815_2014-06-26_20-52-55_260595134347_rgbf000020-resize_0/001815_2014-06-26_20-52-55_260595134347_rgbf000020-resize_0-target.png,250,3.3865,2,229396,249,feet,jsons/v1_VE250_randls_77_rotated.json,2478828,2661890,37,Woman
118,729944,DepthScenes,duration_manipulation_targetAtFixation,jsons/v1_VE250_randls_77_rotated.json,http://54.235.29.9/FacialAge/BNav_EC2/DepthDuration/v2_depth_duration_MTurk/v2_DepthDuration_HTML.html#62,62,1364,625,1364,768,8-29-2022,9-40-41,119,depth_duration_stimuli/001808_2014-06-26_20-50-58_260595134347_rgbf000029-resize_1/001808_2014-06-26_20-50-58_260595134347_rgbf000029-resize_1-target.png,250,4.249,4,9939,248,feet,jsons/v1_VE250_randls_77_rotated.json,2478828,2661890,37,Woman
119,729944,DepthScenes,duration_manipulation_targetAtFixation,jsons/v1_VE250_randls_77_rotated.json,http://54.235.29.9/FacialAge/BNav_EC2/DepthDuration/v2_depth_duration_MTurk/v2_DepthDuration_HTML.html#62,62,1364,625,1364,768,8-29-2022,9-40-41,120,depth_duration_stimuli/000787_2014-06-08_22-33-53_260595134347_rgbf000175-resize_1/000787_2014-06-08_22-33-53_260595134347_rgbf000175-resize-original.jpg,250,4.784,3,14811,267,feet,jsons/v1_VE250_randls_77_rotated.json,2478828,2661890,37,Woman
120,729944,DepthScenes,duration_manipulation_targetAtFixation,jsons/v1_VE250_randls_77_rotated.json,http://54.235.29.9/FacialAge/BNav_EC2/DepthDuration/v2_depth_duration_MTurk/v2_DepthDuration_HTML.html#62,62,1364,625,1364,768,8-29-2022,9-40-41,121,depth_duration_stimuli/000635_2014-06-08_16-38-42_260595134347_rgbf000106-resize_1/000635_2014-06-08_16-38-42_260595134347_rgbf000106-resize_1-target.png,250,2.074,3,8576,313,feet,jsons/v1_VE250_randls_77_rotated.json,2478828,2661890,37,Woman
121,729944,DepthScenes,duration_manipulation_targetAtFixation,jsons/v1_VE250_randls_77_rotated.json,http://54.235.29.9/FacialAge/BNav_EC2/DepthDuration/v2_depth_duration_MTurk/v2_DepthDuration_HTML.html#62,62,1364,625,1364,768,8-29-2022,9-40-41,122,depth_duration_stimuli/002279_2014-06-28_18-55-32_260595134347_rgbf000040-resize_5/002279_2014-06-28_18-55-32_260595134347_rgbf000040-resize_5-target.png,250,1.5043333333333,3,7441,250,feet,jsons/v1_VE250_randls_77_rotated.json,2478828,2661890,37,Woman
122,729944,DepthScenes,duration_manipulation_targetAtFixation,jsons/v1_VE250_randls_77_rotated.json,http://54.235.29.9/FacialAge/BNav_EC2/DepthDuration/v2_depth_duration_MTurk/v2_DepthDuration_HTML.html#62,62,1364,625,1364,768,8-29-2022,9-40-41,123,depth_duration_stimuli/003083_2014-06-15_15-21-03_094959634447_rgbf000063-resize_1/003083_2014-06-15_15-21-03_094959634447_rgbf000063-resize_1-target.png,250,4.1405,3,8274,255,feet,jsons/v1_VE250_randls_77_rotated.json,2478828,2661890,37,Woman
123,729944,DepthScenes,duration_manipulation_targetAtFixation,jsons/v1_VE250_randls_77_rotated.json,http://54.235.29.9/FacialAge/BNav_EC2/DepthDuration/v2_depth_duration_MTurk/v2_DepthDuration_HTML.html#62,62,1364,625,1364,768,8-29-2022,9-40-41,124,depth_duration_stimuli/000486_2014-06-09_20-47-20_260595134347_rgbf000143-resize_2/000486_2014-06-09_20-47-20_260595134347_rgbf000143-resize_2-target.png,250,4.8325,3,6463,252,feet,jsons/v1_VE250_randls_77_rotated.json,2478828,2661890,37,Woman
124,729944,DepthScenes,duration_manipulation_targetAtFixation,jsons/v1_VE250_randls_77_rotated.json,http://54.235.29.9/FacialAge/BNav_EC2/DepthDuration/v2_depth_duration_MTurk/v2_DepthDuration_HTML.html#62,62,1364,625,1364,768,8-29-2022,9-40-41,125,depth_duration_stimuli/000691_2014-06-08_13-08-50_260595134347_rgbf000132-resize_3/000691_2014-06-08_13-08-50_260595134347_rgbf000132-resize_3-target.png,250,4.1530000000000005,3,9302,245,feet,jsons/v1_VE250_randls_77_rotated.json,2478828,2661890,37,Woman
125,729944,DepthScenes,duration_manipulation_targetAtFixation,jsons/v1_VE250_randls_77_rotated.json,http://54.235.29.9/FacialAge/BNav_EC2/DepthDuration/v2_depth_duration_MTurk/v2_DepthDuration_HTML.html#62,62,1364,625,1364,768,8-29-2022,9-40-41,126,depth_duration_stimuli/002213_2014-06-28_18-37-58_260595134347_rgbf000055-resize_1/002213_2014-06-28_18-37-58_260595134347_rgbf000055-resize_1-target.png,250,3.62,4,13123,179,feet,jsons/v1_VE250_randls_77_rotated.json,2478828,2661890,37,Woman
126,729944,DepthScenes,duration_manipulation_targetAtFixation,jsons/v1_VE250_randls_77_rotated.json,http://54.235.29.9/FacialAge/BNav_EC2/DepthDuration/v2_depth_duration_MTurk/v2_DepthDuration_HTML.html#62,62,1364,625,1364,768,8-29-2022,9-40-41,127,depth_duration_stimuli/003495_2014-05-21_16-01-51_094959634447_rgbf000100-resize_3/003495_2014-05-21_16-01-51_094959634447_rgbf000100-resize_3-target.png,250,1.6255,2,9645,249,feet,jsons/v1_VE250_randls_77_rotated.json,2478828,2661890,37,Woman
127,729944,DepthScenes,duration_manipulation_targetAtFixation,jsons/v1_VE250_randls_77_rotated.json,http://54.235.29.9/FacialAge/BNav_EC2/DepthDuration/v2_depth_duration_MTurk/v2_DepthDuration_HTML.html#62,62,1364,625,1364,768,8-29-2022,9-40-41,128,depth_duration_stimuli/001244_2014-06-17_16-47-45_260595134347_rgbf000030-resize_4/001244_2014-06-17_16-47-45_260595134347_rgbf000030-resize_4-target.png,250,2.0425,3,7505,248,feet,jsons/v1_VE250_randls_77_rotated.json,2478828,2661890,37,Woman
128,729944,DepthScenes,duration_manipulation_targetAtFixation,jsons/v1_VE250_randls_77_rotated.json,http://54.235.29.9/FacialAge/BNav_EC2/DepthDuration/v2_depth_duration_MTurk/v2_DepthDuration_HTML.html#62,62,1364,625,1364,768,8-29-2022,9-40-41,129,depth_duration_stimuli/000866_2014-06-09_20-45-42_260595134347_rgbf000139-resize_1/000866_2014-06-09_20-45-42_260595134347_rgbf000139-resize_1-target.png,250,3.2155,1,16736,242,feet,jsons/v1_VE250_randls_77_rotated.json,2478828,2661890,37,Woman
129,729944,DepthScenes,duration_manipulation_targetAtFixation,jsons/v1_VE250_randls_77_rotated.json,http://54.235.29.9/FacialAge/BNav_EC2/DepthDuration/v2_depth_duration_MTurk/v2_DepthDuration_HTML.html#62,62,1364,625,1364,768,8-29-2022,9-40-41,130,depth_duration_stimuli/002989_2014-06-15_12-25-03_094959634447_rgbf000150-resize_3/002989_2014-06-15_12-25-03_094959634447_rgbf000150-resize_3-target.png,250,4.1975,2,11871,248,feet,jsons/v1_VE250_randls_77_rotated.json,2478828,2661890,37,Woman
130,729944,DepthScenes,duration_manipulation_targetAtFixation,jsons/v1_VE250_randls_77_rotated.json,http://54.235.29.9/FacialAge/BNav_EC2/DepthDuration/v2_depth_duration_MTurk/v2_DepthDuration_HTML.html#62,62,1364,625,1364,768,8-29-2022,9-40-41,131,depth_duration_stimuli/001235_2014-06-17_16-37-36_260595134347_rgbf000084-resize_4/001235_2014-06-17_16-37-36_260595134347_rgbf000084-resize_4-target.png,250,3.6605,3,16406,249,feet,jsons/v1_VE250_randls_77_rotated.json,2478828,2661890,37,Woman
131,729944,DepthScenes,duration_manipulation_targetAtFixation,jsons/v1_VE250_randls_77_rotated.json,http://54.235.29.9/FacialAge/BNav_EC2/DepthDuration/v2_depth_duration_MTurk/v2_DepthDuration_HTML.html#62,62,1364,625,1364,768,8-29-2022,9-40-41,132,depth_duration_stimuli/000788_2014-06-08_22-34-36_260595134347_rgbf000131-resize_1/000788_2014-06-08_22-34-36_260595134347_rgbf000131-resize_1-target.png,250,3.359,1,7638,261,feet,jsons/v1_VE250_randls_77_rotated.json,2478828,2661890,37,Woman
132,729944,DepthScenes,duration_manipulation_targetAtFixation,jsons/v1_VE250_randls_77_rotated.json,http://54.235.29.9/FacialAge/BNav_EC2/DepthDuration/v2_depth_duration_MTurk/v2_DepthDuration_HTML.html#62,62,1364,625,1364,768,8-29-2022,9-40-41,133,depth_duration_stimuli/003081_2014-06-15_15-19-16_094959634447_rgbf000150-resize_1/003081_2014-06-15_15-19-16_094959634447_rgbf000150-resize_1-target.png,250,3.9125,3,10853,248,feet,jsons/v1_VE250_randls_77_rotated.json,2478828,2661890,37,Woman
133,729944,DepthScenes,duration_manipulation_targetAtFixation,jsons/v1_VE250_randls_77_rotated.json,http://54.235.29.9/FacialAge/BNav_EC2/DepthDuration/v2_depth_duration_MTurk/v2_DepthDuration_HTML.html#62,62,1364,625,1364,768,8-29-2022,9-40-41,134,depth_duration_stimuli/001417_2014-06-19_16-25-36_260595134347_rgbf000115-resize_5/001417_2014-06-19_16-25-36_260595134347_rgbf000115-resize_5-target.png,250,4.6255,2,11005,251,feet,jsons/v1_VE250_randls_77_rotated.json,2478828,2661890,37,Woman
134,729944,DepthScenes,duration_manipulation_targetAtFixation,jsons/v1_VE250_randls_77_rotated.json,http://54.235.29.9/FacialAge/BNav_EC2/DepthDuration/v2_depth_duration_MTurk/v2_DepthDuration_HTML.html#62,62,1364,625,1364,768,8-29-2022,9-40-41,135,depth_duration_stimuli/000375_2014-06-08_11-17-29_260595134347_rgbf000133-resize_2/000375_2014-06-08_11-17-29_260595134347_rgbf000133-resize-original.jpg,250,4.718,4,14726,258,feet,jsons/v1_VE250_randls_77_rotated.json,2478828,2661890,37,Woman
135,729944,DepthScenes,duration_manipulation_targetAtFixation,jsons/v1_VE250_randls_77_rotated.json,http://54.235.29.9/FacialAge/BNav_EC2/DepthDuration/v2_depth_duration_MTurk/v2_DepthDuration_HTML.html#62,62,1364,625,1364,768,8-29-2022,9-40-41,136,depth_duration_stimuli/002340_2014-06-28_20-05-46_260595134347_rgbf000113-resize_0/002340_2014-06-28_20-05-46_260595134347_rgbf000113-resize_0-target.png,250,2.4735,5,12001,249,feet,jsons/v1_VE250_randls_77_rotated.json,2478828,2661890,37,Woman
136,729944,DepthScenes,duration_manipulation_targetAtFixation,jsons/v1_VE250_randls_77_rotated.json,http://54.235.29.9/FacialAge/BNav_EC2/DepthDuration/v2_depth_duration_MTurk/v2_DepthDuration_HTML.html#62,62,1364,625,1364,768,8-29-2022,9-40-41,137,depth_duration_stimuli/001016_2014-06-09_16-16-10_260595134347_rgbf000112-resize_5/001016_2014-06-09_16-16-10_260595134347_rgbf000112-resize_5-target.png,250,1.6565,2,10833,251,feet,jsons/v1_VE250_randls_77_rotated.json,2478828,2661890,37,Woman
137,729944,DepthScenes,duration_manipulation_targetAtFixation,jsons/v1_VE250_randls_77_rotated.json,http://54.235.29.9/FacialAge/BNav_EC2/DepthDuration/v2_depth_duration_MTurk/v2_DepthDuration_HTML.html#62,62,1364,625,1364,768,8-29-2022,9-40-41,138,depth_duration_stimuli/002995_2014-06-15_12-31-26_094959634447_rgbf000150-resize_1/002995_2014-06-15_12-31-26_094959634447_rgbf000150-resize_1-target.png,250,3.8360000000000003,3,13535,248,feet,jsons/v1_VE250_randls_77_rotated.json,2478828,2661890,37,Woman
138,729944,DepthScenes,duration_manipulation_targetAtFixation,jsons/v1_VE250_randls_77_rotated.json,http://54.235.29.9/FacialAge/BNav_EC2/DepthDuration/v2_depth_duration_MTurk/v2_DepthDuration_HTML.html#62,62,1364,625,1364,768,8-29-2022,9-40-41,139,depth_duration_stimuli/002748_2014-06-22_19-07-22_094959634447_rgbf000078-resize_1/002748_2014-06-22_19-07-22_094959634447_rgbf000078-resize_1-target.png,250,4.6705,2,11289,246,feet,jsons/v1_VE250_randls_77_rotated.json,2478828,2661890,37,Woman
139,729944,DepthScenes,duration_manipulation_targetAtFixation,jsons/v1_VE250_randls_77_rotated.json,http://54.235.29.9/FacialAge/BNav_EC2/DepthDuration/v2_depth_duration_MTurk/v2_DepthDuration_HTML.html#62,62,1364,625,1364,768,8-29-2022,9-40-41,140,depth_duration_stimuli/002639_2014-06-24_14-51-37_094959634447_rgbf000074-resize_4/002639_2014-06-24_14-51-37_094959634447_rgbf000074-resize_4-target.png,250,4.0375,2,9888,244,feet,jsons/v1_VE250_randls_77_rotated.json,2478828,2661890,37,Woman
140,729944,DepthScenes,duration_manipulation_targetAtFixation,jsons/v1_VE250_randls_77_rotated.json,http://54.235.29.9/FacialAge/BNav_EC2/DepthDuration/v2_depth_duration_MTurk/v2_DepthDuration_HTML.html#62,62,1364,625,1364,768,8-29-2022,9-40-41,141,depth_duration_stimuli/003292_2014-05-14_21-53-49_094959634447_rgbf000100-resize_2/003292_2014-05-14_21-53-49_094959634447_rgbf000100-resize_2-target.png,250,3.4815,2,4467,245,feet,jsons/v1_VE250_randls_77_rotated.json,2478828,2661890,37,Woman
141,729944,DepthScenes,duration_manipulation_targetAtFixation,jsons/v1_VE250_randls_77_rotated.json,http://54.235.29.9/FacialAge/BNav_EC2/DepthDuration/v2_depth_duration_MTurk/v2_DepthDuration_HTML.html#62,62,1364,625,1364,768,8-29-2022,9-40-41,142,depth_duration_stimuli/002467_2014-06-28_20-38-07_260595134347_rgbf000026-resize_2/002467_2014-06-28_20-38-07_260595134347_rgbf000026-resize_2-target.png,250,4.742,3,6614,248,feet,jsons/v1_VE250_randls_77_rotated.json,2478828,2661890,37,Woman
142,729944,DepthScenes,duration_manipulation_targetAtFixation,jsons/v1_VE250_randls_77_rotated.json,http://54.235.29.9/FacialAge/BNav_EC2/DepthDuration/v2_depth_duration_MTurk/v2_DepthDuration_HTML.html#62,62,1364,625,1364,768,8-29-2022,9-40-41,143,depth_duration_stimuli/002570_2014-06-24_13-59-54_094959634447_rgbf000059-resize_0/002570_2014-06-24_13-59-54_094959634447_rgbf000059-resize_0-target.png,250,4.037,1,4490,249,feet,jsons/v1_VE250_randls_77_rotated.json,2478828,2661890,37,Woman
143,729944,DepthScenes,duration_manipulation_targetAtFixation,jsons/v1_VE250_randls_77_rotated.json,http://54.235.29.9/FacialAge/BNav_EC2/DepthDuration/v2_depth_duration_MTurk/v2_DepthDuration_HTML.html#62,62,1364,625,1364,768,8-29-2022,9-40-41,144,depth_duration_stimuli/003129_2014-05-12_10-48-10_094959634447_rgbf000100-resize_0/003129_2014-05-12_10-48-10_094959634447_rgbf000100-resize_0-target.png,250,4.9305,4,9581,250,feet,jsons/v1_VE250_randls_77_rotated.json,2478828,2661890,37,Woman
144,729944,DepthScenes,duration_manipulation_targetAtFixation,jsons/v1_VE250_randls_77_rotated.json,http://54.235.29.9/FacialAge/BNav_EC2/DepthDuration/v2_depth_duration_MTurk/v2_DepthDuration_HTML.html#62,62,1364,625,1364,768,8-29-2022,9-40-41,145,depth_duration_stimuli/000414_2014-06-04_19-49-13_260595134347_rgbf000044-resize_0/000414_2014-06-04_19-49-13_260595134347_rgbf000044-resize_0-target.png,250,4.329,5,7871,246,feet,jsons/v1_VE250_randls_77_rotated.json,2478828,2661890,37,Woman
145,729944,DepthScenes,duration_manipulation_targetAtFixation,jsons/v1_VE250_randls_77_rotated.json,http://54.235.29.9/FacialAge/BNav_EC2/DepthDuration/v2_depth_duration_MTurk/v2_DepthDuration_HTML.html#62,62,1364,625,1364,768,8-29-2022,9-40-41,146,depth_duration_stimuli/002949_2014-06-26_15-57-42_094959634447_rgbf000079-resize_1/002949_2014-06-26_15-57-42_094959634447_rgbf000079-resize_1-target.png,250,1.8915,3,11264,251,feet,jsons/v1_VE250_randls_77_rotated.json,2478828,2661890,37,Woman
146,729944,DepthScenes,duration_manipulation_targetAtFixation,jsons/v1_VE250_randls_77_rotated.json,http://54.235.29.9/FacialAge/BNav_EC2/DepthDuration/v2_depth_duration_MTurk/v2_DepthDuration_HTML.html#62,62,1364,625,1364,768,8-29-2022,9-40-41,147,depth_duration_stimuli/000522_2014-06-08_13-35-06_260595134347_rgbf000244-resize_1/000522_2014-06-08_13-35-06_260595134347_rgbf000244-resize_1-target.png,250,2.3715,2,10946,241,feet,jsons/v1_VE250_randls_77_rotated.json,2478828,2661890,37,Woman
147,729944,DepthScenes,duration_manipulation_targetAtFixation,jsons/v1_VE250_randls_77_rotated.json,http://54.235.29.9/FacialAge/BNav_EC2/DepthDuration/v2_depth_duration_MTurk/v2_DepthDuration_HTML.html#62,62,1364,625,1364,768,8-29-2022,9-40-41,148,depth_duration_stimuli/003587_2014-05-23_16-48-02_094959634447_rgbf002384-resize_2/003587_2014-05-23_16-48-02_094959634447_rgbf002384-resize_2-target.png,250,1.357,4,8104,242,feet,jsons/v1_VE250_randls_77_rotated.json,2478828,2661890,37,Woman
148,729944,DepthScenes,duration_manipulation_targetAtFixation,jsons/v1_VE250_randls_77_rotated.json,http://54.235.29.9/FacialAge/BNav_EC2/DepthDuration/v2_depth_duration_MTurk/v2_DepthDuration_HTML.html#62,62,1364,625,1364,768,8-29-2022,9-40-41,149,depth_duration_stimuli/001167_2014-06-17_15-38-07_260595134347_rgbf000108-resize_0/001167_2014-06-17_15-38-07_260595134347_rgbf000108-resize_0-target.png,250,1.8505,5,7933,218,feet,jsons/v1_VE250_randls_77_rotated.json,2478828,2661890,37,Woman
149,729944,DepthScenes,duration_manipulation_targetAtFixation,jsons/v1_VE250_randls_77_rotated.json,http://54.235.29.9/FacialAge/BNav_EC2/DepthDuration/v2_depth_duration_MTurk/v2_DepthDuration_HTML.html#62,62,1364,625,1364,768,8-29-2022,9-40-41,150,depth_duration_stimuli/001214_2014-06-17_16-13-55_260595134347_rgbf000111-resize_0/001214_2014-06-17_16-13-55_260595134347_rgbf000111-resize_0-target.png,250,2.6505,2,10620,251,feet,jsons/v1_VE250_randls_77_rotated.json,2478828,2661890,37,Woman
150,729944,DepthScenes,duration_manipulation_targetAtFixation,jsons/v1_VE250_randls_77_rotated.json,http://54.235.29.9/FacialAge/BNav_EC2/DepthDuration/v2_depth_duration_MTurk/v2_DepthDuration_HTML.html#62,62,1364,625,1364,768,8-29-2022,9-40-41,151,depth_duration_stimuli/000810_2014-06-08_17-20-01_260595134347_rgbf000105-resize_0/000810_2014-06-08_17-20-01_260595134347_rgbf000105-resize_0-target.png,250,1.4865,2,10369,250,feet,jsons/v1_VE250_randls_77_rotated.json,2478828,2661890,37,Woman
151,729944,DepthScenes,duration_manipulation_targetAtFixation,jsons/v1_VE250_randls_77_rotated.json,http://54.235.29.9/FacialAge/BNav_EC2/DepthDuration/v2_depth_duration_MTurk/v2_DepthDuration_HTML.html#62,62,1364,625,1364,768,8-29-2022,9-40-41,152,depth_duration_stimuli/000569_2014-06-09_22-51-47_260595134347_rgbf000141-resize_3/000569_2014-06-09_22-51-47_260595134347_rgbf000141-resize-original.jpg,250,4.512,2,12775,247,feet,jsons/v1_VE250_randls_77_rotated.json,2478828,2661890,37,Woman
152,729944,DepthScenes,duration_manipulation_targetAtFixation,jsons/v1_VE250_randls_77_rotated.json,http://54.235.29.9/FacialAge/BNav_EC2/DepthDuration/v2_depth_duration_MTurk/v2_DepthDuration_HTML.html#62,62,1364,625,1364,768,8-29-2022,9-40-41,153,depth_duration_stimuli/003423_2014-05-21_10-23-26_094959634447_rgbf002665-resize_2/003423_2014-05-21_10-23-26_094959634447_rgbf002665-resize_2-target.png,250,3.2575,2,7198,250,feet,jsons/v1_VE250_randls_77_rotated.json,2478828,2661890,37,Woman
153,729944,DepthScenes,duration_manipulation_targetAtFixation,jsons/v1_VE250_randls_77_rotated.json,http://54.235.29.9/FacialAge/BNav_EC2/DepthDuration/v2_depth_duration_MTurk/v2_DepthDuration_HTML.html#62,62,1364,625,1364,768,8-29-2022,9-40-41,154,depth_duration_stimuli/002905_2014-06-03_18-04-43_094959634447_rgbf000151-resize_2/002905_2014-06-03_18-04-43_094959634447_rgbf000151-resize_2-target.png,250,2.0295,1,6784,230,feet,jsons/v1_VE250_randls_77_rotated.json,2478828,2661890,37,Woman
154,729944,DepthScenes,duration_manipulation_targetAtFixation,jsons/v1_VE250_randls_77_rotated.json,http://54.235.29.9/FacialAge/BNav_EC2/DepthDuration/v2_depth_duration_MTurk/v2_DepthDuration_HTML.html#62,62,1364,625,1364,768,8-29-2022,9-40-41,155,depth_duration_stimuli/001392_2014-06-19_16-07-59_260595134347_rgbf000046-resize_1/001392_2014-06-19_16-07-59_260595134347_rgbf000046-resize_1-target.png,250,4.135,4,10794,242,feet,jsons/v1_VE250_randls_77_rotated.json,2478828,2661890,37,Woman
155,729944,DepthScenes,duration_manipulation_targetAtFixation,jsons/v1_VE250_randls_77_rotated.json,http://54.235.29.9/FacialAge/BNav_EC2/DepthDuration/v2_depth_duration_MTurk/v2_DepthDuration_HTML.html#62,62,1364,625,1364,768,8-29-2022,9-40-41,156,depth_duration_stimuli/001570_2014-06-20_17-21-09_260595134347_rgbf000135-resize_4/001570_2014-06-20_17-21-09_260595134347_rgbf000135-resize_4-target.png,250,4.467,5,6619,251,feet,jsons/v1_VE250_randls_77_rotated.json,2478828,2661890,37,Woman
156,729944,DepthScenes,duration_manipulation_targetAtFixation,jsons/v1_VE250_randls_77_rotated.json,http://54.235.29.9/FacialAge/BNav_EC2/DepthDuration/v2_depth_duration_MTurk/v2_DepthDuration_HTML.html#62,62,1364,625,1364,768,8-29-2022,9-40-41,157,depth_duration_stimuli/000709_2014-06-08_13-51-55_260595134347_rgbf000068-resize_3/000709_2014-06-08_13-51-55_260595134347_rgbf000068-resize_3-target.png,250,1.8030000000000002,4,11156,250,feet,jsons/v1_VE250_randls_77_rotated.json,2478828,2661890,37,Woman
157,729944,DepthScenes,duration_manipulation_targetAtFixation,jsons/v1_VE250_randls_77_rotated.json,http://54.235.29.9/FacialAge/BNav_EC2/DepthDuration/v2_depth_duration_MTurk/v2_DepthDuration_HTML.html#62,62,1364,625,1364,768,8-29-2022,9-40-41,158,depth_duration_stimuli/002057_2014-06-24_21-00-13_260595134347_rgbf000120-resize_1/002057_2014-06-24_21-00-13_260595134347_rgbf000120-resize_1-target.png,250,2.967,3,8563,254,feet,jsons/v1_VE250_randls_77_rotated.json,2478828,2661890,37,Woman
158,729944,DepthScenes,duration_manipulation_targetAtFixation,jsons/v1_VE250_randls_77_rotated.json,http://54.235.29.9/FacialAge/BNav_EC2/DepthDuration/v2_depth_duration_MTurk/v2_DepthDuration_HTML.html#62,62,1364,625,1364,768,8-29-2022,9-40-41,159,depth_duration_stimuli/001032_2014-06-08_13-23-17_260595134347_rgbf000021-resize_3/001032_2014-06-08_13-23-17_260595134347_rgbf000021-resize_3-target.png,250,3.2725,1,10101,247,feet,jsons/v1_VE250_randls_77_rotated.json,2478828,2661890,37,Woman
159,729944,DepthScenes,duration_manipulation_targetAtFixation,jsons/v1_VE250_randls_77_rotated.json,http://54.235.29.9/FacialAge/BNav_EC2/DepthDuration/v2_depth_duration_MTurk/v2_DepthDuration_HTML.html#62,62,1364,625,1364,768,8-29-2022,9-40-41,160,depth_duration_stimuli/001059_2014-06-08_21-53-27_260595134347_rgbf000061-resize_4/001059_2014-06-08_21-53-27_260595134347_rgbf000061-resize_4-target.png,250,2.4185,4,7426,244,feet,jsons/v1_VE250_randls_77_rotated.json,2478828,2661890,37,Woman
160,729944,DepthScenes,duration_manipulation_targetAtFixation,jsons/v1_VE250_randls_77_rotated.json,http://54.235.29.9/FacialAge/BNav_EC2/DepthDuration/v2_depth_duration_MTurk/v2_DepthDuration_HTML.html#62,62,1364,625,1364,768,8-29-2022,9-40-41,161,depth_duration_stimuli/002545_2014-06-24_13-38-53_094959634447_rgbf000080-resize_4/002545_2014-06-24_13-38-53_094959634447_rgbf000080-resize_4-target.png,250,1.9205,2,8816,253,feet,jsons/v1_VE250_randls_77_rotated.json,2478828,2661890,37,Woman
161,729944,DepthScenes,duration_manipulation_targetAtFixation,jsons/v1_VE250_randls_77_rotated.json,http://54.235.29.9/FacialAge/BNav_EC2/DepthDuration/v2_depth_duration_MTurk/v2_DepthDuration_HTML.html#62,62,1364,625,1364,768,8-29-2022,9-40-41,162,depth_duration_stimuli/001092_2014-06-15_17-34-58_260595134347_rgbf000171-resize_3/001092_2014-06-15_17-34-58_260595134347_rgbf000171-resize_3-target.png,250,2.6935,2,7147,251,feet,jsons/v1_VE250_randls_77_rotated.json,2478828,2661890,37,Woman
162,729944,DepthScenes,duration_manipulation_targetAtFixation,jsons/v1_VE250_randls_77_rotated.json,http://54.235.29.9/FacialAge/BNav_EC2/DepthDuration/v2_depth_duration_MTurk/v2_DepthDuration_HTML.html#62,62,1364,625,1364,768,8-29-2022,9-40-41,163,depth_duration_stimuli/002444_2014-06-28_20-32-08_260595134347_rgbf000027-resize_0/002444_2014-06-28_20-32-08_260595134347_rgbf000027-resize_0-target.png,250,4.388999999999999,1,13469,249,feet,jsons/v1_VE250_randls_77_rotated.json,2478828,2661890,37,Woman
163,729944,DepthScenes,duration_manipulation_targetAtFixation,jsons/v1_VE250_randls_77_rotated.json,http://54.235.29.9/FacialAge/BNav_EC2/DepthDuration/v2_depth_duration_MTurk/v2_DepthDuration_HTML.html#62,62,1364,625,1364,768,8-29-2022,9-40-41,164,depth_duration_stimuli/000436_2014-06-09_22-25-11_260595134347_rgbf000137-resize_1/000436_2014-06-09_22-25-11_260595134347_rgbf000137-resize_1-target.png,250,4.0705,2,14823,250,feet,jsons/v1_VE250_randls_77_rotated.json,2478828,2661890,37,Woman
