,subjID,experimentName,versionName,sequenceName,url,selected_row,windowWidth,windowHeight,screenWidth,screenHeight,startDate,startTime,trial,stimulus,duration,actual_depth,depth_estimate,trial_RT,log_sceneDuration,unitSelection,seq_filepath,experimentTime,totalTime,age,gender
0,730031,DepthScenes,duration_manipulation_targetAtFixation,jsons/VE125_randls_25.json,http://54.235.29.9/FacialAge/BNav_EC2/DepthDuration/v2_depth_duration_MTurk/v2_DepthDuration_HTML.html#133,133,1920,1080,1920,1080,9-3-2022,13-6-58,1,depth_duration_stimuli/001059_2014-06-08_21-53-27_260595134347_rgbf000061-resize_4/001059_2014-06-08_21-53-27_260595134347_rgbf000061-resize_4-target.png,125,2.4185,7,2527,123,feet,jsons/VE125_randls_25.json,531256,704496,32,Man
1,730031,DepthScenes,duration_manipulation_targetAtFixation,jsons/VE125_randls_25.json,http://54.235.29.9/FacialAge/BNav_EC2/DepthDuration/v2_depth_duration_MTurk/v2_DepthDuration_HTML.html#133,133,1920,1080,1920,1080,9-3-2022,13-6-58,2,depth_duration_stimuli/001032_2014-06-08_13-23-17_260595134347_rgbf000021-resize_3/001032_2014-06-08_13-23-17_260595134347_rgbf000021-resize_3-target.png,125,3.2725,7,2880,124,feet,jsons/VE125_randls_25.json,531256,704496,32,Man
2,730031,DepthScenes,duration_manipulation_targetAtFixation,jsons/VE125_randls_25.json,http://54.235.29.9/FacialAge/BNav_EC2/DepthDuration/v2_depth_duration_MTurk/v2_DepthDuration_HTML.html#133,133,1920,1080,1920,1080,9-3-2022,13-6-58,3,depth_duration_stimuli/001066_2014-06-08_22-03-20_260595134347_rgbf000066-resize_4/001066_2014-06-08_22-03-20_260595134347_rgbf000066-resize_4-target.png,125,4.2330000000000005,8,3997,123,feet,jsons/VE125_randls_25.json,531256,704496,32,Man
3,730031,DepthScenes,duration_manipulation_targetAtFixation,jsons/VE125_randls_25.json,http://54.235.29.9/FacialAge/BNav_EC2/DepthDuration/v2_depth_duration_MTurk/v2_DepthDuration_HTML.html#133,133,1920,1080,1920,1080,9-3-2022,13-6-58,4,depth_duration_stimuli/000742_2014-06-08_18-48-09_260595134347_rgbf000164-resize_4/000742_2014-06-08_18-48-09_260595134347_rgbf000164-resize_4-target.png,125,4.632,6,2823,125,feet,jsons/VE125_randls_25.json,531256,704496,32,Man
4,730031,DepthScenes,duration_manipulation_targetAtFixation,jsons/VE125_randls_25.json,http://54.235.29.9/FacialAge/BNav_EC2/DepthDuration/v2_depth_duration_MTurk/v2_DepthDuration_HTML.html#133,133,1920,1080,1920,1080,9-3-2022,13-6-58,5,depth_duration_stimuli/002663_2014-06-13_15-50-26_094959634447_rgbf000075-resize_1/002663_2014-06-13_15-50-26_094959634447_rgbf000075-resize_1-target.png,125,4.7495,7,2302,125,feet,jsons/VE125_randls_25.json,531256,704496,32,Man
5,730031,DepthScenes,duration_manipulation_targetAtFixation,jsons/VE125_randls_25.json,http://54.235.29.9/FacialAge/BNav_EC2/DepthDuration/v2_depth_duration_MTurk/v2_DepthDuration_HTML.html#133,133,1920,1080,1920,1080,9-3-2022,13-6-58,6,depth_duration_stimuli/000409_2014-06-04_19-23-33_260595134347_rgbf000067-resize_0/000409_2014-06-04_19-23-33_260595134347_rgbf000067-resize_0-target.png,125,3.7335,6,2592,124,feet,jsons/VE125_randls_25.json,531256,704496,32,Man
6,730031,DepthScenes,duration_manipulation_targetAtFixation,jsons/VE125_randls_25.json,http://54.235.29.9/FacialAge/BNav_EC2/DepthDuration/v2_depth_duration_MTurk/v2_DepthDuration_HTML.html#133,133,1920,1080,1920,1080,9-3-2022,13-6-58,7,depth_duration_stimuli/000642_2014-06-08_16-59-25_260595134347_rgbf000098-resize_2/000642_2014-06-08_16-59-25_260595134347_rgbf000098-resize_2-target.png,125,2.8815,4,3893,125,feet,jsons/VE125_randls_25.json,531256,704496,32,Man
7,730031,DepthScenes,duration_manipulation_targetAtFixation,jsons/VE125_randls_25.json,http://54.235.29.9/FacialAge/BNav_EC2/DepthDuration/v2_depth_duration_MTurk/v2_DepthDuration_HTML.html#133,133,1920,1080,1920,1080,9-3-2022,13-6-58,8,depth_duration_stimuli/002425_2014-06-28_20-27-29_260595134347_rgbf000031-resize_8/002425_2014-06-28_20-27-29_260595134347_rgbf000031-resize_8-target.png,125,3.8960000000000004,5,2170,123,feet,jsons/VE125_randls_25.json,531256,704496,32,Man
8,730031,DepthScenes,duration_manipulation_targetAtFixation,jsons/VE125_randls_25.json,http://54.235.29.9/FacialAge/BNav_EC2/DepthDuration/v2_depth_duration_MTurk/v2_DepthDuration_HTML.html#133,133,1920,1080,1920,1080,9-3-2022,13-6-58,9,depth_duration_stimuli/001810_2014-06-26_20-51-35_260595134347_rgbf000040-resize_3/001810_2014-06-26_20-51-35_260595134347_rgbf000040-resize_3-target.png,125,2.2525,4,2557,124,feet,jsons/VE125_randls_25.json,531256,704496,32,Man
9,730031,DepthScenes,duration_manipulation_targetAtFixation,jsons/VE125_randls_25.json,http://54.235.29.9/FacialAge/BNav_EC2/DepthDuration/v2_depth_duration_MTurk/v2_DepthDuration_HTML.html#133,133,1920,1080,1920,1080,9-3-2022,13-6-58,10,depth_duration_stimuli/003010_2014-06-15_12-54-35_094959634447_rgbf000112-resize_0/003010_2014-06-15_12-54-35_094959634447_rgbf000112-resize_0-target.png,125,3.1185,5,2629,124,feet,jsons/VE125_randls_25.json,531256,704496,32,Man
10,730031,DepthScenes,duration_manipulation_targetAtFixation,jsons/VE125_randls_25.json,http://54.235.29.9/FacialAge/BNav_EC2/DepthDuration/v2_depth_duration_MTurk/v2_DepthDuration_HTML.html#133,133,1920,1080,1920,1080,9-3-2022,13-6-58,11,depth_duration_stimuli/002445_2014-06-28_20-32-16_260595134347_rgbf000029-resize_4/002445_2014-06-28_20-32-16_260595134347_rgbf000029-resize_4-target.png,125,2.5315,4,3076,123,feet,jsons/VE125_randls_25.json,531256,704496,32,Man
11,730031,DepthScenes,duration_manipulation_targetAtFixation,jsons/VE125_randls_25.json,http://54.235.29.9/FacialAge/BNav_EC2/DepthDuration/v2_depth_duration_MTurk/v2_DepthDuration_HTML.html#133,133,1920,1080,1920,1080,9-3-2022,13-6-58,12,depth_duration_stimuli/000780_2014-06-08_22-28-29_260595134347_rgbf000126-resize_1/000780_2014-06-08_22-28-29_260595134347_rgbf000126-resize_1-target.png,125,3.3825,7,2964,123,feet,jsons/VE125_randls_25.json,531256,704496,32,Man
12,730031,DepthScenes,duration_manipulation_targetAtFixation,jsons/VE125_randls_25.json,http://54.235.29.9/FacialAge/BNav_EC2/DepthDuration/v2_depth_duration_MTurk/v2_DepthDuration_HTML.html#133,133,1920,1080,1920,1080,9-3-2022,13-6-58,13,depth_duration_stimuli/000569_2014-06-09_22-51-47_260595134347_rgbf000141-resize_3/000569_2014-06-09_22-51-47_260595134347_rgbf000141-resize-original.jpg,125,4.512,0,2881,125,feet,jsons/VE125_randls_25.json,531256,704496,32,Man
13,730031,DepthScenes,duration_manipulation_targetAtFixation,jsons/VE125_randls_25.json,http://54.235.29.9/FacialAge/BNav_EC2/DepthDuration/v2_depth_duration_MTurk/v2_DepthDuration_HTML.html#133,133,1920,1080,1920,1080,9-3-2022,13-6-58,14,depth_duration_stimuli/001244_2014-06-17_16-47-45_260595134347_rgbf000030-resize_4/001244_2014-06-17_16-47-45_260595134347_rgbf000030-resize_4-target.png,125,2.0425,5,2608,124,feet,jsons/VE125_randls_25.json,531256,704496,32,Man
14,730031,DepthScenes,duration_manipulation_targetAtFixation,jsons/VE125_randls_25.json,http://54.235.29.9/FacialAge/BNav_EC2/DepthDuration/v2_depth_duration_MTurk/v2_DepthDuration_HTML.html#133,133,1920,1080,1920,1080,9-3-2022,13-6-58,15,depth_duration_stimuli/003495_2014-05-21_16-01-51_094959634447_rgbf000100-resize_3/003495_2014-05-21_16-01-51_094959634447_rgbf000100-resize_3-target.png,125,1.6255,5,2063,124,feet,jsons/VE125_randls_25.json,531256,704496,32,Man
15,730031,DepthScenes,duration_manipulation_targetAtFixation,jsons/VE125_randls_25.json,http://54.235.29.9/FacialAge/BNav_EC2/DepthDuration/v2_depth_duration_MTurk/v2_DepthDuration_HTML.html#133,133,1920,1080,1920,1080,9-3-2022,13-6-58,16,depth_duration_stimuli/003292_2014-05-14_21-53-49_094959634447_rgbf000100-resize_2/003292_2014-05-14_21-53-49_094959634447_rgbf000100-resize_2-target.png,125,3.4815,4,2535,124,feet,jsons/VE125_randls_25.json,531256,704496,32,Man
16,730031,DepthScenes,duration_manipulation_targetAtFixation,jsons/VE125_randls_25.json,http://54.235.29.9/FacialAge/BNav_EC2/DepthDuration/v2_depth_duration_MTurk/v2_DepthDuration_HTML.html#133,133,1920,1080,1920,1080,9-3-2022,13-6-58,17,depth_duration_stimuli/002639_2014-06-24_14-51-37_094959634447_rgbf000074-resize_4/002639_2014-06-24_14-51-37_094959634447_rgbf000074-resize_4-target.png,125,4.0375,8,3336,125,feet,jsons/VE125_randls_25.json,531256,704496,32,Man
17,730031,DepthScenes,duration_manipulation_targetAtFixation,jsons/VE125_randls_25.json,http://54.235.29.9/FacialAge/BNav_EC2/DepthDuration/v2_depth_duration_MTurk/v2_DepthDuration_HTML.html#133,133,1920,1080,1920,1080,9-3-2022,13-6-58,18,depth_duration_stimuli/000368_2014-06-09_15-53-01_260595134347_rgbf000155-resize_2/000368_2014-06-09_15-53-01_260595134347_rgbf000155-resize_2-target.png,125,2.4859999999999998,4,2569,124,feet,jsons/VE125_randls_25.json,531256,704496,32,Man
18,730031,DepthScenes,duration_manipulation_targetAtFixation,jsons/VE125_randls_25.json,http://54.235.29.9/FacialAge/BNav_EC2/DepthDuration/v2_depth_duration_MTurk/v2_DepthDuration_HTML.html#133,133,1920,1080,1920,1080,9-3-2022,13-6-58,19,depth_duration_stimuli/002678_2014-06-13_16-15-32_094959634447_rgbf000151-resize_6/002678_2014-06-13_16-15-32_094959634447_rgbf000151-resize_6-target.png,125,2.1830000000000003,10,3560,125,feet,jsons/VE125_randls_25.json,531256,704496,32,Man
19,730031,DepthScenes,duration_manipulation_targetAtFixation,jsons/VE125_randls_25.json,http://54.235.29.9/FacialAge/BNav_EC2/DepthDuration/v2_depth_duration_MTurk/v2_DepthDuration_HTML.html#133,133,1920,1080,1920,1080,9-3-2022,13-6-58,20,depth_duration_stimuli/002784_2014-06-22_19-26-30_094959634447_rgbf000083-resize_3/002784_2014-06-22_19-26-30_094959634447_rgbf000083-resize_3-target.png,125,1.8046666666667,4,3129,124,feet,jsons/VE125_randls_25.json,531256,704496,32,Man
20,730031,DepthScenes,duration_manipulation_targetAtFixation,jsons/VE125_randls_25.json,http://54.235.29.9/FacialAge/BNav_EC2/DepthDuration/v2_depth_duration_MTurk/v2_DepthDuration_HTML.html#133,133,1920,1080,1920,1080,9-3-2022,13-6-58,21,depth_duration_stimuli/001100_2014-06-15_17-46-26_260595134347_rgbf000225-resize_2/001100_2014-06-15_17-46-26_260595134347_rgbf000225-resize_2-target.png,125,2.24,3,2437,124,feet,jsons/VE125_randls_25.json,531256,704496,32,Man
21,730031,DepthScenes,duration_manipulation_targetAtFixation,jsons/VE125_randls_25.json,http://54.235.29.9/FacialAge/BNav_EC2/DepthDuration/v2_depth_duration_MTurk/v2_DepthDuration_HTML.html#133,133,1920,1080,1920,1080,9-3-2022,13-6-58,22,depth_duration_stimuli/002630_2014-06-24_14-47-50_094959634447_rgbf000055-resize_1/002630_2014-06-24_14-47-50_094959634447_rgbf000055-resize_1-target.png,125,3.0095,10,5451,124,feet,jsons/VE125_randls_25.json,531256,704496,32,Man
22,730031,DepthScenes,duration_manipulation_targetAtFixation,jsons/VE125_randls_25.json,http://54.235.29.9/FacialAge/BNav_EC2/DepthDuration/v2_depth_duration_MTurk/v2_DepthDuration_HTML.html#133,133,1920,1080,1920,1080,9-3-2022,13-6-58,23,depth_duration_stimuli/002758_2014-06-22_19-11-20_094959634447_rgbf000128-resize_1/002758_2014-06-22_19-11-20_094959634447_rgbf000128-resize_1-target.png,125,2.555,6,4554,124,feet,jsons/VE125_randls_25.json,531256,704496,32,Man
23,730031,DepthScenes,duration_manipulation_targetAtFixation,jsons/VE125_randls_25.json,http://54.235.29.9/FacialAge/BNav_EC2/DepthDuration/v2_depth_duration_MTurk/v2_DepthDuration_HTML.html#133,133,1920,1080,1920,1080,9-3-2022,13-6-58,24,depth_duration_stimuli/001449_2014-06-19_17-01-27_260595134347_rgbf000116-resize_2/001449_2014-06-19_17-01-27_260595134347_rgbf000116-resize_2-target.png,125,3.452,6,2832,124,feet,jsons/VE125_randls_25.json,531256,704496,32,Man
24,730031,DepthScenes,duration_manipulation_targetAtFixation,jsons/VE125_randls_25.json,http://54.235.29.9/FacialAge/BNav_EC2/DepthDuration/v2_depth_duration_MTurk/v2_DepthDuration_HTML.html#133,133,1920,1080,1920,1080,9-3-2022,13-6-58,25,depth_duration_stimuli/001450_2014-06-19_17-02-03_260595134347_rgbf000203-resize_4/001450_2014-06-19_17-02-03_260595134347_rgbf000203-resize_4-target.png,125,4.0106666666667,6,4668,124,feet,jsons/VE125_randls_25.json,531256,704496,32,Man
25,730031,DepthScenes,duration_manipulation_targetAtFixation,jsons/VE125_randls_25.json,http://54.235.29.9/FacialAge/BNav_EC2/DepthDuration/v2_depth_duration_MTurk/v2_DepthDuration_HTML.html#133,133,1920,1080,1920,1080,9-3-2022,13-6-58,26,depth_duration_stimuli/002905_2014-06-03_18-04-43_094959634447_rgbf000151-resize_2/002905_2014-06-03_18-04-43_094959634447_rgbf000151-resize_2-target.png,125,2.0295,4,2397,124,feet,jsons/VE125_randls_25.json,531256,704496,32,Man
26,730031,DepthScenes,duration_manipulation_targetAtFixation,jsons/VE125_randls_25.json,http://54.235.29.9/FacialAge/BNav_EC2/DepthDuration/v2_depth_duration_MTurk/v2_DepthDuration_HTML.html#133,133,1920,1080,1920,1080,9-3-2022,13-6-58,27,depth_duration_stimuli/003423_2014-05-21_10-23-26_094959634447_rgbf002665-resize_2/003423_2014-05-21_10-23-26_094959634447_rgbf002665-resize_2-target.png,125,3.2575,5,2544,124,feet,jsons/VE125_randls_25.json,531256,704496,32,Man
27,730031,DepthScenes,duration_manipulation_targetAtFixation,jsons/VE125_randls_25.json,http://54.235.29.9/FacialAge/BNav_EC2/DepthDuration/v2_depth_duration_MTurk/v2_DepthDuration_HTML.html#133,133,1920,1080,1920,1080,9-3-2022,13-6-58,28,depth_duration_stimuli/000788_2014-06-08_22-34-36_260595134347_rgbf000131-resize_1/000788_2014-06-08_22-34-36_260595134347_rgbf000131-resize_1-target.png,125,3.359,0,2712,124,feet,jsons/VE125_randls_25.json,531256,704496,32,Man
28,730031,DepthScenes,duration_manipulation_targetAtFixation,jsons/VE125_randls_25.json,http://54.235.29.9/FacialAge/BNav_EC2/DepthDuration/v2_depth_duration_MTurk/v2_DepthDuration_HTML.html#133,133,1920,1080,1920,1080,9-3-2022,13-6-58,29,depth_duration_stimuli/001235_2014-06-17_16-37-36_260595134347_rgbf000084-resize_4/001235_2014-06-17_16-37-36_260595134347_rgbf000084-resize_4-target.png,125,3.6605,0,3293,125,feet,jsons/VE125_randls_25.json,531256,704496,32,Man
29,730031,DepthScenes,duration_manipulation_targetAtFixation,jsons/VE125_randls_25.json,http://54.235.29.9/FacialAge/BNav_EC2/DepthDuration/v2_depth_duration_MTurk/v2_DepthDuration_HTML.html#133,133,1920,1080,1920,1080,9-3-2022,13-6-58,30,depth_duration_stimuli/000375_2014-06-08_11-17-29_260595134347_rgbf000133-resize_2/000375_2014-06-08_11-17-29_260595134347_rgbf000133-resize-original.jpg,125,4.718,0,2575,123,feet,jsons/VE125_randls_25.json,531256,704496,32,Man
30,730031,DepthScenes,duration_manipulation_targetAtFixation,jsons/VE125_randls_25.json,http://54.235.29.9/FacialAge/BNav_EC2/DepthDuration/v2_depth_duration_MTurk/v2_DepthDuration_HTML.html#133,133,1920,1080,1920,1080,9-3-2022,13-6-58,31,depth_duration_stimuli/000447_2014-06-08_16-15-46_260595134347_rgbf000130-resize_1/000447_2014-06-08_16-15-46_260595134347_rgbf000130-resize_1-target.png,125,4.479,6,3481,123,feet,jsons/VE125_randls_25.json,531256,704496,32,Man
31,730031,DepthScenes,duration_manipulation_targetAtFixation,jsons/VE125_randls_25.json,http://54.235.29.9/FacialAge/BNav_EC2/DepthDuration/v2_depth_duration_MTurk/v2_DepthDuration_HTML.html#133,133,1920,1080,1920,1080,9-3-2022,13-6-58,32,depth_duration_stimuli/001447_2014-06-19_17-00-32_260595134347_rgbf000082-resize_5/001447_2014-06-19_17-00-32_260595134347_rgbf000082-resize_5-target.png,125,4.13775,9,4505,123,feet,jsons/VE125_randls_25.json,531256,704496,32,Man
32,730031,DepthScenes,duration_manipulation_targetAtFixation,jsons/VE125_randls_25.json,http://54.235.29.9/FacialAge/BNav_EC2/DepthDuration/v2_depth_duration_MTurk/v2_DepthDuration_HTML.html#133,133,1920,1080,1920,1080,9-3-2022,13-6-58,33,depth_duration_stimuli/000906_2014-06-08_13-35-43_260595134347_rgbf000155-resize_1/000906_2014-06-08_13-35-43_260595134347_rgbf000155-resize_1-target.png,125,2.8489999999999998,8,3271,124,feet,jsons/VE125_randls_25.json,531256,704496,32,Man
33,730031,DepthScenes,duration_manipulation_targetAtFixation,jsons/VE125_randls_25.json,http://54.235.29.9/FacialAge/BNav_EC2/DepthDuration/v2_depth_duration_MTurk/v2_DepthDuration_HTML.html#133,133,1920,1080,1920,1080,9-3-2022,13-6-58,34,depth_duration_stimuli/002805_2014-06-22_19-54-03_094959634447_rgbf000079-resize_1/002805_2014-06-22_19-54-03_094959634447_rgbf000079-resize_1-target.png,125,3.1439999999999997,7,2833,124,feet,jsons/VE125_randls_25.json,531256,704496,32,Man
34,730031,DepthScenes,duration_manipulation_targetAtFixation,jsons/VE125_randls_25.json,http://54.235.29.9/FacialAge/BNav_EC2/DepthDuration/v2_depth_duration_MTurk/v2_DepthDuration_HTML.html#133,133,1920,1080,1920,1080,9-3-2022,13-6-58,35,depth_duration_stimuli/002043_2014-06-24_20-29-38_260595134347_rgbf000039-resize_4/002043_2014-06-24_20-29-38_260595134347_rgbf000039-resize_4-target.png,125,2.8435,7,2679,124,feet,jsons/VE125_randls_25.json,531256,704496,32,Man
35,730031,DepthScenes,duration_manipulation_targetAtFixation,jsons/VE125_randls_25.json,http://54.235.29.9/FacialAge/BNav_EC2/DepthDuration/v2_depth_duration_MTurk/v2_DepthDuration_HTML.html#133,133,1920,1080,1920,1080,9-3-2022,13-6-58,36,depth_duration_stimuli/003048_2014-06-15_13-49-43_094959634447_rgbf000150-resize_1/003048_2014-06-15_13-49-43_094959634447_rgbf000150-resize_1-target.png,125,4.0035,0,2189,124,feet,jsons/VE125_randls_25.json,531256,704496,32,Man
36,730031,DepthScenes,duration_manipulation_targetAtFixation,jsons/VE125_randls_25.json,http://54.235.29.9/FacialAge/BNav_EC2/DepthDuration/v2_depth_duration_MTurk/v2_DepthDuration_HTML.html#133,133,1920,1080,1920,1080,9-3-2022,13-6-58,37,depth_duration_stimuli/002725_2014-06-22_11-47-51_094959634447_rgbf000070-resize_1/002725_2014-06-22_11-47-51_094959634447_rgbf000070-resize_1-target.png,125,2.195,5,2438,124,feet,jsons/VE125_randls_25.json,531256,704496,32,Man
37,730031,DepthScenes,duration_manipulation_targetAtFixation,jsons/VE125_randls_25.json,http://54.235.29.9/FacialAge/BNav_EC2/DepthDuration/v2_depth_duration_MTurk/v2_DepthDuration_HTML.html#133,133,1920,1080,1920,1080,9-3-2022,13-6-58,38,depth_duration_stimuli/002344_2014-06-28_20-06-29_260595134347_rgbf000030-resize_1/002344_2014-06-28_20-06-29_260595134347_rgbf000030-resize_1-target.png,125,1.5795,2,2434,125,feet,jsons/VE125_randls_25.json,531256,704496,32,Man
38,730031,DepthScenes,duration_manipulation_targetAtFixation,jsons/VE125_randls_25.json,http://54.235.29.9/FacialAge/BNav_EC2/DepthDuration/v2_depth_duration_MTurk/v2_DepthDuration_HTML.html#133,133,1920,1080,1920,1080,9-3-2022,13-6-58,39,depth_duration_stimuli/001158_2014-06-17_15-32-16_260595134347_rgbf000138-resize_2/001158_2014-06-17_15-32-16_260595134347_rgbf000138-resize_2-target.png,125,4.5315,7,4097,124,feet,jsons/VE125_randls_25.json,531256,704496,32,Man
39,730031,DepthScenes,duration_manipulation_targetAtFixation,jsons/VE125_randls_25.json,http://54.235.29.9/FacialAge/BNav_EC2/DepthDuration/v2_depth_duration_MTurk/v2_DepthDuration_HTML.html#133,133,1920,1080,1920,1080,9-3-2022,13-6-58,40,depth_duration_stimuli/000556_2014-06-09_22-42-56_260595134347_rgbf000214-resize_1/000556_2014-06-09_22-42-56_260595134347_rgbf000214-resize_1-target.png,125,4.8415,7,3506,123,feet,jsons/VE125_randls_25.json,531256,704496,32,Man
40,730031,DepthScenes,duration_manipulation_targetAtFixation,jsons/VE125_randls_25.json,http://54.235.29.9/FacialAge/BNav_EC2/DepthDuration/v2_depth_duration_MTurk/v2_DepthDuration_HTML.html#133,133,1920,1080,1920,1080,9-3-2022,13-6-58,41,depth_duration_stimuli/003534_2014-05-22_15-06-10_094959634447_rgbf000102-resize_4/003534_2014-05-22_15-06-10_094959634447_rgbf000102-resize_4-target.png,125,1.426,3,2268,124,feet,jsons/VE125_randls_25.json,531256,704496,32,Man
41,730031,DepthScenes,duration_manipulation_targetAtFixation,jsons/VE125_randls_25.json,http://54.235.29.9/FacialAge/BNav_EC2/DepthDuration/v2_depth_duration_MTurk/v2_DepthDuration_HTML.html#133,133,1920,1080,1920,1080,9-3-2022,13-6-58,42,depth_duration_stimuli/002637_2014-06-24_14-51-13_094959634447_rgbf000066-resize_4/002637_2014-06-24_14-51-13_094959634447_rgbf000066-resize_4-target.png,125,1.9955,4,2199,124,feet,jsons/VE125_randls_25.json,531256,704496,32,Man
42,730031,DepthScenes,duration_manipulation_targetAtFixation,jsons/VE125_randls_25.json,http://54.235.29.9/FacialAge/BNav_EC2/DepthDuration/v2_depth_duration_MTurk/v2_DepthDuration_HTML.html#133,133,1920,1080,1920,1080,9-3-2022,13-6-58,43,depth_duration_stimuli/000522_2014-06-08_13-35-06_260595134347_rgbf000244-resize_1/000522_2014-06-08_13-35-06_260595134347_rgbf000244-resize_1-target.png,125,2.3715,2,2076,124,feet,jsons/VE125_randls_25.json,531256,704496,32,Man
43,730031,DepthScenes,duration_manipulation_targetAtFixation,jsons/VE125_randls_25.json,http://54.235.29.9/FacialAge/BNav_EC2/DepthDuration/v2_depth_duration_MTurk/v2_DepthDuration_HTML.html#133,133,1920,1080,1920,1080,9-3-2022,13-6-58,44,depth_duration_stimuli/002949_2014-06-26_15-57-42_094959634447_rgbf000079-resize_1/002949_2014-06-26_15-57-42_094959634447_rgbf000079-resize_1-target.png,125,1.8915,5,2743,125,feet,jsons/VE125_randls_25.json,531256,704496,32,Man
44,730031,DepthScenes,duration_manipulation_targetAtFixation,jsons/VE125_randls_25.json,http://54.235.29.9/FacialAge/BNav_EC2/DepthDuration/v2_depth_duration_MTurk/v2_DepthDuration_HTML.html#133,133,1920,1080,1920,1080,9-3-2022,13-6-58,45,depth_duration_stimuli/000787_2014-06-08_22-33-53_260595134347_rgbf000175-resize_1/000787_2014-06-08_22-33-53_260595134347_rgbf000175-resize-original.jpg,125,4.784,0,6395,124,feet,jsons/VE125_randls_25.json,531256,704496,32,Man
45,730031,DepthScenes,duration_manipulation_targetAtFixation,jsons/VE125_randls_25.json,http://54.235.29.9/FacialAge/BNav_EC2/DepthDuration/v2_depth_duration_MTurk/v2_DepthDuration_HTML.html#133,133,1920,1080,1920,1080,9-3-2022,13-6-58,46,depth_duration_stimuli/000810_2014-06-08_17-20-01_260595134347_rgbf000105-resize_0/000810_2014-06-08_17-20-01_260595134347_rgbf000105-resize_0-target.png,125,1.4865,4,3457,124,feet,jsons/VE125_randls_25.json,531256,704496,32,Man
46,730031,DepthScenes,duration_manipulation_targetAtFixation,jsons/VE125_randls_25.json,http://54.235.29.9/FacialAge/BNav_EC2/DepthDuration/v2_depth_duration_MTurk/v2_DepthDuration_HTML.html#133,133,1920,1080,1920,1080,9-3-2022,13-6-58,47,depth_duration_stimuli/001214_2014-06-17_16-13-55_260595134347_rgbf000111-resize_0/001214_2014-06-17_16-13-55_260595134347_rgbf000111-resize_0-target.png,125,2.6505,3,1878,124,feet,jsons/VE125_randls_25.json,531256,704496,32,Man
47,730031,DepthScenes,duration_manipulation_targetAtFixation,jsons/VE125_randls_25.json,http://54.235.29.9/FacialAge/BNav_EC2/DepthDuration/v2_depth_duration_MTurk/v2_DepthDuration_HTML.html#133,133,1920,1080,1920,1080,9-3-2022,13-6-58,48,depth_duration_stimuli/000758_2014-06-08_22-05-08_260595134347_rgbf000085-resize_0/000758_2014-06-08_22-05-08_260595134347_rgbf000085-resize_0-target.png,125,3.3810000000000002,6,4657,124,feet,jsons/VE125_randls_25.json,531256,704496,32,Man
48,730031,DepthScenes,duration_manipulation_targetAtFixation,jsons/VE125_randls_25.json,http://54.235.29.9/FacialAge/BNav_EC2/DepthDuration/v2_depth_duration_MTurk/v2_DepthDuration_HTML.html#133,133,1920,1080,1920,1080,9-3-2022,13-6-58,49,depth_duration_stimuli/000854_2014-06-09_19-43-13_260595134347_rgbf000066-resize_0/000854_2014-06-09_19-43-13_260595134347_rgbf000066-resize_0-target.png,125,3.068,5,3361,124,feet,jsons/VE125_randls_25.json,531256,704496,32,Man
49,730031,DepthScenes,duration_manipulation_targetAtFixation,jsons/VE125_randls_25.json,http://54.235.29.9/FacialAge/BNav_EC2/DepthDuration/v2_depth_duration_MTurk/v2_DepthDuration_HTML.html#133,133,1920,1080,1920,1080,9-3-2022,13-6-58,50,depth_duration_stimuli/000692_2014-06-08_13-09-42_260595134347_rgbf000199-resize_2/000692_2014-06-08_13-09-42_260595134347_rgbf000199-resize_2-target.png,125,3.661,10,3816,125,feet,jsons/VE125_randls_25.json,531256,704496,32,Man
50,730031,DepthScenes,duration_manipulation_targetAtFixation,jsons/VE125_randls_25.json,http://54.235.29.9/FacialAge/BNav_EC2/DepthDuration/v2_depth_duration_MTurk/v2_DepthDuration_HTML.html#133,133,1920,1080,1920,1080,9-3-2022,13-6-58,51,depth_duration_stimuli/001094_2014-06-15_17-36-00_260595134347_rgbf000205-resize_0/001094_2014-06-15_17-36-00_260595134347_rgbf000205-resize_0-target.png,125,4.2175,7,5712,125,feet,jsons/VE125_randls_25.json,531256,704496,32,Man
51,730031,DepthScenes,duration_manipulation_targetAtFixation,jsons/VE125_randls_25.json,http://54.235.29.9/FacialAge/BNav_EC2/DepthDuration/v2_depth_duration_MTurk/v2_DepthDuration_HTML.html#133,133,1920,1080,1920,1080,9-3-2022,13-6-58,52,depth_duration_stimuli/001133_2014-06-17_14-49-16_260595134347_rgbf000100-resize_0/001133_2014-06-17_14-49-16_260595134347_rgbf000100-resize_0-target.png,125,4.2115,8,2383,126,feet,jsons/VE125_randls_25.json,531256,704496,32,Man
52,730031,DepthScenes,duration_manipulation_targetAtFixation,jsons/VE125_randls_25.json,http://54.235.29.9/FacialAge/BNav_EC2/DepthDuration/v2_depth_duration_MTurk/v2_DepthDuration_HTML.html#133,133,1920,1080,1920,1080,9-3-2022,13-6-58,53,depth_duration_stimuli/001132_2014-06-17_14-48-54_260595134347_rgbf000100-resize_2/001132_2014-06-17_14-48-54_260595134347_rgbf000100-resize_2-target.png,125,3.753,5,4314,125,feet,jsons/VE125_randls_25.json,531256,704496,32,Man
53,730031,DepthScenes,duration_manipulation_targetAtFixation,jsons/VE125_randls_25.json,http://54.235.29.9/FacialAge/BNav_EC2/DepthDuration/v2_depth_duration_MTurk/v2_DepthDuration_HTML.html#133,133,1920,1080,1920,1080,9-3-2022,13-6-58,54,depth_duration_stimuli/001555_2014-06-20_17-12-10_260595134347_rgbf000065-resize_4/001555_2014-06-20_17-12-10_260595134347_rgbf000065-resize_4-target.png,125,1.633,3,2130,125,feet,jsons/VE125_randls_25.json,531256,704496,32,Man
54,730031,DepthScenes,duration_manipulation_targetAtFixation,jsons/VE125_randls_25.json,http://54.235.29.9/FacialAge/BNav_EC2/DepthDuration/v2_depth_duration_MTurk/v2_DepthDuration_HTML.html#133,133,1920,1080,1920,1080,9-3-2022,13-6-58,55,depth_duration_stimuli/000103_2014-05-14_22-01-17_260595134347_rgbf000152-resize_5/000103_2014-05-14_22-01-17_260595134347_rgbf000152-resize_5-target.png,125,1.993,6,4282,125,feet,jsons/VE125_randls_25.json,531256,704496,32,Man
55,730031,DepthScenes,duration_manipulation_targetAtFixation,jsons/VE125_randls_25.json,http://54.235.29.9/FacialAge/BNav_EC2/DepthDuration/v2_depth_duration_MTurk/v2_DepthDuration_HTML.html#133,133,1920,1080,1920,1080,9-3-2022,13-6-58,56,depth_duration_stimuli/002570_2014-06-24_13-59-54_094959634447_rgbf000059-resize_0/002570_2014-06-24_13-59-54_094959634447_rgbf000059-resize_0-target.png,125,4.037,6,2558,124,feet,jsons/VE125_randls_25.json,531256,704496,32,Man
56,730031,DepthScenes,duration_manipulation_targetAtFixation,jsons/VE125_randls_25.json,http://54.235.29.9/FacialAge/BNav_EC2/DepthDuration/v2_depth_duration_MTurk/v2_DepthDuration_HTML.html#133,133,1920,1080,1920,1080,9-3-2022,13-6-58,57,depth_duration_stimuli/002467_2014-06-28_20-38-07_260595134347_rgbf000026-resize_2/002467_2014-06-28_20-38-07_260595134347_rgbf000026-resize_2-target.png,125,4.742,7,4042,123,feet,jsons/VE125_randls_25.json,531256,704496,32,Man
57,730031,DepthScenes,duration_manipulation_targetAtFixation,jsons/VE125_randls_25.json,http://54.235.29.9/FacialAge/BNav_EC2/DepthDuration/v2_depth_duration_MTurk/v2_DepthDuration_HTML.html#133,133,1920,1080,1920,1080,9-3-2022,13-6-58,58,depth_duration_stimuli/001570_2014-06-20_17-21-09_260595134347_rgbf000135-resize_4/001570_2014-06-20_17-21-09_260595134347_rgbf000135-resize_4-target.png,125,4.467,8,2470,125,feet,jsons/VE125_randls_25.json,531256,704496,32,Man
58,730031,DepthScenes,duration_manipulation_targetAtFixation,jsons/VE125_randls_25.json,http://54.235.29.9/FacialAge/BNav_EC2/DepthDuration/v2_depth_duration_MTurk/v2_DepthDuration_HTML.html#133,133,1920,1080,1920,1080,9-3-2022,13-6-58,59,depth_duration_stimuli/001392_2014-06-19_16-07-59_260595134347_rgbf000046-resize_1/001392_2014-06-19_16-07-59_260595134347_rgbf000046-resize_1-target.png,125,4.135,5,3815,124,feet,jsons/VE125_randls_25.json,531256,704496,32,Man
59,730031,DepthScenes,duration_manipulation_targetAtFixation,jsons/VE125_randls_25.json,http://54.235.29.9/FacialAge/BNav_EC2/DepthDuration/v2_depth_duration_MTurk/v2_DepthDuration_HTML.html#133,133,1920,1080,1920,1080,9-3-2022,13-6-58,60,depth_duration_stimuli/002549_2014-06-24_13-41-39_094959634447_rgbf000022-resize_3/002549_2014-06-24_13-41-39_094959634447_rgbf000022-resize_3-target.png,125,1.476,3,1812,124,feet,jsons/VE125_randls_25.json,531256,704496,32,Man
60,730031,DepthScenes,duration_manipulation_targetAtFixation,jsons/VE125_randls_25.json,http://54.235.29.9/FacialAge/BNav_EC2/DepthDuration/v2_depth_duration_MTurk/v2_DepthDuration_HTML.html#133,133,1920,1080,1920,1080,9-3-2022,13-6-58,61,depth_duration_stimuli/002750_2014-06-22_19-08-03_094959634447_rgbf000094-resize_4/002750_2014-06-22_19-08-03_094959634447_rgbf000094-resize_4-target.png,125,2.354,6,3125,125,feet,jsons/VE125_randls_25.json,531256,704496,32,Man
61,730031,DepthScenes,duration_manipulation_targetAtFixation,jsons/VE125_randls_25.json,http://54.235.29.9/FacialAge/BNav_EC2/DepthDuration/v2_depth_duration_MTurk/v2_DepthDuration_HTML.html#133,133,1920,1080,1920,1080,9-3-2022,13-6-58,62,depth_duration_stimuli/001110_2014-06-15_17-25-28_260595134347_rgbf000150-resize_1/001110_2014-06-15_17-25-28_260595134347_rgbf000150-resize_1-target.png,125,1.7115,5,5873,123,feet,jsons/VE125_randls_25.json,531256,704496,32,Man
62,730031,DepthScenes,duration_manipulation_targetAtFixation,jsons/VE125_randls_25.json,http://54.235.29.9/FacialAge/BNav_EC2/DepthDuration/v2_depth_duration_MTurk/v2_DepthDuration_HTML.html#133,133,1920,1080,1920,1080,9-3-2022,13-6-58,63,depth_duration_stimuli/000927_2014-06-09_16-32-30_260595134347_rgbf000123-resize_3/000927_2014-06-09_16-32-30_260595134347_rgbf000123-resize_3-target.png,125,2.6785,8,4115,123,feet,jsons/VE125_randls_25.json,531256,704496,32,Man
63,730031,DepthScenes,duration_manipulation_targetAtFixation,jsons/VE125_randls_25.json,http://54.235.29.9/FacialAge/BNav_EC2/DepthDuration/v2_depth_duration_MTurk/v2_DepthDuration_HTML.html#133,133,1920,1080,1920,1080,9-3-2022,13-6-58,64,depth_duration_stimuli/002763_2014-06-22_19-13-10_094959634447_rgbf000075-resize_4/002763_2014-06-22_19-13-10_094959634447_rgbf000075-resize_4-target.png,125,1.68375,4,2196,124,feet,jsons/VE125_randls_25.json,531256,704496,32,Man
64,730031,DepthScenes,duration_manipulation_targetAtFixation,jsons/VE125_randls_25.json,http://54.235.29.9/FacialAge/BNav_EC2/DepthDuration/v2_depth_duration_MTurk/v2_DepthDuration_HTML.html#133,133,1920,1080,1920,1080,9-3-2022,13-6-58,65,depth_duration_stimuli/002209_2014-06-28_18-36-10_260595134347_rgbf000051-resize_1/002209_2014-06-28_18-36-10_260595134347_rgbf000051-resize_1-target.png,125,2.057,3,2240,124,feet,jsons/VE125_randls_25.json,531256,704496,32,Man
65,730031,DepthScenes,duration_manipulation_targetAtFixation,jsons/VE125_randls_25.json,http://54.235.29.9/FacialAge/BNav_EC2/DepthDuration/v2_depth_duration_MTurk/v2_DepthDuration_HTML.html#133,133,1920,1080,1920,1080,9-3-2022,13-6-58,66,depth_duration_stimuli/001222_2014-06-17_16-24-06_260595134347_rgbf000073-resize_0/001222_2014-06-17_16-24-06_260595134347_rgbf000073-resize-original.jpg,125,1.4385,0,2425,124,feet,jsons/VE125_randls_25.json,531256,704496,32,Man
66,730031,DepthScenes,duration_manipulation_targetAtFixation,jsons/VE125_randls_25.json,http://54.235.29.9/FacialAge/BNav_EC2/DepthDuration/v2_depth_duration_MTurk/v2_DepthDuration_HTML.html#133,133,1920,1080,1920,1080,9-3-2022,13-6-58,67,depth_duration_stimuli/000436_2014-06-09_22-25-11_260595134347_rgbf000137-resize_1/000436_2014-06-09_22-25-11_260595134347_rgbf000137-resize_1-target.png,125,4.0705,8,3032,124,feet,jsons/VE125_randls_25.json,531256,704496,32,Man
67,730031,DepthScenes,duration_manipulation_targetAtFixation,jsons/VE125_randls_25.json,http://54.235.29.9/FacialAge/BNav_EC2/DepthDuration/v2_depth_duration_MTurk/v2_DepthDuration_HTML.html#133,133,1920,1080,1920,1080,9-3-2022,13-6-58,68,depth_duration_stimuli/002444_2014-06-28_20-32-08_260595134347_rgbf000027-resize_0/002444_2014-06-28_20-32-08_260595134347_rgbf000027-resize_0-target.png,125,4.388999999999999,8,2328,124,feet,jsons/VE125_randls_25.json,531256,704496,32,Man
68,730031,DepthScenes,duration_manipulation_targetAtFixation,jsons/VE125_randls_25.json,http://54.235.29.9/FacialAge/BNav_EC2/DepthDuration/v2_depth_duration_MTurk/v2_DepthDuration_HTML.html#133,133,1920,1080,1920,1080,9-3-2022,13-6-58,69,depth_duration_stimuli/002988_2014-06-15_12-24-20_094959634447_rgbf000150-resize_1/002988_2014-06-15_12-24-20_094959634447_rgbf000150-resize_1-target.png,125,4.7669999999999995,10,3360,124,feet,jsons/VE125_randls_25.json,531256,704496,32,Man
69,730031,DepthScenes,duration_manipulation_targetAtFixation,jsons/VE125_randls_25.json,http://54.235.29.9/FacialAge/BNav_EC2/DepthDuration/v2_depth_duration_MTurk/v2_DepthDuration_HTML.html#133,133,1920,1080,1920,1080,9-3-2022,13-6-58,70,depth_duration_stimuli/001052_2014-06-08_18-24-54_260595134347_rgbf000130-resize_1/001052_2014-06-08_18-24-54_260595134347_rgbf000130-resize_1-target.png,125,4.1045,7,3728,124,feet,jsons/VE125_randls_25.json,531256,704496,32,Man
70,730031,DepthScenes,duration_manipulation_targetAtFixation,jsons/VE125_randls_25.json,http://54.235.29.9/FacialAge/BNav_EC2/DepthDuration/v2_depth_duration_MTurk/v2_DepthDuration_HTML.html#133,133,1920,1080,1920,1080,9-3-2022,13-6-58,71,depth_duration_stimuli/001150_2014-06-17_15-27-34_260595134347_rgbf000108-resize_2/001150_2014-06-17_15-27-34_260595134347_rgbf000108-resize_2-target.png,125,4.0325,7,2429,124,feet,jsons/VE125_randls_25.json,531256,704496,32,Man
71,730031,DepthScenes,duration_manipulation_targetAtFixation,jsons/VE125_randls_25.json,http://54.235.29.9/FacialAge/BNav_EC2/DepthDuration/v2_depth_duration_MTurk/v2_DepthDuration_HTML.html#133,133,1920,1080,1920,1080,9-3-2022,13-6-58,72,depth_duration_stimuli/000665_2014-06-09_20-42-35_260595134347_rgbf000110-resize_1/000665_2014-06-09_20-42-35_260595134347_rgbf000110-resize_1-target.png,125,3.057,6,2855,124,feet,jsons/VE125_randls_25.json,531256,704496,32,Man
72,730031,DepthScenes,duration_manipulation_targetAtFixation,jsons/VE125_randls_25.json,http://54.235.29.9/FacialAge/BNav_EC2/DepthDuration/v2_depth_duration_MTurk/v2_DepthDuration_HTML.html#133,133,1920,1080,1920,1080,9-3-2022,13-6-58,73,depth_duration_stimuli/001055_2014-06-08_18-45-35_260595134347_rgbf000111-resize_4/001055_2014-06-08_18-45-35_260595134347_rgbf000111-resize_4-target.png,125,2.4290000000000003,0,2536,124,feet,jsons/VE125_randls_25.json,531256,704496,32,Man
73,730031,DepthScenes,duration_manipulation_targetAtFixation,jsons/VE125_randls_25.json,http://54.235.29.9/FacialAge/BNav_EC2/DepthDuration/v2_depth_duration_MTurk/v2_DepthDuration_HTML.html#133,133,1920,1080,1920,1080,9-3-2022,13-6-58,74,depth_duration_stimuli/000549_2014-06-08_22-10-24_260595134347_rgbf000247-resize_3/000549_2014-06-08_22-10-24_260595134347_rgbf000247-resize_3-target.png,125,1.841,5,5813,124,feet,jsons/VE125_randls_25.json,531256,704496,32,Man
74,730031,DepthScenes,duration_manipulation_targetAtFixation,jsons/VE125_randls_25.json,http://54.235.29.9/FacialAge/BNav_EC2/DepthDuration/v2_depth_duration_MTurk/v2_DepthDuration_HTML.html#133,133,1920,1080,1920,1080,9-3-2022,13-6-58,75,depth_duration_stimuli/000917_2014-06-09_22-45-29_260595134347_rgbf000149-resize_3/000917_2014-06-09_22-45-29_260595134347_rgbf000149-resize_3-target.png,125,4.1865,8,2278,124,feet,jsons/VE125_randls_25.json,531256,704496,32,Man
75,730031,DepthScenes,duration_manipulation_targetAtFixation,jsons/VE125_randls_25.json,http://54.235.29.9/FacialAge/BNav_EC2/DepthDuration/v2_depth_duration_MTurk/v2_DepthDuration_HTML.html#133,133,1920,1080,1920,1080,9-3-2022,13-6-58,76,depth_duration_stimuli/002323_2014-06-28_20-01-54_260595134347_rgbf000051-resize_4/002323_2014-06-28_20-01-54_260595134347_rgbf000051-resize_4-target.png,125,3.7310000000000003,8,2030,124,feet,jsons/VE125_randls_25.json,531256,704496,32,Man
76,730031,DepthScenes,duration_manipulation_targetAtFixation,jsons/VE125_randls_25.json,http://54.235.29.9/FacialAge/BNav_EC2/DepthDuration/v2_depth_duration_MTurk/v2_DepthDuration_HTML.html#133,133,1920,1080,1920,1080,9-3-2022,13-6-58,77,depth_duration_stimuli/003621_2014-05-23_18-06-08_094959634447_rgbf000101-resize_1/003621_2014-05-23_18-06-08_094959634447_rgbf000101-resize_1-target.png,125,3.9835,10,2722,125,feet,jsons/VE125_randls_25.json,531256,704496,32,Man
77,730031,DepthScenes,duration_manipulation_targetAtFixation,jsons/VE125_randls_25.json,http://54.235.29.9/FacialAge/BNav_EC2/DepthDuration/v2_depth_duration_MTurk/v2_DepthDuration_HTML.html#133,133,1920,1080,1920,1080,9-3-2022,13-6-58,78,depth_duration_stimuli/001584_2014-06-20_11-07-43_260595134347_rgbf000002-resize_1/001584_2014-06-20_11-07-43_260595134347_rgbf000002-resize_1-target.png,125,3.53,6,2494,126,feet,jsons/VE125_randls_25.json,531256,704496,32,Man
78,730031,DepthScenes,duration_manipulation_targetAtFixation,jsons/VE125_randls_25.json,http://54.235.29.9/FacialAge/BNav_EC2/DepthDuration/v2_depth_duration_MTurk/v2_DepthDuration_HTML.html#133,133,1920,1080,1920,1080,9-3-2022,13-6-58,79,depth_duration_stimuli/001417_2014-06-19_16-25-36_260595134347_rgbf000115-resize_5/001417_2014-06-19_16-25-36_260595134347_rgbf000115-resize_5-target.png,125,4.6255,8,6153,125,feet,jsons/VE125_randls_25.json,531256,704496,32,Man
79,730031,DepthScenes,duration_manipulation_targetAtFixation,jsons/VE125_randls_25.json,http://54.235.29.9/FacialAge/BNav_EC2/DepthDuration/v2_depth_duration_MTurk/v2_DepthDuration_HTML.html#133,133,1920,1080,1920,1080,9-3-2022,13-6-58,80,depth_duration_stimuli/003081_2014-06-15_15-19-16_094959634447_rgbf000150-resize_1/003081_2014-06-15_15-19-16_094959634447_rgbf000150-resize_1-target.png,125,3.9125,8,2662,125,feet,jsons/VE125_randls_25.json,531256,704496,32,Man
80,730031,DepthScenes,duration_manipulation_targetAtFixation,jsons/VE125_randls_25.json,http://54.235.29.9/FacialAge/BNav_EC2/DepthDuration/v2_depth_duration_MTurk/v2_DepthDuration_HTML.html#133,133,1920,1080,1920,1080,9-3-2022,13-6-58,81,depth_duration_stimuli/001011_2014-06-08_23-18-54_260595134347_rgbf000044-resize_4/001011_2014-06-08_23-18-54_260595134347_rgbf000044-resize_4-target.png,125,2.4730000000000003,5,2151,124,feet,jsons/VE125_randls_25.json,531256,704496,32,Man
81,730031,DepthScenes,duration_manipulation_targetAtFixation,jsons/VE125_randls_25.json,http://54.235.29.9/FacialAge/BNav_EC2/DepthDuration/v2_depth_duration_MTurk/v2_DepthDuration_HTML.html#133,133,1920,1080,1920,1080,9-3-2022,13-6-58,82,depth_duration_stimuli/002875_2014-06-01_15-19-00_094959634447_rgbf000151-resize_1/002875_2014-06-01_15-19-00_094959634447_rgbf000151-resize_1-target.png,125,1.9675,4,1997,124,feet,jsons/VE125_randls_25.json,531256,704496,32,Man
82,730031,DepthScenes,duration_manipulation_targetAtFixation,jsons/VE125_randls_25.json,http://54.235.29.9/FacialAge/BNav_EC2/DepthDuration/v2_depth_duration_MTurk/v2_DepthDuration_HTML.html#133,133,1920,1080,1920,1080,9-3-2022,13-6-58,83,depth_duration_stimuli/001199_2014-06-17_16-03-48_260595134347_rgbf000077-resize_0/001199_2014-06-17_16-03-48_260595134347_rgbf000077-resize_0-target.png,125,3.4375,8,2697,124,feet,jsons/VE125_randls_25.json,531256,704496,32,Man
83,730031,DepthScenes,duration_manipulation_targetAtFixation,jsons/VE125_randls_25.json,http://54.235.29.9/FacialAge/BNav_EC2/DepthDuration/v2_depth_duration_MTurk/v2_DepthDuration_HTML.html#133,133,1920,1080,1920,1080,9-3-2022,13-6-58,84,depth_duration_stimuli/000502_2014-06-08_23-02-32_260595134347_rgbf000063-resize_4/000502_2014-06-08_23-02-32_260595134347_rgbf000063-resize_4-target.png,125,2.431,3,1635,124,feet,jsons/VE125_randls_25.json,531256,704496,32,Man
84,730031,DepthScenes,duration_manipulation_targetAtFixation,jsons/VE125_randls_25.json,http://54.235.29.9/FacialAge/BNav_EC2/DepthDuration/v2_depth_duration_MTurk/v2_DepthDuration_HTML.html#133,133,1920,1080,1920,1080,9-3-2022,13-6-58,85,depth_duration_stimuli/000506_2014-06-08_23-21-00_260595134347_rgbf000070-resize_7/000506_2014-06-08_23-21-00_260595134347_rgbf000070-resize_7-target.png,125,4.0585,7,2745,123,feet,jsons/VE125_randls_25.json,531256,704496,32,Man
85,730031,DepthScenes,duration_manipulation_targetAtFixation,jsons/VE125_randls_25.json,http://54.235.29.9/FacialAge/BNav_EC2/DepthDuration/v2_depth_duration_MTurk/v2_DepthDuration_HTML.html#133,133,1920,1080,1920,1080,9-3-2022,13-6-58,86,depth_duration_stimuli/003079_2014-06-15_15-18-20_094959634447_rgbf000152-resize_8/003079_2014-06-15_15-18-20_094959634447_rgbf000152-resize_8-target.png,125,2.8775,6,2170,123,feet,jsons/VE125_randls_25.json,531256,704496,32,Man
86,730031,DepthScenes,duration_manipulation_targetAtFixation,jsons/VE125_randls_25.json,http://54.235.29.9/FacialAge/BNav_EC2/DepthDuration/v2_depth_duration_MTurk/v2_DepthDuration_HTML.html#133,133,1920,1080,1920,1080,9-3-2022,13-6-58,87,depth_duration_stimuli/003492_2014-05-21_15-50-55_094959634447_rgbf000828-resize_1/003492_2014-05-21_15-50-55_094959634447_rgbf000828-resize_1-target.png,125,4.06875,10,3666,124,feet,jsons/VE125_randls_25.json,531256,704496,32,Man
87,730031,DepthScenes,duration_manipulation_targetAtFixation,jsons/VE125_randls_25.json,http://54.235.29.9/FacialAge/BNav_EC2/DepthDuration/v2_depth_duration_MTurk/v2_DepthDuration_HTML.html#133,133,1920,1080,1920,1080,9-3-2022,13-6-58,88,depth_duration_stimuli/002568_2014-06-24_13-59-21_094959634447_rgbf000062-resize_4/002568_2014-06-24_13-59-21_094959634447_rgbf000062-resize_4-target.png,125,3.015,6,2390,123,feet,jsons/VE125_randls_25.json,531256,704496,32,Man
88,730031,DepthScenes,duration_manipulation_targetAtFixation,jsons/VE125_randls_25.json,http://54.235.29.9/FacialAge/BNav_EC2/DepthDuration/v2_depth_duration_MTurk/v2_DepthDuration_HTML.html#133,133,1920,1080,1920,1080,9-3-2022,13-6-58,89,depth_duration_stimuli/001806_2014-06-26_20-50-20_260595134347_rgbf000091-resize_1/001806_2014-06-26_20-50-20_260595134347_rgbf000091-resize_1-target.png,125,2.7305,4,2006,124,feet,jsons/VE125_randls_25.json,531256,704496,32,Man
89,730031,DepthScenes,duration_manipulation_targetAtFixation,jsons/VE125_randls_25.json,http://54.235.29.9/FacialAge/BNav_EC2/DepthDuration/v2_depth_duration_MTurk/v2_DepthDuration_HTML.html#133,133,1920,1080,1920,1080,9-3-2022,13-6-58,90,depth_duration_stimuli/001617_2014-06-20_11-35-32_260595134347_rgbf000066-resize_1/001617_2014-06-20_11-35-32_260595134347_rgbf000066-resize_1-target.png,125,3.7910000000000004,8,3394,125,feet,jsons/VE125_randls_25.json,531256,704496,32,Man
90,730031,DepthScenes,duration_manipulation_targetAtFixation,jsons/VE125_randls_25.json,http://54.235.29.9/FacialAge/BNav_EC2/DepthDuration/v2_depth_duration_MTurk/v2_DepthDuration_HTML.html#133,133,1920,1080,1920,1080,9-3-2022,13-6-58,91,depth_duration_stimuli/000493_2014-06-09_21-01-18_260595134347_rgbf000196-resize_3/000493_2014-06-09_21-01-18_260595134347_rgbf000196-resize_3-target.png,125,3.44,6,4581,125,feet,jsons/VE125_randls_25.json,531256,704496,32,Man
91,730031,DepthScenes,duration_manipulation_targetAtFixation,jsons/VE125_randls_25.json,http://54.235.29.9/FacialAge/BNav_EC2/DepthDuration/v2_depth_duration_MTurk/v2_DepthDuration_HTML.html#133,133,1920,1080,1920,1080,9-3-2022,13-6-58,92,depth_duration_stimuli/000191_2014-05-12_17-07-38_260595134347_rgbf000199-resize_0/000191_2014-05-12_17-07-38_260595134347_rgbf000199-resize_0-target.png,125,3.7995,10,2669,125,feet,jsons/VE125_randls_25.json,531256,704496,32,Man
92,730031,DepthScenes,duration_manipulation_targetAtFixation,jsons/VE125_randls_25.json,http://54.235.29.9/FacialAge/BNav_EC2/DepthDuration/v2_depth_duration_MTurk/v2_DepthDuration_HTML.html#133,133,1920,1080,1920,1080,9-3-2022,13-6-58,93,depth_duration_stimuli/002039_2014-06-24_20-22-38_260595134347_rgbf000084-resize_1/002039_2014-06-24_20-22-38_260595134347_rgbf000084-resize_1-target.png,125,4.408,8,2640,125,feet,jsons/VE125_randls_25.json,531256,704496,32,Man
93,730031,DepthScenes,duration_manipulation_targetAtFixation,jsons/VE125_randls_25.json,http://54.235.29.9/FacialAge/BNav_EC2/DepthDuration/v2_depth_duration_MTurk/v2_DepthDuration_HTML.html#133,133,1920,1080,1920,1080,9-3-2022,13-6-58,94,depth_duration_stimuli/002103_2014-06-25_20-00-40_260595134347_rgbf000049-resize_0/002103_2014-06-25_20-00-40_260595134347_rgbf000049-resize_0-target.png,125,4.105,7,2359,124,feet,jsons/VE125_randls_25.json,531256,704496,32,Man
94,730031,DepthScenes,duration_manipulation_targetAtFixation,jsons/VE125_randls_25.json,http://54.235.29.9/FacialAge/BNav_EC2/DepthDuration/v2_depth_duration_MTurk/v2_DepthDuration_HTML.html#133,133,1920,1080,1920,1080,9-3-2022,13-6-58,95,depth_duration_stimuli/002989_2014-06-15_12-25-03_094959634447_rgbf000150-resize_3/002989_2014-06-15_12-25-03_094959634447_rgbf000150-resize_3-target.png,125,4.1975,8,2850,124,feet,jsons/VE125_randls_25.json,531256,704496,32,Man
95,730031,DepthScenes,duration_manipulation_targetAtFixation,jsons/VE125_randls_25.json,http://54.235.29.9/FacialAge/BNav_EC2/DepthDuration/v2_depth_duration_MTurk/v2_DepthDuration_HTML.html#133,133,1920,1080,1920,1080,9-3-2022,13-6-58,96,depth_duration_stimuli/000866_2014-06-09_20-45-42_260595134347_rgbf000139-resize_1/000866_2014-06-09_20-45-42_260595134347_rgbf000139-resize_1-target.png,125,3.2155,7,2118,125,feet,jsons/VE125_randls_25.json,531256,704496,32,Man
96,730031,DepthScenes,duration_manipulation_targetAtFixation,jsons/VE125_randls_25.json,http://54.235.29.9/FacialAge/BNav_EC2/DepthDuration/v2_depth_duration_MTurk/v2_DepthDuration_HTML.html#133,133,1920,1080,1920,1080,9-3-2022,13-6-58,97,depth_duration_stimuli/001164_2014-06-17_15-35-46_260595134347_rgbf000085-resize_3/001164_2014-06-17_15-35-46_260595134347_rgbf000085-resize_3-target.png,125,2.354,5,1980,124,feet,jsons/VE125_randls_25.json,531256,704496,32,Man
97,730031,DepthScenes,duration_manipulation_targetAtFixation,jsons/VE125_randls_25.json,http://54.235.29.9/FacialAge/BNav_EC2/DepthDuration/v2_depth_duration_MTurk/v2_DepthDuration_HTML.html#133,133,1920,1080,1920,1080,9-3-2022,13-6-58,98,depth_duration_stimuli/001136_2014-06-17_15-19-41_260595134347_rgbf000076-resize_3/001136_2014-06-17_15-19-41_260595134347_rgbf000076-resize_3-target.png,125,1.8655,0,2250,125,feet,jsons/VE125_randls_25.json,531256,704496,32,Man
98,730031,DepthScenes,duration_manipulation_targetAtFixation,jsons/VE125_randls_25.json,http://54.235.29.9/FacialAge/BNav_EC2/DepthDuration/v2_depth_duration_MTurk/v2_DepthDuration_HTML.html#133,133,1920,1080,1920,1080,9-3-2022,13-6-58,99,depth_duration_stimuli/001540_2014-06-20_17-01-05_260595134347_rgbf000086-resize_2/001540_2014-06-20_17-01-05_260595134347_rgbf000086-resize-original.jpg,125,1.459,0,2942,123,feet,jsons/VE125_randls_25.json,531256,704496,32,Man
99,730031,DepthScenes,duration_manipulation_targetAtFixation,jsons/VE125_randls_25.json,http://54.235.29.9/FacialAge/BNav_EC2/DepthDuration/v2_depth_duration_MTurk/v2_DepthDuration_HTML.html#133,133,1920,1080,1920,1080,9-3-2022,13-6-58,100,depth_duration_stimuli/002118_2014-06-25_20-32-08_260595134347_rgbf000078-resize_1/002118_2014-06-25_20-32-08_260595134347_rgbf000078-resize_1-target.png,125,2.6460000000000004,4,2464,124,feet,jsons/VE125_randls_25.json,531256,704496,32,Man
100,730031,DepthScenes,duration_manipulation_targetAtFixation,jsons/VE125_randls_25.json,http://54.235.29.9/FacialAge/BNav_EC2/DepthDuration/v2_depth_duration_MTurk/v2_DepthDuration_HTML.html#133,133,1920,1080,1920,1080,9-3-2022,13-6-58,101,depth_duration_stimuli/001516_2014-06-20_16-25-09_260595134347_rgbf000076-resize_2/001516_2014-06-20_16-25-09_260595134347_rgbf000076-resize_2-target.png,125,1.7445,4,1685,124,feet,jsons/VE125_randls_25.json,531256,704496,32,Man
101,730031,DepthScenes,duration_manipulation_targetAtFixation,jsons/VE125_randls_25.json,http://54.235.29.9/FacialAge/BNav_EC2/DepthDuration/v2_depth_duration_MTurk/v2_DepthDuration_HTML.html#133,133,1920,1080,1920,1080,9-3-2022,13-6-58,102,depth_duration_stimuli/002788_2014-06-22_19-36-03_094959634447_rgbf000088-resize_2/002788_2014-06-22_19-36-03_094959634447_rgbf000088-resize_2-target.png,125,1.6465,5,2029,124,feet,jsons/VE125_randls_25.json,531256,704496,32,Man
102,730031,DepthScenes,duration_manipulation_targetAtFixation,jsons/VE125_randls_25.json,http://54.235.29.9/FacialAge/BNav_EC2/DepthDuration/v2_depth_duration_MTurk/v2_DepthDuration_HTML.html#133,133,1920,1080,1920,1080,9-3-2022,13-6-58,103,depth_duration_stimuli/000749_2014-06-08_21-55-06_260595134347_rgbf000070-resize_2/000749_2014-06-08_21-55-06_260595134347_rgbf000070-resize_2-target.png,125,2.331,4,2255,125,feet,jsons/VE125_randls_25.json,531256,704496,32,Man
103,730031,DepthScenes,duration_manipulation_targetAtFixation,jsons/VE125_randls_25.json,http://54.235.29.9/FacialAge/BNav_EC2/DepthDuration/v2_depth_duration_MTurk/v2_DepthDuration_HTML.html#133,133,1920,1080,1920,1080,9-3-2022,13-6-58,104,depth_duration_stimuli/001016_2014-06-09_16-16-10_260595134347_rgbf000112-resize_5/001016_2014-06-09_16-16-10_260595134347_rgbf000112-resize_5-target.png,125,1.6565,4,4813,125,feet,jsons/VE125_randls_25.json,531256,704496,32,Man
104,730031,DepthScenes,duration_manipulation_targetAtFixation,jsons/VE125_randls_25.json,http://54.235.29.9/FacialAge/BNav_EC2/DepthDuration/v2_depth_duration_MTurk/v2_DepthDuration_HTML.html#133,133,1920,1080,1920,1080,9-3-2022,13-6-58,105,depth_duration_stimuli/002340_2014-06-28_20-05-46_260595134347_rgbf000113-resize_0/002340_2014-06-28_20-05-46_260595134347_rgbf000113-resize_0-target.png,125,2.4735,3,1772,124,feet,jsons/VE125_randls_25.json,531256,704496,32,Man
105,730031,DepthScenes,duration_manipulation_targetAtFixation,jsons/VE125_randls_25.json,http://54.235.29.9/FacialAge/BNav_EC2/DepthDuration/v2_depth_duration_MTurk/v2_DepthDuration_HTML.html#133,133,1920,1080,1920,1080,9-3-2022,13-6-58,106,depth_duration_stimuli/000009_2014-05-26_14-32-05_260595134347_rgbf000034-resize_3/000009_2014-05-26_14-32-05_260595134347_rgbf000034-resize_3-target.png,125,3.8715,6,4347,124,feet,jsons/VE125_randls_25.json,531256,704496,32,Man
106,730031,DepthScenes,duration_manipulation_targetAtFixation,jsons/VE125_randls_25.json,http://54.235.29.9/FacialAge/BNav_EC2/DepthDuration/v2_depth_duration_MTurk/v2_DepthDuration_HTML.html#133,133,1920,1080,1920,1080,9-3-2022,13-6-58,107,depth_duration_stimuli/001828_2014-06-26_21-40-03_260595134347_rgbf000024-resize_0/001828_2014-06-26_21-40-03_260595134347_rgbf000024-resize_0-target.png,125,4.8260000000000005,7,2638,125,feet,jsons/VE125_randls_25.json,531256,704496,32,Man
107,730031,DepthScenes,duration_manipulation_targetAtFixation,jsons/VE125_randls_25.json,http://54.235.29.9/FacialAge/BNav_EC2/DepthDuration/v2_depth_duration_MTurk/v2_DepthDuration_HTML.html#133,133,1920,1080,1920,1080,9-3-2022,13-6-58,108,depth_duration_stimuli/002153_2014-06-25_21-27-18_260595134347_rgbf000038-resize_5/002153_2014-06-25_21-27-18_260595134347_rgbf000038-resize_5-target.png,125,2.505,5,2744,125,feet,jsons/VE125_randls_25.json,531256,704496,32,Man
108,730031,DepthScenes,duration_manipulation_targetAtFixation,jsons/VE125_randls_25.json,http://54.235.29.9/FacialAge/BNav_EC2/DepthDuration/v2_depth_duration_MTurk/v2_DepthDuration_HTML.html#133,133,1920,1080,1920,1080,9-3-2022,13-6-58,109,depth_duration_stimuli/002660_2014-06-13_15-44-18_094959634447_rgbf001878-resize_2/002660_2014-06-13_15-44-18_094959634447_rgbf001878-resize_2-target.png,125,3.576,7,2439,123,feet,jsons/VE125_randls_25.json,531256,704496,32,Man
109,730031,DepthScenes,duration_manipulation_targetAtFixation,jsons/VE125_randls_25.json,http://54.235.29.9/FacialAge/BNav_EC2/DepthDuration/v2_depth_duration_MTurk/v2_DepthDuration_HTML.html#133,133,1920,1080,1920,1080,9-3-2022,13-6-58,110,depth_duration_stimuli/000469_2014-06-09_19-42-10_260595134347_rgbf000081-resize_1/000469_2014-06-09_19-42-10_260595134347_rgbf000081-resize_1-target.png,125,1.652,3,1829,123,feet,jsons/VE125_randls_25.json,531256,704496,32,Man
110,730031,DepthScenes,duration_manipulation_targetAtFixation,jsons/VE125_randls_25.json,http://54.235.29.9/FacialAge/BNav_EC2/DepthDuration/v2_depth_duration_MTurk/v2_DepthDuration_HTML.html#133,133,1920,1080,1920,1080,9-3-2022,13-6-58,111,depth_duration_stimuli/000483_2014-06-09_20-41-45_260595134347_rgbf000116-resize_4/000483_2014-06-09_20-41-45_260595134347_rgbf000116-resize_4-target.png,125,1.337,3,1727,124,feet,jsons/VE125_randls_25.json,531256,704496,32,Man
111,730031,DepthScenes,duration_manipulation_targetAtFixation,jsons/VE125_randls_25.json,http://54.235.29.9/FacialAge/BNav_EC2/DepthDuration/v2_depth_duration_MTurk/v2_DepthDuration_HTML.html#133,133,1920,1080,1920,1080,9-3-2022,13-6-58,112,depth_duration_stimuli/001056_2014-06-08_18-46-44_260595134347_rgbf000068-resize_0/001056_2014-06-08_18-46-44_260595134347_rgbf000068-resize_0-target.png,125,2.6625,5,2111,126,feet,jsons/VE125_randls_25.json,531256,704496,32,Man
112,730031,DepthScenes,duration_manipulation_targetAtFixation,jsons/VE125_randls_25.json,http://54.235.29.9/FacialAge/BNav_EC2/DepthDuration/v2_depth_duration_MTurk/v2_DepthDuration_HTML.html#133,133,1920,1080,1920,1080,9-3-2022,13-6-58,113,depth_duration_stimuli/002199_2014-06-28_18-33-56_260595134347_rgbf000074-resize_0/002199_2014-06-28_18-33-56_260595134347_rgbf000074-resize_0-target.png,125,1.996,3,1854,125,feet,jsons/VE125_randls_25.json,531256,704496,32,Man
113,730031,DepthScenes,duration_manipulation_targetAtFixation,jsons/VE125_randls_25.json,http://54.235.29.9/FacialAge/BNav_EC2/DepthDuration/v2_depth_duration_MTurk/v2_DepthDuration_HTML.html#133,133,1920,1080,1920,1080,9-3-2022,13-6-58,114,depth_duration_stimuli/001092_2014-06-15_17-34-58_260595134347_rgbf000171-resize_3/001092_2014-06-15_17-34-58_260595134347_rgbf000171-resize_3-target.png,125,2.6935,3,1687,123,feet,jsons/VE125_randls_25.json,531256,704496,32,Man
114,730031,DepthScenes,duration_manipulation_targetAtFixation,jsons/VE125_randls_25.json,http://54.235.29.9/FacialAge/BNav_EC2/DepthDuration/v2_depth_duration_MTurk/v2_DepthDuration_HTML.html#133,133,1920,1080,1920,1080,9-3-2022,13-6-58,115,depth_duration_stimuli/002545_2014-06-24_13-38-53_094959634447_rgbf000080-resize_4/002545_2014-06-24_13-38-53_094959634447_rgbf000080-resize_4-target.png,125,1.9205,4,1581,124,feet,jsons/VE125_randls_25.json,531256,704496,32,Man
115,730031,DepthScenes,duration_manipulation_targetAtFixation,jsons/VE125_randls_25.json,http://54.235.29.9/FacialAge/BNav_EC2/DepthDuration/v2_depth_duration_MTurk/v2_DepthDuration_HTML.html#133,133,1920,1080,1920,1080,9-3-2022,13-6-58,116,depth_duration_stimuli/001170_2014-06-17_15-43-44_260595134347_rgbf000096-resize_6/001170_2014-06-17_15-43-44_260595134347_rgbf000096-resize-original.jpg,125,1.1909999999999998,4,3919,123,feet,jsons/VE125_randls_25.json,531256,704496,32,Man
116,730031,DepthScenes,duration_manipulation_targetAtFixation,jsons/VE125_randls_25.json,http://54.235.29.9/FacialAge/BNav_EC2/DepthDuration/v2_depth_duration_MTurk/v2_DepthDuration_HTML.html#133,133,1920,1080,1920,1080,9-3-2022,13-6-58,117,depth_duration_stimuli/000878_2014-06-08_22-52-45_260595134347_rgbf000045-resize_2/000878_2014-06-08_22-52-45_260595134347_rgbf000045-resize_2-target.png,125,2.092,5,1992,124,feet,jsons/VE125_randls_25.json,531256,704496,32,Man
117,730031,DepthScenes,duration_manipulation_targetAtFixation,jsons/VE125_randls_25.json,http://54.235.29.9/FacialAge/BNav_EC2/DepthDuration/v2_depth_duration_MTurk/v2_DepthDuration_HTML.html#133,133,1920,1080,1920,1080,9-3-2022,13-6-58,118,depth_duration_stimuli/002953_2014-06-08_17-32-18_094959634447_rgbf000059-resize_5/002953_2014-06-08_17-32-18_094959634447_rgbf000059-resize_5-target.png,125,1.551,3,1818,124,feet,jsons/VE125_randls_25.json,531256,704496,32,Man
118,730031,DepthScenes,duration_manipulation_targetAtFixation,jsons/VE125_randls_25.json,http://54.235.29.9/FacialAge/BNav_EC2/DepthDuration/v2_depth_duration_MTurk/v2_DepthDuration_HTML.html#133,133,1920,1080,1920,1080,9-3-2022,13-6-58,119,depth_duration_stimuli/002600_2014-06-24_14-27-04_094959634447_rgbf000074-resize_2/002600_2014-06-24_14-27-04_094959634447_rgbf000074-resize_2-target.png,125,2.7575,6,2402,124,feet,jsons/VE125_randls_25.json,531256,704496,32,Man
119,730031,DepthScenes,duration_manipulation_targetAtFixation,jsons/VE125_randls_25.json,http://54.235.29.9/FacialAge/BNav_EC2/DepthDuration/v2_depth_duration_MTurk/v2_DepthDuration_HTML.html#133,133,1920,1080,1920,1080,9-3-2022,13-6-58,120,depth_duration_stimuli/003228_2014-05-14_13-42-35_094959634447_rgbf000101-resize_1/003228_2014-05-14_13-42-35_094959634447_rgbf000101-resize_1-target.png,125,1.9680000000000002,3,2014,124,feet,jsons/VE125_randls_25.json,531256,704496,32,Man
120,730031,DepthScenes,duration_manipulation_targetAtFixation,jsons/VE125_randls_25.json,http://54.235.29.9/FacialAge/BNav_EC2/DepthDuration/v2_depth_duration_MTurk/v2_DepthDuration_HTML.html#133,133,1920,1080,1920,1080,9-3-2022,13-6-58,121,depth_duration_stimuli/002375_2014-06-28_20-13-44_260595134347_rgbf000032-resize_1/002375_2014-06-28_20-13-44_260595134347_rgbf000032-resize_1-target.png,125,4.0175,3,2319,124,feet,jsons/VE125_randls_25.json,531256,704496,32,Man
121,730031,DepthScenes,duration_manipulation_targetAtFixation,jsons/VE125_randls_25.json,http://54.235.29.9/FacialAge/BNav_EC2/DepthDuration/v2_depth_duration_MTurk/v2_DepthDuration_HTML.html#133,133,1920,1080,1920,1080,9-3-2022,13-6-58,122,depth_duration_stimuli/002657_2014-06-13_15-29-54_094959634447_rgbf000150-resize_1/002657_2014-06-13_15-29-54_094959634447_rgbf000150-resize_1-target.png,125,4.919,2,1740,124,feet,jsons/VE125_randls_25.json,531256,704496,32,Man
122,730031,DepthScenes,duration_manipulation_targetAtFixation,jsons/VE125_randls_25.json,http://54.235.29.9/FacialAge/BNav_EC2/DepthDuration/v2_depth_duration_MTurk/v2_DepthDuration_HTML.html#133,133,1920,1080,1920,1080,9-3-2022,13-6-58,123,depth_duration_stimuli/002509_2014-06-24_13-19-22_094959634447_rgbf000077-resize_0/002509_2014-06-24_13-19-22_094959634447_rgbf000077-resize_0-target.png,125,1.3065,2,1672,123,feet,jsons/VE125_randls_25.json,531256,704496,32,Man
123,730031,DepthScenes,duration_manipulation_targetAtFixation,jsons/VE125_randls_25.json,http://54.235.29.9/FacialAge/BNav_EC2/DepthDuration/v2_depth_duration_MTurk/v2_DepthDuration_HTML.html#133,133,1920,1080,1920,1080,9-3-2022,13-6-58,124,depth_duration_stimuli/003338_2014-05-20_11-01-23_094959634447_rgbf000051-resize_6/003338_2014-05-20_11-01-23_094959634447_rgbf000051-resize_6-target.png,125,1.693,3,1597,124,feet,jsons/VE125_randls_25.json,531256,704496,32,Man
124,730031,DepthScenes,duration_manipulation_targetAtFixation,jsons/VE125_randls_25.json,http://54.235.29.9/FacialAge/BNav_EC2/DepthDuration/v2_depth_duration_MTurk/v2_DepthDuration_HTML.html#133,133,1920,1080,1920,1080,9-3-2022,13-6-58,125,depth_duration_stimuli/000470_2014-06-09_19-42-40_260595134347_rgbf000094-resize_1/000470_2014-06-09_19-42-40_260595134347_rgbf000094-resize_1-target.png,125,1.831,3,1541,125,feet,jsons/VE125_randls_25.json,531256,704496,32,Man
125,730031,DepthScenes,duration_manipulation_targetAtFixation,jsons/VE125_randls_25.json,http://54.235.29.9/FacialAge/BNav_EC2/DepthDuration/v2_depth_duration_MTurk/v2_DepthDuration_HTML.html#133,133,1920,1080,1920,1080,9-3-2022,13-6-58,126,depth_duration_stimuli/000109_2014-05-14_23-41-52_260595134347_rgbf000035-resize_9/000109_2014-05-14_23-41-52_260595134347_rgbf000035-resize_9-target.png,125,1.3545,3,1993,124,feet,jsons/VE125_randls_25.json,531256,704496,32,Man
126,730031,DepthScenes,duration_manipulation_targetAtFixation,jsons/VE125_randls_25.json,http://54.235.29.9/FacialAge/BNav_EC2/DepthDuration/v2_depth_duration_MTurk/v2_DepthDuration_HTML.html#133,133,1920,1080,1920,1080,9-3-2022,13-6-58,127,depth_duration_stimuli/001175_2014-06-17_15-45-55_260595134347_rgbf000129-resize_4/001175_2014-06-17_15-45-55_260595134347_rgbf000129-resize_4-target.png,125,4.255,10,3329,124,feet,jsons/VE125_randls_25.json,531256,704496,32,Man
127,730031,DepthScenes,duration_manipulation_targetAtFixation,jsons/VE125_randls_25.json,http://54.235.29.9/FacialAge/BNav_EC2/DepthDuration/v2_depth_duration_MTurk/v2_DepthDuration_HTML.html#133,133,1920,1080,1920,1080,9-3-2022,13-6-58,128,depth_duration_stimuli/003490_2014-05-21_15-50-11_094959634447_rgbf000101-resize_3/003490_2014-05-21_15-50-11_094959634447_rgbf000101-resize_3-target.png,125,3.6445,8,2261,123,feet,jsons/VE125_randls_25.json,531256,704496,32,Man
128,730031,DepthScenes,duration_manipulation_targetAtFixation,jsons/VE125_randls_25.json,http://54.235.29.9/FacialAge/BNav_EC2/DepthDuration/v2_depth_duration_MTurk/v2_DepthDuration_HTML.html#133,133,1920,1080,1920,1080,9-3-2022,13-6-58,129,depth_duration_stimuli/002057_2014-06-24_21-00-13_260595134347_rgbf000120-resize_1/002057_2014-06-24_21-00-13_260595134347_rgbf000120-resize_1-target.png,125,2.967,7,2503,124,feet,jsons/VE125_randls_25.json,531256,704496,32,Man
129,730031,DepthScenes,duration_manipulation_targetAtFixation,jsons/VE125_randls_25.json,http://54.235.29.9/FacialAge/BNav_EC2/DepthDuration/v2_depth_duration_MTurk/v2_DepthDuration_HTML.html#133,133,1920,1080,1920,1080,9-3-2022,13-6-58,130,depth_duration_stimuli/000709_2014-06-08_13-51-55_260595134347_rgbf000068-resize_3/000709_2014-06-08_13-51-55_260595134347_rgbf000068-resize_3-target.png,125,1.8030000000000002,3,2184,125,feet,jsons/VE125_randls_25.json,531256,704496,32,Man
130,730031,DepthScenes,duration_manipulation_targetAtFixation,jsons/VE125_randls_25.json,http://54.235.29.9/FacialAge/BNav_EC2/DepthDuration/v2_depth_duration_MTurk/v2_DepthDuration_HTML.html#133,133,1920,1080,1920,1080,9-3-2022,13-6-58,131,depth_duration_stimuli/002748_2014-06-22_19-07-22_094959634447_rgbf000078-resize_1/002748_2014-06-22_19-07-22_094959634447_rgbf000078-resize_1-target.png,125,4.6705,10,2398,124,feet,jsons/VE125_randls_25.json,531256,704496,32,Man
131,730031,DepthScenes,duration_manipulation_targetAtFixation,jsons/VE125_randls_25.json,http://54.235.29.9/FacialAge/BNav_EC2/DepthDuration/v2_depth_duration_MTurk/v2_DepthDuration_HTML.html#133,133,1920,1080,1920,1080,9-3-2022,13-6-58,132,depth_duration_stimuli/002995_2014-06-15_12-31-26_094959634447_rgbf000150-resize_1/002995_2014-06-15_12-31-26_094959634447_rgbf000150-resize_1-target.png,125,3.8360000000000003,8,3838,124,feet,jsons/VE125_randls_25.json,531256,704496,32,Man
132,730031,DepthScenes,duration_manipulation_targetAtFixation,jsons/VE125_randls_25.json,http://54.235.29.9/FacialAge/BNav_EC2/DepthDuration/v2_depth_duration_MTurk/v2_DepthDuration_HTML.html#133,133,1920,1080,1920,1080,9-3-2022,13-6-58,133,depth_duration_stimuli/000736_2014-06-08_18-24-15_260595134347_rgbf000206-resize_3/000736_2014-06-08_18-24-15_260595134347_rgbf000206-resize_3-target.png,125,3.515,5,2396,125,feet,jsons/VE125_randls_25.json,531256,704496,32,Man
133,730031,DepthScenes,duration_manipulation_targetAtFixation,jsons/VE125_randls_25.json,http://54.235.29.9/FacialAge/BNav_EC2/DepthDuration/v2_depth_duration_MTurk/v2_DepthDuration_HTML.html#133,133,1920,1080,1920,1080,9-3-2022,13-6-58,134,depth_duration_stimuli/000137_2014-05-20_17-04-49_260595134347_rgbf000120-resize_1/000137_2014-05-20_17-04-49_260595134347_rgbf000120-resize_1-target.png,125,3.786,6,2632,125,feet,jsons/VE125_randls_25.json,531256,704496,32,Man
134,730031,DepthScenes,duration_manipulation_targetAtFixation,jsons/VE125_randls_25.json,http://54.235.29.9/FacialAge/BNav_EC2/DepthDuration/v2_depth_duration_MTurk/v2_DepthDuration_HTML.html#133,133,1920,1080,1920,1080,9-3-2022,13-6-58,135,depth_duration_stimuli/002072_2014-06-24_21-48-06_260595134347_rgbf000115-resize_0/002072_2014-06-24_21-48-06_260595134347_rgbf000115-resize-original.jpg,125,4.702,0,2359,124,feet,jsons/VE125_randls_25.json,531256,704496,32,Man
135,730031,DepthScenes,duration_manipulation_targetAtFixation,jsons/VE125_randls_25.json,http://54.235.29.9/FacialAge/BNav_EC2/DepthDuration/v2_depth_duration_MTurk/v2_DepthDuration_HTML.html#133,133,1920,1080,1920,1080,9-3-2022,13-6-58,136,depth_duration_stimuli/002279_2014-06-28_18-55-32_260595134347_rgbf000040-resize_5/002279_2014-06-28_18-55-32_260595134347_rgbf000040-resize_5-target.png,125,1.5043333333333,3,1736,124,feet,jsons/VE125_randls_25.json,531256,704496,32,Man
136,730031,DepthScenes,duration_manipulation_targetAtFixation,jsons/VE125_randls_25.json,http://54.235.29.9/FacialAge/BNav_EC2/DepthDuration/v2_depth_duration_MTurk/v2_DepthDuration_HTML.html#133,133,1920,1080,1920,1080,9-3-2022,13-6-58,137,depth_duration_stimuli/000635_2014-06-08_16-38-42_260595134347_rgbf000106-resize_1/000635_2014-06-08_16-38-42_260595134347_rgbf000106-resize_1-target.png,125,2.074,5,1779,125,feet,jsons/VE125_randls_25.json,531256,704496,32,Man
137,730031,DepthScenes,duration_manipulation_targetAtFixation,jsons/VE125_randls_25.json,http://54.235.29.9/FacialAge/BNav_EC2/DepthDuration/v2_depth_duration_MTurk/v2_DepthDuration_HTML.html#133,133,1920,1080,1920,1080,9-3-2022,13-6-58,138,depth_duration_stimuli/000414_2014-06-04_19-49-13_260595134347_rgbf000044-resize_0/000414_2014-06-04_19-49-13_260595134347_rgbf000044-resize_0-target.png,125,4.329,9,2296,124,feet,jsons/VE125_randls_25.json,531256,704496,32,Man
138,730031,DepthScenes,duration_manipulation_targetAtFixation,jsons/VE125_randls_25.json,http://54.235.29.9/FacialAge/BNav_EC2/DepthDuration/v2_depth_duration_MTurk/v2_DepthDuration_HTML.html#133,133,1920,1080,1920,1080,9-3-2022,13-6-58,139,depth_duration_stimuli/003129_2014-05-12_10-48-10_094959634447_rgbf000100-resize_0/003129_2014-05-12_10-48-10_094959634447_rgbf000100-resize_0-target.png,125,4.9305,3,2350,124,feet,jsons/VE125_randls_25.json,531256,704496,32,Man
139,730031,DepthScenes,duration_manipulation_targetAtFixation,jsons/VE125_randls_25.json,http://54.235.29.9/FacialAge/BNav_EC2/DepthDuration/v2_depth_duration_MTurk/v2_DepthDuration_HTML.html#133,133,1920,1080,1920,1080,9-3-2022,13-6-58,140,depth_duration_stimuli/001808_2014-06-26_20-50-58_260595134347_rgbf000029-resize_1/001808_2014-06-26_20-50-58_260595134347_rgbf000029-resize_1-target.png,125,4.249,8,2253,123,feet,jsons/VE125_randls_25.json,531256,704496,32,Man
140,730031,DepthScenes,duration_manipulation_targetAtFixation,jsons/VE125_randls_25.json,http://54.235.29.9/FacialAge/BNav_EC2/DepthDuration/v2_depth_duration_MTurk/v2_DepthDuration_HTML.html#133,133,1920,1080,1920,1080,9-3-2022,13-6-58,141,depth_duration_stimuli/001815_2014-06-26_20-52-55_260595134347_rgbf000020-resize_0/001815_2014-06-26_20-52-55_260595134347_rgbf000020-resize_0-target.png,125,3.3865,6,2353,125,feet,jsons/VE125_randls_25.json,531256,704496,32,Man
141,730031,DepthScenes,duration_manipulation_targetAtFixation,jsons/VE125_randls_25.json,http://54.235.29.9/FacialAge/BNav_EC2/DepthDuration/v2_depth_duration_MTurk/v2_DepthDuration_HTML.html#133,133,1920,1080,1920,1080,9-3-2022,13-6-58,142,depth_duration_stimuli/000486_2014-06-09_20-47-20_260595134347_rgbf000143-resize_2/000486_2014-06-09_20-47-20_260595134347_rgbf000143-resize_2-target.png,125,4.8325,6,2116,124,feet,jsons/VE125_randls_25.json,531256,704496,32,Man
142,730031,DepthScenes,duration_manipulation_targetAtFixation,jsons/VE125_randls_25.json,http://54.235.29.9/FacialAge/BNav_EC2/DepthDuration/v2_depth_duration_MTurk/v2_DepthDuration_HTML.html#133,133,1920,1080,1920,1080,9-3-2022,13-6-58,143,depth_duration_stimuli/003083_2014-06-15_15-21-03_094959634447_rgbf000063-resize_1/003083_2014-06-15_15-21-03_094959634447_rgbf000063-resize_1-target.png,125,4.1405,7,2033,124,feet,jsons/VE125_randls_25.json,531256,704496,32,Man
143,730031,DepthScenes,duration_manipulation_targetAtFixation,jsons/VE125_randls_25.json,http://54.235.29.9/FacialAge/BNav_EC2/DepthDuration/v2_depth_duration_MTurk/v2_DepthDuration_HTML.html#133,133,1920,1080,1920,1080,9-3-2022,13-6-58,144,depth_duration_stimuli/002213_2014-06-28_18-37-58_260595134347_rgbf000055-resize_1/002213_2014-06-28_18-37-58_260595134347_rgbf000055-resize_1-target.png,125,3.62,8,3152,124,feet,jsons/VE125_randls_25.json,531256,704496,32,Man
144,730031,DepthScenes,duration_manipulation_targetAtFixation,jsons/VE125_randls_25.json,http://54.235.29.9/FacialAge/BNav_EC2/DepthDuration/v2_depth_duration_MTurk/v2_DepthDuration_HTML.html#133,133,1920,1080,1920,1080,9-3-2022,13-6-58,145,depth_duration_stimuli/000691_2014-06-08_13-08-50_260595134347_rgbf000132-resize_3/000691_2014-06-08_13-08-50_260595134347_rgbf000132-resize_3-target.png,125,4.1530000000000005,7,2356,125,feet,jsons/VE125_randls_25.json,531256,704496,32,Man
145,730031,DepthScenes,duration_manipulation_targetAtFixation,jsons/VE125_randls_25.json,http://54.235.29.9/FacialAge/BNav_EC2/DepthDuration/v2_depth_duration_MTurk/v2_DepthDuration_HTML.html#133,133,1920,1080,1920,1080,9-3-2022,13-6-58,146,depth_duration_stimuli/001498_2014-06-19_17-45-14_260595134347_rgbf000129-resize_4/001498_2014-06-19_17-45-14_260595134347_rgbf000129-resize-original.jpg,125,1.4075,3,1616,124,feet,jsons/VE125_randls_25.json,531256,704496,32,Man
146,730031,DepthScenes,duration_manipulation_targetAtFixation,jsons/VE125_randls_25.json,http://54.235.29.9/FacialAge/BNav_EC2/DepthDuration/v2_depth_duration_MTurk/v2_DepthDuration_HTML.html#133,133,1920,1080,1920,1080,9-3-2022,13-6-58,147,depth_duration_stimuli/000739_2014-06-08_18-45-58_260595134347_rgbf000068-resize_1/000739_2014-06-08_18-45-58_260595134347_rgbf000068-resize_1-target.png,125,3.534,7,1909,124,feet,jsons/VE125_randls_25.json,531256,704496,32,Man
147,730031,DepthScenes,duration_manipulation_targetAtFixation,jsons/VE125_randls_25.json,http://54.235.29.9/FacialAge/BNav_EC2/DepthDuration/v2_depth_duration_MTurk/v2_DepthDuration_HTML.html#133,133,1920,1080,1920,1080,9-3-2022,13-6-58,148,depth_duration_stimuli/000734_2014-06-08_17-39-11_260595134347_rgbf000128-resize_2/000734_2014-06-08_17-39-11_260595134347_rgbf000128-resize_2-target.png,125,4.098,7,2384,124,feet,jsons/VE125_randls_25.json,531256,704496,32,Man
148,730031,DepthScenes,duration_manipulation_targetAtFixation,jsons/VE125_randls_25.json,http://54.235.29.9/FacialAge/BNav_EC2/DepthDuration/v2_depth_duration_MTurk/v2_DepthDuration_HTML.html#133,133,1920,1080,1920,1080,9-3-2022,13-6-58,149,depth_duration_stimuli/002964_2014-06-08_17-46-11_094959634447_rgbf000091-resize_4/002964_2014-06-08_17-46-11_094959634447_rgbf000091-resize_4-target.png,125,1.6909999999999998,4,2800,124,feet,jsons/VE125_randls_25.json,531256,704496,32,Man
149,730031,DepthScenes,duration_manipulation_targetAtFixation,jsons/VE125_randls_25.json,http://54.235.29.9/FacialAge/BNav_EC2/DepthDuration/v2_depth_duration_MTurk/v2_DepthDuration_HTML.html#133,133,1920,1080,1920,1080,9-3-2022,13-6-58,150,depth_duration_stimuli/002136_2014-06-25_21-18-03_260595134347_rgbf000109-resize_3/002136_2014-06-25_21-18-03_260595134347_rgbf000109-resize_3-target.png,125,1.9569999999999999,3,2359,124,feet,jsons/VE125_randls_25.json,531256,704496,32,Man
150,730031,DepthScenes,duration_manipulation_targetAtFixation,jsons/VE125_randls_25.json,http://54.235.29.9/FacialAge/BNav_EC2/DepthDuration/v2_depth_duration_MTurk/v2_DepthDuration_HTML.html#133,133,1920,1080,1920,1080,9-3-2022,13-6-58,151,depth_duration_stimuli/000929_2014-06-09_16-33-19_260595134347_rgbf000139-resize_0/000929_2014-06-09_16-33-19_260595134347_rgbf000139-resize_0-target.png,125,2.8680000000000003,4,1990,124,feet,jsons/VE125_randls_25.json,531256,704496,32,Man
151,730031,DepthScenes,duration_manipulation_targetAtFixation,jsons/VE125_randls_25.json,http://54.235.29.9/FacialAge/BNav_EC2/DepthDuration/v2_depth_duration_MTurk/v2_DepthDuration_HTML.html#133,133,1920,1080,1920,1080,9-3-2022,13-6-58,152,depth_duration_stimuli/000457_2014-06-08_16-52-43_260595134347_rgbf000199-resize_1/000457_2014-06-08_16-52-43_260595134347_rgbf000199-resize_1-target.png,125,3.6489999999999996,5,1606,125,feet,jsons/VE125_randls_25.json,531256,704496,32,Man
152,730031,DepthScenes,duration_manipulation_targetAtFixation,jsons/VE125_randls_25.json,http://54.235.29.9/FacialAge/BNav_EC2/DepthDuration/v2_depth_duration_MTurk/v2_DepthDuration_HTML.html#133,133,1920,1080,1920,1080,9-3-2022,13-6-58,153,depth_duration_stimuli/001029_2014-06-08_13-17-57_260595134347_rgbf000065-resize_1/001029_2014-06-08_13-17-57_260595134347_rgbf000065-resize_1-target.png,125,3.0835,6,2341,125,feet,jsons/VE125_randls_25.json,531256,704496,32,Man
153,730031,DepthScenes,duration_manipulation_targetAtFixation,jsons/VE125_randls_25.json,http://54.235.29.9/FacialAge/BNav_EC2/DepthDuration/v2_depth_duration_MTurk/v2_DepthDuration_HTML.html#133,133,1920,1080,1920,1080,9-3-2022,13-6-58,154,depth_duration_stimuli/000677_2014-06-08_23-10-32_260595134347_rgbf000158-resize_6/000677_2014-06-08_23-10-32_260595134347_rgbf000158-resize_6-target.png,125,3.556,5,1913,125,feet,jsons/VE125_randls_25.json,531256,704496,32,Man
154,730031,DepthScenes,duration_manipulation_targetAtFixation,jsons/VE125_randls_25.json,http://54.235.29.9/FacialAge/BNav_EC2/DepthDuration/v2_depth_duration_MTurk/v2_DepthDuration_HTML.html#133,133,1920,1080,1920,1080,9-3-2022,13-6-58,155,depth_duration_stimuli/001167_2014-06-17_15-38-07_260595134347_rgbf000108-resize_0/001167_2014-06-17_15-38-07_260595134347_rgbf000108-resize_0-target.png,125,1.8505,4,1789,125,feet,jsons/VE125_randls_25.json,531256,704496,32,Man
155,730031,DepthScenes,duration_manipulation_targetAtFixation,jsons/VE125_randls_25.json,http://54.235.29.9/FacialAge/BNav_EC2/DepthDuration/v2_depth_duration_MTurk/v2_DepthDuration_HTML.html#133,133,1920,1080,1920,1080,9-3-2022,13-6-58,156,depth_duration_stimuli/003587_2014-05-23_16-48-02_094959634447_rgbf002384-resize_2/003587_2014-05-23_16-48-02_094959634447_rgbf002384-resize_2-target.png,125,1.357,2,1758,123,feet,jsons/VE125_randls_25.json,531256,704496,32,Man
156,730031,DepthScenes,duration_manipulation_targetAtFixation,jsons/VE125_randls_25.json,http://54.235.29.9/FacialAge/BNav_EC2/DepthDuration/v2_depth_duration_MTurk/v2_DepthDuration_HTML.html#133,133,1920,1080,1920,1080,9-3-2022,13-6-58,157,depth_duration_stimuli/003070_2014-06-15_14-58-27_094959634447_rgbf000150-resize_3/003070_2014-06-15_14-58-27_094959634447_rgbf000150-resize_3-target.png,125,2.9415,5,1865,124,feet,jsons/VE125_randls_25.json,531256,704496,32,Man
157,730031,DepthScenes,duration_manipulation_targetAtFixation,jsons/VE125_randls_25.json,http://54.235.29.9/FacialAge/BNav_EC2/DepthDuration/v2_depth_duration_MTurk/v2_DepthDuration_HTML.html#133,133,1920,1080,1920,1080,9-3-2022,13-6-58,158,depth_duration_stimuli/000943_2014-06-09_19-31-07_260595134347_rgbf000128-resize_1/000943_2014-06-09_19-31-07_260595134347_rgbf000128-resize_1-target.png,125,1.9765,3,1628,124,feet,jsons/VE125_randls_25.json,531256,704496,32,Man
158,730031,DepthScenes,duration_manipulation_targetAtFixation,jsons/VE125_randls_25.json,http://54.235.29.9/FacialAge/BNav_EC2/DepthDuration/v2_depth_duration_MTurk/v2_DepthDuration_HTML.html#133,133,1920,1080,1920,1080,9-3-2022,13-6-58,159,depth_duration_stimuli/000773_2014-06-08_22-24-54_260595134347_rgbf000093-resize_1/000773_2014-06-08_22-24-54_260595134347_rgbf000093-resize_1-target.png,125,4.973,6,2102,125,feet,jsons/VE125_randls_25.json,531256,704496,32,Man
159,730031,DepthScenes,duration_manipulation_targetAtFixation,jsons/VE125_randls_25.json,http://54.235.29.9/FacialAge/BNav_EC2/DepthDuration/v2_depth_duration_MTurk/v2_DepthDuration_HTML.html#133,133,1920,1080,1920,1080,9-3-2022,13-6-58,160,depth_duration_stimuli/002414_2014-06-28_20-24-58_260595134347_rgbf000067-resize_4/002414_2014-06-28_20-24-58_260595134347_rgbf000067-resize_4-target.png,125,4.363,5,3544,123,feet,jsons/VE125_randls_25.json,531256,704496,32,Man
160,730031,DepthScenes,duration_manipulation_targetAtFixation,jsons/VE125_randls_25.json,http://54.235.29.9/FacialAge/BNav_EC2/DepthDuration/v2_depth_duration_MTurk/v2_DepthDuration_HTML.html#133,133,1920,1080,1920,1080,9-3-2022,13-6-58,161,depth_duration_stimuli/000682_2014-06-08_23-14-58_260595134347_rgbf000041-resize_5/000682_2014-06-08_23-14-58_260595134347_rgbf000041-resize_5-target.png,125,2.7239999999999998,5,1717,124,feet,jsons/VE125_randls_25.json,531256,704496,32,Man
161,730031,DepthScenes,duration_manipulation_targetAtFixation,jsons/VE125_randls_25.json,http://54.235.29.9/FacialAge/BNav_EC2/DepthDuration/v2_depth_duration_MTurk/v2_DepthDuration_HTML.html#133,133,1920,1080,1920,1080,9-3-2022,13-6-58,162,depth_duration_stimuli/001650_2014-06-20_12-09-00_260595134347_rgbf000087-resize_3/001650_2014-06-20_12-09-00_260595134347_rgbf000087-resize_3-target.png,125,1.9505,3,1553,124,feet,jsons/VE125_randls_25.json,531256,704496,32,Man
162,730031,DepthScenes,duration_manipulation_targetAtFixation,jsons/VE125_randls_25.json,http://54.235.29.9/FacialAge/BNav_EC2/DepthDuration/v2_depth_duration_MTurk/v2_DepthDuration_HTML.html#133,133,1920,1080,1920,1080,9-3-2022,13-6-58,163,depth_duration_stimuli/002272_2014-06-28_18-53-56_260595134347_rgbf000067-resize_2/002272_2014-06-28_18-53-56_260595134347_rgbf000067-resize_2-target.png,125,1.138,2,2055,126,feet,jsons/VE125_randls_25.json,531256,704496,32,Man
163,730031,DepthScenes,duration_manipulation_targetAtFixation,jsons/VE125_randls_25.json,http://54.235.29.9/FacialAge/BNav_EC2/DepthDuration/v2_depth_duration_MTurk/v2_DepthDuration_HTML.html#133,133,1920,1080,1920,1080,9-3-2022,13-6-58,164,depth_duration_stimuli/001571_2014-06-20_17-21-32_260595134347_rgbf000089-resize_1/001571_2014-06-20_17-21-32_260595134347_rgbf000089-resize_1-target.png,125,1.86,3,2776,125,feet,jsons/VE125_randls_25.json,531256,704496,32,Man
