,subjID,experimentName,versionName,sequenceName,url,selected_row,windowWidth,windowHeight,screenWidth,screenHeight,startDate,startTime,trial,stimulus,duration,actual_depth,depth_estimate,trial_RT,log_sceneDuration,unitSelection,seq_filepath,experimentTime,totalTime,age,gender
0,731328,DepthScenes,duration_manipulation_targetAtFixation,jsons/VE125_randls_39_rotated.json,http://54.235.29.9/FacialAge/BNav_EC2/DepthDuration/v2_depth_duration_MTurk/v2_DepthDuration_HTML.html#466,466,1364,768,1364,768,9-3-2022,12-36-48,1,depth_duration_stimuli/001052_2014-06-08_18-24-54_260595134347_rgbf000130-resize_1/001052_2014-06-08_18-24-54_260595134347_rgbf000130-resize_1-target.png,125,4.1045,4.5,6583,128,feet,jsons/VE125_randls_39_rotated.json,942533,1103580,43,Man
1,731328,DepthScenes,duration_manipulation_targetAtFixation,jsons/VE125_randls_39_rotated.json,http://54.235.29.9/FacialAge/BNav_EC2/DepthDuration/v2_depth_duration_MTurk/v2_DepthDuration_HTML.html#466,466,1364,768,1364,768,9-3-2022,12-36-48,2,depth_duration_stimuli/002988_2014-06-15_12-24-20_094959634447_rgbf000150-resize_1/002988_2014-06-15_12-24-20_094959634447_rgbf000150-resize_1-target.png,125,4.7669999999999995,5.0,3765,147,feet,jsons/VE125_randls_39_rotated.json,942533,1103580,43,Man
2,731328,DepthScenes,duration_manipulation_targetAtFixation,jsons/VE125_randls_39_rotated.json,http://54.235.29.9/FacialAge/BNav_EC2/DepthDuration/v2_depth_duration_MTurk/v2_DepthDuration_HTML.html#466,466,1364,768,1364,768,9-3-2022,12-36-48,3,depth_duration_stimuli/000409_2014-06-04_19-23-33_260595134347_rgbf000067-resize_0/000409_2014-06-04_19-23-33_260595134347_rgbf000067-resize_0-target.png,125,3.7335,4.5,6049,115,feet,jsons/VE125_randls_39_rotated.json,942533,1103580,43,Man
3,731328,DepthScenes,duration_manipulation_targetAtFixation,jsons/VE125_randls_39_rotated.json,http://54.235.29.9/FacialAge/BNav_EC2/DepthDuration/v2_depth_duration_MTurk/v2_DepthDuration_HTML.html#466,466,1364,768,1364,768,9-3-2022,12-36-48,4,depth_duration_stimuli/002663_2014-06-13_15-50-26_094959634447_rgbf000075-resize_1/002663_2014-06-13_15-50-26_094959634447_rgbf000075-resize_1-target.png,125,4.7495,5.0,4740,107,feet,jsons/VE125_randls_39_rotated.json,942533,1103580,43,Man
4,731328,DepthScenes,duration_manipulation_targetAtFixation,jsons/VE125_randls_39_rotated.json,http://54.235.29.9/FacialAge/BNav_EC2/DepthDuration/v2_depth_duration_MTurk/v2_DepthDuration_HTML.html#466,466,1364,768,1364,768,9-3-2022,12-36-48,5,depth_duration_stimuli/000457_2014-06-08_16-52-43_260595134347_rgbf000199-resize_1/000457_2014-06-08_16-52-43_260595134347_rgbf000199-resize_1-target.png,125,3.6489999999999996,4.5,6679,125,feet,jsons/VE125_randls_39_rotated.json,942533,1103580,43,Man
5,731328,DepthScenes,duration_manipulation_targetAtFixation,jsons/VE125_randls_39_rotated.json,http://54.235.29.9/FacialAge/BNav_EC2/DepthDuration/v2_depth_duration_MTurk/v2_DepthDuration_HTML.html#466,466,1364,768,1364,768,9-3-2022,12-36-48,6,depth_duration_stimuli/000929_2014-06-09_16-33-19_260595134347_rgbf000139-resize_0/000929_2014-06-09_16-33-19_260595134347_rgbf000139-resize_0-target.png,125,2.8680000000000003,3.0,4598,125,feet,jsons/VE125_randls_39_rotated.json,942533,1103580,43,Man
6,731328,DepthScenes,duration_manipulation_targetAtFixation,jsons/VE125_randls_39_rotated.json,http://54.235.29.9/FacialAge/BNav_EC2/DepthDuration/v2_depth_duration_MTurk/v2_DepthDuration_HTML.html#466,466,1364,768,1364,768,9-3-2022,12-36-48,7,depth_duration_stimuli/002949_2014-06-26_15-57-42_094959634447_rgbf000079-resize_1/002949_2014-06-26_15-57-42_094959634447_rgbf000079-resize_1-target.png,125,1.8915,3.0,5788,148,feet,jsons/VE125_randls_39_rotated.json,942533,1103580,43,Man
7,731328,DepthScenes,duration_manipulation_targetAtFixation,jsons/VE125_randls_39_rotated.json,http://54.235.29.9/FacialAge/BNav_EC2/DepthDuration/v2_depth_duration_MTurk/v2_DepthDuration_HTML.html#466,466,1364,768,1364,768,9-3-2022,12-36-48,8,depth_duration_stimuli/000522_2014-06-08_13-35-06_260595134347_rgbf000244-resize_1/000522_2014-06-08_13-35-06_260595134347_rgbf000244-resize_1-target.png,125,2.3715,0.0,2828,124,feet,jsons/VE125_randls_39_rotated.json,942533,1103580,43,Man
8,731328,DepthScenes,duration_manipulation_targetAtFixation,jsons/VE125_randls_39_rotated.json,http://54.235.29.9/FacialAge/BNav_EC2/DepthDuration/v2_depth_duration_MTurk/v2_DepthDuration_HTML.html#466,466,1364,768,1364,768,9-3-2022,12-36-48,9,depth_duration_stimuli/001136_2014-06-17_15-19-41_260595134347_rgbf000076-resize_3/001136_2014-06-17_15-19-41_260595134347_rgbf000076-resize_3-target.png,125,1.8655,4.0,5498,140,feet,jsons/VE125_randls_39_rotated.json,942533,1103580,43,Man
9,731328,DepthScenes,duration_manipulation_targetAtFixation,jsons/VE125_randls_39_rotated.json,http://54.235.29.9/FacialAge/BNav_EC2/DepthDuration/v2_depth_duration_MTurk/v2_DepthDuration_HTML.html#466,466,1364,768,1364,768,9-3-2022,12-36-48,10,depth_duration_stimuli/001164_2014-06-17_15-35-46_260595134347_rgbf000085-resize_3/001164_2014-06-17_15-35-46_260595134347_rgbf000085-resize_3-target.png,125,2.354,4.5,4765,125,feet,jsons/VE125_randls_39_rotated.json,942533,1103580,43,Man
10,731328,DepthScenes,duration_manipulation_targetAtFixation,jsons/VE125_randls_39_rotated.json,http://54.235.29.9/FacialAge/BNav_EC2/DepthDuration/v2_depth_duration_MTurk/v2_DepthDuration_HTML.html#466,466,1364,768,1364,768,9-3-2022,12-36-48,11,depth_duration_stimuli/000866_2014-06-09_20-45-42_260595134347_rgbf000139-resize_1/000866_2014-06-09_20-45-42_260595134347_rgbf000139-resize_1-target.png,125,3.2155,4.0,4455,124,feet,jsons/VE125_randls_39_rotated.json,942533,1103580,43,Man
11,731328,DepthScenes,duration_manipulation_targetAtFixation,jsons/VE125_randls_39_rotated.json,http://54.235.29.9/FacialAge/BNav_EC2/DepthDuration/v2_depth_duration_MTurk/v2_DepthDuration_HTML.html#466,466,1364,768,1364,768,9-3-2022,12-36-48,12,depth_duration_stimuli/002989_2014-06-15_12-25-03_094959634447_rgbf000150-resize_3/002989_2014-06-15_12-25-03_094959634447_rgbf000150-resize_3-target.png,125,4.1975,5.0,3993,124,feet,jsons/VE125_randls_39_rotated.json,942533,1103580,43,Man
12,731328,DepthScenes,duration_manipulation_targetAtFixation,jsons/VE125_randls_39_rotated.json,http://54.235.29.9/FacialAge/BNav_EC2/DepthDuration/v2_depth_duration_MTurk/v2_DepthDuration_HTML.html#466,466,1364,768,1364,768,9-3-2022,12-36-48,13,depth_duration_stimuli/002568_2014-06-24_13-59-21_094959634447_rgbf000062-resize_4/002568_2014-06-24_13-59-21_094959634447_rgbf000062-resize_4-target.png,125,3.015,4.0,4963,131,feet,jsons/VE125_randls_39_rotated.json,942533,1103580,43,Man
13,731328,DepthScenes,duration_manipulation_targetAtFixation,jsons/VE125_randls_39_rotated.json,http://54.235.29.9/FacialAge/BNav_EC2/DepthDuration/v2_depth_duration_MTurk/v2_DepthDuration_HTML.html#466,466,1364,768,1364,768,9-3-2022,12-36-48,14,depth_duration_stimuli/003492_2014-05-21_15-50-55_094959634447_rgbf000828-resize_1/003492_2014-05-21_15-50-55_094959634447_rgbf000828-resize_1-target.png,125,4.06875,5.0,3193,125,feet,jsons/VE125_randls_39_rotated.json,942533,1103580,43,Man
14,731328,DepthScenes,duration_manipulation_targetAtFixation,jsons/VE125_randls_39_rotated.json,http://54.235.29.9/FacialAge/BNav_EC2/DepthDuration/v2_depth_duration_MTurk/v2_DepthDuration_HTML.html#466,466,1364,768,1364,768,9-3-2022,12-36-48,15,depth_duration_stimuli/001235_2014-06-17_16-37-36_260595134347_rgbf000084-resize_4/001235_2014-06-17_16-37-36_260595134347_rgbf000084-resize_4-target.png,125,3.6605,0.0,4343,38,feet,jsons/VE125_randls_39_rotated.json,942533,1103580,43,Man
15,731328,DepthScenes,duration_manipulation_targetAtFixation,jsons/VE125_randls_39_rotated.json,http://54.235.29.9/FacialAge/BNav_EC2/DepthDuration/v2_depth_duration_MTurk/v2_DepthDuration_HTML.html#466,466,1364,768,1364,768,9-3-2022,12-36-48,16,depth_duration_stimuli/000788_2014-06-08_22-34-36_260595134347_rgbf000131-resize_1/000788_2014-06-08_22-34-36_260595134347_rgbf000131-resize_1-target.png,125,3.359,3.0,5793,119,feet,jsons/VE125_randls_39_rotated.json,942533,1103580,43,Man
16,731328,DepthScenes,duration_manipulation_targetAtFixation,jsons/VE125_randls_39_rotated.json,http://54.235.29.9/FacialAge/BNav_EC2/DepthDuration/v2_depth_duration_MTurk/v2_DepthDuration_HTML.html#466,466,1364,768,1364,768,9-3-2022,12-36-48,17,depth_duration_stimuli/000137_2014-05-20_17-04-49_260595134347_rgbf000120-resize_1/000137_2014-05-20_17-04-49_260595134347_rgbf000120-resize_1-target.png,125,3.786,4.0,4649,126,feet,jsons/VE125_randls_39_rotated.json,942533,1103580,43,Man
17,731328,DepthScenes,duration_manipulation_targetAtFixation,jsons/VE125_randls_39_rotated.json,http://54.235.29.9/FacialAge/BNav_EC2/DepthDuration/v2_depth_duration_MTurk/v2_DepthDuration_HTML.html#466,466,1364,768,1364,768,9-3-2022,12-36-48,18,depth_duration_stimuli/000736_2014-06-08_18-24-15_260595134347_rgbf000206-resize_3/000736_2014-06-08_18-24-15_260595134347_rgbf000206-resize_3-target.png,125,3.515,3.0,4730,126,feet,jsons/VE125_randls_39_rotated.json,942533,1103580,43,Man
18,731328,DepthScenes,duration_manipulation_targetAtFixation,jsons/VE125_randls_39_rotated.json,http://54.235.29.9/FacialAge/BNav_EC2/DepthDuration/v2_depth_duration_MTurk/v2_DepthDuration_HTML.html#466,466,1364,768,1364,768,9-3-2022,12-36-48,19,depth_duration_stimuli/001498_2014-06-19_17-45-14_260595134347_rgbf000129-resize_4/001498_2014-06-19_17-45-14_260595134347_rgbf000129-resize-original.jpg,125,1.4075,0.0,5797,125,feet,jsons/VE125_randls_39_rotated.json,942533,1103580,43,Man
19,731328,DepthScenes,duration_manipulation_targetAtFixation,jsons/VE125_randls_39_rotated.json,http://54.235.29.9/FacialAge/BNav_EC2/DepthDuration/v2_depth_duration_MTurk/v2_DepthDuration_HTML.html#466,466,1364,768,1364,768,9-3-2022,12-36-48,20,depth_duration_stimuli/002758_2014-06-22_19-11-20_094959634447_rgbf000128-resize_1/002758_2014-06-22_19-11-20_094959634447_rgbf000128-resize_1-target.png,125,2.555,4.0,6197,110,feet,jsons/VE125_randls_39_rotated.json,942533,1103580,43,Man
20,731328,DepthScenes,duration_manipulation_targetAtFixation,jsons/VE125_randls_39_rotated.json,http://54.235.29.9/FacialAge/BNav_EC2/DepthDuration/v2_depth_duration_MTurk/v2_DepthDuration_HTML.html#466,466,1364,768,1364,768,9-3-2022,12-36-48,21,depth_duration_stimuli/002630_2014-06-24_14-47-50_094959634447_rgbf000055-resize_1/002630_2014-06-24_14-47-50_094959634447_rgbf000055-resize_1-target.png,125,3.0095,0.0,3755,124,feet,jsons/VE125_randls_39_rotated.json,942533,1103580,43,Man
21,731328,DepthScenes,duration_manipulation_targetAtFixation,jsons/VE125_randls_39_rotated.json,http://54.235.29.9/FacialAge/BNav_EC2/DepthDuration/v2_depth_duration_MTurk/v2_DepthDuration_HTML.html#466,466,1364,768,1364,768,9-3-2022,12-36-48,22,depth_duration_stimuli/003079_2014-06-15_15-18-20_094959634447_rgbf000152-resize_8/003079_2014-06-15_15-18-20_094959634447_rgbf000152-resize_8-target.png,125,2.8775,4.5,6686,130,feet,jsons/VE125_randls_39_rotated.json,942533,1103580,43,Man
22,731328,DepthScenes,duration_manipulation_targetAtFixation,jsons/VE125_randls_39_rotated.json,http://54.235.29.9/FacialAge/BNav_EC2/DepthDuration/v2_depth_duration_MTurk/v2_DepthDuration_HTML.html#466,466,1364,768,1364,768,9-3-2022,12-36-48,23,depth_duration_stimuli/000506_2014-06-08_23-21-00_260595134347_rgbf000070-resize_7/000506_2014-06-08_23-21-00_260595134347_rgbf000070-resize_7-target.png,125,4.0585,0.0,2968,129,feet,jsons/VE125_randls_39_rotated.json,942533,1103580,43,Man
23,731328,DepthScenes,duration_manipulation_targetAtFixation,jsons/VE125_randls_39_rotated.json,http://54.235.29.9/FacialAge/BNav_EC2/DepthDuration/v2_depth_duration_MTurk/v2_DepthDuration_HTML.html#466,466,1364,768,1364,768,9-3-2022,12-36-48,24,depth_duration_stimuli/002637_2014-06-24_14-51-13_094959634447_rgbf000066-resize_4/002637_2014-06-24_14-51-13_094959634447_rgbf000066-resize_4-target.png,125,1.9955,3.5,6271,161,feet,jsons/VE125_randls_39_rotated.json,942533,1103580,43,Man
24,731328,DepthScenes,duration_manipulation_targetAtFixation,jsons/VE125_randls_39_rotated.json,http://54.235.29.9/FacialAge/BNav_EC2/DepthDuration/v2_depth_duration_MTurk/v2_DepthDuration_HTML.html#466,466,1364,768,1364,768,9-3-2022,12-36-48,25,depth_duration_stimuli/003534_2014-05-22_15-06-10_094959634447_rgbf000102-resize_4/003534_2014-05-22_15-06-10_094959634447_rgbf000102-resize_4-target.png,125,1.426,0.0,3419,120,feet,jsons/VE125_randls_39_rotated.json,942533,1103580,43,Man
25,731328,DepthScenes,duration_manipulation_targetAtFixation,jsons/VE125_randls_39_rotated.json,http://54.235.29.9/FacialAge/BNav_EC2/DepthDuration/v2_depth_duration_MTurk/v2_DepthDuration_HTML.html#466,466,1364,768,1364,768,9-3-2022,12-36-48,26,depth_duration_stimuli/001516_2014-06-20_16-25-09_260595134347_rgbf000076-resize_2/001516_2014-06-20_16-25-09_260595134347_rgbf000076-resize_2-target.png,125,1.7445,3.0,6430,124,feet,jsons/VE125_randls_39_rotated.json,942533,1103580,43,Man
26,731328,DepthScenes,duration_manipulation_targetAtFixation,jsons/VE125_randls_39_rotated.json,http://54.235.29.9/FacialAge/BNav_EC2/DepthDuration/v2_depth_duration_MTurk/v2_DepthDuration_HTML.html#466,466,1364,768,1364,768,9-3-2022,12-36-48,27,depth_duration_stimuli/002118_2014-06-25_20-32-08_260595134347_rgbf000078-resize_1/002118_2014-06-25_20-32-08_260595134347_rgbf000078-resize_1-target.png,125,2.6460000000000004,0.0,2796,125,feet,jsons/VE125_randls_39_rotated.json,942533,1103580,43,Man
27,731328,DepthScenes,duration_manipulation_targetAtFixation,jsons/VE125_randls_39_rotated.json,http://54.235.29.9/FacialAge/BNav_EC2/DepthDuration/v2_depth_duration_MTurk/v2_DepthDuration_HTML.html#466,466,1364,768,1364,768,9-3-2022,12-36-48,28,depth_duration_stimuli/002136_2014-06-25_21-18-03_260595134347_rgbf000109-resize_3/002136_2014-06-25_21-18-03_260595134347_rgbf000109-resize_3-target.png,125,1.9569999999999999,2.5,5689,124,feet,jsons/VE125_randls_39_rotated.json,942533,1103580,43,Man
28,731328,DepthScenes,duration_manipulation_targetAtFixation,jsons/VE125_randls_39_rotated.json,http://54.235.29.9/FacialAge/BNav_EC2/DepthDuration/v2_depth_duration_MTurk/v2_DepthDuration_HTML.html#466,466,1364,768,1364,768,9-3-2022,12-36-48,29,depth_duration_stimuli/002964_2014-06-08_17-46-11_094959634447_rgbf000091-resize_4/002964_2014-06-08_17-46-11_094959634447_rgbf000091-resize_4-target.png,125,1.6909999999999998,0.0,2762,127,feet,jsons/VE125_randls_39_rotated.json,942533,1103580,43,Man
29,731328,DepthScenes,duration_manipulation_targetAtFixation,jsons/VE125_randls_39_rotated.json,http://54.235.29.9/FacialAge/BNav_EC2/DepthDuration/v2_depth_duration_MTurk/v2_DepthDuration_HTML.html#466,466,1364,768,1364,768,9-3-2022,12-36-48,30,depth_duration_stimuli/002072_2014-06-24_21-48-06_260595134347_rgbf000115-resize_0/002072_2014-06-24_21-48-06_260595134347_rgbf000115-resize-original.jpg,125,4.702,0.0,4546,125,feet,jsons/VE125_randls_39_rotated.json,942533,1103580,43,Man
30,731328,DepthScenes,duration_manipulation_targetAtFixation,jsons/VE125_randls_39_rotated.json,http://54.235.29.9/FacialAge/BNav_EC2/DepthDuration/v2_depth_duration_MTurk/v2_DepthDuration_HTML.html#466,466,1364,768,1364,768,9-3-2022,12-36-48,31,depth_duration_stimuli/000691_2014-06-08_13-08-50_260595134347_rgbf000132-resize_3/000691_2014-06-08_13-08-50_260595134347_rgbf000132-resize_3-target.png,125,4.1530000000000005,5.0,4664,125,feet,jsons/VE125_randls_39_rotated.json,942533,1103580,43,Man
31,731328,DepthScenes,duration_manipulation_targetAtFixation,jsons/VE125_randls_39_rotated.json,http://54.235.29.9/FacialAge/BNav_EC2/DepthDuration/v2_depth_duration_MTurk/v2_DepthDuration_HTML.html#466,466,1364,768,1364,768,9-3-2022,12-36-48,32,depth_duration_stimuli/002213_2014-06-28_18-37-58_260595134347_rgbf000055-resize_1/002213_2014-06-28_18-37-58_260595134347_rgbf000055-resize_1-target.png,125,3.62,5.5,4415,125,feet,jsons/VE125_randls_39_rotated.json,942533,1103580,43,Man
32,731328,DepthScenes,duration_manipulation_targetAtFixation,jsons/VE125_randls_39_rotated.json,http://54.235.29.9/FacialAge/BNav_EC2/DepthDuration/v2_depth_duration_MTurk/v2_DepthDuration_HTML.html#466,466,1364,768,1364,768,9-3-2022,12-36-48,33,depth_duration_stimuli/002657_2014-06-13_15-29-54_094959634447_rgbf000150-resize_1/002657_2014-06-13_15-29-54_094959634447_rgbf000150-resize_1-target.png,125,4.919,4.5,7253,131,feet,jsons/VE125_randls_39_rotated.json,942533,1103580,43,Man
33,731328,DepthScenes,duration_manipulation_targetAtFixation,jsons/VE125_randls_39_rotated.json,http://54.235.29.9/FacialAge/BNav_EC2/DepthDuration/v2_depth_duration_MTurk/v2_DepthDuration_HTML.html#466,466,1364,768,1364,768,9-3-2022,12-36-48,34,depth_duration_stimuli/002375_2014-06-28_20-13-44_260595134347_rgbf000032-resize_1/002375_2014-06-28_20-13-44_260595134347_rgbf000032-resize_1-target.png,125,4.0175,4.0,5286,125,feet,jsons/VE125_randls_39_rotated.json,942533,1103580,43,Man
34,731328,DepthScenes,duration_manipulation_targetAtFixation,jsons/VE125_randls_39_rotated.json,http://54.235.29.9/FacialAge/BNav_EC2/DepthDuration/v2_depth_duration_MTurk/v2_DepthDuration_HTML.html#466,466,1364,768,1364,768,9-3-2022,12-36-48,35,depth_duration_stimuli/003048_2014-06-15_13-49-43_094959634447_rgbf000150-resize_1/003048_2014-06-15_13-49-43_094959634447_rgbf000150-resize_1-target.png,125,4.0035,5.5,8566,127,feet,jsons/VE125_randls_39_rotated.json,942533,1103580,43,Man
35,731328,DepthScenes,duration_manipulation_targetAtFixation,jsons/VE125_randls_39_rotated.json,http://54.235.29.9/FacialAge/BNav_EC2/DepthDuration/v2_depth_duration_MTurk/v2_DepthDuration_HTML.html#466,466,1364,768,1364,768,9-3-2022,12-36-48,36,depth_duration_stimuli/002043_2014-06-24_20-29-38_260595134347_rgbf000039-resize_4/002043_2014-06-24_20-29-38_260595134347_rgbf000039-resize_4-target.png,125,2.8435,4.0,3891,128,feet,jsons/VE125_randls_39_rotated.json,942533,1103580,43,Man
36,731328,DepthScenes,duration_manipulation_targetAtFixation,jsons/VE125_randls_39_rotated.json,http://54.235.29.9/FacialAge/BNav_EC2/DepthDuration/v2_depth_duration_MTurk/v2_DepthDuration_HTML.html#466,466,1364,768,1364,768,9-3-2022,12-36-48,37,depth_duration_stimuli/000749_2014-06-08_21-55-06_260595134347_rgbf000070-resize_2/000749_2014-06-08_21-55-06_260595134347_rgbf000070-resize_2-target.png,125,2.331,4.0,4460,131,feet,jsons/VE125_randls_39_rotated.json,942533,1103580,43,Man
37,731328,DepthScenes,duration_manipulation_targetAtFixation,jsons/VE125_randls_39_rotated.json,http://54.235.29.9/FacialAge/BNav_EC2/DepthDuration/v2_depth_duration_MTurk/v2_DepthDuration_HTML.html#466,466,1364,768,1364,768,9-3-2022,12-36-48,38,depth_duration_stimuli/002788_2014-06-22_19-36-03_094959634447_rgbf000088-resize_2/002788_2014-06-22_19-36-03_094959634447_rgbf000088-resize_2-target.png,125,1.6465,0.0,2852,177,feet,jsons/VE125_randls_39_rotated.json,942533,1103580,43,Man
38,731328,DepthScenes,duration_manipulation_targetAtFixation,jsons/VE125_randls_39_rotated.json,http://54.235.29.9/FacialAge/BNav_EC2/DepthDuration/v2_depth_duration_MTurk/v2_DepthDuration_HTML.html#466,466,1364,768,1364,768,9-3-2022,12-36-48,39,depth_duration_stimuli/001584_2014-06-20_11-07-43_260595134347_rgbf000002-resize_1/001584_2014-06-20_11-07-43_260595134347_rgbf000002-resize_1-target.png,125,3.53,4.5,5655,127,feet,jsons/VE125_randls_39_rotated.json,942533,1103580,43,Man
39,731328,DepthScenes,duration_manipulation_targetAtFixation,jsons/VE125_randls_39_rotated.json,http://54.235.29.9/FacialAge/BNav_EC2/DepthDuration/v2_depth_duration_MTurk/v2_DepthDuration_HTML.html#466,466,1364,768,1364,768,9-3-2022,12-36-48,40,depth_duration_stimuli/003621_2014-05-23_18-06-08_094959634447_rgbf000101-resize_1/003621_2014-05-23_18-06-08_094959634447_rgbf000101-resize_1-target.png,125,3.9835,0.0,2636,200,feet,jsons/VE125_randls_39_rotated.json,942533,1103580,43,Man
40,731328,DepthScenes,duration_manipulation_targetAtFixation,jsons/VE125_randls_39_rotated.json,http://54.235.29.9/FacialAge/BNav_EC2/DepthDuration/v2_depth_duration_MTurk/v2_DepthDuration_HTML.html#466,466,1364,768,1364,768,9-3-2022,12-36-48,41,depth_duration_stimuli/000742_2014-06-08_18-48-09_260595134347_rgbf000164-resize_4/000742_2014-06-08_18-48-09_260595134347_rgbf000164-resize_4-target.png,125,4.632,5.0,5049,126,feet,jsons/VE125_randls_39_rotated.json,942533,1103580,43,Man
41,731328,DepthScenes,duration_manipulation_targetAtFixation,jsons/VE125_randls_39_rotated.json,http://54.235.29.9/FacialAge/BNav_EC2/DepthDuration/v2_depth_duration_MTurk/v2_DepthDuration_HTML.html#466,466,1364,768,1364,768,9-3-2022,12-36-48,42,depth_duration_stimuli/001066_2014-06-08_22-03-20_260595134347_rgbf000066-resize_4/001066_2014-06-08_22-03-20_260595134347_rgbf000066-resize_4-target.png,125,4.2330000000000005,5.5,4228,125,feet,jsons/VE125_randls_39_rotated.json,942533,1103580,43,Man
42,731328,DepthScenes,duration_manipulation_targetAtFixation,jsons/VE125_randls_39_rotated.json,http://54.235.29.9/FacialAge/BNav_EC2/DepthDuration/v2_depth_duration_MTurk/v2_DepthDuration_HTML.html#466,466,1364,768,1364,768,9-3-2022,12-36-48,43,depth_duration_stimuli/002660_2014-06-13_15-44-18_094959634447_rgbf001878-resize_2/002660_2014-06-13_15-44-18_094959634447_rgbf001878-resize_2-target.png,125,3.576,4.0,5197,124,feet,jsons/VE125_randls_39_rotated.json,942533,1103580,43,Man
43,731328,DepthScenes,duration_manipulation_targetAtFixation,jsons/VE125_randls_39_rotated.json,http://54.235.29.9/FacialAge/BNav_EC2/DepthDuration/v2_depth_duration_MTurk/v2_DepthDuration_HTML.html#466,466,1364,768,1364,768,9-3-2022,12-36-48,44,depth_duration_stimuli/002153_2014-06-25_21-27-18_260595134347_rgbf000038-resize_5/002153_2014-06-25_21-27-18_260595134347_rgbf000038-resize_5-target.png,125,2.505,3.0,3635,124,feet,jsons/VE125_randls_39_rotated.json,942533,1103580,43,Man
44,731328,DepthScenes,duration_manipulation_targetAtFixation,jsons/VE125_randls_39_rotated.json,http://54.235.29.9/FacialAge/BNav_EC2/DepthDuration/v2_depth_duration_MTurk/v2_DepthDuration_HTML.html#466,466,1364,768,1364,768,9-3-2022,12-36-48,45,depth_duration_stimuli/003083_2014-06-15_15-21-03_094959634447_rgbf000063-resize_1/003083_2014-06-15_15-21-03_094959634447_rgbf000063-resize_1-target.png,125,4.1405,3.0,5502,0,feet,jsons/VE125_randls_39_rotated.json,942533,1103580,43,Man
45,731328,DepthScenes,duration_manipulation_targetAtFixation,jsons/VE125_randls_39_rotated.json,http://54.235.29.9/FacialAge/BNav_EC2/DepthDuration/v2_depth_duration_MTurk/v2_DepthDuration_HTML.html#466,466,1364,768,1364,768,9-3-2022,12-36-48,46,depth_duration_stimuli/000486_2014-06-09_20-47-20_260595134347_rgbf000143-resize_2/000486_2014-06-09_20-47-20_260595134347_rgbf000143-resize_2-target.png,125,4.8325,3.5,5267,128,feet,jsons/VE125_randls_39_rotated.json,942533,1103580,43,Man
46,731328,DepthScenes,duration_manipulation_targetAtFixation,jsons/VE125_randls_39_rotated.json,http://54.235.29.9/FacialAge/BNav_EC2/DepthDuration/v2_depth_duration_MTurk/v2_DepthDuration_HTML.html#466,466,1364,768,1364,768,9-3-2022,12-36-48,47,depth_duration_stimuli/003010_2014-06-15_12-54-35_094959634447_rgbf000112-resize_0/003010_2014-06-15_12-54-35_094959634447_rgbf000112-resize_0-target.png,125,3.1185,5.5,5337,126,feet,jsons/VE125_randls_39_rotated.json,942533,1103580,43,Man
47,731328,DepthScenes,duration_manipulation_targetAtFixation,jsons/VE125_randls_39_rotated.json,http://54.235.29.9/FacialAge/BNav_EC2/DepthDuration/v2_depth_duration_MTurk/v2_DepthDuration_HTML.html#466,466,1364,768,1364,768,9-3-2022,12-36-48,48,depth_duration_stimuli/001810_2014-06-26_20-51-35_260595134347_rgbf000040-resize_3/001810_2014-06-26_20-51-35_260595134347_rgbf000040-resize_3-target.png,125,2.2525,3.0,3910,126,feet,jsons/VE125_randls_39_rotated.json,942533,1103580,43,Man
48,731328,DepthScenes,duration_manipulation_targetAtFixation,jsons/VE125_randls_39_rotated.json,http://54.235.29.9/FacialAge/BNav_EC2/DepthDuration/v2_depth_duration_MTurk/v2_DepthDuration_HTML.html#466,466,1364,768,1364,768,9-3-2022,12-36-48,49,depth_duration_stimuli/001170_2014-06-17_15-43-44_260595134347_rgbf000096-resize_6/001170_2014-06-17_15-43-44_260595134347_rgbf000096-resize-original.jpg,125,1.1909999999999998,0.0,4757,125,feet,jsons/VE125_randls_39_rotated.json,942533,1103580,43,Man
49,731328,DepthScenes,duration_manipulation_targetAtFixation,jsons/VE125_randls_39_rotated.json,http://54.235.29.9/FacialAge/BNav_EC2/DepthDuration/v2_depth_duration_MTurk/v2_DepthDuration_HTML.html#466,466,1364,768,1364,768,9-3-2022,12-36-48,50,depth_duration_stimuli/002995_2014-06-15_12-31-26_094959634447_rgbf000150-resize_1/002995_2014-06-15_12-31-26_094959634447_rgbf000150-resize_1-target.png,125,3.8360000000000003,4.0,3893,133,feet,jsons/VE125_randls_39_rotated.json,942533,1103580,43,Man
50,731328,DepthScenes,duration_manipulation_targetAtFixation,jsons/VE125_randls_39_rotated.json,http://54.235.29.9/FacialAge/BNav_EC2/DepthDuration/v2_depth_duration_MTurk/v2_DepthDuration_HTML.html#466,466,1364,768,1364,768,9-3-2022,12-36-48,51,depth_duration_stimuli/002748_2014-06-22_19-07-22_094959634447_rgbf000078-resize_1/002748_2014-06-22_19-07-22_094959634447_rgbf000078-resize_1-target.png,125,4.6705,2.0,3863,133,feet,jsons/VE125_randls_39_rotated.json,942533,1103580,43,Man
51,731328,DepthScenes,duration_manipulation_targetAtFixation,jsons/VE125_randls_39_rotated.json,http://54.235.29.9/FacialAge/BNav_EC2/DepthDuration/v2_depth_duration_MTurk/v2_DepthDuration_HTML.html#466,466,1364,768,1364,768,9-3-2022,12-36-48,52,depth_duration_stimuli/002103_2014-06-25_20-00-40_260595134347_rgbf000049-resize_0/002103_2014-06-25_20-00-40_260595134347_rgbf000049-resize_0-target.png,125,4.105,3.0,3941,145,feet,jsons/VE125_randls_39_rotated.json,942533,1103580,43,Man
52,731328,DepthScenes,duration_manipulation_targetAtFixation,jsons/VE125_randls_39_rotated.json,http://54.235.29.9/FacialAge/BNav_EC2/DepthDuration/v2_depth_duration_MTurk/v2_DepthDuration_HTML.html#466,466,1364,768,1364,768,9-3-2022,12-36-48,53,depth_duration_stimuli/002039_2014-06-24_20-22-38_260595134347_rgbf000084-resize_1/002039_2014-06-24_20-22-38_260595134347_rgbf000084-resize_1-target.png,125,4.408,5.0,3723,124,feet,jsons/VE125_randls_39_rotated.json,942533,1103580,43,Man
53,731328,DepthScenes,duration_manipulation_targetAtFixation,jsons/VE125_randls_39_rotated.json,http://54.235.29.9/FacialAge/BNav_EC2/DepthDuration/v2_depth_duration_MTurk/v2_DepthDuration_HTML.html#466,466,1364,768,1364,768,9-3-2022,12-36-48,54,depth_duration_stimuli/002340_2014-06-28_20-05-46_260595134347_rgbf000113-resize_0/002340_2014-06-28_20-05-46_260595134347_rgbf000113-resize_0-target.png,125,2.4735,4.5,4288,125,feet,jsons/VE125_randls_39_rotated.json,942533,1103580,43,Man
54,731328,DepthScenes,duration_manipulation_targetAtFixation,jsons/VE125_randls_39_rotated.json,http://54.235.29.9/FacialAge/BNav_EC2/DepthDuration/v2_depth_duration_MTurk/v2_DepthDuration_HTML.html#466,466,1364,768,1364,768,9-3-2022,12-36-48,55,depth_duration_stimuli/001016_2014-06-09_16-16-10_260595134347_rgbf000112-resize_5/001016_2014-06-09_16-16-10_260595134347_rgbf000112-resize_5-target.png,125,1.6565,0.0,3048,124,feet,jsons/VE125_randls_39_rotated.json,942533,1103580,43,Man
55,731328,DepthScenes,duration_manipulation_targetAtFixation,jsons/VE125_randls_39_rotated.json,http://54.235.29.9/FacialAge/BNav_EC2/DepthDuration/v2_depth_duration_MTurk/v2_DepthDuration_HTML.html#466,466,1364,768,1364,768,9-3-2022,12-36-48,56,depth_duration_stimuli/003338_2014-05-20_11-01-23_094959634447_rgbf000051-resize_6/003338_2014-05-20_11-01-23_094959634447_rgbf000051-resize_6-target.png,125,1.693,2.5,4455,130,feet,jsons/VE125_randls_39_rotated.json,942533,1103580,43,Man
56,731328,DepthScenes,duration_manipulation_targetAtFixation,jsons/VE125_randls_39_rotated.json,http://54.235.29.9/FacialAge/BNav_EC2/DepthDuration/v2_depth_duration_MTurk/v2_DepthDuration_HTML.html#466,466,1364,768,1364,768,9-3-2022,12-36-48,57,depth_duration_stimuli/002509_2014-06-24_13-19-22_094959634447_rgbf000077-resize_0/002509_2014-06-24_13-19-22_094959634447_rgbf000077-resize_0-target.png,125,1.3065,2.0,4072,135,feet,jsons/VE125_randls_39_rotated.json,942533,1103580,43,Man
57,731328,DepthScenes,duration_manipulation_targetAtFixation,jsons/VE125_randls_39_rotated.json,http://54.235.29.9/FacialAge/BNav_EC2/DepthDuration/v2_depth_duration_MTurk/v2_DepthDuration_HTML.html#466,466,1364,768,1364,768,9-3-2022,12-36-48,58,depth_duration_stimuli/000734_2014-06-08_17-39-11_260595134347_rgbf000128-resize_2/000734_2014-06-08_17-39-11_260595134347_rgbf000128-resize_2-target.png,125,4.098,3.5,7264,125,feet,jsons/VE125_randls_39_rotated.json,942533,1103580,43,Man
58,731328,DepthScenes,duration_manipulation_targetAtFixation,jsons/VE125_randls_39_rotated.json,http://54.235.29.9/FacialAge/BNav_EC2/DepthDuration/v2_depth_duration_MTurk/v2_DepthDuration_HTML.html#466,466,1364,768,1364,768,9-3-2022,12-36-48,59,depth_duration_stimuli/000739_2014-06-08_18-45-58_260595134347_rgbf000068-resize_1/000739_2014-06-08_18-45-58_260595134347_rgbf000068-resize_1-target.png,125,3.534,5.0,4315,148,feet,jsons/VE125_randls_39_rotated.json,942533,1103580,43,Man
59,731328,DepthScenes,duration_manipulation_targetAtFixation,jsons/VE125_randls_39_rotated.json,http://54.235.29.9/FacialAge/BNav_EC2/DepthDuration/v2_depth_duration_MTurk/v2_DepthDuration_HTML.html#466,466,1364,768,1364,768,9-3-2022,12-36-48,60,depth_duration_stimuli/002750_2014-06-22_19-08-03_094959634447_rgbf000094-resize_4/002750_2014-06-22_19-08-03_094959634447_rgbf000094-resize_4-target.png,125,2.354,4.0,7177,124,feet,jsons/VE125_randls_39_rotated.json,942533,1103580,43,Man
60,731328,DepthScenes,duration_manipulation_targetAtFixation,jsons/VE125_randls_39_rotated.json,http://54.235.29.9/FacialAge/BNav_EC2/DepthDuration/v2_depth_duration_MTurk/v2_DepthDuration_HTML.html#466,466,1364,768,1364,768,9-3-2022,12-36-48,61,depth_duration_stimuli/002549_2014-06-24_13-41-39_094959634447_rgbf000022-resize_3/002549_2014-06-24_13-41-39_094959634447_rgbf000022-resize_3-target.png,125,1.476,3.5,4126,166,feet,jsons/VE125_randls_39_rotated.json,942533,1103580,43,Man
61,731328,DepthScenes,duration_manipulation_targetAtFixation,jsons/VE125_randls_39_rotated.json,http://54.235.29.9/FacialAge/BNav_EC2/DepthDuration/v2_depth_duration_MTurk/v2_DepthDuration_HTML.html#466,466,1364,768,1364,768,9-3-2022,12-36-48,62,depth_duration_stimuli/003228_2014-05-14_13-42-35_094959634447_rgbf000101-resize_1/003228_2014-05-14_13-42-35_094959634447_rgbf000101-resize_1-target.png,125,1.9680000000000002,3.0,4962,124,feet,jsons/VE125_randls_39_rotated.json,942533,1103580,43,Man
62,731328,DepthScenes,duration_manipulation_targetAtFixation,jsons/VE125_randls_39_rotated.json,http://54.235.29.9/FacialAge/BNav_EC2/DepthDuration/v2_depth_duration_MTurk/v2_DepthDuration_HTML.html#466,466,1364,768,1364,768,9-3-2022,12-36-48,63,depth_duration_stimuli/002600_2014-06-24_14-27-04_094959634447_rgbf000074-resize_2/002600_2014-06-24_14-27-04_094959634447_rgbf000074-resize_2-target.png,125,2.7575,2.0,3914,120,feet,jsons/VE125_randls_39_rotated.json,942533,1103580,43,Man
63,731328,DepthScenes,duration_manipulation_targetAtFixation,jsons/VE125_randls_39_rotated.json,http://54.235.29.9/FacialAge/BNav_EC2/DepthDuration/v2_depth_duration_MTurk/v2_DepthDuration_HTML.html#466,466,1364,768,1364,768,9-3-2022,12-36-48,64,depth_duration_stimuli/000665_2014-06-09_20-42-35_260595134347_rgbf000110-resize_1/000665_2014-06-09_20-42-35_260595134347_rgbf000110-resize_1-target.png,125,3.057,4.0,4983,123,feet,jsons/VE125_randls_39_rotated.json,942533,1103580,43,Man
64,731328,DepthScenes,duration_manipulation_targetAtFixation,jsons/VE125_randls_39_rotated.json,http://54.235.29.9/FacialAge/BNav_EC2/DepthDuration/v2_depth_duration_MTurk/v2_DepthDuration_HTML.html#466,466,1364,768,1364,768,9-3-2022,12-36-48,65,depth_duration_stimuli/001150_2014-06-17_15-27-34_260595134347_rgbf000108-resize_2/001150_2014-06-17_15-27-34_260595134347_rgbf000108-resize_2-target.png,125,4.0325,5.5,6479,124,feet,jsons/VE125_randls_39_rotated.json,942533,1103580,43,Man
65,731328,DepthScenes,duration_manipulation_targetAtFixation,jsons/VE125_randls_39_rotated.json,http://54.235.29.9/FacialAge/BNav_EC2/DepthDuration/v2_depth_duration_MTurk/v2_DepthDuration_HTML.html#466,466,1364,768,1364,768,9-3-2022,12-36-48,66,depth_duration_stimuli/001540_2014-06-20_17-01-05_260595134347_rgbf000086-resize_2/001540_2014-06-20_17-01-05_260595134347_rgbf000086-resize-original.jpg,125,1.459,0.0,5804,144,feet,jsons/VE125_randls_39_rotated.json,942533,1103580,43,Man
66,731328,DepthScenes,duration_manipulation_targetAtFixation,jsons/VE125_randls_39_rotated.json,http://54.235.29.9/FacialAge/BNav_EC2/DepthDuration/v2_depth_duration_MTurk/v2_DepthDuration_HTML.html#466,466,1364,768,1364,768,9-3-2022,12-36-48,67,depth_duration_stimuli/003495_2014-05-21_16-01-51_094959634447_rgbf000100-resize_3/003495_2014-05-21_16-01-51_094959634447_rgbf000100-resize_3-target.png,125,1.6255,2.0,7616,124,feet,jsons/VE125_randls_39_rotated.json,942533,1103580,43,Man
67,731328,DepthScenes,duration_manipulation_targetAtFixation,jsons/VE125_randls_39_rotated.json,http://54.235.29.9/FacialAge/BNav_EC2/DepthDuration/v2_depth_duration_MTurk/v2_DepthDuration_HTML.html#466,466,1364,768,1364,768,9-3-2022,12-36-48,68,depth_duration_stimuli/001244_2014-06-17_16-47-45_260595134347_rgbf000030-resize_4/001244_2014-06-17_16-47-45_260595134347_rgbf000030-resize_4-target.png,125,2.0425,3.5,3913,123,feet,jsons/VE125_randls_39_rotated.json,942533,1103580,43,Man
68,731328,DepthScenes,duration_manipulation_targetAtFixation,jsons/VE125_randls_39_rotated.json,http://54.235.29.9/FacialAge/BNav_EC2/DepthDuration/v2_depth_duration_MTurk/v2_DepthDuration_HTML.html#466,466,1364,768,1364,768,9-3-2022,12-36-48,69,depth_duration_stimuli/002639_2014-06-24_14-51-37_094959634447_rgbf000074-resize_4/002639_2014-06-24_14-51-37_094959634447_rgbf000074-resize_4-target.png,125,4.0375,4.0,4959,125,feet,jsons/VE125_randls_39_rotated.json,942533,1103580,43,Man
69,731328,DepthScenes,duration_manipulation_targetAtFixation,jsons/VE125_randls_39_rotated.json,http://54.235.29.9/FacialAge/BNav_EC2/DepthDuration/v2_depth_duration_MTurk/v2_DepthDuration_HTML.html#466,466,1364,768,1364,768,9-3-2022,12-36-48,70,depth_duration_stimuli/003292_2014-05-14_21-53-49_094959634447_rgbf000100-resize_2/003292_2014-05-14_21-53-49_094959634447_rgbf000100-resize_2-target.png,125,3.4815,3.0,3807,129,feet,jsons/VE125_randls_39_rotated.json,942533,1103580,43,Man
70,731328,DepthScenes,duration_manipulation_targetAtFixation,jsons/VE125_randls_39_rotated.json,http://54.235.29.9/FacialAge/BNav_EC2/DepthDuration/v2_depth_duration_MTurk/v2_DepthDuration_HTML.html#466,466,1364,768,1364,768,9-3-2022,12-36-48,71,depth_duration_stimuli/002199_2014-06-28_18-33-56_260595134347_rgbf000074-resize_0/002199_2014-06-28_18-33-56_260595134347_rgbf000074-resize_0-target.png,125,1.996,2.0,5354,123,feet,jsons/VE125_randls_39_rotated.json,942533,1103580,43,Man
71,731328,DepthScenes,duration_manipulation_targetAtFixation,jsons/VE125_randls_39_rotated.json,http://54.235.29.9/FacialAge/BNav_EC2/DepthDuration/v2_depth_duration_MTurk/v2_DepthDuration_HTML.html#466,466,1364,768,1364,768,9-3-2022,12-36-48,72,depth_duration_stimuli/001056_2014-06-08_18-46-44_260595134347_rgbf000068-resize_0/001056_2014-06-08_18-46-44_260595134347_rgbf000068-resize_0-target.png,125,2.6625,4.0,3634,126,feet,jsons/VE125_randls_39_rotated.json,942533,1103580,43,Man
72,731328,DepthScenes,duration_manipulation_targetAtFixation,jsons/VE125_randls_39_rotated.json,http://54.235.29.9/FacialAge/BNav_EC2/DepthDuration/v2_depth_duration_MTurk/v2_DepthDuration_HTML.html#466,466,1364,768,1364,768,9-3-2022,12-36-48,73,depth_duration_stimuli/001815_2014-06-26_20-52-55_260595134347_rgbf000020-resize_0/001815_2014-06-26_20-52-55_260595134347_rgbf000020-resize_0-target.png,125,3.3865,4.0,5027,121,feet,jsons/VE125_randls_39_rotated.json,942533,1103580,43,Man
73,731328,DepthScenes,duration_manipulation_targetAtFixation,jsons/VE125_randls_39_rotated.json,http://54.235.29.9/FacialAge/BNav_EC2/DepthDuration/v2_depth_duration_MTurk/v2_DepthDuration_HTML.html#466,466,1364,768,1364,768,9-3-2022,12-36-48,74,depth_duration_stimuli/001808_2014-06-26_20-50-58_260595134347_rgbf000029-resize_1/001808_2014-06-26_20-50-58_260595134347_rgbf000029-resize_1-target.png,125,4.249,4.5,4204,121,feet,jsons/VE125_randls_39_rotated.json,942533,1103580,43,Man
74,731328,DepthScenes,duration_manipulation_targetAtFixation,jsons/VE125_randls_39_rotated.json,http://54.235.29.9/FacialAge/BNav_EC2/DepthDuration/v2_depth_duration_MTurk/v2_DepthDuration_HTML.html#466,466,1364,768,1364,768,9-3-2022,12-36-48,75,depth_duration_stimuli/002425_2014-06-28_20-27-29_260595134347_rgbf000031-resize_8/002425_2014-06-28_20-27-29_260595134347_rgbf000031-resize_8-target.png,125,3.8960000000000004,5.0,4598,122,feet,jsons/VE125_randls_39_rotated.json,942533,1103580,43,Man
75,731328,DepthScenes,duration_manipulation_targetAtFixation,jsons/VE125_randls_39_rotated.json,http://54.235.29.9/FacialAge/BNav_EC2/DepthDuration/v2_depth_duration_MTurk/v2_DepthDuration_HTML.html#466,466,1364,768,1364,768,9-3-2022,12-36-48,76,depth_duration_stimuli/000642_2014-06-08_16-59-25_260595134347_rgbf000098-resize_2/000642_2014-06-08_16-59-25_260595134347_rgbf000098-resize_2-target.png,125,2.8815,4.0,4117,65,feet,jsons/VE125_randls_39_rotated.json,942533,1103580,43,Man
76,731328,DepthScenes,duration_manipulation_targetAtFixation,jsons/VE125_randls_39_rotated.json,http://54.235.29.9/FacialAge/BNav_EC2/DepthDuration/v2_depth_duration_MTurk/v2_DepthDuration_HTML.html#466,466,1364,768,1364,768,9-3-2022,12-36-48,77,depth_duration_stimuli/001450_2014-06-19_17-02-03_260595134347_rgbf000203-resize_4/001450_2014-06-19_17-02-03_260595134347_rgbf000203-resize_4-target.png,125,4.0106666666667,5.5,4912,127,feet,jsons/VE125_randls_39_rotated.json,942533,1103580,43,Man
77,731328,DepthScenes,duration_manipulation_targetAtFixation,jsons/VE125_randls_39_rotated.json,http://54.235.29.9/FacialAge/BNav_EC2/DepthDuration/v2_depth_duration_MTurk/v2_DepthDuration_HTML.html#466,466,1364,768,1364,768,9-3-2022,12-36-48,78,depth_duration_stimuli/001449_2014-06-19_17-01-27_260595134347_rgbf000116-resize_2/001449_2014-06-19_17-01-27_260595134347_rgbf000116-resize_2-target.png,125,3.452,4.0,3485,124,feet,jsons/VE125_randls_39_rotated.json,942533,1103580,43,Man
78,731328,DepthScenes,duration_manipulation_targetAtFixation,jsons/VE125_randls_39_rotated.json,http://54.235.29.9/FacialAge/BNav_EC2/DepthDuration/v2_depth_duration_MTurk/v2_DepthDuration_HTML.html#466,466,1364,768,1364,768,9-3-2022,12-36-48,79,depth_duration_stimuli/000780_2014-06-08_22-28-29_260595134347_rgbf000126-resize_1/000780_2014-06-08_22-28-29_260595134347_rgbf000126-resize_1-target.png,125,3.3825,4.5,4082,126,feet,jsons/VE125_randls_39_rotated.json,942533,1103580,43,Man
79,731328,DepthScenes,duration_manipulation_targetAtFixation,jsons/VE125_randls_39_rotated.json,http://54.235.29.9/FacialAge/BNav_EC2/DepthDuration/v2_depth_duration_MTurk/v2_DepthDuration_HTML.html#466,466,1364,768,1364,768,9-3-2022,12-36-48,80,depth_duration_stimuli/002445_2014-06-28_20-32-16_260595134347_rgbf000029-resize_4/002445_2014-06-28_20-32-16_260595134347_rgbf000029-resize_4-target.png,125,2.5315,4.0,3554,125,feet,jsons/VE125_randls_39_rotated.json,942533,1103580,43,Man
80,731328,DepthScenes,duration_manipulation_targetAtFixation,jsons/VE125_randls_39_rotated.json,http://54.235.29.9/FacialAge/BNav_EC2/DepthDuration/v2_depth_duration_MTurk/v2_DepthDuration_HTML.html#466,466,1364,768,1364,768,9-3-2022,12-36-48,81,depth_duration_stimuli/000635_2014-06-08_16-38-42_260595134347_rgbf000106-resize_1/000635_2014-06-08_16-38-42_260595134347_rgbf000106-resize_1-target.png,125,2.074,5.0,4109,126,feet,jsons/VE125_randls_39_rotated.json,942533,1103580,43,Man
81,731328,DepthScenes,duration_manipulation_targetAtFixation,jsons/VE125_randls_39_rotated.json,http://54.235.29.9/FacialAge/BNav_EC2/DepthDuration/v2_depth_duration_MTurk/v2_DepthDuration_HTML.html#466,466,1364,768,1364,768,9-3-2022,12-36-48,82,depth_duration_stimuli/002279_2014-06-28_18-55-32_260595134347_rgbf000040-resize_5/002279_2014-06-28_18-55-32_260595134347_rgbf000040-resize_5-target.png,125,1.5043333333333,2.5,3635,140,feet,jsons/VE125_randls_39_rotated.json,942533,1103580,43,Man
82,731328,DepthScenes,duration_manipulation_targetAtFixation,jsons/VE125_randls_39_rotated.json,http://54.235.29.9/FacialAge/BNav_EC2/DepthDuration/v2_depth_duration_MTurk/v2_DepthDuration_HTML.html#466,466,1364,768,1364,768,9-3-2022,12-36-48,83,depth_duration_stimuli/000854_2014-06-09_19-43-13_260595134347_rgbf000066-resize_0/000854_2014-06-09_19-43-13_260595134347_rgbf000066-resize_0-target.png,125,3.068,3.0,8831,111,feet,jsons/VE125_randls_39_rotated.json,942533,1103580,43,Man
83,731328,DepthScenes,duration_manipulation_targetAtFixation,jsons/VE125_randls_39_rotated.json,http://54.235.29.9/FacialAge/BNav_EC2/DepthDuration/v2_depth_duration_MTurk/v2_DepthDuration_HTML.html#466,466,1364,768,1364,768,9-3-2022,12-36-48,84,depth_duration_stimuli/000758_2014-06-08_22-05-08_260595134347_rgbf000085-resize_0/000758_2014-06-08_22-05-08_260595134347_rgbf000085-resize_0-target.png,125,3.3810000000000002,0.0,5299,124,feet,jsons/VE125_randls_39_rotated.json,942533,1103580,43,Man
84,731328,DepthScenes,duration_manipulation_targetAtFixation,jsons/VE125_randls_39_rotated.json,http://54.235.29.9/FacialAge/BNav_EC2/DepthDuration/v2_depth_duration_MTurk/v2_DepthDuration_HTML.html#466,466,1364,768,1364,768,9-3-2022,12-36-48,85,depth_duration_stimuli/003423_2014-05-21_10-23-26_094959634447_rgbf002665-resize_2/003423_2014-05-21_10-23-26_094959634447_rgbf002665-resize_2-target.png,125,3.2575,5.0,4555,120,feet,jsons/VE125_randls_39_rotated.json,942533,1103580,43,Man
85,731328,DepthScenes,duration_manipulation_targetAtFixation,jsons/VE125_randls_39_rotated.json,http://54.235.29.9/FacialAge/BNav_EC2/DepthDuration/v2_depth_duration_MTurk/v2_DepthDuration_HTML.html#466,466,1364,768,1364,768,9-3-2022,12-36-48,86,depth_duration_stimuli/002905_2014-06-03_18-04-43_094959634447_rgbf000151-resize_2/002905_2014-06-03_18-04-43_094959634447_rgbf000151-resize_2-target.png,125,2.0295,3.0,4384,126,feet,jsons/VE125_randls_39_rotated.json,942533,1103580,43,Man
86,731328,DepthScenes,duration_manipulation_targetAtFixation,jsons/VE125_randls_39_rotated.json,http://54.235.29.9/FacialAge/BNav_EC2/DepthDuration/v2_depth_duration_MTurk/v2_DepthDuration_HTML.html#466,466,1364,768,1364,768,9-3-2022,12-36-48,87,depth_duration_stimuli/000502_2014-06-08_23-02-32_260595134347_rgbf000063-resize_4/000502_2014-06-08_23-02-32_260595134347_rgbf000063-resize_4-target.png,125,2.431,3.5,4918,74,feet,jsons/VE125_randls_39_rotated.json,942533,1103580,43,Man
87,731328,DepthScenes,duration_manipulation_targetAtFixation,jsons/VE125_randls_39_rotated.json,http://54.235.29.9/FacialAge/BNav_EC2/DepthDuration/v2_depth_duration_MTurk/v2_DepthDuration_HTML.html#466,466,1364,768,1364,768,9-3-2022,12-36-48,88,depth_duration_stimuli/001199_2014-06-17_16-03-48_260595134347_rgbf000077-resize_0/001199_2014-06-17_16-03-48_260595134347_rgbf000077-resize_0-target.png,125,3.4375,4.0,3736,130,feet,jsons/VE125_randls_39_rotated.json,942533,1103580,43,Man
88,731328,DepthScenes,duration_manipulation_targetAtFixation,jsons/VE125_randls_39_rotated.json,http://54.235.29.9/FacialAge/BNav_EC2/DepthDuration/v2_depth_duration_MTurk/v2_DepthDuration_HTML.html#466,466,1364,768,1364,768,9-3-2022,12-36-48,89,depth_duration_stimuli/000483_2014-06-09_20-41-45_260595134347_rgbf000116-resize_4/000483_2014-06-09_20-41-45_260595134347_rgbf000116-resize_4-target.png,125,1.337,2.0,4488,135,feet,jsons/VE125_randls_39_rotated.json,942533,1103580,43,Man
89,731328,DepthScenes,duration_manipulation_targetAtFixation,jsons/VE125_randls_39_rotated.json,http://54.235.29.9/FacialAge/BNav_EC2/DepthDuration/v2_depth_duration_MTurk/v2_DepthDuration_HTML.html#466,466,1364,768,1364,768,9-3-2022,12-36-48,90,depth_duration_stimuli/000469_2014-06-09_19-42-10_260595134347_rgbf000081-resize_1/000469_2014-06-09_19-42-10_260595134347_rgbf000081-resize_1-target.png,125,1.652,3.0,4173,125,feet,jsons/VE125_randls_39_rotated.json,942533,1103580,43,Man
90,731328,DepthScenes,duration_manipulation_targetAtFixation,jsons/VE125_randls_39_rotated.json,http://54.235.29.9/FacialAge/BNav_EC2/DepthDuration/v2_depth_duration_MTurk/v2_DepthDuration_HTML.html#466,466,1364,768,1364,768,9-3-2022,12-36-48,91,depth_duration_stimuli/000109_2014-05-14_23-41-52_260595134347_rgbf000035-resize_9/000109_2014-05-14_23-41-52_260595134347_rgbf000035-resize_9-target.png,125,1.3545,2.5,5011,188,feet,jsons/VE125_randls_39_rotated.json,942533,1103580,43,Man
91,731328,DepthScenes,duration_manipulation_targetAtFixation,jsons/VE125_randls_39_rotated.json,http://54.235.29.9/FacialAge/BNav_EC2/DepthDuration/v2_depth_duration_MTurk/v2_DepthDuration_HTML.html#466,466,1364,768,1364,768,9-3-2022,12-36-48,92,depth_duration_stimuli/000470_2014-06-09_19-42-40_260595134347_rgbf000094-resize_1/000470_2014-06-09_19-42-40_260595134347_rgbf000094-resize_1-target.png,125,1.831,3.5,4669,121,feet,jsons/VE125_randls_39_rotated.json,942533,1103580,43,Man
92,731328,DepthScenes,duration_manipulation_targetAtFixation,jsons/VE125_randls_39_rotated.json,http://54.235.29.9/FacialAge/BNav_EC2/DepthDuration/v2_depth_duration_MTurk/v2_DepthDuration_HTML.html#466,466,1364,768,1364,768,9-3-2022,12-36-48,93,depth_duration_stimuli/000677_2014-06-08_23-10-32_260595134347_rgbf000158-resize_6/000677_2014-06-08_23-10-32_260595134347_rgbf000158-resize_6-target.png,125,3.556,4.5,4586,108,feet,jsons/VE125_randls_39_rotated.json,942533,1103580,43,Man
93,731328,DepthScenes,duration_manipulation_targetAtFixation,jsons/VE125_randls_39_rotated.json,http://54.235.29.9/FacialAge/BNav_EC2/DepthDuration/v2_depth_duration_MTurk/v2_DepthDuration_HTML.html#466,466,1364,768,1364,768,9-3-2022,12-36-48,94,depth_duration_stimuli/001029_2014-06-08_13-17-57_260595134347_rgbf000065-resize_1/001029_2014-06-08_13-17-57_260595134347_rgbf000065-resize_1-target.png,125,3.0835,0.0,3204,67,feet,jsons/VE125_randls_39_rotated.json,942533,1103580,43,Man
94,731328,DepthScenes,duration_manipulation_targetAtFixation,jsons/VE125_randls_39_rotated.json,http://54.235.29.9/FacialAge/BNav_EC2/DepthDuration/v2_depth_duration_MTurk/v2_DepthDuration_HTML.html#466,466,1364,768,1364,768,9-3-2022,12-36-48,95,depth_duration_stimuli/002953_2014-06-08_17-32-18_094959634447_rgbf000059-resize_5/002953_2014-06-08_17-32-18_094959634447_rgbf000059-resize_5-target.png,125,1.551,2.5,4280,127,feet,jsons/VE125_randls_39_rotated.json,942533,1103580,43,Man
95,731328,DepthScenes,duration_manipulation_targetAtFixation,jsons/VE125_randls_39_rotated.json,http://54.235.29.9/FacialAge/BNav_EC2/DepthDuration/v2_depth_duration_MTurk/v2_DepthDuration_HTML.html#466,466,1364,768,1364,768,9-3-2022,12-36-48,96,depth_duration_stimuli/000878_2014-06-08_22-52-45_260595134347_rgbf000045-resize_2/000878_2014-06-08_22-52-45_260595134347_rgbf000045-resize_2-target.png,125,2.092,0.0,5028,156,feet,jsons/VE125_randls_39_rotated.json,942533,1103580,43,Man
96,731328,DepthScenes,duration_manipulation_targetAtFixation,jsons/VE125_randls_39_rotated.json,http://54.235.29.9/FacialAge/BNav_EC2/DepthDuration/v2_depth_duration_MTurk/v2_DepthDuration_HTML.html#466,466,1364,768,1364,768,9-3-2022,12-36-48,97,depth_duration_stimuli/001132_2014-06-17_14-48-54_260595134347_rgbf000100-resize_2/001132_2014-06-17_14-48-54_260595134347_rgbf000100-resize_2-target.png,125,3.753,4.4,8653,146,feet,jsons/VE125_randls_39_rotated.json,942533,1103580,43,Man
97,731328,DepthScenes,duration_manipulation_targetAtFixation,jsons/VE125_randls_39_rotated.json,http://54.235.29.9/FacialAge/BNav_EC2/DepthDuration/v2_depth_duration_MTurk/v2_DepthDuration_HTML.html#466,466,1364,768,1364,768,9-3-2022,12-36-48,98,depth_duration_stimuli/001133_2014-06-17_14-49-16_260595134347_rgbf000100-resize_0/001133_2014-06-17_14-49-16_260595134347_rgbf000100-resize_0-target.png,125,4.2115,3.0,3973,57,feet,jsons/VE125_randls_39_rotated.json,942533,1103580,43,Man
98,731328,DepthScenes,duration_manipulation_targetAtFixation,jsons/VE125_randls_39_rotated.json,http://54.235.29.9/FacialAge/BNav_EC2/DepthDuration/v2_depth_duration_MTurk/v2_DepthDuration_HTML.html#466,466,1364,768,1364,768,9-3-2022,12-36-48,99,depth_duration_stimuli/001222_2014-06-17_16-24-06_260595134347_rgbf000073-resize_0/001222_2014-06-17_16-24-06_260595134347_rgbf000073-resize-original.jpg,125,1.4385,0.0,3707,126,feet,jsons/VE125_randls_39_rotated.json,942533,1103580,43,Man
99,731328,DepthScenes,duration_manipulation_targetAtFixation,jsons/VE125_randls_39_rotated.json,http://54.235.29.9/FacialAge/BNav_EC2/DepthDuration/v2_depth_duration_MTurk/v2_DepthDuration_HTML.html#466,466,1364,768,1364,768,9-3-2022,12-36-48,100,depth_duration_stimuli/001094_2014-06-15_17-36-00_260595134347_rgbf000205-resize_0/001094_2014-06-15_17-36-00_260595134347_rgbf000205-resize_0-target.png,125,4.2175,6.0,4154,119,feet,jsons/VE125_randls_39_rotated.json,942533,1103580,43,Man
100,731328,DepthScenes,duration_manipulation_targetAtFixation,jsons/VE125_randls_39_rotated.json,http://54.235.29.9/FacialAge/BNav_EC2/DepthDuration/v2_depth_duration_MTurk/v2_DepthDuration_HTML.html#466,466,1364,768,1364,768,9-3-2022,12-36-48,101,depth_duration_stimuli/000692_2014-06-08_13-09-42_260595134347_rgbf000199-resize_2/000692_2014-06-08_13-09-42_260595134347_rgbf000199-resize_2-target.png,125,3.661,4.5,5016,131,feet,jsons/VE125_randls_39_rotated.json,942533,1103580,43,Man
101,731328,DepthScenes,duration_manipulation_targetAtFixation,jsons/VE125_randls_39_rotated.json,http://54.235.29.9/FacialAge/BNav_EC2/DepthDuration/v2_depth_duration_MTurk/v2_DepthDuration_HTML.html#466,466,1364,768,1364,768,9-3-2022,12-36-48,102,depth_duration_stimuli/002467_2014-06-28_20-38-07_260595134347_rgbf000026-resize_2/002467_2014-06-28_20-38-07_260595134347_rgbf000026-resize_2-target.png,125,4.742,5.5,8219,124,feet,jsons/VE125_randls_39_rotated.json,942533,1103580,43,Man
102,731328,DepthScenes,duration_manipulation_targetAtFixation,jsons/VE125_randls_39_rotated.json,http://54.235.29.9/FacialAge/BNav_EC2/DepthDuration/v2_depth_duration_MTurk/v2_DepthDuration_HTML.html#466,466,1364,768,1364,768,9-3-2022,12-36-48,103,depth_duration_stimuli/002570_2014-06-24_13-59-54_094959634447_rgbf000059-resize_0/002570_2014-06-24_13-59-54_094959634447_rgbf000059-resize_0-target.png,125,4.037,0.0,3208,150,feet,jsons/VE125_randls_39_rotated.json,942533,1103580,43,Man
103,731328,DepthScenes,duration_manipulation_targetAtFixation,jsons/VE125_randls_39_rotated.json,http://54.235.29.9/FacialAge/BNav_EC2/DepthDuration/v2_depth_duration_MTurk/v2_DepthDuration_HTML.html#466,466,1364,768,1364,768,9-3-2022,12-36-48,104,depth_duration_stimuli/002805_2014-06-22_19-54-03_094959634447_rgbf000079-resize_1/002805_2014-06-22_19-54-03_094959634447_rgbf000079-resize_1-target.png,125,3.1439999999999997,6.0,6256,131,feet,jsons/VE125_randls_39_rotated.json,942533,1103580,43,Man
104,731328,DepthScenes,duration_manipulation_targetAtFixation,jsons/VE125_randls_39_rotated.json,http://54.235.29.9/FacialAge/BNav_EC2/DepthDuration/v2_depth_duration_MTurk/v2_DepthDuration_HTML.html#466,466,1364,768,1364,768,9-3-2022,12-36-48,105,depth_duration_stimuli/000906_2014-06-08_13-35-43_260595134347_rgbf000155-resize_1/000906_2014-06-08_13-35-43_260595134347_rgbf000155-resize_1-target.png,125,2.8489999999999998,5.0,6637,150,feet,jsons/VE125_randls_39_rotated.json,942533,1103580,43,Man
105,731328,DepthScenes,duration_manipulation_targetAtFixation,jsons/VE125_randls_39_rotated.json,http://54.235.29.9/FacialAge/BNav_EC2/DepthDuration/v2_depth_duration_MTurk/v2_DepthDuration_HTML.html#466,466,1364,768,1364,768,9-3-2022,12-36-48,106,depth_duration_stimuli/003081_2014-06-15_15-19-16_094959634447_rgbf000150-resize_1/003081_2014-06-15_15-19-16_094959634447_rgbf000150-resize_1-target.png,125,3.9125,4.5,6375,137,feet,jsons/VE125_randls_39_rotated.json,942533,1103580,43,Man
106,731328,DepthScenes,duration_manipulation_targetAtFixation,jsons/VE125_randls_39_rotated.json,http://54.235.29.9/FacialAge/BNav_EC2/DepthDuration/v2_depth_duration_MTurk/v2_DepthDuration_HTML.html#466,466,1364,768,1364,768,9-3-2022,12-36-48,107,depth_duration_stimuli/001417_2014-06-19_16-25-36_260595134347_rgbf000115-resize_5/001417_2014-06-19_16-25-36_260595134347_rgbf000115-resize_5-target.png,125,4.6255,4.0,5305,130,feet,jsons/VE125_randls_39_rotated.json,942533,1103580,43,Man
107,731328,DepthScenes,duration_manipulation_targetAtFixation,jsons/VE125_randls_39_rotated.json,http://54.235.29.9/FacialAge/BNav_EC2/DepthDuration/v2_depth_duration_MTurk/v2_DepthDuration_HTML.html#466,466,1364,768,1364,768,9-3-2022,12-36-48,108,depth_duration_stimuli/001571_2014-06-20_17-21-32_260595134347_rgbf000089-resize_1/001571_2014-06-20_17-21-32_260595134347_rgbf000089-resize_1-target.png,125,1.86,3.5,8952,168,feet,jsons/VE125_randls_39_rotated.json,942533,1103580,43,Man
108,731328,DepthScenes,duration_manipulation_targetAtFixation,jsons/VE125_randls_39_rotated.json,http://54.235.29.9/FacialAge/BNav_EC2/DepthDuration/v2_depth_duration_MTurk/v2_DepthDuration_HTML.html#466,466,1364,768,1364,768,9-3-2022,12-36-48,109,depth_duration_stimuli/002272_2014-06-28_18-53-56_260595134347_rgbf000067-resize_2/002272_2014-06-28_18-53-56_260595134347_rgbf000067-resize_2-target.png,125,1.138,3.0,5103,124,feet,jsons/VE125_randls_39_rotated.json,942533,1103580,43,Man
109,731328,DepthScenes,duration_manipulation_targetAtFixation,jsons/VE125_randls_39_rotated.json,http://54.235.29.9/FacialAge/BNav_EC2/DepthDuration/v2_depth_duration_MTurk/v2_DepthDuration_HTML.html#466,466,1364,768,1364,768,9-3-2022,12-36-48,110,depth_duration_stimuli/003587_2014-05-23_16-48-02_094959634447_rgbf002384-resize_2/003587_2014-05-23_16-48-02_094959634447_rgbf002384-resize_2-target.png,125,1.357,1.5,7379,105,feet,jsons/VE125_randls_39_rotated.json,942533,1103580,43,Man
110,731328,DepthScenes,duration_manipulation_targetAtFixation,jsons/VE125_randls_39_rotated.json,http://54.235.29.9/FacialAge/BNav_EC2/DepthDuration/v2_depth_duration_MTurk/v2_DepthDuration_HTML.html#466,466,1364,768,1364,768,9-3-2022,12-36-48,111,depth_duration_stimuli/001167_2014-06-17_15-38-07_260595134347_rgbf000108-resize_0/001167_2014-06-17_15-38-07_260595134347_rgbf000108-resize_0-target.png,125,1.8505,2.5,6641,137,feet,jsons/VE125_randls_39_rotated.json,942533,1103580,43,Man
111,731328,DepthScenes,duration_manipulation_targetAtFixation,jsons/VE125_randls_39_rotated.json,http://54.235.29.9/FacialAge/BNav_EC2/DepthDuration/v2_depth_duration_MTurk/v2_DepthDuration_HTML.html#466,466,1364,768,1364,768,9-3-2022,12-36-48,112,depth_duration_stimuli/001650_2014-06-20_12-09-00_260595134347_rgbf000087-resize_3/001650_2014-06-20_12-09-00_260595134347_rgbf000087-resize_3-target.png,125,1.9505,1.5,6177,127,feet,jsons/VE125_randls_39_rotated.json,942533,1103580,43,Man
112,731328,DepthScenes,duration_manipulation_targetAtFixation,jsons/VE125_randls_39_rotated.json,http://54.235.29.9/FacialAge/BNav_EC2/DepthDuration/v2_depth_duration_MTurk/v2_DepthDuration_HTML.html#466,466,1364,768,1364,768,9-3-2022,12-36-48,113,depth_duration_stimuli/000682_2014-06-08_23-14-58_260595134347_rgbf000041-resize_5/000682_2014-06-08_23-14-58_260595134347_rgbf000041-resize_5-target.png,125,2.7239999999999998,4.5,4549,132,feet,jsons/VE125_randls_39_rotated.json,942533,1103580,43,Man
113,731328,DepthScenes,duration_manipulation_targetAtFixation,jsons/VE125_randls_39_rotated.json,http://54.235.29.9/FacialAge/BNav_EC2/DepthDuration/v2_depth_duration_MTurk/v2_DepthDuration_HTML.html#466,466,1364,768,1364,768,9-3-2022,12-36-48,114,depth_duration_stimuli/000709_2014-06-08_13-51-55_260595134347_rgbf000068-resize_3/000709_2014-06-08_13-51-55_260595134347_rgbf000068-resize_3-target.png,125,1.8030000000000002,3.5,5449,126,feet,jsons/VE125_randls_39_rotated.json,942533,1103580,43,Man
114,731328,DepthScenes,duration_manipulation_targetAtFixation,jsons/VE125_randls_39_rotated.json,http://54.235.29.9/FacialAge/BNav_EC2/DepthDuration/v2_depth_duration_MTurk/v2_DepthDuration_HTML.html#466,466,1364,768,1364,768,9-3-2022,12-36-48,115,depth_duration_stimuli/002057_2014-06-24_21-00-13_260595134347_rgbf000120-resize_1/002057_2014-06-24_21-00-13_260595134347_rgbf000120-resize_1-target.png,125,2.967,5.0,4815,147,feet,jsons/VE125_randls_39_rotated.json,942533,1103580,43,Man
115,731328,DepthScenes,duration_manipulation_targetAtFixation,jsons/VE125_randls_39_rotated.json,http://54.235.29.9/FacialAge/BNav_EC2/DepthDuration/v2_depth_duration_MTurk/v2_DepthDuration_HTML.html#466,466,1364,768,1364,768,9-3-2022,12-36-48,116,depth_duration_stimuli/002414_2014-06-28_20-24-58_260595134347_rgbf000067-resize_4/002414_2014-06-28_20-24-58_260595134347_rgbf000067-resize_4-target.png,125,4.363,6.0,4966,139,feet,jsons/VE125_randls_39_rotated.json,942533,1103580,43,Man
116,731328,DepthScenes,duration_manipulation_targetAtFixation,jsons/VE125_randls_39_rotated.json,http://54.235.29.9/FacialAge/BNav_EC2/DepthDuration/v2_depth_duration_MTurk/v2_DepthDuration_HTML.html#466,466,1364,768,1364,768,9-3-2022,12-36-48,117,depth_duration_stimuli/000773_2014-06-08_22-24-54_260595134347_rgbf000093-resize_1/000773_2014-06-08_22-24-54_260595134347_rgbf000093-resize_1-target.png,125,4.973,5.0,3523,126,feet,jsons/VE125_randls_39_rotated.json,942533,1103580,43,Man
117,731328,DepthScenes,duration_manipulation_targetAtFixation,jsons/VE125_randls_39_rotated.json,http://54.235.29.9/FacialAge/BNav_EC2/DepthDuration/v2_depth_duration_MTurk/v2_DepthDuration_HTML.html#466,466,1364,768,1364,768,9-3-2022,12-36-48,118,depth_duration_stimuli/000191_2014-05-12_17-07-38_260595134347_rgbf000199-resize_0/000191_2014-05-12_17-07-38_260595134347_rgbf000199-resize_0-target.png,125,3.7995,6.0,4371,124,feet,jsons/VE125_randls_39_rotated.json,942533,1103580,43,Man
118,731328,DepthScenes,duration_manipulation_targetAtFixation,jsons/VE125_randls_39_rotated.json,http://54.235.29.9/FacialAge/BNav_EC2/DepthDuration/v2_depth_duration_MTurk/v2_DepthDuration_HTML.html#466,466,1364,768,1364,768,9-3-2022,12-36-48,119,depth_duration_stimuli/000493_2014-06-09_21-01-18_260595134347_rgbf000196-resize_3/000493_2014-06-09_21-01-18_260595134347_rgbf000196-resize_3-target.png,125,3.44,3.0,5575,124,feet,jsons/VE125_randls_39_rotated.json,942533,1103580,43,Man
119,731328,DepthScenes,duration_manipulation_targetAtFixation,jsons/VE125_randls_39_rotated.json,http://54.235.29.9/FacialAge/BNav_EC2/DepthDuration/v2_depth_duration_MTurk/v2_DepthDuration_HTML.html#466,466,1364,768,1364,768,9-3-2022,12-36-48,120,depth_duration_stimuli/000787_2014-06-08_22-33-53_260595134347_rgbf000175-resize_1/000787_2014-06-08_22-33-53_260595134347_rgbf000175-resize-original.jpg,125,4.784,0.0,4224,111,feet,jsons/VE125_randls_39_rotated.json,942533,1103580,43,Man
120,731328,DepthScenes,duration_manipulation_targetAtFixation,jsons/VE125_randls_39_rotated.json,http://54.235.29.9/FacialAge/BNav_EC2/DepthDuration/v2_depth_duration_MTurk/v2_DepthDuration_HTML.html#466,466,1364,768,1364,768,9-3-2022,12-36-48,121,depth_duration_stimuli/000927_2014-06-09_16-32-30_260595134347_rgbf000123-resize_3/000927_2014-06-09_16-32-30_260595134347_rgbf000123-resize_3-target.png,125,2.6785,3.5,5559,140,feet,jsons/VE125_randls_39_rotated.json,942533,1103580,43,Man
121,731328,DepthScenes,duration_manipulation_targetAtFixation,jsons/VE125_randls_39_rotated.json,http://54.235.29.9/FacialAge/BNav_EC2/DepthDuration/v2_depth_duration_MTurk/v2_DepthDuration_HTML.html#466,466,1364,768,1364,768,9-3-2022,12-36-48,122,depth_duration_stimuli/001110_2014-06-15_17-25-28_260595134347_rgbf000150-resize_1/001110_2014-06-15_17-25-28_260595134347_rgbf000150-resize_1-target.png,125,1.7115,4.0,3498,125,feet,jsons/VE125_randls_39_rotated.json,942533,1103580,43,Man
122,731328,DepthScenes,duration_manipulation_targetAtFixation,jsons/VE125_randls_39_rotated.json,http://54.235.29.9/FacialAge/BNav_EC2/DepthDuration/v2_depth_duration_MTurk/v2_DepthDuration_HTML.html#466,466,1364,768,1364,768,9-3-2022,12-36-48,123,depth_duration_stimuli/000103_2014-05-14_22-01-17_260595134347_rgbf000152-resize_5/000103_2014-05-14_22-01-17_260595134347_rgbf000152-resize_5-target.png,125,1.993,4.0,4612,135,feet,jsons/VE125_randls_39_rotated.json,942533,1103580,43,Man
123,731328,DepthScenes,duration_manipulation_targetAtFixation,jsons/VE125_randls_39_rotated.json,http://54.235.29.9/FacialAge/BNav_EC2/DepthDuration/v2_depth_duration_MTurk/v2_DepthDuration_HTML.html#466,466,1364,768,1364,768,9-3-2022,12-36-48,124,depth_duration_stimuli/001555_2014-06-20_17-12-10_260595134347_rgbf000065-resize_4/001555_2014-06-20_17-12-10_260595134347_rgbf000065-resize_4-target.png,125,1.633,3.5,4133,98,feet,jsons/VE125_randls_39_rotated.json,942533,1103580,43,Man
124,731328,DepthScenes,duration_manipulation_targetAtFixation,jsons/VE125_randls_39_rotated.json,http://54.235.29.9/FacialAge/BNav_EC2/DepthDuration/v2_depth_duration_MTurk/v2_DepthDuration_HTML.html#466,466,1364,768,1364,768,9-3-2022,12-36-48,125,depth_duration_stimuli/001100_2014-06-15_17-46-26_260595134347_rgbf000225-resize_2/001100_2014-06-15_17-46-26_260595134347_rgbf000225-resize_2-target.png,125,2.24,2.5,4572,117,feet,jsons/VE125_randls_39_rotated.json,942533,1103580,43,Man
125,731328,DepthScenes,duration_manipulation_targetAtFixation,jsons/VE125_randls_39_rotated.json,http://54.235.29.9/FacialAge/BNav_EC2/DepthDuration/v2_depth_duration_MTurk/v2_DepthDuration_HTML.html#466,466,1364,768,1364,768,9-3-2022,12-36-48,126,depth_duration_stimuli/002784_2014-06-22_19-26-30_094959634447_rgbf000083-resize_3/002784_2014-06-22_19-26-30_094959634447_rgbf000083-resize_3-target.png,125,1.8046666666667,4.5,4292,156,feet,jsons/VE125_randls_39_rotated.json,942533,1103580,43,Man
126,731328,DepthScenes,duration_manipulation_targetAtFixation,jsons/VE125_randls_39_rotated.json,http://54.235.29.9/FacialAge/BNav_EC2/DepthDuration/v2_depth_duration_MTurk/v2_DepthDuration_HTML.html#466,466,1364,768,1364,768,9-3-2022,12-36-48,127,depth_duration_stimuli/003129_2014-05-12_10-48-10_094959634447_rgbf000100-resize_0/003129_2014-05-12_10-48-10_094959634447_rgbf000100-resize_0-target.png,125,4.9305,6.0,4316,114,feet,jsons/VE125_randls_39_rotated.json,942533,1103580,43,Man
127,731328,DepthScenes,duration_manipulation_targetAtFixation,jsons/VE125_randls_39_rotated.json,http://54.235.29.9/FacialAge/BNav_EC2/DepthDuration/v2_depth_duration_MTurk/v2_DepthDuration_HTML.html#466,466,1364,768,1364,768,9-3-2022,12-36-48,128,depth_duration_stimuli/000414_2014-06-04_19-49-13_260595134347_rgbf000044-resize_0/000414_2014-06-04_19-49-13_260595134347_rgbf000044-resize_0-target.png,125,4.329,5.0,3345,126,feet,jsons/VE125_randls_39_rotated.json,942533,1103580,43,Man
128,731328,DepthScenes,duration_manipulation_targetAtFixation,jsons/VE125_randls_39_rotated.json,http://54.235.29.9/FacialAge/BNav_EC2/DepthDuration/v2_depth_duration_MTurk/v2_DepthDuration_HTML.html#466,466,1364,768,1364,768,9-3-2022,12-36-48,129,depth_duration_stimuli/000549_2014-06-08_22-10-24_260595134347_rgbf000247-resize_3/000549_2014-06-08_22-10-24_260595134347_rgbf000247-resize_3-target.png,125,1.841,0.0,3605,119,feet,jsons/VE125_randls_39_rotated.json,942533,1103580,43,Man
129,731328,DepthScenes,duration_manipulation_targetAtFixation,jsons/VE125_randls_39_rotated.json,http://54.235.29.9/FacialAge/BNav_EC2/DepthDuration/v2_depth_duration_MTurk/v2_DepthDuration_HTML.html#466,466,1364,768,1364,768,9-3-2022,12-36-48,130,depth_duration_stimuli/001055_2014-06-08_18-45-35_260595134347_rgbf000111-resize_4/001055_2014-06-08_18-45-35_260595134347_rgbf000111-resize_4-target.png,125,2.4290000000000003,4.0,3874,81,feet,jsons/VE125_randls_39_rotated.json,942533,1103580,43,Man
130,731328,DepthScenes,duration_manipulation_targetAtFixation,jsons/VE125_randls_39_rotated.json,http://54.235.29.9/FacialAge/BNav_EC2/DepthDuration/v2_depth_duration_MTurk/v2_DepthDuration_HTML.html#466,466,1364,768,1364,768,9-3-2022,12-36-48,131,depth_duration_stimuli/001392_2014-06-19_16-07-59_260595134347_rgbf000046-resize_1/001392_2014-06-19_16-07-59_260595134347_rgbf000046-resize_1-target.png,125,4.135,5.0,5039,172,feet,jsons/VE125_randls_39_rotated.json,942533,1103580,43,Man
131,731328,DepthScenes,duration_manipulation_targetAtFixation,jsons/VE125_randls_39_rotated.json,http://54.235.29.9/FacialAge/BNav_EC2/DepthDuration/v2_depth_duration_MTurk/v2_DepthDuration_HTML.html#466,466,1364,768,1364,768,9-3-2022,12-36-48,132,depth_duration_stimuli/001570_2014-06-20_17-21-09_260595134347_rgbf000135-resize_4/001570_2014-06-20_17-21-09_260595134347_rgbf000135-resize_4-target.png,125,4.467,6.0,3759,125,feet,jsons/VE125_randls_39_rotated.json,942533,1103580,43,Man
132,731328,DepthScenes,duration_manipulation_targetAtFixation,jsons/VE125_randls_39_rotated.json,http://54.235.29.9/FacialAge/BNav_EC2/DepthDuration/v2_depth_duration_MTurk/v2_DepthDuration_HTML.html#466,466,1364,768,1364,768,9-3-2022,12-36-48,133,depth_duration_stimuli/002678_2014-06-13_16-15-32_094959634447_rgbf000151-resize_6/002678_2014-06-13_16-15-32_094959634447_rgbf000151-resize_6-target.png,125,2.1830000000000003,4.0,6018,123,feet,jsons/VE125_randls_39_rotated.json,942533,1103580,43,Man
133,731328,DepthScenes,duration_manipulation_targetAtFixation,jsons/VE125_randls_39_rotated.json,http://54.235.29.9/FacialAge/BNav_EC2/DepthDuration/v2_depth_duration_MTurk/v2_DepthDuration_HTML.html#466,466,1364,768,1364,768,9-3-2022,12-36-48,134,depth_duration_stimuli/000368_2014-06-09_15-53-01_260595134347_rgbf000155-resize_2/000368_2014-06-09_15-53-01_260595134347_rgbf000155-resize_2-target.png,125,2.4859999999999998,4.0,3773,125,feet,jsons/VE125_randls_39_rotated.json,942533,1103580,43,Man
134,731328,DepthScenes,duration_manipulation_targetAtFixation,jsons/VE125_randls_39_rotated.json,http://54.235.29.9/FacialAge/BNav_EC2/DepthDuration/v2_depth_duration_MTurk/v2_DepthDuration_HTML.html#466,466,1364,768,1364,768,9-3-2022,12-36-48,135,depth_duration_stimuli/000375_2014-06-08_11-17-29_260595134347_rgbf000133-resize_2/000375_2014-06-08_11-17-29_260595134347_rgbf000133-resize-original.jpg,125,4.718,0.0,3613,145,feet,jsons/VE125_randls_39_rotated.json,942533,1103580,43,Man
135,731328,DepthScenes,duration_manipulation_targetAtFixation,jsons/VE125_randls_39_rotated.json,http://54.235.29.9/FacialAge/BNav_EC2/DepthDuration/v2_depth_duration_MTurk/v2_DepthDuration_HTML.html#466,466,1364,768,1364,768,9-3-2022,12-36-48,136,depth_duration_stimuli/002323_2014-06-28_20-01-54_260595134347_rgbf000051-resize_4/002323_2014-06-28_20-01-54_260595134347_rgbf000051-resize_4-target.png,125,3.7310000000000003,5.5,5866,134,feet,jsons/VE125_randls_39_rotated.json,942533,1103580,43,Man
136,731328,DepthScenes,duration_manipulation_targetAtFixation,jsons/VE125_randls_39_rotated.json,http://54.235.29.9/FacialAge/BNav_EC2/DepthDuration/v2_depth_duration_MTurk/v2_DepthDuration_HTML.html#466,466,1364,768,1364,768,9-3-2022,12-36-48,137,depth_duration_stimuli/000917_2014-06-09_22-45-29_260595134347_rgbf000149-resize_3/000917_2014-06-09_22-45-29_260595134347_rgbf000149-resize_3-target.png,125,4.1865,5.0,3526,137,feet,jsons/VE125_randls_39_rotated.json,942533,1103580,43,Man
137,731328,DepthScenes,duration_manipulation_targetAtFixation,jsons/VE125_randls_39_rotated.json,http://54.235.29.9/FacialAge/BNav_EC2/DepthDuration/v2_depth_duration_MTurk/v2_DepthDuration_HTML.html#466,466,1364,768,1364,768,9-3-2022,12-36-48,138,depth_duration_stimuli/001214_2014-06-17_16-13-55_260595134347_rgbf000111-resize_0/001214_2014-06-17_16-13-55_260595134347_rgbf000111-resize_0-target.png,125,2.6505,4.0,4604,133,feet,jsons/VE125_randls_39_rotated.json,942533,1103580,43,Man
138,731328,DepthScenes,duration_manipulation_targetAtFixation,jsons/VE125_randls_39_rotated.json,http://54.235.29.9/FacialAge/BNav_EC2/DepthDuration/v2_depth_duration_MTurk/v2_DepthDuration_HTML.html#466,466,1364,768,1364,768,9-3-2022,12-36-48,139,depth_duration_stimuli/000810_2014-06-08_17-20-01_260595134347_rgbf000105-resize_0/000810_2014-06-08_17-20-01_260595134347_rgbf000105-resize_0-target.png,125,1.4865,3.5,7319,140,feet,jsons/VE125_randls_39_rotated.json,942533,1103580,43,Man
139,731328,DepthScenes,duration_manipulation_targetAtFixation,jsons/VE125_randls_39_rotated.json,http://54.235.29.9/FacialAge/BNav_EC2/DepthDuration/v2_depth_duration_MTurk/v2_DepthDuration_HTML.html#466,466,1364,768,1364,768,9-3-2022,12-36-48,140,depth_duration_stimuli/002545_2014-06-24_13-38-53_094959634447_rgbf000080-resize_4/002545_2014-06-24_13-38-53_094959634447_rgbf000080-resize_4-target.png,125,1.9205,4.0,4893,112,feet,jsons/VE125_randls_39_rotated.json,942533,1103580,43,Man
140,731328,DepthScenes,duration_manipulation_targetAtFixation,jsons/VE125_randls_39_rotated.json,http://54.235.29.9/FacialAge/BNav_EC2/DepthDuration/v2_depth_duration_MTurk/v2_DepthDuration_HTML.html#466,466,1364,768,1364,768,9-3-2022,12-36-48,141,depth_duration_stimuli/001092_2014-06-15_17-34-58_260595134347_rgbf000171-resize_3/001092_2014-06-15_17-34-58_260595134347_rgbf000171-resize_3-target.png,125,2.6935,3.5,7328,192,feet,jsons/VE125_randls_39_rotated.json,942533,1103580,43,Man
141,731328,DepthScenes,duration_manipulation_targetAtFixation,jsons/VE125_randls_39_rotated.json,http://54.235.29.9/FacialAge/BNav_EC2/DepthDuration/v2_depth_duration_MTurk/v2_DepthDuration_HTML.html#466,466,1364,768,1364,768,9-3-2022,12-36-48,142,depth_duration_stimuli/001828_2014-06-26_21-40-03_260595134347_rgbf000024-resize_0/001828_2014-06-26_21-40-03_260595134347_rgbf000024-resize_0-target.png,125,4.8260000000000005,5.0,7992,124,feet,jsons/VE125_randls_39_rotated.json,942533,1103580,43,Man
142,731328,DepthScenes,duration_manipulation_targetAtFixation,jsons/VE125_randls_39_rotated.json,http://54.235.29.9/FacialAge/BNav_EC2/DepthDuration/v2_depth_duration_MTurk/v2_DepthDuration_HTML.html#466,466,1364,768,1364,768,9-3-2022,12-36-48,143,depth_duration_stimuli/000009_2014-05-26_14-32-05_260595134347_rgbf000034-resize_3/000009_2014-05-26_14-32-05_260595134347_rgbf000034-resize_3-target.png,125,3.8715,5.5,4009,126,feet,jsons/VE125_randls_39_rotated.json,942533,1103580,43,Man
143,731328,DepthScenes,duration_manipulation_targetAtFixation,jsons/VE125_randls_39_rotated.json,http://54.235.29.9/FacialAge/BNav_EC2/DepthDuration/v2_depth_duration_MTurk/v2_DepthDuration_HTML.html#466,466,1364,768,1364,768,9-3-2022,12-36-48,144,depth_duration_stimuli/002875_2014-06-01_15-19-00_094959634447_rgbf000151-resize_1/002875_2014-06-01_15-19-00_094959634447_rgbf000151-resize_1-target.png,125,1.9675,3.5,8392,205,feet,jsons/VE125_randls_39_rotated.json,942533,1103580,43,Man
144,731328,DepthScenes,duration_manipulation_targetAtFixation,jsons/VE125_randls_39_rotated.json,http://54.235.29.9/FacialAge/BNav_EC2/DepthDuration/v2_depth_duration_MTurk/v2_DepthDuration_HTML.html#466,466,1364,768,1364,768,9-3-2022,12-36-48,145,depth_duration_stimuli/001011_2014-06-08_23-18-54_260595134347_rgbf000044-resize_4/001011_2014-06-08_23-18-54_260595134347_rgbf000044-resize_4-target.png,125,2.4730000000000003,5.0,3518,124,feet,jsons/VE125_randls_39_rotated.json,942533,1103580,43,Man
145,731328,DepthScenes,duration_manipulation_targetAtFixation,jsons/VE125_randls_39_rotated.json,http://54.235.29.9/FacialAge/BNav_EC2/DepthDuration/v2_depth_duration_MTurk/v2_DepthDuration_HTML.html#466,466,1364,768,1364,768,9-3-2022,12-36-48,146,depth_duration_stimuli/001447_2014-06-19_17-00-32_260595134347_rgbf000082-resize_5/001447_2014-06-19_17-00-32_260595134347_rgbf000082-resize_5-target.png,125,4.13775,3.5,6040,133,feet,jsons/VE125_randls_39_rotated.json,942533,1103580,43,Man
146,731328,DepthScenes,duration_manipulation_targetAtFixation,jsons/VE125_randls_39_rotated.json,http://54.235.29.9/FacialAge/BNav_EC2/DepthDuration/v2_depth_duration_MTurk/v2_DepthDuration_HTML.html#466,466,1364,768,1364,768,9-3-2022,12-36-48,147,depth_duration_stimuli/000447_2014-06-08_16-15-46_260595134347_rgbf000130-resize_1/000447_2014-06-08_16-15-46_260595134347_rgbf000130-resize_1-target.png,125,4.479,4.0,3562,123,feet,jsons/VE125_randls_39_rotated.json,942533,1103580,43,Man
147,731328,DepthScenes,duration_manipulation_targetAtFixation,jsons/VE125_randls_39_rotated.json,http://54.235.29.9/FacialAge/BNav_EC2/DepthDuration/v2_depth_duration_MTurk/v2_DepthDuration_HTML.html#466,466,1364,768,1364,768,9-3-2022,12-36-48,148,depth_duration_stimuli/003490_2014-05-21_15-50-11_094959634447_rgbf000101-resize_3/003490_2014-05-21_15-50-11_094959634447_rgbf000101-resize_3-target.png,125,3.6445,4.5,4751,145,feet,jsons/VE125_randls_39_rotated.json,942533,1103580,43,Man
148,731328,DepthScenes,duration_manipulation_targetAtFixation,jsons/VE125_randls_39_rotated.json,http://54.235.29.9/FacialAge/BNav_EC2/DepthDuration/v2_depth_duration_MTurk/v2_DepthDuration_HTML.html#466,466,1364,768,1364,768,9-3-2022,12-36-48,149,depth_duration_stimuli/001175_2014-06-17_15-45-55_260595134347_rgbf000129-resize_4/001175_2014-06-17_15-45-55_260595134347_rgbf000129-resize_4-target.png,125,4.255,6.0,3524,124,feet,jsons/VE125_randls_39_rotated.json,942533,1103580,43,Man
149,731328,DepthScenes,duration_manipulation_targetAtFixation,jsons/VE125_randls_39_rotated.json,http://54.235.29.9/FacialAge/BNav_EC2/DepthDuration/v2_depth_duration_MTurk/v2_DepthDuration_HTML.html#466,466,1364,768,1364,768,9-3-2022,12-36-48,150,depth_duration_stimuli/000943_2014-06-09_19-31-07_260595134347_rgbf000128-resize_1/000943_2014-06-09_19-31-07_260595134347_rgbf000128-resize_1-target.png,125,1.9765,3.0,4711,127,feet,jsons/VE125_randls_39_rotated.json,942533,1103580,43,Man
150,731328,DepthScenes,duration_manipulation_targetAtFixation,jsons/VE125_randls_39_rotated.json,http://54.235.29.9/FacialAge/BNav_EC2/DepthDuration/v2_depth_duration_MTurk/v2_DepthDuration_HTML.html#466,466,1364,768,1364,768,9-3-2022,12-36-48,151,depth_duration_stimuli/003070_2014-06-15_14-58-27_094959634447_rgbf000150-resize_3/003070_2014-06-15_14-58-27_094959634447_rgbf000150-resize_3-target.png,125,2.9415,4.0,56268,119,feet,jsons/VE125_randls_39_rotated.json,942533,1103580,43,Man
151,731328,DepthScenes,duration_manipulation_targetAtFixation,jsons/VE125_randls_39_rotated.json,http://54.235.29.9/FacialAge/BNav_EC2/DepthDuration/v2_depth_duration_MTurk/v2_DepthDuration_HTML.html#466,466,1364,768,1364,768,9-3-2022,12-36-48,152,depth_duration_stimuli/000569_2014-06-09_22-51-47_260595134347_rgbf000141-resize_3/000569_2014-06-09_22-51-47_260595134347_rgbf000141-resize-original.jpg,125,4.512,0.0,5396,125,feet,jsons/VE125_randls_39_rotated.json,942533,1103580,43,Man
152,731328,DepthScenes,duration_manipulation_targetAtFixation,jsons/VE125_randls_39_rotated.json,http://54.235.29.9/FacialAge/BNav_EC2/DepthDuration/v2_depth_duration_MTurk/v2_DepthDuration_HTML.html#466,466,1364,768,1364,768,9-3-2022,12-36-48,153,depth_duration_stimuli/001032_2014-06-08_13-23-17_260595134347_rgbf000021-resize_3/001032_2014-06-08_13-23-17_260595134347_rgbf000021-resize_3-target.png,125,3.2725,3.5,5337,152,feet,jsons/VE125_randls_39_rotated.json,942533,1103580,43,Man
153,731328,DepthScenes,duration_manipulation_targetAtFixation,jsons/VE125_randls_39_rotated.json,http://54.235.29.9/FacialAge/BNav_EC2/DepthDuration/v2_depth_duration_MTurk/v2_DepthDuration_HTML.html#466,466,1364,768,1364,768,9-3-2022,12-36-48,154,depth_duration_stimuli/001059_2014-06-08_21-53-27_260595134347_rgbf000061-resize_4/001059_2014-06-08_21-53-27_260595134347_rgbf000061-resize_4-target.png,125,2.4185,0.0,14583,155,feet,jsons/VE125_randls_39_rotated.json,942533,1103580,43,Man
154,731328,DepthScenes,duration_manipulation_targetAtFixation,jsons/VE125_randls_39_rotated.json,http://54.235.29.9/FacialAge/BNav_EC2/DepthDuration/v2_depth_duration_MTurk/v2_DepthDuration_HTML.html#466,466,1364,768,1364,768,9-3-2022,12-36-48,155,depth_duration_stimuli/002444_2014-06-28_20-32-08_260595134347_rgbf000027-resize_0/002444_2014-06-28_20-32-08_260595134347_rgbf000027-resize_0-target.png,125,4.388999999999999,4.5,5145,128,feet,jsons/VE125_randls_39_rotated.json,942533,1103580,43,Man
155,731328,DepthScenes,duration_manipulation_targetAtFixation,jsons/VE125_randls_39_rotated.json,http://54.235.29.9/FacialAge/BNav_EC2/DepthDuration/v2_depth_duration_MTurk/v2_DepthDuration_HTML.html#466,466,1364,768,1364,768,9-3-2022,12-36-48,156,depth_duration_stimuli/000436_2014-06-09_22-25-11_260595134347_rgbf000137-resize_1/000436_2014-06-09_22-25-11_260595134347_rgbf000137-resize_1-target.png,125,4.0705,0.0,3933,122,feet,jsons/VE125_randls_39_rotated.json,942533,1103580,43,Man
156,731328,DepthScenes,duration_manipulation_targetAtFixation,jsons/VE125_randls_39_rotated.json,http://54.235.29.9/FacialAge/BNav_EC2/DepthDuration/v2_depth_duration_MTurk/v2_DepthDuration_HTML.html#466,466,1364,768,1364,768,9-3-2022,12-36-48,157,depth_duration_stimuli/002344_2014-06-28_20-06-29_260595134347_rgbf000030-resize_1/002344_2014-06-28_20-06-29_260595134347_rgbf000030-resize_1-target.png,125,1.5795,1.5,5049,157,feet,jsons/VE125_randls_39_rotated.json,942533,1103580,43,Man
157,731328,DepthScenes,duration_manipulation_targetAtFixation,jsons/VE125_randls_39_rotated.json,http://54.235.29.9/FacialAge/BNav_EC2/DepthDuration/v2_depth_duration_MTurk/v2_DepthDuration_HTML.html#466,466,1364,768,1364,768,9-3-2022,12-36-48,158,depth_duration_stimuli/002725_2014-06-22_11-47-51_094959634447_rgbf000070-resize_1/002725_2014-06-22_11-47-51_094959634447_rgbf000070-resize_1-target.png,125,2.195,0.0,2960,109,feet,jsons/VE125_randls_39_rotated.json,942533,1103580,43,Man
158,731328,DepthScenes,duration_manipulation_targetAtFixation,jsons/VE125_randls_39_rotated.json,http://54.235.29.9/FacialAge/BNav_EC2/DepthDuration/v2_depth_duration_MTurk/v2_DepthDuration_HTML.html#466,466,1364,768,1364,768,9-3-2022,12-36-48,159,depth_duration_stimuli/000556_2014-06-09_22-42-56_260595134347_rgbf000214-resize_1/000556_2014-06-09_22-42-56_260595134347_rgbf000214-resize_1-target.png,125,4.8415,5.5,5508,129,feet,jsons/VE125_randls_39_rotated.json,942533,1103580,43,Man
159,731328,DepthScenes,duration_manipulation_targetAtFixation,jsons/VE125_randls_39_rotated.json,http://54.235.29.9/FacialAge/BNav_EC2/DepthDuration/v2_depth_duration_MTurk/v2_DepthDuration_HTML.html#466,466,1364,768,1364,768,9-3-2022,12-36-48,160,depth_duration_stimuli/001158_2014-06-17_15-32-16_260595134347_rgbf000138-resize_2/001158_2014-06-17_15-32-16_260595134347_rgbf000138-resize_2-target.png,125,4.5315,2.0,3343,124,feet,jsons/VE125_randls_39_rotated.json,942533,1103580,43,Man
160,731328,DepthScenes,duration_manipulation_targetAtFixation,jsons/VE125_randls_39_rotated.json,http://54.235.29.9/FacialAge/BNav_EC2/DepthDuration/v2_depth_duration_MTurk/v2_DepthDuration_HTML.html#466,466,1364,768,1364,768,9-3-2022,12-36-48,161,depth_duration_stimuli/001617_2014-06-20_11-35-32_260595134347_rgbf000066-resize_1/001617_2014-06-20_11-35-32_260595134347_rgbf000066-resize_1-target.png,125,3.7910000000000004,5.0,4901,115,feet,jsons/VE125_randls_39_rotated.json,942533,1103580,43,Man
161,731328,DepthScenes,duration_manipulation_targetAtFixation,jsons/VE125_randls_39_rotated.json,http://54.235.29.9/FacialAge/BNav_EC2/DepthDuration/v2_depth_duration_MTurk/v2_DepthDuration_HTML.html#466,466,1364,768,1364,768,9-3-2022,12-36-48,162,depth_duration_stimuli/001806_2014-06-26_20-50-20_260595134347_rgbf000091-resize_1/001806_2014-06-26_20-50-20_260595134347_rgbf000091-resize_1-target.png,125,2.7305,0.0,2800,130,feet,jsons/VE125_randls_39_rotated.json,942533,1103580,43,Man
162,731328,DepthScenes,duration_manipulation_targetAtFixation,jsons/VE125_randls_39_rotated.json,http://54.235.29.9/FacialAge/BNav_EC2/DepthDuration/v2_depth_duration_MTurk/v2_DepthDuration_HTML.html#466,466,1364,768,1364,768,9-3-2022,12-36-48,163,depth_duration_stimuli/002209_2014-06-28_18-36-10_260595134347_rgbf000051-resize_1/002209_2014-06-28_18-36-10_260595134347_rgbf000051-resize_1-target.png,125,2.057,3.5,8028,124,feet,jsons/VE125_randls_39_rotated.json,942533,1103580,43,Man
163,731328,DepthScenes,duration_manipulation_targetAtFixation,jsons/VE125_randls_39_rotated.json,http://54.235.29.9/FacialAge/BNav_EC2/DepthDuration/v2_depth_duration_MTurk/v2_DepthDuration_HTML.html#466,466,1364,768,1364,768,9-3-2022,12-36-48,164,depth_duration_stimuli/002763_2014-06-22_19-13-10_094959634447_rgbf000075-resize_4/002763_2014-06-22_19-13-10_094959634447_rgbf000075-resize_4-target.png,125,1.68375,0.0,3074,127,feet,jsons/VE125_randls_39_rotated.json,942533,1103580,43,Man
