,subjID,experimentName,versionName,sequenceName,url,selected_row,windowWidth,windowHeight,screenWidth,screenHeight,startDate,startTime,trial,stimulus,duration,actual_depth,depth_estimate,trial_RT,log_sceneDuration,unitSelection,seq_filepath,experimentTime,totalTime,age,gender
0,731323,DepthScenes,duration_manipulation_targetAtFixation,jsons/VE125_randls_16_rotated.json,http://54.235.29.9/FacialAge/BNav_EC2/DepthDuration/v2_depth_duration_MTurk/v2_DepthDuration_HTML.html#366,366,1366,625,1366,768,8-29-2022,6-54-5,1,depth_duration_stimuli/002344_2014-06-28_20-06-29_260595134347_rgbf000030-resize_1/002344_2014-06-28_20-06-29_260595134347_rgbf000030-resize_1-target.png,125,1.5795,4,4083,122,feet,jsons/VE125_randls_16_rotated.json,659263,865057,35,Woman
1,731323,DepthScenes,duration_manipulation_targetAtFixation,jsons/VE125_randls_16_rotated.json,http://54.235.29.9/FacialAge/BNav_EC2/DepthDuration/v2_depth_duration_MTurk/v2_DepthDuration_HTML.html#366,366,1366,625,1366,768,8-29-2022,6-54-5,2,depth_duration_stimuli/002725_2014-06-22_11-47-51_094959634447_rgbf000070-resize_1/002725_2014-06-22_11-47-51_094959634447_rgbf000070-resize_1-target.png,125,2.195,2,3081,92,feet,jsons/VE125_randls_16_rotated.json,659263,865057,35,Woman
2,731323,DepthScenes,duration_manipulation_targetAtFixation,jsons/VE125_randls_16_rotated.json,http://54.235.29.9/FacialAge/BNav_EC2/DepthDuration/v2_depth_duration_MTurk/v2_DepthDuration_HTML.html#366,366,1366,625,1366,768,8-29-2022,6-54-5,3,depth_duration_stimuli/001584_2014-06-20_11-07-43_260595134347_rgbf000002-resize_1/001584_2014-06-20_11-07-43_260595134347_rgbf000002-resize_1-target.png,125,3.53,5,3375,118,feet,jsons/VE125_randls_16_rotated.json,659263,865057,35,Woman
3,731323,DepthScenes,duration_manipulation_targetAtFixation,jsons/VE125_randls_16_rotated.json,http://54.235.29.9/FacialAge/BNav_EC2/DepthDuration/v2_depth_duration_MTurk/v2_DepthDuration_HTML.html#366,366,1366,625,1366,768,8-29-2022,6-54-5,4,depth_duration_stimuli/003621_2014-05-23_18-06-08_094959634447_rgbf000101-resize_1/003621_2014-05-23_18-06-08_094959634447_rgbf000101-resize_1-target.png,125,3.9835,3,14580,119,feet,jsons/VE125_randls_16_rotated.json,659263,865057,35,Woman
4,731323,DepthScenes,duration_manipulation_targetAtFixation,jsons/VE125_randls_16_rotated.json,http://54.235.29.9/FacialAge/BNav_EC2/DepthDuration/v2_depth_duration_MTurk/v2_DepthDuration_HTML.html#366,366,1366,625,1366,768,8-29-2022,6-54-5,5,depth_duration_stimuli/002750_2014-06-22_19-08-03_094959634447_rgbf000094-resize_4/002750_2014-06-22_19-08-03_094959634447_rgbf000094-resize_4-target.png,125,2.354,3,7971,125,feet,jsons/VE125_randls_16_rotated.json,659263,865057,35,Woman
5,731323,DepthScenes,duration_manipulation_targetAtFixation,jsons/VE125_randls_16_rotated.json,http://54.235.29.9/FacialAge/BNav_EC2/DepthDuration/v2_depth_duration_MTurk/v2_DepthDuration_HTML.html#366,366,1366,625,1366,768,8-29-2022,6-54-5,6,depth_duration_stimuli/002549_2014-06-24_13-41-39_094959634447_rgbf000022-resize_3/002549_2014-06-24_13-41-39_094959634447_rgbf000022-resize_3-target.png,125,1.476,2,9170,114,feet,jsons/VE125_randls_16_rotated.json,659263,865057,35,Woman
6,731323,DepthScenes,duration_manipulation_targetAtFixation,jsons/VE125_randls_16_rotated.json,http://54.235.29.9/FacialAge/BNav_EC2/DepthDuration/v2_depth_duration_MTurk/v2_DepthDuration_HTML.html#366,366,1366,625,1366,768,8-29-2022,6-54-5,7,depth_duration_stimuli/003083_2014-06-15_15-21-03_094959634447_rgbf000063-resize_1/003083_2014-06-15_15-21-03_094959634447_rgbf000063-resize_1-target.png,125,4.1405,3,9668,150,feet,jsons/VE125_randls_16_rotated.json,659263,865057,35,Woman
7,731323,DepthScenes,duration_manipulation_targetAtFixation,jsons/VE125_randls_16_rotated.json,http://54.235.29.9/FacialAge/BNav_EC2/DepthDuration/v2_depth_duration_MTurk/v2_DepthDuration_HTML.html#366,366,1366,625,1366,768,8-29-2022,6-54-5,8,depth_duration_stimuli/000486_2014-06-09_20-47-20_260595134347_rgbf000143-resize_2/000486_2014-06-09_20-47-20_260595134347_rgbf000143-resize_2-target.png,125,4.8325,3,5911,110,feet,jsons/VE125_randls_16_rotated.json,659263,865057,35,Woman
8,731323,DepthScenes,duration_manipulation_targetAtFixation,jsons/VE125_randls_16_rotated.json,http://54.235.29.9/FacialAge/BNav_EC2/DepthDuration/v2_depth_duration_MTurk/v2_DepthDuration_HTML.html#366,366,1366,625,1366,768,8-29-2022,6-54-5,9,depth_duration_stimuli/002414_2014-06-28_20-24-58_260595134347_rgbf000067-resize_4/002414_2014-06-28_20-24-58_260595134347_rgbf000067-resize_4-target.png,125,4.363,2,7991,124,feet,jsons/VE125_randls_16_rotated.json,659263,865057,35,Woman
9,731323,DepthScenes,duration_manipulation_targetAtFixation,jsons/VE125_randls_16_rotated.json,http://54.235.29.9/FacialAge/BNav_EC2/DepthDuration/v2_depth_duration_MTurk/v2_DepthDuration_HTML.html#366,366,1242,568,1366,768,8-29-2022,6-54-5,10,depth_duration_stimuli/000773_2014-06-08_22-24-54_260595134347_rgbf000093-resize_1/000773_2014-06-08_22-24-54_260595134347_rgbf000093-resize_1-target.png,125,4.973,2,10456,128,feet,jsons/VE125_randls_16_rotated.json,659263,865057,35,Woman
10,731323,DepthScenes,duration_manipulation_targetAtFixation,jsons/VE125_randls_16_rotated.json,http://54.235.29.9/FacialAge/BNav_EC2/DepthDuration/v2_depth_duration_MTurk/v2_DepthDuration_HTML.html#366,366,1242,568,1366,768,8-29-2022,6-54-5,11,depth_duration_stimuli/000780_2014-06-08_22-28-29_260595134347_rgbf000126-resize_1/000780_2014-06-08_22-28-29_260595134347_rgbf000126-resize_1-target.png,125,3.3825,3,10760,131,feet,jsons/VE125_randls_16_rotated.json,659263,865057,35,Woman
11,731323,DepthScenes,duration_manipulation_targetAtFixation,jsons/VE125_randls_16_rotated.json,http://54.235.29.9/FacialAge/BNav_EC2/DepthDuration/v2_depth_duration_MTurk/v2_DepthDuration_HTML.html#366,366,1242,568,1366,768,8-29-2022,6-54-5,12,depth_duration_stimuli/002445_2014-06-28_20-32-16_260595134347_rgbf000029-resize_4/002445_2014-06-28_20-32-16_260595134347_rgbf000029-resize_4-target.png,125,2.5315,2,9101,123,feet,jsons/VE125_randls_16_rotated.json,659263,865057,35,Woman
12,731323,DepthScenes,duration_manipulation_targetAtFixation,jsons/VE125_randls_16_rotated.json,http://54.235.29.9/FacialAge/BNav_EC2/DepthDuration/v2_depth_duration_MTurk/v2_DepthDuration_HTML.html#366,366,1242,568,1366,768,8-29-2022,6-54-5,13,depth_duration_stimuli/001094_2014-06-15_17-36-00_260595134347_rgbf000205-resize_0/001094_2014-06-15_17-36-00_260595134347_rgbf000205-resize_0-target.png,125,4.2175,4,2788,126,feet,jsons/VE125_randls_16_rotated.json,659263,865057,35,Woman
13,731323,DepthScenes,duration_manipulation_targetAtFixation,jsons/VE125_randls_16_rotated.json,http://54.235.29.9/FacialAge/BNav_EC2/DepthDuration/v2_depth_duration_MTurk/v2_DepthDuration_HTML.html#366,366,1242,568,1366,768,8-29-2022,6-54-5,14,depth_duration_stimuli/000692_2014-06-08_13-09-42_260595134347_rgbf000199-resize_2/000692_2014-06-08_13-09-42_260595134347_rgbf000199-resize_2-target.png,125,3.661,1,3162,136,feet,jsons/VE125_randls_16_rotated.json,659263,865057,35,Woman
14,731323,DepthScenes,duration_manipulation_targetAtFixation,jsons/VE125_randls_16_rotated.json,http://54.235.29.9/FacialAge/BNav_EC2/DepthDuration/v2_depth_duration_MTurk/v2_DepthDuration_HTML.html#366,366,1242,568,1366,768,8-29-2022,6-54-5,15,depth_duration_stimuli/003423_2014-05-21_10-23-26_094959634447_rgbf002665-resize_2/003423_2014-05-21_10-23-26_094959634447_rgbf002665-resize_2-target.png,125,3.2575,4,3441,124,feet,jsons/VE125_randls_16_rotated.json,659263,865057,35,Woman
15,731323,DepthScenes,duration_manipulation_targetAtFixation,jsons/VE125_randls_16_rotated.json,http://54.235.29.9/FacialAge/BNav_EC2/DepthDuration/v2_depth_duration_MTurk/v2_DepthDuration_HTML.html#366,366,1242,568,1366,768,8-29-2022,6-54-5,16,depth_duration_stimuli/002905_2014-06-03_18-04-43_094959634447_rgbf000151-resize_2/002905_2014-06-03_18-04-43_094959634447_rgbf000151-resize_2-target.png,125,2.0295,1,3666,137,feet,jsons/VE125_randls_16_rotated.json,659263,865057,35,Woman
16,731323,DepthScenes,duration_manipulation_targetAtFixation,jsons/VE125_randls_16_rotated.json,http://54.235.29.9/FacialAge/BNav_EC2/DepthDuration/v2_depth_duration_MTurk/v2_DepthDuration_HTML.html#366,366,1242,568,1366,768,8-29-2022,6-54-5,17,depth_duration_stimuli/003081_2014-06-15_15-19-16_094959634447_rgbf000150-resize_1/003081_2014-06-15_15-19-16_094959634447_rgbf000150-resize_1-target.png,125,3.9125,6,3097,135,feet,jsons/VE125_randls_16_rotated.json,659263,865057,35,Woman
17,731323,DepthScenes,duration_manipulation_targetAtFixation,jsons/VE125_randls_16_rotated.json,http://54.235.29.9/FacialAge/BNav_EC2/DepthDuration/v2_depth_duration_MTurk/v2_DepthDuration_HTML.html#366,366,1242,568,1366,768,8-29-2022,6-54-5,18,depth_duration_stimuli/001417_2014-06-19_16-25-36_260595134347_rgbf000115-resize_5/001417_2014-06-19_16-25-36_260595134347_rgbf000115-resize_5-target.png,125,4.6255,2,2961,125,feet,jsons/VE125_randls_16_rotated.json,659263,865057,35,Woman
18,731323,DepthScenes,duration_manipulation_targetAtFixation,jsons/VE125_randls_16_rotated.json,http://54.235.29.9/FacialAge/BNav_EC2/DepthDuration/v2_depth_duration_MTurk/v2_DepthDuration_HTML.html#366,366,1242,568,1366,768,8-29-2022,6-54-5,19,depth_duration_stimuli/001498_2014-06-19_17-45-14_260595134347_rgbf000129-resize_4/001498_2014-06-19_17-45-14_260595134347_rgbf000129-resize-original.jpg,125,1.4075,0,2785,131,feet,jsons/VE125_randls_16_rotated.json,659263,865057,35,Woman
19,731323,DepthScenes,duration_manipulation_targetAtFixation,jsons/VE125_randls_16_rotated.json,http://54.235.29.9/FacialAge/BNav_EC2/DepthDuration/v2_depth_duration_MTurk/v2_DepthDuration_HTML.html#366,366,1242,568,1366,768,8-29-2022,6-54-5,20,depth_duration_stimuli/001235_2014-06-17_16-37-36_260595134347_rgbf000084-resize_4/001235_2014-06-17_16-37-36_260595134347_rgbf000084-resize_4-target.png,125,3.6605,3,2365,126,feet,jsons/VE125_randls_16_rotated.json,659263,865057,35,Woman
20,731323,DepthScenes,duration_manipulation_targetAtFixation,jsons/VE125_randls_16_rotated.json,http://54.235.29.9/FacialAge/BNav_EC2/DepthDuration/v2_depth_duration_MTurk/v2_DepthDuration_HTML.html#366,366,1242,568,1366,768,8-29-2022,6-54-5,21,depth_duration_stimuli/000788_2014-06-08_22-34-36_260595134347_rgbf000131-resize_1/000788_2014-06-08_22-34-36_260595134347_rgbf000131-resize_1-target.png,125,3.359,2,3191,122,feet,jsons/VE125_randls_16_rotated.json,659263,865057,35,Woman
21,731323,DepthScenes,duration_manipulation_targetAtFixation,jsons/VE125_randls_16_rotated.json,http://54.235.29.9/FacialAge/BNav_EC2/DepthDuration/v2_depth_duration_MTurk/v2_DepthDuration_HTML.html#366,366,1242,568,1366,768,8-29-2022,6-54-5,22,depth_duration_stimuli/003228_2014-05-14_13-42-35_094959634447_rgbf000101-resize_1/003228_2014-05-14_13-42-35_094959634447_rgbf000101-resize_1-target.png,125,1.9680000000000002,4,3806,104,feet,jsons/VE125_randls_16_rotated.json,659263,865057,35,Woman
22,731323,DepthScenes,duration_manipulation_targetAtFixation,jsons/VE125_randls_16_rotated.json,http://54.235.29.9/FacialAge/BNav_EC2/DepthDuration/v2_depth_duration_MTurk/v2_DepthDuration_HTML.html#366,366,1242,568,1366,768,8-29-2022,6-54-5,23,depth_duration_stimuli/002600_2014-06-24_14-27-04_094959634447_rgbf000074-resize_2/002600_2014-06-24_14-27-04_094959634447_rgbf000074-resize_2-target.png,125,2.7575,2,2281,119,feet,jsons/VE125_randls_16_rotated.json,659263,865057,35,Woman
23,731323,DepthScenes,duration_manipulation_targetAtFixation,jsons/VE125_randls_16_rotated.json,http://54.235.29.9/FacialAge/BNav_EC2/DepthDuration/v2_depth_duration_MTurk/v2_DepthDuration_HTML.html#366,366,1242,568,1366,768,8-29-2022,6-54-5,24,depth_duration_stimuli/001516_2014-06-20_16-25-09_260595134347_rgbf000076-resize_2/001516_2014-06-20_16-25-09_260595134347_rgbf000076-resize_2-target.png,125,1.7445,6,2944,127,feet,jsons/VE125_randls_16_rotated.json,659263,865057,35,Woman
24,731323,DepthScenes,duration_manipulation_targetAtFixation,jsons/VE125_randls_16_rotated.json,http://54.235.29.9/FacialAge/BNav_EC2/DepthDuration/v2_depth_duration_MTurk/v2_DepthDuration_HTML.html#366,366,1242,568,1366,768,8-29-2022,6-54-5,25,depth_duration_stimuli/002118_2014-06-25_20-32-08_260595134347_rgbf000078-resize_1/002118_2014-06-25_20-32-08_260595134347_rgbf000078-resize_1-target.png,125,2.6460000000000004,2,3616,140,feet,jsons/VE125_randls_16_rotated.json,659263,865057,35,Woman
25,731323,DepthScenes,duration_manipulation_targetAtFixation,jsons/VE125_randls_16_rotated.json,http://54.235.29.9/FacialAge/BNav_EC2/DepthDuration/v2_depth_duration_MTurk/v2_DepthDuration_HTML.html#366,366,1242,568,1366,768,8-29-2022,6-54-5,26,depth_duration_stimuli/002805_2014-06-22_19-54-03_094959634447_rgbf000079-resize_1/002805_2014-06-22_19-54-03_094959634447_rgbf000079-resize_1-target.png,125,3.1439999999999997,1,2549,117,feet,jsons/VE125_randls_16_rotated.json,659263,865057,35,Woman
26,731323,DepthScenes,duration_manipulation_targetAtFixation,jsons/VE125_randls_16_rotated.json,http://54.235.29.9/FacialAge/BNav_EC2/DepthDuration/v2_depth_duration_MTurk/v2_DepthDuration_HTML.html#366,366,1242,568,1366,768,8-29-2022,6-54-5,27,depth_duration_stimuli/000906_2014-06-08_13-35-43_260595134347_rgbf000155-resize_1/000906_2014-06-08_13-35-43_260595134347_rgbf000155-resize_1-target.png,125,2.8489999999999998,3,3560,125,feet,jsons/VE125_randls_16_rotated.json,659263,865057,35,Woman
27,731323,DepthScenes,duration_manipulation_targetAtFixation,jsons/VE125_randls_16_rotated.json,http://54.235.29.9/FacialAge/BNav_EC2/DepthDuration/v2_depth_duration_MTurk/v2_DepthDuration_HTML.html#366,366,1242,568,1366,768,8-29-2022,6-54-5,28,depth_duration_stimuli/002758_2014-06-22_19-11-20_094959634447_rgbf000128-resize_1/002758_2014-06-22_19-11-20_094959634447_rgbf000128-resize_1-target.png,125,2.555,2,2800,126,feet,jsons/VE125_randls_16_rotated.json,659263,865057,35,Woman
28,731323,DepthScenes,duration_manipulation_targetAtFixation,jsons/VE125_randls_16_rotated.json,http://54.235.29.9/FacialAge/BNav_EC2/DepthDuration/v2_depth_duration_MTurk/v2_DepthDuration_HTML.html#366,366,1242,568,1366,768,8-29-2022,6-54-5,29,depth_duration_stimuli/002630_2014-06-24_14-47-50_094959634447_rgbf000055-resize_1/002630_2014-06-24_14-47-50_094959634447_rgbf000055-resize_1-target.png,125,3.0095,1,2561,154,feet,jsons/VE125_randls_16_rotated.json,659263,865057,35,Woman
29,731323,DepthScenes,duration_manipulation_targetAtFixation,jsons/VE125_randls_16_rotated.json,http://54.235.29.9/FacialAge/BNav_EC2/DepthDuration/v2_depth_duration_MTurk/v2_DepthDuration_HTML.html#366,366,1242,568,1366,768,8-29-2022,6-54-5,30,depth_duration_stimuli/002072_2014-06-24_21-48-06_260595134347_rgbf000115-resize_0/002072_2014-06-24_21-48-06_260595134347_rgbf000115-resize-original.jpg,125,4.702,0,3876,125,feet,jsons/VE125_randls_16_rotated.json,659263,865057,35,Woman
30,731323,DepthScenes,duration_manipulation_targetAtFixation,jsons/VE125_randls_16_rotated.json,http://54.235.29.9/FacialAge/BNav_EC2/DepthDuration/v2_depth_duration_MTurk/v2_DepthDuration_HTML.html#366,366,1242,568,1366,768,8-29-2022,6-54-5,31,depth_duration_stimuli/003338_2014-05-20_11-01-23_094959634447_rgbf000051-resize_6/003338_2014-05-20_11-01-23_094959634447_rgbf000051-resize_6-target.png,125,1.693,4,2258,119,feet,jsons/VE125_randls_16_rotated.json,659263,865057,35,Woman
31,731323,DepthScenes,duration_manipulation_targetAtFixation,jsons/VE125_randls_16_rotated.json,http://54.235.29.9/FacialAge/BNav_EC2/DepthDuration/v2_depth_duration_MTurk/v2_DepthDuration_HTML.html#366,366,1242,568,1366,768,8-29-2022,6-54-5,32,depth_duration_stimuli/002509_2014-06-24_13-19-22_094959634447_rgbf000077-resize_0/002509_2014-06-24_13-19-22_094959634447_rgbf000077-resize_0-target.png,125,1.3065,2,2718,123,feet,jsons/VE125_randls_16_rotated.json,659263,865057,35,Woman
32,731323,DepthScenes,duration_manipulation_targetAtFixation,jsons/VE125_randls_16_rotated.json,http://54.235.29.9/FacialAge/BNav_EC2/DepthDuration/v2_depth_duration_MTurk/v2_DepthDuration_HTML.html#366,366,1242,568,1366,768,8-29-2022,6-54-5,33,depth_duration_stimuli/002199_2014-06-28_18-33-56_260595134347_rgbf000074-resize_0/002199_2014-06-28_18-33-56_260595134347_rgbf000074-resize_0-target.png,125,1.996,4,2584,125,feet,jsons/VE125_randls_16_rotated.json,659263,865057,35,Woman
33,731323,DepthScenes,duration_manipulation_targetAtFixation,jsons/VE125_randls_16_rotated.json,http://54.235.29.9/FacialAge/BNav_EC2/DepthDuration/v2_depth_duration_MTurk/v2_DepthDuration_HTML.html#366,366,1242,568,1366,768,8-29-2022,6-54-5,34,depth_duration_stimuli/001056_2014-06-08_18-46-44_260595134347_rgbf000068-resize_0/001056_2014-06-08_18-46-44_260595134347_rgbf000068-resize_0-target.png,125,2.6625,1,2349,125,feet,jsons/VE125_randls_16_rotated.json,659263,865057,35,Woman
34,731323,DepthScenes,duration_manipulation_targetAtFixation,jsons/VE125_randls_16_rotated.json,http://54.235.29.9/FacialAge/BNav_EC2/DepthDuration/v2_depth_duration_MTurk/v2_DepthDuration_HTML.html#366,366,1242,568,1366,768,8-29-2022,6-54-5,35,depth_duration_stimuli/001100_2014-06-15_17-46-26_260595134347_rgbf000225-resize_2/001100_2014-06-15_17-46-26_260595134347_rgbf000225-resize_2-target.png,125,2.24,2,2591,110,feet,jsons/VE125_randls_16_rotated.json,659263,865057,35,Woman
35,731323,DepthScenes,duration_manipulation_targetAtFixation,jsons/VE125_randls_16_rotated.json,http://54.235.29.9/FacialAge/BNav_EC2/DepthDuration/v2_depth_duration_MTurk/v2_DepthDuration_HTML.html#366,366,1242,568,1366,768,8-29-2022,6-54-5,36,depth_duration_stimuli/002784_2014-06-22_19-26-30_094959634447_rgbf000083-resize_3/002784_2014-06-22_19-26-30_094959634447_rgbf000083-resize_3-target.png,125,1.8046666666667,1,2300,124,feet,jsons/VE125_randls_16_rotated.json,659263,865057,35,Woman
36,731323,DepthScenes,duration_manipulation_targetAtFixation,jsons/VE125_randls_16_rotated.json,http://54.235.29.9/FacialAge/BNav_EC2/DepthDuration/v2_depth_duration_MTurk/v2_DepthDuration_HTML.html#366,366,1242,568,1366,768,8-29-2022,6-54-5,37,depth_duration_stimuli/002875_2014-06-01_15-19-00_094959634447_rgbf000151-resize_1/002875_2014-06-01_15-19-00_094959634447_rgbf000151-resize_1-target.png,125,1.9675,4,3009,120,feet,jsons/VE125_randls_16_rotated.json,659263,865057,35,Woman
37,731323,DepthScenes,duration_manipulation_targetAtFixation,jsons/VE125_randls_16_rotated.json,http://54.235.29.9/FacialAge/BNav_EC2/DepthDuration/v2_depth_duration_MTurk/v2_DepthDuration_HTML.html#366,366,1242,568,1366,768,8-29-2022,6-54-5,38,depth_duration_stimuli/001011_2014-06-08_23-18-54_260595134347_rgbf000044-resize_4/001011_2014-06-08_23-18-54_260595134347_rgbf000044-resize_4-target.png,125,2.4730000000000003,6,2604,124,feet,jsons/VE125_randls_16_rotated.json,659263,865057,35,Woman
38,731323,DepthScenes,duration_manipulation_targetAtFixation,jsons/VE125_randls_16_rotated.json,http://54.235.29.9/FacialAge/BNav_EC2/DepthDuration/v2_depth_duration_MTurk/v2_DepthDuration_HTML.html#366,366,1242,568,1366,768,8-29-2022,6-54-5,39,depth_duration_stimuli/000549_2014-06-08_22-10-24_260595134347_rgbf000247-resize_3/000549_2014-06-08_22-10-24_260595134347_rgbf000247-resize_3-target.png,125,1.841,2,2228,119,feet,jsons/VE125_randls_16_rotated.json,659263,865057,35,Woman
39,731323,DepthScenes,duration_manipulation_targetAtFixation,jsons/VE125_randls_16_rotated.json,http://54.235.29.9/FacialAge/BNav_EC2/DepthDuration/v2_depth_duration_MTurk/v2_DepthDuration_HTML.html#366,366,1242,568,1366,768,8-29-2022,6-54-5,40,depth_duration_stimuli/001055_2014-06-08_18-45-35_260595134347_rgbf000111-resize_4/001055_2014-06-08_18-45-35_260595134347_rgbf000111-resize_4-target.png,125,2.4290000000000003,5,2583,124,feet,jsons/VE125_randls_16_rotated.json,659263,865057,35,Woman
40,731323,DepthScenes,duration_manipulation_targetAtFixation,jsons/VE125_randls_16_rotated.json,http://54.235.29.9/FacialAge/BNav_EC2/DepthDuration/v2_depth_duration_MTurk/v2_DepthDuration_HTML.html#366,366,1242,568,1366,768,8-29-2022,6-54-5,41,depth_duration_stimuli/002136_2014-06-25_21-18-03_260595134347_rgbf000109-resize_3/002136_2014-06-25_21-18-03_260595134347_rgbf000109-resize_3-target.png,125,1.9569999999999999,2,2643,123,feet,jsons/VE125_randls_16_rotated.json,659263,865057,35,Woman
41,731323,DepthScenes,duration_manipulation_targetAtFixation,jsons/VE125_randls_16_rotated.json,http://54.235.29.9/FacialAge/BNav_EC2/DepthDuration/v2_depth_duration_MTurk/v2_DepthDuration_HTML.html#366,366,1242,568,1366,768,8-29-2022,6-54-5,42,depth_duration_stimuli/002964_2014-06-08_17-46-11_094959634447_rgbf000091-resize_4/002964_2014-06-08_17-46-11_094959634447_rgbf000091-resize_4-target.png,125,1.6909999999999998,3,2711,124,feet,jsons/VE125_randls_16_rotated.json,659263,865057,35,Woman
42,731323,DepthScenes,duration_manipulation_targetAtFixation,jsons/VE125_randls_16_rotated.json,http://54.235.29.9/FacialAge/BNav_EC2/DepthDuration/v2_depth_duration_MTurk/v2_DepthDuration_HTML.html#366,366,1242,568,1366,768,8-29-2022,6-54-5,43,depth_duration_stimuli/002545_2014-06-24_13-38-53_094959634447_rgbf000080-resize_4/002545_2014-06-24_13-38-53_094959634447_rgbf000080-resize_4-target.png,125,1.9205,2,2237,99,feet,jsons/VE125_randls_16_rotated.json,659263,865057,35,Woman
43,731323,DepthScenes,duration_manipulation_targetAtFixation,jsons/VE125_randls_16_rotated.json,http://54.235.29.9/FacialAge/BNav_EC2/DepthDuration/v2_depth_duration_MTurk/v2_DepthDuration_HTML.html#366,366,1242,568,1366,768,8-29-2022,6-54-5,44,depth_duration_stimuli/001092_2014-06-15_17-34-58_260595134347_rgbf000171-resize_3/001092_2014-06-15_17-34-58_260595134347_rgbf000171-resize_3-target.png,125,2.6935,6,3306,132,feet,jsons/VE125_randls_16_rotated.json,659263,865057,35,Woman
44,731323,DepthScenes,duration_manipulation_targetAtFixation,jsons/VE125_randls_16_rotated.json,http://54.235.29.9/FacialAge/BNav_EC2/DepthDuration/v2_depth_duration_MTurk/v2_DepthDuration_HTML.html#366,366,1242,568,1366,768,8-29-2022,6-54-5,45,depth_duration_stimuli/000742_2014-06-08_18-48-09_260595134347_rgbf000164-resize_4/000742_2014-06-08_18-48-09_260595134347_rgbf000164-resize_4-target.png,125,4.632,1,2523,113,feet,jsons/VE125_randls_16_rotated.json,659263,865057,35,Woman
45,731323,DepthScenes,duration_manipulation_targetAtFixation,jsons/VE125_randls_16_rotated.json,http://54.235.29.9/FacialAge/BNav_EC2/DepthDuration/v2_depth_duration_MTurk/v2_DepthDuration_HTML.html#366,366,1242,568,1366,768,8-29-2022,6-54-5,46,depth_duration_stimuli/001066_2014-06-08_22-03-20_260595134347_rgbf000066-resize_4/001066_2014-06-08_22-03-20_260595134347_rgbf000066-resize_4-target.png,125,4.2330000000000005,3,1920,133,feet,jsons/VE125_randls_16_rotated.json,659263,865057,35,Woman
46,731323,DepthScenes,duration_manipulation_targetAtFixation,jsons/VE125_randls_16_rotated.json,http://54.235.29.9/FacialAge/BNav_EC2/DepthDuration/v2_depth_duration_MTurk/v2_DepthDuration_HTML.html#366,366,1242,568,1366,768,8-29-2022,6-54-5,47,depth_duration_stimuli/002660_2014-06-13_15-44-18_094959634447_rgbf001878-resize_2/002660_2014-06-13_15-44-18_094959634447_rgbf001878-resize_2-target.png,125,3.576,4,3075,112,feet,jsons/VE125_randls_16_rotated.json,659263,865057,35,Woman
47,731323,DepthScenes,duration_manipulation_targetAtFixation,jsons/VE125_randls_16_rotated.json,http://54.235.29.9/FacialAge/BNav_EC2/DepthDuration/v2_depth_duration_MTurk/v2_DepthDuration_HTML.html#366,366,1242,568,1366,768,8-29-2022,6-54-5,48,depth_duration_stimuli/002153_2014-06-25_21-27-18_260595134347_rgbf000038-resize_5/002153_2014-06-25_21-27-18_260595134347_rgbf000038-resize_5-target.png,125,2.505,0,5451,138,feet,jsons/VE125_randls_16_rotated.json,659263,865057,35,Woman
48,731323,DepthScenes,duration_manipulation_targetAtFixation,jsons/VE125_randls_16_rotated.json,http://54.235.29.9/FacialAge/BNav_EC2/DepthDuration/v2_depth_duration_MTurk/v2_DepthDuration_HTML.html#366,366,1242,568,1366,768,8-29-2022,6-54-5,49,depth_duration_stimuli/001170_2014-06-17_15-43-44_260595134347_rgbf000096-resize_6/001170_2014-06-17_15-43-44_260595134347_rgbf000096-resize-original.jpg,125,1.1909999999999998,0,3020,128,feet,jsons/VE125_randls_16_rotated.json,659263,865057,35,Woman
49,731323,DepthScenes,duration_manipulation_targetAtFixation,jsons/VE125_randls_16_rotated.json,http://54.235.29.9/FacialAge/BNav_EC2/DepthDuration/v2_depth_duration_MTurk/v2_DepthDuration_HTML.html#366,366,1242,568,1366,768,8-29-2022,6-54-5,50,depth_duration_stimuli/002637_2014-06-24_14-51-13_094959634447_rgbf000066-resize_4/002637_2014-06-24_14-51-13_094959634447_rgbf000066-resize_4-target.png,125,1.9955,2,2490,124,feet,jsons/VE125_randls_16_rotated.json,659263,865057,35,Woman
50,731323,DepthScenes,duration_manipulation_targetAtFixation,jsons/VE125_randls_16_rotated.json,http://54.235.29.9/FacialAge/BNav_EC2/DepthDuration/v2_depth_duration_MTurk/v2_DepthDuration_HTML.html#366,366,1242,568,1366,768,8-29-2022,6-54-5,51,depth_duration_stimuli/003534_2014-05-22_15-06-10_094959634447_rgbf000102-resize_4/003534_2014-05-22_15-06-10_094959634447_rgbf000102-resize_4-target.png,125,1.426,3,4067,125,feet,jsons/VE125_randls_16_rotated.json,659263,865057,35,Woman
51,731323,DepthScenes,duration_manipulation_targetAtFixation,jsons/VE125_randls_16_rotated.json,http://54.235.29.9/FacialAge/BNav_EC2/DepthDuration/v2_depth_duration_MTurk/v2_DepthDuration_HTML.html#366,366,1242,568,1366,768,8-29-2022,6-54-5,52,depth_duration_stimuli/003048_2014-06-15_13-49-43_094959634447_rgbf000150-resize_1/003048_2014-06-15_13-49-43_094959634447_rgbf000150-resize_1-target.png,125,4.0035,2,23426,110,feet,jsons/VE125_randls_16_rotated.json,659263,865057,35,Woman
52,731323,DepthScenes,duration_manipulation_targetAtFixation,jsons/VE125_randls_16_rotated.json,http://54.235.29.9/FacialAge/BNav_EC2/DepthDuration/v2_depth_duration_MTurk/v2_DepthDuration_HTML.html#366,366,1242,568,1366,768,8-29-2022,6-54-5,53,depth_duration_stimuli/002043_2014-06-24_20-29-38_260595134347_rgbf000039-resize_4/002043_2014-06-24_20-29-38_260595134347_rgbf000039-resize_4-target.png,125,2.8435,6,3283,131,feet,jsons/VE125_randls_16_rotated.json,659263,865057,35,Woman
53,731323,DepthScenes,duration_manipulation_targetAtFixation,jsons/VE125_randls_16_rotated.json,http://54.235.29.9/FacialAge/BNav_EC2/DepthDuration/v2_depth_duration_MTurk/v2_DepthDuration_HTML.html#366,366,1242,568,1366,768,8-29-2022,6-54-5,54,depth_duration_stimuli/000734_2014-06-08_17-39-11_260595134347_rgbf000128-resize_2/000734_2014-06-08_17-39-11_260595134347_rgbf000128-resize_2-target.png,125,4.098,2,2717,112,feet,jsons/VE125_randls_16_rotated.json,659263,865057,35,Woman
54,731323,DepthScenes,duration_manipulation_targetAtFixation,jsons/VE125_randls_16_rotated.json,http://54.235.29.9/FacialAge/BNav_EC2/DepthDuration/v2_depth_duration_MTurk/v2_DepthDuration_HTML.html#366,366,1242,568,1366,768,8-29-2022,6-54-5,55,depth_duration_stimuli/000739_2014-06-08_18-45-58_260595134347_rgbf000068-resize_1/000739_2014-06-08_18-45-58_260595134347_rgbf000068-resize_1-target.png,125,3.534,4,2836,130,feet,jsons/VE125_randls_16_rotated.json,659263,865057,35,Woman
55,731323,DepthScenes,duration_manipulation_targetAtFixation,jsons/VE125_randls_16_rotated.json,http://54.235.29.9/FacialAge/BNav_EC2/DepthDuration/v2_depth_duration_MTurk/v2_DepthDuration_HTML.html#366,366,1242,568,1366,768,8-29-2022,6-54-5,56,depth_duration_stimuli/000635_2014-06-08_16-38-42_260595134347_rgbf000106-resize_1/000635_2014-06-08_16-38-42_260595134347_rgbf000106-resize_1-target.png,125,2.074,2,2572,128,feet,jsons/VE125_randls_16_rotated.json,659263,865057,35,Woman
56,731323,DepthScenes,duration_manipulation_targetAtFixation,jsons/VE125_randls_16_rotated.json,http://54.235.29.9/FacialAge/BNav_EC2/DepthDuration/v2_depth_duration_MTurk/v2_DepthDuration_HTML.html#366,366,1242,568,1366,768,8-29-2022,6-54-5,57,depth_duration_stimuli/002279_2014-06-28_18-55-32_260595134347_rgbf000040-resize_5/002279_2014-06-28_18-55-32_260595134347_rgbf000040-resize_5-target.png,125,1.5043333333333,4,2582,114,feet,jsons/VE125_randls_16_rotated.json,659263,865057,35,Woman
57,731323,DepthScenes,duration_manipulation_targetAtFixation,jsons/VE125_randls_16_rotated.json,http://54.235.29.9/FacialAge/BNav_EC2/DepthDuration/v2_depth_duration_MTurk/v2_DepthDuration_HTML.html#366,366,1242,568,1366,768,8-29-2022,6-54-5,58,depth_duration_stimuli/000866_2014-06-09_20-45-42_260595134347_rgbf000139-resize_1/000866_2014-06-09_20-45-42_260595134347_rgbf000139-resize_1-target.png,125,3.2155,1,4302,130,feet,jsons/VE125_randls_16_rotated.json,659263,865057,35,Woman
58,731323,DepthScenes,duration_manipulation_targetAtFixation,jsons/VE125_randls_16_rotated.json,http://54.235.29.9/FacialAge/BNav_EC2/DepthDuration/v2_depth_duration_MTurk/v2_DepthDuration_HTML.html#366,366,1242,568,1366,768,8-29-2022,6-54-5,59,depth_duration_stimuli/002989_2014-06-15_12-25-03_094959634447_rgbf000150-resize_3/002989_2014-06-15_12-25-03_094959634447_rgbf000150-resize_3-target.png,125,4.1975,1,10529,128,feet,jsons/VE125_randls_16_rotated.json,659263,865057,35,Woman
59,731323,DepthScenes,duration_manipulation_targetAtFixation,jsons/VE125_randls_16_rotated.json,http://54.235.29.9/FacialAge/BNav_EC2/DepthDuration/v2_depth_duration_MTurk/v2_DepthDuration_HTML.html#366,366,1242,568,1366,768,8-29-2022,6-54-5,60,depth_duration_stimuli/000457_2014-06-08_16-52-43_260595134347_rgbf000199-resize_1/000457_2014-06-08_16-52-43_260595134347_rgbf000199-resize_1-target.png,125,3.6489999999999996,3,2389,128,feet,jsons/VE125_randls_16_rotated.json,659263,865057,35,Woman
60,731323,DepthScenes,duration_manipulation_targetAtFixation,jsons/VE125_randls_16_rotated.json,http://54.235.29.9/FacialAge/BNav_EC2/DepthDuration/v2_depth_duration_MTurk/v2_DepthDuration_HTML.html#366,366,1242,568,1366,768,8-29-2022,6-54-5,61,depth_duration_stimuli/000929_2014-06-09_16-33-19_260595134347_rgbf000139-resize_0/000929_2014-06-09_16-33-19_260595134347_rgbf000139-resize_0-target.png,125,2.8680000000000003,2,3623,115,feet,jsons/VE125_randls_16_rotated.json,659263,865057,35,Woman
61,731323,DepthScenes,duration_manipulation_targetAtFixation,jsons/VE125_randls_16_rotated.json,http://54.235.29.9/FacialAge/BNav_EC2/DepthDuration/v2_depth_duration_MTurk/v2_DepthDuration_HTML.html#366,366,1242,568,1366,768,8-29-2022,6-54-5,62,depth_duration_stimuli/001617_2014-06-20_11-35-32_260595134347_rgbf000066-resize_1/001617_2014-06-20_11-35-32_260595134347_rgbf000066-resize_1-target.png,125,3.7910000000000004,5,3726,117,feet,jsons/VE125_randls_16_rotated.json,659263,865057,35,Woman
62,731323,DepthScenes,duration_manipulation_targetAtFixation,jsons/VE125_randls_16_rotated.json,http://54.235.29.9/FacialAge/BNav_EC2/DepthDuration/v2_depth_duration_MTurk/v2_DepthDuration_HTML.html#366,366,1242,568,1366,768,8-29-2022,6-54-5,63,depth_duration_stimuli/001806_2014-06-26_20-50-20_260595134347_rgbf000091-resize_1/001806_2014-06-26_20-50-20_260595134347_rgbf000091-resize_1-target.png,125,2.7305,2,4867,116,feet,jsons/VE125_randls_16_rotated.json,659263,865057,35,Woman
63,731323,DepthScenes,duration_manipulation_targetAtFixation,jsons/VE125_randls_16_rotated.json,http://54.235.29.9/FacialAge/BNav_EC2/DepthDuration/v2_depth_duration_MTurk/v2_DepthDuration_HTML.html#366,366,1242,568,1366,768,8-29-2022,6-54-5,64,depth_duration_stimuli/000109_2014-05-14_23-41-52_260595134347_rgbf000035-resize_9/000109_2014-05-14_23-41-52_260595134347_rgbf000035-resize_9-target.png,125,1.3545,5,2816,124,feet,jsons/VE125_randls_16_rotated.json,659263,865057,35,Woman
64,731323,DepthScenes,duration_manipulation_targetAtFixation,jsons/VE125_randls_16_rotated.json,http://54.235.29.9/FacialAge/BNav_EC2/DepthDuration/v2_depth_duration_MTurk/v2_DepthDuration_HTML.html#366,366,1242,568,1366,768,8-29-2022,6-54-5,65,depth_duration_stimuli/000470_2014-06-09_19-42-40_260595134347_rgbf000094-resize_1/000470_2014-06-09_19-42-40_260595134347_rgbf000094-resize_1-target.png,125,1.831,2,3138,129,feet,jsons/VE125_randls_16_rotated.json,659263,865057,35,Woman
65,731323,DepthScenes,duration_manipulation_targetAtFixation,jsons/VE125_randls_16_rotated.json,http://54.235.29.9/FacialAge/BNav_EC2/DepthDuration/v2_depth_duration_MTurk/v2_DepthDuration_HTML.html#366,366,1242,568,1366,768,8-29-2022,6-54-5,66,depth_duration_stimuli/001540_2014-06-20_17-01-05_260595134347_rgbf000086-resize_2/001540_2014-06-20_17-01-05_260595134347_rgbf000086-resize-original.jpg,125,1.459,0,3051,108,feet,jsons/VE125_randls_16_rotated.json,659263,865057,35,Woman
66,731323,DepthScenes,duration_manipulation_targetAtFixation,jsons/VE125_randls_16_rotated.json,http://54.235.29.9/FacialAge/BNav_EC2/DepthDuration/v2_depth_duration_MTurk/v2_DepthDuration_HTML.html#366,366,1242,568,1366,768,8-29-2022,6-54-5,67,depth_duration_stimuli/001052_2014-06-08_18-24-54_260595134347_rgbf000130-resize_1/001052_2014-06-08_18-24-54_260595134347_rgbf000130-resize_1-target.png,125,4.1045,2,2554,113,feet,jsons/VE125_randls_16_rotated.json,659263,865057,35,Woman
67,731323,DepthScenes,duration_manipulation_targetAtFixation,jsons/VE125_randls_16_rotated.json,http://54.235.29.9/FacialAge/BNav_EC2/DepthDuration/v2_depth_duration_MTurk/v2_DepthDuration_HTML.html#366,366,1242,568,1366,768,8-29-2022,6-54-5,68,depth_duration_stimuli/002988_2014-06-15_12-24-20_094959634447_rgbf000150-resize_1/002988_2014-06-15_12-24-20_094959634447_rgbf000150-resize_1-target.png,125,4.7669999999999995,2,5651,121,feet,jsons/VE125_randls_16_rotated.json,659263,865057,35,Woman
68,731323,DepthScenes,duration_manipulation_targetAtFixation,jsons/VE125_randls_16_rotated.json,http://54.235.29.9/FacialAge/BNav_EC2/DepthDuration/v2_depth_duration_MTurk/v2_DepthDuration_HTML.html#366,366,1242,568,1366,768,8-29-2022,6-54-5,69,depth_duration_stimuli/002103_2014-06-25_20-00-40_260595134347_rgbf000049-resize_0/002103_2014-06-25_20-00-40_260595134347_rgbf000049-resize_0-target.png,125,4.105,4,2918,127,feet,jsons/VE125_randls_16_rotated.json,659263,865057,35,Woman
69,731323,DepthScenes,duration_manipulation_targetAtFixation,jsons/VE125_randls_16_rotated.json,http://54.235.29.9/FacialAge/BNav_EC2/DepthDuration/v2_depth_duration_MTurk/v2_DepthDuration_HTML.html#366,366,1242,568,1366,768,8-29-2022,6-54-5,70,depth_duration_stimuli/002039_2014-06-24_20-22-38_260595134347_rgbf000084-resize_1/002039_2014-06-24_20-22-38_260595134347_rgbf000084-resize_1-target.png,125,4.408,1,2718,114,feet,jsons/VE125_randls_16_rotated.json,659263,865057,35,Woman
70,731323,DepthScenes,duration_manipulation_targetAtFixation,jsons/VE125_randls_16_rotated.json,http://54.235.29.9/FacialAge/BNav_EC2/DepthDuration/v2_depth_duration_MTurk/v2_DepthDuration_HTML.html#366,366,1242,568,1366,768,8-29-2022,6-54-5,71,depth_duration_stimuli/003495_2014-05-21_16-01-51_094959634447_rgbf000100-resize_3/003495_2014-05-21_16-01-51_094959634447_rgbf000100-resize_3-target.png,125,1.6255,3,3597,117,feet,jsons/VE125_randls_16_rotated.json,659263,865057,35,Woman
71,731323,DepthScenes,duration_manipulation_targetAtFixation,jsons/VE125_randls_16_rotated.json,http://54.235.29.9/FacialAge/BNav_EC2/DepthDuration/v2_depth_duration_MTurk/v2_DepthDuration_HTML.html#366,366,1242,568,1366,768,8-29-2022,6-54-5,72,depth_duration_stimuli/001244_2014-06-17_16-47-45_260595134347_rgbf000030-resize_4/001244_2014-06-17_16-47-45_260595134347_rgbf000030-resize_4-target.png,125,2.0425,5,2718,130,feet,jsons/VE125_randls_16_rotated.json,659263,865057,35,Woman
72,731323,DepthScenes,duration_manipulation_targetAtFixation,jsons/VE125_randls_16_rotated.json,http://54.235.29.9/FacialAge/BNav_EC2/DepthDuration/v2_depth_duration_MTurk/v2_DepthDuration_HTML.html#366,366,1242,568,1366,768,8-29-2022,6-54-5,73,depth_duration_stimuli/002678_2014-06-13_16-15-32_094959634447_rgbf000151-resize_6/002678_2014-06-13_16-15-32_094959634447_rgbf000151-resize_6-target.png,125,2.1830000000000003,2,6315,124,feet,jsons/VE125_randls_16_rotated.json,659263,865057,35,Woman
73,731323,DepthScenes,duration_manipulation_targetAtFixation,jsons/VE125_randls_16_rotated.json,http://54.235.29.9/FacialAge/BNav_EC2/DepthDuration/v2_depth_duration_MTurk/v2_DepthDuration_HTML.html#366,366,1242,568,1366,768,8-29-2022,6-54-5,74,depth_duration_stimuli/000368_2014-06-09_15-53-01_260595134347_rgbf000155-resize_2/000368_2014-06-09_15-53-01_260595134347_rgbf000155-resize_2-target.png,125,2.4859999999999998,2,2466,131,feet,jsons/VE125_randls_16_rotated.json,659263,865057,35,Woman
74,731323,DepthScenes,duration_manipulation_targetAtFixation,jsons/VE125_randls_16_rotated.json,http://54.235.29.9/FacialAge/BNav_EC2/DepthDuration/v2_depth_duration_MTurk/v2_DepthDuration_HTML.html#366,366,1242,568,1366,768,8-29-2022,6-54-5,75,depth_duration_stimuli/000502_2014-06-08_23-02-32_260595134347_rgbf000063-resize_4/000502_2014-06-08_23-02-32_260595134347_rgbf000063-resize_4-target.png,125,2.431,1,2546,132,feet,jsons/VE125_randls_16_rotated.json,659263,865057,35,Woman
75,731323,DepthScenes,duration_manipulation_targetAtFixation,jsons/VE125_randls_16_rotated.json,http://54.235.29.9/FacialAge/BNav_EC2/DepthDuration/v2_depth_duration_MTurk/v2_DepthDuration_HTML.html#366,366,1242,568,1366,768,8-29-2022,6-54-5,76,depth_duration_stimuli/001199_2014-06-17_16-03-48_260595134347_rgbf000077-resize_0/001199_2014-06-17_16-03-48_260595134347_rgbf000077-resize_0-target.png,125,3.4375,3,2098,134,feet,jsons/VE125_randls_16_rotated.json,659263,865057,35,Woman
76,731323,DepthScenes,duration_manipulation_targetAtFixation,jsons/VE125_randls_16_rotated.json,http://54.235.29.9/FacialAge/BNav_EC2/DepthDuration/v2_depth_duration_MTurk/v2_DepthDuration_HTML.html#366,366,1242,568,1366,768,8-29-2022,6-54-5,77,depth_duration_stimuli/001447_2014-06-19_17-00-32_260595134347_rgbf000082-resize_5/001447_2014-06-19_17-00-32_260595134347_rgbf000082-resize_5-target.png,125,4.13775,5,2466,124,feet,jsons/VE125_randls_16_rotated.json,659263,865057,35,Woman
77,731323,DepthScenes,duration_manipulation_targetAtFixation,jsons/VE125_randls_16_rotated.json,http://54.235.29.9/FacialAge/BNav_EC2/DepthDuration/v2_depth_duration_MTurk/v2_DepthDuration_HTML.html#366,366,1242,568,1366,768,8-29-2022,6-54-5,78,depth_duration_stimuli/000447_2014-06-08_16-15-46_260595134347_rgbf000130-resize_1/000447_2014-06-08_16-15-46_260595134347_rgbf000130-resize_1-target.png,125,4.479,2,2617,132,feet,jsons/VE125_randls_16_rotated.json,659263,865057,35,Woman
78,731323,DepthScenes,duration_manipulation_targetAtFixation,jsons/VE125_randls_16_rotated.json,http://54.235.29.9/FacialAge/BNav_EC2/DepthDuration/v2_depth_duration_MTurk/v2_DepthDuration_HTML.html#366,366,1242,568,1366,768,8-29-2022,6-54-5,79,depth_duration_stimuli/001392_2014-06-19_16-07-59_260595134347_rgbf000046-resize_1/001392_2014-06-19_16-07-59_260595134347_rgbf000046-resize_1-target.png,125,4.135,1,2329,129,feet,jsons/VE125_randls_16_rotated.json,659263,865057,35,Woman
79,731323,DepthScenes,duration_manipulation_targetAtFixation,jsons/VE125_randls_16_rotated.json,http://54.235.29.9/FacialAge/BNav_EC2/DepthDuration/v2_depth_duration_MTurk/v2_DepthDuration_HTML.html#366,366,1242,568,1366,768,8-29-2022,6-54-5,80,depth_duration_stimuli/001570_2014-06-20_17-21-09_260595134347_rgbf000135-resize_4/001570_2014-06-20_17-21-09_260595134347_rgbf000135-resize_4-target.png,125,4.467,6,3183,131,feet,jsons/VE125_randls_16_rotated.json,659263,865057,35,Woman
80,731323,DepthScenes,duration_manipulation_targetAtFixation,jsons/VE125_randls_16_rotated.json,http://54.235.29.9/FacialAge/BNav_EC2/DepthDuration/v2_depth_duration_MTurk/v2_DepthDuration_HTML.html#366,366,1242,568,1366,768,8-29-2022,6-54-5,81,depth_duration_stimuli/001650_2014-06-20_12-09-00_260595134347_rgbf000087-resize_3/001650_2014-06-20_12-09-00_260595134347_rgbf000087-resize_3-target.png,125,1.9505,1,3089,126,feet,jsons/VE125_randls_16_rotated.json,659263,865057,35,Woman
81,731323,DepthScenes,duration_manipulation_targetAtFixation,jsons/VE125_randls_16_rotated.json,http://54.235.29.9/FacialAge/BNav_EC2/DepthDuration/v2_depth_duration_MTurk/v2_DepthDuration_HTML.html#366,366,1242,568,1366,768,8-29-2022,6-54-5,82,depth_duration_stimuli/000682_2014-06-08_23-14-58_260595134347_rgbf000041-resize_5/000682_2014-06-08_23-14-58_260595134347_rgbf000041-resize_5-target.png,125,2.7239999999999998,4,3489,124,feet,jsons/VE125_randls_16_rotated.json,659263,865057,35,Woman
82,731323,DepthScenes,duration_manipulation_targetAtFixation,jsons/VE125_randls_16_rotated.json,http://54.235.29.9/FacialAge/BNav_EC2/DepthDuration/v2_depth_duration_MTurk/v2_DepthDuration_HTML.html#366,366,1242,568,1366,768,8-29-2022,6-54-5,83,depth_duration_stimuli/002568_2014-06-24_13-59-21_094959634447_rgbf000062-resize_4/002568_2014-06-24_13-59-21_094959634447_rgbf000062-resize_4-target.png,125,3.015,1,2157,121,feet,jsons/VE125_randls_16_rotated.json,659263,865057,35,Woman
83,731323,DepthScenes,duration_manipulation_targetAtFixation,jsons/VE125_randls_16_rotated.json,http://54.235.29.9/FacialAge/BNav_EC2/DepthDuration/v2_depth_duration_MTurk/v2_DepthDuration_HTML.html#366,366,1242,568,1366,768,8-29-2022,6-54-5,84,depth_duration_stimuli/003492_2014-05-21_15-50-55_094959634447_rgbf000828-resize_1/003492_2014-05-21_15-50-55_094959634447_rgbf000828-resize_1-target.png,125,4.06875,2,2536,128,feet,jsons/VE125_randls_16_rotated.json,659263,865057,35,Woman
84,731323,DepthScenes,duration_manipulation_targetAtFixation,jsons/VE125_randls_16_rotated.json,http://54.235.29.9/FacialAge/BNav_EC2/DepthDuration/v2_depth_duration_MTurk/v2_DepthDuration_HTML.html#366,366,1242,568,1366,768,8-29-2022,6-54-5,85,depth_duration_stimuli/002953_2014-06-08_17-32-18_094959634447_rgbf000059-resize_5/002953_2014-06-08_17-32-18_094959634447_rgbf000059-resize_5-target.png,125,1.551,1,2025,131,feet,jsons/VE125_randls_16_rotated.json,659263,865057,35,Woman
85,731323,DepthScenes,duration_manipulation_targetAtFixation,jsons/VE125_randls_16_rotated.json,http://54.235.29.9/FacialAge/BNav_EC2/DepthDuration/v2_depth_duration_MTurk/v2_DepthDuration_HTML.html#366,366,1242,568,1366,768,8-29-2022,6-54-5,86,depth_duration_stimuli/000878_2014-06-08_22-52-45_260595134347_rgbf000045-resize_2/000878_2014-06-08_22-52-45_260595134347_rgbf000045-resize_2-target.png,125,2.092,5,2339,117,feet,jsons/VE125_randls_16_rotated.json,659263,865057,35,Woman
86,731323,DepthScenes,duration_manipulation_targetAtFixation,jsons/VE125_randls_16_rotated.json,http://54.235.29.9/FacialAge/BNav_EC2/DepthDuration/v2_depth_duration_MTurk/v2_DepthDuration_HTML.html#366,366,1242,568,1366,768,8-29-2022,6-54-5,87,depth_duration_stimuli/000191_2014-05-12_17-07-38_260595134347_rgbf000199-resize_0/000191_2014-05-12_17-07-38_260595134347_rgbf000199-resize_0-target.png,125,3.7995,6,2262,130,feet,jsons/VE125_randls_16_rotated.json,659263,865057,35,Woman
87,731323,DepthScenes,duration_manipulation_targetAtFixation,jsons/VE125_randls_16_rotated.json,http://54.235.29.9/FacialAge/BNav_EC2/DepthDuration/v2_depth_duration_MTurk/v2_DepthDuration_HTML.html#366,366,1242,568,1366,768,8-29-2022,6-54-5,88,depth_duration_stimuli/000493_2014-06-09_21-01-18_260595134347_rgbf000196-resize_3/000493_2014-06-09_21-01-18_260595134347_rgbf000196-resize_3-target.png,125,3.44,2,3586,118,feet,jsons/VE125_randls_16_rotated.json,659263,865057,35,Woman
88,731323,DepthScenes,duration_manipulation_targetAtFixation,jsons/VE125_randls_16_rotated.json,http://54.235.29.9/FacialAge/BNav_EC2/DepthDuration/v2_depth_duration_MTurk/v2_DepthDuration_HTML.html#366,366,1242,568,1366,768,8-29-2022,6-54-5,89,depth_duration_stimuli/002949_2014-06-26_15-57-42_094959634447_rgbf000079-resize_1/002949_2014-06-26_15-57-42_094959634447_rgbf000079-resize_1-target.png,125,1.8915,3,3100,123,feet,jsons/VE125_randls_16_rotated.json,659263,865057,35,Woman
89,731323,DepthScenes,duration_manipulation_targetAtFixation,jsons/VE125_randls_16_rotated.json,http://54.235.29.9/FacialAge/BNav_EC2/DepthDuration/v2_depth_duration_MTurk/v2_DepthDuration_HTML.html#366,366,1242,568,1366,768,8-29-2022,6-54-5,90,depth_duration_stimuli/000522_2014-06-08_13-35-06_260595134347_rgbf000244-resize_1/000522_2014-06-08_13-35-06_260595134347_rgbf000244-resize_1-target.png,125,2.3715,2,2598,119,feet,jsons/VE125_randls_16_rotated.json,659263,865057,35,Woman
90,731323,DepthScenes,duration_manipulation_targetAtFixation,jsons/VE125_randls_16_rotated.json,http://54.235.29.9/FacialAge/BNav_EC2/DepthDuration/v2_depth_duration_MTurk/v2_DepthDuration_HTML.html#366,366,1242,568,1366,768,8-29-2022,6-54-5,91,depth_duration_stimuli/003587_2014-05-23_16-48-02_094959634447_rgbf002384-resize_2/003587_2014-05-23_16-48-02_094959634447_rgbf002384-resize_2-target.png,125,1.357,1,3892,124,feet,jsons/VE125_randls_16_rotated.json,659263,865057,35,Woman
91,731323,DepthScenes,duration_manipulation_targetAtFixation,jsons/VE125_randls_16_rotated.json,http://54.235.29.9/FacialAge/BNav_EC2/DepthDuration/v2_depth_duration_MTurk/v2_DepthDuration_HTML.html#366,366,1242,568,1366,768,8-29-2022,6-54-5,92,depth_duration_stimuli/001167_2014-06-17_15-38-07_260595134347_rgbf000108-resize_0/001167_2014-06-17_15-38-07_260595134347_rgbf000108-resize_0-target.png,125,1.8505,3,2088,124,feet,jsons/VE125_randls_16_rotated.json,659263,865057,35,Woman
92,731323,DepthScenes,duration_manipulation_targetAtFixation,jsons/VE125_randls_16_rotated.json,http://54.235.29.9/FacialAge/BNav_EC2/DepthDuration/v2_depth_duration_MTurk/v2_DepthDuration_HTML.html#366,366,1242,568,1366,768,8-29-2022,6-54-5,93,depth_duration_stimuli/000556_2014-06-09_22-42-56_260595134347_rgbf000214-resize_1/000556_2014-06-09_22-42-56_260595134347_rgbf000214-resize_1-target.png,125,4.8415,2,2454,121,feet,jsons/VE125_randls_16_rotated.json,659263,865057,35,Woman
93,731323,DepthScenes,duration_manipulation_targetAtFixation,jsons/VE125_randls_16_rotated.json,http://54.235.29.9/FacialAge/BNav_EC2/DepthDuration/v2_depth_duration_MTurk/v2_DepthDuration_HTML.html#366,366,1242,568,1366,768,8-29-2022,6-54-5,94,depth_duration_stimuli/001158_2014-06-17_15-32-16_260595134347_rgbf000138-resize_2/001158_2014-06-17_15-32-16_260595134347_rgbf000138-resize_2-target.png,125,4.5315,1,2449,111,feet,jsons/VE125_randls_16_rotated.json,659263,865057,35,Woman
94,731323,DepthScenes,duration_manipulation_targetAtFixation,jsons/VE125_randls_16_rotated.json,http://54.235.29.9/FacialAge/BNav_EC2/DepthDuration/v2_depth_duration_MTurk/v2_DepthDuration_HTML.html#366,366,1242,568,1366,768,8-29-2022,6-54-5,95,depth_duration_stimuli/003129_2014-05-12_10-48-10_094959634447_rgbf000100-resize_0/003129_2014-05-12_10-48-10_094959634447_rgbf000100-resize_0-target.png,125,4.9305,5,2745,116,feet,jsons/VE125_randls_16_rotated.json,659263,865057,35,Woman
95,731323,DepthScenes,duration_manipulation_targetAtFixation,jsons/VE125_randls_16_rotated.json,http://54.235.29.9/FacialAge/BNav_EC2/DepthDuration/v2_depth_duration_MTurk/v2_DepthDuration_HTML.html#366,366,1242,568,1366,768,8-29-2022,6-54-5,96,depth_duration_stimuli/000414_2014-06-04_19-49-13_260595134347_rgbf000044-resize_0/000414_2014-06-04_19-49-13_260595134347_rgbf000044-resize_0-target.png,125,4.329,2,2509,119,feet,jsons/VE125_randls_16_rotated.json,659263,865057,35,Woman
96,731323,DepthScenes,duration_manipulation_targetAtFixation,jsons/VE125_randls_16_rotated.json,http://54.235.29.9/FacialAge/BNav_EC2/DepthDuration/v2_depth_duration_MTurk/v2_DepthDuration_HTML.html#366,366,1242,568,1366,768,8-29-2022,6-54-5,97,depth_duration_stimuli/001136_2014-06-17_15-19-41_260595134347_rgbf000076-resize_3/001136_2014-06-17_15-19-41_260595134347_rgbf000076-resize_3-target.png,125,1.8655,1,3044,124,feet,jsons/VE125_randls_16_rotated.json,659263,865057,35,Woman
97,731323,DepthScenes,duration_manipulation_targetAtFixation,jsons/VE125_randls_16_rotated.json,http://54.235.29.9/FacialAge/BNav_EC2/DepthDuration/v2_depth_duration_MTurk/v2_DepthDuration_HTML.html#366,366,1242,568,1366,768,8-29-2022,6-54-5,98,depth_duration_stimuli/001164_2014-06-17_15-35-46_260595134347_rgbf000085-resize_3/001164_2014-06-17_15-35-46_260595134347_rgbf000085-resize_3-target.png,125,2.354,5,3205,136,feet,jsons/VE125_randls_16_rotated.json,659263,865057,35,Woman
98,731323,DepthScenes,duration_manipulation_targetAtFixation,jsons/VE125_randls_16_rotated.json,http://54.235.29.9/FacialAge/BNav_EC2/DepthDuration/v2_depth_duration_MTurk/v2_DepthDuration_HTML.html#366,366,1242,568,1366,768,8-29-2022,6-54-5,99,depth_duration_stimuli/001222_2014-06-17_16-24-06_260595134347_rgbf000073-resize_0/001222_2014-06-17_16-24-06_260595134347_rgbf000073-resize-original.jpg,125,1.4385,0,3329,127,feet,jsons/VE125_randls_16_rotated.json,659263,865057,35,Woman
99,731323,DepthScenes,duration_manipulation_targetAtFixation,jsons/VE125_randls_16_rotated.json,http://54.235.29.9/FacialAge/BNav_EC2/DepthDuration/v2_depth_duration_MTurk/v2_DepthDuration_HTML.html#366,366,1242,568,1366,768,8-29-2022,6-54-5,100,depth_duration_stimuli/000943_2014-06-09_19-31-07_260595134347_rgbf000128-resize_1/000943_2014-06-09_19-31-07_260595134347_rgbf000128-resize_1-target.png,125,1.9765,3,2564,125,feet,jsons/VE125_randls_16_rotated.json,659263,865057,35,Woman
100,731323,DepthScenes,duration_manipulation_targetAtFixation,jsons/VE125_randls_16_rotated.json,http://54.235.29.9/FacialAge/BNav_EC2/DepthDuration/v2_depth_duration_MTurk/v2_DepthDuration_HTML.html#366,366,1242,568,1366,768,8-29-2022,6-54-5,101,depth_duration_stimuli/003070_2014-06-15_14-58-27_094959634447_rgbf000150-resize_3/003070_2014-06-15_14-58-27_094959634447_rgbf000150-resize_3-target.png,125,2.9415,1,2108,129,feet,jsons/VE125_randls_16_rotated.json,659263,865057,35,Woman
101,731323,DepthScenes,duration_manipulation_targetAtFixation,jsons/VE125_randls_16_rotated.json,http://54.235.29.9/FacialAge/BNav_EC2/DepthDuration/v2_depth_duration_MTurk/v2_DepthDuration_HTML.html#366,366,1242,568,1366,768,8-29-2022,6-54-5,102,depth_duration_stimuli/002444_2014-06-28_20-32-08_260595134347_rgbf000027-resize_0/002444_2014-06-28_20-32-08_260595134347_rgbf000027-resize_0-target.png,125,4.388999999999999,4,2341,124,feet,jsons/VE125_randls_16_rotated.json,659263,865057,35,Woman
102,731323,DepthScenes,duration_manipulation_targetAtFixation,jsons/VE125_randls_16_rotated.json,http://54.235.29.9/FacialAge/BNav_EC2/DepthDuration/v2_depth_duration_MTurk/v2_DepthDuration_HTML.html#366,366,1242,568,1366,768,8-29-2022,6-54-5,103,depth_duration_stimuli/000436_2014-06-09_22-25-11_260595134347_rgbf000137-resize_1/000436_2014-06-09_22-25-11_260595134347_rgbf000137-resize_1-target.png,125,4.0705,1,2146,127,feet,jsons/VE125_randls_16_rotated.json,659263,865057,35,Woman
103,731323,DepthScenes,duration_manipulation_targetAtFixation,jsons/VE125_randls_16_rotated.json,http://54.235.29.9/FacialAge/BNav_EC2/DepthDuration/v2_depth_duration_MTurk/v2_DepthDuration_HTML.html#366,366,1242,568,1366,768,8-29-2022,6-54-5,104,depth_duration_stimuli/003490_2014-05-21_15-50-11_094959634447_rgbf000101-resize_3/003490_2014-05-21_15-50-11_094959634447_rgbf000101-resize_3-target.png,125,3.6445,3,2696,124,feet,jsons/VE125_randls_16_rotated.json,659263,865057,35,Woman
104,731323,DepthScenes,duration_manipulation_targetAtFixation,jsons/VE125_randls_16_rotated.json,http://54.235.29.9/FacialAge/BNav_EC2/DepthDuration/v2_depth_duration_MTurk/v2_DepthDuration_HTML.html#366,366,1242,568,1366,768,8-29-2022,6-54-5,105,depth_duration_stimuli/001175_2014-06-17_15-45-55_260595134347_rgbf000129-resize_4/001175_2014-06-17_15-45-55_260595134347_rgbf000129-resize_4-target.png,125,4.255,1,2046,124,feet,jsons/VE125_randls_16_rotated.json,659263,865057,35,Woman
105,731323,DepthScenes,duration_manipulation_targetAtFixation,jsons/VE125_randls_16_rotated.json,http://54.235.29.9/FacialAge/BNav_EC2/DepthDuration/v2_depth_duration_MTurk/v2_DepthDuration_HTML.html#366,366,1242,568,1366,768,8-29-2022,6-54-5,106,depth_duration_stimuli/002323_2014-06-28_20-01-54_260595134347_rgbf000051-resize_4/002323_2014-06-28_20-01-54_260595134347_rgbf000051-resize_4-target.png,125,3.7310000000000003,2,4023,201,feet,jsons/VE125_randls_16_rotated.json,659263,865057,35,Woman
106,731323,DepthScenes,duration_manipulation_targetAtFixation,jsons/VE125_randls_16_rotated.json,http://54.235.29.9/FacialAge/BNav_EC2/DepthDuration/v2_depth_duration_MTurk/v2_DepthDuration_HTML.html#366,366,1242,568,1366,768,8-29-2022,6-54-5,107,depth_duration_stimuli/000917_2014-06-09_22-45-29_260595134347_rgbf000149-resize_3/000917_2014-06-09_22-45-29_260595134347_rgbf000149-resize_3-target.png,125,4.1865,3,3179,106,feet,jsons/VE125_randls_16_rotated.json,659263,865057,35,Woman
107,731323,DepthScenes,duration_manipulation_targetAtFixation,jsons/VE125_randls_16_rotated.json,http://54.235.29.9/FacialAge/BNav_EC2/DepthDuration/v2_depth_duration_MTurk/v2_DepthDuration_HTML.html#366,366,1242,568,1366,768,8-29-2022,6-54-5,108,depth_duration_stimuli/000709_2014-06-08_13-51-55_260595134347_rgbf000068-resize_3/000709_2014-06-08_13-51-55_260595134347_rgbf000068-resize_3-target.png,125,1.8030000000000002,5,2280,119,feet,jsons/VE125_randls_16_rotated.json,659263,865057,35,Woman
108,731323,DepthScenes,duration_manipulation_targetAtFixation,jsons/VE125_randls_16_rotated.json,http://54.235.29.9/FacialAge/BNav_EC2/DepthDuration/v2_depth_duration_MTurk/v2_DepthDuration_HTML.html#366,366,1242,568,1366,768,8-29-2022,6-54-5,109,depth_duration_stimuli/002057_2014-06-24_21-00-13_260595134347_rgbf000120-resize_1/002057_2014-06-24_21-00-13_260595134347_rgbf000120-resize_1-target.png,125,2.967,2,2310,128,feet,jsons/VE125_randls_16_rotated.json,659263,865057,35,Woman
109,731323,DepthScenes,duration_manipulation_targetAtFixation,jsons/VE125_randls_16_rotated.json,http://54.235.29.9/FacialAge/BNav_EC2/DepthDuration/v2_depth_duration_MTurk/v2_DepthDuration_HTML.html#366,366,1242,568,1366,768,8-29-2022,6-54-5,110,depth_duration_stimuli/001815_2014-06-26_20-52-55_260595134347_rgbf000020-resize_0/001815_2014-06-26_20-52-55_260595134347_rgbf000020-resize_0-target.png,125,3.3865,5,2635,129,feet,jsons/VE125_randls_16_rotated.json,659263,865057,35,Woman
110,731323,DepthScenes,duration_manipulation_targetAtFixation,jsons/VE125_randls_16_rotated.json,http://54.235.29.9/FacialAge/BNav_EC2/DepthDuration/v2_depth_duration_MTurk/v2_DepthDuration_HTML.html#366,366,1242,568,1366,768,8-29-2022,6-54-5,111,depth_duration_stimuli/001808_2014-06-26_20-50-58_260595134347_rgbf000029-resize_1/001808_2014-06-26_20-50-58_260595134347_rgbf000029-resize_1-target.png,125,4.249,2,2467,116,feet,jsons/VE125_randls_16_rotated.json,659263,865057,35,Woman
111,731323,DepthScenes,duration_manipulation_targetAtFixation,jsons/VE125_randls_16_rotated.json,http://54.235.29.9/FacialAge/BNav_EC2/DepthDuration/v2_depth_duration_MTurk/v2_DepthDuration_HTML.html#366,366,1242,568,1366,768,8-29-2022,6-54-5,112,depth_duration_stimuli/002209_2014-06-28_18-36-10_260595134347_rgbf000051-resize_1/002209_2014-06-28_18-36-10_260595134347_rgbf000051-resize_1-target.png,125,2.057,1,2475,125,feet,jsons/VE125_randls_16_rotated.json,659263,865057,35,Woman
112,731323,DepthScenes,duration_manipulation_targetAtFixation,jsons/VE125_randls_16_rotated.json,http://54.235.29.9/FacialAge/BNav_EC2/DepthDuration/v2_depth_duration_MTurk/v2_DepthDuration_HTML.html#366,366,1242,568,1366,768,8-29-2022,6-54-5,113,depth_duration_stimuli/002763_2014-06-22_19-13-10_094959634447_rgbf000075-resize_4/002763_2014-06-22_19-13-10_094959634447_rgbf000075-resize_4-target.png,125,1.68375,6,2696,124,feet,jsons/VE125_randls_16_rotated.json,659263,865057,35,Woman
113,731323,DepthScenes,duration_manipulation_targetAtFixation,jsons/VE125_randls_16_rotated.json,http://54.235.29.9/FacialAge/BNav_EC2/DepthDuration/v2_depth_duration_MTurk/v2_DepthDuration_HTML.html#366,366,1242,568,1366,768,8-29-2022,6-54-5,114,depth_duration_stimuli/002639_2014-06-24_14-51-37_094959634447_rgbf000074-resize_4/002639_2014-06-24_14-51-37_094959634447_rgbf000074-resize_4-target.png,125,4.0375,2,2120,133,feet,jsons/VE125_randls_16_rotated.json,659263,865057,35,Woman
114,731323,DepthScenes,duration_manipulation_targetAtFixation,jsons/VE125_randls_16_rotated.json,http://54.235.29.9/FacialAge/BNav_EC2/DepthDuration/v2_depth_duration_MTurk/v2_DepthDuration_HTML.html#366,366,1242,568,1366,768,8-29-2022,6-54-5,115,depth_duration_stimuli/003292_2014-05-14_21-53-49_094959634447_rgbf000100-resize_2/003292_2014-05-14_21-53-49_094959634447_rgbf000100-resize_2-target.png,125,3.4815,1,2107,117,feet,jsons/VE125_randls_16_rotated.json,659263,865057,35,Woman
115,731323,DepthScenes,duration_manipulation_targetAtFixation,jsons/VE125_randls_16_rotated.json,http://54.235.29.9/FacialAge/BNav_EC2/DepthDuration/v2_depth_duration_MTurk/v2_DepthDuration_HTML.html#366,366,1242,568,1366,768,8-29-2022,6-54-5,116,depth_duration_stimuli/001214_2014-06-17_16-13-55_260595134347_rgbf000111-resize_0/001214_2014-06-17_16-13-55_260595134347_rgbf000111-resize_0-target.png,125,2.6505,5,2371,113,feet,jsons/VE125_randls_16_rotated.json,659263,865057,35,Woman
116,731323,DepthScenes,duration_manipulation_targetAtFixation,jsons/VE125_randls_16_rotated.json,http://54.235.29.9/FacialAge/BNav_EC2/DepthDuration/v2_depth_duration_MTurk/v2_DepthDuration_HTML.html#366,366,1242,568,1366,768,8-29-2022,6-54-5,117,depth_duration_stimuli/000810_2014-06-08_17-20-01_260595134347_rgbf000105-resize_0/000810_2014-06-08_17-20-01_260595134347_rgbf000105-resize_0-target.png,125,1.4865,2,2426,120,feet,jsons/VE125_randls_16_rotated.json,659263,865057,35,Woman
117,731323,DepthScenes,duration_manipulation_targetAtFixation,jsons/VE125_randls_16_rotated.json,http://54.235.29.9/FacialAge/BNav_EC2/DepthDuration/v2_depth_duration_MTurk/v2_DepthDuration_HTML.html#366,366,1242,568,1366,768,8-29-2022,6-54-5,118,depth_duration_stimuli/000677_2014-06-08_23-10-32_260595134347_rgbf000158-resize_6/000677_2014-06-08_23-10-32_260595134347_rgbf000158-resize_6-target.png,125,3.556,1,2240,111,feet,jsons/VE125_randls_16_rotated.json,659263,865057,35,Woman
118,731323,DepthScenes,duration_manipulation_targetAtFixation,jsons/VE125_randls_16_rotated.json,http://54.235.29.9/FacialAge/BNav_EC2/DepthDuration/v2_depth_duration_MTurk/v2_DepthDuration_HTML.html#366,366,1242,568,1366,768,8-29-2022,6-54-5,119,depth_duration_stimuli/001029_2014-06-08_13-17-57_260595134347_rgbf000065-resize_1/001029_2014-06-08_13-17-57_260595134347_rgbf000065-resize_1-target.png,125,3.0835,5,3092,124,feet,jsons/VE125_randls_16_rotated.json,659263,865057,35,Woman
119,731323,DepthScenes,duration_manipulation_targetAtFixation,jsons/VE125_randls_16_rotated.json,http://54.235.29.9/FacialAge/BNav_EC2/DepthDuration/v2_depth_duration_MTurk/v2_DepthDuration_HTML.html#366,366,1242,568,1366,768,8-29-2022,6-54-5,120,depth_duration_stimuli/000787_2014-06-08_22-33-53_260595134347_rgbf000175-resize_1/000787_2014-06-08_22-33-53_260595134347_rgbf000175-resize-original.jpg,125,4.784,0,4147,129,feet,jsons/VE125_randls_16_rotated.json,659263,865057,35,Woman
120,731323,DepthScenes,duration_manipulation_targetAtFixation,jsons/VE125_randls_16_rotated.json,http://54.235.29.9/FacialAge/BNav_EC2/DepthDuration/v2_depth_duration_MTurk/v2_DepthDuration_HTML.html#366,366,1242,568,1366,768,8-29-2022,6-54-5,121,depth_duration_stimuli/002657_2014-06-13_15-29-54_094959634447_rgbf000150-resize_1/002657_2014-06-13_15-29-54_094959634447_rgbf000150-resize_1-target.png,125,4.919,2,2275,118,feet,jsons/VE125_randls_16_rotated.json,659263,865057,35,Woman
121,731323,DepthScenes,duration_manipulation_targetAtFixation,jsons/VE125_randls_16_rotated.json,http://54.235.29.9/FacialAge/BNav_EC2/DepthDuration/v2_depth_duration_MTurk/v2_DepthDuration_HTML.html#366,366,1242,568,1366,768,8-29-2022,6-54-5,122,depth_duration_stimuli/002375_2014-06-28_20-13-44_260595134347_rgbf000032-resize_1/002375_2014-06-28_20-13-44_260595134347_rgbf000032-resize_1-target.png,125,4.0175,5,2880,131,feet,jsons/VE125_randls_16_rotated.json,659263,865057,35,Woman
122,731323,DepthScenes,duration_manipulation_targetAtFixation,jsons/VE125_randls_16_rotated.json,http://54.235.29.9/FacialAge/BNav_EC2/DepthDuration/v2_depth_duration_MTurk/v2_DepthDuration_HTML.html#366,366,1242,568,1366,768,8-29-2022,6-54-5,123,depth_duration_stimuli/000749_2014-06-08_21-55-06_260595134347_rgbf000070-resize_2/000749_2014-06-08_21-55-06_260595134347_rgbf000070-resize_2-target.png,125,2.331,2,2531,129,feet,jsons/VE125_randls_16_rotated.json,659263,865057,35,Woman
123,731323,DepthScenes,duration_manipulation_targetAtFixation,jsons/VE125_randls_16_rotated.json,http://54.235.29.9/FacialAge/BNav_EC2/DepthDuration/v2_depth_duration_MTurk/v2_DepthDuration_HTML.html#366,366,1242,568,1366,768,8-29-2022,6-54-5,124,depth_duration_stimuli/002788_2014-06-22_19-36-03_094959634447_rgbf000088-resize_2/002788_2014-06-22_19-36-03_094959634447_rgbf000088-resize_2-target.png,125,1.6465,3,2800,124,feet,jsons/VE125_randls_16_rotated.json,659263,865057,35,Woman
124,731323,DepthScenes,duration_manipulation_targetAtFixation,jsons/VE125_randls_16_rotated.json,http://54.235.29.9/FacialAge/BNav_EC2/DepthDuration/v2_depth_duration_MTurk/v2_DepthDuration_HTML.html#366,366,1242,568,1366,768,8-29-2022,6-54-5,125,depth_duration_stimuli/001032_2014-06-08_13-23-17_260595134347_rgbf000021-resize_3/001032_2014-06-08_13-23-17_260595134347_rgbf000021-resize_3-target.png,125,3.2725,1,2243,124,feet,jsons/VE125_randls_16_rotated.json,659263,865057,35,Woman
125,731323,DepthScenes,duration_manipulation_targetAtFixation,jsons/VE125_randls_16_rotated.json,http://54.235.29.9/FacialAge/BNav_EC2/DepthDuration/v2_depth_duration_MTurk/v2_DepthDuration_HTML.html#366,366,1242,568,1366,768,8-29-2022,6-54-5,126,depth_duration_stimuli/001059_2014-06-08_21-53-27_260595134347_rgbf000061-resize_4/001059_2014-06-08_21-53-27_260595134347_rgbf000061-resize_4-target.png,125,2.4185,4,3738,128,feet,jsons/VE125_randls_16_rotated.json,659263,865057,35,Woman
126,731323,DepthScenes,duration_manipulation_targetAtFixation,jsons/VE125_randls_16_rotated.json,http://54.235.29.9/FacialAge/BNav_EC2/DepthDuration/v2_depth_duration_MTurk/v2_DepthDuration_HTML.html#366,366,1242,568,1366,768,8-29-2022,6-54-5,127,depth_duration_stimuli/001450_2014-06-19_17-02-03_260595134347_rgbf000203-resize_4/001450_2014-06-19_17-02-03_260595134347_rgbf000203-resize_4-target.png,125,4.0106666666667,1,3180,129,feet,jsons/VE125_randls_16_rotated.json,659263,865057,35,Woman
127,731323,DepthScenes,duration_manipulation_targetAtFixation,jsons/VE125_randls_16_rotated.json,http://54.235.29.9/FacialAge/BNav_EC2/DepthDuration/v2_depth_duration_MTurk/v2_DepthDuration_HTML.html#366,366,1242,568,1366,768,8-29-2022,6-54-5,128,depth_duration_stimuli/001449_2014-06-19_17-01-27_260595134347_rgbf000116-resize_2/001449_2014-06-19_17-01-27_260595134347_rgbf000116-resize_2-target.png,125,3.452,4,3030,136,feet,jsons/VE125_randls_16_rotated.json,659263,865057,35,Woman
128,731323,DepthScenes,duration_manipulation_targetAtFixation,jsons/VE125_randls_16_rotated.json,http://54.235.29.9/FacialAge/BNav_EC2/DepthDuration/v2_depth_duration_MTurk/v2_DepthDuration_HTML.html#366,366,1242,568,1366,768,8-29-2022,6-54-5,129,depth_duration_stimuli/001571_2014-06-20_17-21-32_260595134347_rgbf000089-resize_1/001571_2014-06-20_17-21-32_260595134347_rgbf000089-resize_1-target.png,125,1.86,2,6508,118,feet,jsons/VE125_randls_16_rotated.json,659263,865057,35,Woman
129,731323,DepthScenes,duration_manipulation_targetAtFixation,jsons/VE125_randls_16_rotated.json,http://54.235.29.9/FacialAge/BNav_EC2/DepthDuration/v2_depth_duration_MTurk/v2_DepthDuration_HTML.html#366,366,1242,568,1366,768,8-29-2022,6-54-5,130,depth_duration_stimuli/002272_2014-06-28_18-53-56_260595134347_rgbf000067-resize_2/002272_2014-06-28_18-53-56_260595134347_rgbf000067-resize_2-target.png,125,1.138,1,2290,121,feet,jsons/VE125_randls_16_rotated.json,659263,865057,35,Woman
130,731323,DepthScenes,duration_manipulation_targetAtFixation,jsons/VE125_randls_16_rotated.json,http://54.235.29.9/FacialAge/BNav_EC2/DepthDuration/v2_depth_duration_MTurk/v2_DepthDuration_HTML.html#366,366,1242,568,1366,768,8-29-2022,6-54-5,131,depth_duration_stimuli/001132_2014-06-17_14-48-54_260595134347_rgbf000100-resize_2/001132_2014-06-17_14-48-54_260595134347_rgbf000100-resize_2-target.png,125,3.753,6,3013,125,feet,jsons/VE125_randls_16_rotated.json,659263,865057,35,Woman
131,731323,DepthScenes,duration_manipulation_targetAtFixation,jsons/VE125_randls_16_rotated.json,http://54.235.29.9/FacialAge/BNav_EC2/DepthDuration/v2_depth_duration_MTurk/v2_DepthDuration_HTML.html#366,366,1242,568,1366,768,8-29-2022,6-54-5,132,depth_duration_stimuli/001133_2014-06-17_14-49-16_260595134347_rgbf000100-resize_0/001133_2014-06-17_14-49-16_260595134347_rgbf000100-resize_0-target.png,125,4.2115,2,2388,119,feet,jsons/VE125_randls_16_rotated.json,659263,865057,35,Woman
132,731323,DepthScenes,duration_manipulation_targetAtFixation,jsons/VE125_randls_16_rotated.json,http://54.235.29.9/FacialAge/BNav_EC2/DepthDuration/v2_depth_duration_MTurk/v2_DepthDuration_HTML.html#366,366,1242,568,1366,768,8-29-2022,6-54-5,133,depth_duration_stimuli/002467_2014-06-28_20-38-07_260595134347_rgbf000026-resize_2/002467_2014-06-28_20-38-07_260595134347_rgbf000026-resize_2-target.png,125,4.742,1,1988,133,feet,jsons/VE125_randls_16_rotated.json,659263,865057,35,Woman
133,731323,DepthScenes,duration_manipulation_targetAtFixation,jsons/VE125_randls_16_rotated.json,http://54.235.29.9/FacialAge/BNav_EC2/DepthDuration/v2_depth_duration_MTurk/v2_DepthDuration_HTML.html#366,366,1242,568,1366,768,8-29-2022,6-54-5,134,depth_duration_stimuli/002570_2014-06-24_13-59-54_094959634447_rgbf000059-resize_0/002570_2014-06-24_13-59-54_094959634447_rgbf000059-resize_0-target.png,125,4.037,6,2598,120,feet,jsons/VE125_randls_16_rotated.json,659263,865057,35,Woman
134,731323,DepthScenes,duration_manipulation_targetAtFixation,jsons/VE125_randls_16_rotated.json,http://54.235.29.9/FacialAge/BNav_EC2/DepthDuration/v2_depth_duration_MTurk/v2_DepthDuration_HTML.html#366,366,1242,568,1366,768,8-29-2022,6-54-5,135,depth_duration_stimuli/000375_2014-06-08_11-17-29_260595134347_rgbf000133-resize_2/000375_2014-06-08_11-17-29_260595134347_rgbf000133-resize-original.jpg,125,4.718,0,4598,122,feet,jsons/VE125_randls_16_rotated.json,659263,865057,35,Woman
135,731323,DepthScenes,duration_manipulation_targetAtFixation,jsons/VE125_randls_16_rotated.json,http://54.235.29.9/FacialAge/BNav_EC2/DepthDuration/v2_depth_duration_MTurk/v2_DepthDuration_HTML.html#366,366,1242,568,1366,768,8-29-2022,6-54-5,136,depth_duration_stimuli/000137_2014-05-20_17-04-49_260595134347_rgbf000120-resize_1/000137_2014-05-20_17-04-49_260595134347_rgbf000120-resize_1-target.png,125,3.786,2,2285,139,feet,jsons/VE125_randls_16_rotated.json,659263,865057,35,Woman
136,731323,DepthScenes,duration_manipulation_targetAtFixation,jsons/VE125_randls_16_rotated.json,http://54.235.29.9/FacialAge/BNav_EC2/DepthDuration/v2_depth_duration_MTurk/v2_DepthDuration_HTML.html#366,366,1242,568,1366,768,8-29-2022,6-54-5,137,depth_duration_stimuli/000736_2014-06-08_18-24-15_260595134347_rgbf000206-resize_3/000736_2014-06-08_18-24-15_260595134347_rgbf000206-resize_3-target.png,125,3.515,5,2830,128,feet,jsons/VE125_randls_16_rotated.json,659263,865057,35,Woman
137,731323,DepthScenes,duration_manipulation_targetAtFixation,jsons/VE125_randls_16_rotated.json,http://54.235.29.9/FacialAge/BNav_EC2/DepthDuration/v2_depth_duration_MTurk/v2_DepthDuration_HTML.html#366,366,1242,568,1366,768,8-29-2022,6-54-5,138,depth_duration_stimuli/002340_2014-06-28_20-05-46_260595134347_rgbf000113-resize_0/002340_2014-06-28_20-05-46_260595134347_rgbf000113-resize_0-target.png,125,2.4735,2,2191,128,feet,jsons/VE125_randls_16_rotated.json,659263,865057,35,Woman
138,731323,DepthScenes,duration_manipulation_targetAtFixation,jsons/VE125_randls_16_rotated.json,http://54.235.29.9/FacialAge/BNav_EC2/DepthDuration/v2_depth_duration_MTurk/v2_DepthDuration_HTML.html#366,366,1242,568,1366,768,8-29-2022,6-54-5,139,depth_duration_stimuli/001016_2014-06-09_16-16-10_260595134347_rgbf000112-resize_5/001016_2014-06-09_16-16-10_260595134347_rgbf000112-resize_5-target.png,125,1.6565,1,2410,129,feet,jsons/VE125_randls_16_rotated.json,659263,865057,35,Woman
139,731323,DepthScenes,duration_manipulation_targetAtFixation,jsons/VE125_randls_16_rotated.json,http://54.235.29.9/FacialAge/BNav_EC2/DepthDuration/v2_depth_duration_MTurk/v2_DepthDuration_HTML.html#366,366,1242,568,1366,768,8-29-2022,6-54-5,140,depth_duration_stimuli/000103_2014-05-14_22-01-17_260595134347_rgbf000152-resize_5/000103_2014-05-14_22-01-17_260595134347_rgbf000152-resize_5-target.png,125,1.993,1,4683,116,feet,jsons/VE125_randls_16_rotated.json,659263,865057,35,Woman
140,731323,DepthScenes,duration_manipulation_targetAtFixation,jsons/VE125_randls_16_rotated.json,http://54.235.29.9/FacialAge/BNav_EC2/DepthDuration/v2_depth_duration_MTurk/v2_DepthDuration_HTML.html#366,366,1242,568,1366,768,8-29-2022,6-54-5,141,depth_duration_stimuli/001555_2014-06-20_17-12-10_260595134347_rgbf000065-resize_4/001555_2014-06-20_17-12-10_260595134347_rgbf000065-resize_4-target.png,125,1.633,21,3585,121,feet,jsons/VE125_randls_16_rotated.json,659263,865057,35,Woman
141,731323,DepthScenes,duration_manipulation_targetAtFixation,jsons/VE125_randls_16_rotated.json,http://54.235.29.9/FacialAge/BNav_EC2/DepthDuration/v2_depth_duration_MTurk/v2_DepthDuration_HTML.html#366,366,1242,568,1366,768,8-29-2022,6-54-5,142,depth_duration_stimuli/000665_2014-06-09_20-42-35_260595134347_rgbf000110-resize_1/000665_2014-06-09_20-42-35_260595134347_rgbf000110-resize_1-target.png,125,3.057,4,2657,123,feet,jsons/VE125_randls_16_rotated.json,659263,865057,35,Woman
142,731323,DepthScenes,duration_manipulation_targetAtFixation,jsons/VE125_randls_16_rotated.json,http://54.235.29.9/FacialAge/BNav_EC2/DepthDuration/v2_depth_duration_MTurk/v2_DepthDuration_HTML.html#366,366,1242,568,1366,768,8-29-2022,6-54-5,143,depth_duration_stimuli/001150_2014-06-17_15-27-34_260595134347_rgbf000108-resize_2/001150_2014-06-17_15-27-34_260595134347_rgbf000108-resize_2-target.png,125,4.0325,6,2724,113,feet,jsons/VE125_randls_16_rotated.json,659263,865057,35,Woman
143,731323,DepthScenes,duration_manipulation_targetAtFixation,jsons/VE125_randls_16_rotated.json,http://54.235.29.9/FacialAge/BNav_EC2/DepthDuration/v2_depth_duration_MTurk/v2_DepthDuration_HTML.html#366,366,1242,568,1366,768,8-29-2022,6-54-5,144,depth_duration_stimuli/000483_2014-06-09_20-41-45_260595134347_rgbf000116-resize_4/000483_2014-06-09_20-41-45_260595134347_rgbf000116-resize_4-target.png,125,1.337,2,3013,126,feet,jsons/VE125_randls_16_rotated.json,659263,865057,35,Woman
144,731323,DepthScenes,duration_manipulation_targetAtFixation,jsons/VE125_randls_16_rotated.json,http://54.235.29.9/FacialAge/BNav_EC2/DepthDuration/v2_depth_duration_MTurk/v2_DepthDuration_HTML.html#366,366,1242,568,1366,768,8-29-2022,6-54-5,145,depth_duration_stimuli/000469_2014-06-09_19-42-10_260595134347_rgbf000081-resize_1/000469_2014-06-09_19-42-10_260595134347_rgbf000081-resize_1-target.png,125,1.652,1,2482,119,feet,jsons/VE125_randls_16_rotated.json,659263,865057,35,Woman
145,731323,DepthScenes,duration_manipulation_targetAtFixation,jsons/VE125_randls_16_rotated.json,http://54.235.29.9/FacialAge/BNav_EC2/DepthDuration/v2_depth_duration_MTurk/v2_DepthDuration_HTML.html#366,366,1242,568,1366,768,8-29-2022,6-54-5,146,depth_duration_stimuli/002425_2014-06-28_20-27-29_260595134347_rgbf000031-resize_8/002425_2014-06-28_20-27-29_260595134347_rgbf000031-resize_8-target.png,125,3.8960000000000004,6,3033,121,feet,jsons/VE125_randls_16_rotated.json,659263,865057,35,Woman
146,731323,DepthScenes,duration_manipulation_targetAtFixation,jsons/VE125_randls_16_rotated.json,http://54.235.29.9/FacialAge/BNav_EC2/DepthDuration/v2_depth_duration_MTurk/v2_DepthDuration_HTML.html#366,366,1242,568,1366,768,8-29-2022,6-54-5,147,depth_duration_stimuli/000642_2014-06-08_16-59-25_260595134347_rgbf000098-resize_2/000642_2014-06-08_16-59-25_260595134347_rgbf000098-resize_2-target.png,125,2.8815,2,2433,129,feet,jsons/VE125_randls_16_rotated.json,659263,865057,35,Woman
147,731323,DepthScenes,duration_manipulation_targetAtFixation,jsons/VE125_randls_16_rotated.json,http://54.235.29.9/FacialAge/BNav_EC2/DepthDuration/v2_depth_duration_MTurk/v2_DepthDuration_HTML.html#366,366,1242,568,1366,768,8-29-2022,6-54-5,148,depth_duration_stimuli/003010_2014-06-15_12-54-35_094959634447_rgbf000112-resize_0/003010_2014-06-15_12-54-35_094959634447_rgbf000112-resize_0-target.png,125,3.1185,2,2740,117,feet,jsons/VE125_randls_16_rotated.json,659263,865057,35,Woman
148,731323,DepthScenes,duration_manipulation_targetAtFixation,jsons/VE125_randls_16_rotated.json,http://54.235.29.9/FacialAge/BNav_EC2/DepthDuration/v2_depth_duration_MTurk/v2_DepthDuration_HTML.html#366,366,1242,568,1366,768,8-29-2022,6-54-5,149,depth_duration_stimuli/001810_2014-06-26_20-51-35_260595134347_rgbf000040-resize_3/001810_2014-06-26_20-51-35_260595134347_rgbf000040-resize_3-target.png,125,2.2525,1,2474,126,feet,jsons/VE125_randls_16_rotated.json,659263,865057,35,Woman
149,731323,DepthScenes,duration_manipulation_targetAtFixation,jsons/VE125_randls_16_rotated.json,http://54.235.29.9/FacialAge/BNav_EC2/DepthDuration/v2_depth_duration_MTurk/v2_DepthDuration_HTML.html#366,366,1242,568,1366,768,8-29-2022,6-54-5,150,depth_duration_stimuli/000927_2014-06-09_16-32-30_260595134347_rgbf000123-resize_3/000927_2014-06-09_16-32-30_260595134347_rgbf000123-resize_3-target.png,125,2.6785,5,3023,128,feet,jsons/VE125_randls_16_rotated.json,659263,865057,35,Woman
150,731323,DepthScenes,duration_manipulation_targetAtFixation,jsons/VE125_randls_16_rotated.json,http://54.235.29.9/FacialAge/BNav_EC2/DepthDuration/v2_depth_duration_MTurk/v2_DepthDuration_HTML.html#366,366,1242,568,1366,768,8-29-2022,6-54-5,151,depth_duration_stimuli/001110_2014-06-15_17-25-28_260595134347_rgbf000150-resize_1/001110_2014-06-15_17-25-28_260595134347_rgbf000150-resize_1-target.png,125,1.7115,1,2507,120,feet,jsons/VE125_randls_16_rotated.json,659263,865057,35,Woman
151,731323,DepthScenes,duration_manipulation_targetAtFixation,jsons/VE125_randls_16_rotated.json,http://54.235.29.9/FacialAge/BNav_EC2/DepthDuration/v2_depth_duration_MTurk/v2_DepthDuration_HTML.html#366,366,1242,568,1366,768,8-29-2022,6-54-5,152,depth_duration_stimuli/000569_2014-06-09_22-51-47_260595134347_rgbf000141-resize_3/000569_2014-06-09_22-51-47_260595134347_rgbf000141-resize-original.jpg,125,4.512,0,4517,115,feet,jsons/VE125_randls_16_rotated.json,659263,865057,35,Woman
152,731323,DepthScenes,duration_manipulation_targetAtFixation,jsons/VE125_randls_16_rotated.json,http://54.235.29.9/FacialAge/BNav_EC2/DepthDuration/v2_depth_duration_MTurk/v2_DepthDuration_HTML.html#366,366,1242,568,1366,768,8-29-2022,6-54-5,153,depth_duration_stimuli/003079_2014-06-15_15-18-20_094959634447_rgbf000152-resize_8/003079_2014-06-15_15-18-20_094959634447_rgbf000152-resize_8-target.png,125,2.8775,7,3948,164,feet,jsons/VE125_randls_16_rotated.json,659263,865057,35,Woman
153,731323,DepthScenes,duration_manipulation_targetAtFixation,jsons/VE125_randls_16_rotated.json,http://54.235.29.9/FacialAge/BNav_EC2/DepthDuration/v2_depth_duration_MTurk/v2_DepthDuration_HTML.html#366,366,1242,568,1366,768,8-29-2022,6-54-5,154,depth_duration_stimuli/000506_2014-06-08_23-21-00_260595134347_rgbf000070-resize_7/000506_2014-06-08_23-21-00_260595134347_rgbf000070-resize_7-target.png,125,4.0585,1,2320,136,feet,jsons/VE125_randls_16_rotated.json,659263,865057,35,Woman
154,731323,DepthScenes,duration_manipulation_targetAtFixation,jsons/VE125_randls_16_rotated.json,http://54.235.29.9/FacialAge/BNav_EC2/DepthDuration/v2_depth_duration_MTurk/v2_DepthDuration_HTML.html#366,366,1242,568,1366,768,8-29-2022,6-54-5,155,depth_duration_stimuli/000691_2014-06-08_13-08-50_260595134347_rgbf000132-resize_3/000691_2014-06-08_13-08-50_260595134347_rgbf000132-resize_3-target.png,125,4.1530000000000005,6,3027,133,feet,jsons/VE125_randls_16_rotated.json,659263,865057,35,Woman
155,731323,DepthScenes,duration_manipulation_targetAtFixation,jsons/VE125_randls_16_rotated.json,http://54.235.29.9/FacialAge/BNav_EC2/DepthDuration/v2_depth_duration_MTurk/v2_DepthDuration_HTML.html#366,366,1242,568,1366,768,8-29-2022,6-54-5,156,depth_duration_stimuli/002213_2014-06-28_18-37-58_260595134347_rgbf000055-resize_1/002213_2014-06-28_18-37-58_260595134347_rgbf000055-resize_1-target.png,125,3.62,1,3233,132,feet,jsons/VE125_randls_16_rotated.json,659263,865057,35,Woman
156,731323,DepthScenes,duration_manipulation_targetAtFixation,jsons/VE125_randls_16_rotated.json,http://54.235.29.9/FacialAge/BNav_EC2/DepthDuration/v2_depth_duration_MTurk/v2_DepthDuration_HTML.html#366,366,1242,568,1366,768,8-29-2022,6-54-5,157,depth_duration_stimuli/001828_2014-06-26_21-40-03_260595134347_rgbf000024-resize_0/001828_2014-06-26_21-40-03_260595134347_rgbf000024-resize_0-target.png,125,4.8260000000000005,3,3613,109,feet,jsons/VE125_randls_16_rotated.json,659263,865057,35,Woman
157,731323,DepthScenes,duration_manipulation_targetAtFixation,jsons/VE125_randls_16_rotated.json,http://54.235.29.9/FacialAge/BNav_EC2/DepthDuration/v2_depth_duration_MTurk/v2_DepthDuration_HTML.html#366,366,1242,568,1366,768,8-29-2022,6-54-5,158,depth_duration_stimuli/000009_2014-05-26_14-32-05_260595134347_rgbf000034-resize_3/000009_2014-05-26_14-32-05_260595134347_rgbf000034-resize_3-target.png,125,3.8715,2,3272,124,feet,jsons/VE125_randls_16_rotated.json,659263,865057,35,Woman
158,731323,DepthScenes,duration_manipulation_targetAtFixation,jsons/VE125_randls_16_rotated.json,http://54.235.29.9/FacialAge/BNav_EC2/DepthDuration/v2_depth_duration_MTurk/v2_DepthDuration_HTML.html#366,366,1242,568,1366,768,8-29-2022,6-54-5,159,depth_duration_stimuli/000854_2014-06-09_19-43-13_260595134347_rgbf000066-resize_0/000854_2014-06-09_19-43-13_260595134347_rgbf000066-resize_0-target.png,125,3.068,2,7011,116,feet,jsons/VE125_randls_16_rotated.json,659263,865057,35,Woman
159,731323,DepthScenes,duration_manipulation_targetAtFixation,jsons/VE125_randls_16_rotated.json,http://54.235.29.9/FacialAge/BNav_EC2/DepthDuration/v2_depth_duration_MTurk/v2_DepthDuration_HTML.html#366,366,1242,568,1366,768,8-29-2022,6-54-5,160,depth_duration_stimuli/000758_2014-06-08_22-05-08_260595134347_rgbf000085-resize_0/000758_2014-06-08_22-05-08_260595134347_rgbf000085-resize_0-target.png,125,3.3810000000000002,1,2516,133,feet,jsons/VE125_randls_16_rotated.json,659263,865057,35,Woman
160,731323,DepthScenes,duration_manipulation_targetAtFixation,jsons/VE125_randls_16_rotated.json,http://54.235.29.9/FacialAge/BNav_EC2/DepthDuration/v2_depth_duration_MTurk/v2_DepthDuration_HTML.html#366,366,1242,568,1366,768,8-29-2022,6-54-5,161,depth_duration_stimuli/000409_2014-06-04_19-23-33_260595134347_rgbf000067-resize_0/000409_2014-06-04_19-23-33_260595134347_rgbf000067-resize_0-target.png,125,3.7335,6,3641,124,feet,jsons/VE125_randls_16_rotated.json,659263,865057,35,Woman
161,731323,DepthScenes,duration_manipulation_targetAtFixation,jsons/VE125_randls_16_rotated.json,http://54.235.29.9/FacialAge/BNav_EC2/DepthDuration/v2_depth_duration_MTurk/v2_DepthDuration_HTML.html#366,366,1242,568,1366,768,8-29-2022,6-54-5,162,depth_duration_stimuli/002663_2014-06-13_15-50-26_094959634447_rgbf000075-resize_1/002663_2014-06-13_15-50-26_094959634447_rgbf000075-resize_1-target.png,125,4.7495,1,2746,100,feet,jsons/VE125_randls_16_rotated.json,659263,865057,35,Woman
162,731323,DepthScenes,duration_manipulation_targetAtFixation,jsons/VE125_randls_16_rotated.json,http://54.235.29.9/FacialAge/BNav_EC2/DepthDuration/v2_depth_duration_MTurk/v2_DepthDuration_HTML.html#366,366,1242,568,1366,768,8-29-2022,6-54-5,163,depth_duration_stimuli/002995_2014-06-15_12-31-26_094959634447_rgbf000150-resize_1/002995_2014-06-15_12-31-26_094959634447_rgbf000150-resize_1-target.png,125,3.8360000000000003,6,3995,125,feet,jsons/VE125_randls_16_rotated.json,659263,865057,35,Woman
163,731323,DepthScenes,duration_manipulation_targetAtFixation,jsons/VE125_randls_16_rotated.json,http://54.235.29.9/FacialAge/BNav_EC2/DepthDuration/v2_depth_duration_MTurk/v2_DepthDuration_HTML.html#366,366,1242,568,1366,768,8-29-2022,6-54-5,164,depth_duration_stimuli/002748_2014-06-22_19-07-22_094959634447_rgbf000078-resize_1/002748_2014-06-22_19-07-22_094959634447_rgbf000078-resize_1-target.png,125,4.6705,2,3530,119,feet,jsons/VE125_randls_16_rotated.json,659263,865057,35,Woman
