,subjID,experimentName,versionName,sequenceName,url,selected_row,windowWidth,windowHeight,screenWidth,screenHeight,startDate,startTime,trial,stimulus,duration,actual_depth,depth_estimate,trial_RT,log_sceneDuration,unitSelection,seq_filepath,experimentTime,totalTime,age,gender
0,733185,DepthScenes,duration_manipulation_targetAtFixation,jsons/v1_VE1000_randls_58_rotated.json,http://54.235.29.9/FacialAge/BNav_EC2/DepthDuration/v2_depth_duration_MTurk/v2_DepthDuration_HTML.html#1,1,1364,625,1364,768,8-22-2022,7-58-59,1,depth_duration_stimuli/000742_2014-06-08_18-48-09_260595134347_rgbf000164-resize_4/000742_2014-06-08_18-48-09_260595134347_rgbf000164-resize_4-target.png,1000,4.632,5,9911,995,meters,jsons/v1_VE1000_randls_58_rotated.json,739633,873933,48,Woman
1,733185,DepthScenes,duration_manipulation_targetAtFixation,jsons/v1_VE1000_randls_58_rotated.json,http://54.235.29.9/FacialAge/BNav_EC2/DepthDuration/v2_depth_duration_MTurk/v2_DepthDuration_HTML.html#1,1,1364,625,1364,768,8-22-2022,7-58-59,2,depth_duration_stimuli/001066_2014-06-08_22-03-20_260595134347_rgbf000066-resize_4/001066_2014-06-08_22-03-20_260595134347_rgbf000066-resize_4-target.png,1000,4.2330000000000005,6,3221,997,meters,jsons/v1_VE1000_randls_58_rotated.json,739633,873933,48,Woman
2,733185,DepthScenes,duration_manipulation_targetAtFixation,jsons/v1_VE1000_randls_58_rotated.json,http://54.235.29.9/FacialAge/BNav_EC2/DepthDuration/v2_depth_duration_MTurk/v2_DepthDuration_HTML.html#1,1,1364,625,1364,768,8-22-2022,7-58-59,3,depth_duration_stimuli/001392_2014-06-19_16-07-59_260595134347_rgbf000046-resize_1/001392_2014-06-19_16-07-59_260595134347_rgbf000046-resize_1-target.png,1000,4.135,5,3792,989,meters,jsons/v1_VE1000_randls_58_rotated.json,739633,873933,48,Woman
3,733185,DepthScenes,duration_manipulation_targetAtFixation,jsons/v1_VE1000_randls_58_rotated.json,http://54.235.29.9/FacialAge/BNav_EC2/DepthDuration/v2_depth_duration_MTurk/v2_DepthDuration_HTML.html#1,1,1364,625,1364,768,8-22-2022,7-58-59,4,depth_duration_stimuli/001570_2014-06-20_17-21-09_260595134347_rgbf000135-resize_4/001570_2014-06-20_17-21-09_260595134347_rgbf000135-resize_4-target.png,1000,4.467,6,3308,999,meters,jsons/v1_VE1000_randls_58_rotated.json,739633,873933,48,Woman
4,733185,DepthScenes,duration_manipulation_targetAtFixation,jsons/v1_VE1000_randls_58_rotated.json,http://54.235.29.9/FacialAge/BNav_EC2/DepthDuration/v2_depth_duration_MTurk/v2_DepthDuration_HTML.html#1,1,1364,625,1364,768,8-22-2022,7-58-59,5,depth_duration_stimuli/001815_2014-06-26_20-52-55_260595134347_rgbf000020-resize_0/001815_2014-06-26_20-52-55_260595134347_rgbf000020-resize_0-target.png,1000,3.3865,7,3757,996,meters,jsons/v1_VE1000_randls_58_rotated.json,739633,873933,48,Woman
5,733185,DepthScenes,duration_manipulation_targetAtFixation,jsons/v1_VE1000_randls_58_rotated.json,http://54.235.29.9/FacialAge/BNav_EC2/DepthDuration/v2_depth_duration_MTurk/v2_DepthDuration_HTML.html#1,1,1364,625,1364,768,8-22-2022,7-58-59,6,depth_duration_stimuli/001808_2014-06-26_20-50-58_260595134347_rgbf000029-resize_1/001808_2014-06-26_20-50-58_260595134347_rgbf000029-resize_1-target.png,1000,4.249,6,3175,990,meters,jsons/v1_VE1000_randls_58_rotated.json,739633,873933,48,Woman
6,733185,DepthScenes,duration_manipulation_targetAtFixation,jsons/v1_VE1000_randls_58_rotated.json,http://54.235.29.9/FacialAge/BNav_EC2/DepthDuration/v2_depth_duration_MTurk/v2_DepthDuration_HTML.html#1,1,1364,625,1364,768,8-22-2022,7-58-59,7,depth_duration_stimuli/002660_2014-06-13_15-44-18_094959634447_rgbf001878-resize_2/002660_2014-06-13_15-44-18_094959634447_rgbf001878-resize_2-target.png,1000,3.576,3,3160,1001,meters,jsons/v1_VE1000_randls_58_rotated.json,739633,873933,48,Woman
7,733185,DepthScenes,duration_manipulation_targetAtFixation,jsons/v1_VE1000_randls_58_rotated.json,http://54.235.29.9/FacialAge/BNav_EC2/DepthDuration/v2_depth_duration_MTurk/v2_DepthDuration_HTML.html#1,1,1364,625,1364,768,8-22-2022,7-58-59,8,depth_duration_stimuli/002153_2014-06-25_21-27-18_260595134347_rgbf000038-resize_5/002153_2014-06-25_21-27-18_260595134347_rgbf000038-resize_5-target.png,1000,2.505,10,3555,993,meters,jsons/v1_VE1000_randls_58_rotated.json,739633,873933,48,Woman
8,733185,DepthScenes,duration_manipulation_targetAtFixation,jsons/v1_VE1000_randls_58_rotated.json,http://54.235.29.9/FacialAge/BNav_EC2/DepthDuration/v2_depth_duration_MTurk/v2_DepthDuration_HTML.html#1,1,1364,625,1364,768,8-22-2022,7-58-59,9,depth_duration_stimuli/000749_2014-06-08_21-55-06_260595134347_rgbf000070-resize_2/000749_2014-06-08_21-55-06_260595134347_rgbf000070-resize_2-target.png,1000,2.331,0,3009,994,meters,jsons/v1_VE1000_randls_58_rotated.json,739633,873933,48,Woman
9,733185,DepthScenes,duration_manipulation_targetAtFixation,jsons/v1_VE1000_randls_58_rotated.json,http://54.235.29.9/FacialAge/BNav_EC2/DepthDuration/v2_depth_duration_MTurk/v2_DepthDuration_HTML.html#1,1,1364,625,1364,768,8-22-2022,7-58-59,10,depth_duration_stimuli/002788_2014-06-22_19-36-03_094959634447_rgbf000088-resize_2/002788_2014-06-22_19-36-03_094959634447_rgbf000088-resize_2-target.png,1000,1.6465,6,3263,991,meters,jsons/v1_VE1000_randls_58_rotated.json,739633,873933,48,Woman
10,733185,DepthScenes,duration_manipulation_targetAtFixation,jsons/v1_VE1000_randls_58_rotated.json,http://54.235.29.9/FacialAge/BNav_EC2/DepthDuration/v2_depth_duration_MTurk/v2_DepthDuration_HTML.html#1,1,1364,625,1364,768,8-22-2022,7-58-59,11,depth_duration_stimuli/002323_2014-06-28_20-01-54_260595134347_rgbf000051-resize_4/002323_2014-06-28_20-01-54_260595134347_rgbf000051-resize_4-target.png,1000,3.7310000000000003,5,3096,996,meters,jsons/v1_VE1000_randls_58_rotated.json,739633,873933,48,Woman
11,733185,DepthScenes,duration_manipulation_targetAtFixation,jsons/v1_VE1000_randls_58_rotated.json,http://54.235.29.9/FacialAge/BNav_EC2/DepthDuration/v2_depth_duration_MTurk/v2_DepthDuration_HTML.html#1,1,1364,625,1364,768,8-22-2022,7-58-59,12,depth_duration_stimuli/000917_2014-06-09_22-45-29_260595134347_rgbf000149-resize_3/000917_2014-06-09_22-45-29_260595134347_rgbf000149-resize_3-target.png,1000,4.1865,6,3066,1001,meters,jsons/v1_VE1000_randls_58_rotated.json,739633,873933,48,Woman
12,733185,DepthScenes,duration_manipulation_targetAtFixation,jsons/v1_VE1000_randls_58_rotated.json,http://54.235.29.9/FacialAge/BNav_EC2/DepthDuration/v2_depth_duration_MTurk/v2_DepthDuration_HTML.html#1,1,1364,625,1364,768,8-22-2022,7-58-59,13,depth_duration_stimuli/002136_2014-06-25_21-18-03_260595134347_rgbf000109-resize_3/002136_2014-06-25_21-18-03_260595134347_rgbf000109-resize_3-target.png,1000,1.9569999999999999,3,3472,1000,meters,jsons/v1_VE1000_randls_58_rotated.json,739633,873933,48,Woman
13,733185,DepthScenes,duration_manipulation_targetAtFixation,jsons/v1_VE1000_randls_58_rotated.json,http://54.235.29.9/FacialAge/BNav_EC2/DepthDuration/v2_depth_duration_MTurk/v2_DepthDuration_HTML.html#1,1,1364,625,1364,768,8-22-2022,7-58-59,14,depth_duration_stimuli/002964_2014-06-08_17-46-11_094959634447_rgbf000091-resize_4/002964_2014-06-08_17-46-11_094959634447_rgbf000091-resize_4-target.png,1000,1.6909999999999998,4,3031,995,meters,jsons/v1_VE1000_randls_58_rotated.json,739633,873933,48,Woman
14,733185,DepthScenes,duration_manipulation_targetAtFixation,jsons/v1_VE1000_randls_58_rotated.json,http://54.235.29.9/FacialAge/BNav_EC2/DepthDuration/v2_depth_duration_MTurk/v2_DepthDuration_HTML.html#1,1,1364,625,1364,768,8-22-2022,7-58-59,15,depth_duration_stimuli/000635_2014-06-08_16-38-42_260595134347_rgbf000106-resize_1/000635_2014-06-08_16-38-42_260595134347_rgbf000106-resize_1-target.png,1000,2.074,10,3231,995,meters,jsons/v1_VE1000_randls_58_rotated.json,739633,873933,48,Woman
15,733185,DepthScenes,duration_manipulation_targetAtFixation,jsons/v1_VE1000_randls_58_rotated.json,http://54.235.29.9/FacialAge/BNav_EC2/DepthDuration/v2_depth_duration_MTurk/v2_DepthDuration_HTML.html#1,1,1364,625,1364,768,8-22-2022,7-58-59,16,depth_duration_stimuli/002279_2014-06-28_18-55-32_260595134347_rgbf000040-resize_5/002279_2014-06-28_18-55-32_260595134347_rgbf000040-resize_5-target.png,1000,1.5043333333333,0,2856,1052,meters,jsons/v1_VE1000_randls_58_rotated.json,739633,873933,48,Woman
16,733185,DepthScenes,duration_manipulation_targetAtFixation,jsons/v1_VE1000_randls_58_rotated.json,http://54.235.29.9/FacialAge/BNav_EC2/DepthDuration/v2_depth_duration_MTurk/v2_DepthDuration_HTML.html#1,1,1364,625,1364,768,8-22-2022,7-58-59,17,depth_duration_stimuli/000709_2014-06-08_13-51-55_260595134347_rgbf000068-resize_3/000709_2014-06-08_13-51-55_260595134347_rgbf000068-resize_3-target.png,1000,1.8030000000000002,6,17887,1013,meters,jsons/v1_VE1000_randls_58_rotated.json,739633,873933,48,Woman
17,733185,DepthScenes,duration_manipulation_targetAtFixation,jsons/v1_VE1000_randls_58_rotated.json,http://54.235.29.9/FacialAge/BNav_EC2/DepthDuration/v2_depth_duration_MTurk/v2_DepthDuration_HTML.html#1,1,1364,625,1364,768,8-22-2022,7-58-59,18,depth_duration_stimuli/002057_2014-06-24_21-00-13_260595134347_rgbf000120-resize_1/002057_2014-06-24_21-00-13_260595134347_rgbf000120-resize_1-target.png,1000,2.967,6,4223,998,meters,jsons/v1_VE1000_randls_58_rotated.json,739633,873933,48,Woman
18,733185,DepthScenes,duration_manipulation_targetAtFixation,jsons/v1_VE1000_randls_58_rotated.json,http://54.235.29.9/FacialAge/BNav_EC2/DepthDuration/v2_depth_duration_MTurk/v2_DepthDuration_HTML.html#1,1,1364,625,1364,768,8-22-2022,7-58-59,19,depth_duration_stimuli/001498_2014-06-19_17-45-14_260595134347_rgbf000129-resize_4/001498_2014-06-19_17-45-14_260595134347_rgbf000129-resize-original.jpg,1000,1.4075,7,3406,990,meters,jsons/v1_VE1000_randls_58_rotated.json,739633,873933,48,Woman
19,733185,DepthScenes,duration_manipulation_targetAtFixation,jsons/v1_VE1000_randls_58_rotated.json,http://54.235.29.9/FacialAge/BNav_EC2/DepthDuration/v2_depth_duration_MTurk/v2_DepthDuration_HTML.html#1,1,1364,625,1364,768,8-22-2022,7-58-59,20,depth_duration_stimuli/002875_2014-06-01_15-19-00_094959634447_rgbf000151-resize_1/002875_2014-06-01_15-19-00_094959634447_rgbf000151-resize_1-target.png,1000,1.9675,10,3240,1003,meters,jsons/v1_VE1000_randls_58_rotated.json,739633,873933,48,Woman
20,733185,DepthScenes,duration_manipulation_targetAtFixation,jsons/v1_VE1000_randls_58_rotated.json,http://54.235.29.9/FacialAge/BNav_EC2/DepthDuration/v2_depth_duration_MTurk/v2_DepthDuration_HTML.html#1,1,1364,625,1364,768,8-22-2022,7-58-59,21,depth_duration_stimuli/001011_2014-06-08_23-18-54_260595134347_rgbf000044-resize_4/001011_2014-06-08_23-18-54_260595134347_rgbf000044-resize_4-target.png,1000,2.4730000000000003,45,3423,1001,meters,jsons/v1_VE1000_randls_58_rotated.json,739633,873933,48,Woman
21,733185,DepthScenes,duration_manipulation_targetAtFixation,jsons/v1_VE1000_randls_58_rotated.json,http://54.235.29.9/FacialAge/BNav_EC2/DepthDuration/v2_depth_duration_MTurk/v2_DepthDuration_HTML.html#1,1,1364,625,1364,768,8-22-2022,7-58-59,22,depth_duration_stimuli/000866_2014-06-09_20-45-42_260595134347_rgbf000139-resize_1/000866_2014-06-09_20-45-42_260595134347_rgbf000139-resize_1-target.png,1000,3.2155,15,4428,993,meters,jsons/v1_VE1000_randls_58_rotated.json,739633,873933,48,Woman
22,733185,DepthScenes,duration_manipulation_targetAtFixation,jsons/v1_VE1000_randls_58_rotated.json,http://54.235.29.9/FacialAge/BNav_EC2/DepthDuration/v2_depth_duration_MTurk/v2_DepthDuration_HTML.html#1,1,1364,625,1364,768,8-22-2022,7-58-59,23,depth_duration_stimuli/002989_2014-06-15_12-25-03_094959634447_rgbf000150-resize_3/002989_2014-06-15_12-25-03_094959634447_rgbf000150-resize_3-target.png,1000,4.1975,10,3138,996,meters,jsons/v1_VE1000_randls_58_rotated.json,739633,873933,48,Woman
23,733185,DepthScenes,duration_manipulation_targetAtFixation,jsons/v1_VE1000_randls_58_rotated.json,http://54.235.29.9/FacialAge/BNav_EC2/DepthDuration/v2_depth_duration_MTurk/v2_DepthDuration_HTML.html#1,1,1364,625,1364,768,8-22-2022,7-58-59,24,depth_duration_stimuli/000109_2014-05-14_23-41-52_260595134347_rgbf000035-resize_9/000109_2014-05-14_23-41-52_260595134347_rgbf000035-resize_9-target.png,1000,1.3545,10,3757,1001,meters,jsons/v1_VE1000_randls_58_rotated.json,739633,873933,48,Woman
24,733185,DepthScenes,duration_manipulation_targetAtFixation,jsons/v1_VE1000_randls_58_rotated.json,http://54.235.29.9/FacialAge/BNav_EC2/DepthDuration/v2_depth_duration_MTurk/v2_DepthDuration_HTML.html#1,1,1364,625,1364,768,8-22-2022,7-58-59,25,depth_duration_stimuli/000470_2014-06-09_19-42-40_260595134347_rgbf000094-resize_1/000470_2014-06-09_19-42-40_260595134347_rgbf000094-resize_1-target.png,1000,1.831,6,3188,998,meters,jsons/v1_VE1000_randls_58_rotated.json,739633,873933,48,Woman
25,733185,DepthScenes,duration_manipulation_targetAtFixation,jsons/v1_VE1000_randls_58_rotated.json,http://54.235.29.9/FacialAge/BNav_EC2/DepthDuration/v2_depth_duration_MTurk/v2_DepthDuration_HTML.html#1,1,1364,625,1364,768,8-22-2022,7-58-59,26,depth_duration_stimuli/003587_2014-05-23_16-48-02_094959634447_rgbf002384-resize_2/003587_2014-05-23_16-48-02_094959634447_rgbf002384-resize_2-target.png,1000,1.357,3,3226,998,meters,jsons/v1_VE1000_randls_58_rotated.json,739633,873933,48,Woman
26,733185,DepthScenes,duration_manipulation_targetAtFixation,jsons/v1_VE1000_randls_58_rotated.json,http://54.235.29.9/FacialAge/BNav_EC2/DepthDuration/v2_depth_duration_MTurk/v2_DepthDuration_HTML.html#1,1,1364,625,1364,768,8-22-2022,7-58-59,27,depth_duration_stimuli/001167_2014-06-17_15-38-07_260595134347_rgbf000108-resize_0/001167_2014-06-17_15-38-07_260595134347_rgbf000108-resize_0-target.png,1000,1.8505,10,36583,999,meters,jsons/v1_VE1000_randls_58_rotated.json,739633,873933,48,Woman
27,733185,DepthScenes,duration_manipulation_targetAtFixation,jsons/v1_VE1000_randls_58_rotated.json,http://54.235.29.9/FacialAge/BNav_EC2/DepthDuration/v2_depth_duration_MTurk/v2_DepthDuration_HTML.html#1,1,1364,625,1364,768,8-22-2022,7-58-59,28,depth_duration_stimuli/002103_2014-06-25_20-00-40_260595134347_rgbf000049-resize_0/002103_2014-06-25_20-00-40_260595134347_rgbf000049-resize_0-target.png,1000,4.105,6,3478,999,meters,jsons/v1_VE1000_randls_58_rotated.json,739633,873933,48,Woman
28,733185,DepthScenes,duration_manipulation_targetAtFixation,jsons/v1_VE1000_randls_58_rotated.json,http://54.235.29.9/FacialAge/BNav_EC2/DepthDuration/v2_depth_duration_MTurk/v2_DepthDuration_HTML.html#1,1,1364,625,1364,768,8-22-2022,7-58-59,29,depth_duration_stimuli/002039_2014-06-24_20-22-38_260595134347_rgbf000084-resize_1/002039_2014-06-24_20-22-38_260595134347_rgbf000084-resize_1-target.png,1000,4.408,10,3358,1000,meters,jsons/v1_VE1000_randls_58_rotated.json,739633,873933,48,Woman
29,733185,DepthScenes,duration_manipulation_targetAtFixation,jsons/v1_VE1000_randls_58_rotated.json,http://54.235.29.9/FacialAge/BNav_EC2/DepthDuration/v2_depth_duration_MTurk/v2_DepthDuration_HTML.html#1,1,1364,625,1364,768,8-22-2022,7-58-59,30,depth_duration_stimuli/002072_2014-06-24_21-48-06_260595134347_rgbf000115-resize_0/002072_2014-06-24_21-48-06_260595134347_rgbf000115-resize-original.jpg,1000,4.702,6,3121,1031,meters,jsons/v1_VE1000_randls_58_rotated.json,739633,873933,48,Woman
30,733185,DepthScenes,duration_manipulation_targetAtFixation,jsons/v1_VE1000_randls_58_rotated.json,http://54.235.29.9/FacialAge/BNav_EC2/DepthDuration/v2_depth_duration_MTurk/v2_DepthDuration_HTML.html#1,1,1364,625,1364,768,8-22-2022,7-58-59,31,depth_duration_stimuli/003129_2014-05-12_10-48-10_094959634447_rgbf000100-resize_0/003129_2014-05-12_10-48-10_094959634447_rgbf000100-resize_0-target.png,1000,4.9305,9,3178,997,meters,jsons/v1_VE1000_randls_58_rotated.json,739633,873933,48,Woman
31,733185,DepthScenes,duration_manipulation_targetAtFixation,jsons/v1_VE1000_randls_58_rotated.json,http://54.235.29.9/FacialAge/BNav_EC2/DepthDuration/v2_depth_duration_MTurk/v2_DepthDuration_HTML.html#1,1,1364,625,1364,768,8-22-2022,7-58-59,32,depth_duration_stimuli/000414_2014-06-04_19-49-13_260595134347_rgbf000044-resize_0/000414_2014-06-04_19-49-13_260595134347_rgbf000044-resize_0-target.png,1000,4.329,10,3193,1003,meters,jsons/v1_VE1000_randls_58_rotated.json,739633,873933,48,Woman
32,733185,DepthScenes,duration_manipulation_targetAtFixation,jsons/v1_VE1000_randls_58_rotated.json,http://54.235.29.9/FacialAge/BNav_EC2/DepthDuration/v2_depth_duration_MTurk/v2_DepthDuration_HTML.html#1,1,1364,625,1364,768,8-22-2022,7-58-59,33,depth_duration_stimuli/002637_2014-06-24_14-51-13_094959634447_rgbf000066-resize_4/002637_2014-06-24_14-51-13_094959634447_rgbf000066-resize_4-target.png,1000,1.9955,6,3293,1002,meters,jsons/v1_VE1000_randls_58_rotated.json,739633,873933,48,Woman
33,733185,DepthScenes,duration_manipulation_targetAtFixation,jsons/v1_VE1000_randls_58_rotated.json,http://54.235.29.9/FacialAge/BNav_EC2/DepthDuration/v2_depth_duration_MTurk/v2_DepthDuration_HTML.html#1,1,1364,625,1364,768,8-22-2022,7-58-59,34,depth_duration_stimuli/003534_2014-05-22_15-06-10_094959634447_rgbf000102-resize_4/003534_2014-05-22_15-06-10_094959634447_rgbf000102-resize_4-target.png,1000,1.426,4,3014,995,meters,jsons/v1_VE1000_randls_58_rotated.json,739633,873933,48,Woman
34,733185,DepthScenes,duration_manipulation_targetAtFixation,jsons/v1_VE1000_randls_58_rotated.json,http://54.235.29.9/FacialAge/BNav_EC2/DepthDuration/v2_depth_duration_MTurk/v2_DepthDuration_HTML.html#1,1,1364,625,1364,768,8-22-2022,7-58-59,35,depth_duration_stimuli/002953_2014-06-08_17-32-18_094959634447_rgbf000059-resize_5/002953_2014-06-08_17-32-18_094959634447_rgbf000059-resize_5-target.png,1000,1.551,5,3223,1013,meters,jsons/v1_VE1000_randls_58_rotated.json,739633,873933,48,Woman
35,733185,DepthScenes,duration_manipulation_targetAtFixation,jsons/v1_VE1000_randls_58_rotated.json,http://54.235.29.9/FacialAge/BNav_EC2/DepthDuration/v2_depth_duration_MTurk/v2_DepthDuration_HTML.html#1,1,1364,625,1364,768,8-22-2022,7-58-59,36,depth_duration_stimuli/000878_2014-06-08_22-52-45_260595134347_rgbf000045-resize_2/000878_2014-06-08_22-52-45_260595134347_rgbf000045-resize_2-target.png,1000,2.092,6,3331,996,meters,jsons/v1_VE1000_randls_58_rotated.json,739633,873933,48,Woman
36,733185,DepthScenes,duration_manipulation_targetAtFixation,jsons/v1_VE1000_randls_58_rotated.json,http://54.235.29.9/FacialAge/BNav_EC2/DepthDuration/v2_depth_duration_MTurk/v2_DepthDuration_HTML.html#1,1,1364,625,1364,768,8-22-2022,7-58-59,37,depth_duration_stimuli/002750_2014-06-22_19-08-03_094959634447_rgbf000094-resize_4/002750_2014-06-22_19-08-03_094959634447_rgbf000094-resize_4-target.png,1000,2.354,3,3583,999,meters,jsons/v1_VE1000_randls_58_rotated.json,739633,873933,48,Woman
37,733185,DepthScenes,duration_manipulation_targetAtFixation,jsons/v1_VE1000_randls_58_rotated.json,http://54.235.29.9/FacialAge/BNav_EC2/DepthDuration/v2_depth_duration_MTurk/v2_DepthDuration_HTML.html#1,1,1364,625,1364,768,8-22-2022,7-58-59,38,depth_duration_stimuli/002549_2014-06-24_13-41-39_094959634447_rgbf000022-resize_3/002549_2014-06-24_13-41-39_094959634447_rgbf000022-resize_3-target.png,1000,1.476,6,4101,987,meters,jsons/v1_VE1000_randls_58_rotated.json,739633,873933,48,Woman
38,733185,DepthScenes,duration_manipulation_targetAtFixation,jsons/v1_VE1000_randls_58_rotated.json,http://54.235.29.9/FacialAge/BNav_EC2/DepthDuration/v2_depth_duration_MTurk/v2_DepthDuration_HTML.html#1,1,1364,625,1364,768,8-22-2022,7-58-59,39,depth_duration_stimuli/003010_2014-06-15_12-54-35_094959634447_rgbf000112-resize_0/003010_2014-06-15_12-54-35_094959634447_rgbf000112-resize_0-target.png,1000,3.1185,3,3275,1006,meters,jsons/v1_VE1000_randls_58_rotated.json,739633,873933,48,Woman
39,733185,DepthScenes,duration_manipulation_targetAtFixation,jsons/v1_VE1000_randls_58_rotated.json,http://54.235.29.9/FacialAge/BNav_EC2/DepthDuration/v2_depth_duration_MTurk/v2_DepthDuration_HTML.html#1,1,1364,625,1364,768,8-22-2022,7-58-59,40,depth_duration_stimuli/001810_2014-06-26_20-51-35_260595134347_rgbf000040-resize_3/001810_2014-06-26_20-51-35_260595134347_rgbf000040-resize_3-target.png,1000,2.2525,5,3160,998,meters,jsons/v1_VE1000_randls_58_rotated.json,739633,873933,48,Woman
40,733185,DepthScenes,duration_manipulation_targetAtFixation,jsons/v1_VE1000_randls_58_rotated.json,http://54.235.29.9/FacialAge/BNav_EC2/DepthDuration/v2_depth_duration_MTurk/v2_DepthDuration_HTML.html#1,1,1364,625,1364,768,8-22-2022,7-58-59,41,depth_duration_stimuli/000927_2014-06-09_16-32-30_260595134347_rgbf000123-resize_3/000927_2014-06-09_16-32-30_260595134347_rgbf000123-resize_3-target.png,1000,2.6785,9,3226,993,meters,jsons/v1_VE1000_randls_58_rotated.json,739633,873933,48,Woman
41,733185,DepthScenes,duration_manipulation_targetAtFixation,jsons/v1_VE1000_randls_58_rotated.json,http://54.235.29.9/FacialAge/BNav_EC2/DepthDuration/v2_depth_duration_MTurk/v2_DepthDuration_HTML.html#1,1,1364,625,1364,768,8-22-2022,7-58-59,42,depth_duration_stimuli/001110_2014-06-15_17-25-28_260595134347_rgbf000150-resize_1/001110_2014-06-15_17-25-28_260595134347_rgbf000150-resize_1-target.png,1000,1.7115,3,3124,999,meters,jsons/v1_VE1000_randls_58_rotated.json,739633,873933,48,Woman
42,733185,DepthScenes,duration_manipulation_targetAtFixation,jsons/v1_VE1000_randls_58_rotated.json,http://54.235.29.9/FacialAge/BNav_EC2/DepthDuration/v2_depth_duration_MTurk/v2_DepthDuration_HTML.html#1,1,1364,625,1364,768,8-22-2022,7-58-59,43,depth_duration_stimuli/000137_2014-05-20_17-04-49_260595134347_rgbf000120-resize_1/000137_2014-05-20_17-04-49_260595134347_rgbf000120-resize_1-target.png,1000,3.786,10,3364,1008,meters,jsons/v1_VE1000_randls_58_rotated.json,739633,873933,48,Woman
43,733185,DepthScenes,duration_manipulation_targetAtFixation,jsons/v1_VE1000_randls_58_rotated.json,http://54.235.29.9/FacialAge/BNav_EC2/DepthDuration/v2_depth_duration_MTurk/v2_DepthDuration_HTML.html#1,1,1364,625,1364,768,8-22-2022,7-58-59,44,depth_duration_stimuli/000736_2014-06-08_18-24-15_260595134347_rgbf000206-resize_3/000736_2014-06-08_18-24-15_260595134347_rgbf000206-resize_3-target.png,1000,3.515,15,3409,1002,meters,jsons/v1_VE1000_randls_58_rotated.json,739633,873933,48,Woman
44,733185,DepthScenes,duration_manipulation_targetAtFixation,jsons/v1_VE1000_randls_58_rotated.json,http://54.235.29.9/FacialAge/BNav_EC2/DepthDuration/v2_depth_duration_MTurk/v2_DepthDuration_HTML.html#1,1,1364,625,1364,768,8-22-2022,7-58-59,45,depth_duration_stimuli/001136_2014-06-17_15-19-41_260595134347_rgbf000076-resize_3/001136_2014-06-17_15-19-41_260595134347_rgbf000076-resize_3-target.png,1000,1.8655,20,3300,1000,meters,jsons/v1_VE1000_randls_58_rotated.json,739633,873933,48,Woman
45,733185,DepthScenes,duration_manipulation_targetAtFixation,jsons/v1_VE1000_randls_58_rotated.json,http://54.235.29.9/FacialAge/BNav_EC2/DepthDuration/v2_depth_duration_MTurk/v2_DepthDuration_HTML.html#1,1,1364,625,1364,768,8-22-2022,7-58-59,46,depth_duration_stimuli/001164_2014-06-17_15-35-46_260595134347_rgbf000085-resize_3/001164_2014-06-17_15-35-46_260595134347_rgbf000085-resize_3-target.png,1000,2.354,0,3317,1000,meters,jsons/v1_VE1000_randls_58_rotated.json,739633,873933,48,Woman
46,733185,DepthScenes,duration_manipulation_targetAtFixation,jsons/v1_VE1000_randls_58_rotated.json,http://54.235.29.9/FacialAge/BNav_EC2/DepthDuration/v2_depth_duration_MTurk/v2_DepthDuration_HTML.html#1,1,1364,625,1364,768,8-22-2022,7-58-59,47,depth_duration_stimuli/002639_2014-06-24_14-51-37_094959634447_rgbf000074-resize_4/002639_2014-06-24_14-51-37_094959634447_rgbf000074-resize_4-target.png,1000,4.0375,0,3038,1006,meters,jsons/v1_VE1000_randls_58_rotated.json,739633,873933,48,Woman
47,733185,DepthScenes,duration_manipulation_targetAtFixation,jsons/v1_VE1000_randls_58_rotated.json,http://54.235.29.9/FacialAge/BNav_EC2/DepthDuration/v2_depth_duration_MTurk/v2_DepthDuration_HTML.html#1,1,1364,625,1364,768,8-22-2022,7-58-59,48,depth_duration_stimuli/003292_2014-05-14_21-53-49_094959634447_rgbf000100-resize_2/003292_2014-05-14_21-53-49_094959634447_rgbf000100-resize_2-target.png,1000,3.4815,10,3105,1002,meters,jsons/v1_VE1000_randls_58_rotated.json,739633,873933,48,Woman
48,733185,DepthScenes,duration_manipulation_targetAtFixation,jsons/v1_VE1000_randls_58_rotated.json,http://54.235.29.9/FacialAge/BNav_EC2/DepthDuration/v2_depth_duration_MTurk/v2_DepthDuration_HTML.html#1,1,1364,625,1364,768,8-22-2022,7-58-59,49,depth_duration_stimuli/001170_2014-06-17_15-43-44_260595134347_rgbf000096-resize_6/001170_2014-06-17_15-43-44_260595134347_rgbf000096-resize-original.jpg,1000,1.1909999999999998,6,3881,1003,meters,jsons/v1_VE1000_randls_58_rotated.json,739633,873933,48,Woman
49,733185,DepthScenes,duration_manipulation_targetAtFixation,jsons/v1_VE1000_randls_58_rotated.json,http://54.235.29.9/FacialAge/BNav_EC2/DepthDuration/v2_depth_duration_MTurk/v2_DepthDuration_HTML.html#1,1,1364,625,1364,768,8-22-2022,7-58-59,50,depth_duration_stimuli/000409_2014-06-04_19-23-33_260595134347_rgbf000067-resize_0/000409_2014-06-04_19-23-33_260595134347_rgbf000067-resize_0-target.png,1000,3.7335,4,3616,1010,meters,jsons/v1_VE1000_randls_58_rotated.json,739633,873933,48,Woman
50,733185,DepthScenes,duration_manipulation_targetAtFixation,jsons/v1_VE1000_randls_58_rotated.json,http://54.235.29.9/FacialAge/BNav_EC2/DepthDuration/v2_depth_duration_MTurk/v2_DepthDuration_HTML.html#1,1,1364,625,1364,768,8-22-2022,7-58-59,51,depth_duration_stimuli/002663_2014-06-13_15-50-26_094959634447_rgbf000075-resize_1/002663_2014-06-13_15-50-26_094959634447_rgbf000075-resize_1-target.png,1000,4.7495,10,3218,998,meters,jsons/v1_VE1000_randls_58_rotated.json,739633,873933,48,Woman
51,733185,DepthScenes,duration_manipulation_targetAtFixation,jsons/v1_VE1000_randls_58_rotated.json,http://54.235.29.9/FacialAge/BNav_EC2/DepthDuration/v2_depth_duration_MTurk/v2_DepthDuration_HTML.html#1,1,1364,625,1364,768,8-22-2022,7-58-59,52,depth_duration_stimuli/000556_2014-06-09_22-42-56_260595134347_rgbf000214-resize_1/000556_2014-06-09_22-42-56_260595134347_rgbf000214-resize_1-target.png,1000,4.8415,0,3049,1001,meters,jsons/v1_VE1000_randls_58_rotated.json,739633,873933,48,Woman
52,733185,DepthScenes,duration_manipulation_targetAtFixation,jsons/v1_VE1000_randls_58_rotated.json,http://54.235.29.9/FacialAge/BNav_EC2/DepthDuration/v2_depth_duration_MTurk/v2_DepthDuration_HTML.html#1,1,1364,625,1364,768,8-22-2022,7-58-59,53,depth_duration_stimuli/001158_2014-06-17_15-32-16_260595134347_rgbf000138-resize_2/001158_2014-06-17_15-32-16_260595134347_rgbf000138-resize_2-target.png,1000,4.5315,3,3269,998,meters,jsons/v1_VE1000_randls_58_rotated.json,739633,873933,48,Woman
53,733185,DepthScenes,duration_manipulation_targetAtFixation,jsons/v1_VE1000_randls_58_rotated.json,http://54.235.29.9/FacialAge/BNav_EC2/DepthDuration/v2_depth_duration_MTurk/v2_DepthDuration_HTML.html#1,1,1364,625,1364,768,8-22-2022,7-58-59,54,depth_duration_stimuli/001032_2014-06-08_13-23-17_260595134347_rgbf000021-resize_3/001032_2014-06-08_13-23-17_260595134347_rgbf000021-resize_3-target.png,1000,3.2725,5,3478,1014,meters,jsons/v1_VE1000_randls_58_rotated.json,739633,873933,48,Woman
54,733185,DepthScenes,duration_manipulation_targetAtFixation,jsons/v1_VE1000_randls_58_rotated.json,http://54.235.29.9/FacialAge/BNav_EC2/DepthDuration/v2_depth_duration_MTurk/v2_DepthDuration_HTML.html#1,1,1364,625,1364,768,8-22-2022,7-58-59,55,depth_duration_stimuli/001059_2014-06-08_21-53-27_260595134347_rgbf000061-resize_4/001059_2014-06-08_21-53-27_260595134347_rgbf000061-resize_4-target.png,1000,2.4185,7,2969,996,meters,jsons/v1_VE1000_randls_58_rotated.json,739633,873933,48,Woman
55,733185,DepthScenes,duration_manipulation_targetAtFixation,jsons/v1_VE1000_randls_58_rotated.json,http://54.235.29.9/FacialAge/BNav_EC2/DepthDuration/v2_depth_duration_MTurk/v2_DepthDuration_HTML.html#1,1,1364,625,1364,768,8-22-2022,7-58-59,56,depth_duration_stimuli/002209_2014-06-28_18-36-10_260595134347_rgbf000051-resize_1/002209_2014-06-28_18-36-10_260595134347_rgbf000051-resize_1-target.png,1000,2.057,8,2906,808,meters,jsons/v1_VE1000_randls_58_rotated.json,739633,873933,48,Woman
56,733185,DepthScenes,duration_manipulation_targetAtFixation,jsons/v1_VE1000_randls_58_rotated.json,http://54.235.29.9/FacialAge/BNav_EC2/DepthDuration/v2_depth_duration_MTurk/v2_DepthDuration_HTML.html#1,1,1364,625,1364,768,8-22-2022,7-58-59,57,depth_duration_stimuli/002763_2014-06-22_19-13-10_094959634447_rgbf000075-resize_4/002763_2014-06-22_19-13-10_094959634447_rgbf000075-resize_4-target.png,1000,1.68375,9,2976,1012,meters,jsons/v1_VE1000_randls_58_rotated.json,739633,873933,48,Woman
57,733185,DepthScenes,duration_manipulation_targetAtFixation,jsons/v1_VE1000_randls_58_rotated.json,http://54.235.29.9/FacialAge/BNav_EC2/DepthDuration/v2_depth_duration_MTurk/v2_DepthDuration_HTML.html#1,1,1364,625,1364,768,8-22-2022,7-58-59,58,depth_duration_stimuli/000549_2014-06-08_22-10-24_260595134347_rgbf000247-resize_3/000549_2014-06-08_22-10-24_260595134347_rgbf000247-resize_3-target.png,1000,1.841,6,3524,993,meters,jsons/v1_VE1000_randls_58_rotated.json,739633,873933,48,Woman
58,733185,DepthScenes,duration_manipulation_targetAtFixation,jsons/v1_VE1000_randls_58_rotated.json,http://54.235.29.9/FacialAge/BNav_EC2/DepthDuration/v2_depth_duration_MTurk/v2_DepthDuration_HTML.html#1,1,1364,625,1364,768,8-22-2022,7-58-59,59,depth_duration_stimuli/001055_2014-06-08_18-45-35_260595134347_rgbf000111-resize_4/001055_2014-06-08_18-45-35_260595134347_rgbf000111-resize_4-target.png,1000,2.4290000000000003,6,3127,997,meters,jsons/v1_VE1000_randls_58_rotated.json,739633,873933,48,Woman
59,733185,DepthScenes,duration_manipulation_targetAtFixation,jsons/v1_VE1000_randls_58_rotated.json,http://54.235.29.9/FacialAge/BNav_EC2/DepthDuration/v2_depth_duration_MTurk/v2_DepthDuration_HTML.html#1,1,1364,625,1364,768,8-22-2022,7-58-59,60,depth_duration_stimuli/002758_2014-06-22_19-11-20_094959634447_rgbf000128-resize_1/002758_2014-06-22_19-11-20_094959634447_rgbf000128-resize_1-target.png,1000,2.555,3,3268,998,meters,jsons/v1_VE1000_randls_58_rotated.json,739633,873933,48,Woman
60,733185,DepthScenes,duration_manipulation_targetAtFixation,jsons/v1_VE1000_randls_58_rotated.json,http://54.235.29.9/FacialAge/BNav_EC2/DepthDuration/v2_depth_duration_MTurk/v2_DepthDuration_HTML.html#1,1,1364,625,1364,768,8-22-2022,7-58-59,61,depth_duration_stimuli/002630_2014-06-24_14-47-50_094959634447_rgbf000055-resize_1/002630_2014-06-24_14-47-50_094959634447_rgbf000055-resize_1-target.png,1000,3.0095,6,4507,1002,meters,jsons/v1_VE1000_randls_58_rotated.json,739633,873933,48,Woman
61,733185,DepthScenes,duration_manipulation_targetAtFixation,jsons/v1_VE1000_randls_58_rotated.json,http://54.235.29.9/FacialAge/BNav_EC2/DepthDuration/v2_depth_duration_MTurk/v2_DepthDuration_HTML.html#1,1,1364,625,1364,768,8-22-2022,7-58-59,62,depth_duration_stimuli/001828_2014-06-26_21-40-03_260595134347_rgbf000024-resize_0/001828_2014-06-26_21-40-03_260595134347_rgbf000024-resize_0-target.png,1000,4.8260000000000005,5,3242,996,meters,jsons/v1_VE1000_randls_58_rotated.json,739633,873933,48,Woman
62,733185,DepthScenes,duration_manipulation_targetAtFixation,jsons/v1_VE1000_randls_58_rotated.json,http://54.235.29.9/FacialAge/BNav_EC2/DepthDuration/v2_depth_duration_MTurk/v2_DepthDuration_HTML.html#1,1,1364,625,1364,768,8-22-2022,7-58-59,63,depth_duration_stimuli/000009_2014-05-26_14-32-05_260595134347_rgbf000034-resize_3/000009_2014-05-26_14-32-05_260595134347_rgbf000034-resize_3-target.png,1000,3.8715,9,3398,986,meters,jsons/v1_VE1000_randls_58_rotated.json,739633,873933,48,Woman
63,733185,DepthScenes,duration_manipulation_targetAtFixation,jsons/v1_VE1000_randls_58_rotated.json,http://54.235.29.9/FacialAge/BNav_EC2/DepthDuration/v2_depth_duration_MTurk/v2_DepthDuration_HTML.html#1,1,1364,625,1364,768,8-22-2022,7-58-59,64,depth_duration_stimuli/003079_2014-06-15_15-18-20_094959634447_rgbf000152-resize_8/003079_2014-06-15_15-18-20_094959634447_rgbf000152-resize_8-target.png,1000,2.8775,10,3345,998,meters,jsons/v1_VE1000_randls_58_rotated.json,739633,873933,48,Woman
64,733185,DepthScenes,duration_manipulation_targetAtFixation,jsons/v1_VE1000_randls_58_rotated.json,http://54.235.29.9/FacialAge/BNav_EC2/DepthDuration/v2_depth_duration_MTurk/v2_DepthDuration_HTML.html#1,1,1364,625,1364,768,8-22-2022,7-58-59,65,depth_duration_stimuli/000506_2014-06-08_23-21-00_260595134347_rgbf000070-resize_7/000506_2014-06-08_23-21-00_260595134347_rgbf000070-resize_7-target.png,1000,4.0585,6,3081,1002,meters,jsons/v1_VE1000_randls_58_rotated.json,739633,873933,48,Woman
65,733185,DepthScenes,duration_manipulation_targetAtFixation,jsons/v1_VE1000_randls_58_rotated.json,http://54.235.29.9/FacialAge/BNav_EC2/DepthDuration/v2_depth_duration_MTurk/v2_DepthDuration_HTML.html#1,1,1364,625,1364,768,8-22-2022,7-58-59,66,depth_duration_stimuli/001540_2014-06-20_17-01-05_260595134347_rgbf000086-resize_2/001540_2014-06-20_17-01-05_260595134347_rgbf000086-resize-original.jpg,1000,1.459,7,3370,999,meters,jsons/v1_VE1000_randls_58_rotated.json,739633,873933,48,Woman
66,733185,DepthScenes,duration_manipulation_targetAtFixation,jsons/v1_VE1000_randls_58_rotated.json,http://54.235.29.9/FacialAge/BNav_EC2/DepthDuration/v2_depth_duration_MTurk/v2_DepthDuration_HTML.html#1,1,1364,625,1364,768,8-22-2022,7-58-59,67,depth_duration_stimuli/003423_2014-05-21_10-23-26_094959634447_rgbf002665-resize_2/003423_2014-05-21_10-23-26_094959634447_rgbf002665-resize_2-target.png,1000,3.2575,8,3945,1000,meters,jsons/v1_VE1000_randls_58_rotated.json,739633,873933,48,Woman
67,733185,DepthScenes,duration_manipulation_targetAtFixation,jsons/v1_VE1000_randls_58_rotated.json,http://54.235.29.9/FacialAge/BNav_EC2/DepthDuration/v2_depth_duration_MTurk/v2_DepthDuration_HTML.html#1,1,1364,625,1364,768,8-22-2022,7-58-59,68,depth_duration_stimuli/002905_2014-06-03_18-04-43_094959634447_rgbf000151-resize_2/002905_2014-06-03_18-04-43_094959634447_rgbf000151-resize_2-target.png,1000,2.0295,9,4003,1004,meters,jsons/v1_VE1000_randls_58_rotated.json,739633,873933,48,Woman
68,733185,DepthScenes,duration_manipulation_targetAtFixation,jsons/v1_VE1000_randls_58_rotated.json,http://54.235.29.9/FacialAge/BNav_EC2/DepthDuration/v2_depth_duration_MTurk/v2_DepthDuration_HTML.html#1,1,1364,625,1364,768,8-22-2022,7-58-59,69,depth_duration_stimuli/000854_2014-06-09_19-43-13_260595134347_rgbf000066-resize_0/000854_2014-06-09_19-43-13_260595134347_rgbf000066-resize_0-target.png,1000,3.068,6,3162,995,meters,jsons/v1_VE1000_randls_58_rotated.json,739633,873933,48,Woman
69,733185,DepthScenes,duration_manipulation_targetAtFixation,jsons/v1_VE1000_randls_58_rotated.json,http://54.235.29.9/FacialAge/BNav_EC2/DepthDuration/v2_depth_duration_MTurk/v2_DepthDuration_HTML.html#1,1,1364,625,1364,768,8-22-2022,7-58-59,70,depth_duration_stimuli/000758_2014-06-08_22-05-08_260595134347_rgbf000085-resize_0/000758_2014-06-08_22-05-08_260595134347_rgbf000085-resize_0-target.png,1000,3.3810000000000002,10,10627,1000,meters,jsons/v1_VE1000_randls_58_rotated.json,739633,873933,48,Woman
70,733185,DepthScenes,duration_manipulation_targetAtFixation,jsons/v1_VE1000_randls_58_rotated.json,http://54.235.29.9/FacialAge/BNav_EC2/DepthDuration/v2_depth_duration_MTurk/v2_DepthDuration_HTML.html#1,1,1364,625,1364,768,8-22-2022,7-58-59,71,depth_duration_stimuli/000502_2014-06-08_23-02-32_260595134347_rgbf000063-resize_4/000502_2014-06-08_23-02-32_260595134347_rgbf000063-resize_4-target.png,1000,2.431,5,3561,998,meters,jsons/v1_VE1000_randls_58_rotated.json,739633,873933,48,Woman
71,733185,DepthScenes,duration_manipulation_targetAtFixation,jsons/v1_VE1000_randls_58_rotated.json,http://54.235.29.9/FacialAge/BNav_EC2/DepthDuration/v2_depth_duration_MTurk/v2_DepthDuration_HTML.html#1,1,1364,625,1364,768,8-22-2022,7-58-59,72,depth_duration_stimuli/001199_2014-06-17_16-03-48_260595134347_rgbf000077-resize_0/001199_2014-06-17_16-03-48_260595134347_rgbf000077-resize_0-target.png,1000,3.4375,6,3145,1000,meters,jsons/v1_VE1000_randls_58_rotated.json,739633,873933,48,Woman
72,733185,DepthScenes,duration_manipulation_targetAtFixation,jsons/v1_VE1000_randls_58_rotated.json,http://54.235.29.9/FacialAge/BNav_EC2/DepthDuration/v2_depth_duration_MTurk/v2_DepthDuration_HTML.html#1,1,1364,625,1364,768,8-22-2022,7-58-59,73,depth_duration_stimuli/001571_2014-06-20_17-21-32_260595134347_rgbf000089-resize_1/001571_2014-06-20_17-21-32_260595134347_rgbf000089-resize_1-target.png,1000,1.86,5,3174,1000,meters,jsons/v1_VE1000_randls_58_rotated.json,739633,873933,48,Woman
73,733185,DepthScenes,duration_manipulation_targetAtFixation,jsons/v1_VE1000_randls_58_rotated.json,http://54.235.29.9/FacialAge/BNav_EC2/DepthDuration/v2_depth_duration_MTurk/v2_DepthDuration_HTML.html#1,1,1364,625,1364,768,8-22-2022,7-58-59,74,depth_duration_stimuli/002272_2014-06-28_18-53-56_260595134347_rgbf000067-resize_2/002272_2014-06-28_18-53-56_260595134347_rgbf000067-resize_2-target.png,1000,1.138,3,3065,1000,meters,jsons/v1_VE1000_randls_58_rotated.json,739633,873933,48,Woman
74,733185,DepthScenes,duration_manipulation_targetAtFixation,jsons/v1_VE1000_randls_58_rotated.json,http://54.235.29.9/FacialAge/BNav_EC2/DepthDuration/v2_depth_duration_MTurk/v2_DepthDuration_HTML.html#1,1,1364,625,1364,768,8-22-2022,7-58-59,75,depth_duration_stimuli/002995_2014-06-15_12-31-26_094959634447_rgbf000150-resize_1/002995_2014-06-15_12-31-26_094959634447_rgbf000150-resize_1-target.png,1000,3.8360000000000003,0,7000,999,meters,jsons/v1_VE1000_randls_58_rotated.json,739633,873933,48,Woman
75,733185,DepthScenes,duration_manipulation_targetAtFixation,jsons/v1_VE1000_randls_58_rotated.json,http://54.235.29.9/FacialAge/BNav_EC2/DepthDuration/v2_depth_duration_MTurk/v2_DepthDuration_HTML.html#1,1,1364,625,1364,768,8-22-2022,7-58-59,76,depth_duration_stimuli/002748_2014-06-22_19-07-22_094959634447_rgbf000078-resize_1/002748_2014-06-22_19-07-22_094959634447_rgbf000078-resize_1-target.png,1000,4.6705,0,3354,1001,meters,jsons/v1_VE1000_randls_58_rotated.json,739633,873933,48,Woman
76,733185,DepthScenes,duration_manipulation_targetAtFixation,jsons/v1_VE1000_randls_58_rotated.json,http://54.235.29.9/FacialAge/BNav_EC2/DepthDuration/v2_depth_duration_MTurk/v2_DepthDuration_HTML.html#1,1,1364,625,1364,768,8-22-2022,7-58-59,77,depth_duration_stimuli/002467_2014-06-28_20-38-07_260595134347_rgbf000026-resize_2/002467_2014-06-28_20-38-07_260595134347_rgbf000026-resize_2-target.png,1000,4.742,10,3664,1008,meters,jsons/v1_VE1000_randls_58_rotated.json,739633,873933,48,Woman
77,733185,DepthScenes,duration_manipulation_targetAtFixation,jsons/v1_VE1000_randls_58_rotated.json,http://54.235.29.9/FacialAge/BNav_EC2/DepthDuration/v2_depth_duration_MTurk/v2_DepthDuration_HTML.html#1,1,1364,625,1364,768,8-22-2022,7-58-59,78,depth_duration_stimuli/002570_2014-06-24_13-59-54_094959634447_rgbf000059-resize_0/002570_2014-06-24_13-59-54_094959634447_rgbf000059-resize_0-target.png,1000,4.037,5,3441,997,meters,jsons/v1_VE1000_randls_58_rotated.json,739633,873933,48,Woman
78,733185,DepthScenes,duration_manipulation_targetAtFixation,jsons/v1_VE1000_randls_58_rotated.json,http://54.235.29.9/FacialAge/BNav_EC2/DepthDuration/v2_depth_duration_MTurk/v2_DepthDuration_HTML.html#1,1,1364,625,1364,768,8-22-2022,7-58-59,79,depth_duration_stimuli/002805_2014-06-22_19-54-03_094959634447_rgbf000079-resize_1/002805_2014-06-22_19-54-03_094959634447_rgbf000079-resize_1-target.png,1000,3.1439999999999997,6,3683,1010,meters,jsons/v1_VE1000_randls_58_rotated.json,739633,873933,48,Woman
79,733185,DepthScenes,duration_manipulation_targetAtFixation,jsons/v1_VE1000_randls_58_rotated.json,http://54.235.29.9/FacialAge/BNav_EC2/DepthDuration/v2_depth_duration_MTurk/v2_DepthDuration_HTML.html#1,1,1364,625,1364,768,8-22-2022,7-58-59,80,depth_duration_stimuli/000906_2014-06-08_13-35-43_260595134347_rgbf000155-resize_1/000906_2014-06-08_13-35-43_260595134347_rgbf000155-resize_1-target.png,1000,2.8489999999999998,8,4229,998,meters,jsons/v1_VE1000_randls_58_rotated.json,739633,873933,48,Woman
80,733185,DepthScenes,duration_manipulation_targetAtFixation,jsons/v1_VE1000_randls_58_rotated.json,http://54.235.29.9/FacialAge/BNav_EC2/DepthDuration/v2_depth_duration_MTurk/v2_DepthDuration_HTML.html#1,1,1364,625,1364,768,8-22-2022,7-58-59,81,depth_duration_stimuli/001584_2014-06-20_11-07-43_260595134347_rgbf000002-resize_1/001584_2014-06-20_11-07-43_260595134347_rgbf000002-resize_1-target.png,1000,3.53,10,3865,998,meters,jsons/v1_VE1000_randls_58_rotated.json,739633,873933,48,Woman
81,733185,DepthScenes,duration_manipulation_targetAtFixation,jsons/v1_VE1000_randls_58_rotated.json,http://54.235.29.9/FacialAge/BNav_EC2/DepthDuration/v2_depth_duration_MTurk/v2_DepthDuration_HTML.html#1,1,1364,625,1364,768,8-22-2022,7-58-59,82,depth_duration_stimuli/003621_2014-05-23_18-06-08_094959634447_rgbf000101-resize_1/003621_2014-05-23_18-06-08_094959634447_rgbf000101-resize_1-target.png,1000,3.9835,6,3457,987,meters,jsons/v1_VE1000_randls_58_rotated.json,739633,873933,48,Woman
82,733185,DepthScenes,duration_manipulation_targetAtFixation,jsons/v1_VE1000_randls_58_rotated.json,http://54.235.29.9/FacialAge/BNav_EC2/DepthDuration/v2_depth_duration_MTurk/v2_DepthDuration_HTML.html#1,1,1364,625,1364,768,8-22-2022,7-58-59,83,depth_duration_stimuli/002340_2014-06-28_20-05-46_260595134347_rgbf000113-resize_0/002340_2014-06-28_20-05-46_260595134347_rgbf000113-resize_0-target.png,1000,2.4735,7,3642,1012,meters,jsons/v1_VE1000_randls_58_rotated.json,739633,873933,48,Woman
83,733185,DepthScenes,duration_manipulation_targetAtFixation,jsons/v1_VE1000_randls_58_rotated.json,http://54.235.29.9/FacialAge/BNav_EC2/DepthDuration/v2_depth_duration_MTurk/v2_DepthDuration_HTML.html#1,1,1364,625,1364,768,8-22-2022,7-58-59,84,depth_duration_stimuli/001016_2014-06-09_16-16-10_260595134347_rgbf000112-resize_5/001016_2014-06-09_16-16-10_260595134347_rgbf000112-resize_5-target.png,1000,1.6565,10,3694,996,meters,jsons/v1_VE1000_randls_58_rotated.json,739633,873933,48,Woman
84,733185,DepthScenes,duration_manipulation_targetAtFixation,jsons/v1_VE1000_randls_58_rotated.json,http://54.235.29.9/FacialAge/BNav_EC2/DepthDuration/v2_depth_duration_MTurk/v2_DepthDuration_HTML.html#1,1,1364,625,1364,768,8-22-2022,7-58-59,85,depth_duration_stimuli/001132_2014-06-17_14-48-54_260595134347_rgbf000100-resize_2/001132_2014-06-17_14-48-54_260595134347_rgbf000100-resize_2-target.png,1000,3.753,6,3712,989,meters,jsons/v1_VE1000_randls_58_rotated.json,739633,873933,48,Woman
85,733185,DepthScenes,duration_manipulation_targetAtFixation,jsons/v1_VE1000_randls_58_rotated.json,http://54.235.29.9/FacialAge/BNav_EC2/DepthDuration/v2_depth_duration_MTurk/v2_DepthDuration_HTML.html#1,1,1364,625,1364,768,8-22-2022,7-58-59,86,depth_duration_stimuli/001133_2014-06-17_14-49-16_260595134347_rgbf000100-resize_0/001133_2014-06-17_14-49-16_260595134347_rgbf000100-resize_0-target.png,1000,4.2115,7,3458,999,meters,jsons/v1_VE1000_randls_58_rotated.json,739633,873933,48,Woman
86,733185,DepthScenes,duration_manipulation_targetAtFixation,jsons/v1_VE1000_randls_58_rotated.json,http://54.235.29.9/FacialAge/BNav_EC2/DepthDuration/v2_depth_duration_MTurk/v2_DepthDuration_HTML.html#1,1,1364,625,1364,768,8-22-2022,7-58-59,87,depth_duration_stimuli/002199_2014-06-28_18-33-56_260595134347_rgbf000074-resize_0/002199_2014-06-28_18-33-56_260595134347_rgbf000074-resize_0-target.png,1000,1.996,8,3206,999,meters,jsons/v1_VE1000_randls_58_rotated.json,739633,873933,48,Woman
87,733185,DepthScenes,duration_manipulation_targetAtFixation,jsons/v1_VE1000_randls_58_rotated.json,http://54.235.29.9/FacialAge/BNav_EC2/DepthDuration/v2_depth_duration_MTurk/v2_DepthDuration_HTML.html#1,1,1364,625,1364,768,8-22-2022,7-58-59,88,depth_duration_stimuli/001056_2014-06-08_18-46-44_260595134347_rgbf000068-resize_0/001056_2014-06-08_18-46-44_260595134347_rgbf000068-resize_0-target.png,1000,2.6625,6,3407,999,meters,jsons/v1_VE1000_randls_58_rotated.json,739633,873933,48,Woman
88,733185,DepthScenes,duration_manipulation_targetAtFixation,jsons/v1_VE1000_randls_58_rotated.json,http://54.235.29.9/FacialAge/BNav_EC2/DepthDuration/v2_depth_duration_MTurk/v2_DepthDuration_HTML.html#1,1,1364,625,1364,768,8-22-2022,7-58-59,89,depth_duration_stimuli/003083_2014-06-15_15-21-03_094959634447_rgbf000063-resize_1/003083_2014-06-15_15-21-03_094959634447_rgbf000063-resize_1-target.png,1000,4.1405,10,3670,992,meters,jsons/v1_VE1000_randls_58_rotated.json,739633,873933,48,Woman
89,733185,DepthScenes,duration_manipulation_targetAtFixation,jsons/v1_VE1000_randls_58_rotated.json,http://54.235.29.9/FacialAge/BNav_EC2/DepthDuration/v2_depth_duration_MTurk/v2_DepthDuration_HTML.html#1,1,1364,625,1364,768,8-22-2022,7-58-59,90,depth_duration_stimuli/000486_2014-06-09_20-47-20_260595134347_rgbf000143-resize_2/000486_2014-06-09_20-47-20_260595134347_rgbf000143-resize_2-target.png,1000,4.8325,6,3733,994,meters,jsons/v1_VE1000_randls_58_rotated.json,739633,873933,48,Woman
90,733185,DepthScenes,duration_manipulation_targetAtFixation,jsons/v1_VE1000_randls_58_rotated.json,http://54.235.29.9/FacialAge/BNav_EC2/DepthDuration/v2_depth_duration_MTurk/v2_DepthDuration_HTML.html#1,1,1364,625,1364,768,8-22-2022,7-58-59,91,depth_duration_stimuli/003048_2014-06-15_13-49-43_094959634447_rgbf000150-resize_1/003048_2014-06-15_13-49-43_094959634447_rgbf000150-resize_1-target.png,1000,4.0035,10,4765,1000,meters,jsons/v1_VE1000_randls_58_rotated.json,739633,873933,48,Woman
91,733185,DepthScenes,duration_manipulation_targetAtFixation,jsons/v1_VE1000_randls_58_rotated.json,http://54.235.29.9/FacialAge/BNav_EC2/DepthDuration/v2_depth_duration_MTurk/v2_DepthDuration_HTML.html#1,1,1364,625,1364,768,8-22-2022,7-58-59,92,depth_duration_stimuli/002043_2014-06-24_20-29-38_260595134347_rgbf000039-resize_4/002043_2014-06-24_20-29-38_260595134347_rgbf000039-resize_4-target.png,1000,2.8435,10,3440,986,meters,jsons/v1_VE1000_randls_58_rotated.json,739633,873933,48,Woman
92,733185,DepthScenes,duration_manipulation_targetAtFixation,jsons/v1_VE1000_randls_58_rotated.json,http://54.235.29.9/FacialAge/BNav_EC2/DepthDuration/v2_depth_duration_MTurk/v2_DepthDuration_HTML.html#1,1,1364,625,1364,768,8-22-2022,7-58-59,93,depth_duration_stimuli/001447_2014-06-19_17-00-32_260595134347_rgbf000082-resize_5/001447_2014-06-19_17-00-32_260595134347_rgbf000082-resize_5-target.png,1000,4.13775,0,2840,1001,meters,jsons/v1_VE1000_randls_58_rotated.json,739633,873933,48,Woman
93,733185,DepthScenes,duration_manipulation_targetAtFixation,jsons/v1_VE1000_randls_58_rotated.json,http://54.235.29.9/FacialAge/BNav_EC2/DepthDuration/v2_depth_duration_MTurk/v2_DepthDuration_HTML.html#1,1,1364,625,1364,768,8-22-2022,7-58-59,94,depth_duration_stimuli/000447_2014-06-08_16-15-46_260595134347_rgbf000130-resize_1/000447_2014-06-08_16-15-46_260595134347_rgbf000130-resize_1-target.png,1000,4.479,6,4046,1002,meters,jsons/v1_VE1000_randls_58_rotated.json,739633,873933,48,Woman
94,733185,DepthScenes,duration_manipulation_targetAtFixation,jsons/v1_VE1000_randls_58_rotated.json,http://54.235.29.9/FacialAge/BNav_EC2/DepthDuration/v2_depth_duration_MTurk/v2_DepthDuration_HTML.html#1,1,1364,625,1364,768,8-22-2022,7-58-59,95,depth_duration_stimuli/001100_2014-06-15_17-46-26_260595134347_rgbf000225-resize_2/001100_2014-06-15_17-46-26_260595134347_rgbf000225-resize_2-target.png,1000,2.24,7,3321,999,meters,jsons/v1_VE1000_randls_58_rotated.json,739633,873933,48,Woman
95,733185,DepthScenes,duration_manipulation_targetAtFixation,jsons/v1_VE1000_randls_58_rotated.json,http://54.235.29.9/FacialAge/BNav_EC2/DepthDuration/v2_depth_duration_MTurk/v2_DepthDuration_HTML.html#1,1,1364,625,1364,768,8-22-2022,7-58-59,96,depth_duration_stimuli/002784_2014-06-22_19-26-30_094959634447_rgbf000083-resize_3/002784_2014-06-22_19-26-30_094959634447_rgbf000083-resize_3-target.png,1000,1.8046666666667,8,3285,974,meters,jsons/v1_VE1000_randls_58_rotated.json,739633,873933,48,Woman
96,733185,DepthScenes,duration_manipulation_targetAtFixation,jsons/v1_VE1000_randls_58_rotated.json,http://54.235.29.9/FacialAge/BNav_EC2/DepthDuration/v2_depth_duration_MTurk/v2_DepthDuration_HTML.html#1,1,1364,625,1364,768,8-22-2022,7-58-59,97,depth_duration_stimuli/003081_2014-06-15_15-19-16_094959634447_rgbf000150-resize_1/003081_2014-06-15_15-19-16_094959634447_rgbf000150-resize_1-target.png,1000,3.9125,6,3434,989,meters,jsons/v1_VE1000_randls_58_rotated.json,739633,873933,48,Woman
97,733185,DepthScenes,duration_manipulation_targetAtFixation,jsons/v1_VE1000_randls_58_rotated.json,http://54.235.29.9/FacialAge/BNav_EC2/DepthDuration/v2_depth_duration_MTurk/v2_DepthDuration_HTML.html#1,1,1364,625,1364,768,8-22-2022,7-58-59,98,depth_duration_stimuli/001417_2014-06-19_16-25-36_260595134347_rgbf000115-resize_5/001417_2014-06-19_16-25-36_260595134347_rgbf000115-resize_5-target.png,1000,4.6255,9,2917,907,meters,jsons/v1_VE1000_randls_58_rotated.json,739633,873933,48,Woman
98,733185,DepthScenes,duration_manipulation_targetAtFixation,jsons/v1_VE1000_randls_58_rotated.json,http://54.235.29.9/FacialAge/BNav_EC2/DepthDuration/v2_depth_duration_MTurk/v2_DepthDuration_HTML.html#1,1,1364,625,1364,768,8-22-2022,7-58-59,99,depth_duration_stimuli/001222_2014-06-17_16-24-06_260595134347_rgbf000073-resize_0/001222_2014-06-17_16-24-06_260595134347_rgbf000073-resize-original.jpg,1000,1.4385,8,5588,1002,meters,jsons/v1_VE1000_randls_58_rotated.json,739633,873933,48,Woman
99,733185,DepthScenes,duration_manipulation_targetAtFixation,jsons/v1_VE1000_randls_58_rotated.json,http://54.235.29.9/FacialAge/BNav_EC2/DepthDuration/v2_depth_duration_MTurk/v2_DepthDuration_HTML.html#1,1,1364,625,1364,768,8-22-2022,7-58-59,100,depth_duration_stimuli/002678_2014-06-13_16-15-32_094959634447_rgbf000151-resize_6/002678_2014-06-13_16-15-32_094959634447_rgbf000151-resize_6-target.png,1000,2.1830000000000003,9,7142,998,meters,jsons/v1_VE1000_randls_58_rotated.json,739633,873933,48,Woman
100,733185,DepthScenes,duration_manipulation_targetAtFixation,jsons/v1_VE1000_randls_58_rotated.json,http://54.235.29.9/FacialAge/BNav_EC2/DepthDuration/v2_depth_duration_MTurk/v2_DepthDuration_HTML.html#1,1,1364,625,1364,768,8-22-2022,7-58-59,101,depth_duration_stimuli/000368_2014-06-09_15-53-01_260595134347_rgbf000155-resize_2/000368_2014-06-09_15-53-01_260595134347_rgbf000155-resize_2-target.png,1000,2.4859999999999998,10,22471,1001,meters,jsons/v1_VE1000_randls_58_rotated.json,739633,873933,48,Woman
101,733185,DepthScenes,duration_manipulation_targetAtFixation,jsons/v1_VE1000_randls_58_rotated.json,http://54.235.29.9/FacialAge/BNav_EC2/DepthDuration/v2_depth_duration_MTurk/v2_DepthDuration_HTML.html#1,1,1364,625,1364,768,8-22-2022,7-58-59,102,depth_duration_stimuli/002425_2014-06-28_20-27-29_260595134347_rgbf000031-resize_8/002425_2014-06-28_20-27-29_260595134347_rgbf000031-resize_8-target.png,1000,3.8960000000000004,15,4270,992,meters,jsons/v1_VE1000_randls_58_rotated.json,739633,873933,48,Woman
102,733185,DepthScenes,duration_manipulation_targetAtFixation,jsons/v1_VE1000_randls_58_rotated.json,http://54.235.29.9/FacialAge/BNav_EC2/DepthDuration/v2_depth_duration_MTurk/v2_DepthDuration_HTML.html#1,1,1364,625,1364,768,8-22-2022,7-58-59,103,depth_duration_stimuli/000642_2014-06-08_16-59-25_260595134347_rgbf000098-resize_2/000642_2014-06-08_16-59-25_260595134347_rgbf000098-resize_2-target.png,1000,2.8815,16,3392,995,meters,jsons/v1_VE1000_randls_58_rotated.json,739633,873933,48,Woman
103,733185,DepthScenes,duration_manipulation_targetAtFixation,jsons/v1_VE1000_randls_58_rotated.json,http://54.235.29.9/FacialAge/BNav_EC2/DepthDuration/v2_depth_duration_MTurk/v2_DepthDuration_HTML.html#1,1,1364,625,1364,768,8-22-2022,7-58-59,104,depth_duration_stimuli/000103_2014-05-14_22-01-17_260595134347_rgbf000152-resize_5/000103_2014-05-14_22-01-17_260595134347_rgbf000152-resize_5-target.png,1000,1.993,10,3691,998,meters,jsons/v1_VE1000_randls_58_rotated.json,739633,873933,48,Woman
104,733185,DepthScenes,duration_manipulation_targetAtFixation,jsons/v1_VE1000_randls_58_rotated.json,http://54.235.29.9/FacialAge/BNav_EC2/DepthDuration/v2_depth_duration_MTurk/v2_DepthDuration_HTML.html#1,1,1364,625,1364,768,8-22-2022,7-58-59,105,depth_duration_stimuli/001555_2014-06-20_17-12-10_260595134347_rgbf000065-resize_4/001555_2014-06-20_17-12-10_260595134347_rgbf000065-resize_4-target.png,1000,1.633,10,3232,996,meters,jsons/v1_VE1000_randls_58_rotated.json,739633,873933,48,Woman
105,733185,DepthScenes,duration_manipulation_targetAtFixation,jsons/v1_VE1000_randls_58_rotated.json,http://54.235.29.9/FacialAge/BNav_EC2/DepthDuration/v2_depth_duration_MTurk/v2_DepthDuration_HTML.html#1,1,1364,625,1364,768,8-22-2022,7-58-59,106,depth_duration_stimuli/000483_2014-06-09_20-41-45_260595134347_rgbf000116-resize_4/000483_2014-06-09_20-41-45_260595134347_rgbf000116-resize_4-target.png,1000,1.337,10,3554,1000,meters,jsons/v1_VE1000_randls_58_rotated.json,739633,873933,48,Woman
106,733185,DepthScenes,duration_manipulation_targetAtFixation,jsons/v1_VE1000_randls_58_rotated.json,http://54.235.29.9/FacialAge/BNav_EC2/DepthDuration/v2_depth_duration_MTurk/v2_DepthDuration_HTML.html#1,1,1364,625,1364,768,8-22-2022,7-58-59,107,depth_duration_stimuli/000469_2014-06-09_19-42-10_260595134347_rgbf000081-resize_1/000469_2014-06-09_19-42-10_260595134347_rgbf000081-resize_1-target.png,1000,1.652,10,4491,999,meters,jsons/v1_VE1000_randls_58_rotated.json,739633,873933,48,Woman
107,733185,DepthScenes,duration_manipulation_targetAtFixation,jsons/v1_VE1000_randls_58_rotated.json,http://54.235.29.9/FacialAge/BNav_EC2/DepthDuration/v2_depth_duration_MTurk/v2_DepthDuration_HTML.html#1,1,1364,625,1364,768,8-22-2022,7-58-59,108,depth_duration_stimuli/002568_2014-06-24_13-59-21_094959634447_rgbf000062-resize_4/002568_2014-06-24_13-59-21_094959634447_rgbf000062-resize_4-target.png,1000,3.015,6,4082,1003,meters,jsons/v1_VE1000_randls_58_rotated.json,739633,873933,48,Woman
108,733185,DepthScenes,duration_manipulation_targetAtFixation,jsons/v1_VE1000_randls_58_rotated.json,http://54.235.29.9/FacialAge/BNav_EC2/DepthDuration/v2_depth_duration_MTurk/v2_DepthDuration_HTML.html#1,1,1364,625,1364,768,8-22-2022,7-58-59,109,depth_duration_stimuli/003492_2014-05-21_15-50-55_094959634447_rgbf000828-resize_1/003492_2014-05-21_15-50-55_094959634447_rgbf000828-resize_1-target.png,1000,4.06875,10,4772,1001,meters,jsons/v1_VE1000_randls_58_rotated.json,739633,873933,48,Woman
109,733185,DepthScenes,duration_manipulation_targetAtFixation,jsons/v1_VE1000_randls_58_rotated.json,http://54.235.29.9/FacialAge/BNav_EC2/DepthDuration/v2_depth_duration_MTurk/v2_DepthDuration_HTML.html#1,1,1364,625,1364,768,8-22-2022,7-58-59,110,depth_duration_stimuli/000457_2014-06-08_16-52-43_260595134347_rgbf000199-resize_1/000457_2014-06-08_16-52-43_260595134347_rgbf000199-resize_1-target.png,1000,3.6489999999999996,5,4426,997,meters,jsons/v1_VE1000_randls_58_rotated.json,739633,873933,48,Woman
110,733185,DepthScenes,duration_manipulation_targetAtFixation,jsons/v1_VE1000_randls_58_rotated.json,http://54.235.29.9/FacialAge/BNav_EC2/DepthDuration/v2_depth_duration_MTurk/v2_DepthDuration_HTML.html#1,1,1364,625,1364,768,8-22-2022,7-58-59,111,depth_duration_stimuli/000929_2014-06-09_16-33-19_260595134347_rgbf000139-resize_0/000929_2014-06-09_16-33-19_260595134347_rgbf000139-resize_0-target.png,1000,2.8680000000000003,6,3368,999,meters,jsons/v1_VE1000_randls_58_rotated.json,739633,873933,48,Woman
111,733185,DepthScenes,duration_manipulation_targetAtFixation,jsons/v1_VE1000_randls_58_rotated.json,http://54.235.29.9/FacialAge/BNav_EC2/DepthDuration/v2_depth_duration_MTurk/v2_DepthDuration_HTML.html#1,1,1364,625,1364,768,8-22-2022,7-58-59,112,depth_duration_stimuli/003490_2014-05-21_15-50-11_094959634447_rgbf000101-resize_3/003490_2014-05-21_15-50-11_094959634447_rgbf000101-resize_3-target.png,1000,3.6445,7,4108,1008,meters,jsons/v1_VE1000_randls_58_rotated.json,739633,873933,48,Woman
112,733185,DepthScenes,duration_manipulation_targetAtFixation,jsons/v1_VE1000_randls_58_rotated.json,http://54.235.29.9/FacialAge/BNav_EC2/DepthDuration/v2_depth_duration_MTurk/v2_DepthDuration_HTML.html#1,1,1364,625,1364,768,8-22-2022,7-58-59,113,depth_duration_stimuli/001175_2014-06-17_15-45-55_260595134347_rgbf000129-resize_4/001175_2014-06-17_15-45-55_260595134347_rgbf000129-resize_4-target.png,1000,4.255,8,3881,999,meters,jsons/v1_VE1000_randls_58_rotated.json,739633,873933,48,Woman
113,733185,DepthScenes,duration_manipulation_targetAtFixation,jsons/v1_VE1000_randls_58_rotated.json,http://54.235.29.9/FacialAge/BNav_EC2/DepthDuration/v2_depth_duration_MTurk/v2_DepthDuration_HTML.html#1,1,1364,625,1364,768,8-22-2022,7-58-59,114,depth_duration_stimuli/001214_2014-06-17_16-13-55_260595134347_rgbf000111-resize_0/001214_2014-06-17_16-13-55_260595134347_rgbf000111-resize_0-target.png,1000,2.6505,9,3351,1004,meters,jsons/v1_VE1000_randls_58_rotated.json,739633,873933,48,Woman
114,733185,DepthScenes,duration_manipulation_targetAtFixation,jsons/v1_VE1000_randls_58_rotated.json,http://54.235.29.9/FacialAge/BNav_EC2/DepthDuration/v2_depth_duration_MTurk/v2_DepthDuration_HTML.html#1,1,1364,625,1364,768,8-22-2022,7-58-59,115,depth_duration_stimuli/000810_2014-06-08_17-20-01_260595134347_rgbf000105-resize_0/000810_2014-06-08_17-20-01_260595134347_rgbf000105-resize_0-target.png,1000,1.4865,10,3526,987,meters,jsons/v1_VE1000_randls_58_rotated.json,739633,873933,48,Woman
115,733185,DepthScenes,duration_manipulation_targetAtFixation,jsons/v1_VE1000_randls_58_rotated.json,http://54.235.29.9/FacialAge/BNav_EC2/DepthDuration/v2_depth_duration_MTurk/v2_DepthDuration_HTML.html#1,1,1364,625,1364,768,8-22-2022,7-58-59,116,depth_duration_stimuli/000665_2014-06-09_20-42-35_260595134347_rgbf000110-resize_1/000665_2014-06-09_20-42-35_260595134347_rgbf000110-resize_1-target.png,1000,3.057,15,3203,986,meters,jsons/v1_VE1000_randls_58_rotated.json,739633,873933,48,Woman
116,733185,DepthScenes,duration_manipulation_targetAtFixation,jsons/v1_VE1000_randls_58_rotated.json,http://54.235.29.9/FacialAge/BNav_EC2/DepthDuration/v2_depth_duration_MTurk/v2_DepthDuration_HTML.html#1,1,1364,625,1364,768,8-22-2022,7-58-59,117,depth_duration_stimuli/001150_2014-06-17_15-27-34_260595134347_rgbf000108-resize_2/001150_2014-06-17_15-27-34_260595134347_rgbf000108-resize_2-target.png,1000,4.0325,0,3065,998,meters,jsons/v1_VE1000_randls_58_rotated.json,739633,873933,48,Woman
117,733185,DepthScenes,duration_manipulation_targetAtFixation,jsons/v1_VE1000_randls_58_rotated.json,http://54.235.29.9/FacialAge/BNav_EC2/DepthDuration/v2_depth_duration_MTurk/v2_DepthDuration_HTML.html#1,1,1364,625,1364,768,8-22-2022,7-58-59,118,depth_duration_stimuli/003228_2014-05-14_13-42-35_094959634447_rgbf000101-resize_1/003228_2014-05-14_13-42-35_094959634447_rgbf000101-resize_1-target.png,1000,1.9680000000000002,0,3854,988,meters,jsons/v1_VE1000_randls_58_rotated.json,739633,873933,48,Woman
118,733185,DepthScenes,duration_manipulation_targetAtFixation,jsons/v1_VE1000_randls_58_rotated.json,http://54.235.29.9/FacialAge/BNav_EC2/DepthDuration/v2_depth_duration_MTurk/v2_DepthDuration_HTML.html#1,1,1364,625,1364,768,8-22-2022,7-58-59,119,depth_duration_stimuli/002600_2014-06-24_14-27-04_094959634447_rgbf000074-resize_2/002600_2014-06-24_14-27-04_094959634447_rgbf000074-resize_2-target.png,1000,2.7575,10,3419,995,meters,jsons/v1_VE1000_randls_58_rotated.json,739633,873933,48,Woman
119,733185,DepthScenes,duration_manipulation_targetAtFixation,jsons/v1_VE1000_randls_58_rotated.json,http://54.235.29.9/FacialAge/BNav_EC2/DepthDuration/v2_depth_duration_MTurk/v2_DepthDuration_HTML.html#1,1,1364,625,1364,768,8-22-2022,7-58-59,120,depth_duration_stimuli/000787_2014-06-08_22-33-53_260595134347_rgbf000175-resize_1/000787_2014-06-08_22-33-53_260595134347_rgbf000175-resize-original.jpg,1000,4.784,0,3115,997,meters,jsons/v1_VE1000_randls_58_rotated.json,739633,873933,48,Woman
120,733185,DepthScenes,duration_manipulation_targetAtFixation,jsons/v1_VE1000_randls_58_rotated.json,http://54.235.29.9/FacialAge/BNav_EC2/DepthDuration/v2_depth_duration_MTurk/v2_DepthDuration_HTML.html#1,1,1364,625,1364,768,8-22-2022,7-58-59,121,depth_duration_stimuli/002444_2014-06-28_20-32-08_260595134347_rgbf000027-resize_0/002444_2014-06-28_20-32-08_260595134347_rgbf000027-resize_0-target.png,1000,4.388999999999999,10,3420,992,meters,jsons/v1_VE1000_randls_58_rotated.json,739633,873933,48,Woman
121,733185,DepthScenes,duration_manipulation_targetAtFixation,jsons/v1_VE1000_randls_58_rotated.json,http://54.235.29.9/FacialAge/BNav_EC2/DepthDuration/v2_depth_duration_MTurk/v2_DepthDuration_HTML.html#1,1,1364,625,1364,768,8-22-2022,7-58-59,122,depth_duration_stimuli/000436_2014-06-09_22-25-11_260595134347_rgbf000137-resize_1/000436_2014-06-09_22-25-11_260595134347_rgbf000137-resize_1-target.png,1000,4.0705,15,3107,999,meters,jsons/v1_VE1000_randls_58_rotated.json,739633,873933,48,Woman
122,733185,DepthScenes,duration_manipulation_targetAtFixation,jsons/v1_VE1000_randls_58_rotated.json,http://54.235.29.9/FacialAge/BNav_EC2/DepthDuration/v2_depth_duration_MTurk/v2_DepthDuration_HTML.html#1,1,1364,625,1364,768,8-22-2022,7-58-59,123,depth_duration_stimuli/001094_2014-06-15_17-36-00_260595134347_rgbf000205-resize_0/001094_2014-06-15_17-36-00_260595134347_rgbf000205-resize_0-target.png,1000,4.2175,30,3539,1003,meters,jsons/v1_VE1000_randls_58_rotated.json,739633,873933,48,Woman
123,733185,DepthScenes,duration_manipulation_targetAtFixation,jsons/v1_VE1000_randls_58_rotated.json,http://54.235.29.9/FacialAge/BNav_EC2/DepthDuration/v2_depth_duration_MTurk/v2_DepthDuration_HTML.html#1,1,1364,625,1364,768,8-22-2022,7-58-59,124,depth_duration_stimuli/000692_2014-06-08_13-09-42_260595134347_rgbf000199-resize_2/000692_2014-06-08_13-09-42_260595134347_rgbf000199-resize_2-target.png,1000,3.661,10,3225,1000,meters,jsons/v1_VE1000_randls_58_rotated.json,739633,873933,48,Woman
124,733185,DepthScenes,duration_manipulation_targetAtFixation,jsons/v1_VE1000_randls_58_rotated.json,http://54.235.29.9/FacialAge/BNav_EC2/DepthDuration/v2_depth_duration_MTurk/v2_DepthDuration_HTML.html#1,1,1364,625,1364,768,8-22-2022,7-58-59,125,depth_duration_stimuli/001450_2014-06-19_17-02-03_260595134347_rgbf000203-resize_4/001450_2014-06-19_17-02-03_260595134347_rgbf000203-resize_4-target.png,1000,4.0106666666667,15,4371,1002,meters,jsons/v1_VE1000_randls_58_rotated.json,739633,873933,48,Woman
125,733185,DepthScenes,duration_manipulation_targetAtFixation,jsons/v1_VE1000_randls_58_rotated.json,http://54.235.29.9/FacialAge/BNav_EC2/DepthDuration/v2_depth_duration_MTurk/v2_DepthDuration_HTML.html#1,1,1364,625,1364,768,8-22-2022,7-58-59,126,depth_duration_stimuli/001449_2014-06-19_17-01-27_260595134347_rgbf000116-resize_2/001449_2014-06-19_17-01-27_260595134347_rgbf000116-resize_2-target.png,1000,3.452,5,3413,996,meters,jsons/v1_VE1000_randls_58_rotated.json,739633,873933,48,Woman
126,733185,DepthScenes,duration_manipulation_targetAtFixation,jsons/v1_VE1000_randls_58_rotated.json,http://54.235.29.9/FacialAge/BNav_EC2/DepthDuration/v2_depth_duration_MTurk/v2_DepthDuration_HTML.html#1,1,1364,625,1364,768,8-22-2022,7-58-59,127,depth_duration_stimuli/000943_2014-06-09_19-31-07_260595134347_rgbf000128-resize_1/000943_2014-06-09_19-31-07_260595134347_rgbf000128-resize_1-target.png,1000,1.9765,5,2875,1011,meters,jsons/v1_VE1000_randls_58_rotated.json,739633,873933,48,Woman
127,733185,DepthScenes,duration_manipulation_targetAtFixation,jsons/v1_VE1000_randls_58_rotated.json,http://54.235.29.9/FacialAge/BNav_EC2/DepthDuration/v2_depth_duration_MTurk/v2_DepthDuration_HTML.html#1,1,1364,625,1364,768,8-22-2022,7-58-59,128,depth_duration_stimuli/003070_2014-06-15_14-58-27_094959634447_rgbf000150-resize_3/003070_2014-06-15_14-58-27_094959634447_rgbf000150-resize_3-target.png,1000,2.9415,0,2981,998,meters,jsons/v1_VE1000_randls_58_rotated.json,739633,873933,48,Woman
128,733185,DepthScenes,duration_manipulation_targetAtFixation,jsons/v1_VE1000_randls_58_rotated.json,http://54.235.29.9/FacialAge/BNav_EC2/DepthDuration/v2_depth_duration_MTurk/v2_DepthDuration_HTML.html#1,1,1364,625,1364,768,8-22-2022,7-58-59,129,depth_duration_stimuli/003338_2014-05-20_11-01-23_094959634447_rgbf000051-resize_6/003338_2014-05-20_11-01-23_094959634447_rgbf000051-resize_6-target.png,1000,1.693,5,3079,995,meters,jsons/v1_VE1000_randls_58_rotated.json,739633,873933,48,Woman
129,733185,DepthScenes,duration_manipulation_targetAtFixation,jsons/v1_VE1000_randls_58_rotated.json,http://54.235.29.9/FacialAge/BNav_EC2/DepthDuration/v2_depth_duration_MTurk/v2_DepthDuration_HTML.html#1,1,1364,625,1364,768,8-22-2022,7-58-59,130,depth_duration_stimuli/002509_2014-06-24_13-19-22_094959634447_rgbf000077-resize_0/002509_2014-06-24_13-19-22_094959634447_rgbf000077-resize_0-target.png,1000,1.3065,0,2971,959,meters,jsons/v1_VE1000_randls_58_rotated.json,739633,873933,48,Woman
130,733185,DepthScenes,duration_manipulation_targetAtFixation,jsons/v1_VE1000_randls_58_rotated.json,http://54.235.29.9/FacialAge/BNav_EC2/DepthDuration/v2_depth_duration_MTurk/v2_DepthDuration_HTML.html#1,1,1364,625,1364,768,8-22-2022,7-58-59,131,depth_duration_stimuli/000780_2014-06-08_22-28-29_260595134347_rgbf000126-resize_1/000780_2014-06-08_22-28-29_260595134347_rgbf000126-resize_1-target.png,1000,3.3825,0,3027,1034,meters,jsons/v1_VE1000_randls_58_rotated.json,739633,873933,48,Woman
131,733185,DepthScenes,duration_manipulation_targetAtFixation,jsons/v1_VE1000_randls_58_rotated.json,http://54.235.29.9/FacialAge/BNav_EC2/DepthDuration/v2_depth_duration_MTurk/v2_DepthDuration_HTML.html#1,1,1364,625,1364,768,8-22-2022,7-58-59,132,depth_duration_stimuli/002445_2014-06-28_20-32-16_260595134347_rgbf000029-resize_4/002445_2014-06-28_20-32-16_260595134347_rgbf000029-resize_4-target.png,1000,2.5315,0,3078,995,meters,jsons/v1_VE1000_randls_58_rotated.json,739633,873933,48,Woman
132,733185,DepthScenes,duration_manipulation_targetAtFixation,jsons/v1_VE1000_randls_58_rotated.json,http://54.235.29.9/FacialAge/BNav_EC2/DepthDuration/v2_depth_duration_MTurk/v2_DepthDuration_HTML.html#1,1,1364,625,1364,768,8-22-2022,7-58-59,133,depth_duration_stimuli/002657_2014-06-13_15-29-54_094959634447_rgbf000150-resize_1/002657_2014-06-13_15-29-54_094959634447_rgbf000150-resize_1-target.png,1000,4.919,0,3089,1013,meters,jsons/v1_VE1000_randls_58_rotated.json,739633,873933,48,Woman
133,733185,DepthScenes,duration_manipulation_targetAtFixation,jsons/v1_VE1000_randls_58_rotated.json,http://54.235.29.9/FacialAge/BNav_EC2/DepthDuration/v2_depth_duration_MTurk/v2_DepthDuration_HTML.html#1,1,1364,625,1364,768,8-22-2022,7-58-59,134,depth_duration_stimuli/002375_2014-06-28_20-13-44_260595134347_rgbf000032-resize_1/002375_2014-06-28_20-13-44_260595134347_rgbf000032-resize_1-target.png,1000,4.0175,0,4036,988,meters,jsons/v1_VE1000_randls_58_rotated.json,739633,873933,48,Woman
134,733185,DepthScenes,duration_manipulation_targetAtFixation,jsons/v1_VE1000_randls_58_rotated.json,http://54.235.29.9/FacialAge/BNav_EC2/DepthDuration/v2_depth_duration_MTurk/v2_DepthDuration_HTML.html#1,1,1364,625,1364,768,8-22-2022,7-58-59,135,depth_duration_stimuli/000375_2014-06-08_11-17-29_260595134347_rgbf000133-resize_2/000375_2014-06-08_11-17-29_260595134347_rgbf000133-resize-original.jpg,1000,4.718,10,9771,997,meters,jsons/v1_VE1000_randls_58_rotated.json,739633,873933,48,Woman
135,733185,DepthScenes,duration_manipulation_targetAtFixation,jsons/v1_VE1000_randls_58_rotated.json,http://54.235.29.9/FacialAge/BNav_EC2/DepthDuration/v2_depth_duration_MTurk/v2_DepthDuration_HTML.html#1,1,1364,625,1364,768,8-22-2022,7-58-59,136,depth_duration_stimuli/002949_2014-06-26_15-57-42_094959634447_rgbf000079-resize_1/002949_2014-06-26_15-57-42_094959634447_rgbf000079-resize_1-target.png,1000,1.8915,5,3250,1008,meters,jsons/v1_VE1000_randls_58_rotated.json,739633,873933,48,Woman
136,733185,DepthScenes,duration_manipulation_targetAtFixation,jsons/v1_VE1000_randls_58_rotated.json,http://54.235.29.9/FacialAge/BNav_EC2/DepthDuration/v2_depth_duration_MTurk/v2_DepthDuration_HTML.html#1,1,1364,625,1364,768,8-22-2022,7-58-59,137,depth_duration_stimuli/000522_2014-06-08_13-35-06_260595134347_rgbf000244-resize_1/000522_2014-06-08_13-35-06_260595134347_rgbf000244-resize_1-target.png,1000,2.3715,6,3160,998,meters,jsons/v1_VE1000_randls_58_rotated.json,739633,873933,48,Woman
137,733185,DepthScenes,duration_manipulation_targetAtFixation,jsons/v1_VE1000_randls_58_rotated.json,http://54.235.29.9/FacialAge/BNav_EC2/DepthDuration/v2_depth_duration_MTurk/v2_DepthDuration_HTML.html#1,1,1364,625,1364,768,8-22-2022,7-58-59,138,depth_duration_stimuli/001516_2014-06-20_16-25-09_260595134347_rgbf000076-resize_2/001516_2014-06-20_16-25-09_260595134347_rgbf000076-resize_2-target.png,1000,1.7445,10,3250,984,meters,jsons/v1_VE1000_randls_58_rotated.json,739633,873933,48,Woman
138,733185,DepthScenes,duration_manipulation_targetAtFixation,jsons/v1_VE1000_randls_58_rotated.json,http://54.235.29.9/FacialAge/BNav_EC2/DepthDuration/v2_depth_duration_MTurk/v2_DepthDuration_HTML.html#1,1,1364,625,1364,768,8-22-2022,7-58-59,139,depth_duration_stimuli/002118_2014-06-25_20-32-08_260595134347_rgbf000078-resize_1/002118_2014-06-25_20-32-08_260595134347_rgbf000078-resize_1-target.png,1000,2.6460000000000004,5,3191,998,meters,jsons/v1_VE1000_randls_58_rotated.json,739633,873933,48,Woman
139,733185,DepthScenes,duration_manipulation_targetAtFixation,jsons/v1_VE1000_randls_58_rotated.json,http://54.235.29.9/FacialAge/BNav_EC2/DepthDuration/v2_depth_duration_MTurk/v2_DepthDuration_HTML.html#1,1,1364,625,1364,768,8-22-2022,7-58-59,140,depth_duration_stimuli/001235_2014-06-17_16-37-36_260595134347_rgbf000084-resize_4/001235_2014-06-17_16-37-36_260595134347_rgbf000084-resize_4-target.png,1000,3.6605,0,3416,1001,meters,jsons/v1_VE1000_randls_58_rotated.json,739633,873933,48,Woman
140,733185,DepthScenes,duration_manipulation_targetAtFixation,jsons/v1_VE1000_randls_58_rotated.json,http://54.235.29.9/FacialAge/BNav_EC2/DepthDuration/v2_depth_duration_MTurk/v2_DepthDuration_HTML.html#1,1,1364,625,1364,768,8-22-2022,7-58-59,141,depth_duration_stimuli/000788_2014-06-08_22-34-36_260595134347_rgbf000131-resize_1/000788_2014-06-08_22-34-36_260595134347_rgbf000131-resize_1-target.png,1000,3.359,5,4054,998,meters,jsons/v1_VE1000_randls_58_rotated.json,739633,873933,48,Woman
141,733185,DepthScenes,duration_manipulation_targetAtFixation,jsons/v1_VE1000_randls_58_rotated.json,http://54.235.29.9/FacialAge/BNav_EC2/DepthDuration/v2_depth_duration_MTurk/v2_DepthDuration_HTML.html#1,1,1364,625,1364,768,8-22-2022,7-58-59,142,depth_duration_stimuli/000191_2014-05-12_17-07-38_260595134347_rgbf000199-resize_0/000191_2014-05-12_17-07-38_260595134347_rgbf000199-resize_0-target.png,1000,3.7995,10,4204,996,meters,jsons/v1_VE1000_randls_58_rotated.json,739633,873933,48,Woman
142,733185,DepthScenes,duration_manipulation_targetAtFixation,jsons/v1_VE1000_randls_58_rotated.json,http://54.235.29.9/FacialAge/BNav_EC2/DepthDuration/v2_depth_duration_MTurk/v2_DepthDuration_HTML.html#1,1,1364,625,1364,768,8-22-2022,7-58-59,143,depth_duration_stimuli/000493_2014-06-09_21-01-18_260595134347_rgbf000196-resize_3/000493_2014-06-09_21-01-18_260595134347_rgbf000196-resize_3-target.png,1000,3.44,0,3330,983,meters,jsons/v1_VE1000_randls_58_rotated.json,739633,873933,48,Woman
143,733185,DepthScenes,duration_manipulation_targetAtFixation,jsons/v1_VE1000_randls_58_rotated.json,http://54.235.29.9/FacialAge/BNav_EC2/DepthDuration/v2_depth_duration_MTurk/v2_DepthDuration_HTML.html#1,1,1364,625,1364,768,8-22-2022,7-58-59,144,depth_duration_stimuli/002545_2014-06-24_13-38-53_094959634447_rgbf000080-resize_4/002545_2014-06-24_13-38-53_094959634447_rgbf000080-resize_4-target.png,1000,1.9205,5,3354,1008,meters,jsons/v1_VE1000_randls_58_rotated.json,739633,873933,48,Woman
144,733185,DepthScenes,duration_manipulation_targetAtFixation,jsons/v1_VE1000_randls_58_rotated.json,http://54.235.29.9/FacialAge/BNav_EC2/DepthDuration/v2_depth_duration_MTurk/v2_DepthDuration_HTML.html#1,1,1364,625,1364,768,8-22-2022,7-58-59,145,depth_duration_stimuli/001092_2014-06-15_17-34-58_260595134347_rgbf000171-resize_3/001092_2014-06-15_17-34-58_260595134347_rgbf000171-resize_3-target.png,1000,2.6935,0,3190,1002,meters,jsons/v1_VE1000_randls_58_rotated.json,739633,873933,48,Woman
145,733185,DepthScenes,duration_manipulation_targetAtFixation,jsons/v1_VE1000_randls_58_rotated.json,http://54.235.29.9/FacialAge/BNav_EC2/DepthDuration/v2_depth_duration_MTurk/v2_DepthDuration_HTML.html#1,1,1364,625,1364,768,8-22-2022,7-58-59,146,depth_duration_stimuli/002344_2014-06-28_20-06-29_260595134347_rgbf000030-resize_1/002344_2014-06-28_20-06-29_260595134347_rgbf000030-resize_1-target.png,1000,1.5795,0,3371,996,meters,jsons/v1_VE1000_randls_58_rotated.json,739633,873933,48,Woman
146,733185,DepthScenes,duration_manipulation_targetAtFixation,jsons/v1_VE1000_randls_58_rotated.json,http://54.235.29.9/FacialAge/BNav_EC2/DepthDuration/v2_depth_duration_MTurk/v2_DepthDuration_HTML.html#1,1,1364,625,1364,768,8-22-2022,7-58-59,147,depth_duration_stimuli/002725_2014-06-22_11-47-51_094959634447_rgbf000070-resize_1/002725_2014-06-22_11-47-51_094959634447_rgbf000070-resize_1-target.png,1000,2.195,0,2772,1009,meters,jsons/v1_VE1000_randls_58_rotated.json,739633,873933,48,Woman
147,733185,DepthScenes,duration_manipulation_targetAtFixation,jsons/v1_VE1000_randls_58_rotated.json,http://54.235.29.9/FacialAge/BNav_EC2/DepthDuration/v2_depth_duration_MTurk/v2_DepthDuration_HTML.html#1,1,1364,625,1364,768,8-22-2022,7-58-59,148,depth_duration_stimuli/003495_2014-05-21_16-01-51_094959634447_rgbf000100-resize_3/003495_2014-05-21_16-01-51_094959634447_rgbf000100-resize_3-target.png,1000,1.6255,0,2900,993,meters,jsons/v1_VE1000_randls_58_rotated.json,739633,873933,48,Woman
148,733185,DepthScenes,duration_manipulation_targetAtFixation,jsons/v1_VE1000_randls_58_rotated.json,http://54.235.29.9/FacialAge/BNav_EC2/DepthDuration/v2_depth_duration_MTurk/v2_DepthDuration_HTML.html#1,1,1364,625,1364,768,8-22-2022,7-58-59,149,depth_duration_stimuli/001244_2014-06-17_16-47-45_260595134347_rgbf000030-resize_4/001244_2014-06-17_16-47-45_260595134347_rgbf000030-resize_4-target.png,1000,2.0425,4,3607,996,meters,jsons/v1_VE1000_randls_58_rotated.json,739633,873933,48,Woman
149,733185,DepthScenes,duration_manipulation_targetAtFixation,jsons/v1_VE1000_randls_58_rotated.json,http://54.235.29.9/FacialAge/BNav_EC2/DepthDuration/v2_depth_duration_MTurk/v2_DepthDuration_HTML.html#1,1,1364,625,1364,768,8-22-2022,7-58-59,150,depth_duration_stimuli/001617_2014-06-20_11-35-32_260595134347_rgbf000066-resize_1/001617_2014-06-20_11-35-32_260595134347_rgbf000066-resize_1-target.png,1000,3.7910000000000004,6,3608,999,meters,jsons/v1_VE1000_randls_58_rotated.json,739633,873933,48,Woman
150,733185,DepthScenes,duration_manipulation_targetAtFixation,jsons/v1_VE1000_randls_58_rotated.json,http://54.235.29.9/FacialAge/BNav_EC2/DepthDuration/v2_depth_duration_MTurk/v2_DepthDuration_HTML.html#1,1,1364,625,1364,768,8-22-2022,7-58-59,151,depth_duration_stimuli/001806_2014-06-26_20-50-20_260595134347_rgbf000091-resize_1/001806_2014-06-26_20-50-20_260595134347_rgbf000091-resize_1-target.png,1000,2.7305,10,3474,1000,meters,jsons/v1_VE1000_randls_58_rotated.json,739633,873933,48,Woman
151,733185,DepthScenes,duration_manipulation_targetAtFixation,jsons/v1_VE1000_randls_58_rotated.json,http://54.235.29.9/FacialAge/BNav_EC2/DepthDuration/v2_depth_duration_MTurk/v2_DepthDuration_HTML.html#1,1,1364,625,1364,768,8-22-2022,7-58-59,152,depth_duration_stimuli/000569_2014-06-09_22-51-47_260595134347_rgbf000141-resize_3/000569_2014-06-09_22-51-47_260595134347_rgbf000141-resize-original.jpg,1000,4.512,15,3134,1001,meters,jsons/v1_VE1000_randls_58_rotated.json,739633,873933,48,Woman
152,733185,DepthScenes,duration_manipulation_targetAtFixation,jsons/v1_VE1000_randls_58_rotated.json,http://54.235.29.9/FacialAge/BNav_EC2/DepthDuration/v2_depth_duration_MTurk/v2_DepthDuration_HTML.html#1,1,1364,625,1364,768,8-22-2022,7-58-59,153,depth_duration_stimuli/001052_2014-06-08_18-24-54_260595134347_rgbf000130-resize_1/001052_2014-06-08_18-24-54_260595134347_rgbf000130-resize_1-target.png,1000,4.1045,10,2999,992,meters,jsons/v1_VE1000_randls_58_rotated.json,739633,873933,48,Woman
153,733185,DepthScenes,duration_manipulation_targetAtFixation,jsons/v1_VE1000_randls_58_rotated.json,http://54.235.29.9/FacialAge/BNav_EC2/DepthDuration/v2_depth_duration_MTurk/v2_DepthDuration_HTML.html#1,1,1364,625,1364,768,8-22-2022,7-58-59,154,depth_duration_stimuli/002988_2014-06-15_12-24-20_094959634447_rgbf000150-resize_1/002988_2014-06-15_12-24-20_094959634447_rgbf000150-resize_1-target.png,1000,4.7669999999999995,10,3403,1005,meters,jsons/v1_VE1000_randls_58_rotated.json,739633,873933,48,Woman
154,733185,DepthScenes,duration_manipulation_targetAtFixation,jsons/v1_VE1000_randls_58_rotated.json,http://54.235.29.9/FacialAge/BNav_EC2/DepthDuration/v2_depth_duration_MTurk/v2_DepthDuration_HTML.html#1,1,1364,625,1364,768,8-22-2022,7-58-59,155,depth_duration_stimuli/002414_2014-06-28_20-24-58_260595134347_rgbf000067-resize_4/002414_2014-06-28_20-24-58_260595134347_rgbf000067-resize_4-target.png,1000,4.363,0,3004,999,meters,jsons/v1_VE1000_randls_58_rotated.json,739633,873933,48,Woman
155,733185,DepthScenes,duration_manipulation_targetAtFixation,jsons/v1_VE1000_randls_58_rotated.json,http://54.235.29.9/FacialAge/BNav_EC2/DepthDuration/v2_depth_duration_MTurk/v2_DepthDuration_HTML.html#1,1,1364,625,1364,768,8-22-2022,7-58-59,156,depth_duration_stimuli/000773_2014-06-08_22-24-54_260595134347_rgbf000093-resize_1/000773_2014-06-08_22-24-54_260595134347_rgbf000093-resize_1-target.png,1000,4.973,0,2918,997,meters,jsons/v1_VE1000_randls_58_rotated.json,739633,873933,48,Woman
156,733185,DepthScenes,duration_manipulation_targetAtFixation,jsons/v1_VE1000_randls_58_rotated.json,http://54.235.29.9/FacialAge/BNav_EC2/DepthDuration/v2_depth_duration_MTurk/v2_DepthDuration_HTML.html#1,1,1364,625,1364,768,8-22-2022,7-58-59,157,depth_duration_stimuli/000734_2014-06-08_17-39-11_260595134347_rgbf000128-resize_2/000734_2014-06-08_17-39-11_260595134347_rgbf000128-resize_2-target.png,1000,4.098,0,3198,999,meters,jsons/v1_VE1000_randls_58_rotated.json,739633,873933,48,Woman
157,733185,DepthScenes,duration_manipulation_targetAtFixation,jsons/v1_VE1000_randls_58_rotated.json,http://54.235.29.9/FacialAge/BNav_EC2/DepthDuration/v2_depth_duration_MTurk/v2_DepthDuration_HTML.html#1,1,1364,625,1364,768,8-22-2022,7-58-59,158,depth_duration_stimuli/000739_2014-06-08_18-45-58_260595134347_rgbf000068-resize_1/000739_2014-06-08_18-45-58_260595134347_rgbf000068-resize_1-target.png,1000,3.534,10,3399,1001,meters,jsons/v1_VE1000_randls_58_rotated.json,739633,873933,48,Woman
158,733185,DepthScenes,duration_manipulation_targetAtFixation,jsons/v1_VE1000_randls_58_rotated.json,http://54.235.29.9/FacialAge/BNav_EC2/DepthDuration/v2_depth_duration_MTurk/v2_DepthDuration_HTML.html#1,1,1364,625,1364,768,8-22-2022,7-58-59,159,depth_duration_stimuli/000691_2014-06-08_13-08-50_260595134347_rgbf000132-resize_3/000691_2014-06-08_13-08-50_260595134347_rgbf000132-resize_3-target.png,1000,4.1530000000000005,5,3320,1009,meters,jsons/v1_VE1000_randls_58_rotated.json,739633,873933,48,Woman
159,733185,DepthScenes,duration_manipulation_targetAtFixation,jsons/v1_VE1000_randls_58_rotated.json,http://54.235.29.9/FacialAge/BNav_EC2/DepthDuration/v2_depth_duration_MTurk/v2_DepthDuration_HTML.html#1,1,1364,625,1364,768,8-22-2022,7-58-59,160,depth_duration_stimuli/002213_2014-06-28_18-37-58_260595134347_rgbf000055-resize_1/002213_2014-06-28_18-37-58_260595134347_rgbf000055-resize_1-target.png,1000,3.62,6,3133,997,meters,jsons/v1_VE1000_randls_58_rotated.json,739633,873933,48,Woman
160,733185,DepthScenes,duration_manipulation_targetAtFixation,jsons/v1_VE1000_randls_58_rotated.json,http://54.235.29.9/FacialAge/BNav_EC2/DepthDuration/v2_depth_duration_MTurk/v2_DepthDuration_HTML.html#1,1,1364,625,1364,768,8-22-2022,7-58-59,161,depth_duration_stimuli/001650_2014-06-20_12-09-00_260595134347_rgbf000087-resize_3/001650_2014-06-20_12-09-00_260595134347_rgbf000087-resize_3-target.png,1000,1.9505,5,3000,995,meters,jsons/v1_VE1000_randls_58_rotated.json,739633,873933,48,Woman
161,733185,DepthScenes,duration_manipulation_targetAtFixation,jsons/v1_VE1000_randls_58_rotated.json,http://54.235.29.9/FacialAge/BNav_EC2/DepthDuration/v2_depth_duration_MTurk/v2_DepthDuration_HTML.html#1,1,1364,625,1364,768,8-22-2022,7-58-59,162,depth_duration_stimuli/000682_2014-06-08_23-14-58_260595134347_rgbf000041-resize_5/000682_2014-06-08_23-14-58_260595134347_rgbf000041-resize_5-target.png,1000,2.7239999999999998,7,3426,998,meters,jsons/v1_VE1000_randls_58_rotated.json,739633,873933,48,Woman
162,733185,DepthScenes,duration_manipulation_targetAtFixation,jsons/v1_VE1000_randls_58_rotated.json,http://54.235.29.9/FacialAge/BNav_EC2/DepthDuration/v2_depth_duration_MTurk/v2_DepthDuration_HTML.html#1,1,1364,625,1364,768,8-22-2022,7-58-59,163,depth_duration_stimuli/000677_2014-06-08_23-10-32_260595134347_rgbf000158-resize_6/000677_2014-06-08_23-10-32_260595134347_rgbf000158-resize_6-target.png,1000,3.556,6,3181,962,meters,jsons/v1_VE1000_randls_58_rotated.json,739633,873933,48,Woman
163,733185,DepthScenes,duration_manipulation_targetAtFixation,jsons/v1_VE1000_randls_58_rotated.json,http://54.235.29.9/FacialAge/BNav_EC2/DepthDuration/v2_depth_duration_MTurk/v2_DepthDuration_HTML.html#1,1,1364,625,1364,768,8-22-2022,7-58-59,164,depth_duration_stimuli/001029_2014-06-08_13-17-57_260595134347_rgbf000065-resize_1/001029_2014-06-08_13-17-57_260595134347_rgbf000065-resize_1-target.png,1000,3.0835,8,2932,1001,meters,jsons/v1_VE1000_randls_58_rotated.json,739633,873933,48,Woman
