,subjID,experimentName,versionName,sequenceName,url,selected_row,windowWidth,windowHeight,screenWidth,screenHeight,startDate,startTime,trial,stimulus,duration,actual_depth,depth_estimate,trial_RT,log_sceneDuration,unitSelection,seq_filepath,experimentTime,totalTime,age,gender
0,733956,DepthScenes,duration_manipulation_targetAtFixation,jsons/VE125_randls_33.json,http://54.235.29.9/FacialAge/BNav_EC2/DepthDuration/v2_depth_duration_MTurk/v2_DepthDuration_HTML.html#117,117,1633,939,1680,1050,9-19-2022,16-6-9,1,depth_duration_stimuli/003492_2014-05-21_15-50-55_094959634447_rgbf000828-resize_1/003492_2014-05-21_15-50-55_094959634447_rgbf000828-resize_1-target.png,125,4.06875,8.0,4301,125,feet,jsons/VE125_randls_33.json,1104942,1308166,36,Man
1,733956,DepthScenes,duration_manipulation_targetAtFixation,jsons/VE125_randls_33.json,http://54.235.29.9/FacialAge/BNav_EC2/DepthDuration/v2_depth_duration_MTurk/v2_DepthDuration_HTML.html#117,117,1633,939,1680,1050,9-19-2022,16-6-9,2,depth_duration_stimuli/002568_2014-06-24_13-59-21_094959634447_rgbf000062-resize_4/002568_2014-06-24_13-59-21_094959634447_rgbf000062-resize_4-target.png,125,3.015,5.0,3434,125,feet,jsons/VE125_randls_33.json,1104942,1308166,36,Man
2,733956,DepthScenes,duration_manipulation_targetAtFixation,jsons/VE125_randls_33.json,http://54.235.29.9/FacialAge/BNav_EC2/DepthDuration/v2_depth_duration_MTurk/v2_DepthDuration_HTML.html#117,117,1633,939,1680,1050,9-19-2022,16-6-9,3,depth_duration_stimuli/001417_2014-06-19_16-25-36_260595134347_rgbf000115-resize_5/001417_2014-06-19_16-25-36_260595134347_rgbf000115-resize_5-target.png,125,4.6255,7.0,3810,124,feet,jsons/VE125_randls_33.json,1104942,1308166,36,Man
3,733956,DepthScenes,duration_manipulation_targetAtFixation,jsons/VE125_randls_33.json,http://54.235.29.9/FacialAge/BNav_EC2/DepthDuration/v2_depth_duration_MTurk/v2_DepthDuration_HTML.html#117,117,1633,939,1680,1050,9-19-2022,16-6-9,4,depth_duration_stimuli/003081_2014-06-15_15-19-16_094959634447_rgbf000150-resize_1/003081_2014-06-15_15-19-16_094959634447_rgbf000150-resize_1-target.png,125,3.9125,7.0,3662,125,feet,jsons/VE125_randls_33.json,1104942,1308166,36,Man
4,733956,DepthScenes,duration_manipulation_targetAtFixation,jsons/VE125_randls_33.json,http://54.235.29.9/FacialAge/BNav_EC2/DepthDuration/v2_depth_duration_MTurk/v2_DepthDuration_HTML.html#117,117,1633,939,1680,1050,9-19-2022,16-6-9,5,depth_duration_stimuli/002272_2014-06-28_18-53-56_260595134347_rgbf000067-resize_2/002272_2014-06-28_18-53-56_260595134347_rgbf000067-resize_2-target.png,125,1.138,2.0,3220,125,feet,jsons/VE125_randls_33.json,1104942,1308166,36,Man
5,733956,DepthScenes,duration_manipulation_targetAtFixation,jsons/VE125_randls_33.json,http://54.235.29.9/FacialAge/BNav_EC2/DepthDuration/v2_depth_duration_MTurk/v2_DepthDuration_HTML.html#117,117,1633,939,1680,1050,9-19-2022,16-6-9,6,depth_duration_stimuli/001571_2014-06-20_17-21-32_260595134347_rgbf000089-resize_1/001571_2014-06-20_17-21-32_260595134347_rgbf000089-resize_1-target.png,125,1.86,3.0,6109,126,feet,jsons/VE125_randls_33.json,1104942,1308166,36,Man
6,733956,DepthScenes,duration_manipulation_targetAtFixation,jsons/VE125_randls_33.json,http://54.235.29.9/FacialAge/BNav_EC2/DepthDuration/v2_depth_duration_MTurk/v2_DepthDuration_HTML.html#117,117,1633,939,1680,1050,9-19-2022,16-6-9,7,depth_duration_stimuli/001133_2014-06-17_14-49-16_260595134347_rgbf000100-resize_0/001133_2014-06-17_14-49-16_260595134347_rgbf000100-resize_0-target.png,125,4.2115,6.0,4397,124,feet,jsons/VE125_randls_33.json,1104942,1308166,36,Man
7,733956,DepthScenes,duration_manipulation_targetAtFixation,jsons/VE125_randls_33.json,http://54.235.29.9/FacialAge/BNav_EC2/DepthDuration/v2_depth_duration_MTurk/v2_DepthDuration_HTML.html#117,117,1633,939,1680,1050,9-19-2022,16-6-9,8,depth_duration_stimuli/001132_2014-06-17_14-48-54_260595134347_rgbf000100-resize_2/001132_2014-06-17_14-48-54_260595134347_rgbf000100-resize_2-target.png,125,3.753,8.0,7931,126,feet,jsons/VE125_randls_33.json,1104942,1308166,36,Man
8,733956,DepthScenes,duration_manipulation_targetAtFixation,jsons/VE125_randls_33.json,http://54.235.29.9/FacialAge/BNav_EC2/DepthDuration/v2_depth_duration_MTurk/v2_DepthDuration_HTML.html#117,117,1633,939,1680,1050,9-19-2022,16-6-9,9,depth_duration_stimuli/001244_2014-06-17_16-47-45_260595134347_rgbf000030-resize_4/001244_2014-06-17_16-47-45_260595134347_rgbf000030-resize_4-target.png,125,2.0425,4.0,4463,126,feet,jsons/VE125_randls_33.json,1104942,1308166,36,Man
9,733956,DepthScenes,duration_manipulation_targetAtFixation,jsons/VE125_randls_33.json,http://54.235.29.9/FacialAge/BNav_EC2/DepthDuration/v2_depth_duration_MTurk/v2_DepthDuration_HTML.html#117,117,1633,939,1680,1050,9-19-2022,16-6-9,10,depth_duration_stimuli/003495_2014-05-21_16-01-51_094959634447_rgbf000100-resize_3/003495_2014-05-21_16-01-51_094959634447_rgbf000100-resize_3-target.png,125,1.6255,2.0,3953,125,feet,jsons/VE125_randls_33.json,1104942,1308166,36,Man
10,733956,DepthScenes,duration_manipulation_targetAtFixation,jsons/VE125_randls_33.json,http://54.235.29.9/FacialAge/BNav_EC2/DepthDuration/v2_depth_duration_MTurk/v2_DepthDuration_HTML.html#117,117,1633,939,1680,1050,9-19-2022,16-6-9,11,depth_duration_stimuli/000470_2014-06-09_19-42-40_260595134347_rgbf000094-resize_1/000470_2014-06-09_19-42-40_260595134347_rgbf000094-resize_1-target.png,125,1.831,2.0,5712,124,feet,jsons/VE125_randls_33.json,1104942,1308166,36,Man
11,733956,DepthScenes,duration_manipulation_targetAtFixation,jsons/VE125_randls_33.json,http://54.235.29.9/FacialAge/BNav_EC2/DepthDuration/v2_depth_duration_MTurk/v2_DepthDuration_HTML.html#117,117,1633,939,1680,1050,9-19-2022,16-6-9,12,depth_duration_stimuli/000109_2014-05-14_23-41-52_260595134347_rgbf000035-resize_9/000109_2014-05-14_23-41-52_260595134347_rgbf000035-resize_9-target.png,125,1.3545,2.0,3162,127,feet,jsons/VE125_randls_33.json,1104942,1308166,36,Man
12,733956,DepthScenes,duration_manipulation_targetAtFixation,jsons/VE125_randls_33.json,http://54.235.29.9/FacialAge/BNav_EC2/DepthDuration/v2_depth_duration_MTurk/v2_DepthDuration_HTML.html#117,117,1633,939,1680,1050,9-19-2022,16-6-9,13,depth_duration_stimuli/000569_2014-06-09_22-51-47_260595134347_rgbf000141-resize_3/000569_2014-06-09_22-51-47_260595134347_rgbf000141-resize-original.jpg,125,4.512,0.0,2902,125,feet,jsons/VE125_randls_33.json,1104942,1308166,36,Man
13,733956,DepthScenes,duration_manipulation_targetAtFixation,jsons/VE125_randls_33.json,http://54.235.29.9/FacialAge/BNav_EC2/DepthDuration/v2_depth_duration_MTurk/v2_DepthDuration_HTML.html#117,117,1633,939,1680,1050,9-19-2022,16-6-9,14,depth_duration_stimuli/002989_2014-06-15_12-25-03_094959634447_rgbf000150-resize_3/002989_2014-06-15_12-25-03_094959634447_rgbf000150-resize_3-target.png,125,4.1975,9.0,3559,126,feet,jsons/VE125_randls_33.json,1104942,1308166,36,Man
14,733956,DepthScenes,duration_manipulation_targetAtFixation,jsons/VE125_randls_33.json,http://54.235.29.9/FacialAge/BNav_EC2/DepthDuration/v2_depth_duration_MTurk/v2_DepthDuration_HTML.html#117,117,1633,939,1680,1050,9-19-2022,16-6-9,15,depth_duration_stimuli/000866_2014-06-09_20-45-42_260595134347_rgbf000139-resize_1/000866_2014-06-09_20-45-42_260595134347_rgbf000139-resize_1-target.png,125,3.2155,4.0,3720,126,feet,jsons/VE125_randls_33.json,1104942,1308166,36,Man
15,733956,DepthScenes,duration_manipulation_targetAtFixation,jsons/VE125_randls_33.json,http://54.235.29.9/FacialAge/BNav_EC2/DepthDuration/v2_depth_duration_MTurk/v2_DepthDuration_HTML.html#117,117,1633,939,1680,1050,9-19-2022,16-6-9,16,depth_duration_stimuli/000906_2014-06-08_13-35-43_260595134347_rgbf000155-resize_1/000906_2014-06-08_13-35-43_260595134347_rgbf000155-resize_1-target.png,125,2.8489999999999998,6.0,5261,125,feet,jsons/VE125_randls_33.json,1104942,1308166,36,Man
16,733956,DepthScenes,duration_manipulation_targetAtFixation,jsons/VE125_randls_33.json,http://54.235.29.9/FacialAge/BNav_EC2/DepthDuration/v2_depth_duration_MTurk/v2_DepthDuration_HTML.html#117,117,1633,939,1680,1050,9-19-2022,16-6-9,17,depth_duration_stimuli/002805_2014-06-22_19-54-03_094959634447_rgbf000079-resize_1/002805_2014-06-22_19-54-03_094959634447_rgbf000079-resize_1-target.png,125,3.1439999999999997,8.0,4580,124,feet,jsons/VE125_randls_33.json,1104942,1308166,36,Man
17,733956,DepthScenes,duration_manipulation_targetAtFixation,jsons/VE125_randls_33.json,http://54.235.29.9/FacialAge/BNav_EC2/DepthDuration/v2_depth_duration_MTurk/v2_DepthDuration_HTML.html#117,117,1633,939,1680,1050,9-19-2022,16-6-9,18,depth_duration_stimuli/000736_2014-06-08_18-24-15_260595134347_rgbf000206-resize_3/000736_2014-06-08_18-24-15_260595134347_rgbf000206-resize_3-target.png,125,3.515,6.0,3846,126,feet,jsons/VE125_randls_33.json,1104942,1308166,36,Man
18,733956,DepthScenes,duration_manipulation_targetAtFixation,jsons/VE125_randls_33.json,http://54.235.29.9/FacialAge/BNav_EC2/DepthDuration/v2_depth_duration_MTurk/v2_DepthDuration_HTML.html#117,117,1633,939,1680,1050,9-19-2022,16-6-9,19,depth_duration_stimuli/000137_2014-05-20_17-04-49_260595134347_rgbf000120-resize_1/000137_2014-05-20_17-04-49_260595134347_rgbf000120-resize_1-target.png,125,3.786,5.0,8179,126,feet,jsons/VE125_randls_33.json,1104942,1308166,36,Man
19,733956,DepthScenes,duration_manipulation_targetAtFixation,jsons/VE125_randls_33.json,http://54.235.29.9/FacialAge/BNav_EC2/DepthDuration/v2_depth_duration_MTurk/v2_DepthDuration_HTML.html#117,117,1633,939,1680,1050,9-19-2022,16-6-9,20,depth_duration_stimuli/002663_2014-06-13_15-50-26_094959634447_rgbf000075-resize_1/002663_2014-06-13_15-50-26_094959634447_rgbf000075-resize_1-target.png,125,4.7495,7.0,5242,124,feet,jsons/VE125_randls_33.json,1104942,1308166,36,Man
20,733956,DepthScenes,duration_manipulation_targetAtFixation,jsons/VE125_randls_33.json,http://54.235.29.9/FacialAge/BNav_EC2/DepthDuration/v2_depth_duration_MTurk/v2_DepthDuration_HTML.html#117,117,1633,939,1680,1050,9-19-2022,16-6-9,21,depth_duration_stimuli/000409_2014-06-04_19-23-33_260595134347_rgbf000067-resize_0/000409_2014-06-04_19-23-33_260595134347_rgbf000067-resize_0-target.png,125,3.7335,6.0,4207,124,feet,jsons/VE125_randls_33.json,1104942,1308166,36,Man
21,733956,DepthScenes,duration_manipulation_targetAtFixation,jsons/VE125_randls_33.json,http://54.235.29.9/FacialAge/BNav_EC2/DepthDuration/v2_depth_duration_MTurk/v2_DepthDuration_HTML.html#117,117,1633,939,1680,1050,9-19-2022,16-6-9,22,depth_duration_stimuli/000506_2014-06-08_23-21-00_260595134347_rgbf000070-resize_7/000506_2014-06-08_23-21-00_260595134347_rgbf000070-resize_7-target.png,125,4.0585,6.0,3469,125,feet,jsons/VE125_randls_33.json,1104942,1308166,36,Man
22,733956,DepthScenes,duration_manipulation_targetAtFixation,jsons/VE125_randls_33.json,http://54.235.29.9/FacialAge/BNav_EC2/DepthDuration/v2_depth_duration_MTurk/v2_DepthDuration_HTML.html#117,117,1633,939,1680,1050,9-19-2022,16-6-9,23,depth_duration_stimuli/003079_2014-06-15_15-18-20_094959634447_rgbf000152-resize_8/003079_2014-06-15_15-18-20_094959634447_rgbf000152-resize_8-target.png,125,2.8775,7.0,3999,124,feet,jsons/VE125_randls_33.json,1104942,1308166,36,Man
23,733956,DepthScenes,duration_manipulation_targetAtFixation,jsons/VE125_randls_33.json,http://54.235.29.9/FacialAge/BNav_EC2/DepthDuration/v2_depth_duration_MTurk/v2_DepthDuration_HTML.html#117,117,1633,939,1680,1050,9-19-2022,16-6-9,24,depth_duration_stimuli/002630_2014-06-24_14-47-50_094959634447_rgbf000055-resize_1/002630_2014-06-24_14-47-50_094959634447_rgbf000055-resize_1-target.png,125,3.0095,7.0,7476,125,feet,jsons/VE125_randls_33.json,1104942,1308166,36,Man
24,733956,DepthScenes,duration_manipulation_targetAtFixation,jsons/VE125_randls_33.json,http://54.235.29.9/FacialAge/BNav_EC2/DepthDuration/v2_depth_duration_MTurk/v2_DepthDuration_HTML.html#117,117,1633,939,1680,1050,9-19-2022,16-6-9,25,depth_duration_stimuli/002758_2014-06-22_19-11-20_094959634447_rgbf000128-resize_1/002758_2014-06-22_19-11-20_094959634447_rgbf000128-resize_1-target.png,125,2.555,4.0,3453,125,feet,jsons/VE125_randls_33.json,1104942,1308166,36,Man
25,733956,DepthScenes,duration_manipulation_targetAtFixation,jsons/VE125_randls_33.json,http://54.235.29.9/FacialAge/BNav_EC2/DepthDuration/v2_depth_duration_MTurk/v2_DepthDuration_HTML.html#117,117,1633,939,1680,1050,9-19-2022,16-6-9,26,depth_duration_stimuli/002570_2014-06-24_13-59-54_094959634447_rgbf000059-resize_0/002570_2014-06-24_13-59-54_094959634447_rgbf000059-resize_0-target.png,125,4.037,3.0,5368,125,feet,jsons/VE125_randls_33.json,1104942,1308166,36,Man
26,733956,DepthScenes,duration_manipulation_targetAtFixation,jsons/VE125_randls_33.json,http://54.235.29.9/FacialAge/BNav_EC2/DepthDuration/v2_depth_duration_MTurk/v2_DepthDuration_HTML.html#117,117,1633,939,1680,1050,9-19-2022,16-6-9,27,depth_duration_stimuli/002467_2014-06-28_20-38-07_260595134347_rgbf000026-resize_2/002467_2014-06-28_20-38-07_260595134347_rgbf000026-resize_2-target.png,125,4.742,6.0,3106,125,feet,jsons/VE125_randls_33.json,1104942,1308166,36,Man
27,733956,DepthScenes,duration_manipulation_targetAtFixation,jsons/VE125_randls_33.json,http://54.235.29.9/FacialAge/BNav_EC2/DepthDuration/v2_depth_duration_MTurk/v2_DepthDuration_HTML.html#117,117,1633,939,1680,1050,9-19-2022,16-6-9,28,depth_duration_stimuli/001810_2014-06-26_20-51-35_260595134347_rgbf000040-resize_3/001810_2014-06-26_20-51-35_260595134347_rgbf000040-resize_3-target.png,125,2.2525,4.0,6067,124,feet,jsons/VE125_randls_33.json,1104942,1308166,36,Man
28,733956,DepthScenes,duration_manipulation_targetAtFixation,jsons/VE125_randls_33.json,http://54.235.29.9/FacialAge/BNav_EC2/DepthDuration/v2_depth_duration_MTurk/v2_DepthDuration_HTML.html#117,117,1633,939,1680,1050,9-19-2022,16-6-9,29,depth_duration_stimuli/003010_2014-06-15_12-54-35_094959634447_rgbf000112-resize_0/003010_2014-06-15_12-54-35_094959634447_rgbf000112-resize_0-target.png,125,3.1185,7.0,8107,124,feet,jsons/VE125_randls_33.json,1104942,1308166,36,Man
29,733956,DepthScenes,duration_manipulation_targetAtFixation,jsons/VE125_randls_33.json,http://54.235.29.9/FacialAge/BNav_EC2/DepthDuration/v2_depth_duration_MTurk/v2_DepthDuration_HTML.html#117,117,1633,939,1680,1050,9-19-2022,16-6-9,30,depth_duration_stimuli/000375_2014-06-08_11-17-29_260595134347_rgbf000133-resize_2/000375_2014-06-08_11-17-29_260595134347_rgbf000133-resize-original.jpg,125,4.718,0.0,3607,125,feet,jsons/VE125_randls_33.json,1104942,1308166,36,Man
30,733956,DepthScenes,duration_manipulation_targetAtFixation,jsons/VE125_randls_33.json,http://54.235.29.9/FacialAge/BNav_EC2/DepthDuration/v2_depth_duration_MTurk/v2_DepthDuration_HTML.html#117,117,1633,939,1680,1050,9-19-2022,16-6-9,31,depth_duration_stimuli/002039_2014-06-24_20-22-38_260595134347_rgbf000084-resize_1/002039_2014-06-24_20-22-38_260595134347_rgbf000084-resize_1-target.png,125,4.408,6.0,5984,124,feet,jsons/VE125_randls_33.json,1104942,1308166,36,Man
31,733956,DepthScenes,duration_manipulation_targetAtFixation,jsons/VE125_randls_33.json,http://54.235.29.9/FacialAge/BNav_EC2/DepthDuration/v2_depth_duration_MTurk/v2_DepthDuration_HTML.html#117,117,1633,939,1680,1050,9-19-2022,16-6-9,32,depth_duration_stimuli/002103_2014-06-25_20-00-40_260595134347_rgbf000049-resize_0/002103_2014-06-25_20-00-40_260595134347_rgbf000049-resize_0-target.png,125,4.105,0.0,3320,125,feet,jsons/VE125_randls_33.json,1104942,1308166,36,Man
32,733956,DepthScenes,duration_manipulation_targetAtFixation,jsons/VE125_randls_33.json,http://54.235.29.9/FacialAge/BNav_EC2/DepthDuration/v2_depth_duration_MTurk/v2_DepthDuration_HTML.html#117,117,1633,939,1680,1050,9-19-2022,16-6-9,33,depth_duration_stimuli/001016_2014-06-09_16-16-10_260595134347_rgbf000112-resize_5/001016_2014-06-09_16-16-10_260595134347_rgbf000112-resize_5-target.png,125,1.6565,3.0,5325,125,feet,jsons/VE125_randls_33.json,1104942,1308166,36,Man
33,733956,DepthScenes,duration_manipulation_targetAtFixation,jsons/VE125_randls_33.json,http://54.235.29.9/FacialAge/BNav_EC2/DepthDuration/v2_depth_duration_MTurk/v2_DepthDuration_HTML.html#117,117,1633,939,1680,1050,9-19-2022,16-6-9,34,depth_duration_stimuli/002340_2014-06-28_20-05-46_260595134347_rgbf000113-resize_0/002340_2014-06-28_20-05-46_260595134347_rgbf000113-resize_0-target.png,125,2.4735,8.0,4237,124,feet,jsons/VE125_randls_33.json,1104942,1308166,36,Man
34,733956,DepthScenes,duration_manipulation_targetAtFixation,jsons/VE125_randls_33.json,http://54.235.29.9/FacialAge/BNav_EC2/DepthDuration/v2_depth_duration_MTurk/v2_DepthDuration_HTML.html#117,117,1633,939,1680,1050,9-19-2022,16-6-9,35,depth_duration_stimuli/000682_2014-06-08_23-14-58_260595134347_rgbf000041-resize_5/000682_2014-06-08_23-14-58_260595134347_rgbf000041-resize_5-target.png,125,2.7239999999999998,4.0,3801,124,feet,jsons/VE125_randls_33.json,1104942,1308166,36,Man
35,733956,DepthScenes,duration_manipulation_targetAtFixation,jsons/VE125_randls_33.json,http://54.235.29.9/FacialAge/BNav_EC2/DepthDuration/v2_depth_duration_MTurk/v2_DepthDuration_HTML.html#117,117,1633,939,1680,1050,9-19-2022,16-6-9,36,depth_duration_stimuli/001650_2014-06-20_12-09-00_260595134347_rgbf000087-resize_3/001650_2014-06-20_12-09-00_260595134347_rgbf000087-resize_3-target.png,125,1.9505,1.0,3680,125,feet,jsons/VE125_randls_33.json,1104942,1308166,36,Man
36,733956,DepthScenes,duration_manipulation_targetAtFixation,jsons/VE125_randls_33.json,http://54.235.29.9/FacialAge/BNav_EC2/DepthDuration/v2_depth_duration_MTurk/v2_DepthDuration_HTML.html#117,117,1633,939,1680,1050,9-19-2022,16-6-9,37,depth_duration_stimuli/003534_2014-05-22_15-06-10_094959634447_rgbf000102-resize_4/003534_2014-05-22_15-06-10_094959634447_rgbf000102-resize_4-target.png,125,1.426,2.0,3652,126,feet,jsons/VE125_randls_33.json,1104942,1308166,36,Man
37,733956,DepthScenes,duration_manipulation_targetAtFixation,jsons/VE125_randls_33.json,http://54.235.29.9/FacialAge/BNav_EC2/DepthDuration/v2_depth_duration_MTurk/v2_DepthDuration_HTML.html#117,117,1633,939,1680,1050,9-19-2022,16-6-9,38,depth_duration_stimuli/002637_2014-06-24_14-51-13_094959634447_rgbf000066-resize_4/002637_2014-06-24_14-51-13_094959634447_rgbf000066-resize_4-target.png,125,1.9955,4.0,8176,126,feet,jsons/VE125_randls_33.json,1104942,1308166,36,Man
38,733956,DepthScenes,duration_manipulation_targetAtFixation,jsons/VE125_randls_33.json,http://54.235.29.9/FacialAge/BNav_EC2/DepthDuration/v2_depth_duration_MTurk/v2_DepthDuration_HTML.html#117,117,1633,939,1680,1050,9-19-2022,16-6-9,39,depth_duration_stimuli/001092_2014-06-15_17-34-58_260595134347_rgbf000171-resize_3/001092_2014-06-15_17-34-58_260595134347_rgbf000171-resize_3-target.png,125,2.6935,4.0,4562,126,feet,jsons/VE125_randls_33.json,1104942,1308166,36,Man
39,733956,DepthScenes,duration_manipulation_targetAtFixation,jsons/VE125_randls_33.json,http://54.235.29.9/FacialAge/BNav_EC2/DepthDuration/v2_depth_duration_MTurk/v2_DepthDuration_HTML.html#117,117,1633,939,1680,1050,9-19-2022,16-6-9,40,depth_duration_stimuli/002545_2014-06-24_13-38-53_094959634447_rgbf000080-resize_4/002545_2014-06-24_13-38-53_094959634447_rgbf000080-resize_4-target.png,125,1.9205,4.0,4280,125,feet,jsons/VE125_randls_33.json,1104942,1308166,36,Man
40,733956,DepthScenes,duration_manipulation_targetAtFixation,jsons/VE125_randls_33.json,http://54.235.29.9/FacialAge/BNav_EC2/DepthDuration/v2_depth_duration_MTurk/v2_DepthDuration_HTML.html#117,117,1633,939,1680,1050,9-19-2022,16-6-9,41,depth_duration_stimuli/000493_2014-06-09_21-01-18_260595134347_rgbf000196-resize_3/000493_2014-06-09_21-01-18_260595134347_rgbf000196-resize_3-target.png,125,3.44,6.0,4482,125,feet,jsons/VE125_randls_33.json,1104942,1308166,36,Man
41,733956,DepthScenes,duration_manipulation_targetAtFixation,jsons/VE125_randls_33.json,http://54.235.29.9/FacialAge/BNav_EC2/DepthDuration/v2_depth_duration_MTurk/v2_DepthDuration_HTML.html#117,117,1633,939,1680,1050,9-19-2022,16-6-9,42,depth_duration_stimuli/000191_2014-05-12_17-07-38_260595134347_rgbf000199-resize_0/000191_2014-05-12_17-07-38_260595134347_rgbf000199-resize_0-target.png,125,3.7995,11.0,13701,124,feet,jsons/VE125_randls_33.json,1104942,1308166,36,Man
42,733956,DepthScenes,duration_manipulation_targetAtFixation,jsons/VE125_randls_33.json,http://54.235.29.9/FacialAge/BNav_EC2/DepthDuration/v2_depth_duration_MTurk/v2_DepthDuration_HTML.html#117,117,1633,939,1680,1050,9-19-2022,16-6-9,43,depth_duration_stimuli/001059_2014-06-08_21-53-27_260595134347_rgbf000061-resize_4/001059_2014-06-08_21-53-27_260595134347_rgbf000061-resize_4-target.png,125,2.4185,4.0,4822,124,feet,jsons/VE125_randls_33.json,1104942,1308166,36,Man
43,733956,DepthScenes,duration_manipulation_targetAtFixation,jsons/VE125_randls_33.json,http://54.235.29.9/FacialAge/BNav_EC2/DepthDuration/v2_depth_duration_MTurk/v2_DepthDuration_HTML.html#117,117,1633,939,1680,1050,9-19-2022,16-6-9,44,depth_duration_stimuli/001032_2014-06-08_13-23-17_260595134347_rgbf000021-resize_3/001032_2014-06-08_13-23-17_260595134347_rgbf000021-resize_3-target.png,125,3.2725,4.0,3622,126,feet,jsons/VE125_randls_33.json,1104942,1308166,36,Man
44,733956,DepthScenes,duration_manipulation_targetAtFixation,jsons/VE125_randls_33.json,http://54.235.29.9/FacialAge/BNav_EC2/DepthDuration/v2_depth_duration_MTurk/v2_DepthDuration_HTML.html#117,117,1633,939,1680,1050,9-19-2022,16-6-9,45,depth_duration_stimuli/000787_2014-06-08_22-33-53_260595134347_rgbf000175-resize_1/000787_2014-06-08_22-33-53_260595134347_rgbf000175-resize-original.jpg,125,4.784,0.0,3570,125,feet,jsons/VE125_randls_33.json,1104942,1308166,36,Man
45,733956,DepthScenes,duration_manipulation_targetAtFixation,jsons/VE125_randls_33.json,http://54.235.29.9/FacialAge/BNav_EC2/DepthDuration/v2_depth_duration_MTurk/v2_DepthDuration_HTML.html#117,117,1633,939,1680,1050,9-19-2022,16-6-9,46,depth_duration_stimuli/000486_2014-06-09_20-47-20_260595134347_rgbf000143-resize_2/000486_2014-06-09_20-47-20_260595134347_rgbf000143-resize_2-target.png,125,4.8325,6.0,9808,124,feet,jsons/VE125_randls_33.json,1104942,1308166,36,Man
46,733956,DepthScenes,duration_manipulation_targetAtFixation,jsons/VE125_randls_33.json,http://54.235.29.9/FacialAge/BNav_EC2/DepthDuration/v2_depth_duration_MTurk/v2_DepthDuration_HTML.html#117,117,1633,939,1680,1050,9-19-2022,16-6-9,47,depth_duration_stimuli/003083_2014-06-15_15-21-03_094959634447_rgbf000063-resize_1/003083_2014-06-15_15-21-03_094959634447_rgbf000063-resize_1-target.png,125,4.1405,8.0,6764,125,feet,jsons/VE125_randls_33.json,1104942,1308166,36,Man
47,733956,DepthScenes,duration_manipulation_targetAtFixation,jsons/VE125_randls_33.json,http://54.235.29.9/FacialAge/BNav_EC2/DepthDuration/v2_depth_duration_MTurk/v2_DepthDuration_HTML.html#117,117,1633,939,1680,1050,9-19-2022,16-6-9,48,depth_duration_stimuli/002763_2014-06-22_19-13-10_094959634447_rgbf000075-resize_4/002763_2014-06-22_19-13-10_094959634447_rgbf000075-resize_4-target.png,125,1.68375,4.0,4870,124,feet,jsons/VE125_randls_33.json,1104942,1308166,36,Man
48,733956,DepthScenes,duration_manipulation_targetAtFixation,jsons/VE125_randls_33.json,http://54.235.29.9/FacialAge/BNav_EC2/DepthDuration/v2_depth_duration_MTurk/v2_DepthDuration_HTML.html#117,117,1633,939,1680,1050,9-19-2022,16-6-9,49,depth_duration_stimuli/002209_2014-06-28_18-36-10_260595134347_rgbf000051-resize_1/002209_2014-06-28_18-36-10_260595134347_rgbf000051-resize_1-target.png,125,2.057,4.0,5495,125,feet,jsons/VE125_randls_33.json,1104942,1308166,36,Man
49,733956,DepthScenes,duration_manipulation_targetAtFixation,jsons/VE125_randls_33.json,http://54.235.29.9/FacialAge/BNav_EC2/DepthDuration/v2_depth_duration_MTurk/v2_DepthDuration_HTML.html#117,117,1633,939,1680,1050,9-19-2022,16-6-9,50,depth_duration_stimuli/001199_2014-06-17_16-03-48_260595134347_rgbf000077-resize_0/001199_2014-06-17_16-03-48_260595134347_rgbf000077-resize_0-target.png,125,3.4375,6.0,6465,125,feet,jsons/VE125_randls_33.json,1104942,1308166,36,Man
50,733956,DepthScenes,duration_manipulation_targetAtFixation,jsons/VE125_randls_33.json,http://54.235.29.9/FacialAge/BNav_EC2/DepthDuration/v2_depth_duration_MTurk/v2_DepthDuration_HTML.html#117,117,1633,939,1680,1050,9-19-2022,16-6-9,51,depth_duration_stimuli/000502_2014-06-08_23-02-32_260595134347_rgbf000063-resize_4/000502_2014-06-08_23-02-32_260595134347_rgbf000063-resize_4-target.png,125,2.431,2.0,6378,125,feet,jsons/VE125_randls_33.json,1104942,1308166,36,Man
51,733956,DepthScenes,duration_manipulation_targetAtFixation,jsons/VE125_randls_33.json,http://54.235.29.9/FacialAge/BNav_EC2/DepthDuration/v2_depth_duration_MTurk/v2_DepthDuration_HTML.html#117,117,1633,939,1680,1050,9-19-2022,16-6-9,52,depth_duration_stimuli/002905_2014-06-03_18-04-43_094959634447_rgbf000151-resize_2/002905_2014-06-03_18-04-43_094959634447_rgbf000151-resize_2-target.png,125,2.0295,3.0,3404,124,feet,jsons/VE125_randls_33.json,1104942,1308166,36,Man
52,733956,DepthScenes,duration_manipulation_targetAtFixation,jsons/VE125_randls_33.json,http://54.235.29.9/FacialAge/BNav_EC2/DepthDuration/v2_depth_duration_MTurk/v2_DepthDuration_HTML.html#117,117,1633,939,1680,1050,9-19-2022,16-6-9,53,depth_duration_stimuli/003423_2014-05-21_10-23-26_094959634447_rgbf002665-resize_2/003423_2014-05-21_10-23-26_094959634447_rgbf002665-resize_2-target.png,125,3.2575,8.0,3470,126,feet,jsons/VE125_randls_33.json,1104942,1308166,36,Man
53,733956,DepthScenes,duration_manipulation_targetAtFixation,jsons/VE125_randls_33.json,http://54.235.29.9/FacialAge/BNav_EC2/DepthDuration/v2_depth_duration_MTurk/v2_DepthDuration_HTML.html#117,117,1633,939,1680,1050,9-19-2022,16-6-9,54,depth_duration_stimuli/002043_2014-06-24_20-29-38_260595134347_rgbf000039-resize_4/002043_2014-06-24_20-29-38_260595134347_rgbf000039-resize_4-target.png,125,2.8435,5.0,3366,125,feet,jsons/VE125_randls_33.json,1104942,1308166,36,Man
54,733956,DepthScenes,duration_manipulation_targetAtFixation,jsons/VE125_randls_33.json,http://54.235.29.9/FacialAge/BNav_EC2/DepthDuration/v2_depth_duration_MTurk/v2_DepthDuration_HTML.html#117,117,1633,939,1680,1050,9-19-2022,16-6-9,55,depth_duration_stimuli/003048_2014-06-15_13-49-43_094959634447_rgbf000150-resize_1/003048_2014-06-15_13-49-43_094959634447_rgbf000150-resize_1-target.png,125,4.0035,8.0,3268,124,feet,jsons/VE125_randls_33.json,1104942,1308166,36,Man
55,733956,DepthScenes,duration_manipulation_targetAtFixation,jsons/VE125_randls_33.json,http://54.235.29.9/FacialAge/BNav_EC2/DepthDuration/v2_depth_duration_MTurk/v2_DepthDuration_HTML.html#117,117,1633,939,1680,1050,9-19-2022,16-6-9,56,depth_duration_stimuli/000368_2014-06-09_15-53-01_260595134347_rgbf000155-resize_2/000368_2014-06-09_15-53-01_260595134347_rgbf000155-resize_2-target.png,125,2.4859999999999998,4.0,3393,124,feet,jsons/VE125_randls_33.json,1104942,1308166,36,Man
56,733956,DepthScenes,duration_manipulation_targetAtFixation,jsons/VE125_randls_33.json,http://54.235.29.9/FacialAge/BNav_EC2/DepthDuration/v2_depth_duration_MTurk/v2_DepthDuration_HTML.html#117,117,1633,939,1680,1050,9-19-2022,16-6-9,57,depth_duration_stimuli/002678_2014-06-13_16-15-32_094959634447_rgbf000151-resize_6/002678_2014-06-13_16-15-32_094959634447_rgbf000151-resize_6-target.png,125,2.1830000000000003,6.0,3855,126,feet,jsons/VE125_randls_33.json,1104942,1308166,36,Man
57,733956,DepthScenes,duration_manipulation_targetAtFixation,jsons/VE125_randls_33.json,http://54.235.29.9/FacialAge/BNav_EC2/DepthDuration/v2_depth_duration_MTurk/v2_DepthDuration_HTML.html#117,117,1633,939,1680,1050,9-19-2022,16-6-9,58,depth_duration_stimuli/002375_2014-06-28_20-13-44_260595134347_rgbf000032-resize_1/002375_2014-06-28_20-13-44_260595134347_rgbf000032-resize_1-target.png,125,4.0175,4.0,3312,123,feet,jsons/VE125_randls_33.json,1104942,1308166,36,Man
58,733956,DepthScenes,duration_manipulation_targetAtFixation,jsons/VE125_randls_33.json,http://54.235.29.9/FacialAge/BNav_EC2/DepthDuration/v2_depth_duration_MTurk/v2_DepthDuration_HTML.html#117,117,1633,939,1680,1050,9-19-2022,16-6-9,59,depth_duration_stimuli/002657_2014-06-13_15-29-54_094959634447_rgbf000150-resize_1/002657_2014-06-13_15-29-54_094959634447_rgbf000150-resize_1-target.png,125,4.919,5.0,7242,125,feet,jsons/VE125_randls_33.json,1104942,1308166,36,Man
59,733956,DepthScenes,duration_manipulation_targetAtFixation,jsons/VE125_randls_33.json,http://54.235.29.9/FacialAge/BNav_EC2/DepthDuration/v2_depth_duration_MTurk/v2_DepthDuration_HTML.html#117,117,1633,939,1680,1050,9-19-2022,16-6-9,60,depth_duration_stimuli/000692_2014-06-08_13-09-42_260595134347_rgbf000199-resize_2/000692_2014-06-08_13-09-42_260595134347_rgbf000199-resize_2-target.png,125,3.661,6.0,4555,125,feet,jsons/VE125_randls_33.json,1104942,1308166,36,Man
60,733956,DepthScenes,duration_manipulation_targetAtFixation,jsons/VE125_randls_33.json,http://54.235.29.9/FacialAge/BNav_EC2/DepthDuration/v2_depth_duration_MTurk/v2_DepthDuration_HTML.html#117,117,1633,939,1680,1050,9-19-2022,16-6-9,61,depth_duration_stimuli/001094_2014-06-15_17-36-00_260595134347_rgbf000205-resize_0/001094_2014-06-15_17-36-00_260595134347_rgbf000205-resize_0-target.png,125,4.2175,6.0,8760,125,feet,jsons/VE125_randls_33.json,1104942,1308166,36,Man
61,733956,DepthScenes,duration_manipulation_targetAtFixation,jsons/VE125_randls_33.json,http://54.235.29.9/FacialAge/BNav_EC2/DepthDuration/v2_depth_duration_MTurk/v2_DepthDuration_HTML.html#117,117,1633,939,1680,1050,9-19-2022,16-6-9,62,depth_duration_stimuli/003070_2014-06-15_14-58-27_094959634447_rgbf000150-resize_3/003070_2014-06-15_14-58-27_094959634447_rgbf000150-resize_3-target.png,125,2.9415,5.0,5040,125,feet,jsons/VE125_randls_33.json,1104942,1308166,36,Man
62,733956,DepthScenes,duration_manipulation_targetAtFixation,jsons/VE125_randls_33.json,http://54.235.29.9/FacialAge/BNav_EC2/DepthDuration/v2_depth_duration_MTurk/v2_DepthDuration_HTML.html#117,117,1633,939,1680,1050,9-19-2022,16-6-9,63,depth_duration_stimuli/000943_2014-06-09_19-31-07_260595134347_rgbf000128-resize_1/000943_2014-06-09_19-31-07_260595134347_rgbf000128-resize_1-target.png,125,1.9765,3.0,5718,125,feet,jsons/VE125_randls_33.json,1104942,1308166,36,Man
63,733956,DepthScenes,duration_manipulation_targetAtFixation,jsons/VE125_randls_33.json,http://54.235.29.9/FacialAge/BNav_EC2/DepthDuration/v2_depth_duration_MTurk/v2_DepthDuration_HTML.html#117,117,1633,939,1680,1050,9-19-2022,16-6-9,64,depth_duration_stimuli/002279_2014-06-28_18-55-32_260595134347_rgbf000040-resize_5/002279_2014-06-28_18-55-32_260595134347_rgbf000040-resize_5-target.png,125,1.5043333333333,2.0,3326,124,feet,jsons/VE125_randls_33.json,1104942,1308166,36,Man
64,733956,DepthScenes,duration_manipulation_targetAtFixation,jsons/VE125_randls_33.json,http://54.235.29.9/FacialAge/BNav_EC2/DepthDuration/v2_depth_duration_MTurk/v2_DepthDuration_HTML.html#117,117,1633,939,1680,1050,9-19-2022,16-6-9,65,depth_duration_stimuli/000635_2014-06-08_16-38-42_260595134347_rgbf000106-resize_1/000635_2014-06-08_16-38-42_260595134347_rgbf000106-resize_1-target.png,125,2.074,5.0,14634,126,feet,jsons/VE125_randls_33.json,1104942,1308166,36,Man
65,733956,DepthScenes,duration_manipulation_targetAtFixation,jsons/VE125_randls_33.json,http://54.235.29.9/FacialAge/BNav_EC2/DepthDuration/v2_depth_duration_MTurk/v2_DepthDuration_HTML.html#117,117,1633,939,1680,1050,9-19-2022,16-6-9,66,depth_duration_stimuli/001222_2014-06-17_16-24-06_260595134347_rgbf000073-resize_0/001222_2014-06-17_16-24-06_260595134347_rgbf000073-resize-original.jpg,125,1.4385,0.0,3452,125,feet,jsons/VE125_randls_33.json,1104942,1308166,36,Man
66,733956,DepthScenes,duration_manipulation_targetAtFixation,jsons/VE125_randls_33.json,http://54.235.29.9/FacialAge/BNav_EC2/DepthDuration/v2_depth_duration_MTurk/v2_DepthDuration_HTML.html#117,117,1633,939,1680,1050,9-19-2022,16-6-9,67,depth_duration_stimuli/000009_2014-05-26_14-32-05_260595134347_rgbf000034-resize_3/000009_2014-05-26_14-32-05_260595134347_rgbf000034-resize_3-target.png,125,3.8715,8.0,4331,126,feet,jsons/VE125_randls_33.json,1104942,1308166,36,Man
67,733956,DepthScenes,duration_manipulation_targetAtFixation,jsons/VE125_randls_33.json,http://54.235.29.9/FacialAge/BNav_EC2/DepthDuration/v2_depth_duration_MTurk/v2_DepthDuration_HTML.html#117,117,1633,939,1680,1050,9-19-2022,16-6-9,68,depth_duration_stimuli/001828_2014-06-26_21-40-03_260595134347_rgbf000024-resize_0/001828_2014-06-26_21-40-03_260595134347_rgbf000024-resize_0-target.png,125,4.8260000000000005,7.0,4943,125,feet,jsons/VE125_randls_33.json,1104942,1308166,36,Man
68,733956,DepthScenes,duration_manipulation_targetAtFixation,jsons/VE125_randls_33.json,http://54.235.29.9/FacialAge/BNav_EC2/DepthDuration/v2_depth_duration_MTurk/v2_DepthDuration_HTML.html#117,117,1633,939,1680,1050,9-19-2022,16-6-9,69,depth_duration_stimuli/002964_2014-06-08_17-46-11_094959634447_rgbf000091-resize_4/002964_2014-06-08_17-46-11_094959634447_rgbf000091-resize_4-target.png,125,1.6909999999999998,2.0,5937,125,feet,jsons/VE125_randls_33.json,1104942,1308166,36,Man
69,733956,DepthScenes,duration_manipulation_targetAtFixation,jsons/VE125_randls_33.json,http://54.235.29.9/FacialAge/BNav_EC2/DepthDuration/v2_depth_duration_MTurk/v2_DepthDuration_HTML.html#117,117,1633,939,1680,1050,9-19-2022,16-6-9,70,depth_duration_stimuli/002136_2014-06-25_21-18-03_260595134347_rgbf000109-resize_3/002136_2014-06-25_21-18-03_260595134347_rgbf000109-resize_3-target.png,125,1.9569999999999999,3.0,3150,125,feet,jsons/VE125_randls_33.json,1104942,1308166,36,Man
70,733956,DepthScenes,duration_manipulation_targetAtFixation,jsons/VE125_randls_33.json,http://54.235.29.9/FacialAge/BNav_EC2/DepthDuration/v2_depth_duration_MTurk/v2_DepthDuration_HTML.html#117,117,1633,939,1680,1050,9-19-2022,16-6-9,71,depth_duration_stimuli/000878_2014-06-08_22-52-45_260595134347_rgbf000045-resize_2/000878_2014-06-08_22-52-45_260595134347_rgbf000045-resize_2-target.png,125,2.092,5.0,4677,125,feet,jsons/VE125_randls_33.json,1104942,1308166,36,Man
71,733956,DepthScenes,duration_manipulation_targetAtFixation,jsons/VE125_randls_33.json,http://54.235.29.9/FacialAge/BNav_EC2/DepthDuration/v2_depth_duration_MTurk/v2_DepthDuration_HTML.html#117,117,1633,939,1680,1050,9-19-2022,16-6-9,72,depth_duration_stimuli/002953_2014-06-08_17-32-18_094959634447_rgbf000059-resize_5/002953_2014-06-08_17-32-18_094959634447_rgbf000059-resize_5-target.png,125,1.551,3.0,3675,125,feet,jsons/VE125_randls_33.json,1104942,1308166,36,Man
72,733956,DepthScenes,duration_manipulation_targetAtFixation,jsons/VE125_randls_33.json,http://54.235.29.9/FacialAge/BNav_EC2/DepthDuration/v2_depth_duration_MTurk/v2_DepthDuration_HTML.html#117,117,1633,939,1680,1050,9-19-2022,16-6-9,73,depth_duration_stimuli/001110_2014-06-15_17-25-28_260595134347_rgbf000150-resize_1/001110_2014-06-15_17-25-28_260595134347_rgbf000150-resize_1-target.png,125,1.7115,2.0,4568,124,feet,jsons/VE125_randls_33.json,1104942,1308166,36,Man
73,733956,DepthScenes,duration_manipulation_targetAtFixation,jsons/VE125_randls_33.json,http://54.235.29.9/FacialAge/BNav_EC2/DepthDuration/v2_depth_duration_MTurk/v2_DepthDuration_HTML.html#117,117,1633,939,1680,1050,9-19-2022,16-6-9,74,depth_duration_stimuli/000927_2014-06-09_16-32-30_260595134347_rgbf000123-resize_3/000927_2014-06-09_16-32-30_260595134347_rgbf000123-resize_3-target.png,125,2.6785,4.0,7560,125,feet,jsons/VE125_randls_33.json,1104942,1308166,36,Man
74,733956,DepthScenes,duration_manipulation_targetAtFixation,jsons/VE125_randls_33.json,http://54.235.29.9/FacialAge/BNav_EC2/DepthDuration/v2_depth_duration_MTurk/v2_DepthDuration_HTML.html#117,117,1633,939,1680,1050,9-19-2022,16-6-9,75,depth_duration_stimuli/001066_2014-06-08_22-03-20_260595134347_rgbf000066-resize_4/001066_2014-06-08_22-03-20_260595134347_rgbf000066-resize_4-target.png,125,4.2330000000000005,8.0,4705,125,feet,jsons/VE125_randls_33.json,1104942,1308166,36,Man
75,733956,DepthScenes,duration_manipulation_targetAtFixation,jsons/VE125_randls_33.json,http://54.235.29.9/FacialAge/BNav_EC2/DepthDuration/v2_depth_duration_MTurk/v2_DepthDuration_HTML.html#117,117,1633,939,1680,1050,9-19-2022,16-6-9,76,depth_duration_stimuli/000742_2014-06-08_18-48-09_260595134347_rgbf000164-resize_4/000742_2014-06-08_18-48-09_260595134347_rgbf000164-resize_4-target.png,125,4.632,6.0,3356,123,feet,jsons/VE125_randls_33.json,1104942,1308166,36,Man
76,733956,DepthScenes,duration_manipulation_targetAtFixation,jsons/VE125_randls_33.json,http://54.235.29.9/FacialAge/BNav_EC2/DepthDuration/v2_depth_duration_MTurk/v2_DepthDuration_HTML.html#117,117,1633,939,1680,1050,9-19-2022,16-6-9,77,depth_duration_stimuli/001806_2014-06-26_20-50-20_260595134347_rgbf000091-resize_1/001806_2014-06-26_20-50-20_260595134347_rgbf000091-resize_1-target.png,125,2.7305,3.0,3772,126,feet,jsons/VE125_randls_33.json,1104942,1308166,36,Man
77,733956,DepthScenes,duration_manipulation_targetAtFixation,jsons/VE125_randls_33.json,http://54.235.29.9/FacialAge/BNav_EC2/DepthDuration/v2_depth_duration_MTurk/v2_DepthDuration_HTML.html#117,117,1633,939,1680,1050,9-19-2022,16-6-9,78,depth_duration_stimuli/001617_2014-06-20_11-35-32_260595134347_rgbf000066-resize_1/001617_2014-06-20_11-35-32_260595134347_rgbf000066-resize_1-target.png,125,3.7910000000000004,7.0,5371,124,feet,jsons/VE125_randls_33.json,1104942,1308166,36,Man
78,733956,DepthScenes,duration_manipulation_targetAtFixation,jsons/VE125_randls_33.json,http://54.235.29.9/FacialAge/BNav_EC2/DepthDuration/v2_depth_duration_MTurk/v2_DepthDuration_HTML.html#117,117,1633,939,1680,1050,9-19-2022,16-6-9,79,depth_duration_stimuli/001150_2014-06-17_15-27-34_260595134347_rgbf000108-resize_2/001150_2014-06-17_15-27-34_260595134347_rgbf000108-resize_2-target.png,125,4.0325,6.0,4654,125,feet,jsons/VE125_randls_33.json,1104942,1308166,36,Man
79,733956,DepthScenes,duration_manipulation_targetAtFixation,jsons/VE125_randls_33.json,http://54.235.29.9/FacialAge/BNav_EC2/DepthDuration/v2_depth_duration_MTurk/v2_DepthDuration_HTML.html#117,117,1633,939,1680,1050,9-19-2022,16-6-9,80,depth_duration_stimuli/000665_2014-06-09_20-42-35_260595134347_rgbf000110-resize_1/000665_2014-06-09_20-42-35_260595134347_rgbf000110-resize_1-target.png,125,3.057,4.0,5036,124,feet,jsons/VE125_randls_33.json,1104942,1308166,36,Man
80,733956,DepthScenes,duration_manipulation_targetAtFixation,jsons/VE125_randls_33.json,http://54.235.29.9/FacialAge/BNav_EC2/DepthDuration/v2_depth_duration_MTurk/v2_DepthDuration_HTML.html#117,117,1633,939,1680,1050,9-19-2022,16-6-9,81,depth_duration_stimuli/002509_2014-06-24_13-19-22_094959634447_rgbf000077-resize_0/002509_2014-06-24_13-19-22_094959634447_rgbf000077-resize_0-target.png,125,1.3065,3.0,8028,124,feet,jsons/VE125_randls_33.json,1104942,1308166,36,Man
81,733956,DepthScenes,duration_manipulation_targetAtFixation,jsons/VE125_randls_33.json,http://54.235.29.9/FacialAge/BNav_EC2/DepthDuration/v2_depth_duration_MTurk/v2_DepthDuration_HTML.html#117,117,1633,939,1680,1050,9-19-2022,16-6-9,82,depth_duration_stimuli/003338_2014-05-20_11-01-23_094959634447_rgbf000051-resize_6/003338_2014-05-20_11-01-23_094959634447_rgbf000051-resize_6-target.png,125,1.693,3.0,5477,126,feet,jsons/VE125_randls_33.json,1104942,1308166,36,Man
82,733956,DepthScenes,duration_manipulation_targetAtFixation,jsons/VE125_randls_33.json,http://54.235.29.9/FacialAge/BNav_EC2/DepthDuration/v2_depth_duration_MTurk/v2_DepthDuration_HTML.html#117,117,1633,939,1680,1050,9-19-2022,16-6-9,83,depth_duration_stimuli/001158_2014-06-17_15-32-16_260595134347_rgbf000138-resize_2/001158_2014-06-17_15-32-16_260595134347_rgbf000138-resize_2-target.png,125,4.5315,9.0,10865,125,feet,jsons/VE125_randls_33.json,1104942,1308166,36,Man
83,733956,DepthScenes,duration_manipulation_targetAtFixation,jsons/VE125_randls_33.json,http://54.235.29.9/FacialAge/BNav_EC2/DepthDuration/v2_depth_duration_MTurk/v2_DepthDuration_HTML.html#117,117,1633,939,1680,1050,9-19-2022,16-6-9,84,depth_duration_stimuli/000556_2014-06-09_22-42-56_260595134347_rgbf000214-resize_1/000556_2014-06-09_22-42-56_260595134347_rgbf000214-resize_1-target.png,125,4.8415,7.0,6126,124,feet,jsons/VE125_randls_33.json,1104942,1308166,36,Man
84,733956,DepthScenes,duration_manipulation_targetAtFixation,jsons/VE125_randls_33.json,http://54.235.29.9/FacialAge/BNav_EC2/DepthDuration/v2_depth_duration_MTurk/v2_DepthDuration_HTML.html#117,117,1633,939,1680,1050,9-19-2022,16-6-9,85,depth_duration_stimuli/001055_2014-06-08_18-45-35_260595134347_rgbf000111-resize_4/001055_2014-06-08_18-45-35_260595134347_rgbf000111-resize_4-target.png,125,2.4290000000000003,11.0,6830,124,feet,jsons/VE125_randls_33.json,1104942,1308166,36,Man
85,733956,DepthScenes,duration_manipulation_targetAtFixation,jsons/VE125_randls_33.json,http://54.235.29.9/FacialAge/BNav_EC2/DepthDuration/v2_depth_duration_MTurk/v2_DepthDuration_HTML.html#117,117,1633,939,1680,1050,9-19-2022,16-6-9,86,depth_duration_stimuli/000549_2014-06-08_22-10-24_260595134347_rgbf000247-resize_3/000549_2014-06-08_22-10-24_260595134347_rgbf000247-resize_3-target.png,125,1.841,2.0,4446,123,feet,jsons/VE125_randls_33.json,1104942,1308166,36,Man
86,733956,DepthScenes,duration_manipulation_targetAtFixation,jsons/VE125_randls_33.json,http://54.235.29.9/FacialAge/BNav_EC2/DepthDuration/v2_depth_duration_MTurk/v2_DepthDuration_HTML.html#117,117,1633,939,1680,1050,9-19-2022,16-6-9,87,depth_duration_stimuli/000758_2014-06-08_22-05-08_260595134347_rgbf000085-resize_0/000758_2014-06-08_22-05-08_260595134347_rgbf000085-resize_0-target.png,125,3.3810000000000002,6.0,57719,125,feet,jsons/VE125_randls_33.json,1104942,1308166,36,Man
87,733956,DepthScenes,duration_manipulation_targetAtFixation,jsons/VE125_randls_33.json,http://54.235.29.9/FacialAge/BNav_EC2/DepthDuration/v2_depth_duration_MTurk/v2_DepthDuration_HTML.html#117,117,1633,939,1680,1050,9-19-2022,16-6-9,88,depth_duration_stimuli/000854_2014-06-09_19-43-13_260595134347_rgbf000066-resize_0/000854_2014-06-09_19-43-13_260595134347_rgbf000066-resize_0-target.png,125,3.068,3.0,5722,125,feet,jsons/VE125_randls_33.json,1104942,1308166,36,Man
88,733956,DepthScenes,duration_manipulation_targetAtFixation,jsons/VE125_randls_33.json,http://54.235.29.9/FacialAge/BNav_EC2/DepthDuration/v2_depth_duration_MTurk/v2_DepthDuration_HTML.html#117,117,1633,939,1680,1050,9-19-2022,16-6-9,89,depth_duration_stimuli/001570_2014-06-20_17-21-09_260595134347_rgbf000135-resize_4/001570_2014-06-20_17-21-09_260595134347_rgbf000135-resize_4-target.png,125,4.467,5.0,5468,124,feet,jsons/VE125_randls_33.json,1104942,1308166,36,Man
89,733956,DepthScenes,duration_manipulation_targetAtFixation,jsons/VE125_randls_33.json,http://54.235.29.9/FacialAge/BNav_EC2/DepthDuration/v2_depth_duration_MTurk/v2_DepthDuration_HTML.html#117,117,1633,939,1680,1050,9-19-2022,16-6-9,90,depth_duration_stimuli/001392_2014-06-19_16-07-59_260595134347_rgbf000046-resize_1/001392_2014-06-19_16-07-59_260595134347_rgbf000046-resize_1-target.png,125,4.135,5.0,5599,123,feet,jsons/VE125_randls_33.json,1104942,1308166,36,Man
90,733956,DepthScenes,duration_manipulation_targetAtFixation,jsons/VE125_randls_33.json,http://54.235.29.9/FacialAge/BNav_EC2/DepthDuration/v2_depth_duration_MTurk/v2_DepthDuration_HTML.html#117,117,1633,939,1680,1050,9-19-2022,16-6-9,91,depth_duration_stimuli/001175_2014-06-17_15-45-55_260595134347_rgbf000129-resize_4/001175_2014-06-17_15-45-55_260595134347_rgbf000129-resize_4-target.png,125,4.255,8.0,41276,124,feet,jsons/VE125_randls_33.json,1104942,1308166,36,Man
91,733956,DepthScenes,duration_manipulation_targetAtFixation,jsons/VE125_randls_33.json,http://54.235.29.9/FacialAge/BNav_EC2/DepthDuration/v2_depth_duration_MTurk/v2_DepthDuration_HTML.html#117,117,1633,939,1680,1050,9-19-2022,16-6-9,92,depth_duration_stimuli/003490_2014-05-21_15-50-11_094959634447_rgbf000101-resize_3/003490_2014-05-21_15-50-11_094959634447_rgbf000101-resize_3-target.png,125,3.6445,5.0,3851,125,feet,jsons/VE125_randls_33.json,1104942,1308166,36,Man
92,733956,DepthScenes,duration_manipulation_targetAtFixation,jsons/VE125_randls_33.json,http://54.235.29.9/FacialAge/BNav_EC2/DepthDuration/v2_depth_duration_MTurk/v2_DepthDuration_HTML.html#117,117,1633,939,1680,1050,9-19-2022,16-6-9,93,depth_duration_stimuli/002725_2014-06-22_11-47-51_094959634447_rgbf000070-resize_1/002725_2014-06-22_11-47-51_094959634447_rgbf000070-resize_1-target.png,125,2.195,5.0,5849,126,feet,jsons/VE125_randls_33.json,1104942,1308166,36,Man
93,733956,DepthScenes,duration_manipulation_targetAtFixation,jsons/VE125_randls_33.json,http://54.235.29.9/FacialAge/BNav_EC2/DepthDuration/v2_depth_duration_MTurk/v2_DepthDuration_HTML.html#117,117,1633,939,1680,1050,9-19-2022,16-6-9,94,depth_duration_stimuli/002344_2014-06-28_20-06-29_260595134347_rgbf000030-resize_1/002344_2014-06-28_20-06-29_260595134347_rgbf000030-resize_1-target.png,125,1.5795,2.0,9533,125,feet,jsons/VE125_randls_33.json,1104942,1308166,36,Man
94,733956,DepthScenes,duration_manipulation_targetAtFixation,jsons/VE125_randls_33.json,http://54.235.29.9/FacialAge/BNav_EC2/DepthDuration/v2_depth_duration_MTurk/v2_DepthDuration_HTML.html#117,117,1633,939,1680,1050,9-19-2022,16-6-9,95,depth_duration_stimuli/002549_2014-06-24_13-41-39_094959634447_rgbf000022-resize_3/002549_2014-06-24_13-41-39_094959634447_rgbf000022-resize_3-target.png,125,1.476,3.0,18616,126,feet,jsons/VE125_randls_33.json,1104942,1308166,36,Man
95,733956,DepthScenes,duration_manipulation_targetAtFixation,jsons/VE125_randls_33.json,http://54.235.29.9/FacialAge/BNav_EC2/DepthDuration/v2_depth_duration_MTurk/v2_DepthDuration_HTML.html#117,117,1633,939,1680,1050,9-19-2022,16-6-9,96,depth_duration_stimuli/002750_2014-06-22_19-08-03_094959634447_rgbf000094-resize_4/002750_2014-06-22_19-08-03_094959634447_rgbf000094-resize_4-target.png,125,2.354,5.0,6569,125,feet,jsons/VE125_randls_33.json,1104942,1308166,36,Man
96,733956,DepthScenes,duration_manipulation_targetAtFixation,jsons/VE125_randls_33.json,http://54.235.29.9/FacialAge/BNav_EC2/DepthDuration/v2_depth_duration_MTurk/v2_DepthDuration_HTML.html#117,117,1633,939,1680,1050,9-19-2022,16-6-9,97,depth_duration_stimuli/002445_2014-06-28_20-32-16_260595134347_rgbf000029-resize_4/002445_2014-06-28_20-32-16_260595134347_rgbf000029-resize_4-target.png,125,2.5315,4.0,5966,125,feet,jsons/VE125_randls_33.json,1104942,1308166,36,Man
97,733956,DepthScenes,duration_manipulation_targetAtFixation,jsons/VE125_randls_33.json,http://54.235.29.9/FacialAge/BNav_EC2/DepthDuration/v2_depth_duration_MTurk/v2_DepthDuration_HTML.html#117,117,1633,939,1680,1050,9-19-2022,16-6-9,98,depth_duration_stimuli/000780_2014-06-08_22-28-29_260595134347_rgbf000126-resize_1/000780_2014-06-08_22-28-29_260595134347_rgbf000126-resize_1-target.png,125,3.3825,9.0,5877,125,feet,jsons/VE125_randls_33.json,1104942,1308166,36,Man
98,733956,DepthScenes,duration_manipulation_targetAtFixation,jsons/VE125_randls_33.json,http://54.235.29.9/FacialAge/BNav_EC2/DepthDuration/v2_depth_duration_MTurk/v2_DepthDuration_HTML.html#117,117,1633,939,1680,1050,9-19-2022,16-6-9,99,depth_duration_stimuli/001540_2014-06-20_17-01-05_260595134347_rgbf000086-resize_2/001540_2014-06-20_17-01-05_260595134347_rgbf000086-resize-original.jpg,125,1.459,0.0,3878,125,feet,jsons/VE125_randls_33.json,1104942,1308166,36,Man
99,733956,DepthScenes,duration_manipulation_targetAtFixation,jsons/VE125_randls_33.json,http://54.235.29.9/FacialAge/BNav_EC2/DepthDuration/v2_depth_duration_MTurk/v2_DepthDuration_HTML.html#117,117,1633,939,1680,1050,9-19-2022,16-6-9,100,depth_duration_stimuli/000447_2014-06-08_16-15-46_260595134347_rgbf000130-resize_1/000447_2014-06-08_16-15-46_260595134347_rgbf000130-resize_1-target.png,125,4.479,7.0,4850,125,feet,jsons/VE125_randls_33.json,1104942,1308166,36,Man
100,733956,DepthScenes,duration_manipulation_targetAtFixation,jsons/VE125_randls_33.json,http://54.235.29.9/FacialAge/BNav_EC2/DepthDuration/v2_depth_duration_MTurk/v2_DepthDuration_HTML.html#117,117,1633,939,1680,1050,9-19-2022,16-6-9,101,depth_duration_stimuli/001447_2014-06-19_17-00-32_260595134347_rgbf000082-resize_5/001447_2014-06-19_17-00-32_260595134347_rgbf000082-resize_5-target.png,125,4.13775,5.0,4037,124,feet,jsons/VE125_randls_33.json,1104942,1308166,36,Man
101,733956,DepthScenes,duration_manipulation_targetAtFixation,jsons/VE125_randls_33.json,http://54.235.29.9/FacialAge/BNav_EC2/DepthDuration/v2_depth_duration_MTurk/v2_DepthDuration_HTML.html#117,117,1633,939,1680,1050,9-19-2022,16-6-9,102,depth_duration_stimuli/001167_2014-06-17_15-38-07_260595134347_rgbf000108-resize_0/001167_2014-06-17_15-38-07_260595134347_rgbf000108-resize_0-target.png,125,1.8505,3.0,3092,125,feet,jsons/VE125_randls_33.json,1104942,1308166,36,Man
102,733956,DepthScenes,duration_manipulation_targetAtFixation,jsons/VE125_randls_33.json,http://54.235.29.9/FacialAge/BNav_EC2/DepthDuration/v2_depth_duration_MTurk/v2_DepthDuration_HTML.html#117,117,1633,939,1680,1050,9-19-2022,16-6-9,103,depth_duration_stimuli/003587_2014-05-23_16-48-02_094959634447_rgbf002384-resize_2/003587_2014-05-23_16-48-02_094959634447_rgbf002384-resize_2-target.png,125,1.357,3.0,7822,126,feet,jsons/VE125_randls_33.json,1104942,1308166,36,Man
103,733956,DepthScenes,duration_manipulation_targetAtFixation,jsons/VE125_randls_33.json,http://54.235.29.9/FacialAge/BNav_EC2/DepthDuration/v2_depth_duration_MTurk/v2_DepthDuration_HTML.html#117,117,1633,939,1680,1050,9-19-2022,16-6-9,104,depth_duration_stimuli/002057_2014-06-24_21-00-13_260595134347_rgbf000120-resize_1/002057_2014-06-24_21-00-13_260595134347_rgbf000120-resize_1-target.png,125,2.967,8.0,9828,125,feet,jsons/VE125_randls_33.json,1104942,1308166,36,Man
104,733956,DepthScenes,duration_manipulation_targetAtFixation,jsons/VE125_randls_33.json,http://54.235.29.9/FacialAge/BNav_EC2/DepthDuration/v2_depth_duration_MTurk/v2_DepthDuration_HTML.html#117,117,1633,939,1680,1050,9-19-2022,16-6-9,105,depth_duration_stimuli/000709_2014-06-08_13-51-55_260595134347_rgbf000068-resize_3/000709_2014-06-08_13-51-55_260595134347_rgbf000068-resize_3-target.png,125,1.8030000000000002,5.0,5079,125,feet,jsons/VE125_randls_33.json,1104942,1308166,36,Man
105,733956,DepthScenes,duration_manipulation_targetAtFixation,jsons/VE125_randls_33.json,http://54.235.29.9/FacialAge/BNav_EC2/DepthDuration/v2_depth_duration_MTurk/v2_DepthDuration_HTML.html#117,117,1633,939,1680,1050,9-19-2022,16-6-9,106,depth_duration_stimuli/002988_2014-06-15_12-24-20_094959634447_rgbf000150-resize_1/002988_2014-06-15_12-24-20_094959634447_rgbf000150-resize_1-target.png,125,4.7669999999999995,10.0,4944,124,feet,jsons/VE125_randls_33.json,1104942,1308166,36,Man
106,733956,DepthScenes,duration_manipulation_targetAtFixation,jsons/VE125_randls_33.json,http://54.235.29.9/FacialAge/BNav_EC2/DepthDuration/v2_depth_duration_MTurk/v2_DepthDuration_HTML.html#117,117,1633,939,1680,1050,9-19-2022,16-6-9,107,depth_duration_stimuli/001052_2014-06-08_18-24-54_260595134347_rgbf000130-resize_1/001052_2014-06-08_18-24-54_260595134347_rgbf000130-resize_1-target.png,125,4.1045,9.0,20565,123,feet,jsons/VE125_randls_33.json,1104942,1308166,36,Man
107,733956,DepthScenes,duration_manipulation_targetAtFixation,jsons/VE125_randls_33.json,http://54.235.29.9/FacialAge/BNav_EC2/DepthDuration/v2_depth_duration_MTurk/v2_DepthDuration_HTML.html#117,117,1633,939,1680,1050,9-19-2022,16-6-9,108,depth_duration_stimuli/000436_2014-06-09_22-25-11_260595134347_rgbf000137-resize_1/000436_2014-06-09_22-25-11_260595134347_rgbf000137-resize_1-target.png,125,4.0705,6.0,12627,124,feet,jsons/VE125_randls_33.json,1104942,1308166,36,Man
108,733956,DepthScenes,duration_manipulation_targetAtFixation,jsons/VE125_randls_33.json,http://54.235.29.9/FacialAge/BNav_EC2/DepthDuration/v2_depth_duration_MTurk/v2_DepthDuration_HTML.html#117,117,1633,939,1680,1050,9-19-2022,16-6-9,109,depth_duration_stimuli/002444_2014-06-28_20-32-08_260595134347_rgbf000027-resize_0/002444_2014-06-28_20-32-08_260595134347_rgbf000027-resize_0-target.png,125,4.388999999999999,7.0,3934,125,feet,jsons/VE125_randls_33.json,1104942,1308166,36,Man
109,733956,DepthScenes,duration_manipulation_targetAtFixation,jsons/VE125_randls_33.json,http://54.235.29.9/FacialAge/BNav_EC2/DepthDuration/v2_depth_duration_MTurk/v2_DepthDuration_HTML.html#117,117,1633,939,1680,1050,9-19-2022,16-6-9,110,depth_duration_stimuli/000522_2014-06-08_13-35-06_260595134347_rgbf000244-resize_1/000522_2014-06-08_13-35-06_260595134347_rgbf000244-resize_1-target.png,125,2.3715,3.0,4138,124,feet,jsons/VE125_randls_33.json,1104942,1308166,36,Man
110,733956,DepthScenes,duration_manipulation_targetAtFixation,jsons/VE125_randls_33.json,http://54.235.29.9/FacialAge/BNav_EC2/DepthDuration/v2_depth_duration_MTurk/v2_DepthDuration_HTML.html#117,117,1633,939,1680,1050,9-19-2022,16-6-9,111,depth_duration_stimuli/002949_2014-06-26_15-57-42_094959634447_rgbf000079-resize_1/002949_2014-06-26_15-57-42_094959634447_rgbf000079-resize_1-target.png,125,1.8915,3.0,3682,124,feet,jsons/VE125_randls_33.json,1104942,1308166,36,Man
111,733956,DepthScenes,duration_manipulation_targetAtFixation,jsons/VE125_randls_33.json,http://54.235.29.9/FacialAge/BNav_EC2/DepthDuration/v2_depth_duration_MTurk/v2_DepthDuration_HTML.html#117,117,1633,939,1680,1050,9-19-2022,16-6-9,112,depth_duration_stimuli/001164_2014-06-17_15-35-46_260595134347_rgbf000085-resize_3/001164_2014-06-17_15-35-46_260595134347_rgbf000085-resize_3-target.png,125,2.354,0.0,3706,124,feet,jsons/VE125_randls_33.json,1104942,1308166,36,Man
112,733956,DepthScenes,duration_manipulation_targetAtFixation,jsons/VE125_randls_33.json,http://54.235.29.9/FacialAge/BNav_EC2/DepthDuration/v2_depth_duration_MTurk/v2_DepthDuration_HTML.html#117,117,1633,939,1680,1050,9-19-2022,16-6-9,113,depth_duration_stimuli/001136_2014-06-17_15-19-41_260595134347_rgbf000076-resize_3/001136_2014-06-17_15-19-41_260595134347_rgbf000076-resize_3-target.png,125,1.8655,5.0,6471,124,feet,jsons/VE125_randls_33.json,1104942,1308166,36,Man
113,733956,DepthScenes,duration_manipulation_targetAtFixation,jsons/VE125_randls_33.json,http://54.235.29.9/FacialAge/BNav_EC2/DepthDuration/v2_depth_duration_MTurk/v2_DepthDuration_HTML.html#117,117,1633,939,1680,1050,9-19-2022,16-6-9,114,depth_duration_stimuli/002213_2014-06-28_18-37-58_260595134347_rgbf000055-resize_1/002213_2014-06-28_18-37-58_260595134347_rgbf000055-resize_1-target.png,125,3.62,8.0,3305,124,feet,jsons/VE125_randls_33.json,1104942,1308166,36,Man
114,733956,DepthScenes,duration_manipulation_targetAtFixation,jsons/VE125_randls_33.json,http://54.235.29.9/FacialAge/BNav_EC2/DepthDuration/v2_depth_duration_MTurk/v2_DepthDuration_HTML.html#117,117,1633,939,1680,1050,9-19-2022,16-6-9,115,depth_duration_stimuli/000691_2014-06-08_13-08-50_260595134347_rgbf000132-resize_3/000691_2014-06-08_13-08-50_260595134347_rgbf000132-resize_3-target.png,125,4.1530000000000005,6.0,3878,124,feet,jsons/VE125_randls_33.json,1104942,1308166,36,Man
115,733956,DepthScenes,duration_manipulation_targetAtFixation,jsons/VE125_randls_33.json,http://54.235.29.9/FacialAge/BNav_EC2/DepthDuration/v2_depth_duration_MTurk/v2_DepthDuration_HTML.html#117,117,1633,939,1680,1050,9-19-2022,16-6-9,116,depth_duration_stimuli/001170_2014-06-17_15-43-44_260595134347_rgbf000096-resize_6/001170_2014-06-17_15-43-44_260595134347_rgbf000096-resize-original.jpg,125,1.1909999999999998,3.0,3845,124,feet,jsons/VE125_randls_33.json,1104942,1308166,36,Man
116,733956,DepthScenes,duration_manipulation_targetAtFixation,jsons/VE125_randls_33.json,http://54.235.29.9/FacialAge/BNav_EC2/DepthDuration/v2_depth_duration_MTurk/v2_DepthDuration_HTML.html#117,117,1633,939,1680,1050,9-19-2022,16-6-9,117,depth_duration_stimuli/001808_2014-06-26_20-50-58_260595134347_rgbf000029-resize_1/001808_2014-06-26_20-50-58_260595134347_rgbf000029-resize_1-target.png,125,4.249,9.0,3785,125,feet,jsons/VE125_randls_33.json,1104942,1308166,36,Man
117,733956,DepthScenes,duration_manipulation_targetAtFixation,jsons/VE125_randls_33.json,http://54.235.29.9/FacialAge/BNav_EC2/DepthDuration/v2_depth_duration_MTurk/v2_DepthDuration_HTML.html#117,117,1633,939,1680,1050,9-19-2022,16-6-9,118,depth_duration_stimuli/001815_2014-06-26_20-52-55_260595134347_rgbf000020-resize_0/001815_2014-06-26_20-52-55_260595134347_rgbf000020-resize_0-target.png,125,3.3865,7.0,5840,124,feet,jsons/VE125_randls_33.json,1104942,1308166,36,Man
118,733956,DepthScenes,duration_manipulation_targetAtFixation,jsons/VE125_randls_33.json,http://54.235.29.9/FacialAge/BNav_EC2/DepthDuration/v2_depth_duration_MTurk/v2_DepthDuration_HTML.html#117,117,1633,939,1680,1050,9-19-2022,16-6-9,119,depth_duration_stimuli/000414_2014-06-04_19-49-13_260595134347_rgbf000044-resize_0/000414_2014-06-04_19-49-13_260595134347_rgbf000044-resize_0-target.png,125,4.329,10.0,6257,126,feet,jsons/VE125_randls_33.json,1104942,1308166,36,Man
119,733956,DepthScenes,duration_manipulation_targetAtFixation,jsons/VE125_randls_33.json,http://54.235.29.9/FacialAge/BNav_EC2/DepthDuration/v2_depth_duration_MTurk/v2_DepthDuration_HTML.html#117,117,1633,939,1680,1050,9-19-2022,16-6-9,120,depth_duration_stimuli/003129_2014-05-12_10-48-10_094959634447_rgbf000100-resize_0/003129_2014-05-12_10-48-10_094959634447_rgbf000100-resize_0-target.png,125,4.9305,6.0,5119,125,feet,jsons/VE125_randls_33.json,1104942,1308166,36,Man
120,733956,DepthScenes,duration_manipulation_targetAtFixation,jsons/VE125_randls_33.json,http://54.235.29.9/FacialAge/BNav_EC2/DepthDuration/v2_depth_duration_MTurk/v2_DepthDuration_HTML.html#117,117,1633,939,1680,1050,9-19-2022,16-6-9,121,depth_duration_stimuli/001449_2014-06-19_17-01-27_260595134347_rgbf000116-resize_2/001449_2014-06-19_17-01-27_260595134347_rgbf000116-resize_2-target.png,125,3.452,6.0,5344,124,feet,jsons/VE125_randls_33.json,1104942,1308166,36,Man
121,733956,DepthScenes,duration_manipulation_targetAtFixation,jsons/VE125_randls_33.json,http://54.235.29.9/FacialAge/BNav_EC2/DepthDuration/v2_depth_duration_MTurk/v2_DepthDuration_HTML.html#117,117,1633,939,1680,1050,9-19-2022,16-6-9,122,depth_duration_stimuli/001450_2014-06-19_17-02-03_260595134347_rgbf000203-resize_4/001450_2014-06-19_17-02-03_260595134347_rgbf000203-resize_4-target.png,125,4.0106666666667,8.0,3563,125,feet,jsons/VE125_randls_33.json,1104942,1308166,36,Man
122,733956,DepthScenes,duration_manipulation_targetAtFixation,jsons/VE125_randls_33.json,http://54.235.29.9/FacialAge/BNav_EC2/DepthDuration/v2_depth_duration_MTurk/v2_DepthDuration_HTML.html#117,117,1633,939,1680,1050,9-19-2022,16-6-9,123,depth_duration_stimuli/002600_2014-06-24_14-27-04_094959634447_rgbf000074-resize_2/002600_2014-06-24_14-27-04_094959634447_rgbf000074-resize_2-target.png,125,2.7575,4.0,16329,125,feet,jsons/VE125_randls_33.json,1104942,1308166,36,Man
123,733956,DepthScenes,duration_manipulation_targetAtFixation,jsons/VE125_randls_33.json,http://54.235.29.9/FacialAge/BNav_EC2/DepthDuration/v2_depth_duration_MTurk/v2_DepthDuration_HTML.html#117,117,1633,939,1680,1050,9-19-2022,16-6-9,124,depth_duration_stimuli/003228_2014-05-14_13-42-35_094959634447_rgbf000101-resize_1/003228_2014-05-14_13-42-35_094959634447_rgbf000101-resize_1-target.png,125,1.9680000000000002,3.0,4031,124,feet,jsons/VE125_randls_33.json,1104942,1308166,36,Man
124,733956,DepthScenes,duration_manipulation_targetAtFixation,jsons/VE125_randls_33.json,http://54.235.29.9/FacialAge/BNav_EC2/DepthDuration/v2_depth_duration_MTurk/v2_DepthDuration_HTML.html#117,117,1633,939,1680,1050,9-19-2022,16-6-9,125,depth_duration_stimuli/000917_2014-06-09_22-45-29_260595134347_rgbf000149-resize_3/000917_2014-06-09_22-45-29_260595134347_rgbf000149-resize_3-target.png,125,4.1865,6.0,2998,123,feet,jsons/VE125_randls_33.json,1104942,1308166,36,Man
125,733956,DepthScenes,duration_manipulation_targetAtFixation,jsons/VE125_randls_33.json,http://54.235.29.9/FacialAge/BNav_EC2/DepthDuration/v2_depth_duration_MTurk/v2_DepthDuration_HTML.html#117,117,1633,939,1680,1050,9-19-2022,16-6-9,126,depth_duration_stimuli/002323_2014-06-28_20-01-54_260595134347_rgbf000051-resize_4/002323_2014-06-28_20-01-54_260595134347_rgbf000051-resize_4-target.png,125,3.7310000000000003,8.0,4191,125,feet,jsons/VE125_randls_33.json,1104942,1308166,36,Man
126,733956,DepthScenes,duration_manipulation_targetAtFixation,jsons/VE125_randls_33.json,http://54.235.29.9/FacialAge/BNav_EC2/DepthDuration/v2_depth_duration_MTurk/v2_DepthDuration_HTML.html#117,117,1633,939,1680,1050,9-19-2022,16-6-9,127,depth_duration_stimuli/000929_2014-06-09_16-33-19_260595134347_rgbf000139-resize_0/000929_2014-06-09_16-33-19_260595134347_rgbf000139-resize_0-target.png,125,2.8680000000000003,5.0,2883,125,feet,jsons/VE125_randls_33.json,1104942,1308166,36,Man
127,733956,DepthScenes,duration_manipulation_targetAtFixation,jsons/VE125_randls_33.json,http://54.235.29.9/FacialAge/BNav_EC2/DepthDuration/v2_depth_duration_MTurk/v2_DepthDuration_HTML.html#117,117,1633,939,1680,1050,9-19-2022,16-6-9,128,depth_duration_stimuli/000457_2014-06-08_16-52-43_260595134347_rgbf000199-resize_1/000457_2014-06-08_16-52-43_260595134347_rgbf000199-resize_1-target.png,125,3.6489999999999996,6.0,35280,125,feet,jsons/VE125_randls_33.json,1104942,1308166,36,Man
128,733956,DepthScenes,duration_manipulation_targetAtFixation,jsons/VE125_randls_33.json,http://54.235.29.9/FacialAge/BNav_EC2/DepthDuration/v2_depth_duration_MTurk/v2_DepthDuration_HTML.html#117,117,1633,939,1680,1050,9-19-2022,16-6-9,129,depth_duration_stimuli/000739_2014-06-08_18-45-58_260595134347_rgbf000068-resize_1/000739_2014-06-08_18-45-58_260595134347_rgbf000068-resize_1-target.png,125,3.534,6.0,4174,124,feet,jsons/VE125_randls_33.json,1104942,1308166,36,Man
129,733956,DepthScenes,duration_manipulation_targetAtFixation,jsons/VE125_randls_33.json,http://54.235.29.9/FacialAge/BNav_EC2/DepthDuration/v2_depth_duration_MTurk/v2_DepthDuration_HTML.html#117,117,1633,939,1680,1050,9-19-2022,16-6-9,130,depth_duration_stimuli/000734_2014-06-08_17-39-11_260595134347_rgbf000128-resize_2/000734_2014-06-08_17-39-11_260595134347_rgbf000128-resize_2-target.png,125,4.098,5.0,3701,125,feet,jsons/VE125_randls_33.json,1104942,1308166,36,Man
130,733956,DepthScenes,duration_manipulation_targetAtFixation,jsons/VE125_randls_33.json,http://54.235.29.9/FacialAge/BNav_EC2/DepthDuration/v2_depth_duration_MTurk/v2_DepthDuration_HTML.html#117,117,1633,939,1680,1050,9-19-2022,16-6-9,131,depth_duration_stimuli/000469_2014-06-09_19-42-10_260595134347_rgbf000081-resize_1/000469_2014-06-09_19-42-10_260595134347_rgbf000081-resize_1-target.png,125,1.652,3.0,3771,124,feet,jsons/VE125_randls_33.json,1104942,1308166,36,Man
131,733956,DepthScenes,duration_manipulation_targetAtFixation,jsons/VE125_randls_33.json,http://54.235.29.9/FacialAge/BNav_EC2/DepthDuration/v2_depth_duration_MTurk/v2_DepthDuration_HTML.html#117,117,1633,939,1680,1050,9-19-2022,16-6-9,132,depth_duration_stimuli/000483_2014-06-09_20-41-45_260595134347_rgbf000116-resize_4/000483_2014-06-09_20-41-45_260595134347_rgbf000116-resize_4-target.png,125,1.337,2.0,7607,124,feet,jsons/VE125_randls_33.json,1104942,1308166,36,Man
132,733956,DepthScenes,duration_manipulation_targetAtFixation,jsons/VE125_randls_33.json,http://54.235.29.9/FacialAge/BNav_EC2/DepthDuration/v2_depth_duration_MTurk/v2_DepthDuration_HTML.html#117,117,1633,939,1680,1050,9-19-2022,16-6-9,133,depth_duration_stimuli/002748_2014-06-22_19-07-22_094959634447_rgbf000078-resize_1/002748_2014-06-22_19-07-22_094959634447_rgbf000078-resize_1-target.png,125,4.6705,8.0,5950,125,feet,jsons/VE125_randls_33.json,1104942,1308166,36,Man
133,733956,DepthScenes,duration_manipulation_targetAtFixation,jsons/VE125_randls_33.json,http://54.235.29.9/FacialAge/BNav_EC2/DepthDuration/v2_depth_duration_MTurk/v2_DepthDuration_HTML.html#117,117,1633,939,1680,1050,9-19-2022,16-6-9,134,depth_duration_stimuli/002995_2014-06-15_12-31-26_094959634447_rgbf000150-resize_1/002995_2014-06-15_12-31-26_094959634447_rgbf000150-resize_1-target.png,125,3.8360000000000003,8.0,3953,124,feet,jsons/VE125_randls_33.json,1104942,1308166,36,Man
134,733956,DepthScenes,duration_manipulation_targetAtFixation,jsons/VE125_randls_33.json,http://54.235.29.9/FacialAge/BNav_EC2/DepthDuration/v2_depth_duration_MTurk/v2_DepthDuration_HTML.html#117,117,1633,939,1680,1050,9-19-2022,16-6-9,135,depth_duration_stimuli/002072_2014-06-24_21-48-06_260595134347_rgbf000115-resize_0/002072_2014-06-24_21-48-06_260595134347_rgbf000115-resize-original.jpg,125,4.702,0.0,2951,125,feet,jsons/VE125_randls_33.json,1104942,1308166,36,Man
135,733956,DepthScenes,duration_manipulation_targetAtFixation,jsons/VE125_randls_33.json,http://54.235.29.9/FacialAge/BNav_EC2/DepthDuration/v2_depth_duration_MTurk/v2_DepthDuration_HTML.html#117,117,1633,939,1680,1050,9-19-2022,16-6-9,136,depth_duration_stimuli/003292_2014-05-14_21-53-49_094959634447_rgbf000100-resize_2/003292_2014-05-14_21-53-49_094959634447_rgbf000100-resize_2-target.png,125,3.4815,4.0,7474,124,feet,jsons/VE125_randls_33.json,1104942,1308166,36,Man
136,733956,DepthScenes,duration_manipulation_targetAtFixation,jsons/VE125_randls_33.json,http://54.235.29.9/FacialAge/BNav_EC2/DepthDuration/v2_depth_duration_MTurk/v2_DepthDuration_HTML.html#117,117,1633,939,1680,1050,9-19-2022,16-6-9,137,depth_duration_stimuli/002639_2014-06-24_14-51-37_094959634447_rgbf000074-resize_4/002639_2014-06-24_14-51-37_094959634447_rgbf000074-resize_4-target.png,125,4.0375,7.0,4184,126,feet,jsons/VE125_randls_33.json,1104942,1308166,36,Man
137,733956,DepthScenes,duration_manipulation_targetAtFixation,jsons/VE125_randls_33.json,http://54.235.29.9/FacialAge/BNav_EC2/DepthDuration/v2_depth_duration_MTurk/v2_DepthDuration_HTML.html#117,117,1633,939,1680,1050,9-19-2022,16-6-9,138,depth_duration_stimuli/003621_2014-05-23_18-06-08_094959634447_rgbf000101-resize_1/003621_2014-05-23_18-06-08_094959634447_rgbf000101-resize_1-target.png,125,3.9835,9.0,3498,125,feet,jsons/VE125_randls_33.json,1104942,1308166,36,Man
138,733956,DepthScenes,duration_manipulation_targetAtFixation,jsons/VE125_randls_33.json,http://54.235.29.9/FacialAge/BNav_EC2/DepthDuration/v2_depth_duration_MTurk/v2_DepthDuration_HTML.html#117,117,1633,939,1680,1050,9-19-2022,16-6-9,139,depth_duration_stimuli/001584_2014-06-20_11-07-43_260595134347_rgbf000002-resize_1/001584_2014-06-20_11-07-43_260595134347_rgbf000002-resize_1-target.png,125,3.53,6.0,3587,125,feet,jsons/VE125_randls_33.json,1104942,1308166,36,Man
139,733956,DepthScenes,duration_manipulation_targetAtFixation,jsons/VE125_randls_33.json,http://54.235.29.9/FacialAge/BNav_EC2/DepthDuration/v2_depth_duration_MTurk/v2_DepthDuration_HTML.html#117,117,1633,939,1680,1050,9-19-2022,16-6-9,140,depth_duration_stimuli/001029_2014-06-08_13-17-57_260595134347_rgbf000065-resize_1/001029_2014-06-08_13-17-57_260595134347_rgbf000065-resize_1-target.png,125,3.0835,5.0,6732,125,feet,jsons/VE125_randls_33.json,1104942,1308166,36,Man
140,733956,DepthScenes,duration_manipulation_targetAtFixation,jsons/VE125_randls_33.json,http://54.235.29.9/FacialAge/BNav_EC2/DepthDuration/v2_depth_duration_MTurk/v2_DepthDuration_HTML.html#117,117,1633,939,1680,1050,9-19-2022,16-6-9,141,depth_duration_stimuli/000677_2014-06-08_23-10-32_260595134347_rgbf000158-resize_6/000677_2014-06-08_23-10-32_260595134347_rgbf000158-resize_6-target.png,125,3.556,5.0,5531,125,feet,jsons/VE125_randls_33.json,1104942,1308166,36,Man
141,733956,DepthScenes,duration_manipulation_targetAtFixation,jsons/VE125_randls_33.json,http://54.235.29.9/FacialAge/BNav_EC2/DepthDuration/v2_depth_duration_MTurk/v2_DepthDuration_HTML.html#117,117,1633,939,1680,1050,9-19-2022,16-6-9,142,depth_duration_stimuli/002788_2014-06-22_19-36-03_094959634447_rgbf000088-resize_2/002788_2014-06-22_19-36-03_094959634447_rgbf000088-resize_2-target.png,125,1.6465,6.0,3947,124,feet,jsons/VE125_randls_33.json,1104942,1308166,36,Man
142,733956,DepthScenes,duration_manipulation_targetAtFixation,jsons/VE125_randls_33.json,http://54.235.29.9/FacialAge/BNav_EC2/DepthDuration/v2_depth_duration_MTurk/v2_DepthDuration_HTML.html#117,117,1633,939,1680,1050,9-19-2022,16-6-9,143,depth_duration_stimuli/000749_2014-06-08_21-55-06_260595134347_rgbf000070-resize_2/000749_2014-06-08_21-55-06_260595134347_rgbf000070-resize_2-target.png,125,2.331,5.0,6083,125,feet,jsons/VE125_randls_33.json,1104942,1308166,36,Man
143,733956,DepthScenes,duration_manipulation_targetAtFixation,jsons/VE125_randls_33.json,http://54.235.29.9/FacialAge/BNav_EC2/DepthDuration/v2_depth_duration_MTurk/v2_DepthDuration_HTML.html#117,117,1633,939,1680,1050,9-19-2022,16-6-9,144,depth_duration_stimuli/002118_2014-06-25_20-32-08_260595134347_rgbf000078-resize_1/002118_2014-06-25_20-32-08_260595134347_rgbf000078-resize_1-target.png,125,2.6460000000000004,5.0,4091,126,feet,jsons/VE125_randls_33.json,1104942,1308166,36,Man
144,733956,DepthScenes,duration_manipulation_targetAtFixation,jsons/VE125_randls_33.json,http://54.235.29.9/FacialAge/BNav_EC2/DepthDuration/v2_depth_duration_MTurk/v2_DepthDuration_HTML.html#117,117,1633,939,1680,1050,9-19-2022,16-6-9,145,depth_duration_stimuli/001516_2014-06-20_16-25-09_260595134347_rgbf000076-resize_2/001516_2014-06-20_16-25-09_260595134347_rgbf000076-resize_2-target.png,125,1.7445,4.0,3902,125,feet,jsons/VE125_randls_33.json,1104942,1308166,36,Man
145,733956,DepthScenes,duration_manipulation_targetAtFixation,jsons/VE125_randls_33.json,http://54.235.29.9/FacialAge/BNav_EC2/DepthDuration/v2_depth_duration_MTurk/v2_DepthDuration_HTML.html#117,117,1633,939,1680,1050,9-19-2022,16-6-9,146,depth_duration_stimuli/001498_2014-06-19_17-45-14_260595134347_rgbf000129-resize_4/001498_2014-06-19_17-45-14_260595134347_rgbf000129-resize-original.jpg,125,1.4075,0.0,3064,125,feet,jsons/VE125_randls_33.json,1104942,1308166,36,Man
146,733956,DepthScenes,duration_manipulation_targetAtFixation,jsons/VE125_randls_33.json,http://54.235.29.9/FacialAge/BNav_EC2/DepthDuration/v2_depth_duration_MTurk/v2_DepthDuration_HTML.html#117,117,1633,939,1680,1050,9-19-2022,16-6-9,147,depth_duration_stimuli/000642_2014-06-08_16-59-25_260595134347_rgbf000098-resize_2/000642_2014-06-08_16-59-25_260595134347_rgbf000098-resize_2-target.png,125,2.8815,5.0,4886,124,feet,jsons/VE125_randls_33.json,1104942,1308166,36,Man
147,733956,DepthScenes,duration_manipulation_targetAtFixation,jsons/VE125_randls_33.json,http://54.235.29.9/FacialAge/BNav_EC2/DepthDuration/v2_depth_duration_MTurk/v2_DepthDuration_HTML.html#117,117,1633,939,1680,1050,9-19-2022,16-6-9,148,depth_duration_stimuli/002425_2014-06-28_20-27-29_260595134347_rgbf000031-resize_8/002425_2014-06-28_20-27-29_260595134347_rgbf000031-resize_8-target.png,125,3.8960000000000004,8.0,9383,125,feet,jsons/VE125_randls_33.json,1104942,1308166,36,Man
148,733956,DepthScenes,duration_manipulation_targetAtFixation,jsons/VE125_randls_33.json,http://54.235.29.9/FacialAge/BNav_EC2/DepthDuration/v2_depth_duration_MTurk/v2_DepthDuration_HTML.html#117,117,1633,939,1680,1050,9-19-2022,16-6-9,149,depth_duration_stimuli/002153_2014-06-25_21-27-18_260595134347_rgbf000038-resize_5/002153_2014-06-25_21-27-18_260595134347_rgbf000038-resize_5-target.png,125,2.505,3.0,5843,126,feet,jsons/VE125_randls_33.json,1104942,1308166,36,Man
149,733956,DepthScenes,duration_manipulation_targetAtFixation,jsons/VE125_randls_33.json,http://54.235.29.9/FacialAge/BNav_EC2/DepthDuration/v2_depth_duration_MTurk/v2_DepthDuration_HTML.html#117,117,1633,939,1680,1050,9-19-2022,16-6-9,150,depth_duration_stimuli/002660_2014-06-13_15-44-18_094959634447_rgbf001878-resize_2/002660_2014-06-13_15-44-18_094959634447_rgbf001878-resize_2-target.png,125,3.576,6.0,4614,125,feet,jsons/VE125_randls_33.json,1104942,1308166,36,Man
150,733956,DepthScenes,duration_manipulation_targetAtFixation,jsons/VE125_randls_33.json,http://54.235.29.9/FacialAge/BNav_EC2/DepthDuration/v2_depth_duration_MTurk/v2_DepthDuration_HTML.html#117,117,1633,939,1680,1050,9-19-2022,16-6-9,151,depth_duration_stimuli/001056_2014-06-08_18-46-44_260595134347_rgbf000068-resize_0/001056_2014-06-08_18-46-44_260595134347_rgbf000068-resize_0-target.png,125,2.6625,5.0,3527,124,feet,jsons/VE125_randls_33.json,1104942,1308166,36,Man
151,733956,DepthScenes,duration_manipulation_targetAtFixation,jsons/VE125_randls_33.json,http://54.235.29.9/FacialAge/BNav_EC2/DepthDuration/v2_depth_duration_MTurk/v2_DepthDuration_HTML.html#117,117,1633,939,1680,1050,9-19-2022,16-6-9,152,depth_duration_stimuli/002199_2014-06-28_18-33-56_260595134347_rgbf000074-resize_0/002199_2014-06-28_18-33-56_260595134347_rgbf000074-resize_0-target.png,125,1.996,2.0,8959,124,feet,jsons/VE125_randls_33.json,1104942,1308166,36,Man
152,733956,DepthScenes,duration_manipulation_targetAtFixation,jsons/VE125_randls_33.json,http://54.235.29.9/FacialAge/BNav_EC2/DepthDuration/v2_depth_duration_MTurk/v2_DepthDuration_HTML.html#117,117,1633,939,1680,1050,9-19-2022,16-6-9,153,depth_duration_stimuli/000810_2014-06-08_17-20-01_260595134347_rgbf000105-resize_0/000810_2014-06-08_17-20-01_260595134347_rgbf000105-resize_0-target.png,125,1.4865,4.0,8434,125,feet,jsons/VE125_randls_33.json,1104942,1308166,36,Man
153,733956,DepthScenes,duration_manipulation_targetAtFixation,jsons/VE125_randls_33.json,http://54.235.29.9/FacialAge/BNav_EC2/DepthDuration/v2_depth_duration_MTurk/v2_DepthDuration_HTML.html#117,117,1633,939,1680,1050,9-19-2022,16-6-9,154,depth_duration_stimuli/001214_2014-06-17_16-13-55_260595134347_rgbf000111-resize_0/001214_2014-06-17_16-13-55_260595134347_rgbf000111-resize_0-target.png,125,2.6505,4.0,12713,124,feet,jsons/VE125_randls_33.json,1104942,1308166,36,Man
154,733956,DepthScenes,duration_manipulation_targetAtFixation,jsons/VE125_randls_33.json,http://54.235.29.9/FacialAge/BNav_EC2/DepthDuration/v2_depth_duration_MTurk/v2_DepthDuration_HTML.html#117,117,1633,939,1680,1050,9-19-2022,16-6-9,155,depth_duration_stimuli/002784_2014-06-22_19-26-30_094959634447_rgbf000083-resize_3/002784_2014-06-22_19-26-30_094959634447_rgbf000083-resize_3-target.png,125,1.8046666666667,2.5,4767,124,feet,jsons/VE125_randls_33.json,1104942,1308166,36,Man
155,733956,DepthScenes,duration_manipulation_targetAtFixation,jsons/VE125_randls_33.json,http://54.235.29.9/FacialAge/BNav_EC2/DepthDuration/v2_depth_duration_MTurk/v2_DepthDuration_HTML.html#117,117,1633,939,1680,1050,9-19-2022,16-6-9,156,depth_duration_stimuli/001100_2014-06-15_17-46-26_260595134347_rgbf000225-resize_2/001100_2014-06-15_17-46-26_260595134347_rgbf000225-resize_2-target.png,125,2.24,3.0,4507,125,feet,jsons/VE125_randls_33.json,1104942,1308166,36,Man
156,733956,DepthScenes,duration_manipulation_targetAtFixation,jsons/VE125_randls_33.json,http://54.235.29.9/FacialAge/BNav_EC2/DepthDuration/v2_depth_duration_MTurk/v2_DepthDuration_HTML.html#117,117,1633,939,1680,1050,9-19-2022,16-6-9,157,depth_duration_stimuli/001555_2014-06-20_17-12-10_260595134347_rgbf000065-resize_4/001555_2014-06-20_17-12-10_260595134347_rgbf000065-resize_4-target.png,125,1.633,2.0,5197,125,feet,jsons/VE125_randls_33.json,1104942,1308166,36,Man
157,733956,DepthScenes,duration_manipulation_targetAtFixation,jsons/VE125_randls_33.json,http://54.235.29.9/FacialAge/BNav_EC2/DepthDuration/v2_depth_duration_MTurk/v2_DepthDuration_HTML.html#117,117,1633,939,1680,1050,9-19-2022,16-6-9,158,depth_duration_stimuli/000103_2014-05-14_22-01-17_260595134347_rgbf000152-resize_5/000103_2014-05-14_22-01-17_260595134347_rgbf000152-resize_5-target.png,125,1.993,4.0,5598,124,feet,jsons/VE125_randls_33.json,1104942,1308166,36,Man
158,733956,DepthScenes,duration_manipulation_targetAtFixation,jsons/VE125_randls_33.json,http://54.235.29.9/FacialAge/BNav_EC2/DepthDuration/v2_depth_duration_MTurk/v2_DepthDuration_HTML.html#117,117,1633,939,1680,1050,9-19-2022,16-6-9,159,depth_duration_stimuli/000788_2014-06-08_22-34-36_260595134347_rgbf000131-resize_1/000788_2014-06-08_22-34-36_260595134347_rgbf000131-resize_1-target.png,125,3.359,3.5,6698,125,feet,jsons/VE125_randls_33.json,1104942,1308166,36,Man
159,733956,DepthScenes,duration_manipulation_targetAtFixation,jsons/VE125_randls_33.json,http://54.235.29.9/FacialAge/BNav_EC2/DepthDuration/v2_depth_duration_MTurk/v2_DepthDuration_HTML.html#117,117,1633,939,1680,1050,9-19-2022,16-6-9,160,depth_duration_stimuli/001235_2014-06-17_16-37-36_260595134347_rgbf000084-resize_4/001235_2014-06-17_16-37-36_260595134347_rgbf000084-resize_4-target.png,125,3.6605,5.0,6934,124,feet,jsons/VE125_randls_33.json,1104942,1308166,36,Man
160,733956,DepthScenes,duration_manipulation_targetAtFixation,jsons/VE125_randls_33.json,http://54.235.29.9/FacialAge/BNav_EC2/DepthDuration/v2_depth_duration_MTurk/v2_DepthDuration_HTML.html#117,117,1633,939,1680,1050,9-19-2022,16-6-9,161,depth_duration_stimuli/001011_2014-06-08_23-18-54_260595134347_rgbf000044-resize_4/001011_2014-06-08_23-18-54_260595134347_rgbf000044-resize_4-target.png,125,2.4730000000000003,5.0,3956,125,feet,jsons/VE125_randls_33.json,1104942,1308166,36,Man
161,733956,DepthScenes,duration_manipulation_targetAtFixation,jsons/VE125_randls_33.json,http://54.235.29.9/FacialAge/BNav_EC2/DepthDuration/v2_depth_duration_MTurk/v2_DepthDuration_HTML.html#117,117,1633,939,1680,1050,9-19-2022,16-6-9,162,depth_duration_stimuli/002875_2014-06-01_15-19-00_094959634447_rgbf000151-resize_1/002875_2014-06-01_15-19-00_094959634447_rgbf000151-resize_1-target.png,125,1.9675,4.0,4904,124,feet,jsons/VE125_randls_33.json,1104942,1308166,36,Man
162,733956,DepthScenes,duration_manipulation_targetAtFixation,jsons/VE125_randls_33.json,http://54.235.29.9/FacialAge/BNav_EC2/DepthDuration/v2_depth_duration_MTurk/v2_DepthDuration_HTML.html#117,117,1633,939,1680,1050,9-19-2022,16-6-9,163,depth_duration_stimuli/000773_2014-06-08_22-24-54_260595134347_rgbf000093-resize_1/000773_2014-06-08_22-24-54_260595134347_rgbf000093-resize_1-target.png,125,4.973,7.5,8068,125,feet,jsons/VE125_randls_33.json,1104942,1308166,36,Man
163,733956,DepthScenes,duration_manipulation_targetAtFixation,jsons/VE125_randls_33.json,http://54.235.29.9/FacialAge/BNav_EC2/DepthDuration/v2_depth_duration_MTurk/v2_DepthDuration_HTML.html#117,117,1633,939,1680,1050,9-19-2022,16-6-9,164,depth_duration_stimuli/002414_2014-06-28_20-24-58_260595134347_rgbf000067-resize_4/002414_2014-06-28_20-24-58_260595134347_rgbf000067-resize_4-target.png,125,4.363,9.0,10609,125,feet,jsons/VE125_randls_33.json,1104942,1308166,36,Man
