,subjID,experimentName,versionName,sequenceName,url,selected_row,windowWidth,windowHeight,screenWidth,screenHeight,startDate,startTime,trial,stimulus,duration,actual_depth,depth_estimate,trial_RT,log_sceneDuration,unitSelection,seq_filepath,experimentTime,totalTime,age,gender
0,735313,DepthScenes,duration_manipulation_targetAtFixation,jsons/VE83_randls_7.json,http://54.235.29.9/FacialAge/BNav_EC2/DepthDuration/v2_depth_duration_MTurk/v2_DepthDuration_HTML.html#4,4,1280,875,1280,1024,8-29-2023,13-18-45,1,depth_duration_stimuli/002445_2014-06-28_20-32-16_260595134347_rgbf000029-resize_4/002445_2014-06-28_20-32-16_260595134347_rgbf000029-resize_4-target.png,83,2.5315,99,5762,82,meters,jsons/VE83_randls_7.json,1079100,1786909,25,Woman
1,735313,DepthScenes,duration_manipulation_targetAtFixation,jsons/VE83_randls_7.json,http://54.235.29.9/FacialAge/BNav_EC2/DepthDuration/v2_depth_duration_MTurk/v2_DepthDuration_HTML.html#4,4,1280,875,1280,1024,8-29-2023,13-18-45,2,depth_duration_stimuli/000780_2014-06-08_22-28-29_260595134347_rgbf000126-resize_1/000780_2014-06-08_22-28-29_260595134347_rgbf000126-resize_1-target.png,83,3.3825,98,7341,84,meters,jsons/VE83_randls_7.json,1079100,1786909,25,Woman
2,735313,DepthScenes,duration_manipulation_targetAtFixation,jsons/VE83_randls_7.json,http://54.235.29.9/FacialAge/BNav_EC2/DepthDuration/v2_depth_duration_MTurk/v2_DepthDuration_HTML.html#4,4,1280,875,1280,1024,8-29-2023,13-18-45,3,depth_duration_stimuli/000009_2014-05-26_14-32-05_260595134347_rgbf000034-resize_3/000009_2014-05-26_14-32-05_260595134347_rgbf000034-resize_3-target.png,83,3.8715,95,7866,85,meters,jsons/VE83_randls_7.json,1079100,1786909,25,Woman
3,735313,DepthScenes,duration_manipulation_targetAtFixation,jsons/VE83_randls_7.json,http://54.235.29.9/FacialAge/BNav_EC2/DepthDuration/v2_depth_duration_MTurk/v2_DepthDuration_HTML.html#4,4,1280,875,1280,1024,8-29-2023,13-18-45,4,depth_duration_stimuli/001828_2014-06-26_21-40-03_260595134347_rgbf000024-resize_0/001828_2014-06-26_21-40-03_260595134347_rgbf000024-resize_0-target.png,83,4.8260000000000005,0,4952,83,meters,jsons/VE83_randls_7.json,1079100,1786909,25,Woman
4,735313,DepthScenes,duration_manipulation_targetAtFixation,jsons/VE83_randls_7.json,http://54.235.29.9/FacialAge/BNav_EC2/DepthDuration/v2_depth_duration_MTurk/v2_DepthDuration_HTML.html#4,4,1280,875,1280,1024,8-29-2023,13-18-45,5,depth_duration_stimuli/001810_2014-06-26_20-51-35_260595134347_rgbf000040-resize_3/001810_2014-06-26_20-51-35_260595134347_rgbf000040-resize_3-target.png,83,2.2525,99,5597,83,meters,jsons/VE83_randls_7.json,1079100,1786909,25,Woman
5,735313,DepthScenes,duration_manipulation_targetAtFixation,jsons/VE83_randls_7.json,http://54.235.29.9/FacialAge/BNav_EC2/DepthDuration/v2_depth_duration_MTurk/v2_DepthDuration_HTML.html#4,4,1280,875,1280,1024,8-29-2023,13-18-45,6,depth_duration_stimuli/003010_2014-06-15_12-54-35_094959634447_rgbf000112-resize_0/003010_2014-06-15_12-54-35_094959634447_rgbf000112-resize_0-target.png,83,3.1185,0,4049,83,meters,jsons/VE83_randls_7.json,1079100,1786909,25,Woman
6,735313,DepthScenes,duration_manipulation_targetAtFixation,jsons/VE83_randls_7.json,http://54.235.29.9/FacialAge/BNav_EC2/DepthDuration/v2_depth_duration_MTurk/v2_DepthDuration_HTML.html#4,4,1280,875,1280,1024,8-29-2023,13-18-45,7,depth_duration_stimuli/001059_2014-06-08_21-53-27_260595134347_rgbf000061-resize_4/001059_2014-06-08_21-53-27_260595134347_rgbf000061-resize_4-target.png,83,2.4185,98,8470,82,meters,jsons/VE83_randls_7.json,1079100,1786909,25,Woman
7,735313,DepthScenes,duration_manipulation_targetAtFixation,jsons/VE83_randls_7.json,http://54.235.29.9/FacialAge/BNav_EC2/DepthDuration/v2_depth_duration_MTurk/v2_DepthDuration_HTML.html#4,4,1280,875,1280,1024,8-29-2023,13-18-45,8,depth_duration_stimuli/001032_2014-06-08_13-23-17_260595134347_rgbf000021-resize_3/001032_2014-06-08_13-23-17_260595134347_rgbf000021-resize_3-target.png,83,3.2725,0,4443,83,meters,jsons/VE83_randls_7.json,1079100,1786909,25,Woman
8,735313,DepthScenes,duration_manipulation_targetAtFixation,jsons/VE83_randls_7.json,http://54.235.29.9/FacialAge/BNav_EC2/DepthDuration/v2_depth_duration_MTurk/v2_DepthDuration_HTML.html#4,4,1280,875,1280,1024,8-29-2023,13-18-45,9,depth_duration_stimuli/001806_2014-06-26_20-50-20_260595134347_rgbf000091-resize_1/001806_2014-06-26_20-50-20_260595134347_rgbf000091-resize_1-target.png,83,2.7305,97,7706,82,meters,jsons/VE83_randls_7.json,1079100,1786909,25,Woman
9,735313,DepthScenes,duration_manipulation_targetAtFixation,jsons/VE83_randls_7.json,http://54.235.29.9/FacialAge/BNav_EC2/DepthDuration/v2_depth_duration_MTurk/v2_DepthDuration_HTML.html#4,4,1280,875,1280,1024,8-29-2023,13-18-45,10,depth_duration_stimuli/001617_2014-06-20_11-35-32_260595134347_rgbf000066-resize_1/001617_2014-06-20_11-35-32_260595134347_rgbf000066-resize_1-target.png,83,3.7910000000000004,0,4071,83,meters,jsons/VE83_randls_7.json,1079100,1786909,25,Woman
10,735313,DepthScenes,duration_manipulation_targetAtFixation,jsons/VE83_randls_7.json,http://54.235.29.9/FacialAge/BNav_EC2/DepthDuration/v2_depth_duration_MTurk/v2_DepthDuration_HTML.html#4,4,1280,875,1280,1024,8-29-2023,13-18-45,11,depth_duration_stimuli/002118_2014-06-25_20-32-08_260595134347_rgbf000078-resize_1/002118_2014-06-25_20-32-08_260595134347_rgbf000078-resize_1-target.png,83,2.6460000000000004,95,6542,83,meters,jsons/VE83_randls_7.json,1079100,1786909,25,Woman
11,735313,DepthScenes,duration_manipulation_targetAtFixation,jsons/VE83_randls_7.json,http://54.235.29.9/FacialAge/BNav_EC2/DepthDuration/v2_depth_duration_MTurk/v2_DepthDuration_HTML.html#4,4,1280,875,1280,1024,8-29-2023,13-18-45,12,depth_duration_stimuli/001516_2014-06-20_16-25-09_260595134347_rgbf000076-resize_2/001516_2014-06-20_16-25-09_260595134347_rgbf000076-resize_2-target.png,83,1.7445,96,5066,83,meters,jsons/VE83_randls_7.json,1079100,1786909,25,Woman
12,735313,DepthScenes,duration_manipulation_targetAtFixation,jsons/VE83_randls_7.json,http://54.235.29.9/FacialAge/BNav_EC2/DepthDuration/v2_depth_duration_MTurk/v2_DepthDuration_HTML.html#4,4,1280,875,1280,1024,8-29-2023,13-18-45,13,depth_duration_stimuli/000569_2014-06-09_22-51-47_260595134347_rgbf000141-resize_3/000569_2014-06-09_22-51-47_260595134347_rgbf000141-resize-original.jpg,83,4.512,0,4617,83,meters,jsons/VE83_randls_7.json,1079100,1786909,25,Woman
13,735313,DepthScenes,duration_manipulation_targetAtFixation,jsons/VE83_randls_7.json,http://54.235.29.9/FacialAge/BNav_EC2/DepthDuration/v2_depth_duration_MTurk/v2_DepthDuration_HTML.html#4,4,1280,875,1280,1024,8-29-2023,13-18-45,14,depth_duration_stimuli/002043_2014-06-24_20-29-38_260595134347_rgbf000039-resize_4/002043_2014-06-24_20-29-38_260595134347_rgbf000039-resize_4-target.png,83,2.8435,99,5451,83,meters,jsons/VE83_randls_7.json,1079100,1786909,25,Woman
14,735313,DepthScenes,duration_manipulation_targetAtFixation,jsons/VE83_randls_7.json,http://54.235.29.9/FacialAge/BNav_EC2/DepthDuration/v2_depth_duration_MTurk/v2_DepthDuration_HTML.html#4,4,1280,875,1280,1024,8-29-2023,13-18-45,15,depth_duration_stimuli/003048_2014-06-15_13-49-43_094959634447_rgbf000150-resize_1/003048_2014-06-15_13-49-43_094959634447_rgbf000150-resize_1-target.png,83,4.0035,90,36317,83,meters,jsons/VE83_randls_7.json,1079100,1786909,25,Woman
15,735313,DepthScenes,duration_manipulation_targetAtFixation,jsons/VE83_randls_7.json,http://54.235.29.9/FacialAge/BNav_EC2/DepthDuration/v2_depth_duration_MTurk/v2_DepthDuration_HTML.html#4,4,1280,875,1280,1024,8-29-2023,13-18-45,16,depth_duration_stimuli/003534_2014-05-22_15-06-10_094959634447_rgbf000102-resize_4/003534_2014-05-22_15-06-10_094959634447_rgbf000102-resize_4-target.png,83,1.426,68,19869,83,meters,jsons/VE83_randls_7.json,1079100,1786909,25,Woman
16,735313,DepthScenes,duration_manipulation_targetAtFixation,jsons/VE83_randls_7.json,http://54.235.29.9/FacialAge/BNav_EC2/DepthDuration/v2_depth_duration_MTurk/v2_DepthDuration_HTML.html#4,4,1280,875,1280,1024,8-29-2023,13-18-45,17,depth_duration_stimuli/002637_2014-06-24_14-51-13_094959634447_rgbf000066-resize_4/002637_2014-06-24_14-51-13_094959634447_rgbf000066-resize_4-target.png,83,1.9955,0,3858,83,meters,jsons/VE83_randls_7.json,1079100,1786909,25,Woman
17,735313,DepthScenes,duration_manipulation_targetAtFixation,jsons/VE83_randls_7.json,http://54.235.29.9/FacialAge/BNav_EC2/DepthDuration/v2_depth_duration_MTurk/v2_DepthDuration_HTML.html#4,4,1280,875,1280,1024,8-29-2023,13-18-45,18,depth_duration_stimuli/001808_2014-06-26_20-50-58_260595134347_rgbf000029-resize_1/001808_2014-06-26_20-50-58_260595134347_rgbf000029-resize_1-target.png,83,4.249,90,6530,83,meters,jsons/VE83_randls_7.json,1079100,1786909,25,Woman
18,735313,DepthScenes,duration_manipulation_targetAtFixation,jsons/VE83_randls_7.json,http://54.235.29.9/FacialAge/BNav_EC2/DepthDuration/v2_depth_duration_MTurk/v2_DepthDuration_HTML.html#4,4,1280,875,1280,1024,8-29-2023,13-18-45,19,depth_duration_stimuli/001815_2014-06-26_20-52-55_260595134347_rgbf000020-resize_0/001815_2014-06-26_20-52-55_260595134347_rgbf000020-resize_0-target.png,83,3.3865,0,4194,82,meters,jsons/VE83_randls_7.json,1079100,1786909,25,Woman
19,735313,DepthScenes,duration_manipulation_targetAtFixation,jsons/VE83_randls_7.json,http://54.235.29.9/FacialAge/BNav_EC2/DepthDuration/v2_depth_duration_MTurk/v2_DepthDuration_HTML.html#4,4,1280,875,1280,1024,8-29-2023,13-18-45,20,depth_duration_stimuli/000739_2014-06-08_18-45-58_260595134347_rgbf000068-resize_1/000739_2014-06-08_18-45-58_260595134347_rgbf000068-resize_1-target.png,83,3.534,91,15273,83,meters,jsons/VE83_randls_7.json,1079100,1786909,25,Woman
20,735313,DepthScenes,duration_manipulation_targetAtFixation,jsons/VE83_randls_7.json,http://54.235.29.9/FacialAge/BNav_EC2/DepthDuration/v2_depth_duration_MTurk/v2_DepthDuration_HTML.html#4,4,1280,875,1280,1024,8-29-2023,13-18-45,21,depth_duration_stimuli/000734_2014-06-08_17-39-11_260595134347_rgbf000128-resize_2/000734_2014-06-08_17-39-11_260595134347_rgbf000128-resize_2-target.png,83,4.098,0,3825,82,meters,jsons/VE83_randls_7.json,1079100,1786909,25,Woman
21,735313,DepthScenes,duration_manipulation_targetAtFixation,jsons/VE83_randls_7.json,http://54.235.29.9/FacialAge/BNav_EC2/DepthDuration/v2_depth_duration_MTurk/v2_DepthDuration_HTML.html#4,4,1280,875,1280,1024,8-29-2023,13-18-45,22,depth_duration_stimuli/000642_2014-06-08_16-59-25_260595134347_rgbf000098-resize_2/000642_2014-06-08_16-59-25_260595134347_rgbf000098-resize_2-target.png,83,2.8815,50,7988,84,meters,jsons/VE83_randls_7.json,1079100,1786909,25,Woman
22,735313,DepthScenes,duration_manipulation_targetAtFixation,jsons/VE83_randls_7.json,http://54.235.29.9/FacialAge/BNav_EC2/DepthDuration/v2_depth_duration_MTurk/v2_DepthDuration_HTML.html#4,4,1280,875,1280,1024,8-29-2023,13-18-45,23,depth_duration_stimuli/002425_2014-06-28_20-27-29_260595134347_rgbf000031-resize_8/002425_2014-06-28_20-27-29_260595134347_rgbf000031-resize_8-target.png,83,3.8960000000000004,0,3401,83,meters,jsons/VE83_randls_7.json,1079100,1786909,25,Woman
23,735313,DepthScenes,duration_manipulation_targetAtFixation,jsons/VE83_randls_7.json,http://54.235.29.9/FacialAge/BNav_EC2/DepthDuration/v2_depth_duration_MTurk/v2_DepthDuration_HTML.html#4,4,1280,875,1280,1024,8-29-2023,13-18-45,24,depth_duration_stimuli/001056_2014-06-08_18-46-44_260595134347_rgbf000068-resize_0/001056_2014-06-08_18-46-44_260595134347_rgbf000068-resize_0-target.png,83,2.6625,90,13300,84,meters,jsons/VE83_randls_7.json,1079100,1786909,25,Woman
24,735313,DepthScenes,duration_manipulation_targetAtFixation,jsons/VE83_randls_7.json,http://54.235.29.9/FacialAge/BNav_EC2/DepthDuration/v2_depth_duration_MTurk/v2_DepthDuration_HTML.html#4,4,1280,875,1280,1024,8-29-2023,13-18-45,25,depth_duration_stimuli/002199_2014-06-28_18-33-56_260595134347_rgbf000074-resize_0/002199_2014-06-28_18-33-56_260595134347_rgbf000074-resize_0-target.png,83,1.996,0,3907,83,meters,jsons/VE83_randls_7.json,1079100,1786909,25,Woman
25,735313,DepthScenes,duration_manipulation_targetAtFixation,jsons/VE83_randls_7.json,http://54.235.29.9/FacialAge/BNav_EC2/DepthDuration/v2_depth_duration_MTurk/v2_DepthDuration_HTML.html#4,4,1280,875,1280,1024,8-29-2023,13-18-45,26,depth_duration_stimuli/000368_2014-06-09_15-53-01_260595134347_rgbf000155-resize_2/000368_2014-06-09_15-53-01_260595134347_rgbf000155-resize_2-target.png,83,2.4859999999999998,91,10140,83,meters,jsons/VE83_randls_7.json,1079100,1786909,25,Woman
26,735313,DepthScenes,duration_manipulation_targetAtFixation,jsons/VE83_randls_7.json,http://54.235.29.9/FacialAge/BNav_EC2/DepthDuration/v2_depth_duration_MTurk/v2_DepthDuration_HTML.html#4,4,1280,875,1280,1024,8-29-2023,13-18-45,27,depth_duration_stimuli/002678_2014-06-13_16-15-32_094959634447_rgbf000151-resize_6/002678_2014-06-13_16-15-32_094959634447_rgbf000151-resize_6-target.png,83,2.1830000000000003,0,4555,82,meters,jsons/VE83_randls_7.json,1079100,1786909,25,Woman
27,735313,DepthScenes,duration_manipulation_targetAtFixation,jsons/VE83_randls_7.json,http://54.235.29.9/FacialAge/BNav_EC2/DepthDuration/v2_depth_duration_MTurk/v2_DepthDuration_HTML.html#4,4,1280,875,1280,1024,8-29-2023,13-18-45,28,depth_duration_stimuli/002272_2014-06-28_18-53-56_260595134347_rgbf000067-resize_2/002272_2014-06-28_18-53-56_260595134347_rgbf000067-resize_2-target.png,83,1.138,91,10050,84,meters,jsons/VE83_randls_7.json,1079100,1786909,25,Woman
28,735313,DepthScenes,duration_manipulation_targetAtFixation,jsons/VE83_randls_7.json,http://54.235.29.9/FacialAge/BNav_EC2/DepthDuration/v2_depth_duration_MTurk/v2_DepthDuration_HTML.html#4,4,1280,875,1280,1024,8-29-2023,13-18-45,29,depth_duration_stimuli/001571_2014-06-20_17-21-32_260595134347_rgbf000089-resize_1/001571_2014-06-20_17-21-32_260595134347_rgbf000089-resize_1-target.png,83,1.86,0,3466,82,meters,jsons/VE83_randls_7.json,1079100,1786909,25,Woman
29,735313,DepthScenes,duration_manipulation_targetAtFixation,jsons/VE83_randls_7.json,http://54.235.29.9/FacialAge/BNav_EC2/DepthDuration/v2_depth_duration_MTurk/v2_DepthDuration_HTML.html#4,4,1280,875,1280,1024,8-29-2023,13-18-45,30,depth_duration_stimuli/000375_2014-06-08_11-17-29_260595134347_rgbf000133-resize_2/000375_2014-06-08_11-17-29_260595134347_rgbf000133-resize-original.jpg,83,4.718,0,4274,84,meters,jsons/VE83_randls_7.json,1079100,1786909,25,Woman
30,735313,DepthScenes,duration_manipulation_targetAtFixation,jsons/VE83_randls_7.json,http://54.235.29.9/FacialAge/BNav_EC2/DepthDuration/v2_depth_duration_MTurk/v2_DepthDuration_HTML.html#4,4,1280,875,1280,1024,8-29-2023,13-18-45,31,depth_duration_stimuli/002784_2014-06-22_19-26-30_094959634447_rgbf000083-resize_3/002784_2014-06-22_19-26-30_094959634447_rgbf000083-resize_3-target.png,83,1.8046666666667,91,11016,83,meters,jsons/VE83_randls_7.json,1079100,1786909,25,Woman
31,735313,DepthScenes,duration_manipulation_targetAtFixation,jsons/VE83_randls_7.json,http://54.235.29.9/FacialAge/BNav_EC2/DepthDuration/v2_depth_duration_MTurk/v2_DepthDuration_HTML.html#4,4,1280,875,1280,1024,8-29-2023,13-18-45,32,depth_duration_stimuli/001100_2014-06-15_17-46-26_260595134347_rgbf000225-resize_2/001100_2014-06-15_17-46-26_260595134347_rgbf000225-resize_2-target.png,83,2.24,0,3557,84,meters,jsons/VE83_randls_7.json,1079100,1786909,25,Woman
32,735313,DepthScenes,duration_manipulation_targetAtFixation,jsons/VE83_randls_7.json,http://54.235.29.9/FacialAge/BNav_EC2/DepthDuration/v2_depth_duration_MTurk/v2_DepthDuration_HTML.html#4,4,1280,875,1280,1024,8-29-2023,13-18-45,33,depth_duration_stimuli/000692_2014-06-08_13-09-42_260595134347_rgbf000199-resize_2/000692_2014-06-08_13-09-42_260595134347_rgbf000199-resize_2-target.png,83,3.661,85,9371,84,meters,jsons/VE83_randls_7.json,1079100,1786909,25,Woman
33,735313,DepthScenes,duration_manipulation_targetAtFixation,jsons/VE83_randls_7.json,http://54.235.29.9/FacialAge/BNav_EC2/DepthDuration/v2_depth_duration_MTurk/v2_DepthDuration_HTML.html#4,4,1280,875,1280,1024,8-29-2023,13-18-45,34,depth_duration_stimuli/001094_2014-06-15_17-36-00_260595134347_rgbf000205-resize_0/001094_2014-06-15_17-36-00_260595134347_rgbf000205-resize_0-target.png,83,4.2175,0,5314,84,meters,jsons/VE83_randls_7.json,1079100,1786909,25,Woman
34,735313,DepthScenes,duration_manipulation_targetAtFixation,jsons/VE83_randls_7.json,http://54.235.29.9/FacialAge/BNav_EC2/DepthDuration/v2_depth_duration_MTurk/v2_DepthDuration_HTML.html#4,4,1280,875,1280,1024,8-29-2023,13-18-45,35,depth_duration_stimuli/002570_2014-06-24_13-59-54_094959634447_rgbf000059-resize_0/002570_2014-06-24_13-59-54_094959634447_rgbf000059-resize_0-target.png,83,4.037,80,5227,82,meters,jsons/VE83_randls_7.json,1079100,1786909,25,Woman
35,735313,DepthScenes,duration_manipulation_targetAtFixation,jsons/VE83_randls_7.json,http://54.235.29.9/FacialAge/BNav_EC2/DepthDuration/v2_depth_duration_MTurk/v2_DepthDuration_HTML.html#4,4,1280,875,1280,1024,8-29-2023,13-18-45,36,depth_duration_stimuli/002467_2014-06-28_20-38-07_260595134347_rgbf000026-resize_2/002467_2014-06-28_20-38-07_260595134347_rgbf000026-resize_2-target.png,83,4.742,0,4010,83,meters,jsons/VE83_randls_7.json,1079100,1786909,25,Woman
36,735313,DepthScenes,duration_manipulation_targetAtFixation,jsons/VE83_randls_7.json,http://54.235.29.9/FacialAge/BNav_EC2/DepthDuration/v2_depth_duration_MTurk/v2_DepthDuration_HTML.html#4,4,1280,875,1280,1024,8-29-2023,13-18-45,37,depth_duration_stimuli/000522_2014-06-08_13-35-06_260595134347_rgbf000244-resize_1/000522_2014-06-08_13-35-06_260595134347_rgbf000244-resize_1-target.png,83,2.3715,85,5521,83,meters,jsons/VE83_randls_7.json,1079100,1786909,25,Woman
37,735313,DepthScenes,duration_manipulation_targetAtFixation,jsons/VE83_randls_7.json,http://54.235.29.9/FacialAge/BNav_EC2/DepthDuration/v2_depth_duration_MTurk/v2_DepthDuration_HTML.html#4,4,1280,875,1280,1024,8-29-2023,13-18-45,38,depth_duration_stimuli/002949_2014-06-26_15-57-42_094959634447_rgbf000079-resize_1/002949_2014-06-26_15-57-42_094959634447_rgbf000079-resize_1-target.png,83,1.8915,0,4257,85,meters,jsons/VE83_randls_7.json,1079100,1786909,25,Woman
38,735313,DepthScenes,duration_manipulation_targetAtFixation,jsons/VE83_randls_7.json,http://54.235.29.9/FacialAge/BNav_EC2/DepthDuration/v2_depth_duration_MTurk/v2_DepthDuration_HTML.html#4,4,1280,875,1280,1024,8-29-2023,13-18-45,39,depth_duration_stimuli/002748_2014-06-22_19-07-22_094959634447_rgbf000078-resize_1/002748_2014-06-22_19-07-22_094959634447_rgbf000078-resize_1-target.png,83,4.6705,90,6137,82,meters,jsons/VE83_randls_7.json,1079100,1786909,25,Woman
39,735313,DepthScenes,duration_manipulation_targetAtFixation,jsons/VE83_randls_7.json,http://54.235.29.9/FacialAge/BNav_EC2/DepthDuration/v2_depth_duration_MTurk/v2_DepthDuration_HTML.html#4,4,1280,875,1280,1024,8-29-2023,13-18-45,40,depth_duration_stimuli/002995_2014-06-15_12-31-26_094959634447_rgbf000150-resize_1/002995_2014-06-15_12-31-26_094959634447_rgbf000150-resize_1-target.png,83,3.8360000000000003,0,3550,83,meters,jsons/VE83_randls_7.json,1079100,1786909,25,Woman
40,735313,DepthScenes,duration_manipulation_targetAtFixation,jsons/VE83_randls_7.json,http://54.235.29.9/FacialAge/BNav_EC2/DepthDuration/v2_depth_duration_MTurk/v2_DepthDuration_HTML.html#4,4,1280,875,1280,1024,8-29-2023,13-18-45,41,depth_duration_stimuli/000758_2014-06-08_22-05-08_260595134347_rgbf000085-resize_0/000758_2014-06-08_22-05-08_260595134347_rgbf000085-resize_0-target.png,83,3.3810000000000002,80,7651,84,meters,jsons/VE83_randls_7.json,1079100,1786909,25,Woman
41,735313,DepthScenes,duration_manipulation_targetAtFixation,jsons/VE83_randls_7.json,http://54.235.29.9/FacialAge/BNav_EC2/DepthDuration/v2_depth_duration_MTurk/v2_DepthDuration_HTML.html#4,4,1280,875,1280,1024,8-29-2023,13-18-45,42,depth_duration_stimuli/000854_2014-06-09_19-43-13_260595134347_rgbf000066-resize_0/000854_2014-06-09_19-43-13_260595134347_rgbf000066-resize_0-target.png,83,3.068,0,5409,84,meters,jsons/VE83_randls_7.json,1079100,1786909,25,Woman
42,735313,DepthScenes,duration_manipulation_targetAtFixation,jsons/VE83_randls_7.json,http://54.235.29.9/FacialAge/BNav_EC2/DepthDuration/v2_depth_duration_MTurk/v2_DepthDuration_HTML.html#4,4,1280,875,1280,1024,8-29-2023,13-18-45,43,depth_duration_stimuli/001244_2014-06-17_16-47-45_260595134347_rgbf000030-resize_4/001244_2014-06-17_16-47-45_260595134347_rgbf000030-resize_4-target.png,83,2.0425,81,6833,83,meters,jsons/VE83_randls_7.json,1079100,1786909,25,Woman
43,735313,DepthScenes,duration_manipulation_targetAtFixation,jsons/VE83_randls_7.json,http://54.235.29.9/FacialAge/BNav_EC2/DepthDuration/v2_depth_duration_MTurk/v2_DepthDuration_HTML.html#4,4,1280,875,1280,1024,8-29-2023,13-18-45,44,depth_duration_stimuli/003495_2014-05-21_16-01-51_094959634447_rgbf000100-resize_3/003495_2014-05-21_16-01-51_094959634447_rgbf000100-resize_3-target.png,83,1.6255,0,3780,84,meters,jsons/VE83_randls_7.json,1079100,1786909,25,Woman
44,735313,DepthScenes,duration_manipulation_targetAtFixation,jsons/VE83_randls_7.json,http://54.235.29.9/FacialAge/BNav_EC2/DepthDuration/v2_depth_duration_MTurk/v2_DepthDuration_HTML.html#4,4,1280,875,1280,1024,8-29-2023,13-18-45,45,depth_duration_stimuli/000787_2014-06-08_22-33-53_260595134347_rgbf000175-resize_1/000787_2014-06-08_22-33-53_260595134347_rgbf000175-resize-original.jpg,83,4.784,0,4086,83,meters,jsons/VE83_randls_7.json,1079100,1786909,25,Woman
45,735313,DepthScenes,duration_manipulation_targetAtFixation,jsons/VE83_randls_7.json,http://54.235.29.9/FacialAge/BNav_EC2/DepthDuration/v2_depth_duration_MTurk/v2_DepthDuration_HTML.html#4,4,1280,875,1280,1024,8-29-2023,13-18-45,46,depth_duration_stimuli/000436_2014-06-09_22-25-11_260595134347_rgbf000137-resize_1/000436_2014-06-09_22-25-11_260595134347_rgbf000137-resize_1-target.png,83,4.0705,86,7634,82,meters,jsons/VE83_randls_7.json,1079100,1786909,25,Woman
46,735313,DepthScenes,duration_manipulation_targetAtFixation,jsons/VE83_randls_7.json,http://54.235.29.9/FacialAge/BNav_EC2/DepthDuration/v2_depth_duration_MTurk/v2_DepthDuration_HTML.html#4,4,1280,875,1280,1024,8-29-2023,13-18-45,47,depth_duration_stimuli/002444_2014-06-28_20-32-08_260595134347_rgbf000027-resize_0/002444_2014-06-28_20-32-08_260595134347_rgbf000027-resize_0-target.png,83,4.388999999999999,89,5657,83,meters,jsons/VE83_randls_7.json,1079100,1786909,25,Woman
47,735313,DepthScenes,duration_manipulation_targetAtFixation,jsons/VE83_randls_7.json,http://54.235.29.9/FacialAge/BNav_EC2/DepthDuration/v2_depth_duration_MTurk/v2_DepthDuration_HTML.html#4,4,1280,875,1280,1024,8-29-2023,13-18-45,48,depth_duration_stimuli/001029_2014-06-08_13-17-57_260595134347_rgbf000065-resize_1/001029_2014-06-08_13-17-57_260595134347_rgbf000065-resize_1-target.png,83,3.0835,90,29555,83,meters,jsons/VE83_randls_7.json,1079100,1786909,25,Woman
48,735313,DepthScenes,duration_manipulation_targetAtFixation,jsons/VE83_randls_7.json,http://54.235.29.9/FacialAge/BNav_EC2/DepthDuration/v2_depth_duration_MTurk/v2_DepthDuration_HTML.html#4,4,1280,875,1280,1024,8-29-2023,13-18-45,49,depth_duration_stimuli/000677_2014-06-08_23-10-32_260595134347_rgbf000158-resize_6/000677_2014-06-08_23-10-32_260595134347_rgbf000158-resize_6-target.png,83,3.556,80,5072,83,meters,jsons/VE83_randls_7.json,1079100,1786909,25,Woman
49,735313,DepthScenes,duration_manipulation_targetAtFixation,jsons/VE83_randls_7.json,http://54.235.29.9/FacialAge/BNav_EC2/DepthDuration/v2_depth_duration_MTurk/v2_DepthDuration_HTML.html#4,4,1280,875,1280,1024,8-29-2023,13-18-45,50,depth_duration_stimuli/000447_2014-06-08_16-15-46_260595134347_rgbf000130-resize_1/000447_2014-06-08_16-15-46_260595134347_rgbf000130-resize_1-target.png,83,4.479,85,7306,84,meters,jsons/VE83_randls_7.json,1079100,1786909,25,Woman
50,735313,DepthScenes,duration_manipulation_targetAtFixation,jsons/VE83_randls_7.json,http://54.235.29.9/FacialAge/BNav_EC2/DepthDuration/v2_depth_duration_MTurk/v2_DepthDuration_HTML.html#4,4,1280,875,1280,1024,8-29-2023,13-18-45,51,depth_duration_stimuli/001447_2014-06-19_17-00-32_260595134347_rgbf000082-resize_5/001447_2014-06-19_17-00-32_260595134347_rgbf000082-resize_5-target.png,83,4.13775,0,3523,84,meters,jsons/VE83_randls_7.json,1079100,1786909,25,Woman
51,735313,DepthScenes,duration_manipulation_targetAtFixation,jsons/VE83_randls_7.json,http://54.235.29.9/FacialAge/BNav_EC2/DepthDuration/v2_depth_duration_MTurk/v2_DepthDuration_HTML.html#4,4,1280,875,1280,1024,8-29-2023,13-18-45,52,depth_duration_stimuli/002213_2014-06-28_18-37-58_260595134347_rgbf000055-resize_1/002213_2014-06-28_18-37-58_260595134347_rgbf000055-resize_1-target.png,83,3.62,99,6890,83,meters,jsons/VE83_randls_7.json,1079100,1786909,25,Woman
52,735313,DepthScenes,duration_manipulation_targetAtFixation,jsons/VE83_randls_7.json,http://54.235.29.9/FacialAge/BNav_EC2/DepthDuration/v2_depth_duration_MTurk/v2_DepthDuration_HTML.html#4,4,1280,875,1280,1024,8-29-2023,13-18-45,53,depth_duration_stimuli/000691_2014-06-08_13-08-50_260595134347_rgbf000132-resize_3/000691_2014-06-08_13-08-50_260595134347_rgbf000132-resize_3-target.png,83,4.1530000000000005,50,4620,84,meters,jsons/VE83_randls_7.json,1079100,1786909,25,Woman
53,735313,DepthScenes,duration_manipulation_targetAtFixation,jsons/VE83_randls_7.json,http://54.235.29.9/FacialAge/BNav_EC2/DepthDuration/v2_depth_duration_MTurk/v2_DepthDuration_HTML.html#4,4,1280,875,1280,1024,8-29-2023,13-18-45,54,depth_duration_stimuli/001092_2014-06-15_17-34-58_260595134347_rgbf000171-resize_3/001092_2014-06-15_17-34-58_260595134347_rgbf000171-resize_3-target.png,83,2.6935,50,7953,82,meters,jsons/VE83_randls_7.json,1079100,1786909,25,Woman
54,735313,DepthScenes,duration_manipulation_targetAtFixation,jsons/VE83_randls_7.json,http://54.235.29.9/FacialAge/BNav_EC2/DepthDuration/v2_depth_duration_MTurk/v2_DepthDuration_HTML.html#4,4,1280,875,1280,1024,8-29-2023,13-18-45,55,depth_duration_stimuli/002545_2014-06-24_13-38-53_094959634447_rgbf000080-resize_4/002545_2014-06-24_13-38-53_094959634447_rgbf000080-resize_4-target.png,83,1.9205,0,3444,84,meters,jsons/VE83_randls_7.json,1079100,1786909,25,Woman
55,735313,DepthScenes,duration_manipulation_targetAtFixation,jsons/VE83_randls_7.json,http://54.235.29.9/FacialAge/BNav_EC2/DepthDuration/v2_depth_duration_MTurk/v2_DepthDuration_HTML.html#4,4,1280,875,1280,1024,8-29-2023,13-18-45,56,depth_duration_stimuli/001175_2014-06-17_15-45-55_260595134347_rgbf000129-resize_4/001175_2014-06-17_15-45-55_260595134347_rgbf000129-resize_4-target.png,83,4.255,90,9276,83,meters,jsons/VE83_randls_7.json,1079100,1786909,25,Woman
56,735313,DepthScenes,duration_manipulation_targetAtFixation,jsons/VE83_randls_7.json,http://54.235.29.9/FacialAge/BNav_EC2/DepthDuration/v2_depth_duration_MTurk/v2_DepthDuration_HTML.html#4,4,1280,875,1280,1024,8-29-2023,13-18-45,57,depth_duration_stimuli/003490_2014-05-21_15-50-11_094959634447_rgbf000101-resize_3/003490_2014-05-21_15-50-11_094959634447_rgbf000101-resize_3-target.png,83,3.6445,0,3731,84,meters,jsons/VE83_randls_7.json,1079100,1786909,25,Woman
57,735313,DepthScenes,duration_manipulation_targetAtFixation,jsons/VE83_randls_7.json,http://54.235.29.9/FacialAge/BNav_EC2/DepthDuration/v2_depth_duration_MTurk/v2_DepthDuration_HTML.html#4,4,1280,875,1280,1024,8-29-2023,13-18-45,58,depth_duration_stimuli/001158_2014-06-17_15-32-16_260595134347_rgbf000138-resize_2/001158_2014-06-17_15-32-16_260595134347_rgbf000138-resize_2-target.png,83,4.5315,94,8905,84,meters,jsons/VE83_randls_7.json,1079100,1786909,25,Woman
58,735313,DepthScenes,duration_manipulation_targetAtFixation,jsons/VE83_randls_7.json,http://54.235.29.9/FacialAge/BNav_EC2/DepthDuration/v2_depth_duration_MTurk/v2_DepthDuration_HTML.html#4,4,1280,875,1280,1024,8-29-2023,13-18-45,59,depth_duration_stimuli/000556_2014-06-09_22-42-56_260595134347_rgbf000214-resize_1/000556_2014-06-09_22-42-56_260595134347_rgbf000214-resize_1-target.png,83,4.8415,89,7980,84,meters,jsons/VE83_randls_7.json,1079100,1786909,25,Woman
59,735313,DepthScenes,duration_manipulation_targetAtFixation,jsons/VE83_randls_7.json,http://54.235.29.9/FacialAge/BNav_EC2/DepthDuration/v2_depth_duration_MTurk/v2_DepthDuration_HTML.html#4,4,1280,875,1280,1024,8-29-2023,13-18-45,60,depth_duration_stimuli/000470_2014-06-09_19-42-40_260595134347_rgbf000094-resize_1/000470_2014-06-09_19-42-40_260595134347_rgbf000094-resize_1-target.png,83,1.831,40,5574,84,meters,jsons/VE83_randls_7.json,1079100,1786909,25,Woman
60,735313,DepthScenes,duration_manipulation_targetAtFixation,jsons/VE83_randls_7.json,http://54.235.29.9/FacialAge/BNav_EC2/DepthDuration/v2_depth_duration_MTurk/v2_DepthDuration_HTML.html#4,4,1280,875,1280,1024,8-29-2023,13-18-45,61,depth_duration_stimuli/000109_2014-05-14_23-41-52_260595134347_rgbf000035-resize_9/000109_2014-05-14_23-41-52_260595134347_rgbf000035-resize_9-target.png,83,1.3545,0,3506,83,meters,jsons/VE83_randls_7.json,1079100,1786909,25,Woman
61,735313,DepthScenes,duration_manipulation_targetAtFixation,jsons/VE83_randls_7.json,http://54.235.29.9/FacialAge/BNav_EC2/DepthDuration/v2_depth_duration_MTurk/v2_DepthDuration_HTML.html#4,4,1280,875,1280,1024,8-29-2023,13-18-45,62,depth_duration_stimuli/000878_2014-06-08_22-52-45_260595134347_rgbf000045-resize_2/000878_2014-06-08_22-52-45_260595134347_rgbf000045-resize_2-target.png,83,2.092,85,8098,84,meters,jsons/VE83_randls_7.json,1079100,1786909,25,Woman
62,735313,DepthScenes,duration_manipulation_targetAtFixation,jsons/VE83_randls_7.json,http://54.235.29.9/FacialAge/BNav_EC2/DepthDuration/v2_depth_duration_MTurk/v2_DepthDuration_HTML.html#4,4,1280,875,1280,1024,8-29-2023,13-18-45,63,depth_duration_stimuli/002953_2014-06-08_17-32-18_094959634447_rgbf000059-resize_5/002953_2014-06-08_17-32-18_094959634447_rgbf000059-resize_5-target.png,83,1.551,0,3378,82,meters,jsons/VE83_randls_7.json,1079100,1786909,25,Woman
63,735313,DepthScenes,duration_manipulation_targetAtFixation,jsons/VE83_randls_7.json,http://54.235.29.9/FacialAge/BNav_EC2/DepthDuration/v2_depth_duration_MTurk/v2_DepthDuration_HTML.html#4,4,1280,875,1280,1024,8-29-2023,13-18-45,64,depth_duration_stimuli/002600_2014-06-24_14-27-04_094959634447_rgbf000074-resize_2/002600_2014-06-24_14-27-04_094959634447_rgbf000074-resize_2-target.png,83,2.7575,86,6612,84,meters,jsons/VE83_randls_7.json,1079100,1786909,25,Woman
64,735313,DepthScenes,duration_manipulation_targetAtFixation,jsons/VE83_randls_7.json,http://54.235.29.9/FacialAge/BNav_EC2/DepthDuration/v2_depth_duration_MTurk/v2_DepthDuration_HTML.html#4,4,1280,875,1280,1024,8-29-2023,13-18-45,65,depth_duration_stimuli/003228_2014-05-14_13-42-35_094959634447_rgbf000101-resize_1/003228_2014-05-14_13-42-35_094959634447_rgbf000101-resize_1-target.png,83,1.9680000000000002,53,4194,85,meters,jsons/VE83_randls_7.json,1079100,1786909,25,Woman
65,735313,DepthScenes,duration_manipulation_targetAtFixation,jsons/VE83_randls_7.json,http://54.235.29.9/FacialAge/BNav_EC2/DepthDuration/v2_depth_duration_MTurk/v2_DepthDuration_HTML.html#4,4,1280,875,1280,1024,8-29-2023,13-18-45,66,depth_duration_stimuli/001222_2014-06-17_16-24-06_260595134347_rgbf000073-resize_0/001222_2014-06-17_16-24-06_260595134347_rgbf000073-resize-original.jpg,83,1.4385,0,3732,84,meters,jsons/VE83_randls_7.json,1079100,1786909,25,Woman
66,735313,DepthScenes,duration_manipulation_targetAtFixation,jsons/VE83_randls_7.json,http://54.235.29.9/FacialAge/BNav_EC2/DepthDuration/v2_depth_duration_MTurk/v2_DepthDuration_HTML.html#4,4,1280,875,1280,1024,8-29-2023,13-18-45,67,depth_duration_stimuli/002988_2014-06-15_12-24-20_094959634447_rgbf000150-resize_1/002988_2014-06-15_12-24-20_094959634447_rgbf000150-resize_1-target.png,83,4.7669999999999995,80,10168,84,meters,jsons/VE83_randls_7.json,1079100,1786909,25,Woman
67,735313,DepthScenes,duration_manipulation_targetAtFixation,jsons/VE83_randls_7.json,http://54.235.29.9/FacialAge/BNav_EC2/DepthDuration/v2_depth_duration_MTurk/v2_DepthDuration_HTML.html#4,4,1280,875,1280,1024,8-29-2023,13-18-45,68,depth_duration_stimuli/001052_2014-06-08_18-24-54_260595134347_rgbf000130-resize_1/001052_2014-06-08_18-24-54_260595134347_rgbf000130-resize_1-target.png,83,4.1045,96,5916,81,meters,jsons/VE83_randls_7.json,1079100,1786909,25,Woman
68,735313,DepthScenes,duration_manipulation_targetAtFixation,jsons/VE83_randls_7.json,http://54.235.29.9/FacialAge/BNav_EC2/DepthDuration/v2_depth_duration_MTurk/v2_DepthDuration_HTML.html#4,4,1280,875,1280,1024,8-29-2023,13-18-45,69,depth_duration_stimuli/000906_2014-06-08_13-35-43_260595134347_rgbf000155-resize_1/000906_2014-06-08_13-35-43_260595134347_rgbf000155-resize_1-target.png,83,2.8489999999999998,94,5147,84,meters,jsons/VE83_randls_7.json,1079100,1786909,25,Woman
69,735313,DepthScenes,duration_manipulation_targetAtFixation,jsons/VE83_randls_7.json,http://54.235.29.9/FacialAge/BNav_EC2/DepthDuration/v2_depth_duration_MTurk/v2_DepthDuration_HTML.html#4,4,1280,875,1280,1024,8-29-2023,13-18-45,70,depth_duration_stimuli/002805_2014-06-22_19-54-03_094959634447_rgbf000079-resize_1/002805_2014-06-22_19-54-03_094959634447_rgbf000079-resize_1-target.png,83,3.1439999999999997,91,5981,84,meters,jsons/VE83_randls_7.json,1079100,1786909,25,Woman
70,735313,DepthScenes,duration_manipulation_targetAtFixation,jsons/VE83_randls_7.json,http://54.235.29.9/FacialAge/BNav_EC2/DepthDuration/v2_depth_duration_MTurk/v2_DepthDuration_HTML.html#4,4,1280,875,1280,1024,8-29-2023,13-18-45,71,depth_duration_stimuli/002989_2014-06-15_12-25-03_094959634447_rgbf000150-resize_3/002989_2014-06-15_12-25-03_094959634447_rgbf000150-resize_3-target.png,83,4.1975,86,8881,83,meters,jsons/VE83_randls_7.json,1079100,1786909,25,Woman
71,735313,DepthScenes,duration_manipulation_targetAtFixation,jsons/VE83_randls_7.json,http://54.235.29.9/FacialAge/BNav_EC2/DepthDuration/v2_depth_duration_MTurk/v2_DepthDuration_HTML.html#4,4,1280,875,1280,1024,8-29-2023,13-18-45,72,depth_duration_stimuli/000866_2014-06-09_20-45-42_260595134347_rgbf000139-resize_1/000866_2014-06-09_20-45-42_260595134347_rgbf000139-resize_1-target.png,83,3.2155,0,3483,83,meters,jsons/VE83_randls_7.json,1079100,1786909,25,Woman
72,735313,DepthScenes,duration_manipulation_targetAtFixation,jsons/VE83_randls_7.json,http://54.235.29.9/FacialAge/BNav_EC2/DepthDuration/v2_depth_duration_MTurk/v2_DepthDuration_HTML.html#4,4,1280,875,1280,1024,8-29-2023,13-18-45,73,depth_duration_stimuli/002279_2014-06-28_18-55-32_260595134347_rgbf000040-resize_5/002279_2014-06-28_18-55-32_260595134347_rgbf000040-resize_5-target.png,83,1.5043333333333,90,6322,82,meters,jsons/VE83_randls_7.json,1079100,1786909,25,Woman
73,735313,DepthScenes,duration_manipulation_targetAtFixation,jsons/VE83_randls_7.json,http://54.235.29.9/FacialAge/BNav_EC2/DepthDuration/v2_depth_duration_MTurk/v2_DepthDuration_HTML.html#4,4,1280,875,1280,1024,8-29-2023,13-18-45,74,depth_duration_stimuli/000635_2014-06-08_16-38-42_260595134347_rgbf000106-resize_1/000635_2014-06-08_16-38-42_260595134347_rgbf000106-resize_1-target.png,83,2.074,0,6033,84,meters,jsons/VE83_randls_7.json,1079100,1786909,25,Woman
74,735313,DepthScenes,duration_manipulation_targetAtFixation,jsons/VE83_randls_7.json,http://54.235.29.9/FacialAge/BNav_EC2/DepthDuration/v2_depth_duration_MTurk/v2_DepthDuration_HTML.html#4,4,1280,875,1280,1024,8-29-2023,13-18-45,75,depth_duration_stimuli/000736_2014-06-08_18-24-15_260595134347_rgbf000206-resize_3/000736_2014-06-08_18-24-15_260595134347_rgbf000206-resize_3-target.png,83,3.515,94,4891,84,meters,jsons/VE83_randls_7.json,1079100,1786909,25,Woman
75,735313,DepthScenes,duration_manipulation_targetAtFixation,jsons/VE83_randls_7.json,http://54.235.29.9/FacialAge/BNav_EC2/DepthDuration/v2_depth_duration_MTurk/v2_DepthDuration_HTML.html#4,4,1280,875,1280,1024,8-29-2023,13-18-45,76,depth_duration_stimuli/000137_2014-05-20_17-04-49_260595134347_rgbf000120-resize_1/000137_2014-05-20_17-04-49_260595134347_rgbf000120-resize_1-target.png,83,3.786,0,3698,84,meters,jsons/VE83_randls_7.json,1079100,1786909,25,Woman
76,735313,DepthScenes,duration_manipulation_targetAtFixation,jsons/VE83_randls_7.json,http://54.235.29.9/FacialAge/BNav_EC2/DepthDuration/v2_depth_duration_MTurk/v2_DepthDuration_HTML.html#4,4,1280,875,1280,1024,8-29-2023,13-18-45,77,depth_duration_stimuli/000486_2014-06-09_20-47-20_260595134347_rgbf000143-resize_2/000486_2014-06-09_20-47-20_260595134347_rgbf000143-resize_2-target.png,83,4.8325,89,9811,83,meters,jsons/VE83_randls_7.json,1079100,1786909,25,Woman
77,735313,DepthScenes,duration_manipulation_targetAtFixation,jsons/VE83_randls_7.json,http://54.235.29.9/FacialAge/BNav_EC2/DepthDuration/v2_depth_duration_MTurk/v2_DepthDuration_HTML.html#4,4,1280,875,1280,1024,8-29-2023,13-18-45,78,depth_duration_stimuli/003083_2014-06-15_15-21-03_094959634447_rgbf000063-resize_1/003083_2014-06-15_15-21-03_094959634447_rgbf000063-resize_1-target.png,83,4.1405,0,3572,84,meters,jsons/VE83_randls_7.json,1079100,1786909,25,Woman
78,735313,DepthScenes,duration_manipulation_targetAtFixation,jsons/VE83_randls_7.json,http://54.235.29.9/FacialAge/BNav_EC2/DepthDuration/v2_depth_duration_MTurk/v2_DepthDuration_HTML.html#4,4,1280,875,1280,1024,8-29-2023,13-18-45,79,depth_duration_stimuli/002763_2014-06-22_19-13-10_094959634447_rgbf000075-resize_4/002763_2014-06-22_19-13-10_094959634447_rgbf000075-resize_4-target.png,83,1.68375,93,8349,83,meters,jsons/VE83_randls_7.json,1079100,1786909,25,Woman
79,735313,DepthScenes,duration_manipulation_targetAtFixation,jsons/VE83_randls_7.json,http://54.235.29.9/FacialAge/BNav_EC2/DepthDuration/v2_depth_duration_MTurk/v2_DepthDuration_HTML.html#4,4,1280,875,1280,1024,8-29-2023,13-18-45,80,depth_duration_stimuli/002209_2014-06-28_18-36-10_260595134347_rgbf000051-resize_1/002209_2014-06-28_18-36-10_260595134347_rgbf000051-resize_1-target.png,83,2.057,95,3985,83,meters,jsons/VE83_randls_7.json,1079100,1786909,25,Woman
80,735313,DepthScenes,duration_manipulation_targetAtFixation,jsons/VE83_randls_7.json,http://54.235.29.9/FacialAge/BNav_EC2/DepthDuration/v2_depth_duration_MTurk/v2_DepthDuration_HTML.html#4,4,1280,875,1280,1024,8-29-2023,13-18-45,81,depth_duration_stimuli/002549_2014-06-24_13-41-39_094959634447_rgbf000022-resize_3/002549_2014-06-24_13-41-39_094959634447_rgbf000022-resize_3-target.png,83,1.476,80,5138,83,meters,jsons/VE83_randls_7.json,1079100,1786909,25,Woman
81,735313,DepthScenes,duration_manipulation_targetAtFixation,jsons/VE83_randls_7.json,http://54.235.29.9/FacialAge/BNav_EC2/DepthDuration/v2_depth_duration_MTurk/v2_DepthDuration_HTML.html#4,4,1280,875,1280,1024,8-29-2023,13-18-45,82,depth_duration_stimuli/002750_2014-06-22_19-08-03_094959634447_rgbf000094-resize_4/002750_2014-06-22_19-08-03_094959634447_rgbf000094-resize_4-target.png,83,2.354,95,3954,83,meters,jsons/VE83_randls_7.json,1079100,1786909,25,Woman
82,735313,DepthScenes,duration_manipulation_targetAtFixation,jsons/VE83_randls_7.json,http://54.235.29.9/FacialAge/BNav_EC2/DepthDuration/v2_depth_duration_MTurk/v2_DepthDuration_HTML.html#4,4,1280,875,1280,1024,8-29-2023,13-18-45,83,depth_duration_stimuli/002153_2014-06-25_21-27-18_260595134347_rgbf000038-resize_5/002153_2014-06-25_21-27-18_260595134347_rgbf000038-resize_5-target.png,83,2.505,80,5581,83,meters,jsons/VE83_randls_7.json,1079100,1786909,25,Woman
83,735313,DepthScenes,duration_manipulation_targetAtFixation,jsons/VE83_randls_7.json,http://54.235.29.9/FacialAge/BNav_EC2/DepthDuration/v2_depth_duration_MTurk/v2_DepthDuration_HTML.html#4,4,1280,875,1280,1024,8-29-2023,13-18-45,84,depth_duration_stimuli/002660_2014-06-13_15-44-18_094959634447_rgbf001878-resize_2/002660_2014-06-13_15-44-18_094959634447_rgbf001878-resize_2-target.png,83,3.576,96,10804,84,meters,jsons/VE83_randls_7.json,1079100,1786909,25,Woman
84,735313,DepthScenes,duration_manipulation_targetAtFixation,jsons/VE83_randls_7.json,http://54.235.29.9/FacialAge/BNav_EC2/DepthDuration/v2_depth_duration_MTurk/v2_DepthDuration_HTML.html#4,4,1280,875,1280,1024,8-29-2023,13-18-45,85,depth_duration_stimuli/003492_2014-05-21_15-50-55_094959634447_rgbf000828-resize_1/003492_2014-05-21_15-50-55_094959634447_rgbf000828-resize_1-target.png,83,4.06875,95,4337,83,meters,jsons/VE83_randls_7.json,1079100,1786909,25,Woman
85,735313,DepthScenes,duration_manipulation_targetAtFixation,jsons/VE83_randls_7.json,http://54.235.29.9/FacialAge/BNav_EC2/DepthDuration/v2_depth_duration_MTurk/v2_DepthDuration_HTML.html#4,4,1280,875,1280,1024,8-29-2023,13-18-45,86,depth_duration_stimuli/002568_2014-06-24_13-59-21_094959634447_rgbf000062-resize_4/002568_2014-06-24_13-59-21_094959634447_rgbf000062-resize_4-target.png,83,3.015,88,6067,83,meters,jsons/VE83_randls_7.json,1079100,1786909,25,Woman
86,735313,DepthScenes,duration_manipulation_targetAtFixation,jsons/VE83_randls_7.json,http://54.235.29.9/FacialAge/BNav_EC2/DepthDuration/v2_depth_duration_MTurk/v2_DepthDuration_HTML.html#4,4,1280,875,1280,1024,8-29-2023,13-18-45,87,depth_duration_stimuli/000929_2014-06-09_16-33-19_260595134347_rgbf000139-resize_0/000929_2014-06-09_16-33-19_260595134347_rgbf000139-resize_0-target.png,83,2.8680000000000003,81,7751,83,meters,jsons/VE83_randls_7.json,1079100,1786909,25,Woman
87,735313,DepthScenes,duration_manipulation_targetAtFixation,jsons/VE83_randls_7.json,http://54.235.29.9/FacialAge/BNav_EC2/DepthDuration/v2_depth_duration_MTurk/v2_DepthDuration_HTML.html#4,4,1280,875,1280,1024,8-29-2023,13-18-45,88,depth_duration_stimuli/000457_2014-06-08_16-52-43_260595134347_rgbf000199-resize_1/000457_2014-06-08_16-52-43_260595134347_rgbf000199-resize_1-target.png,83,3.6489999999999996,0,3324,82,meters,jsons/VE83_randls_7.json,1079100,1786909,25,Woman
88,735313,DepthScenes,duration_manipulation_targetAtFixation,jsons/VE83_randls_7.json,http://54.235.29.9/FacialAge/BNav_EC2/DepthDuration/v2_depth_duration_MTurk/v2_DepthDuration_HTML.html#4,4,1280,875,1280,1024,8-29-2023,13-18-45,89,depth_duration_stimuli/002630_2014-06-24_14-47-50_094959634447_rgbf000055-resize_1/002630_2014-06-24_14-47-50_094959634447_rgbf000055-resize_1-target.png,83,3.0095,99,4483,84,meters,jsons/VE83_randls_7.json,1079100,1786909,25,Woman
89,735313,DepthScenes,duration_manipulation_targetAtFixation,jsons/VE83_randls_7.json,http://54.235.29.9/FacialAge/BNav_EC2/DepthDuration/v2_depth_duration_MTurk/v2_DepthDuration_HTML.html#4,4,1280,875,1280,1024,8-29-2023,13-18-45,90,depth_duration_stimuli/002758_2014-06-22_19-11-20_094959634447_rgbf000128-resize_1/002758_2014-06-22_19-11-20_094959634447_rgbf000128-resize_1-target.png,83,2.555,0,3778,83,meters,jsons/VE83_randls_7.json,1079100,1786909,25,Woman
90,735313,DepthScenes,duration_manipulation_targetAtFixation,jsons/VE83_randls_7.json,http://54.235.29.9/FacialAge/BNav_EC2/DepthDuration/v2_depth_duration_MTurk/v2_DepthDuration_HTML.html#4,4,1280,875,1280,1024,8-29-2023,13-18-45,91,depth_duration_stimuli/000810_2014-06-08_17-20-01_260595134347_rgbf000105-resize_0/000810_2014-06-08_17-20-01_260595134347_rgbf000105-resize_0-target.png,83,1.4865,90,5530,84,meters,jsons/VE83_randls_7.json,1079100,1786909,25,Woman
91,735313,DepthScenes,duration_manipulation_targetAtFixation,jsons/VE83_randls_7.json,http://54.235.29.9/FacialAge/BNav_EC2/DepthDuration/v2_depth_duration_MTurk/v2_DepthDuration_HTML.html#4,4,1280,875,1280,1024,8-29-2023,13-18-45,92,depth_duration_stimuli/001214_2014-06-17_16-13-55_260595134347_rgbf000111-resize_0/001214_2014-06-17_16-13-55_260595134347_rgbf000111-resize_0-target.png,83,2.6505,99,5148,84,meters,jsons/VE83_randls_7.json,1079100,1786909,25,Woman
92,735313,DepthScenes,duration_manipulation_targetAtFixation,jsons/VE83_randls_7.json,http://54.235.29.9/FacialAge/BNav_EC2/DepthDuration/v2_depth_duration_MTurk/v2_DepthDuration_HTML.html#4,4,1280,875,1280,1024,8-29-2023,13-18-45,93,depth_duration_stimuli/001133_2014-06-17_14-49-16_260595134347_rgbf000100-resize_0/001133_2014-06-17_14-49-16_260595134347_rgbf000100-resize_0-target.png,83,4.2115,94,7515,83,meters,jsons/VE83_randls_7.json,1079100,1786909,25,Woman
93,735313,DepthScenes,duration_manipulation_targetAtFixation,jsons/VE83_randls_7.json,http://54.235.29.9/FacialAge/BNav_EC2/DepthDuration/v2_depth_duration_MTurk/v2_DepthDuration_HTML.html#4,4,1280,875,1280,1024,8-29-2023,13-18-45,94,depth_duration_stimuli/001132_2014-06-17_14-48-54_260595134347_rgbf000100-resize_2/001132_2014-06-17_14-48-54_260595134347_rgbf000100-resize_2-target.png,83,3.753,0,3297,82,meters,jsons/VE83_randls_7.json,1079100,1786909,25,Woman
94,735313,DepthScenes,duration_manipulation_targetAtFixation,jsons/VE83_randls_7.json,http://54.235.29.9/FacialAge/BNav_EC2/DepthDuration/v2_depth_duration_MTurk/v2_DepthDuration_HTML.html#4,4,1280,875,1280,1024,8-29-2023,13-18-45,95,depth_duration_stimuli/000414_2014-06-04_19-49-13_260595134347_rgbf000044-resize_0/000414_2014-06-04_19-49-13_260595134347_rgbf000044-resize_0-target.png,83,4.329,97,9163,84,meters,jsons/VE83_randls_7.json,1079100,1786909,25,Woman
95,735313,DepthScenes,duration_manipulation_targetAtFixation,jsons/VE83_randls_7.json,http://54.235.29.9/FacialAge/BNav_EC2/DepthDuration/v2_depth_duration_MTurk/v2_DepthDuration_HTML.html#4,4,1280,875,1280,1024,8-29-2023,13-18-45,96,depth_duration_stimuli/003129_2014-05-12_10-48-10_094959634447_rgbf000100-resize_0/003129_2014-05-12_10-48-10_094959634447_rgbf000100-resize_0-target.png,83,4.9305,0,9531,83,meters,jsons/VE83_randls_7.json,1079100,1786909,25,Woman
96,735313,DepthScenes,duration_manipulation_targetAtFixation,jsons/VE83_randls_7.json,http://54.235.29.9/FacialAge/BNav_EC2/DepthDuration/v2_depth_duration_MTurk/v2_DepthDuration_HTML.html#4,4,1280,875,1280,1024,8-29-2023,13-18-45,97,depth_duration_stimuli/001016_2014-06-09_16-16-10_260595134347_rgbf000112-resize_5/001016_2014-06-09_16-16-10_260595134347_rgbf000112-resize_5-target.png,83,1.6565,90,6834,83,meters,jsons/VE83_randls_7.json,1079100,1786909,25,Woman
97,735313,DepthScenes,duration_manipulation_targetAtFixation,jsons/VE83_randls_7.json,http://54.235.29.9/FacialAge/BNav_EC2/DepthDuration/v2_depth_duration_MTurk/v2_DepthDuration_HTML.html#4,4,1280,875,1280,1024,8-29-2023,13-18-45,98,depth_duration_stimuli/002340_2014-06-28_20-05-46_260595134347_rgbf000113-resize_0/002340_2014-06-28_20-05-46_260595134347_rgbf000113-resize_0-target.png,83,2.4735,96,9799,83,meters,jsons/VE83_randls_7.json,1079100,1786909,25,Woman
98,735313,DepthScenes,duration_manipulation_targetAtFixation,jsons/VE83_randls_7.json,http://54.235.29.9/FacialAge/BNav_EC2/DepthDuration/v2_depth_duration_MTurk/v2_DepthDuration_HTML.html#4,4,1280,875,1280,1024,8-29-2023,13-18-45,99,depth_duration_stimuli/001540_2014-06-20_17-01-05_260595134347_rgbf000086-resize_2/001540_2014-06-20_17-01-05_260595134347_rgbf000086-resize-original.jpg,83,1.459,0,3665,83,meters,jsons/VE83_randls_7.json,1079100,1786909,25,Woman
99,735313,DepthScenes,duration_manipulation_targetAtFixation,jsons/VE83_randls_7.json,http://54.235.29.9/FacialAge/BNav_EC2/DepthDuration/v2_depth_duration_MTurk/v2_DepthDuration_HTML.html#4,4,1280,875,1280,1024,8-29-2023,13-18-45,100,depth_duration_stimuli/002964_2014-06-08_17-46-11_094959634447_rgbf000091-resize_4/002964_2014-06-08_17-46-11_094959634447_rgbf000091-resize_4-target.png,83,1.6909999999999998,97,4764,84,meters,jsons/VE83_randls_7.json,1079100,1786909,25,Woman
100,735313,DepthScenes,duration_manipulation_targetAtFixation,jsons/VE83_randls_7.json,http://54.235.29.9/FacialAge/BNav_EC2/DepthDuration/v2_depth_duration_MTurk/v2_DepthDuration_HTML.html#4,4,1280,875,1280,1024,8-29-2023,13-18-45,101,depth_duration_stimuli/002136_2014-06-25_21-18-03_260595134347_rgbf000109-resize_3/002136_2014-06-25_21-18-03_260595134347_rgbf000109-resize_3-target.png,83,1.9569999999999999,89,6298,84,meters,jsons/VE83_randls_7.json,1079100,1786909,25,Woman
101,735313,DepthScenes,duration_manipulation_targetAtFixation,jsons/VE83_randls_7.json,http://54.235.29.9/FacialAge/BNav_EC2/DepthDuration/v2_depth_duration_MTurk/v2_DepthDuration_HTML.html#4,4,1280,875,1280,1024,8-29-2023,13-18-45,102,depth_duration_stimuli/003621_2014-05-23_18-06-08_094959634447_rgbf000101-resize_1/003621_2014-05-23_18-06-08_094959634447_rgbf000101-resize_1-target.png,83,3.9835,96,4301,84,meters,jsons/VE83_randls_7.json,1079100,1786909,25,Woman
102,735313,DepthScenes,duration_manipulation_targetAtFixation,jsons/VE83_randls_7.json,http://54.235.29.9/FacialAge/BNav_EC2/DepthDuration/v2_depth_duration_MTurk/v2_DepthDuration_HTML.html#4,4,1280,875,1280,1024,8-29-2023,13-18-45,103,depth_duration_stimuli/001584_2014-06-20_11-07-43_260595134347_rgbf000002-resize_1/001584_2014-06-20_11-07-43_260595134347_rgbf000002-resize_1-target.png,83,3.53,0,3849,82,meters,jsons/VE83_randls_7.json,1079100,1786909,25,Woman
103,735313,DepthScenes,duration_manipulation_targetAtFixation,jsons/VE83_randls_7.json,http://54.235.29.9/FacialAge/BNav_EC2/DepthDuration/v2_depth_duration_MTurk/v2_DepthDuration_HTML.html#4,4,1280,875,1280,1024,8-29-2023,13-18-45,104,depth_duration_stimuli/002788_2014-06-22_19-36-03_094959634447_rgbf000088-resize_2/002788_2014-06-22_19-36-03_094959634447_rgbf000088-resize_2-target.png,83,1.6465,97,4098,83,meters,jsons/VE83_randls_7.json,1079100,1786909,25,Woman
104,735313,DepthScenes,duration_manipulation_targetAtFixation,jsons/VE83_randls_7.json,http://54.235.29.9/FacialAge/BNav_EC2/DepthDuration/v2_depth_duration_MTurk/v2_DepthDuration_HTML.html#4,4,1280,875,1280,1024,8-29-2023,13-18-45,105,depth_duration_stimuli/000749_2014-06-08_21-55-06_260595134347_rgbf000070-resize_2/000749_2014-06-08_21-55-06_260595134347_rgbf000070-resize_2-target.png,83,2.331,0,3492,84,meters,jsons/VE83_randls_7.json,1079100,1786909,25,Woman
105,735313,DepthScenes,duration_manipulation_targetAtFixation,jsons/VE83_randls_7.json,http://54.235.29.9/FacialAge/BNav_EC2/DepthDuration/v2_depth_duration_MTurk/v2_DepthDuration_HTML.html#4,4,1280,875,1280,1024,8-29-2023,13-18-45,106,depth_duration_stimuli/001167_2014-06-17_15-38-07_260595134347_rgbf000108-resize_0/001167_2014-06-17_15-38-07_260595134347_rgbf000108-resize_0-target.png,83,1.8505,93,5961,83,meters,jsons/VE83_randls_7.json,1079100,1786909,25,Woman
106,735313,DepthScenes,duration_manipulation_targetAtFixation,jsons/VE83_randls_7.json,http://54.235.29.9/FacialAge/BNav_EC2/DepthDuration/v2_depth_duration_MTurk/v2_DepthDuration_HTML.html#4,4,1280,875,1280,1024,8-29-2023,13-18-45,107,depth_duration_stimuli/003587_2014-05-23_16-48-02_094959634447_rgbf002384-resize_2/003587_2014-05-23_16-48-02_094959634447_rgbf002384-resize_2-target.png,83,1.357,99,4037,83,meters,jsons/VE83_randls_7.json,1079100,1786909,25,Woman
107,735313,DepthScenes,duration_manipulation_targetAtFixation,jsons/VE83_randls_7.json,http://54.235.29.9/FacialAge/BNav_EC2/DepthDuration/v2_depth_duration_MTurk/v2_DepthDuration_HTML.html#4,4,1280,875,1280,1024,8-29-2023,13-18-45,108,depth_duration_stimuli/000788_2014-06-08_22-34-36_260595134347_rgbf000131-resize_1/000788_2014-06-08_22-34-36_260595134347_rgbf000131-resize_1-target.png,83,3.359,98,5793,82,meters,jsons/VE83_randls_7.json,1079100,1786909,25,Woman
108,735313,DepthScenes,duration_manipulation_targetAtFixation,jsons/VE83_randls_7.json,http://54.235.29.9/FacialAge/BNav_EC2/DepthDuration/v2_depth_duration_MTurk/v2_DepthDuration_HTML.html#4,4,1280,875,1280,1024,8-29-2023,13-18-45,109,depth_duration_stimuli/001235_2014-06-17_16-37-36_260595134347_rgbf000084-resize_4/001235_2014-06-17_16-37-36_260595134347_rgbf000084-resize_4-target.png,83,3.6605,0,3372,83,meters,jsons/VE83_randls_7.json,1079100,1786909,25,Woman
109,735313,DepthScenes,duration_manipulation_targetAtFixation,jsons/VE83_randls_7.json,http://54.235.29.9/FacialAge/BNav_EC2/DepthDuration/v2_depth_duration_MTurk/v2_DepthDuration_HTML.html#4,4,1280,875,1280,1024,8-29-2023,13-18-45,110,depth_duration_stimuli/002039_2014-06-24_20-22-38_260595134347_rgbf000084-resize_1/002039_2014-06-24_20-22-38_260595134347_rgbf000084-resize_1-target.png,83,4.408,91,5165,83,meters,jsons/VE83_randls_7.json,1079100,1786909,25,Woman
110,735313,DepthScenes,duration_manipulation_targetAtFixation,jsons/VE83_randls_7.json,http://54.235.29.9/FacialAge/BNav_EC2/DepthDuration/v2_depth_duration_MTurk/v2_DepthDuration_HTML.html#4,4,1280,875,1280,1024,8-29-2023,13-18-45,111,depth_duration_stimuli/002103_2014-06-25_20-00-40_260595134347_rgbf000049-resize_0/002103_2014-06-25_20-00-40_260595134347_rgbf000049-resize_0-target.png,83,4.105,88,3928,84,meters,jsons/VE83_randls_7.json,1079100,1786909,25,Woman
111,735313,DepthScenes,duration_manipulation_targetAtFixation,jsons/VE83_randls_7.json,http://54.235.29.9/FacialAge/BNav_EC2/DepthDuration/v2_depth_duration_MTurk/v2_DepthDuration_HTML.html#4,4,1280,875,1280,1024,8-29-2023,13-18-45,112,depth_duration_stimuli/001011_2014-06-08_23-18-54_260595134347_rgbf000044-resize_4/001011_2014-06-08_23-18-54_260595134347_rgbf000044-resize_4-target.png,83,2.4730000000000003,84,8683,84,meters,jsons/VE83_randls_7.json,1079100,1786909,25,Woman
112,735313,DepthScenes,duration_manipulation_targetAtFixation,jsons/VE83_randls_7.json,http://54.235.29.9/FacialAge/BNav_EC2/DepthDuration/v2_depth_duration_MTurk/v2_DepthDuration_HTML.html#4,4,1280,875,1280,1024,8-29-2023,13-18-45,113,depth_duration_stimuli/002875_2014-06-01_15-19-00_094959634447_rgbf000151-resize_1/002875_2014-06-01_15-19-00_094959634447_rgbf000151-resize_1-target.png,83,1.9675,0,4268,84,meters,jsons/VE83_randls_7.json,1079100,1786909,25,Woman
113,735313,DepthScenes,duration_manipulation_targetAtFixation,jsons/VE83_randls_7.json,http://54.235.29.9/FacialAge/BNav_EC2/DepthDuration/v2_depth_duration_MTurk/v2_DepthDuration_HTML.html#4,4,1280,875,1280,1024,8-29-2023,13-18-45,114,depth_duration_stimuli/001449_2014-06-19_17-01-27_260595134347_rgbf000116-resize_2/001449_2014-06-19_17-01-27_260595134347_rgbf000116-resize_2-target.png,83,3.452,88,3916,83,meters,jsons/VE83_randls_7.json,1079100,1786909,25,Woman
114,735313,DepthScenes,duration_manipulation_targetAtFixation,jsons/VE83_randls_7.json,http://54.235.29.9/FacialAge/BNav_EC2/DepthDuration/v2_depth_duration_MTurk/v2_DepthDuration_HTML.html#4,4,1280,875,1280,1024,8-29-2023,13-18-45,115,depth_duration_stimuli/001450_2014-06-19_17-02-03_260595134347_rgbf000203-resize_4/001450_2014-06-19_17-02-03_260595134347_rgbf000203-resize_4-target.png,83,4.0106666666667,85,8201,83,meters,jsons/VE83_randls_7.json,1079100,1786909,25,Woman
115,735313,DepthScenes,duration_manipulation_targetAtFixation,jsons/VE83_randls_7.json,http://54.235.29.9/FacialAge/BNav_EC2/DepthDuration/v2_depth_duration_MTurk/v2_DepthDuration_HTML.html#4,4,1280,1024,1280,1024,8-29-2023,13-18-45,116,depth_duration_stimuli/001170_2014-06-17_15-43-44_260595134347_rgbf000096-resize_6/001170_2014-06-17_15-43-44_260595134347_rgbf000096-resize-original.jpg,83,1.1909999999999998,0,7163,84,meters,jsons/VE83_randls_7.json,1079100,1786909,25,Woman
116,735313,DepthScenes,duration_manipulation_targetAtFixation,jsons/VE83_randls_7.json,http://54.235.29.9/FacialAge/BNav_EC2/DepthDuration/v2_depth_duration_MTurk/v2_DepthDuration_HTML.html#4,4,1280,875,1280,1024,8-29-2023,13-18-45,117,depth_duration_stimuli/001055_2014-06-08_18-45-35_260595134347_rgbf000111-resize_4/001055_2014-06-08_18-45-35_260595134347_rgbf000111-resize_4-target.png,83,2.4290000000000003,95,8168,82,meters,jsons/VE83_randls_7.json,1079100,1786909,25,Woman
117,735313,DepthScenes,duration_manipulation_targetAtFixation,jsons/VE83_randls_7.json,http://54.235.29.9/FacialAge/BNav_EC2/DepthDuration/v2_depth_duration_MTurk/v2_DepthDuration_HTML.html#4,4,1280,875,1280,1024,8-29-2023,13-18-45,118,depth_duration_stimuli/000549_2014-06-08_22-10-24_260595134347_rgbf000247-resize_3/000549_2014-06-08_22-10-24_260595134347_rgbf000247-resize_3-target.png,83,1.841,99,4282,82,meters,jsons/VE83_randls_7.json,1079100,1786909,25,Woman
118,735313,DepthScenes,duration_manipulation_targetAtFixation,jsons/VE83_randls_7.json,http://54.235.29.9/FacialAge/BNav_EC2/DepthDuration/v2_depth_duration_MTurk/v2_DepthDuration_HTML.html#4,4,1280,875,1280,1024,8-29-2023,13-18-45,119,depth_duration_stimuli/002725_2014-06-22_11-47-51_094959634447_rgbf000070-resize_1/002725_2014-06-22_11-47-51_094959634447_rgbf000070-resize_1-target.png,83,2.195,81,9239,84,meters,jsons/VE83_randls_7.json,1079100,1786909,25,Woman
119,735313,DepthScenes,duration_manipulation_targetAtFixation,jsons/VE83_randls_7.json,http://54.235.29.9/FacialAge/BNav_EC2/DepthDuration/v2_depth_duration_MTurk/v2_DepthDuration_HTML.html#4,4,1280,875,1280,1024,8-29-2023,13-18-45,120,depth_duration_stimuli/002344_2014-06-28_20-06-29_260595134347_rgbf000030-resize_1/002344_2014-06-28_20-06-29_260595134347_rgbf000030-resize_1-target.png,83,1.5795,0,3424,82,meters,jsons/VE83_randls_7.json,1079100,1786909,25,Woman
120,735313,DepthScenes,duration_manipulation_targetAtFixation,jsons/VE83_randls_7.json,http://54.235.29.9/FacialAge/BNav_EC2/DepthDuration/v2_depth_duration_MTurk/v2_DepthDuration_HTML.html#4,4,1280,875,1280,1024,8-29-2023,13-18-45,121,depth_duration_stimuli/000682_2014-06-08_23-14-58_260595134347_rgbf000041-resize_5/000682_2014-06-08_23-14-58_260595134347_rgbf000041-resize_5-target.png,83,2.7239999999999998,94,8418,84,meters,jsons/VE83_randls_7.json,1079100,1786909,25,Woman
121,735313,DepthScenes,duration_manipulation_targetAtFixation,jsons/VE83_randls_7.json,http://54.235.29.9/FacialAge/BNav_EC2/DepthDuration/v2_depth_duration_MTurk/v2_DepthDuration_HTML.html#4,4,1280,875,1280,1024,8-29-2023,13-18-45,122,depth_duration_stimuli/001650_2014-06-20_12-09-00_260595134347_rgbf000087-resize_3/001650_2014-06-20_12-09-00_260595134347_rgbf000087-resize_3-target.png,83,1.9505,0,3228,84,meters,jsons/VE83_randls_7.json,1079100,1786909,25,Woman
122,735313,DepthScenes,duration_manipulation_targetAtFixation,jsons/VE83_randls_7.json,http://54.235.29.9/FacialAge/BNav_EC2/DepthDuration/v2_depth_duration_MTurk/v2_DepthDuration_HTML.html#4,4,1280,875,1280,1024,8-29-2023,13-18-45,123,depth_duration_stimuli/002057_2014-06-24_21-00-13_260595134347_rgbf000120-resize_1/002057_2014-06-24_21-00-13_260595134347_rgbf000120-resize_1-target.png,83,2.967,92,5802,84,meters,jsons/VE83_randls_7.json,1079100,1786909,25,Woman
123,735313,DepthScenes,duration_manipulation_targetAtFixation,jsons/VE83_randls_7.json,http://54.235.29.9/FacialAge/BNav_EC2/DepthDuration/v2_depth_duration_MTurk/v2_DepthDuration_HTML.html#4,4,1280,875,1280,1024,8-29-2023,13-18-45,124,depth_duration_stimuli/000709_2014-06-08_13-51-55_260595134347_rgbf000068-resize_3/000709_2014-06-08_13-51-55_260595134347_rgbf000068-resize_3-target.png,83,1.8030000000000002,0,4698,82,meters,jsons/VE83_randls_7.json,1079100,1786909,25,Woman
124,735313,DepthScenes,duration_manipulation_targetAtFixation,jsons/VE83_randls_7.json,http://54.235.29.9/FacialAge/BNav_EC2/DepthDuration/v2_depth_duration_MTurk/v2_DepthDuration_HTML.html#4,4,1280,875,1280,1024,8-29-2023,13-18-45,125,depth_duration_stimuli/001164_2014-06-17_15-35-46_260595134347_rgbf000085-resize_3/001164_2014-06-17_15-35-46_260595134347_rgbf000085-resize_3-target.png,83,2.354,95,4405,83,meters,jsons/VE83_randls_7.json,1079100,1786909,25,Woman
125,735313,DepthScenes,duration_manipulation_targetAtFixation,jsons/VE83_randls_7.json,http://54.235.29.9/FacialAge/BNav_EC2/DepthDuration/v2_depth_duration_MTurk/v2_DepthDuration_HTML.html#4,4,1280,875,1280,1024,8-29-2023,13-18-45,126,depth_duration_stimuli/001136_2014-06-17_15-19-41_260595134347_rgbf000076-resize_3/001136_2014-06-17_15-19-41_260595134347_rgbf000076-resize_3-target.png,83,1.8655,0,3111,81,meters,jsons/VE83_randls_7.json,1079100,1786909,25,Woman
126,735313,DepthScenes,duration_manipulation_targetAtFixation,jsons/VE83_randls_7.json,http://54.235.29.9/FacialAge/BNav_EC2/DepthDuration/v2_depth_duration_MTurk/v2_DepthDuration_HTML.html#4,4,1280,875,1280,1024,8-29-2023,13-18-45,127,depth_duration_stimuli/001110_2014-06-15_17-25-28_260595134347_rgbf000150-resize_1/001110_2014-06-15_17-25-28_260595134347_rgbf000150-resize_1-target.png,83,1.7115,91,6390,83,meters,jsons/VE83_randls_7.json,1079100,1786909,25,Woman
127,735313,DepthScenes,duration_manipulation_targetAtFixation,jsons/VE83_randls_7.json,http://54.235.29.9/FacialAge/BNav_EC2/DepthDuration/v2_depth_duration_MTurk/v2_DepthDuration_HTML.html#4,4,1280,875,1280,1024,8-29-2023,13-18-45,128,depth_duration_stimuli/000927_2014-06-09_16-32-30_260595134347_rgbf000123-resize_3/000927_2014-06-09_16-32-30_260595134347_rgbf000123-resize_3-target.png,83,2.6785,93,4419,83,meters,jsons/VE83_randls_7.json,1079100,1786909,25,Woman
128,735313,DepthScenes,duration_manipulation_targetAtFixation,jsons/VE83_randls_7.json,http://54.235.29.9/FacialAge/BNav_EC2/DepthDuration/v2_depth_duration_MTurk/v2_DepthDuration_HTML.html#4,4,1280,875,1280,1024,8-29-2023,13-18-45,129,depth_duration_stimuli/001570_2014-06-20_17-21-09_260595134347_rgbf000135-resize_4/001570_2014-06-20_17-21-09_260595134347_rgbf000135-resize_4-target.png,83,4.467,99,4634,83,meters,jsons/VE83_randls_7.json,1079100,1786909,25,Woman
129,735313,DepthScenes,duration_manipulation_targetAtFixation,jsons/VE83_randls_7.json,http://54.235.29.9/FacialAge/BNav_EC2/DepthDuration/v2_depth_duration_MTurk/v2_DepthDuration_HTML.html#4,4,1280,875,1280,1024,8-29-2023,13-18-45,130,depth_duration_stimuli/001392_2014-06-19_16-07-59_260595134347_rgbf000046-resize_1/001392_2014-06-19_16-07-59_260595134347_rgbf000046-resize_1-target.png,83,4.135,0,3467,84,meters,jsons/VE83_randls_7.json,1079100,1786909,25,Woman
130,735313,DepthScenes,duration_manipulation_targetAtFixation,jsons/VE83_randls_7.json,http://54.235.29.9/FacialAge/BNav_EC2/DepthDuration/v2_depth_duration_MTurk/v2_DepthDuration_HTML.html#4,4,1280,875,1280,1024,8-29-2023,13-18-45,131,depth_duration_stimuli/002663_2014-06-13_15-50-26_094959634447_rgbf000075-resize_1/002663_2014-06-13_15-50-26_094959634447_rgbf000075-resize_1-target.png,83,4.7495,98,5418,83,meters,jsons/VE83_randls_7.json,1079100,1786909,25,Woman
131,735313,DepthScenes,duration_manipulation_targetAtFixation,jsons/VE83_randls_7.json,http://54.235.29.9/FacialAge/BNav_EC2/DepthDuration/v2_depth_duration_MTurk/v2_DepthDuration_HTML.html#4,4,1280,875,1280,1024,8-29-2023,13-18-45,132,depth_duration_stimuli/000409_2014-06-04_19-23-33_260595134347_rgbf000067-resize_0/000409_2014-06-04_19-23-33_260595134347_rgbf000067-resize_0-target.png,83,3.7335,0,3523,83,meters,jsons/VE83_randls_7.json,1079100,1786909,25,Woman
132,735313,DepthScenes,duration_manipulation_targetAtFixation,jsons/VE83_randls_7.json,http://54.235.29.9/FacialAge/BNav_EC2/DepthDuration/v2_depth_duration_MTurk/v2_DepthDuration_HTML.html#4,4,1280,875,1280,1024,8-29-2023,13-18-45,133,depth_duration_stimuli/001066_2014-06-08_22-03-20_260595134347_rgbf000066-resize_4/001066_2014-06-08_22-03-20_260595134347_rgbf000066-resize_4-target.png,83,4.2330000000000005,95,7169,84,meters,jsons/VE83_randls_7.json,1079100,1786909,25,Woman
133,735313,DepthScenes,duration_manipulation_targetAtFixation,jsons/VE83_randls_7.json,http://54.235.29.9/FacialAge/BNav_EC2/DepthDuration/v2_depth_duration_MTurk/v2_DepthDuration_HTML.html#4,4,1280,875,1280,1024,8-29-2023,13-18-45,134,depth_duration_stimuli/000742_2014-06-08_18-48-09_260595134347_rgbf000164-resize_4/000742_2014-06-08_18-48-09_260595134347_rgbf000164-resize_4-target.png,83,4.632,0,3635,82,meters,jsons/VE83_randls_7.json,1079100,1786909,25,Woman
134,735313,DepthScenes,duration_manipulation_targetAtFixation,jsons/VE83_randls_7.json,http://54.235.29.9/FacialAge/BNav_EC2/DepthDuration/v2_depth_duration_MTurk/v2_DepthDuration_HTML.html#4,4,1280,875,1280,1024,8-29-2023,13-18-45,135,depth_duration_stimuli/002072_2014-06-24_21-48-06_260595134347_rgbf000115-resize_0/002072_2014-06-24_21-48-06_260595134347_rgbf000115-resize-original.jpg,83,4.702,0,3588,83,meters,jsons/VE83_randls_7.json,1079100,1786909,25,Woman
135,735313,DepthScenes,duration_manipulation_targetAtFixation,jsons/VE83_randls_7.json,http://54.235.29.9/FacialAge/BNav_EC2/DepthDuration/v2_depth_duration_MTurk/v2_DepthDuration_HTML.html#4,4,1280,875,1280,1024,8-29-2023,13-18-45,136,depth_duration_stimuli/001150_2014-06-17_15-27-34_260595134347_rgbf000108-resize_2/001150_2014-06-17_15-27-34_260595134347_rgbf000108-resize_2-target.png,83,4.0325,87,5730,84,meters,jsons/VE83_randls_7.json,1079100,1786909,25,Woman
136,735313,DepthScenes,duration_manipulation_targetAtFixation,jsons/VE83_randls_7.json,http://54.235.29.9/FacialAge/BNav_EC2/DepthDuration/v2_depth_duration_MTurk/v2_DepthDuration_HTML.html#4,4,1280,875,1280,1024,8-29-2023,13-18-45,137,depth_duration_stimuli/000665_2014-06-09_20-42-35_260595134347_rgbf000110-resize_1/000665_2014-06-09_20-42-35_260595134347_rgbf000110-resize_1-target.png,83,3.057,0,3244,84,meters,jsons/VE83_randls_7.json,1079100,1786909,25,Woman
137,735313,DepthScenes,duration_manipulation_targetAtFixation,jsons/VE83_randls_7.json,http://54.235.29.9/FacialAge/BNav_EC2/DepthDuration/v2_depth_duration_MTurk/v2_DepthDuration_HTML.html#4,4,1280,875,1280,1024,8-29-2023,13-18-45,138,depth_duration_stimuli/000773_2014-06-08_22-24-54_260595134347_rgbf000093-resize_1/000773_2014-06-08_22-24-54_260595134347_rgbf000093-resize_1-target.png,83,4.973,89,7321,84,meters,jsons/VE83_randls_7.json,1079100,1786909,25,Woman
138,735313,DepthScenes,duration_manipulation_targetAtFixation,jsons/VE83_randls_7.json,http://54.235.29.9/FacialAge/BNav_EC2/DepthDuration/v2_depth_duration_MTurk/v2_DepthDuration_HTML.html#4,4,1280,875,1280,1024,8-29-2023,13-18-45,139,depth_duration_stimuli/002414_2014-06-28_20-24-58_260595134347_rgbf000067-resize_4/002414_2014-06-28_20-24-58_260595134347_rgbf000067-resize_4-target.png,83,4.363,60,5189,84,meters,jsons/VE83_randls_7.json,1079100,1786909,25,Woman
139,735313,DepthScenes,duration_manipulation_targetAtFixation,jsons/VE83_randls_7.json,http://54.235.29.9/FacialAge/BNav_EC2/DepthDuration/v2_depth_duration_MTurk/v2_DepthDuration_HTML.html#4,4,1280,875,1280,1024,8-29-2023,13-18-45,140,depth_duration_stimuli/000506_2014-06-08_23-21-00_260595134347_rgbf000070-resize_7/000506_2014-06-08_23-21-00_260595134347_rgbf000070-resize_7-target.png,83,4.0585,83,7781,84,meters,jsons/VE83_randls_7.json,1079100,1786909,25,Woman
140,735313,DepthScenes,duration_manipulation_targetAtFixation,jsons/VE83_randls_7.json,http://54.235.29.9/FacialAge/BNav_EC2/DepthDuration/v2_depth_duration_MTurk/v2_DepthDuration_HTML.html#4,4,1280,875,1280,1024,8-29-2023,13-18-45,141,depth_duration_stimuli/003079_2014-06-15_15-18-20_094959634447_rgbf000152-resize_8/003079_2014-06-15_15-18-20_094959634447_rgbf000152-resize_8-target.png,83,2.8775,92,6948,83,meters,jsons/VE83_randls_7.json,1079100,1786909,25,Woman
141,735313,DepthScenes,duration_manipulation_targetAtFixation,jsons/VE83_randls_7.json,http://54.235.29.9/FacialAge/BNav_EC2/DepthDuration/v2_depth_duration_MTurk/v2_DepthDuration_HTML.html#4,4,1280,875,1280,1024,8-29-2023,13-18-45,142,depth_duration_stimuli/001555_2014-06-20_17-12-10_260595134347_rgbf000065-resize_4/001555_2014-06-20_17-12-10_260595134347_rgbf000065-resize_4-target.png,83,1.633,91,5011,84,meters,jsons/VE83_randls_7.json,1079100,1786909,25,Woman
142,735313,DepthScenes,duration_manipulation_targetAtFixation,jsons/VE83_randls_7.json,http://54.235.29.9/FacialAge/BNav_EC2/DepthDuration/v2_depth_duration_MTurk/v2_DepthDuration_HTML.html#4,4,1280,875,1280,1024,8-29-2023,13-18-45,143,depth_duration_stimuli/000103_2014-05-14_22-01-17_260595134347_rgbf000152-resize_5/000103_2014-05-14_22-01-17_260595134347_rgbf000152-resize_5-target.png,83,1.993,0,3489,84,meters,jsons/VE83_randls_7.json,1079100,1786909,25,Woman
143,735313,DepthScenes,duration_manipulation_targetAtFixation,jsons/VE83_randls_7.json,http://54.235.29.9/FacialAge/BNav_EC2/DepthDuration/v2_depth_duration_MTurk/v2_DepthDuration_HTML.html#4,4,1280,875,1280,1024,8-29-2023,13-18-45,144,depth_duration_stimuli/002509_2014-06-24_13-19-22_094959634447_rgbf000077-resize_0/002509_2014-06-24_13-19-22_094959634447_rgbf000077-resize_0-target.png,83,1.3065,93,4347,84,meters,jsons/VE83_randls_7.json,1079100,1786909,25,Woman
144,735313,DepthScenes,duration_manipulation_targetAtFixation,jsons/VE83_randls_7.json,http://54.235.29.9/FacialAge/BNav_EC2/DepthDuration/v2_depth_duration_MTurk/v2_DepthDuration_HTML.html#4,4,1280,875,1280,1024,8-29-2023,13-18-45,145,depth_duration_stimuli/003338_2014-05-20_11-01-23_094959634447_rgbf000051-resize_6/003338_2014-05-20_11-01-23_094959634447_rgbf000051-resize_6-target.png,83,1.693,0,3259,84,meters,jsons/VE83_randls_7.json,1079100,1786909,25,Woman
145,735313,DepthScenes,duration_manipulation_targetAtFixation,jsons/VE83_randls_7.json,http://54.235.29.9/FacialAge/BNav_EC2/DepthDuration/v2_depth_duration_MTurk/v2_DepthDuration_HTML.html#4,4,1280,875,1280,1024,8-29-2023,13-18-45,146,depth_duration_stimuli/001498_2014-06-19_17-45-14_260595134347_rgbf000129-resize_4/001498_2014-06-19_17-45-14_260595134347_rgbf000129-resize-original.jpg,83,1.4075,0,3893,83,meters,jsons/VE83_randls_7.json,1079100,1786909,25,Woman
146,735313,DepthScenes,duration_manipulation_targetAtFixation,jsons/VE83_randls_7.json,http://54.235.29.9/FacialAge/BNav_EC2/DepthDuration/v2_depth_duration_MTurk/v2_DepthDuration_HTML.html#4,4,1280,875,1280,1024,8-29-2023,13-18-45,147,depth_duration_stimuli/000917_2014-06-09_22-45-29_260595134347_rgbf000149-resize_3/000917_2014-06-09_22-45-29_260595134347_rgbf000149-resize_3-target.png,83,4.1865,97,5488,84,meters,jsons/VE83_randls_7.json,1079100,1786909,25,Woman
147,735313,DepthScenes,duration_manipulation_targetAtFixation,jsons/VE83_randls_7.json,http://54.235.29.9/FacialAge/BNav_EC2/DepthDuration/v2_depth_duration_MTurk/v2_DepthDuration_HTML.html#4,4,1280,875,1280,1024,8-29-2023,13-18-45,148,depth_duration_stimuli/002323_2014-06-28_20-01-54_260595134347_rgbf000051-resize_4/002323_2014-06-28_20-01-54_260595134347_rgbf000051-resize_4-target.png,83,3.7310000000000003,0,3660,83,meters,jsons/VE83_randls_7.json,1079100,1786909,25,Woman
148,735313,DepthScenes,duration_manipulation_targetAtFixation,jsons/VE83_randls_7.json,http://54.235.29.9/FacialAge/BNav_EC2/DepthDuration/v2_depth_duration_MTurk/v2_DepthDuration_HTML.html#4,4,1280,875,1280,1024,8-29-2023,13-18-45,149,depth_duration_stimuli/002375_2014-06-28_20-13-44_260595134347_rgbf000032-resize_1/002375_2014-06-28_20-13-44_260595134347_rgbf000032-resize_1-target.png,83,4.0175,90,6602,84,meters,jsons/VE83_randls_7.json,1079100,1786909,25,Woman
149,735313,DepthScenes,duration_manipulation_targetAtFixation,jsons/VE83_randls_7.json,http://54.235.29.9/FacialAge/BNav_EC2/DepthDuration/v2_depth_duration_MTurk/v2_DepthDuration_HTML.html#4,4,1280,875,1280,1024,8-29-2023,13-18-45,150,depth_duration_stimuli/002657_2014-06-13_15-29-54_094959634447_rgbf000150-resize_1/002657_2014-06-13_15-29-54_094959634447_rgbf000150-resize_1-target.png,83,4.919,0,3483,84,meters,jsons/VE83_randls_7.json,1079100,1786909,25,Woman
150,735313,DepthScenes,duration_manipulation_targetAtFixation,jsons/VE83_randls_7.json,http://54.235.29.9/FacialAge/BNav_EC2/DepthDuration/v2_depth_duration_MTurk/v2_DepthDuration_HTML.html#4,4,1280,875,1280,1024,8-29-2023,13-18-45,151,depth_duration_stimuli/001417_2014-06-19_16-25-36_260595134347_rgbf000115-resize_5/001417_2014-06-19_16-25-36_260595134347_rgbf000115-resize_5-target.png,83,4.6255,91,8702,83,meters,jsons/VE83_randls_7.json,1079100,1786909,25,Woman
151,735313,DepthScenes,duration_manipulation_targetAtFixation,jsons/VE83_randls_7.json,http://54.235.29.9/FacialAge/BNav_EC2/DepthDuration/v2_depth_duration_MTurk/v2_DepthDuration_HTML.html#4,4,1280,875,1280,1024,8-29-2023,13-18-45,152,depth_duration_stimuli/003081_2014-06-15_15-19-16_094959634447_rgbf000150-resize_1/003081_2014-06-15_15-19-16_094959634447_rgbf000150-resize_1-target.png,83,3.9125,0,3128,82,meters,jsons/VE83_randls_7.json,1079100,1786909,25,Woman
152,735313,DepthScenes,duration_manipulation_targetAtFixation,jsons/VE83_randls_7.json,http://54.235.29.9/FacialAge/BNav_EC2/DepthDuration/v2_depth_duration_MTurk/v2_DepthDuration_HTML.html#4,4,1280,875,1280,1024,8-29-2023,13-18-45,153,depth_duration_stimuli/002905_2014-06-03_18-04-43_094959634447_rgbf000151-resize_2/002905_2014-06-03_18-04-43_094959634447_rgbf000151-resize_2-target.png,83,2.0295,80,6708,83,meters,jsons/VE83_randls_7.json,1079100,1786909,25,Woman
153,735313,DepthScenes,duration_manipulation_targetAtFixation,jsons/VE83_randls_7.json,http://54.235.29.9/FacialAge/BNav_EC2/DepthDuration/v2_depth_duration_MTurk/v2_DepthDuration_HTML.html#4,4,1280,875,1280,1024,8-29-2023,13-18-45,154,depth_duration_stimuli/003423_2014-05-21_10-23-26_094959634447_rgbf002665-resize_2/003423_2014-05-21_10-23-26_094959634447_rgbf002665-resize_2-target.png,83,3.2575,76,4508,84,meters,jsons/VE83_randls_7.json,1079100,1786909,25,Woman
154,735313,DepthScenes,duration_manipulation_targetAtFixation,jsons/VE83_randls_7.json,http://54.235.29.9/FacialAge/BNav_EC2/DepthDuration/v2_depth_duration_MTurk/v2_DepthDuration_HTML.html#4,4,1280,875,1280,1024,8-29-2023,13-18-45,155,depth_duration_stimuli/000469_2014-06-09_19-42-10_260595134347_rgbf000081-resize_1/000469_2014-06-09_19-42-10_260595134347_rgbf000081-resize_1-target.png,83,1.652,82,5411,83,meters,jsons/VE83_randls_7.json,1079100,1786909,25,Woman
155,735313,DepthScenes,duration_manipulation_targetAtFixation,jsons/VE83_randls_7.json,http://54.235.29.9/FacialAge/BNav_EC2/DepthDuration/v2_depth_duration_MTurk/v2_DepthDuration_HTML.html#4,4,1280,875,1280,1024,8-29-2023,13-18-45,156,depth_duration_stimuli/000483_2014-06-09_20-41-45_260595134347_rgbf000116-resize_4/000483_2014-06-09_20-41-45_260595134347_rgbf000116-resize_4-target.png,83,1.337,83,4570,84,meters,jsons/VE83_randls_7.json,1079100,1786909,25,Woman
156,735313,DepthScenes,duration_manipulation_targetAtFixation,jsons/VE83_randls_7.json,http://54.235.29.9/FacialAge/BNav_EC2/DepthDuration/v2_depth_duration_MTurk/v2_DepthDuration_HTML.html#4,4,1280,875,1280,1024,8-29-2023,13-18-45,157,depth_duration_stimuli/000493_2014-06-09_21-01-18_260595134347_rgbf000196-resize_3/000493_2014-06-09_21-01-18_260595134347_rgbf000196-resize_3-target.png,83,3.44,86,4627,83,meters,jsons/VE83_randls_7.json,1079100,1786909,25,Woman
157,735313,DepthScenes,duration_manipulation_targetAtFixation,jsons/VE83_randls_7.json,http://54.235.29.9/FacialAge/BNav_EC2/DepthDuration/v2_depth_duration_MTurk/v2_DepthDuration_HTML.html#4,4,1280,875,1280,1024,8-29-2023,13-18-45,158,depth_duration_stimuli/000191_2014-05-12_17-07-38_260595134347_rgbf000199-resize_0/000191_2014-05-12_17-07-38_260595134347_rgbf000199-resize_0-target.png,83,3.7995,79,4573,84,meters,jsons/VE83_randls_7.json,1079100,1786909,25,Woman
158,735313,DepthScenes,duration_manipulation_targetAtFixation,jsons/VE83_randls_7.json,http://54.235.29.9/FacialAge/BNav_EC2/DepthDuration/v2_depth_duration_MTurk/v2_DepthDuration_HTML.html#4,4,1280,875,1280,1024,8-29-2023,13-18-45,159,depth_duration_stimuli/003292_2014-05-14_21-53-49_094959634447_rgbf000100-resize_2/003292_2014-05-14_21-53-49_094959634447_rgbf000100-resize_2-target.png,83,3.4815,83,4631,82,meters,jsons/VE83_randls_7.json,1079100,1786909,25,Woman
159,735313,DepthScenes,duration_manipulation_targetAtFixation,jsons/VE83_randls_7.json,http://54.235.29.9/FacialAge/BNav_EC2/DepthDuration/v2_depth_duration_MTurk/v2_DepthDuration_HTML.html#4,4,1280,875,1280,1024,8-29-2023,13-18-45,160,depth_duration_stimuli/002639_2014-06-24_14-51-37_094959634447_rgbf000074-resize_4/002639_2014-06-24_14-51-37_094959634447_rgbf000074-resize_4-target.png,83,4.0375,86,5771,84,meters,jsons/VE83_randls_7.json,1079100,1786909,25,Woman
160,735313,DepthScenes,duration_manipulation_targetAtFixation,jsons/VE83_randls_7.json,http://54.235.29.9/FacialAge/BNav_EC2/DepthDuration/v2_depth_duration_MTurk/v2_DepthDuration_HTML.html#4,4,1280,875,1280,1024,8-29-2023,13-18-45,161,depth_duration_stimuli/003070_2014-06-15_14-58-27_094959634447_rgbf000150-resize_3/003070_2014-06-15_14-58-27_094959634447_rgbf000150-resize_3-target.png,83,2.9415,92,5420,83,meters,jsons/VE83_randls_7.json,1079100,1786909,25,Woman
161,735313,DepthScenes,duration_manipulation_targetAtFixation,jsons/VE83_randls_7.json,http://54.235.29.9/FacialAge/BNav_EC2/DepthDuration/v2_depth_duration_MTurk/v2_DepthDuration_HTML.html#4,4,1280,875,1280,1024,8-29-2023,13-18-45,162,depth_duration_stimuli/000943_2014-06-09_19-31-07_260595134347_rgbf000128-resize_1/000943_2014-06-09_19-31-07_260595134347_rgbf000128-resize_1-target.png,83,1.9765,0,3308,83,meters,jsons/VE83_randls_7.json,1079100,1786909,25,Woman
162,735313,DepthScenes,duration_manipulation_targetAtFixation,jsons/VE83_randls_7.json,http://54.235.29.9/FacialAge/BNav_EC2/DepthDuration/v2_depth_duration_MTurk/v2_DepthDuration_HTML.html#4,4,1280,875,1280,1024,8-29-2023,13-18-45,163,depth_duration_stimuli/001199_2014-06-17_16-03-48_260595134347_rgbf000077-resize_0/001199_2014-06-17_16-03-48_260595134347_rgbf000077-resize_0-target.png,83,3.4375,95,4665,84,meters,jsons/VE83_randls_7.json,1079100,1786909,25,Woman
163,735313,DepthScenes,duration_manipulation_targetAtFixation,jsons/VE83_randls_7.json,http://54.235.29.9/FacialAge/BNav_EC2/DepthDuration/v2_depth_duration_MTurk/v2_DepthDuration_HTML.html#4,4,1280,875,1280,1024,8-29-2023,13-18-45,164,depth_duration_stimuli/000502_2014-06-08_23-02-32_260595134347_rgbf000063-resize_4/000502_2014-06-08_23-02-32_260595134347_rgbf000063-resize_4-target.png,83,2.431,0,3940,83,meters,jsons/VE83_randls_7.json,1079100,1786909,25,Woman
