,subjID,experimentName,versionName,sequenceName,url,selected_row,windowWidth,windowHeight,screenWidth,screenHeight,startDate,startTime,trial,stimulus,duration,actual_depth,depth_estimate,trial_RT,log_sceneDuration,unitSelection,seq_filepath,experimentTime,totalTime,age,gender
0,735548,DepthScenes,duration_manipulation_targetAtFixation,jsons/v1_VE1000_randls_38.json,http://54.235.29.9/FacialAge/BNav_EC2/DepthDuration/v2_depth_duration_MTurk/v2_DepthDuration_HTML.html#151,151,1366,768,1366,768,8-22-2022,8-0-2,1,depth_duration_stimuli/001199_2014-06-17_16-03-48_260595134347_rgbf000077-resize_0/001199_2014-06-17_16-03-48_260595134347_rgbf000077-resize_0-target.png,1000,3.4375,4,5125,940,meters,jsons/v1_VE1000_randls_38.json,1333957,1603351,30,Woman
1,735548,DepthScenes,duration_manipulation_targetAtFixation,jsons/v1_VE1000_randls_38.json,http://54.235.29.9/FacialAge/BNav_EC2/DepthDuration/v2_depth_duration_MTurk/v2_DepthDuration_HTML.html#151,151,1366,768,1366,768,8-22-2022,8-0-2,2,depth_duration_stimuli/000502_2014-06-08_23-02-32_260595134347_rgbf000063-resize_4/000502_2014-06-08_23-02-32_260595134347_rgbf000063-resize_4-target.png,1000,2.431,3,8375,936,meters,jsons/v1_VE1000_randls_38.json,1333957,1603351,30,Woman
2,735548,DepthScenes,duration_manipulation_targetAtFixation,jsons/v1_VE1000_randls_38.json,http://54.235.29.9/FacialAge/BNav_EC2/DepthDuration/v2_depth_duration_MTurk/v2_DepthDuration_HTML.html#151,151,1366,768,1366,768,8-22-2022,8-0-2,3,depth_duration_stimuli/002279_2014-06-28_18-55-32_260595134347_rgbf000040-resize_5/002279_2014-06-28_18-55-32_260595134347_rgbf000040-resize_5-target.png,1000,1.5043333333333,5,6508,1005,meters,jsons/v1_VE1000_randls_38.json,1333957,1603351,30,Woman
3,735548,DepthScenes,duration_manipulation_targetAtFixation,jsons/v1_VE1000_randls_38.json,http://54.235.29.9/FacialAge/BNav_EC2/DepthDuration/v2_depth_duration_MTurk/v2_DepthDuration_HTML.html#151,151,1366,768,1366,768,8-22-2022,8-0-2,4,depth_duration_stimuli/000635_2014-06-08_16-38-42_260595134347_rgbf000106-resize_1/000635_2014-06-08_16-38-42_260595134347_rgbf000106-resize_1-target.png,1000,2.074,4,6475,999,meters,jsons/v1_VE1000_randls_38.json,1333957,1603351,30,Woman
4,735548,DepthScenes,duration_manipulation_targetAtFixation,jsons/v1_VE1000_randls_38.json,http://54.235.29.9/FacialAge/BNav_EC2/DepthDuration/v2_depth_duration_MTurk/v2_DepthDuration_HTML.html#151,151,1366,768,1366,768,8-22-2022,8-0-2,5,depth_duration_stimuli/001555_2014-06-20_17-12-10_260595134347_rgbf000065-resize_4/001555_2014-06-20_17-12-10_260595134347_rgbf000065-resize_4-target.png,1000,1.633,3,29578,981,meters,jsons/v1_VE1000_randls_38.json,1333957,1603351,30,Woman
5,735548,DepthScenes,duration_manipulation_targetAtFixation,jsons/v1_VE1000_randls_38.json,http://54.235.29.9/FacialAge/BNav_EC2/DepthDuration/v2_depth_duration_MTurk/v2_DepthDuration_HTML.html#151,151,1366,768,1366,768,8-22-2022,8-0-2,6,depth_duration_stimuli/000103_2014-05-14_22-01-17_260595134347_rgbf000152-resize_5/000103_2014-05-14_22-01-17_260595134347_rgbf000152-resize_5-target.png,1000,1.993,3,6368,1056,meters,jsons/v1_VE1000_randls_38.json,1333957,1603351,30,Woman
6,735548,DepthScenes,duration_manipulation_targetAtFixation,jsons/v1_VE1000_randls_38.json,http://54.235.29.9/FacialAge/BNav_EC2/DepthDuration/v2_depth_duration_MTurk/v2_DepthDuration_HTML.html#151,151,1366,768,1366,768,8-22-2022,8-0-2,7,depth_duration_stimuli/001011_2014-06-08_23-18-54_260595134347_rgbf000044-resize_4/001011_2014-06-08_23-18-54_260595134347_rgbf000044-resize_4-target.png,1000,2.4730000000000003,6,7130,1098,meters,jsons/v1_VE1000_randls_38.json,1333957,1603351,30,Woman
7,735548,DepthScenes,duration_manipulation_targetAtFixation,jsons/v1_VE1000_randls_38.json,http://54.235.29.9/FacialAge/BNav_EC2/DepthDuration/v2_depth_duration_MTurk/v2_DepthDuration_HTML.html#151,151,1366,768,1366,768,8-22-2022,8-0-2,8,depth_duration_stimuli/002875_2014-06-01_15-19-00_094959634447_rgbf000151-resize_1/002875_2014-06-01_15-19-00_094959634447_rgbf000151-resize_1-target.png,1000,1.9675,3,5880,980,meters,jsons/v1_VE1000_randls_38.json,1333957,1603351,30,Woman
8,735548,DepthScenes,duration_manipulation_targetAtFixation,jsons/v1_VE1000_randls_38.json,http://54.235.29.9/FacialAge/BNav_EC2/DepthDuration/v2_depth_duration_MTurk/v2_DepthDuration_HTML.html#151,151,1366,768,1366,768,8-22-2022,8-0-2,9,depth_duration_stimuli/001056_2014-06-08_18-46-44_260595134347_rgbf000068-resize_0/001056_2014-06-08_18-46-44_260595134347_rgbf000068-resize_0-target.png,1000,2.6625,3,6195,981,meters,jsons/v1_VE1000_randls_38.json,1333957,1603351,30,Woman
9,735548,DepthScenes,duration_manipulation_targetAtFixation,jsons/v1_VE1000_randls_38.json,http://54.235.29.9/FacialAge/BNav_EC2/DepthDuration/v2_depth_duration_MTurk/v2_DepthDuration_HTML.html#151,151,1366,768,1366,768,8-22-2022,8-0-2,10,depth_duration_stimuli/002199_2014-06-28_18-33-56_260595134347_rgbf000074-resize_0/002199_2014-06-28_18-33-56_260595134347_rgbf000074-resize_0-target.png,1000,1.996,5,6306,998,meters,jsons/v1_VE1000_randls_38.json,1333957,1603351,30,Woman
10,735548,DepthScenes,duration_manipulation_targetAtFixation,jsons/v1_VE1000_randls_38.json,http://54.235.29.9/FacialAge/BNav_EC2/DepthDuration/v2_depth_duration_MTurk/v2_DepthDuration_HTML.html#151,151,1366,768,1366,768,8-22-2022,8-0-2,11,depth_duration_stimuli/003621_2014-05-23_18-06-08_094959634447_rgbf000101-resize_1/003621_2014-05-23_18-06-08_094959634447_rgbf000101-resize_1-target.png,1000,3.9835,3,5915,956,meters,jsons/v1_VE1000_randls_38.json,1333957,1603351,30,Woman
11,735548,DepthScenes,duration_manipulation_targetAtFixation,jsons/v1_VE1000_randls_38.json,http://54.235.29.9/FacialAge/BNav_EC2/DepthDuration/v2_depth_duration_MTurk/v2_DepthDuration_HTML.html#151,151,1366,768,1366,768,8-22-2022,8-0-2,12,depth_duration_stimuli/001584_2014-06-20_11-07-43_260595134347_rgbf000002-resize_1/001584_2014-06-20_11-07-43_260595134347_rgbf000002-resize_1-target.png,1000,3.53,3,7296,984,meters,jsons/v1_VE1000_randls_38.json,1333957,1603351,30,Woman
12,735548,DepthScenes,duration_manipulation_targetAtFixation,jsons/v1_VE1000_randls_38.json,http://54.235.29.9/FacialAge/BNav_EC2/DepthDuration/v2_depth_duration_MTurk/v2_DepthDuration_HTML.html#151,151,1366,768,1366,768,8-22-2022,8-0-2,13,depth_duration_stimuli/000569_2014-06-09_22-51-47_260595134347_rgbf000141-resize_3/000569_2014-06-09_22-51-47_260595134347_rgbf000141-resize-original.jpg,1000,4.512,6,5453,830,meters,jsons/v1_VE1000_randls_38.json,1333957,1603351,30,Woman
13,735548,DepthScenes,duration_manipulation_targetAtFixation,jsons/v1_VE1000_randls_38.json,http://54.235.29.9/FacialAge/BNav_EC2/DepthDuration/v2_depth_duration_MTurk/v2_DepthDuration_HTML.html#151,151,1366,768,1366,768,8-22-2022,8-0-2,14,depth_duration_stimuli/000642_2014-06-08_16-59-25_260595134347_rgbf000098-resize_2/000642_2014-06-08_16-59-25_260595134347_rgbf000098-resize_2-target.png,1000,2.8815,3,6770,1003,meters,jsons/v1_VE1000_randls_38.json,1333957,1603351,30,Woman
14,735548,DepthScenes,duration_manipulation_targetAtFixation,jsons/v1_VE1000_randls_38.json,http://54.235.29.9/FacialAge/BNav_EC2/DepthDuration/v2_depth_duration_MTurk/v2_DepthDuration_HTML.html#151,151,1366,768,1366,768,8-22-2022,8-0-2,15,depth_duration_stimuli/002425_2014-06-28_20-27-29_260595134347_rgbf000031-resize_8/002425_2014-06-28_20-27-29_260595134347_rgbf000031-resize_8-target.png,1000,3.8960000000000004,1,8860,999,meters,jsons/v1_VE1000_randls_38.json,1333957,1603351,30,Woman
15,735548,DepthScenes,duration_manipulation_targetAtFixation,jsons/v1_VE1000_randls_38.json,http://54.235.29.9/FacialAge/BNav_EC2/DepthDuration/v2_depth_duration_MTurk/v2_DepthDuration_HTML.html#151,151,1366,768,1366,768,8-22-2022,8-0-2,16,depth_duration_stimuli/001092_2014-06-15_17-34-58_260595134347_rgbf000171-resize_3/001092_2014-06-15_17-34-58_260595134347_rgbf000171-resize_3-target.png,1000,2.6935,2,6240,1015,meters,jsons/v1_VE1000_randls_38.json,1333957,1603351,30,Woman
16,735548,DepthScenes,duration_manipulation_targetAtFixation,jsons/v1_VE1000_randls_38.json,http://54.235.29.9/FacialAge/BNav_EC2/DepthDuration/v2_depth_duration_MTurk/v2_DepthDuration_HTML.html#151,151,1366,768,1366,768,8-22-2022,8-0-2,17,depth_duration_stimuli/002545_2014-06-24_13-38-53_094959634447_rgbf000080-resize_4/002545_2014-06-24_13-38-53_094959634447_rgbf000080-resize_4-target.png,1000,1.9205,3,6868,1061,meters,jsons/v1_VE1000_randls_38.json,1333957,1603351,30,Woman
17,735548,DepthScenes,duration_manipulation_targetAtFixation,jsons/v1_VE1000_randls_38.json,http://54.235.29.9/FacialAge/BNav_EC2/DepthDuration/v2_depth_duration_MTurk/v2_DepthDuration_HTML.html#151,151,1366,768,1366,768,8-22-2022,8-0-2,18,depth_duration_stimuli/001167_2014-06-17_15-38-07_260595134347_rgbf000108-resize_0/001167_2014-06-17_15-38-07_260595134347_rgbf000108-resize_0-target.png,1000,1.8505,5,8083,1002,meters,jsons/v1_VE1000_randls_38.json,1333957,1603351,30,Woman
18,735548,DepthScenes,duration_manipulation_targetAtFixation,jsons/v1_VE1000_randls_38.json,http://54.235.29.9/FacialAge/BNav_EC2/DepthDuration/v2_depth_duration_MTurk/v2_DepthDuration_HTML.html#151,151,1366,768,1366,768,8-22-2022,8-0-2,19,depth_duration_stimuli/003587_2014-05-23_16-48-02_094959634447_rgbf002384-resize_2/003587_2014-05-23_16-48-02_094959634447_rgbf002384-resize_2-target.png,1000,1.357,3,9310,971,meters,jsons/v1_VE1000_randls_38.json,1333957,1603351,30,Woman
19,735548,DepthScenes,duration_manipulation_targetAtFixation,jsons/v1_VE1000_randls_38.json,http://54.235.29.9/FacialAge/BNav_EC2/DepthDuration/v2_depth_duration_MTurk/v2_DepthDuration_HTML.html#151,151,1366,768,1366,768,8-22-2022,8-0-2,20,depth_duration_stimuli/000810_2014-06-08_17-20-01_260595134347_rgbf000105-resize_0/000810_2014-06-08_17-20-01_260595134347_rgbf000105-resize_0-target.png,1000,1.4865,2,6755,995,meters,jsons/v1_VE1000_randls_38.json,1333957,1603351,30,Woman
20,735548,DepthScenes,duration_manipulation_targetAtFixation,jsons/v1_VE1000_randls_38.json,http://54.235.29.9/FacialAge/BNav_EC2/DepthDuration/v2_depth_duration_MTurk/v2_DepthDuration_HTML.html#151,151,1366,768,1366,768,8-22-2022,8-0-2,21,depth_duration_stimuli/001214_2014-06-17_16-13-55_260595134347_rgbf000111-resize_0/001214_2014-06-17_16-13-55_260595134347_rgbf000111-resize_0-target.png,1000,2.6505,3,9418,994,meters,jsons/v1_VE1000_randls_38.json,1333957,1603351,30,Woman
21,735548,DepthScenes,duration_manipulation_targetAtFixation,jsons/v1_VE1000_randls_38.json,http://54.235.29.9/FacialAge/BNav_EC2/DepthDuration/v2_depth_duration_MTurk/v2_DepthDuration_HTML.html#151,151,1366,768,1366,768,8-22-2022,8-0-2,22,depth_duration_stimuli/000522_2014-06-08_13-35-06_260595134347_rgbf000244-resize_1/000522_2014-06-08_13-35-06_260595134347_rgbf000244-resize_1-target.png,1000,2.3715,3,8591,988,meters,jsons/v1_VE1000_randls_38.json,1333957,1603351,30,Woman
22,735548,DepthScenes,duration_manipulation_targetAtFixation,jsons/v1_VE1000_randls_38.json,http://54.235.29.9/FacialAge/BNav_EC2/DepthDuration/v2_depth_duration_MTurk/v2_DepthDuration_HTML.html#151,151,1366,768,1366,768,8-22-2022,8-0-2,23,depth_duration_stimuli/002949_2014-06-26_15-57-42_094959634447_rgbf000079-resize_1/002949_2014-06-26_15-57-42_094959634447_rgbf000079-resize_1-target.png,1000,1.8915,5,6575,1022,meters,jsons/v1_VE1000_randls_38.json,1333957,1603351,30,Woman
23,735548,DepthScenes,duration_manipulation_targetAtFixation,jsons/v1_VE1000_randls_38.json,http://54.235.29.9/FacialAge/BNav_EC2/DepthDuration/v2_depth_duration_MTurk/v2_DepthDuration_HTML.html#151,151,1366,768,1366,768,8-22-2022,8-0-2,24,depth_duration_stimuli/002788_2014-06-22_19-36-03_094959634447_rgbf000088-resize_2/002788_2014-06-22_19-36-03_094959634447_rgbf000088-resize_2-target.png,1000,1.6465,3,8256,953,meters,jsons/v1_VE1000_randls_38.json,1333957,1603351,30,Woman
24,735548,DepthScenes,duration_manipulation_targetAtFixation,jsons/v1_VE1000_randls_38.json,http://54.235.29.9/FacialAge/BNav_EC2/DepthDuration/v2_depth_duration_MTurk/v2_DepthDuration_HTML.html#151,151,1366,768,1366,768,8-22-2022,8-0-2,25,depth_duration_stimuli/000749_2014-06-08_21-55-06_260595134347_rgbf000070-resize_2/000749_2014-06-08_21-55-06_260595134347_rgbf000070-resize_2-target.png,1000,2.331,5,9228,1006,meters,jsons/v1_VE1000_randls_38.json,1333957,1603351,30,Woman
25,735548,DepthScenes,duration_manipulation_targetAtFixation,jsons/v1_VE1000_randls_38.json,http://54.235.29.9/FacialAge/BNav_EC2/DepthDuration/v2_depth_duration_MTurk/v2_DepthDuration_HTML.html#151,151,1366,768,1366,768,8-22-2022,8-0-2,26,depth_duration_stimuli/000493_2014-06-09_21-01-18_260595134347_rgbf000196-resize_3/000493_2014-06-09_21-01-18_260595134347_rgbf000196-resize_3-target.png,1000,3.44,6,9157,999,meters,jsons/v1_VE1000_randls_38.json,1333957,1603351,30,Woman
26,735548,DepthScenes,duration_manipulation_targetAtFixation,jsons/v1_VE1000_randls_38.json,http://54.235.29.9/FacialAge/BNav_EC2/DepthDuration/v2_depth_duration_MTurk/v2_DepthDuration_HTML.html#151,151,1366,768,1366,768,8-22-2022,8-0-2,27,depth_duration_stimuli/000191_2014-05-12_17-07-38_260595134347_rgbf000199-resize_0/000191_2014-05-12_17-07-38_260595134347_rgbf000199-resize_0-target.png,1000,3.7995,6,8515,973,meters,jsons/v1_VE1000_randls_38.json,1333957,1603351,30,Woman
27,735548,DepthScenes,duration_manipulation_targetAtFixation,jsons/v1_VE1000_randls_38.json,http://54.235.29.9/FacialAge/BNav_EC2/DepthDuration/v2_depth_duration_MTurk/v2_DepthDuration_HTML.html#151,151,1366,768,1366,768,8-22-2022,8-0-2,28,depth_duration_stimuli/000447_2014-06-08_16-15-46_260595134347_rgbf000130-resize_1/000447_2014-06-08_16-15-46_260595134347_rgbf000130-resize_1-target.png,1000,4.479,3,9492,995,meters,jsons/v1_VE1000_randls_38.json,1333957,1603351,30,Woman
28,735548,DepthScenes,duration_manipulation_targetAtFixation,jsons/v1_VE1000_randls_38.json,http://54.235.29.9/FacialAge/BNav_EC2/DepthDuration/v2_depth_duration_MTurk/v2_DepthDuration_HTML.html#151,151,1366,768,1366,768,8-22-2022,8-0-2,29,depth_duration_stimuli/001447_2014-06-19_17-00-32_260595134347_rgbf000082-resize_5/001447_2014-06-19_17-00-32_260595134347_rgbf000082-resize_5-target.png,1000,4.13775,3,7235,998,meters,jsons/v1_VE1000_randls_38.json,1333957,1603351,30,Woman
29,735548,DepthScenes,duration_manipulation_targetAtFixation,jsons/v1_VE1000_randls_38.json,http://54.235.29.9/FacialAge/BNav_EC2/DepthDuration/v2_depth_duration_MTurk/v2_DepthDuration_HTML.html#151,151,1366,768,1366,768,8-22-2022,8-0-2,30,depth_duration_stimuli/000375_2014-06-08_11-17-29_260595134347_rgbf000133-resize_2/000375_2014-06-08_11-17-29_260595134347_rgbf000133-resize-original.jpg,1000,4.718,4,7812,1042,meters,jsons/v1_VE1000_randls_38.json,1333957,1603351,30,Woman
30,735548,DepthScenes,duration_manipulation_targetAtFixation,jsons/v1_VE1000_randls_38.json,http://54.235.29.9/FacialAge/BNav_EC2/DepthDuration/v2_depth_duration_MTurk/v2_DepthDuration_HTML.html#151,151,1366,768,1366,768,8-22-2022,8-0-2,31,depth_duration_stimuli/000470_2014-06-09_19-42-40_260595134347_rgbf000094-resize_1/000470_2014-06-09_19-42-40_260595134347_rgbf000094-resize_1-target.png,1000,1.831,3,7493,993,meters,jsons/v1_VE1000_randls_38.json,1333957,1603351,30,Woman
31,735548,DepthScenes,duration_manipulation_targetAtFixation,jsons/v1_VE1000_randls_38.json,http://54.235.29.9/FacialAge/BNav_EC2/DepthDuration/v2_depth_duration_MTurk/v2_DepthDuration_HTML.html#151,151,1366,768,1366,768,8-22-2022,8-0-2,32,depth_duration_stimuli/000109_2014-05-14_23-41-52_260595134347_rgbf000035-resize_9/000109_2014-05-14_23-41-52_260595134347_rgbf000035-resize_9-target.png,1000,1.3545,3,6700,1000,meters,jsons/v1_VE1000_randls_38.json,1333957,1603351,30,Woman
32,735548,DepthScenes,duration_manipulation_targetAtFixation,jsons/v1_VE1000_randls_38.json,http://54.235.29.9/FacialAge/BNav_EC2/DepthDuration/v2_depth_duration_MTurk/v2_DepthDuration_HTML.html#151,151,1366,768,1366,768,8-22-2022,8-0-2,33,depth_duration_stimuli/002964_2014-06-08_17-46-11_094959634447_rgbf000091-resize_4/002964_2014-06-08_17-46-11_094959634447_rgbf000091-resize_4-target.png,1000,1.6909999999999998,5,9883,996,meters,jsons/v1_VE1000_randls_38.json,1333957,1603351,30,Woman
33,735548,DepthScenes,duration_manipulation_targetAtFixation,jsons/v1_VE1000_randls_38.json,http://54.235.29.9/FacialAge/BNav_EC2/DepthDuration/v2_depth_duration_MTurk/v2_DepthDuration_HTML.html#151,151,1366,768,1366,768,8-22-2022,8-0-2,34,depth_duration_stimuli/002136_2014-06-25_21-18-03_260595134347_rgbf000109-resize_3/002136_2014-06-25_21-18-03_260595134347_rgbf000109-resize_3-target.png,1000,1.9569999999999999,5,8215,997,meters,jsons/v1_VE1000_randls_38.json,1333957,1603351,30,Woman
34,735548,DepthScenes,duration_manipulation_targetAtFixation,jsons/v1_VE1000_randls_38.json,http://54.235.29.9/FacialAge/BNav_EC2/DepthDuration/v2_depth_duration_MTurk/v2_DepthDuration_HTML.html#151,151,1366,768,1366,768,8-22-2022,8-0-2,35,depth_duration_stimuli/002375_2014-06-28_20-13-44_260595134347_rgbf000032-resize_1/002375_2014-06-28_20-13-44_260595134347_rgbf000032-resize_1-target.png,1000,4.0175,3,8708,1001,meters,jsons/v1_VE1000_randls_38.json,1333957,1603351,30,Woman
35,735548,DepthScenes,duration_manipulation_targetAtFixation,jsons/v1_VE1000_randls_38.json,http://54.235.29.9/FacialAge/BNav_EC2/DepthDuration/v2_depth_duration_MTurk/v2_DepthDuration_HTML.html#151,151,1366,768,1366,768,8-22-2022,8-0-2,36,depth_duration_stimuli/002657_2014-06-13_15-29-54_094959634447_rgbf000150-resize_1/002657_2014-06-13_15-29-54_094959634447_rgbf000150-resize_1-target.png,1000,4.919,3,7810,1003,meters,jsons/v1_VE1000_randls_38.json,1333957,1603351,30,Woman
36,735548,DepthScenes,duration_manipulation_targetAtFixation,jsons/v1_VE1000_randls_38.json,http://54.235.29.9/FacialAge/BNav_EC2/DepthDuration/v2_depth_duration_MTurk/v2_DepthDuration_HTML.html#151,151,1366,768,1366,768,8-22-2022,8-0-2,37,depth_duration_stimuli/001066_2014-06-08_22-03-20_260595134347_rgbf000066-resize_4/001066_2014-06-08_22-03-20_260595134347_rgbf000066-resize_4-target.png,1000,4.2330000000000005,3,7132,984,meters,jsons/v1_VE1000_randls_38.json,1333957,1603351,30,Woman
37,735548,DepthScenes,duration_manipulation_targetAtFixation,jsons/v1_VE1000_randls_38.json,http://54.235.29.9/FacialAge/BNav_EC2/DepthDuration/v2_depth_duration_MTurk/v2_DepthDuration_HTML.html#151,151,1366,768,1366,768,8-22-2022,8-0-2,38,depth_duration_stimuli/000742_2014-06-08_18-48-09_260595134347_rgbf000164-resize_4/000742_2014-06-08_18-48-09_260595134347_rgbf000164-resize_4-target.png,1000,4.632,1,8853,997,meters,jsons/v1_VE1000_randls_38.json,1333957,1603351,30,Woman
38,735548,DepthScenes,duration_manipulation_targetAtFixation,jsons/v1_VE1000_randls_38.json,http://54.235.29.9/FacialAge/BNav_EC2/DepthDuration/v2_depth_duration_MTurk/v2_DepthDuration_HTML.html#151,151,1366,768,1366,768,8-22-2022,8-0-2,39,depth_duration_stimuli/001150_2014-06-17_15-27-34_260595134347_rgbf000108-resize_2/001150_2014-06-17_15-27-34_260595134347_rgbf000108-resize_2-target.png,1000,4.0325,3,6939,995,meters,jsons/v1_VE1000_randls_38.json,1333957,1603351,30,Woman
39,735548,DepthScenes,duration_manipulation_targetAtFixation,jsons/v1_VE1000_randls_38.json,http://54.235.29.9/FacialAge/BNav_EC2/DepthDuration/v2_depth_duration_MTurk/v2_DepthDuration_HTML.html#151,151,1366,768,1366,768,8-22-2022,8-0-2,40,depth_duration_stimuli/000665_2014-06-09_20-42-35_260595134347_rgbf000110-resize_1/000665_2014-06-09_20-42-35_260595134347_rgbf000110-resize_1-target.png,1000,3.057,3,8973,902,meters,jsons/v1_VE1000_randls_38.json,1333957,1603351,30,Woman
40,735548,DepthScenes,duration_manipulation_targetAtFixation,jsons/v1_VE1000_randls_38.json,http://54.235.29.9/FacialAge/BNav_EC2/DepthDuration/v2_depth_duration_MTurk/v2_DepthDuration_HTML.html#151,151,1366,768,1366,768,8-22-2022,8-0-2,41,depth_duration_stimuli/001806_2014-06-26_20-50-20_260595134347_rgbf000091-resize_1/001806_2014-06-26_20-50-20_260595134347_rgbf000091-resize_1-target.png,1000,2.7305,5,8380,922,meters,jsons/v1_VE1000_randls_38.json,1333957,1603351,30,Woman
41,735548,DepthScenes,duration_manipulation_targetAtFixation,jsons/v1_VE1000_randls_38.json,http://54.235.29.9/FacialAge/BNav_EC2/DepthDuration/v2_depth_duration_MTurk/v2_DepthDuration_HTML.html#151,151,1366,768,1366,768,8-22-2022,8-0-2,42,depth_duration_stimuli/001617_2014-06-20_11-35-32_260595134347_rgbf000066-resize_1/001617_2014-06-20_11-35-32_260595134347_rgbf000066-resize_1-target.png,1000,3.7910000000000004,2,6728,1019,meters,jsons/v1_VE1000_randls_38.json,1333957,1603351,30,Woman
42,735548,DepthScenes,duration_manipulation_targetAtFixation,jsons/v1_VE1000_randls_38.json,http://54.235.29.9/FacialAge/BNav_EC2/DepthDuration/v2_depth_duration_MTurk/v2_DepthDuration_HTML.html#151,151,1366,768,1366,768,8-22-2022,8-0-2,43,depth_duration_stimuli/000736_2014-06-08_18-24-15_260595134347_rgbf000206-resize_3/000736_2014-06-08_18-24-15_260595134347_rgbf000206-resize_3-target.png,1000,3.515,1,6609,1004,meters,jsons/v1_VE1000_randls_38.json,1333957,1603351,30,Woman
43,735548,DepthScenes,duration_manipulation_targetAtFixation,jsons/v1_VE1000_randls_38.json,http://54.235.29.9/FacialAge/BNav_EC2/DepthDuration/v2_depth_duration_MTurk/v2_DepthDuration_HTML.html#151,151,1366,768,1366,768,8-22-2022,8-0-2,44,depth_duration_stimuli/000137_2014-05-20_17-04-49_260595134347_rgbf000120-resize_1/000137_2014-05-20_17-04-49_260595134347_rgbf000120-resize_1-target.png,1000,3.786,5,7188,1224,meters,jsons/v1_VE1000_randls_38.json,1333957,1603351,30,Woman
44,735548,DepthScenes,duration_manipulation_targetAtFixation,jsons/v1_VE1000_randls_38.json,http://54.235.29.9/FacialAge/BNav_EC2/DepthDuration/v2_depth_duration_MTurk/v2_DepthDuration_HTML.html#151,151,1366,768,1366,768,8-22-2022,8-0-2,45,depth_duration_stimuli/000787_2014-06-08_22-33-53_260595134347_rgbf000175-resize_1/000787_2014-06-08_22-33-53_260595134347_rgbf000175-resize-original.jpg,1000,4.784,3,7484,843,meters,jsons/v1_VE1000_randls_38.json,1333957,1603351,30,Woman
45,735548,DepthScenes,duration_manipulation_targetAtFixation,jsons/v1_VE1000_randls_38.json,http://54.235.29.9/FacialAge/BNav_EC2/DepthDuration/v2_depth_duration_MTurk/v2_DepthDuration_HTML.html#151,151,1366,768,1366,768,8-22-2022,8-0-2,46,depth_duration_stimuli/003292_2014-05-14_21-53-49_094959634447_rgbf000100-resize_2/003292_2014-05-14_21-53-49_094959634447_rgbf000100-resize_2-target.png,1000,3.4815,1,7971,996,meters,jsons/v1_VE1000_randls_38.json,1333957,1603351,30,Woman
46,735548,DepthScenes,duration_manipulation_targetAtFixation,jsons/v1_VE1000_randls_38.json,http://54.235.29.9/FacialAge/BNav_EC2/DepthDuration/v2_depth_duration_MTurk/v2_DepthDuration_HTML.html#151,151,1366,768,1366,768,8-22-2022,8-0-2,47,depth_duration_stimuli/002639_2014-06-24_14-51-37_094959634447_rgbf000074-resize_4/002639_2014-06-24_14-51-37_094959634447_rgbf000074-resize_4-target.png,1000,4.0375,3,8641,943,meters,jsons/v1_VE1000_randls_38.json,1333957,1603351,30,Woman
47,735548,DepthScenes,duration_manipulation_targetAtFixation,jsons/v1_VE1000_randls_38.json,http://54.235.29.9/FacialAge/BNav_EC2/DepthDuration/v2_depth_duration_MTurk/v2_DepthDuration_HTML.html#151,151,1366,768,1366,768,8-22-2022,8-0-2,48,depth_duration_stimuli/000436_2014-06-09_22-25-11_260595134347_rgbf000137-resize_1/000436_2014-06-09_22-25-11_260595134347_rgbf000137-resize_1-target.png,1000,4.0705,2,13325,1003,meters,jsons/v1_VE1000_randls_38.json,1333957,1603351,30,Woman
48,735548,DepthScenes,duration_manipulation_targetAtFixation,jsons/v1_VE1000_randls_38.json,http://54.235.29.9/FacialAge/BNav_EC2/DepthDuration/v2_depth_duration_MTurk/v2_DepthDuration_HTML.html#151,151,1366,768,1366,768,8-22-2022,8-0-2,49,depth_duration_stimuli/002444_2014-06-28_20-32-08_260595134347_rgbf000027-resize_0/002444_2014-06-28_20-32-08_260595134347_rgbf000027-resize_0-target.png,1000,4.388999999999999,3,6357,1000,meters,jsons/v1_VE1000_randls_38.json,1333957,1603351,30,Woman
49,735548,DepthScenes,duration_manipulation_targetAtFixation,jsons/v1_VE1000_randls_38.json,http://54.235.29.9/FacialAge/BNav_EC2/DepthDuration/v2_depth_duration_MTurk/v2_DepthDuration_HTML.html#151,151,1366,768,1366,768,8-22-2022,8-0-2,50,depth_duration_stimuli/001164_2014-06-17_15-35-46_260595134347_rgbf000085-resize_3/001164_2014-06-17_15-35-46_260595134347_rgbf000085-resize_3-target.png,1000,2.354,5,7714,1001,meters,jsons/v1_VE1000_randls_38.json,1333957,1603351,30,Woman
50,735548,DepthScenes,duration_manipulation_targetAtFixation,jsons/v1_VE1000_randls_38.json,http://54.235.29.9/FacialAge/BNav_EC2/DepthDuration/v2_depth_duration_MTurk/v2_DepthDuration_HTML.html#151,151,1366,768,1366,768,8-22-2022,8-0-2,51,depth_duration_stimuli/001136_2014-06-17_15-19-41_260595134347_rgbf000076-resize_3/001136_2014-06-17_15-19-41_260595134347_rgbf000076-resize_3-target.png,1000,1.8655,4,7333,996,meters,jsons/v1_VE1000_randls_38.json,1333957,1603351,30,Woman
51,735548,DepthScenes,duration_manipulation_targetAtFixation,jsons/v1_VE1000_randls_38.json,http://54.235.29.9/FacialAge/BNav_EC2/DepthDuration/v2_depth_duration_MTurk/v2_DepthDuration_HTML.html#151,151,1366,768,1366,768,8-22-2022,8-0-2,52,depth_duration_stimuli/001808_2014-06-26_20-50-58_260595134347_rgbf000029-resize_1/001808_2014-06-26_20-50-58_260595134347_rgbf000029-resize_1-target.png,1000,4.249,5,6453,1005,meters,jsons/v1_VE1000_randls_38.json,1333957,1603351,30,Woman
52,735548,DepthScenes,duration_manipulation_targetAtFixation,jsons/v1_VE1000_randls_38.json,http://54.235.29.9/FacialAge/BNav_EC2/DepthDuration/v2_depth_duration_MTurk/v2_DepthDuration_HTML.html#151,151,1366,768,1366,768,8-22-2022,8-0-2,53,depth_duration_stimuli/001815_2014-06-26_20-52-55_260595134347_rgbf000020-resize_0/001815_2014-06-26_20-52-55_260595134347_rgbf000020-resize_0-target.png,1000,3.3865,1,6839,966,meters,jsons/v1_VE1000_randls_38.json,1333957,1603351,30,Woman
53,735548,DepthScenes,duration_manipulation_targetAtFixation,jsons/v1_VE1000_randls_38.json,http://54.235.29.9/FacialAge/BNav_EC2/DepthDuration/v2_depth_duration_MTurk/v2_DepthDuration_HTML.html#151,151,1366,768,1366,768,8-22-2022,8-0-2,54,depth_duration_stimuli/001449_2014-06-19_17-01-27_260595134347_rgbf000116-resize_2/001449_2014-06-19_17-01-27_260595134347_rgbf000116-resize_2-target.png,1000,3.452,1,7075,1001,meters,jsons/v1_VE1000_randls_38.json,1333957,1603351,30,Woman
54,735548,DepthScenes,duration_manipulation_targetAtFixation,jsons/v1_VE1000_randls_38.json,http://54.235.29.9/FacialAge/BNav_EC2/DepthDuration/v2_depth_duration_MTurk/v2_DepthDuration_HTML.html#151,151,1366,768,1366,768,8-22-2022,8-0-2,55,depth_duration_stimuli/001450_2014-06-19_17-02-03_260595134347_rgbf000203-resize_4/001450_2014-06-19_17-02-03_260595134347_rgbf000203-resize_4-target.png,1000,4.0106666666667,5,7194,991,meters,jsons/v1_VE1000_randls_38.json,1333957,1603351,30,Woman
55,735548,DepthScenes,duration_manipulation_targetAtFixation,jsons/v1_VE1000_randls_38.json,http://54.235.29.9/FacialAge/BNav_EC2/DepthDuration/v2_depth_duration_MTurk/v2_DepthDuration_HTML.html#151,151,1366,768,1366,768,8-22-2022,8-0-2,56,depth_duration_stimuli/000009_2014-05-26_14-32-05_260595134347_rgbf000034-resize_3/000009_2014-05-26_14-32-05_260595134347_rgbf000034-resize_3-target.png,1000,3.8715,4,6201,998,meters,jsons/v1_VE1000_randls_38.json,1333957,1603351,30,Woman
56,735548,DepthScenes,duration_manipulation_targetAtFixation,jsons/v1_VE1000_randls_38.json,http://54.235.29.9/FacialAge/BNav_EC2/DepthDuration/v2_depth_duration_MTurk/v2_DepthDuration_HTML.html#151,151,1366,768,1366,768,8-22-2022,8-0-2,57,depth_duration_stimuli/001828_2014-06-26_21-40-03_260595134347_rgbf000024-resize_0/001828_2014-06-26_21-40-03_260595134347_rgbf000024-resize_0-target.png,1000,4.8260000000000005,1,6330,1002,meters,jsons/v1_VE1000_randls_38.json,1333957,1603351,30,Woman
57,735548,DepthScenes,duration_manipulation_targetAtFixation,jsons/v1_VE1000_randls_38.json,http://54.235.29.9/FacialAge/BNav_EC2/DepthDuration/v2_depth_duration_MTurk/v2_DepthDuration_HTML.html#151,151,1366,768,1366,768,8-22-2022,8-0-2,58,depth_duration_stimuli/000788_2014-06-08_22-34-36_260595134347_rgbf000131-resize_1/000788_2014-06-08_22-34-36_260595134347_rgbf000131-resize_1-target.png,1000,3.359,1,6025,1002,meters,jsons/v1_VE1000_randls_38.json,1333957,1603351,30,Woman
58,735548,DepthScenes,duration_manipulation_targetAtFixation,jsons/v1_VE1000_randls_38.json,http://54.235.29.9/FacialAge/BNav_EC2/DepthDuration/v2_depth_duration_MTurk/v2_DepthDuration_HTML.html#151,151,1366,768,1366,768,8-22-2022,8-0-2,59,depth_duration_stimuli/001235_2014-06-17_16-37-36_260595134347_rgbf000084-resize_4/001235_2014-06-17_16-37-36_260595134347_rgbf000084-resize_4-target.png,1000,3.6605,2,7269,973,meters,jsons/v1_VE1000_randls_38.json,1333957,1603351,30,Woman
59,735548,DepthScenes,duration_manipulation_targetAtFixation,jsons/v1_VE1000_randls_38.json,http://54.235.29.9/FacialAge/BNav_EC2/DepthDuration/v2_depth_duration_MTurk/v2_DepthDuration_HTML.html#151,151,1366,768,1366,768,8-22-2022,8-0-2,60,depth_duration_stimuli/002988_2014-06-15_12-24-20_094959634447_rgbf000150-resize_1/002988_2014-06-15_12-24-20_094959634447_rgbf000150-resize_1-target.png,1000,4.7669999999999995,1,9273,996,meters,jsons/v1_VE1000_randls_38.json,1333957,1603351,30,Woman
60,735548,DepthScenes,duration_manipulation_targetAtFixation,jsons/v1_VE1000_randls_38.json,http://54.235.29.9/FacialAge/BNav_EC2/DepthDuration/v2_depth_duration_MTurk/v2_DepthDuration_HTML.html#151,151,1366,768,1366,768,8-22-2022,8-0-2,61,depth_duration_stimuli/001052_2014-06-08_18-24-54_260595134347_rgbf000130-resize_1/001052_2014-06-08_18-24-54_260595134347_rgbf000130-resize_1-target.png,1000,4.1045,3,7107,997,meters,jsons/v1_VE1000_randls_38.json,1333957,1603351,30,Woman
61,735548,DepthScenes,duration_manipulation_targetAtFixation,jsons/v1_VE1000_randls_38.json,http://54.235.29.9/FacialAge/BNav_EC2/DepthDuration/v2_depth_duration_MTurk/v2_DepthDuration_HTML.html#151,151,1366,768,1366,768,8-22-2022,8-0-2,62,depth_duration_stimuli/002445_2014-06-28_20-32-16_260595134347_rgbf000029-resize_4/002445_2014-06-28_20-32-16_260595134347_rgbf000029-resize_4-target.png,1000,2.5315,3,6988,1013,meters,jsons/v1_VE1000_randls_38.json,1333957,1603351,30,Woman
62,735548,DepthScenes,duration_manipulation_targetAtFixation,jsons/v1_VE1000_randls_38.json,http://54.235.29.9/FacialAge/BNav_EC2/DepthDuration/v2_depth_duration_MTurk/v2_DepthDuration_HTML.html#151,151,1366,768,1366,768,8-22-2022,8-0-2,63,depth_duration_stimuli/000780_2014-06-08_22-28-29_260595134347_rgbf000126-resize_1/000780_2014-06-08_22-28-29_260595134347_rgbf000126-resize_1-target.png,1000,3.3825,3,7252,833,meters,jsons/v1_VE1000_randls_38.json,1333957,1603351,30,Woman
63,735548,DepthScenes,duration_manipulation_targetAtFixation,jsons/v1_VE1000_randls_38.json,http://54.235.29.9/FacialAge/BNav_EC2/DepthDuration/v2_depth_duration_MTurk/v2_DepthDuration_HTML.html#151,151,1366,768,1366,768,8-22-2022,8-0-2,64,depth_duration_stimuli/002118_2014-06-25_20-32-08_260595134347_rgbf000078-resize_1/002118_2014-06-25_20-32-08_260595134347_rgbf000078-resize_1-target.png,1000,2.6460000000000004,4,9562,1010,meters,jsons/v1_VE1000_randls_38.json,1333957,1603351,30,Woman
64,735548,DepthScenes,duration_manipulation_targetAtFixation,jsons/v1_VE1000_randls_38.json,http://54.235.29.9/FacialAge/BNav_EC2/DepthDuration/v2_depth_duration_MTurk/v2_DepthDuration_HTML.html#151,151,1366,768,1366,768,8-22-2022,8-0-2,65,depth_duration_stimuli/001516_2014-06-20_16-25-09_260595134347_rgbf000076-resize_2/001516_2014-06-20_16-25-09_260595134347_rgbf000076-resize_2-target.png,1000,1.7445,5,6500,1002,meters,jsons/v1_VE1000_randls_38.json,1333957,1603351,30,Woman
65,735548,DepthScenes,duration_manipulation_targetAtFixation,jsons/v1_VE1000_randls_38.json,http://54.235.29.9/FacialAge/BNav_EC2/DepthDuration/v2_depth_duration_MTurk/v2_DepthDuration_HTML.html#151,151,1366,768,1366,768,8-22-2022,8-0-2,66,depth_duration_stimuli/001222_2014-06-17_16-24-06_260595134347_rgbf000073-resize_0/001222_2014-06-17_16-24-06_260595134347_rgbf000073-resize-original.jpg,1000,1.4385,3,7124,1260,meters,jsons/v1_VE1000_randls_38.json,1333957,1603351,30,Woman
66,735548,DepthScenes,duration_manipulation_targetAtFixation,jsons/v1_VE1000_randls_38.json,http://54.235.29.9/FacialAge/BNav_EC2/DepthDuration/v2_depth_duration_MTurk/v2_DepthDuration_HTML.html#151,151,1366,768,1366,768,8-22-2022,8-0-2,67,depth_duration_stimuli/001016_2014-06-09_16-16-10_260595134347_rgbf000112-resize_5/001016_2014-06-09_16-16-10_260595134347_rgbf000112-resize_5-target.png,1000,1.6565,5,9229,977,meters,jsons/v1_VE1000_randls_38.json,1333957,1603351,30,Woman
67,735548,DepthScenes,duration_manipulation_targetAtFixation,jsons/v1_VE1000_randls_38.json,http://54.235.29.9/FacialAge/BNav_EC2/DepthDuration/v2_depth_duration_MTurk/v2_DepthDuration_HTML.html#151,151,1366,768,1366,768,8-22-2022,8-0-2,68,depth_duration_stimuli/002340_2014-06-28_20-05-46_260595134347_rgbf000113-resize_0/002340_2014-06-28_20-05-46_260595134347_rgbf000113-resize_0-target.png,1000,2.4735,4,9103,1009,meters,jsons/v1_VE1000_randls_38.json,1333957,1603351,30,Woman
68,735548,DepthScenes,duration_manipulation_targetAtFixation,jsons/v1_VE1000_randls_38.json,http://54.235.29.9/FacialAge/BNav_EC2/DepthDuration/v2_depth_duration_MTurk/v2_DepthDuration_HTML.html#151,151,1366,768,1366,768,8-22-2022,8-0-2,69,depth_duration_stimuli/002213_2014-06-28_18-37-58_260595134347_rgbf000055-resize_1/002213_2014-06-28_18-37-58_260595134347_rgbf000055-resize_1-target.png,1000,3.62,6,9762,1140,meters,jsons/v1_VE1000_randls_38.json,1333957,1603351,30,Woman
69,735548,DepthScenes,duration_manipulation_targetAtFixation,jsons/v1_VE1000_randls_38.json,http://54.235.29.9/FacialAge/BNav_EC2/DepthDuration/v2_depth_duration_MTurk/v2_DepthDuration_HTML.html#151,151,1366,768,1366,768,8-22-2022,8-0-2,70,depth_duration_stimuli/000691_2014-06-08_13-08-50_260595134347_rgbf000132-resize_3/000691_2014-06-08_13-08-50_260595134347_rgbf000132-resize_3-target.png,1000,4.1530000000000005,5,9591,1000,meters,jsons/v1_VE1000_randls_38.json,1333957,1603351,30,Woman
70,735548,DepthScenes,duration_manipulation_targetAtFixation,jsons/v1_VE1000_randls_38.json,http://54.235.29.9/FacialAge/BNav_EC2/DepthDuration/v2_depth_duration_MTurk/v2_DepthDuration_HTML.html#151,151,1366,768,1366,768,8-22-2022,8-0-2,71,depth_duration_stimuli/003534_2014-05-22_15-06-10_094959634447_rgbf000102-resize_4/003534_2014-05-22_15-06-10_094959634447_rgbf000102-resize_4-target.png,1000,1.426,4,8427,1003,meters,jsons/v1_VE1000_randls_38.json,1333957,1603351,30,Woman
71,735548,DepthScenes,duration_manipulation_targetAtFixation,jsons/v1_VE1000_randls_38.json,http://54.235.29.9/FacialAge/BNav_EC2/DepthDuration/v2_depth_duration_MTurk/v2_DepthDuration_HTML.html#151,151,1366,768,1366,768,8-22-2022,8-0-2,72,depth_duration_stimuli/002637_2014-06-24_14-51-13_094959634447_rgbf000066-resize_4/002637_2014-06-24_14-51-13_094959634447_rgbf000066-resize_4-target.png,1000,1.9955,6,8510,903,meters,jsons/v1_VE1000_randls_38.json,1333957,1603351,30,Woman
72,735548,DepthScenes,duration_manipulation_targetAtFixation,jsons/v1_VE1000_randls_38.json,http://54.235.29.9/FacialAge/BNav_EC2/DepthDuration/v2_depth_duration_MTurk/v2_DepthDuration_HTML.html#151,151,1366,768,1366,768,8-22-2022,8-0-2,73,depth_duration_stimuli/002905_2014-06-03_18-04-43_094959634447_rgbf000151-resize_2/002905_2014-06-03_18-04-43_094959634447_rgbf000151-resize_2-target.png,1000,2.0295,5,8352,986,meters,jsons/v1_VE1000_randls_38.json,1333957,1603351,30,Woman
73,735548,DepthScenes,duration_manipulation_targetAtFixation,jsons/v1_VE1000_randls_38.json,http://54.235.29.9/FacialAge/BNav_EC2/DepthDuration/v2_depth_duration_MTurk/v2_DepthDuration_HTML.html#151,151,1366,768,1366,768,8-22-2022,8-0-2,74,depth_duration_stimuli/003423_2014-05-21_10-23-26_094959634447_rgbf002665-resize_2/003423_2014-05-21_10-23-26_094959634447_rgbf002665-resize_2-target.png,1000,3.2575,4,7750,999,meters,jsons/v1_VE1000_randls_38.json,1333957,1603351,30,Woman
74,735548,DepthScenes,duration_manipulation_targetAtFixation,jsons/v1_VE1000_randls_38.json,http://54.235.29.9/FacialAge/BNav_EC2/DepthDuration/v2_depth_duration_MTurk/v2_DepthDuration_HTML.html#151,151,1366,768,1366,768,8-22-2022,8-0-2,75,depth_duration_stimuli/002272_2014-06-28_18-53-56_260595134347_rgbf000067-resize_2/002272_2014-06-28_18-53-56_260595134347_rgbf000067-resize_2-target.png,1000,1.138,4,6971,1022,meters,jsons/v1_VE1000_randls_38.json,1333957,1603351,30,Woman
75,735548,DepthScenes,duration_manipulation_targetAtFixation,jsons/v1_VE1000_randls_38.json,http://54.235.29.9/FacialAge/BNav_EC2/DepthDuration/v2_depth_duration_MTurk/v2_DepthDuration_HTML.html#151,151,1366,768,1366,768,8-22-2022,8-0-2,76,depth_duration_stimuli/001571_2014-06-20_17-21-32_260595134347_rgbf000089-resize_1/001571_2014-06-20_17-21-32_260595134347_rgbf000089-resize_1-target.png,1000,1.86,4,7526,1004,meters,jsons/v1_VE1000_randls_38.json,1333957,1603351,30,Woman
76,735548,DepthScenes,duration_manipulation_targetAtFixation,jsons/v1_VE1000_randls_38.json,http://54.235.29.9/FacialAge/BNav_EC2/DepthDuration/v2_depth_duration_MTurk/v2_DepthDuration_HTML.html#151,151,1366,768,1366,768,8-22-2022,8-0-2,77,depth_duration_stimuli/000929_2014-06-09_16-33-19_260595134347_rgbf000139-resize_0/000929_2014-06-09_16-33-19_260595134347_rgbf000139-resize_0-target.png,1000,2.8680000000000003,5,10129,999,meters,jsons/v1_VE1000_randls_38.json,1333957,1603351,30,Woman
77,735548,DepthScenes,duration_manipulation_targetAtFixation,jsons/v1_VE1000_randls_38.json,http://54.235.29.9/FacialAge/BNav_EC2/DepthDuration/v2_depth_duration_MTurk/v2_DepthDuration_HTML.html#151,151,1366,768,1366,768,8-22-2022,8-0-2,78,depth_duration_stimuli/000457_2014-06-08_16-52-43_260595134347_rgbf000199-resize_1/000457_2014-06-08_16-52-43_260595134347_rgbf000199-resize_1-target.png,1000,3.6489999999999996,3,7004,1010,meters,jsons/v1_VE1000_randls_38.json,1333957,1603351,30,Woman
78,735548,DepthScenes,duration_manipulation_targetAtFixation,jsons/v1_VE1000_randls_38.json,http://54.235.29.9/FacialAge/BNav_EC2/DepthDuration/v2_depth_duration_MTurk/v2_DepthDuration_HTML.html#151,151,1366,768,1366,768,8-22-2022,8-0-2,79,depth_duration_stimuli/002600_2014-06-24_14-27-04_094959634447_rgbf000074-resize_2/002600_2014-06-24_14-27-04_094959634447_rgbf000074-resize_2-target.png,1000,2.7575,6,9391,977,meters,jsons/v1_VE1000_randls_38.json,1333957,1603351,30,Woman
79,735548,DepthScenes,duration_manipulation_targetAtFixation,jsons/v1_VE1000_randls_38.json,http://54.235.29.9/FacialAge/BNav_EC2/DepthDuration/v2_depth_duration_MTurk/v2_DepthDuration_HTML.html#151,151,1366,768,1366,768,8-22-2022,8-0-2,80,depth_duration_stimuli/003228_2014-05-14_13-42-35_094959634447_rgbf000101-resize_1/003228_2014-05-14_13-42-35_094959634447_rgbf000101-resize_1-target.png,1000,1.9680000000000002,6,7796,661,meters,jsons/v1_VE1000_randls_38.json,1333957,1603351,30,Woman
80,735548,DepthScenes,duration_manipulation_targetAtFixation,jsons/v1_VE1000_randls_38.json,http://54.235.29.9/FacialAge/BNav_EC2/DepthDuration/v2_depth_duration_MTurk/v2_DepthDuration_HTML.html#151,151,1366,768,1366,768,8-22-2022,8-0-2,81,depth_duration_stimuli/000917_2014-06-09_22-45-29_260595134347_rgbf000149-resize_3/000917_2014-06-09_22-45-29_260595134347_rgbf000149-resize_3-target.png,1000,4.1865,6,11432,1010,meters,jsons/v1_VE1000_randls_38.json,1333957,1603351,30,Woman
81,735548,DepthScenes,duration_manipulation_targetAtFixation,jsons/v1_VE1000_randls_38.json,http://54.235.29.9/FacialAge/BNav_EC2/DepthDuration/v2_depth_duration_MTurk/v2_DepthDuration_HTML.html#151,151,1366,768,1366,768,8-22-2022,8-0-2,82,depth_duration_stimuli/002323_2014-06-28_20-01-54_260595134347_rgbf000051-resize_4/002323_2014-06-28_20-01-54_260595134347_rgbf000051-resize_4-target.png,1000,3.7310000000000003,6,7156,1080,meters,jsons/v1_VE1000_randls_38.json,1333957,1603351,30,Woman
82,735548,DepthScenes,duration_manipulation_targetAtFixation,jsons/v1_VE1000_randls_38.json,http://54.235.29.9/FacialAge/BNav_EC2/DepthDuration/v2_depth_duration_MTurk/v2_DepthDuration_HTML.html#151,151,1366,768,1366,768,8-22-2022,8-0-2,83,depth_duration_stimuli/001810_2014-06-26_20-51-35_260595134347_rgbf000040-resize_3/001810_2014-06-26_20-51-35_260595134347_rgbf000040-resize_3-target.png,1000,2.2525,6,7609,1014,meters,jsons/v1_VE1000_randls_38.json,1333957,1603351,30,Woman
83,735548,DepthScenes,duration_manipulation_targetAtFixation,jsons/v1_VE1000_randls_38.json,http://54.235.29.9/FacialAge/BNav_EC2/DepthDuration/v2_depth_duration_MTurk/v2_DepthDuration_HTML.html#151,151,1366,768,1366,768,8-22-2022,8-0-2,84,depth_duration_stimuli/003010_2014-06-15_12-54-35_094959634447_rgbf000112-resize_0/003010_2014-06-15_12-54-35_094959634447_rgbf000112-resize_0-target.png,1000,3.1185,6,11537,986,meters,jsons/v1_VE1000_randls_38.json,1333957,1603351,30,Woman
84,735548,DepthScenes,duration_manipulation_targetAtFixation,jsons/v1_VE1000_randls_38.json,http://54.235.29.9/FacialAge/BNav_EC2/DepthDuration/v2_depth_duration_MTurk/v2_DepthDuration_HTML.html#151,151,1366,768,1366,768,8-22-2022,8-0-2,85,depth_duration_stimuli/002748_2014-06-22_19-07-22_094959634447_rgbf000078-resize_1/002748_2014-06-22_19-07-22_094959634447_rgbf000078-resize_1-target.png,1000,4.6705,6,7854,1000,meters,jsons/v1_VE1000_randls_38.json,1333957,1603351,30,Woman
85,735548,DepthScenes,duration_manipulation_targetAtFixation,jsons/v1_VE1000_randls_38.json,http://54.235.29.9/FacialAge/BNav_EC2/DepthDuration/v2_depth_duration_MTurk/v2_DepthDuration_HTML.html#151,151,1366,768,1366,768,8-22-2022,8-0-2,86,depth_duration_stimuli/002995_2014-06-15_12-31-26_094959634447_rgbf000150-resize_1/002995_2014-06-15_12-31-26_094959634447_rgbf000150-resize_1-target.png,1000,3.8360000000000003,4,7099,827,meters,jsons/v1_VE1000_randls_38.json,1333957,1603351,30,Woman
86,735548,DepthScenes,duration_manipulation_targetAtFixation,jsons/v1_VE1000_randls_38.json,http://54.235.29.9/FacialAge/BNav_EC2/DepthDuration/v2_depth_duration_MTurk/v2_DepthDuration_HTML.html#151,151,1366,768,1366,768,8-22-2022,8-0-2,87,depth_duration_stimuli/002549_2014-06-24_13-41-39_094959634447_rgbf000022-resize_3/002549_2014-06-24_13-41-39_094959634447_rgbf000022-resize_3-target.png,1000,1.476,3,6067,2331,meters,jsons/v1_VE1000_randls_38.json,1333957,1603351,30,Woman
87,735548,DepthScenes,duration_manipulation_targetAtFixation,jsons/v1_VE1000_randls_38.json,http://54.235.29.9/FacialAge/BNav_EC2/DepthDuration/v2_depth_duration_MTurk/v2_DepthDuration_HTML.html#151,151,1366,768,1366,768,8-22-2022,8-0-2,88,depth_duration_stimuli/002750_2014-06-22_19-08-03_094959634447_rgbf000094-resize_4/002750_2014-06-22_19-08-03_094959634447_rgbf000094-resize_4-target.png,1000,2.354,3,7351,973,meters,jsons/v1_VE1000_randls_38.json,1333957,1603351,30,Woman
88,735548,DepthScenes,duration_manipulation_targetAtFixation,jsons/v1_VE1000_randls_38.json,http://54.235.29.9/FacialAge/BNav_EC2/DepthDuration/v2_depth_duration_MTurk/v2_DepthDuration_HTML.html#151,151,1366,768,1366,768,8-22-2022,8-0-2,89,depth_duration_stimuli/000692_2014-06-08_13-09-42_260595134347_rgbf000199-resize_2/000692_2014-06-08_13-09-42_260595134347_rgbf000199-resize_2-target.png,1000,3.661,6,7370,994,meters,jsons/v1_VE1000_randls_38.json,1333957,1603351,30,Woman
89,735548,DepthScenes,duration_manipulation_targetAtFixation,jsons/v1_VE1000_randls_38.json,http://54.235.29.9/FacialAge/BNav_EC2/DepthDuration/v2_depth_duration_MTurk/v2_DepthDuration_HTML.html#151,151,1366,768,1366,768,8-22-2022,8-0-2,90,depth_duration_stimuli/001094_2014-06-15_17-36-00_260595134347_rgbf000205-resize_0/001094_2014-06-15_17-36-00_260595134347_rgbf000205-resize_0-target.png,1000,4.2175,4,6549,1218,meters,jsons/v1_VE1000_randls_38.json,1333957,1603351,30,Woman
90,735548,DepthScenes,duration_manipulation_targetAtFixation,jsons/v1_VE1000_randls_38.json,http://54.235.29.9/FacialAge/BNav_EC2/DepthDuration/v2_depth_duration_MTurk/v2_DepthDuration_HTML.html#151,151,1366,768,1366,768,8-22-2022,8-0-2,91,depth_duration_stimuli/001133_2014-06-17_14-49-16_260595134347_rgbf000100-resize_0/001133_2014-06-17_14-49-16_260595134347_rgbf000100-resize_0-target.png,1000,4.2115,5,6826,994,meters,jsons/v1_VE1000_randls_38.json,1333957,1603351,30,Woman
91,735548,DepthScenes,duration_manipulation_targetAtFixation,jsons/v1_VE1000_randls_38.json,http://54.235.29.9/FacialAge/BNav_EC2/DepthDuration/v2_depth_duration_MTurk/v2_DepthDuration_HTML.html#151,151,1366,768,1366,768,8-22-2022,8-0-2,92,depth_duration_stimuli/001132_2014-06-17_14-48-54_260595134347_rgbf000100-resize_2/001132_2014-06-17_14-48-54_260595134347_rgbf000100-resize_2-target.png,1000,3.753,4,8228,990,meters,jsons/v1_VE1000_randls_38.json,1333957,1603351,30,Woman
92,735548,DepthScenes,duration_manipulation_targetAtFixation,jsons/v1_VE1000_randls_38.json,http://54.235.29.9/FacialAge/BNav_EC2/DepthDuration/v2_depth_duration_MTurk/v2_DepthDuration_HTML.html#151,151,1366,768,1366,768,8-22-2022,8-0-2,93,depth_duration_stimuli/001055_2014-06-08_18-45-35_260595134347_rgbf000111-resize_4/001055_2014-06-08_18-45-35_260595134347_rgbf000111-resize_4-target.png,1000,2.4290000000000003,3,6914,1197,meters,jsons/v1_VE1000_randls_38.json,1333957,1603351,30,Woman
93,735548,DepthScenes,duration_manipulation_targetAtFixation,jsons/v1_VE1000_randls_38.json,http://54.235.29.9/FacialAge/BNav_EC2/DepthDuration/v2_depth_duration_MTurk/v2_DepthDuration_HTML.html#151,151,1366,768,1366,768,8-22-2022,8-0-2,94,depth_duration_stimuli/000549_2014-06-08_22-10-24_260595134347_rgbf000247-resize_3/000549_2014-06-08_22-10-24_260595134347_rgbf000247-resize_3-target.png,1000,1.841,6,6184,1001,meters,jsons/v1_VE1000_randls_38.json,1333957,1603351,30,Woman
94,735548,DepthScenes,duration_manipulation_targetAtFixation,jsons/v1_VE1000_randls_38.json,http://54.235.29.9/FacialAge/BNav_EC2/DepthDuration/v2_depth_duration_MTurk/v2_DepthDuration_HTML.html#151,151,1366,768,1366,768,8-22-2022,8-0-2,95,depth_duration_stimuli/002043_2014-06-24_20-29-38_260595134347_rgbf000039-resize_4/002043_2014-06-24_20-29-38_260595134347_rgbf000039-resize_4-target.png,1000,2.8435,5,5503,1000,meters,jsons/v1_VE1000_randls_38.json,1333957,1603351,30,Woman
95,735548,DepthScenes,duration_manipulation_targetAtFixation,jsons/v1_VE1000_randls_38.json,http://54.235.29.9/FacialAge/BNav_EC2/DepthDuration/v2_depth_duration_MTurk/v2_DepthDuration_HTML.html#151,151,1366,768,1366,768,8-22-2022,8-0-2,96,depth_duration_stimuli/003048_2014-06-15_13-49-43_094959634447_rgbf000150-resize_1/003048_2014-06-15_13-49-43_094959634447_rgbf000150-resize_1-target.png,1000,4.0035,5,5610,999,meters,jsons/v1_VE1000_randls_38.json,1333957,1603351,30,Woman
96,735548,DepthScenes,duration_manipulation_targetAtFixation,jsons/v1_VE1000_randls_38.json,http://54.235.29.9/FacialAge/BNav_EC2/DepthDuration/v2_depth_duration_MTurk/v2_DepthDuration_HTML.html#151,151,1366,768,1366,768,8-22-2022,8-0-2,97,depth_duration_stimuli/002570_2014-06-24_13-59-54_094959634447_rgbf000059-resize_0/002570_2014-06-24_13-59-54_094959634447_rgbf000059-resize_0-target.png,1000,4.037,3,8403,877,meters,jsons/v1_VE1000_randls_38.json,1333957,1603351,30,Woman
97,735548,DepthScenes,duration_manipulation_targetAtFixation,jsons/v1_VE1000_randls_38.json,http://54.235.29.9/FacialAge/BNav_EC2/DepthDuration/v2_depth_duration_MTurk/v2_DepthDuration_HTML.html#151,151,1366,768,1366,768,8-22-2022,8-0-2,98,depth_duration_stimuli/002467_2014-06-28_20-38-07_260595134347_rgbf000026-resize_2/002467_2014-06-28_20-38-07_260595134347_rgbf000026-resize_2-target.png,1000,4.742,4,6796,987,meters,jsons/v1_VE1000_randls_38.json,1333957,1603351,30,Woman
98,735548,DepthScenes,duration_manipulation_targetAtFixation,jsons/v1_VE1000_randls_38.json,http://54.235.29.9/FacialAge/BNav_EC2/DepthDuration/v2_depth_duration_MTurk/v2_DepthDuration_HTML.html#151,151,1366,768,1366,768,8-22-2022,8-0-2,99,depth_duration_stimuli/001540_2014-06-20_17-01-05_260595134347_rgbf000086-resize_2/001540_2014-06-20_17-01-05_260595134347_rgbf000086-resize-original.jpg,1000,1.459,3,6469,1036,meters,jsons/v1_VE1000_randls_38.json,1333957,1603351,30,Woman
99,735548,DepthScenes,duration_manipulation_targetAtFixation,jsons/v1_VE1000_randls_38.json,http://54.235.29.9/FacialAge/BNav_EC2/DepthDuration/v2_depth_duration_MTurk/v2_DepthDuration_HTML.html#151,151,1366,768,1366,768,8-22-2022,8-0-2,100,depth_duration_stimuli/002057_2014-06-24_21-00-13_260595134347_rgbf000120-resize_1/002057_2014-06-24_21-00-13_260595134347_rgbf000120-resize_1-target.png,1000,2.967,3,7081,1000,meters,jsons/v1_VE1000_randls_38.json,1333957,1603351,30,Woman
100,735548,DepthScenes,duration_manipulation_targetAtFixation,jsons/v1_VE1000_randls_38.json,http://54.235.29.9/FacialAge/BNav_EC2/DepthDuration/v2_depth_duration_MTurk/v2_DepthDuration_HTML.html#151,151,1366,768,1366,768,8-22-2022,8-0-2,101,depth_duration_stimuli/000709_2014-06-08_13-51-55_260595134347_rgbf000068-resize_3/000709_2014-06-08_13-51-55_260595134347_rgbf000068-resize_3-target.png,1000,1.8030000000000002,4,7407,975,meters,jsons/v1_VE1000_randls_38.json,1333957,1603351,30,Woman
101,735548,DepthScenes,duration_manipulation_targetAtFixation,jsons/v1_VE1000_randls_38.json,http://54.235.29.9/FacialAge/BNav_EC2/DepthDuration/v2_depth_duration_MTurk/v2_DepthDuration_HTML.html#151,151,1366,768,1366,768,8-22-2022,8-0-2,102,depth_duration_stimuli/002663_2014-06-13_15-50-26_094959634447_rgbf000075-resize_1/002663_2014-06-13_15-50-26_094959634447_rgbf000075-resize_1-target.png,1000,4.7495,3,6651,988,meters,jsons/v1_VE1000_randls_38.json,1333957,1603351,30,Woman
102,735548,DepthScenes,duration_manipulation_targetAtFixation,jsons/v1_VE1000_randls_38.json,http://54.235.29.9/FacialAge/BNav_EC2/DepthDuration/v2_depth_duration_MTurk/v2_DepthDuration_HTML.html#151,151,1366,768,1366,768,8-22-2022,8-0-2,103,depth_duration_stimuli/000409_2014-06-04_19-23-33_260595134347_rgbf000067-resize_0/000409_2014-06-04_19-23-33_260595134347_rgbf000067-resize_0-target.png,1000,3.7335,3,7282,951,meters,jsons/v1_VE1000_randls_38.json,1333957,1603351,30,Woman
103,735548,DepthScenes,duration_manipulation_targetAtFixation,jsons/v1_VE1000_randls_38.json,http://54.235.29.9/FacialAge/BNav_EC2/DepthDuration/v2_depth_duration_MTurk/v2_DepthDuration_HTML.html#151,151,1366,768,1366,768,8-22-2022,8-0-2,104,depth_duration_stimuli/003492_2014-05-21_15-50-55_094959634447_rgbf000828-resize_1/003492_2014-05-21_15-50-55_094959634447_rgbf000828-resize_1-target.png,1000,4.06875,4,7148,995,meters,jsons/v1_VE1000_randls_38.json,1333957,1603351,30,Woman
104,735548,DepthScenes,duration_manipulation_targetAtFixation,jsons/v1_VE1000_randls_38.json,http://54.235.29.9/FacialAge/BNav_EC2/DepthDuration/v2_depth_duration_MTurk/v2_DepthDuration_HTML.html#151,151,1366,768,1366,768,8-22-2022,8-0-2,105,depth_duration_stimuli/002568_2014-06-24_13-59-21_094959634447_rgbf000062-resize_4/002568_2014-06-24_13-59-21_094959634447_rgbf000062-resize_4-target.png,1000,3.015,6,7068,962,meters,jsons/v1_VE1000_randls_38.json,1333957,1603351,30,Woman
105,735548,DepthScenes,duration_manipulation_targetAtFixation,jsons/v1_VE1000_randls_38.json,http://54.235.29.9/FacialAge/BNav_EC2/DepthDuration/v2_depth_duration_MTurk/v2_DepthDuration_HTML.html#151,151,1366,768,1366,768,8-22-2022,8-0-2,106,depth_duration_stimuli/000878_2014-06-08_22-52-45_260595134347_rgbf000045-resize_2/000878_2014-06-08_22-52-45_260595134347_rgbf000045-resize_2-target.png,1000,2.092,4,6562,1032,meters,jsons/v1_VE1000_randls_38.json,1333957,1603351,30,Woman
106,735548,DepthScenes,duration_manipulation_targetAtFixation,jsons/v1_VE1000_randls_38.json,http://54.235.29.9/FacialAge/BNav_EC2/DepthDuration/v2_depth_duration_MTurk/v2_DepthDuration_HTML.html#151,151,1366,768,1366,768,8-22-2022,8-0-2,107,depth_duration_stimuli/002953_2014-06-08_17-32-18_094959634447_rgbf000059-resize_5/002953_2014-06-08_17-32-18_094959634447_rgbf000059-resize_5-target.png,1000,1.551,5,7935,997,meters,jsons/v1_VE1000_randls_38.json,1333957,1603351,30,Woman
107,735548,DepthScenes,duration_manipulation_targetAtFixation,jsons/v1_VE1000_randls_38.json,http://54.235.29.9/FacialAge/BNav_EC2/DepthDuration/v2_depth_duration_MTurk/v2_DepthDuration_HTML.html#151,151,1366,768,1366,768,8-22-2022,8-0-2,108,depth_duration_stimuli/000682_2014-06-08_23-14-58_260595134347_rgbf000041-resize_5/000682_2014-06-08_23-14-58_260595134347_rgbf000041-resize_5-target.png,1000,2.7239999999999998,4,6157,956,meters,jsons/v1_VE1000_randls_38.json,1333957,1603351,30,Woman
108,735548,DepthScenes,duration_manipulation_targetAtFixation,jsons/v1_VE1000_randls_38.json,http://54.235.29.9/FacialAge/BNav_EC2/DepthDuration/v2_depth_duration_MTurk/v2_DepthDuration_HTML.html#151,151,1366,768,1366,768,8-22-2022,8-0-2,109,depth_duration_stimuli/001650_2014-06-20_12-09-00_260595134347_rgbf000087-resize_3/001650_2014-06-20_12-09-00_260595134347_rgbf000087-resize_3-target.png,1000,1.9505,4,6444,1009,meters,jsons/v1_VE1000_randls_38.json,1333957,1603351,30,Woman
109,735548,DepthScenes,duration_manipulation_targetAtFixation,jsons/v1_VE1000_randls_38.json,http://54.235.29.9/FacialAge/BNav_EC2/DepthDuration/v2_depth_duration_MTurk/v2_DepthDuration_HTML.html#151,151,1366,768,1366,768,8-22-2022,8-0-2,110,depth_duration_stimuli/001158_2014-06-17_15-32-16_260595134347_rgbf000138-resize_2/001158_2014-06-17_15-32-16_260595134347_rgbf000138-resize_2-target.png,1000,4.5315,4,8010,998,meters,jsons/v1_VE1000_randls_38.json,1333957,1603351,30,Woman
110,735548,DepthScenes,duration_manipulation_targetAtFixation,jsons/v1_VE1000_randls_38.json,http://54.235.29.9/FacialAge/BNav_EC2/DepthDuration/v2_depth_duration_MTurk/v2_DepthDuration_HTML.html#151,151,1366,768,1366,768,8-22-2022,8-0-2,111,depth_duration_stimuli/000556_2014-06-09_22-42-56_260595134347_rgbf000214-resize_1/000556_2014-06-09_22-42-56_260595134347_rgbf000214-resize_1-target.png,1000,4.8415,3,6334,1165,meters,jsons/v1_VE1000_randls_38.json,1333957,1603351,30,Woman
111,735548,DepthScenes,duration_manipulation_targetAtFixation,jsons/v1_VE1000_randls_38.json,http://54.235.29.9/FacialAge/BNav_EC2/DepthDuration/v2_depth_duration_MTurk/v2_DepthDuration_HTML.html#151,151,1366,768,1366,768,8-22-2022,8-0-2,112,depth_duration_stimuli/001175_2014-06-17_15-45-55_260595134347_rgbf000129-resize_4/001175_2014-06-17_15-45-55_260595134347_rgbf000129-resize_4-target.png,1000,4.255,3,7920,998,meters,jsons/v1_VE1000_randls_38.json,1333957,1603351,30,Woman
112,735548,DepthScenes,duration_manipulation_targetAtFixation,jsons/v1_VE1000_randls_38.json,http://54.235.29.9/FacialAge/BNav_EC2/DepthDuration/v2_depth_duration_MTurk/v2_DepthDuration_HTML.html#151,151,1366,768,1366,768,8-22-2022,8-0-2,113,depth_duration_stimuli/003490_2014-05-21_15-50-11_094959634447_rgbf000101-resize_3/003490_2014-05-21_15-50-11_094959634447_rgbf000101-resize_3-target.png,1000,3.6445,1,7454,1081,meters,jsons/v1_VE1000_randls_38.json,1333957,1603351,30,Woman
113,735548,DepthScenes,duration_manipulation_targetAtFixation,jsons/v1_VE1000_randls_38.json,http://54.235.29.9/FacialAge/BNav_EC2/DepthDuration/v2_depth_duration_MTurk/v2_DepthDuration_HTML.html#151,151,1366,768,1366,768,8-22-2022,8-0-2,114,depth_duration_stimuli/000758_2014-06-08_22-05-08_260595134347_rgbf000085-resize_0/000758_2014-06-08_22-05-08_260595134347_rgbf000085-resize_0-target.png,1000,3.3810000000000002,3,6345,1180,meters,jsons/v1_VE1000_randls_38.json,1333957,1603351,30,Woman
114,735548,DepthScenes,duration_manipulation_targetAtFixation,jsons/v1_VE1000_randls_38.json,http://54.235.29.9/FacialAge/BNav_EC2/DepthDuration/v2_depth_duration_MTurk/v2_DepthDuration_HTML.html#151,151,1366,768,1366,768,8-22-2022,8-0-2,115,depth_duration_stimuli/000854_2014-06-09_19-43-13_260595134347_rgbf000066-resize_0/000854_2014-06-09_19-43-13_260595134347_rgbf000066-resize_0-target.png,1000,3.068,3,7181,1000,meters,jsons/v1_VE1000_randls_38.json,1333957,1603351,30,Woman
115,735548,DepthScenes,duration_manipulation_targetAtFixation,jsons/v1_VE1000_randls_38.json,http://54.235.29.9/FacialAge/BNav_EC2/DepthDuration/v2_depth_duration_MTurk/v2_DepthDuration_HTML.html#151,151,1366,768,1366,768,8-22-2022,8-0-2,116,depth_duration_stimuli/001170_2014-06-17_15-43-44_260595134347_rgbf000096-resize_6/001170_2014-06-17_15-43-44_260595134347_rgbf000096-resize-original.jpg,1000,1.1909999999999998,6,7581,994,meters,jsons/v1_VE1000_randls_38.json,1333957,1603351,30,Woman
116,735548,DepthScenes,duration_manipulation_targetAtFixation,jsons/v1_VE1000_randls_38.json,http://54.235.29.9/FacialAge/BNav_EC2/DepthDuration/v2_depth_duration_MTurk/v2_DepthDuration_HTML.html#151,151,1366,768,1366,768,8-22-2022,8-0-2,117,depth_duration_stimuli/000739_2014-06-08_18-45-58_260595134347_rgbf000068-resize_1/000739_2014-06-08_18-45-58_260595134347_rgbf000068-resize_1-target.png,1000,3.534,3,6186,999,meters,jsons/v1_VE1000_randls_38.json,1333957,1603351,30,Woman
117,735548,DepthScenes,duration_manipulation_targetAtFixation,jsons/v1_VE1000_randls_38.json,http://54.235.29.9/FacialAge/BNav_EC2/DepthDuration/v2_depth_duration_MTurk/v2_DepthDuration_HTML.html#151,151,1366,768,1366,768,8-22-2022,8-0-2,118,depth_duration_stimuli/000734_2014-06-08_17-39-11_260595134347_rgbf000128-resize_2/000734_2014-06-08_17-39-11_260595134347_rgbf000128-resize_2-target.png,1000,4.098,5,7344,1103,meters,jsons/v1_VE1000_randls_38.json,1333957,1603351,30,Woman
118,735548,DepthScenes,duration_manipulation_targetAtFixation,jsons/v1_VE1000_randls_38.json,http://54.235.29.9/FacialAge/BNav_EC2/DepthDuration/v2_depth_duration_MTurk/v2_DepthDuration_HTML.html#151,151,1366,768,1366,768,8-22-2022,8-0-2,119,depth_duration_stimuli/003070_2014-06-15_14-58-27_094959634447_rgbf000150-resize_3/003070_2014-06-15_14-58-27_094959634447_rgbf000150-resize_3-target.png,1000,2.9415,6,6579,999,meters,jsons/v1_VE1000_randls_38.json,1333957,1603351,30,Woman
119,735548,DepthScenes,duration_manipulation_targetAtFixation,jsons/v1_VE1000_randls_38.json,http://54.235.29.9/FacialAge/BNav_EC2/DepthDuration/v2_depth_duration_MTurk/v2_DepthDuration_HTML.html#151,151,1366,768,1366,768,8-22-2022,8-0-2,120,depth_duration_stimuli/000943_2014-06-09_19-31-07_260595134347_rgbf000128-resize_1/000943_2014-06-09_19-31-07_260595134347_rgbf000128-resize_1-target.png,1000,1.9765,3,8394,983,meters,jsons/v1_VE1000_randls_38.json,1333957,1603351,30,Woman
120,735548,DepthScenes,duration_manipulation_targetAtFixation,jsons/v1_VE1000_randls_38.json,http://54.235.29.9/FacialAge/BNav_EC2/DepthDuration/v2_depth_duration_MTurk/v2_DepthDuration_HTML.html#151,151,1366,768,1366,768,8-22-2022,8-0-2,121,depth_duration_stimuli/001059_2014-06-08_21-53-27_260595134347_rgbf000061-resize_4/001059_2014-06-08_21-53-27_260595134347_rgbf000061-resize_4-target.png,1000,2.4185,3,10221,1000,meters,jsons/v1_VE1000_randls_38.json,1333957,1603351,30,Woman
121,735548,DepthScenes,duration_manipulation_targetAtFixation,jsons/v1_VE1000_randls_38.json,http://54.235.29.9/FacialAge/BNav_EC2/DepthDuration/v2_depth_duration_MTurk/v2_DepthDuration_HTML.html#151,151,1366,768,1366,768,8-22-2022,8-0-2,122,depth_duration_stimuli/001032_2014-06-08_13-23-17_260595134347_rgbf000021-resize_3/001032_2014-06-08_13-23-17_260595134347_rgbf000021-resize_3-target.png,1000,3.2725,4,5266,1003,meters,jsons/v1_VE1000_randls_38.json,1333957,1603351,30,Woman
122,735548,DepthScenes,duration_manipulation_targetAtFixation,jsons/v1_VE1000_randls_38.json,http://54.235.29.9/FacialAge/BNav_EC2/DepthDuration/v2_depth_duration_MTurk/v2_DepthDuration_HTML.html#151,151,1366,768,1366,768,8-22-2022,8-0-2,123,depth_duration_stimuli/002763_2014-06-22_19-13-10_094959634447_rgbf000075-resize_4/002763_2014-06-22_19-13-10_094959634447_rgbf000075-resize_4-target.png,1000,1.68375,3,8458,1041,meters,jsons/v1_VE1000_randls_38.json,1333957,1603351,30,Woman
123,735548,DepthScenes,duration_manipulation_targetAtFixation,jsons/v1_VE1000_randls_38.json,http://54.235.29.9/FacialAge/BNav_EC2/DepthDuration/v2_depth_duration_MTurk/v2_DepthDuration_HTML.html#151,151,1366,768,1366,768,8-22-2022,8-0-2,124,depth_duration_stimuli/002209_2014-06-28_18-36-10_260595134347_rgbf000051-resize_1/002209_2014-06-28_18-36-10_260595134347_rgbf000051-resize_1-target.png,1000,2.057,3,7393,991,meters,jsons/v1_VE1000_randls_38.json,1333957,1603351,30,Woman
124,735548,DepthScenes,duration_manipulation_targetAtFixation,jsons/v1_VE1000_randls_38.json,http://54.235.29.9/FacialAge/BNav_EC2/DepthDuration/v2_depth_duration_MTurk/v2_DepthDuration_HTML.html#151,151,1366,768,1366,768,8-22-2022,8-0-2,125,depth_duration_stimuli/002509_2014-06-24_13-19-22_094959634447_rgbf000077-resize_0/002509_2014-06-24_13-19-22_094959634447_rgbf000077-resize_0-target.png,1000,1.3065,6,7377,1008,meters,jsons/v1_VE1000_randls_38.json,1333957,1603351,30,Woman
125,735548,DepthScenes,duration_manipulation_targetAtFixation,jsons/v1_VE1000_randls_38.json,http://54.235.29.9/FacialAge/BNav_EC2/DepthDuration/v2_depth_duration_MTurk/v2_DepthDuration_HTML.html#151,151,1366,768,1366,768,8-22-2022,8-0-2,126,depth_duration_stimuli/003338_2014-05-20_11-01-23_094959634447_rgbf000051-resize_6/003338_2014-05-20_11-01-23_094959634447_rgbf000051-resize_6-target.png,1000,1.693,6,7076,1129,meters,jsons/v1_VE1000_randls_38.json,1333957,1603351,30,Woman
126,735548,DepthScenes,duration_manipulation_targetAtFixation,jsons/v1_VE1000_randls_38.json,http://54.235.29.9/FacialAge/BNav_EC2/DepthDuration/v2_depth_duration_MTurk/v2_DepthDuration_HTML.html#151,151,1366,768,1366,768,8-22-2022,8-0-2,127,depth_duration_stimuli/002784_2014-06-22_19-26-30_094959634447_rgbf000083-resize_3/002784_2014-06-22_19-26-30_094959634447_rgbf000083-resize_3-target.png,1000,1.8046666666667,3,6802,1517,meters,jsons/v1_VE1000_randls_38.json,1333957,1603351,30,Woman
127,735548,DepthScenes,duration_manipulation_targetAtFixation,jsons/v1_VE1000_randls_38.json,http://54.235.29.9/FacialAge/BNav_EC2/DepthDuration/v2_depth_duration_MTurk/v2_DepthDuration_HTML.html#151,151,1366,768,1366,768,8-22-2022,8-0-2,128,depth_duration_stimuli/001100_2014-06-15_17-46-26_260595134347_rgbf000225-resize_2/001100_2014-06-15_17-46-26_260595134347_rgbf000225-resize_2-target.png,1000,2.24,3,7324,990,meters,jsons/v1_VE1000_randls_38.json,1333957,1603351,30,Woman
128,735548,DepthScenes,duration_manipulation_targetAtFixation,jsons/v1_VE1000_randls_38.json,http://54.235.29.9/FacialAge/BNav_EC2/DepthDuration/v2_depth_duration_MTurk/v2_DepthDuration_HTML.html#151,151,1366,768,1366,768,8-22-2022,8-0-2,129,depth_duration_stimuli/002153_2014-06-25_21-27-18_260595134347_rgbf000038-resize_5/002153_2014-06-25_21-27-18_260595134347_rgbf000038-resize_5-target.png,1000,2.505,4,7462,922,meters,jsons/v1_VE1000_randls_38.json,1333957,1603351,30,Woman
129,735548,DepthScenes,duration_manipulation_targetAtFixation,jsons/v1_VE1000_randls_38.json,http://54.235.29.9/FacialAge/BNav_EC2/DepthDuration/v2_depth_duration_MTurk/v2_DepthDuration_HTML.html#151,151,1366,768,1366,768,8-22-2022,8-0-2,130,depth_duration_stimuli/002660_2014-06-13_15-44-18_094959634447_rgbf001878-resize_2/002660_2014-06-13_15-44-18_094959634447_rgbf001878-resize_2-target.png,1000,3.576,3,7700,855,meters,jsons/v1_VE1000_randls_38.json,1333957,1603351,30,Woman
130,735548,DepthScenes,duration_manipulation_targetAtFixation,jsons/v1_VE1000_randls_38.json,http://54.235.29.9/FacialAge/BNav_EC2/DepthDuration/v2_depth_duration_MTurk/v2_DepthDuration_HTML.html#151,151,1366,768,1366,768,8-22-2022,8-0-2,131,depth_duration_stimuli/001417_2014-06-19_16-25-36_260595134347_rgbf000115-resize_5/001417_2014-06-19_16-25-36_260595134347_rgbf000115-resize_5-target.png,1000,4.6255,3,8228,958,meters,jsons/v1_VE1000_randls_38.json,1333957,1603351,30,Woman
131,735548,DepthScenes,duration_manipulation_targetAtFixation,jsons/v1_VE1000_randls_38.json,http://54.235.29.9/FacialAge/BNav_EC2/DepthDuration/v2_depth_duration_MTurk/v2_DepthDuration_HTML.html#151,151,1366,768,1366,768,8-22-2022,8-0-2,132,depth_duration_stimuli/003081_2014-06-15_15-19-16_094959634447_rgbf000150-resize_1/003081_2014-06-15_15-19-16_094959634447_rgbf000150-resize_1-target.png,1000,3.9125,3,9690,988,meters,jsons/v1_VE1000_randls_38.json,1333957,1603351,30,Woman
132,735548,DepthScenes,duration_manipulation_targetAtFixation,jsons/v1_VE1000_randls_38.json,http://54.235.29.9/FacialAge/BNav_EC2/DepthDuration/v2_depth_duration_MTurk/v2_DepthDuration_HTML.html#151,151,1366,768,1366,768,8-22-2022,8-0-2,133,depth_duration_stimuli/001110_2014-06-15_17-25-28_260595134347_rgbf000150-resize_1/001110_2014-06-15_17-25-28_260595134347_rgbf000150-resize_1-target.png,1000,1.7115,1,6446,1071,meters,jsons/v1_VE1000_randls_38.json,1333957,1603351,30,Woman
133,735548,DepthScenes,duration_manipulation_targetAtFixation,jsons/v1_VE1000_randls_38.json,http://54.235.29.9/FacialAge/BNav_EC2/DepthDuration/v2_depth_duration_MTurk/v2_DepthDuration_HTML.html#151,151,1366,768,1366,768,8-22-2022,8-0-2,134,depth_duration_stimuli/000927_2014-06-09_16-32-30_260595134347_rgbf000123-resize_3/000927_2014-06-09_16-32-30_260595134347_rgbf000123-resize_3-target.png,1000,2.6785,3,9428,977,meters,jsons/v1_VE1000_randls_38.json,1333957,1603351,30,Woman
134,735548,DepthScenes,duration_manipulation_targetAtFixation,jsons/v1_VE1000_randls_38.json,http://54.235.29.9/FacialAge/BNav_EC2/DepthDuration/v2_depth_duration_MTurk/v2_DepthDuration_HTML.html#151,151,1366,768,1366,768,8-22-2022,8-0-2,135,depth_duration_stimuli/002072_2014-06-24_21-48-06_260595134347_rgbf000115-resize_0/002072_2014-06-24_21-48-06_260595134347_rgbf000115-resize-original.jpg,1000,4.702,3,5204,1000,meters,jsons/v1_VE1000_randls_38.json,1333957,1603351,30,Woman
135,735548,DepthScenes,duration_manipulation_targetAtFixation,jsons/v1_VE1000_randls_38.json,http://54.235.29.9/FacialAge/BNav_EC2/DepthDuration/v2_depth_duration_MTurk/v2_DepthDuration_HTML.html#151,151,1366,768,1366,768,8-22-2022,8-0-2,136,depth_duration_stimuli/000368_2014-06-09_15-53-01_260595134347_rgbf000155-resize_2/000368_2014-06-09_15-53-01_260595134347_rgbf000155-resize_2-target.png,1000,2.4859999999999998,3,6547,1003,meters,jsons/v1_VE1000_randls_38.json,1333957,1603351,30,Woman
136,735548,DepthScenes,duration_manipulation_targetAtFixation,jsons/v1_VE1000_randls_38.json,http://54.235.29.9/FacialAge/BNav_EC2/DepthDuration/v2_depth_duration_MTurk/v2_DepthDuration_HTML.html#151,151,1366,768,1366,768,8-22-2022,8-0-2,137,depth_duration_stimuli/002678_2014-06-13_16-15-32_094959634447_rgbf000151-resize_6/002678_2014-06-13_16-15-32_094959634447_rgbf000151-resize_6-target.png,1000,2.1830000000000003,3,6387,916,meters,jsons/v1_VE1000_randls_38.json,1333957,1603351,30,Woman
137,735548,DepthScenes,duration_manipulation_targetAtFixation,jsons/v1_VE1000_randls_38.json,http://54.235.29.9/FacialAge/BNav_EC2/DepthDuration/v2_depth_duration_MTurk/v2_DepthDuration_HTML.html#151,151,1366,768,1366,768,8-22-2022,8-0-2,138,depth_duration_stimuli/002725_2014-06-22_11-47-51_094959634447_rgbf000070-resize_1/002725_2014-06-22_11-47-51_094959634447_rgbf000070-resize_1-target.png,1000,2.195,3,6526,1000,meters,jsons/v1_VE1000_randls_38.json,1333957,1603351,30,Woman
138,735548,DepthScenes,duration_manipulation_targetAtFixation,jsons/v1_VE1000_randls_38.json,http://54.235.29.9/FacialAge/BNav_EC2/DepthDuration/v2_depth_duration_MTurk/v2_DepthDuration_HTML.html#151,151,1366,768,1366,768,8-22-2022,8-0-2,139,depth_duration_stimuli/002344_2014-06-28_20-06-29_260595134347_rgbf000030-resize_1/002344_2014-06-28_20-06-29_260595134347_rgbf000030-resize_1-target.png,1000,1.5795,4,7074,999,meters,jsons/v1_VE1000_randls_38.json,1333957,1603351,30,Woman
139,735548,DepthScenes,duration_manipulation_targetAtFixation,jsons/v1_VE1000_randls_38.json,http://54.235.29.9/FacialAge/BNav_EC2/DepthDuration/v2_depth_duration_MTurk/v2_DepthDuration_HTML.html#151,151,1366,768,1366,768,8-22-2022,8-0-2,140,depth_duration_stimuli/000414_2014-06-04_19-49-13_260595134347_rgbf000044-resize_0/000414_2014-06-04_19-49-13_260595134347_rgbf000044-resize_0-target.png,1000,4.329,3,6444,1003,meters,jsons/v1_VE1000_randls_38.json,1333957,1603351,30,Woman
140,735548,DepthScenes,duration_manipulation_targetAtFixation,jsons/v1_VE1000_randls_38.json,http://54.235.29.9/FacialAge/BNav_EC2/DepthDuration/v2_depth_duration_MTurk/v2_DepthDuration_HTML.html#151,151,1366,768,1366,768,8-22-2022,8-0-2,141,depth_duration_stimuli/003129_2014-05-12_10-48-10_094959634447_rgbf000100-resize_0/003129_2014-05-12_10-48-10_094959634447_rgbf000100-resize_0-target.png,1000,4.9305,5,6445,1000,meters,jsons/v1_VE1000_randls_38.json,1333957,1603351,30,Woman
141,735548,DepthScenes,duration_manipulation_targetAtFixation,jsons/v1_VE1000_randls_38.json,http://54.235.29.9/FacialAge/BNav_EC2/DepthDuration/v2_depth_duration_MTurk/v2_DepthDuration_HTML.html#151,151,1366,768,1366,768,8-22-2022,8-0-2,142,depth_duration_stimuli/002630_2014-06-24_14-47-50_094959634447_rgbf000055-resize_1/002630_2014-06-24_14-47-50_094959634447_rgbf000055-resize_1-target.png,1000,3.0095,1,7311,991,meters,jsons/v1_VE1000_randls_38.json,1333957,1603351,30,Woman
142,735548,DepthScenes,duration_manipulation_targetAtFixation,jsons/v1_VE1000_randls_38.json,http://54.235.29.9/FacialAge/BNav_EC2/DepthDuration/v2_depth_duration_MTurk/v2_DepthDuration_HTML.html#151,151,1366,768,1366,768,8-22-2022,8-0-2,143,depth_duration_stimuli/002758_2014-06-22_19-11-20_094959634447_rgbf000128-resize_1/002758_2014-06-22_19-11-20_094959634447_rgbf000128-resize_1-target.png,1000,2.555,3,6548,1000,meters,jsons/v1_VE1000_randls_38.json,1333957,1603351,30,Woman
143,735548,DepthScenes,duration_manipulation_targetAtFixation,jsons/v1_VE1000_randls_38.json,http://54.235.29.9/FacialAge/BNav_EC2/DepthDuration/v2_depth_duration_MTurk/v2_DepthDuration_HTML.html#151,151,1366,768,1366,768,8-22-2022,8-0-2,144,depth_duration_stimuli/001244_2014-06-17_16-47-45_260595134347_rgbf000030-resize_4/001244_2014-06-17_16-47-45_260595134347_rgbf000030-resize_4-target.png,1000,2.0425,3,6145,997,meters,jsons/v1_VE1000_randls_38.json,1333957,1603351,30,Woman
144,735548,DepthScenes,duration_manipulation_targetAtFixation,jsons/v1_VE1000_randls_38.json,http://54.235.29.9/FacialAge/BNav_EC2/DepthDuration/v2_depth_duration_MTurk/v2_DepthDuration_HTML.html#151,151,1366,768,1366,768,8-22-2022,8-0-2,145,depth_duration_stimuli/003495_2014-05-21_16-01-51_094959634447_rgbf000100-resize_3/003495_2014-05-21_16-01-51_094959634447_rgbf000100-resize_3-target.png,1000,1.6255,5,7818,1002,meters,jsons/v1_VE1000_randls_38.json,1333957,1603351,30,Woman
145,735548,DepthScenes,duration_manipulation_targetAtFixation,jsons/v1_VE1000_randls_38.json,http://54.235.29.9/FacialAge/BNav_EC2/DepthDuration/v2_depth_duration_MTurk/v2_DepthDuration_HTML.html#151,151,1366,768,1366,768,8-22-2022,8-0-2,146,depth_duration_stimuli/001498_2014-06-19_17-45-14_260595134347_rgbf000129-resize_4/001498_2014-06-19_17-45-14_260595134347_rgbf000129-resize-original.jpg,1000,1.4075,3,7824,1069,meters,jsons/v1_VE1000_randls_38.json,1333957,1603351,30,Woman
146,735548,DepthScenes,duration_manipulation_targetAtFixation,jsons/v1_VE1000_randls_38.json,http://54.235.29.9/FacialAge/BNav_EC2/DepthDuration/v2_depth_duration_MTurk/v2_DepthDuration_HTML.html#151,151,1366,768,1366,768,8-22-2022,8-0-2,147,depth_duration_stimuli/000486_2014-06-09_20-47-20_260595134347_rgbf000143-resize_2/000486_2014-06-09_20-47-20_260595134347_rgbf000143-resize_2-target.png,1000,4.8325,3,7790,999,meters,jsons/v1_VE1000_randls_38.json,1333957,1603351,30,Woman
147,735548,DepthScenes,duration_manipulation_targetAtFixation,jsons/v1_VE1000_randls_38.json,http://54.235.29.9/FacialAge/BNav_EC2/DepthDuration/v2_depth_duration_MTurk/v2_DepthDuration_HTML.html#151,151,1366,768,1366,768,8-22-2022,8-0-2,148,depth_duration_stimuli/003083_2014-06-15_15-21-03_094959634447_rgbf000063-resize_1/003083_2014-06-15_15-21-03_094959634447_rgbf000063-resize_1-target.png,1000,4.1405,2,6199,1042,meters,jsons/v1_VE1000_randls_38.json,1333957,1603351,30,Woman
148,735548,DepthScenes,duration_manipulation_targetAtFixation,jsons/v1_VE1000_randls_38.json,http://54.235.29.9/FacialAge/BNav_EC2/DepthDuration/v2_depth_duration_MTurk/v2_DepthDuration_HTML.html#151,151,1366,768,1366,768,8-22-2022,8-0-2,149,depth_duration_stimuli/002989_2014-06-15_12-25-03_094959634447_rgbf000150-resize_3/002989_2014-06-15_12-25-03_094959634447_rgbf000150-resize_3-target.png,1000,4.1975,3,6431,1052,meters,jsons/v1_VE1000_randls_38.json,1333957,1603351,30,Woman
149,735548,DepthScenes,duration_manipulation_targetAtFixation,jsons/v1_VE1000_randls_38.json,http://54.235.29.9/FacialAge/BNav_EC2/DepthDuration/v2_depth_duration_MTurk/v2_DepthDuration_HTML.html#151,151,1366,768,1366,768,8-22-2022,8-0-2,150,depth_duration_stimuli/000866_2014-06-09_20-45-42_260595134347_rgbf000139-resize_1/000866_2014-06-09_20-45-42_260595134347_rgbf000139-resize_1-target.png,1000,3.2155,3,7822,986,meters,jsons/v1_VE1000_randls_38.json,1333957,1603351,30,Woman
150,735548,DepthScenes,duration_manipulation_targetAtFixation,jsons/v1_VE1000_randls_38.json,http://54.235.29.9/FacialAge/BNav_EC2/DepthDuration/v2_depth_duration_MTurk/v2_DepthDuration_HTML.html#151,151,1366,768,1366,768,8-22-2022,8-0-2,151,depth_duration_stimuli/000773_2014-06-08_22-24-54_260595134347_rgbf000093-resize_1/000773_2014-06-08_22-24-54_260595134347_rgbf000093-resize_1-target.png,1000,4.973,6,7619,1038,meters,jsons/v1_VE1000_randls_38.json,1333957,1603351,30,Woman
151,735548,DepthScenes,duration_manipulation_targetAtFixation,jsons/v1_VE1000_randls_38.json,http://54.235.29.9/FacialAge/BNav_EC2/DepthDuration/v2_depth_duration_MTurk/v2_DepthDuration_HTML.html#151,151,1366,768,1366,768,8-22-2022,8-0-2,152,depth_duration_stimuli/002414_2014-06-28_20-24-58_260595134347_rgbf000067-resize_4/002414_2014-06-28_20-24-58_260595134347_rgbf000067-resize_4-target.png,1000,4.363,3,7776,1145,meters,jsons/v1_VE1000_randls_38.json,1333957,1603351,30,Woman
152,735548,DepthScenes,duration_manipulation_targetAtFixation,jsons/v1_VE1000_randls_38.json,http://54.235.29.9/FacialAge/BNav_EC2/DepthDuration/v2_depth_duration_MTurk/v2_DepthDuration_HTML.html#151,151,1366,768,1366,768,8-22-2022,8-0-2,153,depth_duration_stimuli/001570_2014-06-20_17-21-09_260595134347_rgbf000135-resize_4/001570_2014-06-20_17-21-09_260595134347_rgbf000135-resize_4-target.png,1000,4.467,2,5447,917,meters,jsons/v1_VE1000_randls_38.json,1333957,1603351,30,Woman
153,735548,DepthScenes,duration_manipulation_targetAtFixation,jsons/v1_VE1000_randls_38.json,http://54.235.29.9/FacialAge/BNav_EC2/DepthDuration/v2_depth_duration_MTurk/v2_DepthDuration_HTML.html#151,151,1366,768,1366,768,8-22-2022,8-0-2,154,depth_duration_stimuli/001392_2014-06-19_16-07-59_260595134347_rgbf000046-resize_1/001392_2014-06-19_16-07-59_260595134347_rgbf000046-resize_1-target.png,1000,4.135,3,8384,1006,meters,jsons/v1_VE1000_randls_38.json,1333957,1603351,30,Woman
154,735548,DepthScenes,duration_manipulation_targetAtFixation,jsons/v1_VE1000_randls_38.json,http://54.235.29.9/FacialAge/BNav_EC2/DepthDuration/v2_depth_duration_MTurk/v2_DepthDuration_HTML.html#151,151,1366,768,1366,768,8-22-2022,8-0-2,155,depth_duration_stimuli/000906_2014-06-08_13-35-43_260595134347_rgbf000155-resize_1/000906_2014-06-08_13-35-43_260595134347_rgbf000155-resize_1-target.png,1000,2.8489999999999998,2,7286,1015,meters,jsons/v1_VE1000_randls_38.json,1333957,1603351,30,Woman
155,735548,DepthScenes,duration_manipulation_targetAtFixation,jsons/v1_VE1000_randls_38.json,http://54.235.29.9/FacialAge/BNav_EC2/DepthDuration/v2_depth_duration_MTurk/v2_DepthDuration_HTML.html#151,151,1366,768,1366,768,8-22-2022,8-0-2,156,depth_duration_stimuli/002805_2014-06-22_19-54-03_094959634447_rgbf000079-resize_1/002805_2014-06-22_19-54-03_094959634447_rgbf000079-resize_1-target.png,1000,3.1439999999999997,3,5846,1001,meters,jsons/v1_VE1000_randls_38.json,1333957,1603351,30,Woman
156,735548,DepthScenes,duration_manipulation_targetAtFixation,jsons/v1_VE1000_randls_38.json,http://54.235.29.9/FacialAge/BNav_EC2/DepthDuration/v2_depth_duration_MTurk/v2_DepthDuration_HTML.html#151,151,1366,768,1366,768,8-22-2022,8-0-2,157,depth_duration_stimuli/000469_2014-06-09_19-42-10_260595134347_rgbf000081-resize_1/000469_2014-06-09_19-42-10_260595134347_rgbf000081-resize_1-target.png,1000,1.652,3,6567,983,meters,jsons/v1_VE1000_randls_38.json,1333957,1603351,30,Woman
157,735548,DepthScenes,duration_manipulation_targetAtFixation,jsons/v1_VE1000_randls_38.json,http://54.235.29.9/FacialAge/BNav_EC2/DepthDuration/v2_depth_duration_MTurk/v2_DepthDuration_HTML.html#151,151,1366,768,1366,768,8-22-2022,8-0-2,158,depth_duration_stimuli/000483_2014-06-09_20-41-45_260595134347_rgbf000116-resize_4/000483_2014-06-09_20-41-45_260595134347_rgbf000116-resize_4-target.png,1000,1.337,5,7210,977,meters,jsons/v1_VE1000_randls_38.json,1333957,1603351,30,Woman
158,735548,DepthScenes,duration_manipulation_targetAtFixation,jsons/v1_VE1000_randls_38.json,http://54.235.29.9/FacialAge/BNav_EC2/DepthDuration/v2_depth_duration_MTurk/v2_DepthDuration_HTML.html#151,151,1366,768,1366,768,8-22-2022,8-0-2,159,depth_duration_stimuli/001029_2014-06-08_13-17-57_260595134347_rgbf000065-resize_1/001029_2014-06-08_13-17-57_260595134347_rgbf000065-resize_1-target.png,1000,3.0835,6,7066,909,meters,jsons/v1_VE1000_randls_38.json,1333957,1603351,30,Woman
159,735548,DepthScenes,duration_manipulation_targetAtFixation,jsons/v1_VE1000_randls_38.json,http://54.235.29.9/FacialAge/BNav_EC2/DepthDuration/v2_depth_duration_MTurk/v2_DepthDuration_HTML.html#151,151,1366,768,1366,768,8-22-2022,8-0-2,160,depth_duration_stimuli/000677_2014-06-08_23-10-32_260595134347_rgbf000158-resize_6/000677_2014-06-08_23-10-32_260595134347_rgbf000158-resize_6-target.png,1000,3.556,3,10723,1000,meters,jsons/v1_VE1000_randls_38.json,1333957,1603351,30,Woman
160,735548,DepthScenes,duration_manipulation_targetAtFixation,jsons/v1_VE1000_randls_38.json,http://54.235.29.9/FacialAge/BNav_EC2/DepthDuration/v2_depth_duration_MTurk/v2_DepthDuration_HTML.html#151,151,1366,768,1366,768,8-22-2022,8-0-2,161,depth_duration_stimuli/000506_2014-06-08_23-21-00_260595134347_rgbf000070-resize_7/000506_2014-06-08_23-21-00_260595134347_rgbf000070-resize_7-target.png,1000,4.0585,3,6791,999,meters,jsons/v1_VE1000_randls_38.json,1333957,1603351,30,Woman
161,735548,DepthScenes,duration_manipulation_targetAtFixation,jsons/v1_VE1000_randls_38.json,http://54.235.29.9/FacialAge/BNav_EC2/DepthDuration/v2_depth_duration_MTurk/v2_DepthDuration_HTML.html#151,151,1366,768,1366,768,8-22-2022,8-0-2,162,depth_duration_stimuli/003079_2014-06-15_15-18-20_094959634447_rgbf000152-resize_8/003079_2014-06-15_15-18-20_094959634447_rgbf000152-resize_8-target.png,1000,2.8775,3,5993,1008,meters,jsons/v1_VE1000_randls_38.json,1333957,1603351,30,Woman
162,735548,DepthScenes,duration_manipulation_targetAtFixation,jsons/v1_VE1000_randls_38.json,http://54.235.29.9/FacialAge/BNav_EC2/DepthDuration/v2_depth_duration_MTurk/v2_DepthDuration_HTML.html#151,151,1366,768,1366,768,8-22-2022,8-0-2,163,depth_duration_stimuli/002039_2014-06-24_20-22-38_260595134347_rgbf000084-resize_1/002039_2014-06-24_20-22-38_260595134347_rgbf000084-resize_1-target.png,1000,4.408,3,6848,994,meters,jsons/v1_VE1000_randls_38.json,1333957,1603351,30,Woman
163,735548,DepthScenes,duration_manipulation_targetAtFixation,jsons/v1_VE1000_randls_38.json,http://54.235.29.9/FacialAge/BNav_EC2/DepthDuration/v2_depth_duration_MTurk/v2_DepthDuration_HTML.html#151,151,1366,768,1366,768,8-22-2022,8-0-2,164,depth_duration_stimuli/002103_2014-06-25_20-00-40_260595134347_rgbf000049-resize_0/002103_2014-06-25_20-00-40_260595134347_rgbf000049-resize_0-target.png,1000,4.105,6,7010,1000,meters,jsons/v1_VE1000_randls_38.json,1333957,1603351,30,Woman
