,subjID,experimentName,versionName,sequenceName,url,selected_row,windowWidth,windowHeight,screenWidth,screenHeight,startDate,startTime,trial,stimulus,duration,actual_depth,depth_estimate,trial_RT,log_sceneDuration,unitSelection,seq_filepath,experimentTime,totalTime,age,gender
0,739048,DepthScenes,duration_manipulation_targetAtFixation,jsons/v1_VE250_randls_9_rotated.json,http://54.235.29.9/FacialAge/BNav_EC2/DepthDuration/v2_depth_duration_MTurk/v2_DepthDuration_HTML.html#63,63,1536,722,1536,864,8-20-2022,11-11-47,1,depth_duration_stimuli/003490_2014-05-21_15-50-11_094959634447_rgbf000101-resize_3/003490_2014-05-21_15-50-11_094959634447_rgbf000101-resize_3-target.png,250,3.6445,2,5945,250,feet,jsons/v1_VE250_randls_9_rotated.json,639474,902905,57,Man
1,739048,DepthScenes,duration_manipulation_targetAtFixation,jsons/v1_VE250_randls_9_rotated.json,http://54.235.29.9/FacialAge/BNav_EC2/DepthDuration/v2_depth_duration_MTurk/v2_DepthDuration_HTML.html#63,63,1536,722,1536,864,8-20-2022,11-11-47,2,depth_duration_stimuli/001175_2014-06-17_15-45-55_260595134347_rgbf000129-resize_4/001175_2014-06-17_15-45-55_260595134347_rgbf000129-resize_4-target.png,250,4.255,3,3335,249,feet,jsons/v1_VE250_randls_9_rotated.json,639474,902905,57,Man
2,739048,DepthScenes,duration_manipulation_targetAtFixation,jsons/v1_VE250_randls_9_rotated.json,http://54.235.29.9/FacialAge/BNav_EC2/DepthDuration/v2_depth_duration_MTurk/v2_DepthDuration_HTML.html#63,63,1536,722,1536,864,8-20-2022,11-11-47,3,depth_duration_stimuli/002344_2014-06-28_20-06-29_260595134347_rgbf000030-resize_1/002344_2014-06-28_20-06-29_260595134347_rgbf000030-resize_1-target.png,250,1.5795,2,3438,240,feet,jsons/v1_VE250_randls_9_rotated.json,639474,902905,57,Man
3,739048,DepthScenes,duration_manipulation_targetAtFixation,jsons/v1_VE250_randls_9_rotated.json,http://54.235.29.9/FacialAge/BNav_EC2/DepthDuration/v2_depth_duration_MTurk/v2_DepthDuration_HTML.html#63,63,1536,722,1536,864,8-20-2022,11-11-47,4,depth_duration_stimuli/002725_2014-06-22_11-47-51_094959634447_rgbf000070-resize_1/002725_2014-06-22_11-47-51_094959634447_rgbf000070-resize_1-target.png,250,2.195,6,4532,248,feet,jsons/v1_VE250_randls_9_rotated.json,639474,902905,57,Man
4,739048,DepthScenes,duration_manipulation_targetAtFixation,jsons/v1_VE250_randls_9_rotated.json,http://54.235.29.9/FacialAge/BNav_EC2/DepthDuration/v2_depth_duration_MTurk/v2_DepthDuration_HTML.html#63,63,1536,722,1536,864,8-20-2022,11-11-47,5,depth_duration_stimuli/003129_2014-05-12_10-48-10_094959634447_rgbf000100-resize_0/003129_2014-05-12_10-48-10_094959634447_rgbf000100-resize_0-target.png,250,4.9305,5,4459,249,feet,jsons/v1_VE250_randls_9_rotated.json,639474,902905,57,Man
5,739048,DepthScenes,duration_manipulation_targetAtFixation,jsons/v1_VE250_randls_9_rotated.json,http://54.235.29.9/FacialAge/BNav_EC2/DepthDuration/v2_depth_duration_MTurk/v2_DepthDuration_HTML.html#63,63,1536,722,1536,864,8-20-2022,11-11-47,6,depth_duration_stimuli/000414_2014-06-04_19-49-13_260595134347_rgbf000044-resize_0/000414_2014-06-04_19-49-13_260595134347_rgbf000044-resize_0-target.png,250,4.329,4,3639,242,feet,jsons/v1_VE250_randls_9_rotated.json,639474,902905,57,Man
6,739048,DepthScenes,duration_manipulation_targetAtFixation,jsons/v1_VE250_randls_9_rotated.json,http://54.235.29.9/FacialAge/BNav_EC2/DepthDuration/v2_depth_duration_MTurk/v2_DepthDuration_HTML.html#63,63,1536,722,1536,864,8-20-2022,11-11-47,7,depth_duration_stimuli/001447_2014-06-19_17-00-32_260595134347_rgbf000082-resize_5/001447_2014-06-19_17-00-32_260595134347_rgbf000082-resize_5-target.png,250,4.13775,4,11421,239,feet,jsons/v1_VE250_randls_9_rotated.json,639474,902905,57,Man
7,739048,DepthScenes,duration_manipulation_targetAtFixation,jsons/v1_VE250_randls_9_rotated.json,http://54.235.29.9/FacialAge/BNav_EC2/DepthDuration/v2_depth_duration_MTurk/v2_DepthDuration_HTML.html#63,63,1536,722,1536,864,8-20-2022,11-11-47,8,depth_duration_stimuli/000447_2014-06-08_16-15-46_260595134347_rgbf000130-resize_1/000447_2014-06-08_16-15-46_260595134347_rgbf000130-resize_1-target.png,250,4.479,6,4379,249,feet,jsons/v1_VE250_randls_9_rotated.json,639474,902905,57,Man
8,739048,DepthScenes,duration_manipulation_targetAtFixation,jsons/v1_VE250_randls_9_rotated.json,http://54.235.29.9/FacialAge/BNav_EC2/DepthDuration/v2_depth_duration_MTurk/v2_DepthDuration_HTML.html#63,63,1536,722,1536,864,8-20-2022,11-11-47,9,depth_duration_stimuli/002758_2014-06-22_19-11-20_094959634447_rgbf000128-resize_1/002758_2014-06-22_19-11-20_094959634447_rgbf000128-resize_1-target.png,250,2.555,4,10438,237,feet,jsons/v1_VE250_randls_9_rotated.json,639474,902905,57,Man
9,739048,DepthScenes,duration_manipulation_targetAtFixation,jsons/v1_VE250_randls_9_rotated.json,http://54.235.29.9/FacialAge/BNav_EC2/DepthDuration/v2_depth_duration_MTurk/v2_DepthDuration_HTML.html#63,63,1536,722,1536,864,8-20-2022,11-11-47,10,depth_duration_stimuli/002630_2014-06-24_14-47-50_094959634447_rgbf000055-resize_1/002630_2014-06-24_14-47-50_094959634447_rgbf000055-resize_1-target.png,250,3.0095,2,2687,250,feet,jsons/v1_VE250_randls_9_rotated.json,639474,902905,57,Man
10,739048,DepthScenes,duration_manipulation_targetAtFixation,jsons/v1_VE250_randls_9_rotated.json,http://54.235.29.9/FacialAge/BNav_EC2/DepthDuration/v2_depth_duration_MTurk/v2_DepthDuration_HTML.html#63,63,1536,722,1536,864,8-20-2022,11-11-47,11,depth_duration_stimuli/002414_2014-06-28_20-24-58_260595134347_rgbf000067-resize_4/002414_2014-06-28_20-24-58_260595134347_rgbf000067-resize_4-target.png,250,4.363,3,2781,250,feet,jsons/v1_VE250_randls_9_rotated.json,639474,902905,57,Man
11,739048,DepthScenes,duration_manipulation_targetAtFixation,jsons/v1_VE250_randls_9_rotated.json,http://54.235.29.9/FacialAge/BNav_EC2/DepthDuration/v2_depth_duration_MTurk/v2_DepthDuration_HTML.html#63,63,1536,722,1536,864,8-20-2022,11-11-47,12,depth_duration_stimuli/000773_2014-06-08_22-24-54_260595134347_rgbf000093-resize_1/000773_2014-06-08_22-24-54_260595134347_rgbf000093-resize_1-target.png,250,4.973,4,2552,248,feet,jsons/v1_VE250_randls_9_rotated.json,639474,902905,57,Man
12,739048,DepthScenes,duration_manipulation_targetAtFixation,jsons/v1_VE250_randls_9_rotated.json,http://54.235.29.9/FacialAge/BNav_EC2/DepthDuration/v2_depth_duration_MTurk/v2_DepthDuration_HTML.html#63,63,1536,722,1536,864,8-20-2022,11-11-47,13,depth_duration_stimuli/001450_2014-06-19_17-02-03_260595134347_rgbf000203-resize_4/001450_2014-06-19_17-02-03_260595134347_rgbf000203-resize_4-target.png,250,4.0106666666667,5,3149,247,feet,jsons/v1_VE250_randls_9_rotated.json,639474,902905,57,Man
13,739048,DepthScenes,duration_manipulation_targetAtFixation,jsons/v1_VE250_randls_9_rotated.json,http://54.235.29.9/FacialAge/BNav_EC2/DepthDuration/v2_depth_duration_MTurk/v2_DepthDuration_HTML.html#63,63,1536,722,1536,864,8-20-2022,11-11-47,14,depth_duration_stimuli/001449_2014-06-19_17-01-27_260595134347_rgbf000116-resize_2/001449_2014-06-19_17-01-27_260595134347_rgbf000116-resize_2-target.png,250,3.452,6,3745,260,feet,jsons/v1_VE250_randls_9_rotated.json,639474,902905,57,Man
14,739048,DepthScenes,duration_manipulation_targetAtFixation,jsons/v1_VE250_randls_9_rotated.json,http://54.235.29.9/FacialAge/BNav_EC2/DepthDuration/v2_depth_duration_MTurk/v2_DepthDuration_HTML.html#63,63,1536,722,1536,864,8-20-2022,11-11-47,15,depth_duration_stimuli/003079_2014-06-15_15-18-20_094959634447_rgbf000152-resize_8/003079_2014-06-15_15-18-20_094959634447_rgbf000152-resize_8-target.png,250,2.8775,5,2977,252,feet,jsons/v1_VE250_randls_9_rotated.json,639474,902905,57,Man
15,739048,DepthScenes,duration_manipulation_targetAtFixation,jsons/v1_VE250_randls_9_rotated.json,http://54.235.29.9/FacialAge/BNav_EC2/DepthDuration/v2_depth_duration_MTurk/v2_DepthDuration_HTML.html#63,63,1536,722,1536,864,8-20-2022,11-11-47,16,depth_duration_stimuli/000506_2014-06-08_23-21-00_260595134347_rgbf000070-resize_7/000506_2014-06-08_23-21-00_260595134347_rgbf000070-resize_7-target.png,250,4.0585,4,2745,246,feet,jsons/v1_VE250_randls_9_rotated.json,639474,902905,57,Man
16,739048,DepthScenes,duration_manipulation_targetAtFixation,jsons/v1_VE250_randls_9_rotated.json,http://54.235.29.9/FacialAge/BNav_EC2/DepthDuration/v2_depth_duration_MTurk/v2_DepthDuration_HTML.html#63,63,1536,722,1536,864,8-20-2022,11-11-47,17,depth_duration_stimuli/000866_2014-06-09_20-45-42_260595134347_rgbf000139-resize_1/000866_2014-06-09_20-45-42_260595134347_rgbf000139-resize_1-target.png,250,3.2155,3,2855,258,feet,jsons/v1_VE250_randls_9_rotated.json,639474,902905,57,Man
17,739048,DepthScenes,duration_manipulation_targetAtFixation,jsons/v1_VE250_randls_9_rotated.json,http://54.235.29.9/FacialAge/BNav_EC2/DepthDuration/v2_depth_duration_MTurk/v2_DepthDuration_HTML.html#63,63,1536,722,1536,864,8-20-2022,11-11-47,18,depth_duration_stimuli/002989_2014-06-15_12-25-03_094959634447_rgbf000150-resize_3/002989_2014-06-15_12-25-03_094959634447_rgbf000150-resize_3-target.png,250,4.1975,5,3075,235,feet,jsons/v1_VE250_randls_9_rotated.json,639474,902905,57,Man
18,739048,DepthScenes,duration_manipulation_targetAtFixation,jsons/v1_VE250_randls_9_rotated.json,http://54.235.29.9/FacialAge/BNav_EC2/DepthDuration/v2_depth_duration_MTurk/v2_DepthDuration_HTML.html#63,63,1536,722,1536,864,8-20-2022,11-11-47,19,depth_duration_stimuli/001498_2014-06-19_17-45-14_260595134347_rgbf000129-resize_4/001498_2014-06-19_17-45-14_260595134347_rgbf000129-resize-original.jpg,250,1.4075,3,2836,247,feet,jsons/v1_VE250_randls_9_rotated.json,639474,902905,57,Man
19,739048,DepthScenes,duration_manipulation_targetAtFixation,jsons/v1_VE250_randls_9_rotated.json,http://54.235.29.9/FacialAge/BNav_EC2/DepthDuration/v2_depth_duration_MTurk/v2_DepthDuration_HTML.html#63,63,1536,722,1536,864,8-20-2022,11-11-47,20,depth_duration_stimuli/001392_2014-06-19_16-07-59_260595134347_rgbf000046-resize_1/001392_2014-06-19_16-07-59_260595134347_rgbf000046-resize_1-target.png,250,4.135,6,2544,252,feet,jsons/v1_VE250_randls_9_rotated.json,639474,902905,57,Man
20,739048,DepthScenes,duration_manipulation_targetAtFixation,jsons/v1_VE250_randls_9_rotated.json,http://54.235.29.9/FacialAge/BNav_EC2/DepthDuration/v2_depth_duration_MTurk/v2_DepthDuration_HTML.html#63,63,1536,722,1536,864,8-20-2022,11-11-47,21,depth_duration_stimuli/001570_2014-06-20_17-21-09_260595134347_rgbf000135-resize_4/001570_2014-06-20_17-21-09_260595134347_rgbf000135-resize_4-target.png,250,4.467,5,2540,247,feet,jsons/v1_VE250_randls_9_rotated.json,639474,902905,57,Man
21,739048,DepthScenes,duration_manipulation_targetAtFixation,jsons/v1_VE250_randls_9_rotated.json,http://54.235.29.9/FacialAge/BNav_EC2/DepthDuration/v2_depth_duration_MTurk/v2_DepthDuration_HTML.html#63,63,1536,722,1536,864,8-20-2022,11-11-47,22,depth_duration_stimuli/002639_2014-06-24_14-51-37_094959634447_rgbf000074-resize_4/002639_2014-06-24_14-51-37_094959634447_rgbf000074-resize_4-target.png,250,4.0375,2,2887,247,feet,jsons/v1_VE250_randls_9_rotated.json,639474,902905,57,Man
22,739048,DepthScenes,duration_manipulation_targetAtFixation,jsons/v1_VE250_randls_9_rotated.json,http://54.235.29.9/FacialAge/BNav_EC2/DepthDuration/v2_depth_duration_MTurk/v2_DepthDuration_HTML.html#63,63,1536,722,1536,864,8-20-2022,11-11-47,23,depth_duration_stimuli/003292_2014-05-14_21-53-49_094959634447_rgbf000100-resize_2/003292_2014-05-14_21-53-49_094959634447_rgbf000100-resize_2-target.png,250,3.4815,6,2265,247,feet,jsons/v1_VE250_randls_9_rotated.json,639474,902905,57,Man
23,739048,DepthScenes,duration_manipulation_targetAtFixation,jsons/v1_VE250_randls_9_rotated.json,http://54.235.29.9/FacialAge/BNav_EC2/DepthDuration/v2_depth_duration_MTurk/v2_DepthDuration_HTML.html#63,63,1536,722,1536,864,8-20-2022,11-11-47,24,depth_duration_stimuli/002805_2014-06-22_19-54-03_094959634447_rgbf000079-resize_1/002805_2014-06-22_19-54-03_094959634447_rgbf000079-resize_1-target.png,250,3.1439999999999997,5,2392,246,feet,jsons/v1_VE250_randls_9_rotated.json,639474,902905,57,Man
24,739048,DepthScenes,duration_manipulation_targetAtFixation,jsons/v1_VE250_randls_9_rotated.json,http://54.235.29.9/FacialAge/BNav_EC2/DepthDuration/v2_depth_duration_MTurk/v2_DepthDuration_HTML.html#63,63,1536,722,1536,864,8-20-2022,11-11-47,25,depth_duration_stimuli/000906_2014-06-08_13-35-43_260595134347_rgbf000155-resize_1/000906_2014-06-08_13-35-43_260595134347_rgbf000155-resize_1-target.png,250,2.8489999999999998,4,2321,231,feet,jsons/v1_VE250_randls_9_rotated.json,639474,902905,57,Man
25,739048,DepthScenes,duration_manipulation_targetAtFixation,jsons/v1_VE250_randls_9_rotated.json,http://54.235.29.9/FacialAge/BNav_EC2/DepthDuration/v2_depth_duration_MTurk/v2_DepthDuration_HTML.html#63,63,1536,722,1536,864,8-20-2022,11-11-47,26,depth_duration_stimuli/000635_2014-06-08_16-38-42_260595134347_rgbf000106-resize_1/000635_2014-06-08_16-38-42_260595134347_rgbf000106-resize_1-target.png,250,2.074,5,2424,239,feet,jsons/v1_VE250_randls_9_rotated.json,639474,902905,57,Man
26,739048,DepthScenes,duration_manipulation_targetAtFixation,jsons/v1_VE250_randls_9_rotated.json,http://54.235.29.9/FacialAge/BNav_EC2/DepthDuration/v2_depth_duration_MTurk/v2_DepthDuration_HTML.html#63,63,1536,722,1536,864,8-20-2022,11-11-47,27,depth_duration_stimuli/002279_2014-06-28_18-55-32_260595134347_rgbf000040-resize_5/002279_2014-06-28_18-55-32_260595134347_rgbf000040-resize_5-target.png,250,1.5043333333333,6,2447,248,feet,jsons/v1_VE250_randls_9_rotated.json,639474,902905,57,Man
27,739048,DepthScenes,duration_manipulation_targetAtFixation,jsons/v1_VE250_randls_9_rotated.json,http://54.235.29.9/FacialAge/BNav_EC2/DepthDuration/v2_depth_duration_MTurk/v2_DepthDuration_HTML.html#63,63,1536,722,1536,864,8-20-2022,11-11-47,28,depth_duration_stimuli/000556_2014-06-09_22-42-56_260595134347_rgbf000214-resize_1/000556_2014-06-09_22-42-56_260595134347_rgbf000214-resize_1-target.png,250,4.8415,2,3702,234,feet,jsons/v1_VE250_randls_9_rotated.json,639474,902905,57,Man
28,739048,DepthScenes,duration_manipulation_targetAtFixation,jsons/v1_VE250_randls_9_rotated.json,http://54.235.29.9/FacialAge/BNav_EC2/DepthDuration/v2_depth_duration_MTurk/v2_DepthDuration_HTML.html#63,63,1536,722,1536,864,8-20-2022,11-11-47,29,depth_duration_stimuli/001158_2014-06-17_15-32-16_260595134347_rgbf000138-resize_2/001158_2014-06-17_15-32-16_260595134347_rgbf000138-resize_2-target.png,250,4.5315,5,2744,244,feet,jsons/v1_VE250_randls_9_rotated.json,639474,902905,57,Man
29,739048,DepthScenes,duration_manipulation_targetAtFixation,jsons/v1_VE250_randls_9_rotated.json,http://54.235.29.9/FacialAge/BNav_EC2/DepthDuration/v2_depth_duration_MTurk/v2_DepthDuration_HTML.html#63,63,1536,722,1536,864,8-20-2022,11-11-47,30,depth_duration_stimuli/002072_2014-06-24_21-48-06_260595134347_rgbf000115-resize_0/002072_2014-06-24_21-48-06_260595134347_rgbf000115-resize-original.jpg,250,4.702,6,2418,236,feet,jsons/v1_VE250_randls_9_rotated.json,639474,902905,57,Man
30,739048,DepthScenes,duration_manipulation_targetAtFixation,jsons/v1_VE250_randls_9_rotated.json,http://54.235.29.9/FacialAge/BNav_EC2/DepthDuration/v2_depth_duration_MTurk/v2_DepthDuration_HTML.html#63,63,1536,722,1536,864,8-20-2022,11-11-47,31,depth_duration_stimuli/001650_2014-06-20_12-09-00_260595134347_rgbf000087-resize_3/001650_2014-06-20_12-09-00_260595134347_rgbf000087-resize_3-target.png,250,1.9505,5,3033,250,feet,jsons/v1_VE250_randls_9_rotated.json,639474,902905,57,Man
31,739048,DepthScenes,duration_manipulation_targetAtFixation,jsons/v1_VE250_randls_9_rotated.json,http://54.235.29.9/FacialAge/BNav_EC2/DepthDuration/v2_depth_duration_MTurk/v2_DepthDuration_HTML.html#63,63,1536,722,1536,864,8-20-2022,11-11-47,32,depth_duration_stimuli/000682_2014-06-08_23-14-58_260595134347_rgbf000041-resize_5/000682_2014-06-08_23-14-58_260595134347_rgbf000041-resize_5-target.png,250,2.7239999999999998,4,2696,261,feet,jsons/v1_VE250_randls_9_rotated.json,639474,902905,57,Man
32,739048,DepthScenes,duration_manipulation_targetAtFixation,jsons/v1_VE250_randls_9_rotated.json,http://54.235.29.9/FacialAge/BNav_EC2/DepthDuration/v2_depth_duration_MTurk/v2_DepthDuration_HTML.html#63,63,1536,722,1536,864,8-20-2022,11-11-47,33,depth_duration_stimuli/002678_2014-06-13_16-15-32_094959634447_rgbf000151-resize_6/002678_2014-06-13_16-15-32_094959634447_rgbf000151-resize_6-target.png,250,2.1830000000000003,5,5054,254,feet,jsons/v1_VE250_randls_9_rotated.json,639474,902905,57,Man
33,739048,DepthScenes,duration_manipulation_targetAtFixation,jsons/v1_VE250_randls_9_rotated.json,http://54.235.29.9/FacialAge/BNav_EC2/DepthDuration/v2_depth_duration_MTurk/v2_DepthDuration_HTML.html#63,63,1536,722,1536,864,8-20-2022,11-11-47,34,depth_duration_stimuli/000368_2014-06-09_15-53-01_260595134347_rgbf000155-resize_2/000368_2014-06-09_15-53-01_260595134347_rgbf000155-resize_2-target.png,250,2.4859999999999998,2,2259,252,feet,jsons/v1_VE250_randls_9_rotated.json,639474,902905,57,Man
34,739048,DepthScenes,duration_manipulation_targetAtFixation,jsons/v1_VE250_randls_9_rotated.json,http://54.235.29.9/FacialAge/BNav_EC2/DepthDuration/v2_depth_duration_MTurk/v2_DepthDuration_HTML.html#63,63,1536,722,1536,864,8-20-2022,11-11-47,35,depth_duration_stimuli/000742_2014-06-08_18-48-09_260595134347_rgbf000164-resize_4/000742_2014-06-08_18-48-09_260595134347_rgbf000164-resize_4-target.png,250,4.632,4,2364,240,feet,jsons/v1_VE250_randls_9_rotated.json,639474,902905,57,Man
35,739048,DepthScenes,duration_manipulation_targetAtFixation,jsons/v1_VE250_randls_9_rotated.json,http://54.235.29.9/FacialAge/BNav_EC2/DepthDuration/v2_depth_duration_MTurk/v2_DepthDuration_HTML.html#63,63,1536,722,1536,864,8-20-2022,11-11-47,36,depth_duration_stimuli/001066_2014-06-08_22-03-20_260595134347_rgbf000066-resize_4/001066_2014-06-08_22-03-20_260595134347_rgbf000066-resize_4-target.png,250,4.2330000000000005,5,2649,239,feet,jsons/v1_VE250_randls_9_rotated.json,639474,902905,57,Man
36,739048,DepthScenes,duration_manipulation_targetAtFixation,jsons/v1_VE250_randls_9_rotated.json,http://54.235.29.9/FacialAge/BNav_EC2/DepthDuration/v2_depth_duration_MTurk/v2_DepthDuration_HTML.html#63,63,1536,722,1536,864,8-20-2022,11-11-47,37,depth_duration_stimuli/000734_2014-06-08_17-39-11_260595134347_rgbf000128-resize_2/000734_2014-06-08_17-39-11_260595134347_rgbf000128-resize_2-target.png,250,4.098,6,2353,238,feet,jsons/v1_VE250_randls_9_rotated.json,639474,902905,57,Man
37,739048,DepthScenes,duration_manipulation_targetAtFixation,jsons/v1_VE250_randls_9_rotated.json,http://54.235.29.9/FacialAge/BNav_EC2/DepthDuration/v2_depth_duration_MTurk/v2_DepthDuration_HTML.html#63,63,1536,722,1536,864,8-20-2022,11-11-47,38,depth_duration_stimuli/000739_2014-06-08_18-45-58_260595134347_rgbf000068-resize_1/000739_2014-06-08_18-45-58_260595134347_rgbf000068-resize_1-target.png,250,3.534,3,2396,247,feet,jsons/v1_VE250_randls_9_rotated.json,639474,902905,57,Man
38,739048,DepthScenes,duration_manipulation_targetAtFixation,jsons/v1_VE250_randls_9_rotated.json,http://54.235.29.9/FacialAge/BNav_EC2/DepthDuration/v2_depth_duration_MTurk/v2_DepthDuration_HTML.html#63,63,1536,722,1536,864,8-20-2022,11-11-47,39,depth_duration_stimuli/002444_2014-06-28_20-32-08_260595134347_rgbf000027-resize_0/002444_2014-06-28_20-32-08_260595134347_rgbf000027-resize_0-target.png,250,4.388999999999999,6,2352,243,feet,jsons/v1_VE250_randls_9_rotated.json,639474,902905,57,Man
39,739048,DepthScenes,duration_manipulation_targetAtFixation,jsons/v1_VE250_randls_9_rotated.json,http://54.235.29.9/FacialAge/BNav_EC2/DepthDuration/v2_depth_duration_MTurk/v2_DepthDuration_HTML.html#63,63,1536,722,1536,864,8-20-2022,11-11-47,40,depth_duration_stimuli/000436_2014-06-09_22-25-11_260595134347_rgbf000137-resize_1/000436_2014-06-09_22-25-11_260595134347_rgbf000137-resize_1-target.png,250,4.0705,6,2441,246,feet,jsons/v1_VE250_randls_9_rotated.json,639474,902905,57,Man
40,739048,DepthScenes,duration_manipulation_targetAtFixation,jsons/v1_VE250_randls_9_rotated.json,http://54.235.29.9/FacialAge/BNav_EC2/DepthDuration/v2_depth_duration_MTurk/v2_DepthDuration_HTML.html#63,63,1536,722,1536,864,8-20-2022,11-11-47,41,depth_duration_stimuli/002199_2014-06-28_18-33-56_260595134347_rgbf000074-resize_0/002199_2014-06-28_18-33-56_260595134347_rgbf000074-resize_0-target.png,250,1.996,2,2382,247,feet,jsons/v1_VE250_randls_9_rotated.json,639474,902905,57,Man
41,739048,DepthScenes,duration_manipulation_targetAtFixation,jsons/v1_VE250_randls_9_rotated.json,http://54.235.29.9/FacialAge/BNav_EC2/DepthDuration/v2_depth_duration_MTurk/v2_DepthDuration_HTML.html#63,63,1536,722,1536,864,8-20-2022,11-11-47,42,depth_duration_stimuli/001056_2014-06-08_18-46-44_260595134347_rgbf000068-resize_0/001056_2014-06-08_18-46-44_260595134347_rgbf000068-resize_0-target.png,250,2.6625,5,2320,250,feet,jsons/v1_VE250_randls_9_rotated.json,639474,902905,57,Man
42,739048,DepthScenes,duration_manipulation_targetAtFixation,jsons/v1_VE250_randls_9_rotated.json,http://54.235.29.9/FacialAge/BNav_EC2/DepthDuration/v2_depth_duration_MTurk/v2_DepthDuration_HTML.html#63,63,1536,722,1536,864,8-20-2022,11-11-47,43,depth_duration_stimuli/002875_2014-06-01_15-19-00_094959634447_rgbf000151-resize_1/002875_2014-06-01_15-19-00_094959634447_rgbf000151-resize_1-target.png,250,1.9675,4,2353,250,feet,jsons/v1_VE250_randls_9_rotated.json,639474,902905,57,Man
43,739048,DepthScenes,duration_manipulation_targetAtFixation,jsons/v1_VE250_randls_9_rotated.json,http://54.235.29.9/FacialAge/BNav_EC2/DepthDuration/v2_depth_duration_MTurk/v2_DepthDuration_HTML.html#63,63,1536,722,1536,864,8-20-2022,11-11-47,44,depth_duration_stimuli/001011_2014-06-08_23-18-54_260595134347_rgbf000044-resize_4/001011_2014-06-08_23-18-54_260595134347_rgbf000044-resize_4-target.png,250,2.4730000000000003,5,2338,254,feet,jsons/v1_VE250_randls_9_rotated.json,639474,902905,57,Man
44,739048,DepthScenes,duration_manipulation_targetAtFixation,jsons/v1_VE250_randls_9_rotated.json,http://54.235.29.9/FacialAge/BNav_EC2/DepthDuration/v2_depth_duration_MTurk/v2_DepthDuration_HTML.html#63,63,1536,722,1536,864,8-20-2022,11-11-47,45,depth_duration_stimuli/000709_2014-06-08_13-51-55_260595134347_rgbf000068-resize_3/000709_2014-06-08_13-51-55_260595134347_rgbf000068-resize_3-target.png,250,1.8030000000000002,6,2605,252,feet,jsons/v1_VE250_randls_9_rotated.json,639474,902905,57,Man
45,739048,DepthScenes,duration_manipulation_targetAtFixation,jsons/v1_VE250_randls_9_rotated.json,http://54.235.29.9/FacialAge/BNav_EC2/DepthDuration/v2_depth_duration_MTurk/v2_DepthDuration_HTML.html#63,63,1536,722,1536,864,8-20-2022,11-11-47,46,depth_duration_stimuli/002057_2014-06-24_21-00-13_260595134347_rgbf000120-resize_1/002057_2014-06-24_21-00-13_260595134347_rgbf000120-resize_1-target.png,250,2.967,5,2280,238,feet,jsons/v1_VE250_randls_9_rotated.json,639474,902905,57,Man
46,739048,DepthScenes,duration_manipulation_targetAtFixation,jsons/v1_VE250_randls_9_rotated.json,http://54.235.29.9/FacialAge/BNav_EC2/DepthDuration/v2_depth_duration_MTurk/v2_DepthDuration_HTML.html#63,63,1536,722,1536,864,8-20-2022,11-11-47,47,depth_duration_stimuli/002425_2014-06-28_20-27-29_260595134347_rgbf000031-resize_8/002425_2014-06-28_20-27-29_260595134347_rgbf000031-resize_8-target.png,250,3.8960000000000004,4,2575,248,feet,jsons/v1_VE250_randls_9_rotated.json,639474,902905,57,Man
47,739048,DepthScenes,duration_manipulation_targetAtFixation,jsons/v1_VE250_randls_9_rotated.json,http://54.235.29.9/FacialAge/BNav_EC2/DepthDuration/v2_depth_duration_MTurk/v2_DepthDuration_HTML.html#63,63,1536,722,1536,864,8-20-2022,11-11-47,48,depth_duration_stimuli/000642_2014-06-08_16-59-25_260595134347_rgbf000098-resize_2/000642_2014-06-08_16-59-25_260595134347_rgbf000098-resize_2-target.png,250,2.8815,5,2686,248,feet,jsons/v1_VE250_randls_9_rotated.json,639474,902905,57,Man
48,739048,DepthScenes,duration_manipulation_targetAtFixation,jsons/v1_VE250_randls_9_rotated.json,http://54.235.29.9/FacialAge/BNav_EC2/DepthDuration/v2_depth_duration_MTurk/v2_DepthDuration_HTML.html#63,63,1536,722,1536,864,8-20-2022,11-11-47,49,depth_duration_stimuli/001170_2014-06-17_15-43-44_260595134347_rgbf000096-resize_6/001170_2014-06-17_15-43-44_260595134347_rgbf000096-resize-original.jpg,250,1.1909999999999998,3,2540,251,feet,jsons/v1_VE250_randls_9_rotated.json,639474,902905,57,Man
49,739048,DepthScenes,duration_manipulation_targetAtFixation,jsons/v1_VE250_randls_9_rotated.json,http://54.235.29.9/FacialAge/BNav_EC2/DepthDuration/v2_depth_duration_MTurk/v2_DepthDuration_HTML.html#63,63,1536,722,1536,864,8-20-2022,11-11-47,50,depth_duration_stimuli/001214_2014-06-17_16-13-55_260595134347_rgbf000111-resize_0/001214_2014-06-17_16-13-55_260595134347_rgbf000111-resize_0-target.png,250,2.6505,3,2412,247,feet,jsons/v1_VE250_randls_9_rotated.json,639474,902905,57,Man
50,739048,DepthScenes,duration_manipulation_targetAtFixation,jsons/v1_VE250_randls_9_rotated.json,http://54.235.29.9/FacialAge/BNav_EC2/DepthDuration/v2_depth_duration_MTurk/v2_DepthDuration_HTML.html#63,63,1536,722,1536,864,8-20-2022,11-11-47,51,depth_duration_stimuli/000810_2014-06-08_17-20-01_260595134347_rgbf000105-resize_0/000810_2014-06-08_17-20-01_260595134347_rgbf000105-resize_0-target.png,250,1.4865,2,2294,249,feet,jsons/v1_VE250_randls_9_rotated.json,639474,902905,57,Man
51,739048,DepthScenes,duration_manipulation_targetAtFixation,jsons/v1_VE250_randls_9_rotated.json,http://54.235.29.9/FacialAge/BNav_EC2/DepthDuration/v2_depth_duration_MTurk/v2_DepthDuration_HTML.html#63,63,1536,722,1536,864,8-20-2022,11-11-47,52,depth_duration_stimuli/002660_2014-06-13_15-44-18_094959634447_rgbf001878-resize_2/002660_2014-06-13_15-44-18_094959634447_rgbf001878-resize_2-target.png,250,3.576,2,2316,257,feet,jsons/v1_VE250_randls_9_rotated.json,639474,902905,57,Man
52,739048,DepthScenes,duration_manipulation_targetAtFixation,jsons/v1_VE250_randls_9_rotated.json,http://54.235.29.9/FacialAge/BNav_EC2/DepthDuration/v2_depth_duration_MTurk/v2_DepthDuration_HTML.html#63,63,1536,722,1536,864,8-20-2022,11-11-47,53,depth_duration_stimuli/002153_2014-06-25_21-27-18_260595134347_rgbf000038-resize_5/002153_2014-06-25_21-27-18_260595134347_rgbf000038-resize_5-target.png,250,2.505,2,2638,253,feet,jsons/v1_VE250_randls_9_rotated.json,639474,902905,57,Man
53,739048,DepthScenes,duration_manipulation_targetAtFixation,jsons/v1_VE250_randls_9_rotated.json,http://54.235.29.9/FacialAge/BNav_EC2/DepthDuration/v2_depth_duration_MTurk/v2_DepthDuration_HTML.html#63,63,1536,722,1536,864,8-20-2022,11-11-47,54,depth_duration_stimuli/000691_2014-06-08_13-08-50_260595134347_rgbf000132-resize_3/000691_2014-06-08_13-08-50_260595134347_rgbf000132-resize_3-target.png,250,4.1530000000000005,4,2204,249,feet,jsons/v1_VE250_randls_9_rotated.json,639474,902905,57,Man
54,739048,DepthScenes,duration_manipulation_targetAtFixation,jsons/v1_VE250_randls_9_rotated.json,http://54.235.29.9/FacialAge/BNav_EC2/DepthDuration/v2_depth_duration_MTurk/v2_DepthDuration_HTML.html#63,63,1536,722,1536,864,8-20-2022,11-11-47,55,depth_duration_stimuli/002213_2014-06-28_18-37-58_260595134347_rgbf000055-resize_1/002213_2014-06-28_18-37-58_260595134347_rgbf000055-resize_1-target.png,250,3.62,5,2219,252,feet,jsons/v1_VE250_randls_9_rotated.json,639474,902905,57,Man
55,739048,DepthScenes,duration_manipulation_targetAtFixation,jsons/v1_VE250_randls_9_rotated.json,http://54.235.29.9/FacialAge/BNav_EC2/DepthDuration/v2_depth_duration_MTurk/v2_DepthDuration_HTML.html#63,63,1536,722,1536,864,8-20-2022,11-11-47,56,depth_duration_stimuli/000457_2014-06-08_16-52-43_260595134347_rgbf000199-resize_1/000457_2014-06-08_16-52-43_260595134347_rgbf000199-resize_1-target.png,250,3.6489999999999996,6,2431,252,feet,jsons/v1_VE250_randls_9_rotated.json,639474,902905,57,Man
56,739048,DepthScenes,duration_manipulation_targetAtFixation,jsons/v1_VE250_randls_9_rotated.json,http://54.235.29.9/FacialAge/BNav_EC2/DepthDuration/v2_depth_duration_MTurk/v2_DepthDuration_HTML.html#63,63,1536,722,1536,864,8-20-2022,11-11-47,57,depth_duration_stimuli/000929_2014-06-09_16-33-19_260595134347_rgbf000139-resize_0/000929_2014-06-09_16-33-19_260595134347_rgbf000139-resize_0-target.png,250,2.8680000000000003,5,2301,249,feet,jsons/v1_VE250_randls_9_rotated.json,639474,902905,57,Man
57,739048,DepthScenes,duration_manipulation_targetAtFixation,jsons/v1_VE250_randls_9_rotated.json,http://54.235.29.9/FacialAge/BNav_EC2/DepthDuration/v2_depth_duration_MTurk/v2_DepthDuration_HTML.html#63,63,1536,722,1536,864,8-20-2022,11-11-47,58,depth_duration_stimuli/000103_2014-05-14_22-01-17_260595134347_rgbf000152-resize_5/000103_2014-05-14_22-01-17_260595134347_rgbf000152-resize_5-target.png,250,1.993,4,2292,250,feet,jsons/v1_VE250_randls_9_rotated.json,639474,902905,57,Man
58,739048,DepthScenes,duration_manipulation_targetAtFixation,jsons/v1_VE250_randls_9_rotated.json,http://54.235.29.9/FacialAge/BNav_EC2/DepthDuration/v2_depth_duration_MTurk/v2_DepthDuration_HTML.html#63,63,1536,722,1536,864,8-20-2022,11-11-47,59,depth_duration_stimuli/001555_2014-06-20_17-12-10_260595134347_rgbf000065-resize_4/001555_2014-06-20_17-12-10_260595134347_rgbf000065-resize_4-target.png,250,1.633,2,2776,244,feet,jsons/v1_VE250_randls_9_rotated.json,639474,902905,57,Man
59,739048,DepthScenes,duration_manipulation_targetAtFixation,jsons/v1_VE250_randls_9_rotated.json,http://54.235.29.9/FacialAge/BNav_EC2/DepthDuration/v2_depth_duration_MTurk/v2_DepthDuration_HTML.html#63,63,1536,722,1536,864,8-20-2022,11-11-47,60,depth_duration_stimuli/001052_2014-06-08_18-24-54_260595134347_rgbf000130-resize_1/001052_2014-06-08_18-24-54_260595134347_rgbf000130-resize_1-target.png,250,4.1045,5,2184,246,feet,jsons/v1_VE250_randls_9_rotated.json,639474,902905,57,Man
60,739048,DepthScenes,duration_manipulation_targetAtFixation,jsons/v1_VE250_randls_9_rotated.json,http://54.235.29.9/FacialAge/BNav_EC2/DepthDuration/v2_depth_duration_MTurk/v2_DepthDuration_HTML.html#63,63,1536,722,1536,864,8-20-2022,11-11-47,61,depth_duration_stimuli/002988_2014-06-15_12-24-20_094959634447_rgbf000150-resize_1/002988_2014-06-15_12-24-20_094959634447_rgbf000150-resize_1-target.png,250,4.7669999999999995,3,2913,236,feet,jsons/v1_VE250_randls_9_rotated.json,639474,902905,57,Man
61,739048,DepthScenes,duration_manipulation_targetAtFixation,jsons/v1_VE250_randls_9_rotated.json,http://54.235.29.9/FacialAge/BNav_EC2/DepthDuration/v2_depth_duration_MTurk/v2_DepthDuration_HTML.html#63,63,1536,722,1536,864,8-20-2022,11-11-47,62,depth_duration_stimuli/003338_2014-05-20_11-01-23_094959634447_rgbf000051-resize_6/003338_2014-05-20_11-01-23_094959634447_rgbf000051-resize_6-target.png,250,1.693,3,2500,235,feet,jsons/v1_VE250_randls_9_rotated.json,639474,902905,57,Man
62,739048,DepthScenes,duration_manipulation_targetAtFixation,jsons/v1_VE250_randls_9_rotated.json,http://54.235.29.9/FacialAge/BNav_EC2/DepthDuration/v2_depth_duration_MTurk/v2_DepthDuration_HTML.html#63,63,1536,722,1536,864,8-20-2022,11-11-47,63,depth_duration_stimuli/002509_2014-06-24_13-19-22_094959634447_rgbf000077-resize_0/002509_2014-06-24_13-19-22_094959634447_rgbf000077-resize_0-target.png,250,1.3065,2,2433,246,feet,jsons/v1_VE250_randls_9_rotated.json,639474,902905,57,Man
63,739048,DepthScenes,duration_manipulation_targetAtFixation,jsons/v1_VE250_randls_9_rotated.json,http://54.235.29.9/FacialAge/BNav_EC2/DepthDuration/v2_depth_duration_MTurk/v2_DepthDuration_HTML.html#63,63,1536,722,1536,864,8-20-2022,11-11-47,64,depth_duration_stimuli/002323_2014-06-28_20-01-54_260595134347_rgbf000051-resize_4/002323_2014-06-28_20-01-54_260595134347_rgbf000051-resize_4-target.png,250,3.7310000000000003,6,3111,244,feet,jsons/v1_VE250_randls_9_rotated.json,639474,902905,57,Man
64,739048,DepthScenes,duration_manipulation_targetAtFixation,jsons/v1_VE250_randls_9_rotated.json,http://54.235.29.9/FacialAge/BNav_EC2/DepthDuration/v2_depth_duration_MTurk/v2_DepthDuration_HTML.html#63,63,1536,722,1536,864,8-20-2022,11-11-47,65,depth_duration_stimuli/000917_2014-06-09_22-45-29_260595134347_rgbf000149-resize_3/000917_2014-06-09_22-45-29_260595134347_rgbf000149-resize_3-target.png,250,4.1865,5,2913,245,feet,jsons/v1_VE250_randls_9_rotated.json,639474,902905,57,Man
65,739048,DepthScenes,duration_manipulation_targetAtFixation,jsons/v1_VE250_randls_9_rotated.json,http://54.235.29.9/FacialAge/BNav_EC2/DepthDuration/v2_depth_duration_MTurk/v2_DepthDuration_HTML.html#63,63,1536,722,1536,864,8-20-2022,11-11-47,66,depth_duration_stimuli/001540_2014-06-20_17-01-05_260595134347_rgbf000086-resize_2/001540_2014-06-20_17-01-05_260595134347_rgbf000086-resize-original.jpg,250,1.459,4,2552,236,feet,jsons/v1_VE250_randls_9_rotated.json,639474,902905,57,Man
66,739048,DepthScenes,duration_manipulation_targetAtFixation,jsons/v1_VE250_randls_9_rotated.json,http://54.235.29.9/FacialAge/BNav_EC2/DepthDuration/v2_depth_duration_MTurk/v2_DepthDuration_HTML.html#63,63,1536,722,1536,864,8-20-2022,11-11-47,67,depth_duration_stimuli/001828_2014-06-26_21-40-03_260595134347_rgbf000024-resize_0/001828_2014-06-26_21-40-03_260595134347_rgbf000024-resize_0-target.png,250,4.8260000000000005,2,2514,237,feet,jsons/v1_VE250_randls_9_rotated.json,639474,902905,57,Man
67,739048,DepthScenes,duration_manipulation_targetAtFixation,jsons/v1_VE250_randls_9_rotated.json,http://54.235.29.9/FacialAge/BNav_EC2/DepthDuration/v2_depth_duration_MTurk/v2_DepthDuration_HTML.html#63,63,1536,722,1536,864,8-20-2022,11-11-47,68,depth_duration_stimuli/000009_2014-05-26_14-32-05_260595134347_rgbf000034-resize_3/000009_2014-05-26_14-32-05_260595134347_rgbf000034-resize_3-target.png,250,3.8715,3,2549,254,feet,jsons/v1_VE250_randls_9_rotated.json,639474,902905,57,Man
68,739048,DepthScenes,duration_manipulation_targetAtFixation,jsons/v1_VE250_randls_9_rotated.json,http://54.235.29.9/FacialAge/BNav_EC2/DepthDuration/v2_depth_duration_MTurk/v2_DepthDuration_HTML.html#63,63,1536,722,1536,864,8-20-2022,11-11-47,69,depth_duration_stimuli/003010_2014-06-15_12-54-35_094959634447_rgbf000112-resize_0/003010_2014-06-15_12-54-35_094959634447_rgbf000112-resize_0-target.png,250,3.1185,6,2271,248,feet,jsons/v1_VE250_randls_9_rotated.json,639474,902905,57,Man
69,739048,DepthScenes,duration_manipulation_targetAtFixation,jsons/v1_VE250_randls_9_rotated.json,http://54.235.29.9/FacialAge/BNav_EC2/DepthDuration/v2_depth_duration_MTurk/v2_DepthDuration_HTML.html#63,63,1536,722,1536,864,8-20-2022,11-11-47,70,depth_duration_stimuli/001810_2014-06-26_20-51-35_260595134347_rgbf000040-resize_3/001810_2014-06-26_20-51-35_260595134347_rgbf000040-resize_3-target.png,250,2.2525,3,2823,248,feet,jsons/v1_VE250_randls_9_rotated.json,639474,902905,57,Man
70,739048,DepthScenes,duration_manipulation_targetAtFixation,jsons/v1_VE250_randls_9_rotated.json,http://54.235.29.9/FacialAge/BNav_EC2/DepthDuration/v2_depth_duration_MTurk/v2_DepthDuration_HTML.html#63,63,1536,722,1536,864,8-20-2022,11-11-47,71,depth_duration_stimuli/001617_2014-06-20_11-35-32_260595134347_rgbf000066-resize_1/001617_2014-06-20_11-35-32_260595134347_rgbf000066-resize_1-target.png,250,3.7910000000000004,5,2586,247,feet,jsons/v1_VE250_randls_9_rotated.json,639474,902905,57,Man
71,739048,DepthScenes,duration_manipulation_targetAtFixation,jsons/v1_VE250_randls_9_rotated.json,http://54.235.29.9/FacialAge/BNav_EC2/DepthDuration/v2_depth_duration_MTurk/v2_DepthDuration_HTML.html#63,63,1536,722,1536,864,8-20-2022,11-11-47,72,depth_duration_stimuli/001806_2014-06-26_20-50-20_260595134347_rgbf000091-resize_1/001806_2014-06-26_20-50-20_260595134347_rgbf000091-resize_1-target.png,250,2.7305,4,2690,246,feet,jsons/v1_VE250_randls_9_rotated.json,639474,902905,57,Man
72,739048,DepthScenes,duration_manipulation_targetAtFixation,jsons/v1_VE250_randls_9_rotated.json,http://54.235.29.9/FacialAge/BNav_EC2/DepthDuration/v2_depth_duration_MTurk/v2_DepthDuration_HTML.html#63,63,1536,722,1536,864,8-20-2022,11-11-47,73,depth_duration_stimuli/000137_2014-05-20_17-04-49_260595134347_rgbf000120-resize_1/000137_2014-05-20_17-04-49_260595134347_rgbf000120-resize_1-target.png,250,3.786,5,2948,244,feet,jsons/v1_VE250_randls_9_rotated.json,639474,902905,57,Man
73,739048,DepthScenes,duration_manipulation_targetAtFixation,jsons/v1_VE250_randls_9_rotated.json,http://54.235.29.9/FacialAge/BNav_EC2/DepthDuration/v2_depth_duration_MTurk/v2_DepthDuration_HTML.html#63,63,1536,722,1536,864,8-20-2022,11-11-47,74,depth_duration_stimuli/000736_2014-06-08_18-24-15_260595134347_rgbf000206-resize_3/000736_2014-06-08_18-24-15_260595134347_rgbf000206-resize_3-target.png,250,3.515,3,2927,246,feet,jsons/v1_VE250_randls_9_rotated.json,639474,902905,57,Man
74,739048,DepthScenes,duration_manipulation_targetAtFixation,jsons/v1_VE250_randls_9_rotated.json,http://54.235.29.9/FacialAge/BNav_EC2/DepthDuration/v2_depth_duration_MTurk/v2_DepthDuration_HTML.html#63,63,1536,722,1536,864,8-20-2022,11-11-47,75,depth_duration_stimuli/002467_2014-06-28_20-38-07_260595134347_rgbf000026-resize_2/002467_2014-06-28_20-38-07_260595134347_rgbf000026-resize_2-target.png,250,4.742,5,2590,255,feet,jsons/v1_VE250_randls_9_rotated.json,639474,902905,57,Man
75,739048,DepthScenes,duration_manipulation_targetAtFixation,jsons/v1_VE250_randls_9_rotated.json,http://54.235.29.9/FacialAge/BNav_EC2/DepthDuration/v2_depth_duration_MTurk/v2_DepthDuration_HTML.html#63,63,1536,722,1536,864,8-20-2022,11-11-47,76,depth_duration_stimuli/002570_2014-06-24_13-59-54_094959634447_rgbf000059-resize_0/002570_2014-06-24_13-59-54_094959634447_rgbf000059-resize_0-target.png,250,4.037,3,2453,249,feet,jsons/v1_VE250_randls_9_rotated.json,639474,902905,57,Man
76,739048,DepthScenes,duration_manipulation_targetAtFixation,jsons/v1_VE250_randls_9_rotated.json,http://54.235.29.9/FacialAge/BNav_EC2/DepthDuration/v2_depth_duration_MTurk/v2_DepthDuration_HTML.html#63,63,1536,722,1536,864,8-20-2022,11-11-47,77,depth_duration_stimuli/003048_2014-06-15_13-49-43_094959634447_rgbf000150-resize_1/003048_2014-06-15_13-49-43_094959634447_rgbf000150-resize_1-target.png,250,4.0035,5,2377,236,feet,jsons/v1_VE250_randls_9_rotated.json,639474,902905,57,Man
77,739048,DepthScenes,duration_manipulation_targetAtFixation,jsons/v1_VE250_randls_9_rotated.json,http://54.235.29.9/FacialAge/BNav_EC2/DepthDuration/v2_depth_duration_MTurk/v2_DepthDuration_HTML.html#63,63,1536,722,1536,864,8-20-2022,11-11-47,78,depth_duration_stimuli/002043_2014-06-24_20-29-38_260595134347_rgbf000039-resize_4/002043_2014-06-24_20-29-38_260595134347_rgbf000039-resize_4-target.png,250,2.8435,35,3174,259,feet,jsons/v1_VE250_randls_9_rotated.json,639474,902905,57,Man
78,739048,DepthScenes,duration_manipulation_targetAtFixation,jsons/v1_VE250_randls_9_rotated.json,http://54.235.29.9/FacialAge/BNav_EC2/DepthDuration/v2_depth_duration_MTurk/v2_DepthDuration_HTML.html#63,63,1536,722,1536,864,8-20-2022,11-11-47,79,depth_duration_stimuli/002340_2014-06-28_20-05-46_260595134347_rgbf000113-resize_0/002340_2014-06-28_20-05-46_260595134347_rgbf000113-resize_0-target.png,250,2.4735,5,2557,241,feet,jsons/v1_VE250_randls_9_rotated.json,639474,902905,57,Man
79,739048,DepthScenes,duration_manipulation_targetAtFixation,jsons/v1_VE250_randls_9_rotated.json,http://54.235.29.9/FacialAge/BNav_EC2/DepthDuration/v2_depth_duration_MTurk/v2_DepthDuration_HTML.html#63,63,1536,722,1536,864,8-20-2022,11-11-47,80,depth_duration_stimuli/001016_2014-06-09_16-16-10_260595134347_rgbf000112-resize_5/001016_2014-06-09_16-16-10_260595134347_rgbf000112-resize_5-target.png,250,1.6565,3,3324,247,feet,jsons/v1_VE250_randls_9_rotated.json,639474,902905,57,Man
80,739048,DepthScenes,duration_manipulation_targetAtFixation,jsons/v1_VE250_randls_9_rotated.json,http://54.235.29.9/FacialAge/BNav_EC2/DepthDuration/v2_depth_duration_MTurk/v2_DepthDuration_HTML.html#63,63,1536,722,1536,864,8-20-2022,11-11-47,81,depth_duration_stimuli/001100_2014-06-15_17-46-26_260595134347_rgbf000225-resize_2/001100_2014-06-15_17-46-26_260595134347_rgbf000225-resize_2-target.png,250,2.24,2,2626,249,feet,jsons/v1_VE250_randls_9_rotated.json,639474,902905,57,Man
81,739048,DepthScenes,duration_manipulation_targetAtFixation,jsons/v1_VE250_randls_9_rotated.json,http://54.235.29.9/FacialAge/BNav_EC2/DepthDuration/v2_depth_duration_MTurk/v2_DepthDuration_HTML.html#63,63,1536,722,1536,864,8-20-2022,11-11-47,82,depth_duration_stimuli/002784_2014-06-22_19-26-30_094959634447_rgbf000083-resize_3/002784_2014-06-22_19-26-30_094959634447_rgbf000083-resize_3-target.png,250,1.8046666666667,2,2710,234,feet,jsons/v1_VE250_randls_9_rotated.json,639474,902905,57,Man
82,739048,DepthScenes,duration_manipulation_targetAtFixation,jsons/v1_VE250_randls_9_rotated.json,http://54.235.29.9/FacialAge/BNav_EC2/DepthDuration/v2_depth_duration_MTurk/v2_DepthDuration_HTML.html#63,63,1536,722,1536,864,8-20-2022,11-11-47,83,depth_duration_stimuli/000549_2014-06-08_22-10-24_260595134347_rgbf000247-resize_3/000549_2014-06-08_22-10-24_260595134347_rgbf000247-resize_3-target.png,250,1.841,5,75470,270,feet,jsons/v1_VE250_randls_9_rotated.json,639474,902905,57,Man
83,739048,DepthScenes,duration_manipulation_targetAtFixation,jsons/v1_VE250_randls_9_rotated.json,http://54.235.29.9/FacialAge/BNav_EC2/DepthDuration/v2_depth_duration_MTurk/v2_DepthDuration_HTML.html#63,63,1536,722,1536,864,8-20-2022,11-11-47,84,depth_duration_stimuli/001055_2014-06-08_18-45-35_260595134347_rgbf000111-resize_4/001055_2014-06-08_18-45-35_260595134347_rgbf000111-resize_4-target.png,250,2.4290000000000003,3,2389,251,feet,jsons/v1_VE250_randls_9_rotated.json,639474,902905,57,Man
84,739048,DepthScenes,duration_manipulation_targetAtFixation,jsons/v1_VE250_randls_9_rotated.json,http://54.235.29.9/FacialAge/BNav_EC2/DepthDuration/v2_depth_duration_MTurk/v2_DepthDuration_HTML.html#63,63,1536,722,1536,864,8-20-2022,11-11-47,85,depth_duration_stimuli/001571_2014-06-20_17-21-32_260595134347_rgbf000089-resize_1/001571_2014-06-20_17-21-32_260595134347_rgbf000089-resize_1-target.png,250,1.86,2,2779,247,feet,jsons/v1_VE250_randls_9_rotated.json,639474,902905,57,Man
85,739048,DepthScenes,duration_manipulation_targetAtFixation,jsons/v1_VE250_randls_9_rotated.json,http://54.235.29.9/FacialAge/BNav_EC2/DepthDuration/v2_depth_duration_MTurk/v2_DepthDuration_HTML.html#63,63,1536,722,1536,864,8-20-2022,11-11-47,86,depth_duration_stimuli/002272_2014-06-28_18-53-56_260595134347_rgbf000067-resize_2/002272_2014-06-28_18-53-56_260595134347_rgbf000067-resize_2-target.png,250,1.138,3,2461,248,feet,jsons/v1_VE250_randls_9_rotated.json,639474,902905,57,Man
86,739048,DepthScenes,duration_manipulation_targetAtFixation,jsons/v1_VE250_randls_9_rotated.json,http://54.235.29.9/FacialAge/BNav_EC2/DepthDuration/v2_depth_duration_MTurk/v2_DepthDuration_HTML.html#63,63,1536,722,1536,864,8-20-2022,11-11-47,87,depth_duration_stimuli/000749_2014-06-08_21-55-06_260595134347_rgbf000070-resize_2/000749_2014-06-08_21-55-06_260595134347_rgbf000070-resize_2-target.png,250,2.331,4,2225,236,feet,jsons/v1_VE250_randls_9_rotated.json,639474,902905,57,Man
87,739048,DepthScenes,duration_manipulation_targetAtFixation,jsons/v1_VE250_randls_9_rotated.json,http://54.235.29.9/FacialAge/BNav_EC2/DepthDuration/v2_depth_duration_MTurk/v2_DepthDuration_HTML.html#63,63,1536,722,1536,864,8-20-2022,11-11-47,88,depth_duration_stimuli/002788_2014-06-22_19-36-03_094959634447_rgbf000088-resize_2/002788_2014-06-22_19-36-03_094959634447_rgbf000088-resize_2-target.png,250,1.6465,5,2174,248,feet,jsons/v1_VE250_randls_9_rotated.json,639474,902905,57,Man
88,739048,DepthScenes,duration_manipulation_targetAtFixation,jsons/v1_VE250_randls_9_rotated.json,http://54.235.29.9/FacialAge/BNav_EC2/DepthDuration/v2_depth_duration_MTurk/v2_DepthDuration_HTML.html#63,63,1536,722,1536,864,8-20-2022,11-11-47,89,depth_duration_stimuli/000677_2014-06-08_23-10-32_260595134347_rgbf000158-resize_6/000677_2014-06-08_23-10-32_260595134347_rgbf000158-resize_6-target.png,250,3.556,6,2471,239,feet,jsons/v1_VE250_randls_9_rotated.json,639474,902905,57,Man
89,739048,DepthScenes,duration_manipulation_targetAtFixation,jsons/v1_VE250_randls_9_rotated.json,http://54.235.29.9/FacialAge/BNav_EC2/DepthDuration/v2_depth_duration_MTurk/v2_DepthDuration_HTML.html#63,63,1536,722,1536,864,8-20-2022,11-11-47,90,depth_duration_stimuli/001029_2014-06-08_13-17-57_260595134347_rgbf000065-resize_1/001029_2014-06-08_13-17-57_260595134347_rgbf000065-resize_1-target.png,250,3.0835,5,2366,251,feet,jsons/v1_VE250_randls_9_rotated.json,639474,902905,57,Man
90,739048,DepthScenes,duration_manipulation_targetAtFixation,jsons/v1_VE250_randls_9_rotated.json,http://54.235.29.9/FacialAge/BNav_EC2/DepthDuration/v2_depth_duration_MTurk/v2_DepthDuration_HTML.html#63,63,1536,722,1536,864,8-20-2022,11-11-47,91,depth_duration_stimuli/002568_2014-06-24_13-59-21_094959634447_rgbf000062-resize_4/002568_2014-06-24_13-59-21_094959634447_rgbf000062-resize_4-target.png,250,3.015,4,2350,242,feet,jsons/v1_VE250_randls_9_rotated.json,639474,902905,57,Man
91,739048,DepthScenes,duration_manipulation_targetAtFixation,jsons/v1_VE250_randls_9_rotated.json,http://54.235.29.9/FacialAge/BNav_EC2/DepthDuration/v2_depth_duration_MTurk/v2_DepthDuration_HTML.html#63,63,1536,722,1536,864,8-20-2022,11-11-47,92,depth_duration_stimuli/003492_2014-05-21_15-50-55_094959634447_rgbf000828-resize_1/003492_2014-05-21_15-50-55_094959634447_rgbf000828-resize_1-target.png,250,4.06875,6,3078,234,feet,jsons/v1_VE250_randls_9_rotated.json,639474,902905,57,Man
92,739048,DepthScenes,duration_manipulation_targetAtFixation,jsons/v1_VE250_randls_9_rotated.json,http://54.235.29.9/FacialAge/BNav_EC2/DepthDuration/v2_depth_duration_MTurk/v2_DepthDuration_HTML.html#63,63,1536,722,1536,864,8-20-2022,11-11-47,93,depth_duration_stimuli/002949_2014-06-26_15-57-42_094959634447_rgbf000079-resize_1/002949_2014-06-26_15-57-42_094959634447_rgbf000079-resize_1-target.png,250,1.8915,4,45144,251,feet,jsons/v1_VE250_randls_9_rotated.json,639474,902905,57,Man
93,739048,DepthScenes,duration_manipulation_targetAtFixation,jsons/v1_VE250_randls_9_rotated.json,http://54.235.29.9/FacialAge/BNav_EC2/DepthDuration/v2_depth_duration_MTurk/v2_DepthDuration_HTML.html#63,63,1536,722,1536,864,8-20-2022,11-11-47,94,depth_duration_stimuli/000522_2014-06-08_13-35-06_260595134347_rgbf000244-resize_1/000522_2014-06-08_13-35-06_260595134347_rgbf000244-resize_1-target.png,250,2.3715,3,2710,259,feet,jsons/v1_VE250_randls_9_rotated.json,639474,902905,57,Man
94,739048,DepthScenes,duration_manipulation_targetAtFixation,jsons/v1_VE250_randls_9_rotated.json,http://54.235.29.9/FacialAge/BNav_EC2/DepthDuration/v2_depth_duration_MTurk/v2_DepthDuration_HTML.html#63,63,1536,722,1536,864,8-20-2022,11-11-47,95,depth_duration_stimuli/003083_2014-06-15_15-21-03_094959634447_rgbf000063-resize_1/003083_2014-06-15_15-21-03_094959634447_rgbf000063-resize_1-target.png,250,4.1405,6,2729,256,feet,jsons/v1_VE250_randls_9_rotated.json,639474,902905,57,Man
95,739048,DepthScenes,duration_manipulation_targetAtFixation,jsons/v1_VE250_randls_9_rotated.json,http://54.235.29.9/FacialAge/BNav_EC2/DepthDuration/v2_depth_duration_MTurk/v2_DepthDuration_HTML.html#63,63,1536,722,1536,864,8-20-2022,11-11-47,96,depth_duration_stimuli/000486_2014-06-09_20-47-20_260595134347_rgbf000143-resize_2/000486_2014-06-09_20-47-20_260595134347_rgbf000143-resize_2-target.png,250,4.8325,5,2543,234,feet,jsons/v1_VE250_randls_9_rotated.json,639474,902905,57,Man
96,739048,DepthScenes,duration_manipulation_targetAtFixation,jsons/v1_VE250_randls_9_rotated.json,http://54.235.29.9/FacialAge/BNav_EC2/DepthDuration/v2_depth_duration_MTurk/v2_DepthDuration_HTML.html#63,63,1536,722,1536,864,8-20-2022,11-11-47,97,depth_duration_stimuli/001094_2014-06-15_17-36-00_260595134347_rgbf000205-resize_0/001094_2014-06-15_17-36-00_260595134347_rgbf000205-resize_0-target.png,250,4.2175,4,2400,257,feet,jsons/v1_VE250_randls_9_rotated.json,639474,902905,57,Man
97,739048,DepthScenes,duration_manipulation_targetAtFixation,jsons/v1_VE250_randls_9_rotated.json,http://54.235.29.9/FacialAge/BNav_EC2/DepthDuration/v2_depth_duration_MTurk/v2_DepthDuration_HTML.html#63,63,1536,722,1536,864,8-20-2022,11-11-47,98,depth_duration_stimuli/000692_2014-06-08_13-09-42_260595134347_rgbf000199-resize_2/000692_2014-06-08_13-09-42_260595134347_rgbf000199-resize_2-target.png,250,3.661,6,3218,241,feet,jsons/v1_VE250_randls_9_rotated.json,639474,902905,57,Man
98,739048,DepthScenes,duration_manipulation_targetAtFixation,jsons/v1_VE250_randls_9_rotated.json,http://54.235.29.9/FacialAge/BNav_EC2/DepthDuration/v2_depth_duration_MTurk/v2_DepthDuration_HTML.html#63,63,1536,722,1536,864,8-20-2022,11-11-47,99,depth_duration_stimuli/001222_2014-06-17_16-24-06_260595134347_rgbf000073-resize_0/001222_2014-06-17_16-24-06_260595134347_rgbf000073-resize-original.jpg,250,1.4385,5,2400,248,feet,jsons/v1_VE250_randls_9_rotated.json,639474,902905,57,Man
99,739048,DepthScenes,duration_manipulation_targetAtFixation,jsons/v1_VE250_randls_9_rotated.json,http://54.235.29.9/FacialAge/BNav_EC2/DepthDuration/v2_depth_duration_MTurk/v2_DepthDuration_HTML.html#63,63,1536,722,1536,864,8-20-2022,11-11-47,100,depth_duration_stimuli/002657_2014-06-13_15-29-54_094959634447_rgbf000150-resize_1/002657_2014-06-13_15-29-54_094959634447_rgbf000150-resize_1-target.png,250,4.919,4,2393,251,feet,jsons/v1_VE250_randls_9_rotated.json,639474,902905,57,Man
100,739048,DepthScenes,duration_manipulation_targetAtFixation,jsons/v1_VE250_randls_9_rotated.json,http://54.235.29.9/FacialAge/BNav_EC2/DepthDuration/v2_depth_duration_MTurk/v2_DepthDuration_HTML.html#63,63,1536,722,1536,864,8-20-2022,11-11-47,101,depth_duration_stimuli/002375_2014-06-28_20-13-44_260595134347_rgbf000032-resize_1/002375_2014-06-28_20-13-44_260595134347_rgbf000032-resize_1-target.png,250,4.0175,6,2515,245,feet,jsons/v1_VE250_randls_9_rotated.json,639474,902905,57,Man
101,739048,DepthScenes,duration_manipulation_targetAtFixation,jsons/v1_VE250_randls_9_rotated.json,http://54.235.29.9/FacialAge/BNav_EC2/DepthDuration/v2_depth_duration_MTurk/v2_DepthDuration_HTML.html#63,63,1536,722,1536,864,8-20-2022,11-11-47,102,depth_duration_stimuli/001136_2014-06-17_15-19-41_260595134347_rgbf000076-resize_3/001136_2014-06-17_15-19-41_260595134347_rgbf000076-resize_3-target.png,250,1.8655,5,2518,251,feet,jsons/v1_VE250_randls_9_rotated.json,639474,902905,57,Man
102,739048,DepthScenes,duration_manipulation_targetAtFixation,jsons/v1_VE250_randls_9_rotated.json,http://54.235.29.9/FacialAge/BNav_EC2/DepthDuration/v2_depth_duration_MTurk/v2_DepthDuration_HTML.html#63,63,1536,722,1536,864,8-20-2022,11-11-47,103,depth_duration_stimuli/001164_2014-06-17_15-35-46_260595134347_rgbf000085-resize_3/001164_2014-06-17_15-35-46_260595134347_rgbf000085-resize_3-target.png,250,2.354,6,2173,242,feet,jsons/v1_VE250_randls_9_rotated.json,639474,902905,57,Man
103,739048,DepthScenes,duration_manipulation_targetAtFixation,jsons/v1_VE250_randls_9_rotated.json,http://54.235.29.9/FacialAge/BNav_EC2/DepthDuration/v2_depth_duration_MTurk/v2_DepthDuration_HTML.html#63,63,1536,722,1536,864,8-20-2022,11-11-47,104,depth_duration_stimuli/000780_2014-06-08_22-28-29_260595134347_rgbf000126-resize_1/000780_2014-06-08_22-28-29_260595134347_rgbf000126-resize_1-target.png,250,3.3825,5,2265,247,feet,jsons/v1_VE250_randls_9_rotated.json,639474,902905,57,Man
104,739048,DepthScenes,duration_manipulation_targetAtFixation,jsons/v1_VE250_randls_9_rotated.json,http://54.235.29.9/FacialAge/BNav_EC2/DepthDuration/v2_depth_duration_MTurk/v2_DepthDuration_HTML.html#63,63,1536,722,1536,864,8-20-2022,11-11-47,105,depth_duration_stimuli/002445_2014-06-28_20-32-16_260595134347_rgbf000029-resize_4/002445_2014-06-28_20-32-16_260595134347_rgbf000029-resize_4-target.png,250,2.5315,4,2417,241,feet,jsons/v1_VE250_randls_9_rotated.json,639474,902905,57,Man
105,739048,DepthScenes,duration_manipulation_targetAtFixation,jsons/v1_VE250_randls_9_rotated.json,http://54.235.29.9/FacialAge/BNav_EC2/DepthDuration/v2_depth_duration_MTurk/v2_DepthDuration_HTML.html#63,63,1536,722,1536,864,8-20-2022,11-11-47,106,depth_duration_stimuli/000665_2014-06-09_20-42-35_260595134347_rgbf000110-resize_1/000665_2014-06-09_20-42-35_260595134347_rgbf000110-resize_1-target.png,250,3.057,4,2477,249,feet,jsons/v1_VE250_randls_9_rotated.json,639474,902905,57,Man
106,739048,DepthScenes,duration_manipulation_targetAtFixation,jsons/v1_VE250_randls_9_rotated.json,http://54.235.29.9/FacialAge/BNav_EC2/DepthDuration/v2_depth_duration_MTurk/v2_DepthDuration_HTML.html#63,63,1536,722,1536,864,8-20-2022,11-11-47,107,depth_duration_stimuli/001150_2014-06-17_15-27-34_260595134347_rgbf000108-resize_2/001150_2014-06-17_15-27-34_260595134347_rgbf000108-resize_2-target.png,250,4.0325,5,3330,250,feet,jsons/v1_VE250_randls_9_rotated.json,639474,902905,57,Man
107,739048,DepthScenes,duration_manipulation_targetAtFixation,jsons/v1_VE250_randls_9_rotated.json,http://54.235.29.9/FacialAge/BNav_EC2/DepthDuration/v2_depth_duration_MTurk/v2_DepthDuration_HTML.html#63,63,1536,722,1536,864,8-20-2022,11-11-47,108,depth_duration_stimuli/003228_2014-05-14_13-42-35_094959634447_rgbf000101-resize_1/003228_2014-05-14_13-42-35_094959634447_rgbf000101-resize_1-target.png,250,1.9680000000000002,6,2471,259,feet,jsons/v1_VE250_randls_9_rotated.json,639474,902905,57,Man
108,739048,DepthScenes,duration_manipulation_targetAtFixation,jsons/v1_VE250_randls_9_rotated.json,http://54.235.29.9/FacialAge/BNav_EC2/DepthDuration/v2_depth_duration_MTurk/v2_DepthDuration_HTML.html#63,63,1536,722,1536,864,8-20-2022,11-11-47,109,depth_duration_stimuli/002600_2014-06-24_14-27-04_094959634447_rgbf000074-resize_2/002600_2014-06-24_14-27-04_094959634447_rgbf000074-resize_2-target.png,250,2.7575,4,2275,236,feet,jsons/v1_VE250_randls_9_rotated.json,639474,902905,57,Man
109,739048,DepthScenes,duration_manipulation_targetAtFixation,jsons/v1_VE250_randls_9_rotated.json,http://54.235.29.9/FacialAge/BNav_EC2/DepthDuration/v2_depth_duration_MTurk/v2_DepthDuration_HTML.html#63,63,1536,722,1536,864,8-20-2022,11-11-47,110,depth_duration_stimuli/001032_2014-06-08_13-23-17_260595134347_rgbf000021-resize_3/001032_2014-06-08_13-23-17_260595134347_rgbf000021-resize_3-target.png,250,3.2725,4,2269,259,feet,jsons/v1_VE250_randls_9_rotated.json,639474,902905,57,Man
110,739048,DepthScenes,duration_manipulation_targetAtFixation,jsons/v1_VE250_randls_9_rotated.json,http://54.235.29.9/FacialAge/BNav_EC2/DepthDuration/v2_depth_duration_MTurk/v2_DepthDuration_HTML.html#63,63,1536,722,1536,864,8-20-2022,11-11-47,111,depth_duration_stimuli/001059_2014-06-08_21-53-27_260595134347_rgbf000061-resize_4/001059_2014-06-08_21-53-27_260595134347_rgbf000061-resize_4-target.png,250,2.4185,3,2779,270,feet,jsons/v1_VE250_randls_9_rotated.json,639474,902905,57,Man
111,739048,DepthScenes,duration_manipulation_targetAtFixation,jsons/v1_VE250_randls_9_rotated.json,http://54.235.29.9/FacialAge/BNav_EC2/DepthDuration/v2_depth_duration_MTurk/v2_DepthDuration_HTML.html#63,63,1536,722,1536,864,8-20-2022,11-11-47,112,depth_duration_stimuli/002995_2014-06-15_12-31-26_094959634447_rgbf000150-resize_1/002995_2014-06-15_12-31-26_094959634447_rgbf000150-resize_1-target.png,250,3.8360000000000003,6,2284,250,feet,jsons/v1_VE250_randls_9_rotated.json,639474,902905,57,Man
112,739048,DepthScenes,duration_manipulation_targetAtFixation,jsons/v1_VE250_randls_9_rotated.json,http://54.235.29.9/FacialAge/BNav_EC2/DepthDuration/v2_depth_duration_MTurk/v2_DepthDuration_HTML.html#63,63,1536,722,1536,864,8-20-2022,11-11-47,113,depth_duration_stimuli/002748_2014-06-22_19-07-22_094959634447_rgbf000078-resize_1/002748_2014-06-22_19-07-22_094959634447_rgbf000078-resize_1-target.png,250,4.6705,6,2290,254,feet,jsons/v1_VE250_randls_9_rotated.json,639474,902905,57,Man
113,739048,DepthScenes,duration_manipulation_targetAtFixation,jsons/v1_VE250_randls_9_rotated.json,http://54.235.29.9/FacialAge/BNav_EC2/DepthDuration/v2_depth_duration_MTurk/v2_DepthDuration_HTML.html#63,63,1536,722,1536,864,8-20-2022,11-11-47,114,depth_duration_stimuli/000191_2014-05-12_17-07-38_260595134347_rgbf000199-resize_0/000191_2014-05-12_17-07-38_260595134347_rgbf000199-resize_0-target.png,250,3.7995,6,2361,249,feet,jsons/v1_VE250_randls_9_rotated.json,639474,902905,57,Man
114,739048,DepthScenes,duration_manipulation_targetAtFixation,jsons/v1_VE250_randls_9_rotated.json,http://54.235.29.9/FacialAge/BNav_EC2/DepthDuration/v2_depth_duration_MTurk/v2_DepthDuration_HTML.html#63,63,1536,722,1536,864,8-20-2022,11-11-47,115,depth_duration_stimuli/000493_2014-06-09_21-01-18_260595134347_rgbf000196-resize_3/000493_2014-06-09_21-01-18_260595134347_rgbf000196-resize_3-target.png,250,3.44,4,2269,249,feet,jsons/v1_VE250_randls_9_rotated.json,639474,902905,57,Man
115,739048,DepthScenes,duration_manipulation_targetAtFixation,jsons/v1_VE250_randls_9_rotated.json,http://54.235.29.9/FacialAge/BNav_EC2/DepthDuration/v2_depth_duration_MTurk/v2_DepthDuration_HTML.html#63,63,1536,722,1536,864,8-20-2022,11-11-47,116,depth_duration_stimuli/001235_2014-06-17_16-37-36_260595134347_rgbf000084-resize_4/001235_2014-06-17_16-37-36_260595134347_rgbf000084-resize_4-target.png,250,3.6605,4,2368,251,feet,jsons/v1_VE250_randls_9_rotated.json,639474,902905,57,Man
116,739048,DepthScenes,duration_manipulation_targetAtFixation,jsons/v1_VE250_randls_9_rotated.json,http://54.235.29.9/FacialAge/BNav_EC2/DepthDuration/v2_depth_duration_MTurk/v2_DepthDuration_HTML.html#63,63,1536,722,1536,864,8-20-2022,11-11-47,117,depth_duration_stimuli/000788_2014-06-08_22-34-36_260595134347_rgbf000131-resize_1/000788_2014-06-08_22-34-36_260595134347_rgbf000131-resize_1-target.png,250,3.359,5,2647,245,feet,jsons/v1_VE250_randls_9_rotated.json,639474,902905,57,Man
117,739048,DepthScenes,duration_manipulation_targetAtFixation,jsons/v1_VE250_randls_9_rotated.json,http://54.235.29.9/FacialAge/BNav_EC2/DepthDuration/v2_depth_duration_MTurk/v2_DepthDuration_HTML.html#63,63,1536,722,1536,864,8-20-2022,11-11-47,118,depth_duration_stimuli/000502_2014-06-08_23-02-32_260595134347_rgbf000063-resize_4/000502_2014-06-08_23-02-32_260595134347_rgbf000063-resize_4-target.png,250,2.431,3,2231,255,feet,jsons/v1_VE250_randls_9_rotated.json,639474,902905,57,Man
118,739048,DepthScenes,duration_manipulation_targetAtFixation,jsons/v1_VE250_randls_9_rotated.json,http://54.235.29.9/FacialAge/BNav_EC2/DepthDuration/v2_depth_duration_MTurk/v2_DepthDuration_HTML.html#63,63,1536,722,1536,864,8-20-2022,11-11-47,119,depth_duration_stimuli/001199_2014-06-17_16-03-48_260595134347_rgbf000077-resize_0/001199_2014-06-17_16-03-48_260595134347_rgbf000077-resize_0-target.png,250,3.4375,3,2328,255,feet,jsons/v1_VE250_randls_9_rotated.json,639474,902905,57,Man
119,739048,DepthScenes,duration_manipulation_targetAtFixation,jsons/v1_VE250_randls_9_rotated.json,http://54.235.29.9/FacialAge/BNav_EC2/DepthDuration/v2_depth_duration_MTurk/v2_DepthDuration_HTML.html#63,63,1536,722,1536,864,8-20-2022,11-11-47,120,depth_duration_stimuli/000787_2014-06-08_22-33-53_260595134347_rgbf000175-resize_1/000787_2014-06-08_22-33-53_260595134347_rgbf000175-resize-original.jpg,250,4.784,4,2260,245,feet,jsons/v1_VE250_randls_9_rotated.json,639474,902905,57,Man
120,739048,DepthScenes,duration_manipulation_targetAtFixation,jsons/v1_VE250_randls_9_rotated.json,http://54.235.29.9/FacialAge/BNav_EC2/DepthDuration/v2_depth_duration_MTurk/v2_DepthDuration_HTML.html#63,63,1536,722,1536,864,8-20-2022,11-11-47,121,depth_duration_stimuli/001815_2014-06-26_20-52-55_260595134347_rgbf000020-resize_0/001815_2014-06-26_20-52-55_260595134347_rgbf000020-resize_0-target.png,250,3.3865,5,2617,250,feet,jsons/v1_VE250_randls_9_rotated.json,639474,902905,57,Man
121,739048,DepthScenes,duration_manipulation_targetAtFixation,jsons/v1_VE250_randls_9_rotated.json,http://54.235.29.9/FacialAge/BNav_EC2/DepthDuration/v2_depth_duration_MTurk/v2_DepthDuration_HTML.html#63,63,1536,722,1536,864,8-20-2022,11-11-47,122,depth_duration_stimuli/001808_2014-06-26_20-50-58_260595134347_rgbf000029-resize_1/001808_2014-06-26_20-50-58_260595134347_rgbf000029-resize_1-target.png,250,4.249,5,2470,242,feet,jsons/v1_VE250_randls_9_rotated.json,639474,902905,57,Man
122,739048,DepthScenes,duration_manipulation_targetAtFixation,jsons/v1_VE250_randls_9_rotated.json,http://54.235.29.9/FacialAge/BNav_EC2/DepthDuration/v2_depth_duration_MTurk/v2_DepthDuration_HTML.html#63,63,1536,722,1536,864,8-20-2022,11-11-47,123,depth_duration_stimuli/001584_2014-06-20_11-07-43_260595134347_rgbf000002-resize_1/001584_2014-06-20_11-07-43_260595134347_rgbf000002-resize_1-target.png,250,3.53,3,2652,247,feet,jsons/v1_VE250_randls_9_rotated.json,639474,902905,57,Man
123,739048,DepthScenes,duration_manipulation_targetAtFixation,jsons/v1_VE250_randls_9_rotated.json,http://54.235.29.9/FacialAge/BNav_EC2/DepthDuration/v2_depth_duration_MTurk/v2_DepthDuration_HTML.html#63,63,1536,722,1536,864,8-20-2022,11-11-47,124,depth_duration_stimuli/003621_2014-05-23_18-06-08_094959634447_rgbf000101-resize_1/003621_2014-05-23_18-06-08_094959634447_rgbf000101-resize_1-target.png,250,3.9835,6,2647,250,feet,jsons/v1_VE250_randls_9_rotated.json,639474,902905,57,Man
124,739048,DepthScenes,duration_manipulation_targetAtFixation,jsons/v1_VE250_randls_9_rotated.json,http://54.235.29.9/FacialAge/BNav_EC2/DepthDuration/v2_depth_duration_MTurk/v2_DepthDuration_HTML.html#63,63,1536,722,1536,864,8-20-2022,11-11-47,125,depth_duration_stimuli/001132_2014-06-17_14-48-54_260595134347_rgbf000100-resize_2/001132_2014-06-17_14-48-54_260595134347_rgbf000100-resize_2-target.png,250,3.753,6,2894,250,feet,jsons/v1_VE250_randls_9_rotated.json,639474,902905,57,Man
125,739048,DepthScenes,duration_manipulation_targetAtFixation,jsons/v1_VE250_randls_9_rotated.json,http://54.235.29.9/FacialAge/BNav_EC2/DepthDuration/v2_depth_duration_MTurk/v2_DepthDuration_HTML.html#63,63,1536,722,1536,864,8-20-2022,11-11-47,126,depth_duration_stimuli/001133_2014-06-17_14-49-16_260595134347_rgbf000100-resize_0/001133_2014-06-17_14-49-16_260595134347_rgbf000100-resize_0-target.png,250,4.2115,5,2200,247,feet,jsons/v1_VE250_randls_9_rotated.json,639474,902905,57,Man
126,739048,DepthScenes,duration_manipulation_targetAtFixation,jsons/v1_VE250_randls_9_rotated.json,http://54.235.29.9/FacialAge/BNav_EC2/DepthDuration/v2_depth_duration_MTurk/v2_DepthDuration_HTML.html#63,63,1536,722,1536,864,8-20-2022,11-11-47,127,depth_duration_stimuli/002103_2014-06-25_20-00-40_260595134347_rgbf000049-resize_0/002103_2014-06-25_20-00-40_260595134347_rgbf000049-resize_0-target.png,250,4.105,6,2117,247,feet,jsons/v1_VE250_randls_9_rotated.json,639474,902905,57,Man
127,739048,DepthScenes,duration_manipulation_targetAtFixation,jsons/v1_VE250_randls_9_rotated.json,http://54.235.29.9/FacialAge/BNav_EC2/DepthDuration/v2_depth_duration_MTurk/v2_DepthDuration_HTML.html#63,63,1536,722,1536,864,8-20-2022,11-11-47,128,depth_duration_stimuli/002039_2014-06-24_20-22-38_260595134347_rgbf000084-resize_1/002039_2014-06-24_20-22-38_260595134347_rgbf000084-resize_1-target.png,250,4.408,5,2223,257,feet,jsons/v1_VE250_randls_9_rotated.json,639474,902905,57,Man
128,739048,DepthScenes,duration_manipulation_targetAtFixation,jsons/v1_VE250_randls_9_rotated.json,http://54.235.29.9/FacialAge/BNav_EC2/DepthDuration/v2_depth_duration_MTurk/v2_DepthDuration_HTML.html#63,63,1536,722,1536,864,8-20-2022,11-11-47,129,depth_duration_stimuli/003495_2014-05-21_16-01-51_094959634447_rgbf000100-resize_3/003495_2014-05-21_16-01-51_094959634447_rgbf000100-resize_3-target.png,250,1.6255,3,2334,257,feet,jsons/v1_VE250_randls_9_rotated.json,639474,902905,57,Man
129,739048,DepthScenes,duration_manipulation_targetAtFixation,jsons/v1_VE250_randls_9_rotated.json,http://54.235.29.9/FacialAge/BNav_EC2/DepthDuration/v2_depth_duration_MTurk/v2_DepthDuration_HTML.html#63,63,1536,722,1536,864,8-20-2022,11-11-47,130,depth_duration_stimuli/001244_2014-06-17_16-47-45_260595134347_rgbf000030-resize_4/001244_2014-06-17_16-47-45_260595134347_rgbf000030-resize_4-target.png,250,2.0425,5,2589,248,feet,jsons/v1_VE250_randls_9_rotated.json,639474,902905,57,Man
130,739048,DepthScenes,duration_manipulation_targetAtFixation,jsons/v1_VE250_randls_9_rotated.json,http://54.235.29.9/FacialAge/BNav_EC2/DepthDuration/v2_depth_duration_MTurk/v2_DepthDuration_HTML.html#63,63,1536,722,1536,864,8-20-2022,11-11-47,131,depth_duration_stimuli/000927_2014-06-09_16-32-30_260595134347_rgbf000123-resize_3/000927_2014-06-09_16-32-30_260595134347_rgbf000123-resize_3-target.png,250,2.6785,6,2464,245,feet,jsons/v1_VE250_randls_9_rotated.json,639474,902905,57,Man
131,739048,DepthScenes,duration_manipulation_targetAtFixation,jsons/v1_VE250_randls_9_rotated.json,http://54.235.29.9/FacialAge/BNav_EC2/DepthDuration/v2_depth_duration_MTurk/v2_DepthDuration_HTML.html#63,63,1536,722,1536,864,8-20-2022,11-11-47,132,depth_duration_stimuli/001110_2014-06-15_17-25-28_260595134347_rgbf000150-resize_1/001110_2014-06-15_17-25-28_260595134347_rgbf000150-resize_1-target.png,250,1.7115,5,2379,250,feet,jsons/v1_VE250_randls_9_rotated.json,639474,902905,57,Man
132,739048,DepthScenes,duration_manipulation_targetAtFixation,jsons/v1_VE250_randls_9_rotated.json,http://54.235.29.9/FacialAge/BNav_EC2/DepthDuration/v2_depth_duration_MTurk/v2_DepthDuration_HTML.html#63,63,1536,722,1536,864,8-20-2022,11-11-47,133,depth_duration_stimuli/000943_2014-06-09_19-31-07_260595134347_rgbf000128-resize_1/000943_2014-06-09_19-31-07_260595134347_rgbf000128-resize_1-target.png,250,1.9765,4,2385,248,feet,jsons/v1_VE250_randls_9_rotated.json,639474,902905,57,Man
133,739048,DepthScenes,duration_manipulation_targetAtFixation,jsons/v1_VE250_randls_9_rotated.json,http://54.235.29.9/FacialAge/BNav_EC2/DepthDuration/v2_depth_duration_MTurk/v2_DepthDuration_HTML.html#63,63,1536,722,1536,864,8-20-2022,11-11-47,134,depth_duration_stimuli/003070_2014-06-15_14-58-27_094959634447_rgbf000150-resize_3/003070_2014-06-15_14-58-27_094959634447_rgbf000150-resize_3-target.png,250,2.9415,6,2436,250,feet,jsons/v1_VE250_randls_9_rotated.json,639474,902905,57,Man
134,739048,DepthScenes,duration_manipulation_targetAtFixation,jsons/v1_VE250_randls_9_rotated.json,http://54.235.29.9/FacialAge/BNav_EC2/DepthDuration/v2_depth_duration_MTurk/v2_DepthDuration_HTML.html#63,63,1536,722,1536,864,8-20-2022,11-11-47,135,depth_duration_stimuli/000375_2014-06-08_11-17-29_260595134347_rgbf000133-resize_2/000375_2014-06-08_11-17-29_260595134347_rgbf000133-resize-original.jpg,250,4.718,5,2430,249,feet,jsons/v1_VE250_randls_9_rotated.json,639474,902905,57,Man
135,739048,DepthScenes,duration_manipulation_targetAtFixation,jsons/v1_VE250_randls_9_rotated.json,http://54.235.29.9/FacialAge/BNav_EC2/DepthDuration/v2_depth_duration_MTurk/v2_DepthDuration_HTML.html#63,63,1536,722,1536,864,8-20-2022,11-11-47,136,depth_duration_stimuli/002545_2014-06-24_13-38-53_094959634447_rgbf000080-resize_4/002545_2014-06-24_13-38-53_094959634447_rgbf000080-resize_4-target.png,250,1.9205,4,2162,248,feet,jsons/v1_VE250_randls_9_rotated.json,639474,902905,57,Man
136,739048,DepthScenes,duration_manipulation_targetAtFixation,jsons/v1_VE250_randls_9_rotated.json,http://54.235.29.9/FacialAge/BNav_EC2/DepthDuration/v2_depth_duration_MTurk/v2_DepthDuration_HTML.html#63,63,1536,722,1536,864,8-20-2022,11-11-47,137,depth_duration_stimuli/001092_2014-06-15_17-34-58_260595134347_rgbf000171-resize_3/001092_2014-06-15_17-34-58_260595134347_rgbf000171-resize_3-target.png,250,2.6935,5,2039,246,feet,jsons/v1_VE250_randls_9_rotated.json,639474,902905,57,Man
137,739048,DepthScenes,duration_manipulation_targetAtFixation,jsons/v1_VE250_randls_9_rotated.json,http://54.235.29.9/FacialAge/BNav_EC2/DepthDuration/v2_depth_duration_MTurk/v2_DepthDuration_HTML.html#63,63,1536,722,1536,864,8-20-2022,11-11-47,138,depth_duration_stimuli/003081_2014-06-15_15-19-16_094959634447_rgbf000150-resize_1/003081_2014-06-15_15-19-16_094959634447_rgbf000150-resize_1-target.png,250,3.9125,5,3075,251,feet,jsons/v1_VE250_randls_9_rotated.json,639474,902905,57,Man
138,739048,DepthScenes,duration_manipulation_targetAtFixation,jsons/v1_VE250_randls_9_rotated.json,http://54.235.29.9/FacialAge/BNav_EC2/DepthDuration/v2_depth_duration_MTurk/v2_DepthDuration_HTML.html#63,63,1536,722,1536,864,8-20-2022,11-11-47,139,depth_duration_stimuli/001417_2014-06-19_16-25-36_260595134347_rgbf000115-resize_5/001417_2014-06-19_16-25-36_260595134347_rgbf000115-resize_5-target.png,250,4.6255,5,2096,248,feet,jsons/v1_VE250_randls_9_rotated.json,639474,902905,57,Man
139,739048,DepthScenes,duration_manipulation_targetAtFixation,jsons/v1_VE250_randls_9_rotated.json,http://54.235.29.9/FacialAge/BNav_EC2/DepthDuration/v2_depth_duration_MTurk/v2_DepthDuration_HTML.html#63,63,1536,722,1536,864,8-20-2022,11-11-47,140,depth_duration_stimuli/002953_2014-06-08_17-32-18_094959634447_rgbf000059-resize_5/002953_2014-06-08_17-32-18_094959634447_rgbf000059-resize_5-target.png,250,1.551,4,2076,244,feet,jsons/v1_VE250_randls_9_rotated.json,639474,902905,57,Man
140,739048,DepthScenes,duration_manipulation_targetAtFixation,jsons/v1_VE250_randls_9_rotated.json,http://54.235.29.9/FacialAge/BNav_EC2/DepthDuration/v2_depth_duration_MTurk/v2_DepthDuration_HTML.html#63,63,1536,722,1536,864,8-20-2022,11-11-47,141,depth_duration_stimuli/000878_2014-06-08_22-52-45_260595134347_rgbf000045-resize_2/000878_2014-06-08_22-52-45_260595134347_rgbf000045-resize_2-target.png,250,2.092,6,1966,240,feet,jsons/v1_VE250_randls_9_rotated.json,639474,902905,57,Man
141,739048,DepthScenes,duration_manipulation_targetAtFixation,jsons/v1_VE250_randls_9_rotated.json,http://54.235.29.9/FacialAge/BNav_EC2/DepthDuration/v2_depth_duration_MTurk/v2_DepthDuration_HTML.html#63,63,1536,722,1536,864,8-20-2022,11-11-47,142,depth_duration_stimuli/003587_2014-05-23_16-48-02_094959634447_rgbf002384-resize_2/003587_2014-05-23_16-48-02_094959634447_rgbf002384-resize_2-target.png,250,1.357,3,2188,247,feet,jsons/v1_VE250_randls_9_rotated.json,639474,902905,57,Man
142,739048,DepthScenes,duration_manipulation_targetAtFixation,jsons/v1_VE250_randls_9_rotated.json,http://54.235.29.9/FacialAge/BNav_EC2/DepthDuration/v2_depth_duration_MTurk/v2_DepthDuration_HTML.html#63,63,1536,722,1536,864,8-20-2022,11-11-47,143,depth_duration_stimuli/001167_2014-06-17_15-38-07_260595134347_rgbf000108-resize_0/001167_2014-06-17_15-38-07_260595134347_rgbf000108-resize_0-target.png,250,1.8505,4,2064,258,feet,jsons/v1_VE250_randls_9_rotated.json,639474,902905,57,Man
143,739048,DepthScenes,duration_manipulation_targetAtFixation,jsons/v1_VE250_randls_9_rotated.json,http://54.235.29.9/FacialAge/BNav_EC2/DepthDuration/v2_depth_duration_MTurk/v2_DepthDuration_HTML.html#63,63,1536,722,1536,864,8-20-2022,11-11-47,144,depth_duration_stimuli/002637_2014-06-24_14-51-13_094959634447_rgbf000066-resize_4/002637_2014-06-24_14-51-13_094959634447_rgbf000066-resize_4-target.png,250,1.9955,5,2026,242,feet,jsons/v1_VE250_randls_9_rotated.json,639474,902905,57,Man
144,739048,DepthScenes,duration_manipulation_targetAtFixation,jsons/v1_VE250_randls_9_rotated.json,http://54.235.29.9/FacialAge/BNav_EC2/DepthDuration/v2_depth_duration_MTurk/v2_DepthDuration_HTML.html#63,63,1536,722,1536,864,8-20-2022,11-11-47,145,depth_duration_stimuli/003534_2014-05-22_15-06-10_094959634447_rgbf000102-resize_4/003534_2014-05-22_15-06-10_094959634447_rgbf000102-resize_4-target.png,250,1.426,3,1988,249,feet,jsons/v1_VE250_randls_9_rotated.json,639474,902905,57,Man
145,739048,DepthScenes,duration_manipulation_targetAtFixation,jsons/v1_VE250_randls_9_rotated.json,http://54.235.29.9/FacialAge/BNav_EC2/DepthDuration/v2_depth_duration_MTurk/v2_DepthDuration_HTML.html#63,63,1536,722,1536,864,8-20-2022,11-11-47,146,depth_duration_stimuli/002209_2014-06-28_18-36-10_260595134347_rgbf000051-resize_1/002209_2014-06-28_18-36-10_260595134347_rgbf000051-resize_1-target.png,250,2.057,4,1970,254,feet,jsons/v1_VE250_randls_9_rotated.json,639474,902905,57,Man
146,739048,DepthScenes,duration_manipulation_targetAtFixation,jsons/v1_VE250_randls_9_rotated.json,http://54.235.29.9/FacialAge/BNav_EC2/DepthDuration/v2_depth_duration_MTurk/v2_DepthDuration_HTML.html#63,63,1536,722,1536,864,8-20-2022,11-11-47,147,depth_duration_stimuli/002763_2014-06-22_19-13-10_094959634447_rgbf000075-resize_4/002763_2014-06-22_19-13-10_094959634447_rgbf000075-resize_4-target.png,250,1.68375,5,2079,244,feet,jsons/v1_VE250_randls_9_rotated.json,639474,902905,57,Man
147,739048,DepthScenes,duration_manipulation_targetAtFixation,jsons/v1_VE250_randls_9_rotated.json,http://54.235.29.9/FacialAge/BNav_EC2/DepthDuration/v2_depth_duration_MTurk/v2_DepthDuration_HTML.html#63,63,1536,722,1536,864,8-20-2022,11-11-47,148,depth_duration_stimuli/002136_2014-06-25_21-18-03_260595134347_rgbf000109-resize_3/002136_2014-06-25_21-18-03_260595134347_rgbf000109-resize_3-target.png,250,1.9569999999999999,4,2018,249,feet,jsons/v1_VE250_randls_9_rotated.json,639474,902905,57,Man
148,739048,DepthScenes,duration_manipulation_targetAtFixation,jsons/v1_VE250_randls_9_rotated.json,http://54.235.29.9/FacialAge/BNav_EC2/DepthDuration/v2_depth_duration_MTurk/v2_DepthDuration_HTML.html#63,63,1536,722,1536,864,8-20-2022,11-11-47,149,depth_duration_stimuli/002964_2014-06-08_17-46-11_094959634447_rgbf000091-resize_4/002964_2014-06-08_17-46-11_094959634447_rgbf000091-resize_4-target.png,250,1.6909999999999998,3,1968,249,feet,jsons/v1_VE250_randls_9_rotated.json,639474,902905,57,Man
149,739048,DepthScenes,duration_manipulation_targetAtFixation,jsons/v1_VE250_randls_9_rotated.json,http://54.235.29.9/FacialAge/BNav_EC2/DepthDuration/v2_depth_duration_MTurk/v2_DepthDuration_HTML.html#63,63,1536,722,1536,864,8-20-2022,11-11-47,150,depth_duration_stimuli/000409_2014-06-04_19-23-33_260595134347_rgbf000067-resize_0/000409_2014-06-04_19-23-33_260595134347_rgbf000067-resize_0-target.png,250,3.7335,3,2029,248,feet,jsons/v1_VE250_randls_9_rotated.json,639474,902905,57,Man
150,739048,DepthScenes,duration_manipulation_targetAtFixation,jsons/v1_VE250_randls_9_rotated.json,http://54.235.29.9/FacialAge/BNav_EC2/DepthDuration/v2_depth_duration_MTurk/v2_DepthDuration_HTML.html#63,63,1536,722,1536,864,8-20-2022,11-11-47,151,depth_duration_stimuli/002663_2014-06-13_15-50-26_094959634447_rgbf000075-resize_1/002663_2014-06-13_15-50-26_094959634447_rgbf000075-resize_1-target.png,250,4.7495,4,2051,247,feet,jsons/v1_VE250_randls_9_rotated.json,639474,902905,57,Man
151,739048,DepthScenes,duration_manipulation_targetAtFixation,jsons/v1_VE250_randls_9_rotated.json,http://54.235.29.9/FacialAge/BNav_EC2/DepthDuration/v2_depth_duration_MTurk/v2_DepthDuration_HTML.html#63,63,1536,722,1536,864,8-20-2022,11-11-47,152,depth_duration_stimuli/000569_2014-06-09_22-51-47_260595134347_rgbf000141-resize_3/000569_2014-06-09_22-51-47_260595134347_rgbf000141-resize-original.jpg,250,4.512,4,2099,250,feet,jsons/v1_VE250_randls_9_rotated.json,639474,902905,57,Man
152,739048,DepthScenes,duration_manipulation_targetAtFixation,jsons/v1_VE250_randls_9_rotated.json,http://54.235.29.9/FacialAge/BNav_EC2/DepthDuration/v2_depth_duration_MTurk/v2_DepthDuration_HTML.html#63,63,1536,722,1536,864,8-20-2022,11-11-47,153,depth_duration_stimuli/000483_2014-06-09_20-41-45_260595134347_rgbf000116-resize_4/000483_2014-06-09_20-41-45_260595134347_rgbf000116-resize_4-target.png,250,1.337,5,5869,242,feet,jsons/v1_VE250_randls_9_rotated.json,639474,902905,57,Man
153,739048,DepthScenes,duration_manipulation_targetAtFixation,jsons/v1_VE250_randls_9_rotated.json,http://54.235.29.9/FacialAge/BNav_EC2/DepthDuration/v2_depth_duration_MTurk/v2_DepthDuration_HTML.html#63,63,1536,722,1536,864,8-20-2022,11-11-47,154,depth_duration_stimuli/000469_2014-06-09_19-42-10_260595134347_rgbf000081-resize_1/000469_2014-06-09_19-42-10_260595134347_rgbf000081-resize_1-target.png,250,1.652,3,1953,248,feet,jsons/v1_VE250_randls_9_rotated.json,639474,902905,57,Man
154,739048,DepthScenes,duration_manipulation_targetAtFixation,jsons/v1_VE250_randls_9_rotated.json,http://54.235.29.9/FacialAge/BNav_EC2/DepthDuration/v2_depth_duration_MTurk/v2_DepthDuration_HTML.html#63,63,1536,722,1536,864,8-20-2022,11-11-47,155,depth_duration_stimuli/002750_2014-06-22_19-08-03_094959634447_rgbf000094-resize_4/002750_2014-06-22_19-08-03_094959634447_rgbf000094-resize_4-target.png,250,2.354,4,2120,258,feet,jsons/v1_VE250_randls_9_rotated.json,639474,902905,57,Man
155,739048,DepthScenes,duration_manipulation_targetAtFixation,jsons/v1_VE250_randls_9_rotated.json,http://54.235.29.9/FacialAge/BNav_EC2/DepthDuration/v2_depth_duration_MTurk/v2_DepthDuration_HTML.html#63,63,1536,722,1536,864,8-20-2022,11-11-47,156,depth_duration_stimuli/002549_2014-06-24_13-41-39_094959634447_rgbf000022-resize_3/002549_2014-06-24_13-41-39_094959634447_rgbf000022-resize_3-target.png,250,1.476,5,2590,238,feet,jsons/v1_VE250_randls_9_rotated.json,639474,902905,57,Man
156,739048,DepthScenes,duration_manipulation_targetAtFixation,jsons/v1_VE250_randls_9_rotated.json,http://54.235.29.9/FacialAge/BNav_EC2/DepthDuration/v2_depth_duration_MTurk/v2_DepthDuration_HTML.html#63,63,1536,722,1536,864,8-20-2022,11-11-47,157,depth_duration_stimuli/001516_2014-06-20_16-25-09_260595134347_rgbf000076-resize_2/001516_2014-06-20_16-25-09_260595134347_rgbf000076-resize_2-target.png,250,1.7445,6,2345,248,feet,jsons/v1_VE250_randls_9_rotated.json,639474,902905,57,Man
157,739048,DepthScenes,duration_manipulation_targetAtFixation,jsons/v1_VE250_randls_9_rotated.json,http://54.235.29.9/FacialAge/BNav_EC2/DepthDuration/v2_depth_duration_MTurk/v2_DepthDuration_HTML.html#63,63,1536,722,1536,864,8-20-2022,11-11-47,158,depth_duration_stimuli/002118_2014-06-25_20-32-08_260595134347_rgbf000078-resize_1/002118_2014-06-25_20-32-08_260595134347_rgbf000078-resize_1-target.png,250,2.6460000000000004,6,2023,245,feet,jsons/v1_VE250_randls_9_rotated.json,639474,902905,57,Man
158,739048,DepthScenes,duration_manipulation_targetAtFixation,jsons/v1_VE250_randls_9_rotated.json,http://54.235.29.9/FacialAge/BNav_EC2/DepthDuration/v2_depth_duration_MTurk/v2_DepthDuration_HTML.html#63,63,1536,722,1536,864,8-20-2022,11-11-47,159,depth_duration_stimuli/003423_2014-05-21_10-23-26_094959634447_rgbf002665-resize_2/003423_2014-05-21_10-23-26_094959634447_rgbf002665-resize_2-target.png,250,3.2575,5,2134,252,feet,jsons/v1_VE250_randls_9_rotated.json,639474,902905,57,Man
159,739048,DepthScenes,duration_manipulation_targetAtFixation,jsons/v1_VE250_randls_9_rotated.json,http://54.235.29.9/FacialAge/BNav_EC2/DepthDuration/v2_depth_duration_MTurk/v2_DepthDuration_HTML.html#63,63,1536,722,1536,864,8-20-2022,11-11-47,160,depth_duration_stimuli/002905_2014-06-03_18-04-43_094959634447_rgbf000151-resize_2/002905_2014-06-03_18-04-43_094959634447_rgbf000151-resize_2-target.png,250,2.0295,4,1959,254,feet,jsons/v1_VE250_randls_9_rotated.json,639474,902905,57,Man
160,739048,DepthScenes,duration_manipulation_targetAtFixation,jsons/v1_VE250_randls_9_rotated.json,http://54.235.29.9/FacialAge/BNav_EC2/DepthDuration/v2_depth_duration_MTurk/v2_DepthDuration_HTML.html#63,63,1536,722,1536,864,8-20-2022,11-11-47,161,depth_duration_stimuli/000854_2014-06-09_19-43-13_260595134347_rgbf000066-resize_0/000854_2014-06-09_19-43-13_260595134347_rgbf000066-resize_0-target.png,250,3.068,4,1921,249,feet,jsons/v1_VE250_randls_9_rotated.json,639474,902905,57,Man
161,739048,DepthScenes,duration_manipulation_targetAtFixation,jsons/v1_VE250_randls_9_rotated.json,http://54.235.29.9/FacialAge/BNav_EC2/DepthDuration/v2_depth_duration_MTurk/v2_DepthDuration_HTML.html#63,63,1536,722,1536,864,8-20-2022,11-11-47,162,depth_duration_stimuli/000758_2014-06-08_22-05-08_260595134347_rgbf000085-resize_0/000758_2014-06-08_22-05-08_260595134347_rgbf000085-resize_0-target.png,250,3.3810000000000002,6,1926,249,feet,jsons/v1_VE250_randls_9_rotated.json,639474,902905,57,Man
162,739048,DepthScenes,duration_manipulation_targetAtFixation,jsons/v1_VE250_randls_9_rotated.json,http://54.235.29.9/FacialAge/BNav_EC2/DepthDuration/v2_depth_duration_MTurk/v2_DepthDuration_HTML.html#63,63,1536,722,1536,864,8-20-2022,11-11-47,163,depth_duration_stimuli/000109_2014-05-14_23-41-52_260595134347_rgbf000035-resize_9/000109_2014-05-14_23-41-52_260595134347_rgbf000035-resize_9-target.png,250,1.3545,3,2077,248,feet,jsons/v1_VE250_randls_9_rotated.json,639474,902905,57,Man
163,739048,DepthScenes,duration_manipulation_targetAtFixation,jsons/v1_VE250_randls_9_rotated.json,http://54.235.29.9/FacialAge/BNav_EC2/DepthDuration/v2_depth_duration_MTurk/v2_DepthDuration_HTML.html#63,63,1536,722,1536,864,8-20-2022,11-11-47,164,depth_duration_stimuli/000470_2014-06-09_19-42-40_260595134347_rgbf000094-resize_1/000470_2014-06-09_19-42-40_260595134347_rgbf000094-resize_1-target.png,250,1.831,4,1874,243,feet,jsons/v1_VE250_randls_9_rotated.json,639474,902905,57,Man
