,subjID,experimentName,versionName,sequenceName,url,selected_row,windowWidth,windowHeight,screenWidth,screenHeight,startDate,startTime,trial,stimulus,duration,actual_depth,depth_estimate,trial_RT,log_sceneDuration,unitSelection,seq_filepath,experimentTime,totalTime,age,gender
0,739896,DepthScenes,duration_manipulation_targetAtFixation,jsons/v1_VE250_randls_17.json,http://54.235.29.9/FacialAge/BNav_EC2/DepthDuration/v2_depth_duration_MTurk/v2_DepthDuration_HTML.html#430,430,1366,625,1366,768,8-29-2022,15-52-52,1,depth_duration_stimuli/002600_2014-06-24_14-27-04_094959634447_rgbf000074-resize_2/002600_2014-06-24_14-27-04_094959634447_rgbf000074-resize_2-target.png,250,2.7575,3,5341,256,meters,jsons/v1_VE250_randls_17.json,1014903,1195974,57,Man
1,739896,DepthScenes,duration_manipulation_targetAtFixation,jsons/v1_VE250_randls_17.json,http://54.235.29.9/FacialAge/BNav_EC2/DepthDuration/v2_depth_duration_MTurk/v2_DepthDuration_HTML.html#430,430,1366,625,1366,768,8-29-2022,15-52-52,2,depth_duration_stimuli/003228_2014-05-14_13-42-35_094959634447_rgbf000101-resize_1/003228_2014-05-14_13-42-35_094959634447_rgbf000101-resize_1-target.png,250,1.9680000000000002,3,70104,247,meters,jsons/v1_VE250_randls_17.json,1014903,1195974,57,Man
2,739896,DepthScenes,duration_manipulation_targetAtFixation,jsons/v1_VE250_randls_17.json,http://54.235.29.9/FacialAge/BNav_EC2/DepthDuration/v2_depth_duration_MTurk/v2_DepthDuration_HTML.html#430,430,1366,625,1366,768,8-29-2022,15-52-52,3,depth_duration_stimuli/002039_2014-06-24_20-22-38_260595134347_rgbf000084-resize_1/002039_2014-06-24_20-22-38_260595134347_rgbf000084-resize_1-target.png,250,4.408,5,3993,254,meters,jsons/v1_VE250_randls_17.json,1014903,1195974,57,Man
3,739896,DepthScenes,duration_manipulation_targetAtFixation,jsons/v1_VE250_randls_17.json,http://54.235.29.9/FacialAge/BNav_EC2/DepthDuration/v2_depth_duration_MTurk/v2_DepthDuration_HTML.html#430,430,1366,625,1366,768,8-29-2022,15-52-52,4,depth_duration_stimuli/002103_2014-06-25_20-00-40_260595134347_rgbf000049-resize_0/002103_2014-06-25_20-00-40_260595134347_rgbf000049-resize_0-target.png,250,4.105,6,4151,248,meters,jsons/v1_VE250_randls_17.json,1014903,1195974,57,Man
4,739896,DepthScenes,duration_manipulation_targetAtFixation,jsons/v1_VE250_randls_17.json,http://54.235.29.9/FacialAge/BNav_EC2/DepthDuration/v2_depth_duration_MTurk/v2_DepthDuration_HTML.html#430,430,1366,625,1366,768,8-29-2022,15-52-52,5,depth_duration_stimuli/003621_2014-05-23_18-06-08_094959634447_rgbf000101-resize_1/003621_2014-05-23_18-06-08_094959634447_rgbf000101-resize_1-target.png,250,3.9835,3,4304,236,meters,jsons/v1_VE250_randls_17.json,1014903,1195974,57,Man
5,739896,DepthScenes,duration_manipulation_targetAtFixation,jsons/v1_VE250_randls_17.json,http://54.235.29.9/FacialAge/BNav_EC2/DepthDuration/v2_depth_duration_MTurk/v2_DepthDuration_HTML.html#430,430,1366,625,1366,768,8-29-2022,15-52-52,6,depth_duration_stimuli/001584_2014-06-20_11-07-43_260595134347_rgbf000002-resize_1/001584_2014-06-20_11-07-43_260595134347_rgbf000002-resize_1-target.png,250,3.53,4,3650,214,meters,jsons/v1_VE250_randls_17.json,1014903,1195974,57,Man
6,739896,DepthScenes,duration_manipulation_targetAtFixation,jsons/v1_VE250_randls_17.json,http://54.235.29.9/FacialAge/BNav_EC2/DepthDuration/v2_depth_duration_MTurk/v2_DepthDuration_HTML.html#430,430,1366,625,1366,768,8-29-2022,15-52-52,7,depth_duration_stimuli/002375_2014-06-28_20-13-44_260595134347_rgbf000032-resize_1/002375_2014-06-28_20-13-44_260595134347_rgbf000032-resize_1-target.png,250,4.0175,2,3128,247,meters,jsons/v1_VE250_randls_17.json,1014903,1195974,57,Man
7,739896,DepthScenes,duration_manipulation_targetAtFixation,jsons/v1_VE250_randls_17.json,http://54.235.29.9/FacialAge/BNav_EC2/DepthDuration/v2_depth_duration_MTurk/v2_DepthDuration_HTML.html#430,430,1366,625,1366,768,8-29-2022,15-52-52,8,depth_duration_stimuli/002657_2014-06-13_15-29-54_094959634447_rgbf000150-resize_1/002657_2014-06-13_15-29-54_094959634447_rgbf000150-resize_1-target.png,250,4.919,3,3080,241,meters,jsons/v1_VE250_randls_17.json,1014903,1195974,57,Man
8,739896,DepthScenes,duration_manipulation_targetAtFixation,jsons/v1_VE250_randls_17.json,http://54.235.29.9/FacialAge/BNav_EC2/DepthDuration/v2_depth_duration_MTurk/v2_DepthDuration_HTML.html#430,430,1366,625,1366,768,8-29-2022,15-52-52,9,depth_duration_stimuli/001199_2014-06-17_16-03-48_260595134347_rgbf000077-resize_0/001199_2014-06-17_16-03-48_260595134347_rgbf000077-resize_0-target.png,250,3.4375,5,4468,244,meters,jsons/v1_VE250_randls_17.json,1014903,1195974,57,Man
9,739896,DepthScenes,duration_manipulation_targetAtFixation,jsons/v1_VE250_randls_17.json,http://54.235.29.9/FacialAge/BNav_EC2/DepthDuration/v2_depth_duration_MTurk/v2_DepthDuration_HTML.html#430,430,1366,625,1366,768,8-29-2022,15-52-52,10,depth_duration_stimuli/000502_2014-06-08_23-02-32_260595134347_rgbf000063-resize_4/000502_2014-06-08_23-02-32_260595134347_rgbf000063-resize_4-target.png,250,2.431,4,3464,250,meters,jsons/v1_VE250_randls_17.json,1014903,1195974,57,Man
10,739896,DepthScenes,duration_manipulation_targetAtFixation,jsons/v1_VE250_randls_17.json,http://54.235.29.9/FacialAge/BNav_EC2/DepthDuration/v2_depth_duration_MTurk/v2_DepthDuration_HTML.html#430,430,1366,625,1366,768,8-29-2022,15-52-52,11,depth_duration_stimuli/000788_2014-06-08_22-34-36_260595134347_rgbf000131-resize_1/000788_2014-06-08_22-34-36_260595134347_rgbf000131-resize_1-target.png,250,3.359,6,3772,256,meters,jsons/v1_VE250_randls_17.json,1014903,1195974,57,Man
11,739896,DepthScenes,duration_manipulation_targetAtFixation,jsons/v1_VE250_randls_17.json,http://54.235.29.9/FacialAge/BNav_EC2/DepthDuration/v2_depth_duration_MTurk/v2_DepthDuration_HTML.html#430,430,1366,625,1366,768,8-29-2022,15-52-52,12,depth_duration_stimuli/001235_2014-06-17_16-37-36_260595134347_rgbf000084-resize_4/001235_2014-06-17_16-37-36_260595134347_rgbf000084-resize_4-target.png,250,3.6605,6,3823,239,meters,jsons/v1_VE250_randls_17.json,1014903,1195974,57,Man
12,739896,DepthScenes,duration_manipulation_targetAtFixation,jsons/v1_VE250_randls_17.json,http://54.235.29.9/FacialAge/BNav_EC2/DepthDuration/v2_depth_duration_MTurk/v2_DepthDuration_HTML.html#430,430,1366,625,1366,768,8-29-2022,15-52-52,13,depth_duration_stimuli/000569_2014-06-09_22-51-47_260595134347_rgbf000141-resize_3/000569_2014-06-09_22-51-47_260595134347_rgbf000141-resize-original.jpg,250,4.512,3,12749,241,meters,jsons/v1_VE250_randls_17.json,1014903,1195974,57,Man
13,739896,DepthScenes,duration_manipulation_targetAtFixation,jsons/v1_VE250_randls_17.json,http://54.235.29.9/FacialAge/BNav_EC2/DepthDuration/v2_depth_duration_MTurk/v2_DepthDuration_HTML.html#430,430,1366,625,1366,768,8-29-2022,15-52-52,14,depth_duration_stimuli/000486_2014-06-09_20-47-20_260595134347_rgbf000143-resize_2/000486_2014-06-09_20-47-20_260595134347_rgbf000143-resize_2-target.png,250,4.8325,3,4060,233,meters,jsons/v1_VE250_randls_17.json,1014903,1195974,57,Man
14,739896,DepthScenes,duration_manipulation_targetAtFixation,jsons/v1_VE250_randls_17.json,http://54.235.29.9/FacialAge/BNav_EC2/DepthDuration/v2_depth_duration_MTurk/v2_DepthDuration_HTML.html#430,430,1366,625,1366,768,8-29-2022,15-52-52,15,depth_duration_stimuli/003083_2014-06-15_15-21-03_094959634447_rgbf000063-resize_1/003083_2014-06-15_15-21-03_094959634447_rgbf000063-resize_1-target.png,250,4.1405,4,3881,244,meters,jsons/v1_VE250_randls_17.json,1014903,1195974,57,Man
15,739896,DepthScenes,duration_manipulation_targetAtFixation,jsons/v1_VE250_randls_17.json,http://54.235.29.9/FacialAge/BNav_EC2/DepthDuration/v2_depth_duration_MTurk/v2_DepthDuration_HTML.html#430,430,1366,625,1366,768,8-29-2022,15-52-52,16,depth_duration_stimuli/001164_2014-06-17_15-35-46_260595134347_rgbf000085-resize_3/001164_2014-06-17_15-35-46_260595134347_rgbf000085-resize_3-target.png,250,2.354,2,4106,236,meters,jsons/v1_VE250_randls_17.json,1014903,1195974,57,Man
16,739896,DepthScenes,duration_manipulation_targetAtFixation,jsons/v1_VE250_randls_17.json,http://54.235.29.9/FacialAge/BNav_EC2/DepthDuration/v2_depth_duration_MTurk/v2_DepthDuration_HTML.html#430,430,1366,625,1366,768,8-29-2022,15-52-52,17,depth_duration_stimuli/001136_2014-06-17_15-19-41_260595134347_rgbf000076-resize_3/001136_2014-06-17_15-19-41_260595134347_rgbf000076-resize_3-target.png,250,1.8655,3,3112,243,meters,jsons/v1_VE250_randls_17.json,1014903,1195974,57,Man
17,739896,DepthScenes,duration_manipulation_targetAtFixation,jsons/v1_VE250_randls_17.json,http://54.235.29.9/FacialAge/BNav_EC2/DepthDuration/v2_depth_duration_MTurk/v2_DepthDuration_HTML.html#430,430,1366,625,1366,768,8-29-2022,15-52-52,18,depth_duration_stimuli/000906_2014-06-08_13-35-43_260595134347_rgbf000155-resize_1/000906_2014-06-08_13-35-43_260595134347_rgbf000155-resize_1-target.png,250,2.8489999999999998,2,3179,249,meters,jsons/v1_VE250_randls_17.json,1014903,1195974,57,Man
18,739896,DepthScenes,duration_manipulation_targetAtFixation,jsons/v1_VE250_randls_17.json,http://54.235.29.9/FacialAge/BNav_EC2/DepthDuration/v2_depth_duration_MTurk/v2_DepthDuration_HTML.html#430,430,1366,625,1366,768,8-29-2022,15-52-52,19,depth_duration_stimuli/002805_2014-06-22_19-54-03_094959634447_rgbf000079-resize_1/002805_2014-06-22_19-54-03_094959634447_rgbf000079-resize_1-target.png,250,3.1439999999999997,2,3406,253,meters,jsons/v1_VE250_randls_17.json,1014903,1195974,57,Man
19,739896,DepthScenes,duration_manipulation_targetAtFixation,jsons/v1_VE250_randls_17.json,http://54.235.29.9/FacialAge/BNav_EC2/DepthDuration/v2_depth_duration_MTurk/v2_DepthDuration_HTML.html#430,430,1366,625,1366,768,8-29-2022,15-52-52,20,depth_duration_stimuli/002057_2014-06-24_21-00-13_260595134347_rgbf000120-resize_1/002057_2014-06-24_21-00-13_260595134347_rgbf000120-resize_1-target.png,250,2.967,2,6488,262,meters,jsons/v1_VE250_randls_17.json,1014903,1195974,57,Man
20,739896,DepthScenes,duration_manipulation_targetAtFixation,jsons/v1_VE250_randls_17.json,http://54.235.29.9/FacialAge/BNav_EC2/DepthDuration/v2_depth_duration_MTurk/v2_DepthDuration_HTML.html#430,430,1366,625,1366,768,8-29-2022,15-52-52,21,depth_duration_stimuli/000709_2014-06-08_13-51-55_260595134347_rgbf000068-resize_3/000709_2014-06-08_13-51-55_260595134347_rgbf000068-resize_3-target.png,250,1.8030000000000002,0,5218,249,meters,jsons/v1_VE250_randls_17.json,1014903,1195974,57,Man
21,739896,DepthScenes,duration_manipulation_targetAtFixation,jsons/v1_VE250_randls_17.json,http://54.235.29.9/FacialAge/BNav_EC2/DepthDuration/v2_depth_duration_MTurk/v2_DepthDuration_HTML.html#430,430,1366,625,1366,768,8-29-2022,15-52-52,22,depth_duration_stimuli/002905_2014-06-03_18-04-43_094959634447_rgbf000151-resize_2/002905_2014-06-03_18-04-43_094959634447_rgbf000151-resize_2-target.png,250,2.0295,3,4481,344,meters,jsons/v1_VE250_randls_17.json,1014903,1195974,57,Man
22,739896,DepthScenes,duration_manipulation_targetAtFixation,jsons/v1_VE250_randls_17.json,http://54.235.29.9/FacialAge/BNav_EC2/DepthDuration/v2_depth_duration_MTurk/v2_DepthDuration_HTML.html#430,430,1366,625,1366,768,8-29-2022,15-52-52,23,depth_duration_stimuli/003423_2014-05-21_10-23-26_094959634447_rgbf002665-resize_2/003423_2014-05-21_10-23-26_094959634447_rgbf002665-resize_2-target.png,250,3.2575,0,4417,250,meters,jsons/v1_VE250_randls_17.json,1014903,1195974,57,Man
23,739896,DepthScenes,duration_manipulation_targetAtFixation,jsons/v1_VE250_randls_17.json,http://54.235.29.9/FacialAge/BNav_EC2/DepthDuration/v2_depth_duration_MTurk/v2_DepthDuration_HTML.html#430,430,1366,625,1366,768,8-29-2022,15-52-52,24,depth_duration_stimuli/001806_2014-06-26_20-50-20_260595134347_rgbf000091-resize_1/001806_2014-06-26_20-50-20_260595134347_rgbf000091-resize_1-target.png,250,2.7305,4,66882,257,meters,jsons/v1_VE250_randls_17.json,1014903,1195974,57,Man
24,739896,DepthScenes,duration_manipulation_targetAtFixation,jsons/v1_VE250_randls_17.json,http://54.235.29.9/FacialAge/BNav_EC2/DepthDuration/v2_depth_duration_MTurk/v2_DepthDuration_HTML.html#430,430,1366,625,1366,768,8-29-2022,15-52-52,25,depth_duration_stimuli/001617_2014-06-20_11-35-32_260595134347_rgbf000066-resize_1/001617_2014-06-20_11-35-32_260595134347_rgbf000066-resize_1-target.png,250,3.7910000000000004,3,7962,243,meters,jsons/v1_VE250_randls_17.json,1014903,1195974,57,Man
25,739896,DepthScenes,duration_manipulation_targetAtFixation,jsons/v1_VE250_randls_17.json,http://54.235.29.9/FacialAge/BNav_EC2/DepthDuration/v2_depth_duration_MTurk/v2_DepthDuration_HTML.html#430,430,1366,625,1366,768,8-29-2022,15-52-52,26,depth_duration_stimuli/001158_2014-06-17_15-32-16_260595134347_rgbf000138-resize_2/001158_2014-06-17_15-32-16_260595134347_rgbf000138-resize_2-target.png,250,4.5315,4,5781,260,meters,jsons/v1_VE250_randls_17.json,1014903,1195974,57,Man
26,739896,DepthScenes,duration_manipulation_targetAtFixation,jsons/v1_VE250_randls_17.json,http://54.235.29.9/FacialAge/BNav_EC2/DepthDuration/v2_depth_duration_MTurk/v2_DepthDuration_HTML.html#430,430,1366,625,1366,768,8-29-2022,15-52-52,27,depth_duration_stimuli/000556_2014-06-09_22-42-56_260595134347_rgbf000214-resize_1/000556_2014-06-09_22-42-56_260595134347_rgbf000214-resize_1-target.png,250,4.8415,3,5898,251,meters,jsons/v1_VE250_randls_17.json,1014903,1195974,57,Man
27,739896,DepthScenes,duration_manipulation_targetAtFixation,jsons/v1_VE250_randls_17.json,http://54.235.29.9/FacialAge/BNav_EC2/DepthDuration/v2_depth_duration_MTurk/v2_DepthDuration_HTML.html#430,430,1366,625,1366,768,8-29-2022,15-52-52,28,depth_duration_stimuli/002549_2014-06-24_13-41-39_094959634447_rgbf000022-resize_3/002549_2014-06-24_13-41-39_094959634447_rgbf000022-resize_3-target.png,250,1.476,3,4337,243,meters,jsons/v1_VE250_randls_17.json,1014903,1195974,57,Man
28,739896,DepthScenes,duration_manipulation_targetAtFixation,jsons/v1_VE250_randls_17.json,http://54.235.29.9/FacialAge/BNav_EC2/DepthDuration/v2_depth_duration_MTurk/v2_DepthDuration_HTML.html#430,430,1366,625,1366,768,8-29-2022,15-52-52,29,depth_duration_stimuli/002750_2014-06-22_19-08-03_094959634447_rgbf000094-resize_4/002750_2014-06-22_19-08-03_094959634447_rgbf000094-resize_4-target.png,250,2.354,2,4948,247,meters,jsons/v1_VE250_randls_17.json,1014903,1195974,57,Man
29,739896,DepthScenes,duration_manipulation_targetAtFixation,jsons/v1_VE250_randls_17.json,http://54.235.29.9/FacialAge/BNav_EC2/DepthDuration/v2_depth_duration_MTurk/v2_DepthDuration_HTML.html#430,430,1366,625,1366,768,8-29-2022,15-52-52,30,depth_duration_stimuli/000375_2014-06-08_11-17-29_260595134347_rgbf000133-resize_2/000375_2014-06-08_11-17-29_260595134347_rgbf000133-resize-original.jpg,250,4.718,0,8997,251,meters,jsons/v1_VE250_randls_17.json,1014903,1195974,57,Man
30,739896,DepthScenes,duration_manipulation_targetAtFixation,jsons/v1_VE250_randls_17.json,http://54.235.29.9/FacialAge/BNav_EC2/DepthDuration/v2_depth_duration_MTurk/v2_DepthDuration_HTML.html#430,430,1366,625,1366,768,8-29-2022,15-52-52,31,depth_duration_stimuli/002118_2014-06-25_20-32-08_260595134347_rgbf000078-resize_1/002118_2014-06-25_20-32-08_260595134347_rgbf000078-resize_1-target.png,250,2.6460000000000004,3,5366,247,meters,jsons/v1_VE250_randls_17.json,1014903,1195974,57,Man
31,739896,DepthScenes,duration_manipulation_targetAtFixation,jsons/v1_VE250_randls_17.json,http://54.235.29.9/FacialAge/BNav_EC2/DepthDuration/v2_depth_duration_MTurk/v2_DepthDuration_HTML.html#430,430,1366,625,1366,768,8-29-2022,15-52-52,32,depth_duration_stimuli/001516_2014-06-20_16-25-09_260595134347_rgbf000076-resize_2/001516_2014-06-20_16-25-09_260595134347_rgbf000076-resize_2-target.png,250,1.7445,3,5816,255,meters,jsons/v1_VE250_randls_17.json,1014903,1195974,57,Man
32,739896,DepthScenes,duration_manipulation_targetAtFixation,jsons/v1_VE250_randls_17.json,http://54.235.29.9/FacialAge/BNav_EC2/DepthDuration/v2_depth_duration_MTurk/v2_DepthDuration_HTML.html#430,430,1366,625,1366,768,8-29-2022,15-52-52,33,depth_duration_stimuli/002043_2014-06-24_20-29-38_260595134347_rgbf000039-resize_4/002043_2014-06-24_20-29-38_260595134347_rgbf000039-resize_4-target.png,250,2.8435,6,5088,244,meters,jsons/v1_VE250_randls_17.json,1014903,1195974,57,Man
33,739896,DepthScenes,duration_manipulation_targetAtFixation,jsons/v1_VE250_randls_17.json,http://54.235.29.9/FacialAge/BNav_EC2/DepthDuration/v2_depth_duration_MTurk/v2_DepthDuration_HTML.html#430,430,1366,625,1366,768,8-29-2022,15-52-52,34,depth_duration_stimuli/003048_2014-06-15_13-49-43_094959634447_rgbf000150-resize_1/003048_2014-06-15_13-49-43_094959634447_rgbf000150-resize_1-target.png,250,4.0035,7,5588,253,meters,jsons/v1_VE250_randls_17.json,1014903,1195974,57,Man
34,739896,DepthScenes,duration_manipulation_targetAtFixation,jsons/v1_VE250_randls_17.json,http://54.235.29.9/FacialAge/BNav_EC2/DepthDuration/v2_depth_duration_MTurk/v2_DepthDuration_HTML.html#430,430,1366,625,1366,768,8-29-2022,15-52-52,35,depth_duration_stimuli/000506_2014-06-08_23-21-00_260595134347_rgbf000070-resize_7/000506_2014-06-08_23-21-00_260595134347_rgbf000070-resize_7-target.png,250,4.0585,5,5023,246,meters,jsons/v1_VE250_randls_17.json,1014903,1195974,57,Man
35,739896,DepthScenes,duration_manipulation_targetAtFixation,jsons/v1_VE250_randls_17.json,http://54.235.29.9/FacialAge/BNav_EC2/DepthDuration/v2_depth_duration_MTurk/v2_DepthDuration_HTML.html#430,430,1366,625,1366,768,8-29-2022,15-52-52,36,depth_duration_stimuli/003079_2014-06-15_15-18-20_094959634447_rgbf000152-resize_8/003079_2014-06-15_15-18-20_094959634447_rgbf000152-resize_8-target.png,250,2.8775,6,5192,244,meters,jsons/v1_VE250_randls_17.json,1014903,1195974,57,Man
36,739896,DepthScenes,duration_manipulation_targetAtFixation,jsons/v1_VE250_randls_17.json,http://54.235.29.9/FacialAge/BNav_EC2/DepthDuration/v2_depth_duration_MTurk/v2_DepthDuration_HTML.html#430,430,1366,625,1366,768,8-29-2022,15-52-52,37,depth_duration_stimuli/001056_2014-06-08_18-46-44_260595134347_rgbf000068-resize_0/001056_2014-06-08_18-46-44_260595134347_rgbf000068-resize_0-target.png,250,2.6625,3,4575,240,meters,jsons/v1_VE250_randls_17.json,1014903,1195974,57,Man
37,739896,DepthScenes,duration_manipulation_targetAtFixation,jsons/v1_VE250_randls_17.json,http://54.235.29.9/FacialAge/BNav_EC2/DepthDuration/v2_depth_duration_MTurk/v2_DepthDuration_HTML.html#430,430,1366,625,1366,768,8-29-2022,15-52-52,38,depth_duration_stimuli/002199_2014-06-28_18-33-56_260595134347_rgbf000074-resize_0/002199_2014-06-28_18-33-56_260595134347_rgbf000074-resize_0-target.png,250,1.996,4,5223,249,meters,jsons/v1_VE250_randls_17.json,1014903,1195974,57,Man
38,739896,DepthScenes,duration_manipulation_targetAtFixation,jsons/v1_VE250_randls_17.json,http://54.235.29.9/FacialAge/BNav_EC2/DepthDuration/v2_depth_duration_MTurk/v2_DepthDuration_HTML.html#430,430,1366,625,1366,768,8-29-2022,15-52-52,39,depth_duration_stimuli/002663_2014-06-13_15-50-26_094959634447_rgbf000075-resize_1/002663_2014-06-13_15-50-26_094959634447_rgbf000075-resize_1-target.png,250,4.7495,4,6650,252,meters,jsons/v1_VE250_randls_17.json,1014903,1195974,57,Man
39,739896,DepthScenes,duration_manipulation_targetAtFixation,jsons/v1_VE250_randls_17.json,http://54.235.29.9/FacialAge/BNav_EC2/DepthDuration/v2_depth_duration_MTurk/v2_DepthDuration_HTML.html#430,430,1366,625,1366,768,8-29-2022,15-52-52,40,depth_duration_stimuli/000409_2014-06-04_19-23-33_260595134347_rgbf000067-resize_0/000409_2014-06-04_19-23-33_260595134347_rgbf000067-resize_0-target.png,250,3.7335,3,6089,248,meters,jsons/v1_VE250_randls_17.json,1014903,1195974,57,Man
40,739896,DepthScenes,duration_manipulation_targetAtFixation,jsons/v1_VE250_randls_17.json,http://54.235.29.9/FacialAge/BNav_EC2/DepthDuration/v2_depth_duration_MTurk/v2_DepthDuration_HTML.html#430,430,1366,625,1366,768,8-29-2022,15-52-52,41,depth_duration_stimuli/001150_2014-06-17_15-27-34_260595134347_rgbf000108-resize_2/001150_2014-06-17_15-27-34_260595134347_rgbf000108-resize_2-target.png,250,4.0325,8,5359,239,meters,jsons/v1_VE250_randls_17.json,1014903,1195974,57,Man
41,739896,DepthScenes,duration_manipulation_targetAtFixation,jsons/v1_VE250_randls_17.json,http://54.235.29.9/FacialAge/BNav_EC2/DepthDuration/v2_depth_duration_MTurk/v2_DepthDuration_HTML.html#430,430,1366,625,1366,768,8-29-2022,15-52-52,42,depth_duration_stimuli/000665_2014-06-09_20-42-35_260595134347_rgbf000110-resize_1/000665_2014-06-09_20-42-35_260595134347_rgbf000110-resize_1-target.png,250,3.057,3,5482,246,meters,jsons/v1_VE250_randls_17.json,1014903,1195974,57,Man
42,739896,DepthScenes,duration_manipulation_targetAtFixation,jsons/v1_VE250_randls_17.json,http://54.235.29.9/FacialAge/BNav_EC2/DepthDuration/v2_depth_duration_MTurk/v2_DepthDuration_HTML.html#430,430,1366,625,1366,768,8-29-2022,15-52-52,43,depth_duration_stimuli/000470_2014-06-09_19-42-40_260595134347_rgbf000094-resize_1/000470_2014-06-09_19-42-40_260595134347_rgbf000094-resize_1-target.png,250,1.831,3,5892,250,meters,jsons/v1_VE250_randls_17.json,1014903,1195974,57,Man
43,739896,DepthScenes,duration_manipulation_targetAtFixation,jsons/v1_VE250_randls_17.json,http://54.235.29.9/FacialAge/BNav_EC2/DepthDuration/v2_depth_duration_MTurk/v2_DepthDuration_HTML.html#430,430,1366,625,1366,768,8-29-2022,15-52-52,44,depth_duration_stimuli/000109_2014-05-14_23-41-52_260595134347_rgbf000035-resize_9/000109_2014-05-14_23-41-52_260595134347_rgbf000035-resize_9-target.png,250,1.3545,1,6039,248,meters,jsons/v1_VE250_randls_17.json,1014903,1195974,57,Man
44,739896,DepthScenes,duration_manipulation_targetAtFixation,jsons/v1_VE250_randls_17.json,http://54.235.29.9/FacialAge/BNav_EC2/DepthDuration/v2_depth_duration_MTurk/v2_DepthDuration_HTML.html#430,430,1366,625,1366,768,8-29-2022,15-52-52,45,depth_duration_stimuli/000787_2014-06-08_22-33-53_260595134347_rgbf000175-resize_1/000787_2014-06-08_22-33-53_260595134347_rgbf000175-resize-original.jpg,250,4.784,0,4875,243,meters,jsons/v1_VE250_randls_17.json,1014903,1195974,57,Man
45,739896,DepthScenes,duration_manipulation_targetAtFixation,jsons/v1_VE250_randls_17.json,http://54.235.29.9/FacialAge/BNav_EC2/DepthDuration/v2_depth_duration_MTurk/v2_DepthDuration_HTML.html#430,430,1366,625,1366,768,8-29-2022,15-52-52,46,depth_duration_stimuli/001133_2014-06-17_14-49-16_260595134347_rgbf000100-resize_0/001133_2014-06-17_14-49-16_260595134347_rgbf000100-resize_0-target.png,250,4.2115,5,4880,338,meters,jsons/v1_VE250_randls_17.json,1014903,1195974,57,Man
46,739896,DepthScenes,duration_manipulation_targetAtFixation,jsons/v1_VE250_randls_17.json,http://54.235.29.9/FacialAge/BNav_EC2/DepthDuration/v2_depth_duration_MTurk/v2_DepthDuration_HTML.html#430,430,1366,625,1366,768,8-29-2022,15-52-52,47,depth_duration_stimuli/001132_2014-06-17_14-48-54_260595134347_rgbf000100-resize_2/001132_2014-06-17_14-48-54_260595134347_rgbf000100-resize_2-target.png,250,3.753,4,4223,249,meters,jsons/v1_VE250_randls_17.json,1014903,1195974,57,Man
47,739896,DepthScenes,duration_manipulation_targetAtFixation,jsons/v1_VE250_randls_17.json,http://54.235.29.9/FacialAge/BNav_EC2/DepthDuration/v2_depth_duration_MTurk/v2_DepthDuration_HTML.html#430,430,1366,625,1366,768,8-29-2022,15-52-52,48,depth_duration_stimuli/001167_2014-06-17_15-38-07_260595134347_rgbf000108-resize_0/001167_2014-06-17_15-38-07_260595134347_rgbf000108-resize_0-target.png,250,1.8505,5,2819,250,meters,jsons/v1_VE250_randls_17.json,1014903,1195974,57,Man
48,739896,DepthScenes,duration_manipulation_targetAtFixation,jsons/v1_VE250_randls_17.json,http://54.235.29.9/FacialAge/BNav_EC2/DepthDuration/v2_depth_duration_MTurk/v2_DepthDuration_HTML.html#430,430,1366,625,1366,768,8-29-2022,15-52-52,49,depth_duration_stimuli/003587_2014-05-23_16-48-02_094959634447_rgbf002384-resize_2/003587_2014-05-23_16-48-02_094959634447_rgbf002384-resize_2-target.png,250,1.357,4,2849,261,meters,jsons/v1_VE250_randls_17.json,1014903,1195974,57,Man
49,739896,DepthScenes,duration_manipulation_targetAtFixation,jsons/v1_VE250_randls_17.json,http://54.235.29.9/FacialAge/BNav_EC2/DepthDuration/v2_depth_duration_MTurk/v2_DepthDuration_HTML.html#430,430,1366,625,1366,768,8-29-2022,15-52-52,50,depth_duration_stimuli/002445_2014-06-28_20-32-16_260595134347_rgbf000029-resize_4/002445_2014-06-28_20-32-16_260595134347_rgbf000029-resize_4-target.png,250,2.5315,3,2380,246,meters,jsons/v1_VE250_randls_17.json,1014903,1195974,57,Man
50,739896,DepthScenes,duration_manipulation_targetAtFixation,jsons/v1_VE250_randls_17.json,http://54.235.29.9/FacialAge/BNav_EC2/DepthDuration/v2_depth_duration_MTurk/v2_DepthDuration_HTML.html#430,430,1366,625,1366,768,8-29-2022,15-52-52,51,depth_duration_stimuli/000780_2014-06-08_22-28-29_260595134347_rgbf000126-resize_1/000780_2014-06-08_22-28-29_260595134347_rgbf000126-resize_1-target.png,250,3.3825,5,3580,255,meters,jsons/v1_VE250_randls_17.json,1014903,1195974,57,Man
51,739896,DepthScenes,duration_manipulation_targetAtFixation,jsons/v1_VE250_randls_17.json,http://54.235.29.9/FacialAge/BNav_EC2/DepthDuration/v2_depth_duration_MTurk/v2_DepthDuration_HTML.html#430,430,1366,625,1366,768,8-29-2022,15-52-52,52,depth_duration_stimuli/001029_2014-06-08_13-17-57_260595134347_rgbf000065-resize_1/001029_2014-06-08_13-17-57_260595134347_rgbf000065-resize_1-target.png,250,3.0835,6,2834,259,meters,jsons/v1_VE250_randls_17.json,1014903,1195974,57,Man
52,739896,DepthScenes,duration_manipulation_targetAtFixation,jsons/v1_VE250_randls_17.json,http://54.235.29.9/FacialAge/BNav_EC2/DepthDuration/v2_depth_duration_MTurk/v2_DepthDuration_HTML.html#430,430,1366,625,1366,768,8-29-2022,15-52-52,53,depth_duration_stimuli/000677_2014-06-08_23-10-32_260595134347_rgbf000158-resize_6/000677_2014-06-08_23-10-32_260595134347_rgbf000158-resize_6-target.png,250,3.556,6,3139,249,meters,jsons/v1_VE250_randls_17.json,1014903,1195974,57,Man
53,739896,DepthScenes,duration_manipulation_targetAtFixation,jsons/v1_VE250_randls_17.json,http://54.235.29.9/FacialAge/BNav_EC2/DepthDuration/v2_depth_duration_MTurk/v2_DepthDuration_HTML.html#430,430,1366,625,1366,768,8-29-2022,15-52-52,54,depth_duration_stimuli/003534_2014-05-22_15-06-10_094959634447_rgbf000102-resize_4/003534_2014-05-22_15-06-10_094959634447_rgbf000102-resize_4-target.png,250,1.426,1,2368,224,meters,jsons/v1_VE250_randls_17.json,1014903,1195974,57,Man
54,739896,DepthScenes,duration_manipulation_targetAtFixation,jsons/v1_VE250_randls_17.json,http://54.235.29.9/FacialAge/BNav_EC2/DepthDuration/v2_depth_duration_MTurk/v2_DepthDuration_HTML.html#430,430,1366,625,1366,768,8-29-2022,15-52-52,55,depth_duration_stimuli/002637_2014-06-24_14-51-13_094959634447_rgbf000066-resize_4/002637_2014-06-24_14-51-13_094959634447_rgbf000066-resize_4-target.png,250,1.9955,3,16310,239,meters,jsons/v1_VE250_randls_17.json,1014903,1195974,57,Man
55,739896,DepthScenes,duration_manipulation_targetAtFixation,jsons/v1_VE250_randls_17.json,http://54.235.29.9/FacialAge/BNav_EC2/DepthDuration/v2_depth_duration_MTurk/v2_DepthDuration_HTML.html#430,430,1366,625,1366,768,8-29-2022,15-52-52,56,depth_duration_stimuli/002988_2014-06-15_12-24-20_094959634447_rgbf000150-resize_1/002988_2014-06-15_12-24-20_094959634447_rgbf000150-resize_1-target.png,250,4.7669999999999995,6,3117,318,meters,jsons/v1_VE250_randls_17.json,1014903,1195974,57,Man
56,739896,DepthScenes,duration_manipulation_targetAtFixation,jsons/v1_VE250_randls_17.json,http://54.235.29.9/FacialAge/BNav_EC2/DepthDuration/v2_depth_duration_MTurk/v2_DepthDuration_HTML.html#430,430,1366,625,1366,768,8-29-2022,15-52-52,57,depth_duration_stimuli/001052_2014-06-08_18-24-54_260595134347_rgbf000130-resize_1/001052_2014-06-08_18-24-54_260595134347_rgbf000130-resize_1-target.png,250,4.1045,6,2139,363,meters,jsons/v1_VE250_randls_17.json,1014903,1195974,57,Man
57,739896,DepthScenes,duration_manipulation_targetAtFixation,jsons/v1_VE250_randls_17.json,http://54.235.29.9/FacialAge/BNav_EC2/DepthDuration/v2_depth_duration_MTurk/v2_DepthDuration_HTML.html#430,430,1366,625,1366,768,8-29-2022,15-52-52,58,depth_duration_stimuli/001059_2014-06-08_21-53-27_260595134347_rgbf000061-resize_4/001059_2014-06-08_21-53-27_260595134347_rgbf000061-resize_4-target.png,250,2.4185,5,3202,260,meters,jsons/v1_VE250_randls_17.json,1014903,1195974,57,Man
58,739896,DepthScenes,duration_manipulation_targetAtFixation,jsons/v1_VE250_randls_17.json,http://54.235.29.9/FacialAge/BNav_EC2/DepthDuration/v2_depth_duration_MTurk/v2_DepthDuration_HTML.html#430,430,1366,625,1366,768,8-29-2022,15-52-52,59,depth_duration_stimuli/001032_2014-06-08_13-23-17_260595134347_rgbf000021-resize_3/001032_2014-06-08_13-23-17_260595134347_rgbf000021-resize_3-target.png,250,3.2725,5,2895,248,meters,jsons/v1_VE250_randls_17.json,1014903,1195974,57,Man
59,739896,DepthScenes,duration_manipulation_targetAtFixation,jsons/v1_VE250_randls_17.json,http://54.235.29.9/FacialAge/BNav_EC2/DepthDuration/v2_depth_duration_MTurk/v2_DepthDuration_HTML.html#430,430,1366,625,1366,768,8-29-2022,15-52-52,60,depth_duration_stimuli/002964_2014-06-08_17-46-11_094959634447_rgbf000091-resize_4/002964_2014-06-08_17-46-11_094959634447_rgbf000091-resize_4-target.png,250,1.6909999999999998,6,2933,250,meters,jsons/v1_VE250_randls_17.json,1014903,1195974,57,Man
60,739896,DepthScenes,duration_manipulation_targetAtFixation,jsons/v1_VE250_randls_17.json,http://54.235.29.9/FacialAge/BNav_EC2/DepthDuration/v2_depth_duration_MTurk/v2_DepthDuration_HTML.html#430,430,1366,625,1366,768,8-29-2022,15-52-52,61,depth_duration_stimuli/002136_2014-06-25_21-18-03_260595134347_rgbf000109-resize_3/002136_2014-06-25_21-18-03_260595134347_rgbf000109-resize_3-target.png,250,1.9569999999999999,5,2994,248,meters,jsons/v1_VE250_randls_17.json,1014903,1195974,57,Man
61,739896,DepthScenes,duration_manipulation_targetAtFixation,jsons/v1_VE250_randls_17.json,http://54.235.29.9/FacialAge/BNav_EC2/DepthDuration/v2_depth_duration_MTurk/v2_DepthDuration_HTML.html#430,430,1366,625,1366,768,8-29-2022,15-52-52,62,depth_duration_stimuli/002989_2014-06-15_12-25-03_094959634447_rgbf000150-resize_3/002989_2014-06-15_12-25-03_094959634447_rgbf000150-resize_3-target.png,250,4.1975,8,2392,260,meters,jsons/v1_VE250_randls_17.json,1014903,1195974,57,Man
62,739896,DepthScenes,duration_manipulation_targetAtFixation,jsons/v1_VE250_randls_17.json,http://54.235.29.9/FacialAge/BNav_EC2/DepthDuration/v2_depth_duration_MTurk/v2_DepthDuration_HTML.html#430,430,1366,625,1366,768,8-29-2022,15-52-52,63,depth_duration_stimuli/000866_2014-06-09_20-45-42_260595134347_rgbf000139-resize_1/000866_2014-06-09_20-45-42_260595134347_rgbf000139-resize_1-target.png,250,3.2155,7,2592,266,meters,jsons/v1_VE250_randls_17.json,1014903,1195974,57,Man
63,739896,DepthScenes,duration_manipulation_targetAtFixation,jsons/v1_VE250_randls_17.json,http://54.235.29.9/FacialAge/BNav_EC2/DepthDuration/v2_depth_duration_MTurk/v2_DepthDuration_HTML.html#430,430,1366,625,1366,768,8-29-2022,15-52-52,64,depth_duration_stimuli/002153_2014-06-25_21-27-18_260595134347_rgbf000038-resize_5/002153_2014-06-25_21-27-18_260595134347_rgbf000038-resize_5-target.png,250,2.505,3,5710,250,meters,jsons/v1_VE250_randls_17.json,1014903,1195974,57,Man
64,739896,DepthScenes,duration_manipulation_targetAtFixation,jsons/v1_VE250_randls_17.json,http://54.235.29.9/FacialAge/BNav_EC2/DepthDuration/v2_depth_duration_MTurk/v2_DepthDuration_HTML.html#430,430,1366,625,1366,768,8-29-2022,15-52-52,65,depth_duration_stimuli/002660_2014-06-13_15-44-18_094959634447_rgbf001878-resize_2/002660_2014-06-13_15-44-18_094959634447_rgbf001878-resize_2-target.png,250,3.576,444,2321,245,meters,jsons/v1_VE250_randls_17.json,1014903,1195974,57,Man
65,739896,DepthScenes,duration_manipulation_targetAtFixation,jsons/v1_VE250_randls_17.json,http://54.235.29.9/FacialAge/BNav_EC2/DepthDuration/v2_depth_duration_MTurk/v2_DepthDuration_HTML.html#430,430,1366,625,1366,768,8-29-2022,15-52-52,66,depth_duration_stimuli/001222_2014-06-17_16-24-06_260595134347_rgbf000073-resize_0/001222_2014-06-17_16-24-06_260595134347_rgbf000073-resize-original.jpg,250,1.4385,3,8396,240,meters,jsons/v1_VE250_randls_17.json,1014903,1195974,57,Man
66,739896,DepthScenes,duration_manipulation_targetAtFixation,jsons/v1_VE250_randls_17.json,http://54.235.29.9/FacialAge/BNav_EC2/DepthDuration/v2_depth_duration_MTurk/v2_DepthDuration_HTML.html#430,430,1366,625,1366,768,8-29-2022,15-52-52,67,depth_duration_stimuli/000493_2014-06-09_21-01-18_260595134347_rgbf000196-resize_3/000493_2014-06-09_21-01-18_260595134347_rgbf000196-resize_3-target.png,250,3.44,4,2977,249,meters,jsons/v1_VE250_randls_17.json,1014903,1195974,57,Man
67,739896,DepthScenes,duration_manipulation_targetAtFixation,jsons/v1_VE250_randls_17.json,http://54.235.29.9/FacialAge/BNav_EC2/DepthDuration/v2_depth_duration_MTurk/v2_DepthDuration_HTML.html#430,430,1366,625,1366,768,8-29-2022,15-52-52,68,depth_duration_stimuli/000191_2014-05-12_17-07-38_260595134347_rgbf000199-resize_0/000191_2014-05-12_17-07-38_260595134347_rgbf000199-resize_0-target.png,250,3.7995,6,3213,253,meters,jsons/v1_VE250_randls_17.json,1014903,1195974,57,Man
68,739896,DepthScenes,duration_manipulation_targetAtFixation,jsons/v1_VE250_randls_17.json,http://54.235.29.9/FacialAge/BNav_EC2/DepthDuration/v2_depth_duration_MTurk/v2_DepthDuration_HTML.html#430,430,1366,625,1366,768,8-29-2022,15-52-52,69,depth_duration_stimuli/000758_2014-06-08_22-05-08_260595134347_rgbf000085-resize_0/000758_2014-06-08_22-05-08_260595134347_rgbf000085-resize_0-target.png,250,3.3810000000000002,6,9680,256,meters,jsons/v1_VE250_randls_17.json,1014903,1195974,57,Man
69,739896,DepthScenes,duration_manipulation_targetAtFixation,jsons/v1_VE250_randls_17.json,http://54.235.29.9/FacialAge/BNav_EC2/DepthDuration/v2_depth_duration_MTurk/v2_DepthDuration_HTML.html#430,430,1366,625,1366,768,8-29-2022,15-52-52,70,depth_duration_stimuli/000854_2014-06-09_19-43-13_260595134347_rgbf000066-resize_0/000854_2014-06-09_19-43-13_260595134347_rgbf000066-resize_0-target.png,250,3.068,5,2860,214,meters,jsons/v1_VE250_randls_17.json,1014903,1195974,57,Man
70,739896,DepthScenes,duration_manipulation_targetAtFixation,jsons/v1_VE250_randls_17.json,http://54.235.29.9/FacialAge/BNav_EC2/DepthDuration/v2_depth_duration_MTurk/v2_DepthDuration_HTML.html#430,430,1366,625,1366,768,8-29-2022,15-52-52,71,depth_duration_stimuli/001092_2014-06-15_17-34-58_260595134347_rgbf000171-resize_3/001092_2014-06-15_17-34-58_260595134347_rgbf000171-resize_3-target.png,250,2.6935,3,75067,245,meters,jsons/v1_VE250_randls_17.json,1014903,1195974,57,Man
71,739896,DepthScenes,duration_manipulation_targetAtFixation,jsons/v1_VE250_randls_17.json,http://54.235.29.9/FacialAge/BNav_EC2/DepthDuration/v2_depth_duration_MTurk/v2_DepthDuration_HTML.html#430,430,1366,625,1366,768,8-29-2022,15-52-52,72,depth_duration_stimuli/002545_2014-06-24_13-38-53_094959634447_rgbf000080-resize_4/002545_2014-06-24_13-38-53_094959634447_rgbf000080-resize_4-target.png,250,1.9205,0,5160,260,meters,jsons/v1_VE250_randls_17.json,1014903,1195974,57,Man
72,739896,DepthScenes,duration_manipulation_targetAtFixation,jsons/v1_VE250_randls_17.json,http://54.235.29.9/FacialAge/BNav_EC2/DepthDuration/v2_depth_duration_MTurk/v2_DepthDuration_HTML.html#430,430,1366,625,1366,768,8-29-2022,15-52-52,73,depth_duration_stimuli/002784_2014-06-22_19-26-30_094959634447_rgbf000083-resize_3/002784_2014-06-22_19-26-30_094959634447_rgbf000083-resize_3-target.png,250,1.8046666666667,4,3951,254,meters,jsons/v1_VE250_randls_17.json,1014903,1195974,57,Man
73,739896,DepthScenes,duration_manipulation_targetAtFixation,jsons/v1_VE250_randls_17.json,http://54.235.29.9/FacialAge/BNav_EC2/DepthDuration/v2_depth_duration_MTurk/v2_DepthDuration_HTML.html#430,430,1366,625,1366,768,8-29-2022,15-52-52,74,depth_duration_stimuli/001100_2014-06-15_17-46-26_260595134347_rgbf000225-resize_2/001100_2014-06-15_17-46-26_260595134347_rgbf000225-resize_2-target.png,250,2.24,3,4436,250,meters,jsons/v1_VE250_randls_17.json,1014903,1195974,57,Man
74,739896,DepthScenes,duration_manipulation_targetAtFixation,jsons/v1_VE250_randls_17.json,http://54.235.29.9/FacialAge/BNav_EC2/DepthDuration/v2_depth_duration_MTurk/v2_DepthDuration_HTML.html#430,430,1366,625,1366,768,8-29-2022,15-52-52,75,depth_duration_stimuli/000682_2014-06-08_23-14-58_260595134347_rgbf000041-resize_5/000682_2014-06-08_23-14-58_260595134347_rgbf000041-resize_5-target.png,250,2.7239999999999998,2,3376,251,meters,jsons/v1_VE250_randls_17.json,1014903,1195974,57,Man
75,739896,DepthScenes,duration_manipulation_targetAtFixation,jsons/v1_VE250_randls_17.json,http://54.235.29.9/FacialAge/BNav_EC2/DepthDuration/v2_depth_duration_MTurk/v2_DepthDuration_HTML.html#430,430,1366,625,1366,768,8-29-2022,15-52-52,76,depth_duration_stimuli/001650_2014-06-20_12-09-00_260595134347_rgbf000087-resize_3/001650_2014-06-20_12-09-00_260595134347_rgbf000087-resize_3-target.png,250,1.9505,3,2192,215,meters,jsons/v1_VE250_randls_17.json,1014903,1195974,57,Man
76,739896,DepthScenes,duration_manipulation_targetAtFixation,jsons/v1_VE250_randls_17.json,http://54.235.29.9/FacialAge/BNav_EC2/DepthDuration/v2_depth_duration_MTurk/v2_DepthDuration_HTML.html#430,430,1366,625,1366,768,8-29-2022,15-52-52,77,depth_duration_stimuli/001055_2014-06-08_18-45-35_260595134347_rgbf000111-resize_4/001055_2014-06-08_18-45-35_260595134347_rgbf000111-resize_4-target.png,250,2.4290000000000003,7,4204,257,meters,jsons/v1_VE250_randls_17.json,1014903,1195974,57,Man
77,739896,DepthScenes,duration_manipulation_targetAtFixation,jsons/v1_VE250_randls_17.json,http://54.235.29.9/FacialAge/BNav_EC2/DepthDuration/v2_depth_duration_MTurk/v2_DepthDuration_HTML.html#430,430,1366,625,1366,768,8-29-2022,15-52-52,78,depth_duration_stimuli/000549_2014-06-08_22-10-24_260595134347_rgbf000247-resize_3/000549_2014-06-08_22-10-24_260595134347_rgbf000247-resize_3-target.png,250,1.841,3,4106,255,meters,jsons/v1_VE250_randls_17.json,1014903,1195974,57,Man
78,739896,DepthScenes,duration_manipulation_targetAtFixation,jsons/v1_VE250_randls_17.json,http://54.235.29.9/FacialAge/BNav_EC2/DepthDuration/v2_depth_duration_MTurk/v2_DepthDuration_HTML.html#430,430,1366,625,1366,768,8-29-2022,15-52-52,79,depth_duration_stimuli/000522_2014-06-08_13-35-06_260595134347_rgbf000244-resize_1/000522_2014-06-08_13-35-06_260595134347_rgbf000244-resize_1-target.png,250,2.3715,3,3541,241,meters,jsons/v1_VE250_randls_17.json,1014903,1195974,57,Man
79,739896,DepthScenes,duration_manipulation_targetAtFixation,jsons/v1_VE250_randls_17.json,http://54.235.29.9/FacialAge/BNav_EC2/DepthDuration/v2_depth_duration_MTurk/v2_DepthDuration_HTML.html#430,430,1366,625,1366,768,8-29-2022,15-52-52,80,depth_duration_stimuli/002949_2014-06-26_15-57-42_094959634447_rgbf000079-resize_1/002949_2014-06-26_15-57-42_094959634447_rgbf000079-resize_1-target.png,250,1.8915,2,3231,250,meters,jsons/v1_VE250_randls_17.json,1014903,1195974,57,Man
80,739896,DepthScenes,duration_manipulation_targetAtFixation,jsons/v1_VE250_randls_17.json,http://54.235.29.9/FacialAge/BNav_EC2/DepthDuration/v2_depth_duration_MTurk/v2_DepthDuration_HTML.html#430,430,1366,625,1366,768,8-29-2022,15-52-52,81,depth_duration_stimuli/001066_2014-06-08_22-03-20_260595134347_rgbf000066-resize_4/001066_2014-06-08_22-03-20_260595134347_rgbf000066-resize_4-target.png,250,4.2330000000000005,6,5805,235,meters,jsons/v1_VE250_randls_17.json,1014903,1195974,57,Man
81,739896,DepthScenes,duration_manipulation_targetAtFixation,jsons/v1_VE250_randls_17.json,http://54.235.29.9/FacialAge/BNav_EC2/DepthDuration/v2_depth_duration_MTurk/v2_DepthDuration_HTML.html#430,430,1366,625,1366,768,8-29-2022,15-52-52,82,depth_duration_stimuli/000742_2014-06-08_18-48-09_260595134347_rgbf000164-resize_4/000742_2014-06-08_18-48-09_260595134347_rgbf000164-resize_4-target.png,250,4.632,4,4791,240,meters,jsons/v1_VE250_randls_17.json,1014903,1195974,57,Man
82,739896,DepthScenes,duration_manipulation_targetAtFixation,jsons/v1_VE250_randls_17.json,http://54.235.29.9/FacialAge/BNav_EC2/DepthDuration/v2_depth_duration_MTurk/v2_DepthDuration_HTML.html#430,430,1366,625,1366,768,8-29-2022,15-52-52,83,depth_duration_stimuli/000368_2014-06-09_15-53-01_260595134347_rgbf000155-resize_2/000368_2014-06-09_15-53-01_260595134347_rgbf000155-resize_2-target.png,250,2.4859999999999998,6,4292,238,meters,jsons/v1_VE250_randls_17.json,1014903,1195974,57,Man
83,739896,DepthScenes,duration_manipulation_targetAtFixation,jsons/v1_VE250_randls_17.json,http://54.235.29.9/FacialAge/BNav_EC2/DepthDuration/v2_depth_duration_MTurk/v2_DepthDuration_HTML.html#430,430,1366,625,1366,768,8-29-2022,15-52-52,84,depth_duration_stimuli/002678_2014-06-13_16-15-32_094959634447_rgbf000151-resize_6/002678_2014-06-13_16-15-32_094959634447_rgbf000151-resize_6-target.png,250,2.1830000000000003,6,3485,243,meters,jsons/v1_VE250_randls_17.json,1014903,1195974,57,Man
84,739896,DepthScenes,duration_manipulation_targetAtFixation,jsons/v1_VE250_randls_17.json,http://54.235.29.9/FacialAge/BNav_EC2/DepthDuration/v2_depth_duration_MTurk/v2_DepthDuration_HTML.html#430,430,1366,625,1366,768,8-29-2022,15-52-52,85,depth_duration_stimuli/002788_2014-06-22_19-36-03_094959634447_rgbf000088-resize_2/002788_2014-06-22_19-36-03_094959634447_rgbf000088-resize_2-target.png,250,1.6465,3,5892,258,meters,jsons/v1_VE250_randls_17.json,1014903,1195974,57,Man
85,739896,DepthScenes,duration_manipulation_targetAtFixation,jsons/v1_VE250_randls_17.json,http://54.235.29.9/FacialAge/BNav_EC2/DepthDuration/v2_depth_duration_MTurk/v2_DepthDuration_HTML.html#430,430,1366,625,1366,768,8-29-2022,15-52-52,86,depth_duration_stimuli/000749_2014-06-08_21-55-06_260595134347_rgbf000070-resize_2/000749_2014-06-08_21-55-06_260595134347_rgbf000070-resize_2-target.png,250,2.331,3,2330,242,meters,jsons/v1_VE250_randls_17.json,1014903,1195974,57,Man
86,739896,DepthScenes,duration_manipulation_targetAtFixation,jsons/v1_VE250_randls_17.json,http://54.235.29.9/FacialAge/BNav_EC2/DepthDuration/v2_depth_duration_MTurk/v2_DepthDuration_HTML.html#430,430,1366,625,1366,768,8-29-2022,15-52-52,87,depth_duration_stimuli/000917_2014-06-09_22-45-29_260595134347_rgbf000149-resize_3/000917_2014-06-09_22-45-29_260595134347_rgbf000149-resize_3-target.png,250,4.1865,5,2731,255,meters,jsons/v1_VE250_randls_17.json,1014903,1195974,57,Man
87,739896,DepthScenes,duration_manipulation_targetAtFixation,jsons/v1_VE250_randls_17.json,http://54.235.29.9/FacialAge/BNav_EC2/DepthDuration/v2_depth_duration_MTurk/v2_DepthDuration_HTML.html#430,430,1366,625,1366,768,8-29-2022,15-52-52,88,depth_duration_stimuli/002323_2014-06-28_20-01-54_260595134347_rgbf000051-resize_4/002323_2014-06-28_20-01-54_260595134347_rgbf000051-resize_4-target.png,250,3.7310000000000003,6,2360,237,meters,jsons/v1_VE250_randls_17.json,1014903,1195974,57,Man
88,739896,DepthScenes,duration_manipulation_targetAtFixation,jsons/v1_VE250_randls_17.json,http://54.235.29.9/FacialAge/BNav_EC2/DepthDuration/v2_depth_duration_MTurk/v2_DepthDuration_HTML.html#430,430,1366,625,1366,768,8-29-2022,15-52-52,89,depth_duration_stimuli/001449_2014-06-19_17-01-27_260595134347_rgbf000116-resize_2/001449_2014-06-19_17-01-27_260595134347_rgbf000116-resize_2-target.png,250,3.452,4,2737,251,meters,jsons/v1_VE250_randls_17.json,1014903,1195974,57,Man
89,739896,DepthScenes,duration_manipulation_targetAtFixation,jsons/v1_VE250_randls_17.json,http://54.235.29.9/FacialAge/BNav_EC2/DepthDuration/v2_depth_duration_MTurk/v2_DepthDuration_HTML.html#430,430,1366,625,1366,768,8-29-2022,15-52-52,90,depth_duration_stimuli/001450_2014-06-19_17-02-03_260595134347_rgbf000203-resize_4/001450_2014-06-19_17-02-03_260595134347_rgbf000203-resize_4-target.png,250,4.0106666666667,5,2587,257,meters,jsons/v1_VE250_randls_17.json,1014903,1195974,57,Man
90,739896,DepthScenes,duration_manipulation_targetAtFixation,jsons/v1_VE250_randls_17.json,http://54.235.29.9/FacialAge/BNav_EC2/DepthDuration/v2_depth_duration_MTurk/v2_DepthDuration_HTML.html#430,430,1366,625,1366,768,8-29-2022,15-52-52,91,depth_duration_stimuli/001016_2014-06-09_16-16-10_260595134347_rgbf000112-resize_5/001016_2014-06-09_16-16-10_260595134347_rgbf000112-resize_5-target.png,250,1.6565,3,2943,253,meters,jsons/v1_VE250_randls_17.json,1014903,1195974,57,Man
91,739896,DepthScenes,duration_manipulation_targetAtFixation,jsons/v1_VE250_randls_17.json,http://54.235.29.9/FacialAge/BNav_EC2/DepthDuration/v2_depth_duration_MTurk/v2_DepthDuration_HTML.html#430,430,1366,625,1366,768,8-29-2022,15-52-52,92,depth_duration_stimuli/002340_2014-06-28_20-05-46_260595134347_rgbf000113-resize_0/002340_2014-06-28_20-05-46_260595134347_rgbf000113-resize_0-target.png,250,2.4735,2,2776,249,meters,jsons/v1_VE250_randls_17.json,1014903,1195974,57,Man
92,739896,DepthScenes,duration_manipulation_targetAtFixation,jsons/v1_VE250_randls_17.json,http://54.235.29.9/FacialAge/BNav_EC2/DepthDuration/v2_depth_duration_MTurk/v2_DepthDuration_HTML.html#430,430,1366,625,1366,768,8-29-2022,15-52-52,93,depth_duration_stimuli/002630_2014-06-24_14-47-50_094959634447_rgbf000055-resize_1/002630_2014-06-24_14-47-50_094959634447_rgbf000055-resize_1-target.png,250,3.0095,0,3692,242,meters,jsons/v1_VE250_randls_17.json,1014903,1195974,57,Man
93,739896,DepthScenes,duration_manipulation_targetAtFixation,jsons/v1_VE250_randls_17.json,http://54.235.29.9/FacialAge/BNav_EC2/DepthDuration/v2_depth_duration_MTurk/v2_DepthDuration_HTML.html#430,430,1366,625,1366,768,8-29-2022,15-52-52,94,depth_duration_stimuli/002758_2014-06-22_19-11-20_094959634447_rgbf000128-resize_1/002758_2014-06-22_19-11-20_094959634447_rgbf000128-resize_1-target.png,250,2.555,3,3470,248,meters,jsons/v1_VE250_randls_17.json,1014903,1195974,57,Man
94,739896,DepthScenes,duration_manipulation_targetAtFixation,jsons/v1_VE250_randls_17.json,http://54.235.29.9/FacialAge/BNav_EC2/DepthDuration/v2_depth_duration_MTurk/v2_DepthDuration_HTML.html#430,430,1366,625,1366,768,8-29-2022,15-52-52,95,depth_duration_stimuli/002725_2014-06-22_11-47-51_094959634447_rgbf000070-resize_1/002725_2014-06-22_11-47-51_094959634447_rgbf000070-resize_1-target.png,250,2.195,4,2666,252,meters,jsons/v1_VE250_randls_17.json,1014903,1195974,57,Man
95,739896,DepthScenes,duration_manipulation_targetAtFixation,jsons/v1_VE250_randls_17.json,http://54.235.29.9/FacialAge/BNav_EC2/DepthDuration/v2_depth_duration_MTurk/v2_DepthDuration_HTML.html#430,430,1366,625,1366,768,8-29-2022,15-52-52,96,depth_duration_stimuli/002344_2014-06-28_20-06-29_260595134347_rgbf000030-resize_1/002344_2014-06-28_20-06-29_260595134347_rgbf000030-resize_1-target.png,250,1.5795,2,18151,251,meters,jsons/v1_VE250_randls_17.json,1014903,1195974,57,Man
96,739896,DepthScenes,duration_manipulation_targetAtFixation,jsons/v1_VE250_randls_17.json,http://54.235.29.9/FacialAge/BNav_EC2/DepthDuration/v2_depth_duration_MTurk/v2_DepthDuration_HTML.html#430,430,1366,625,1366,768,8-29-2022,15-52-52,97,depth_duration_stimuli/001110_2014-06-15_17-25-28_260595134347_rgbf000150-resize_1/001110_2014-06-15_17-25-28_260595134347_rgbf000150-resize_1-target.png,250,1.7115,5,6394,255,meters,jsons/v1_VE250_randls_17.json,1014903,1195974,57,Man
97,739896,DepthScenes,duration_manipulation_targetAtFixation,jsons/v1_VE250_randls_17.json,http://54.235.29.9/FacialAge/BNav_EC2/DepthDuration/v2_depth_duration_MTurk/v2_DepthDuration_HTML.html#430,430,1366,625,1366,768,8-29-2022,15-52-52,98,depth_duration_stimuli/000927_2014-06-09_16-32-30_260595134347_rgbf000123-resize_3/000927_2014-06-09_16-32-30_260595134347_rgbf000123-resize_3-target.png,250,2.6785,2,3815,255,meters,jsons/v1_VE250_randls_17.json,1014903,1195974,57,Man
98,739896,DepthScenes,duration_manipulation_targetAtFixation,jsons/v1_VE250_randls_17.json,http://54.235.29.9/FacialAge/BNav_EC2/DepthDuration/v2_depth_duration_MTurk/v2_DepthDuration_HTML.html#430,430,1366,625,1366,768,8-29-2022,15-52-52,99,depth_duration_stimuli/001540_2014-06-20_17-01-05_260595134347_rgbf000086-resize_2/001540_2014-06-20_17-01-05_260595134347_rgbf000086-resize-original.jpg,250,1.459,2,3791,256,meters,jsons/v1_VE250_randls_17.json,1014903,1195974,57,Man
99,739896,DepthScenes,duration_manipulation_targetAtFixation,jsons/v1_VE250_randls_17.json,http://54.235.29.9/FacialAge/BNav_EC2/DepthDuration/v2_depth_duration_MTurk/v2_DepthDuration_HTML.html#430,430,1366,625,1366,768,8-29-2022,15-52-52,100,depth_duration_stimuli/000414_2014-06-04_19-49-13_260595134347_rgbf000044-resize_0/000414_2014-06-04_19-49-13_260595134347_rgbf000044-resize_0-target.png,250,4.329,5,4256,260,meters,jsons/v1_VE250_randls_17.json,1014903,1195974,57,Man
100,739896,DepthScenes,duration_manipulation_targetAtFixation,jsons/v1_VE250_randls_17.json,http://54.235.29.9/FacialAge/BNav_EC2/DepthDuration/v2_depth_duration_MTurk/v2_DepthDuration_HTML.html#430,430,1366,625,1366,768,8-29-2022,15-52-52,101,depth_duration_stimuli/003129_2014-05-12_10-48-10_094959634447_rgbf000100-resize_0/003129_2014-05-12_10-48-10_094959634447_rgbf000100-resize_0-target.png,250,4.9305,3,5292,255,meters,jsons/v1_VE250_randls_17.json,1014903,1195974,57,Man
101,739896,DepthScenes,duration_manipulation_targetAtFixation,jsons/v1_VE250_randls_17.json,http://54.235.29.9/FacialAge/BNav_EC2/DepthDuration/v2_depth_duration_MTurk/v2_DepthDuration_HTML.html#430,430,1366,625,1366,768,8-29-2022,15-52-52,102,depth_duration_stimuli/002272_2014-06-28_18-53-56_260595134347_rgbf000067-resize_2/002272_2014-06-28_18-53-56_260595134347_rgbf000067-resize_2-target.png,250,1.138,3,3190,250,meters,jsons/v1_VE250_randls_17.json,1014903,1195974,57,Man
102,739896,DepthScenes,duration_manipulation_targetAtFixation,jsons/v1_VE250_randls_17.json,http://54.235.29.9/FacialAge/BNav_EC2/DepthDuration/v2_depth_duration_MTurk/v2_DepthDuration_HTML.html#430,430,1366,625,1366,768,8-29-2022,15-52-52,103,depth_duration_stimuli/001571_2014-06-20_17-21-32_260595134347_rgbf000089-resize_1/001571_2014-06-20_17-21-32_260595134347_rgbf000089-resize_1-target.png,250,1.86,5,4497,236,meters,jsons/v1_VE250_randls_17.json,1014903,1195974,57,Man
103,739896,DepthScenes,duration_manipulation_targetAtFixation,jsons/v1_VE250_randls_17.json,http://54.235.29.9/FacialAge/BNav_EC2/DepthDuration/v2_depth_duration_MTurk/v2_DepthDuration_HTML.html#430,430,1366,625,1366,768,8-29-2022,15-52-52,104,depth_duration_stimuli/001175_2014-06-17_15-45-55_260595134347_rgbf000129-resize_4/001175_2014-06-17_15-45-55_260595134347_rgbf000129-resize_4-target.png,250,4.255,6,4928,249,meters,jsons/v1_VE250_randls_17.json,1014903,1195974,57,Man
104,739896,DepthScenes,duration_manipulation_targetAtFixation,jsons/v1_VE250_randls_17.json,http://54.235.29.9/FacialAge/BNav_EC2/DepthDuration/v2_depth_duration_MTurk/v2_DepthDuration_HTML.html#430,430,1366,625,1366,768,8-29-2022,15-52-52,105,depth_duration_stimuli/003490_2014-05-21_15-50-11_094959634447_rgbf000101-resize_3/003490_2014-05-21_15-50-11_094959634447_rgbf000101-resize_3-target.png,250,3.6445,5,4716,243,meters,jsons/v1_VE250_randls_17.json,1014903,1195974,57,Man
105,739896,DepthScenes,duration_manipulation_targetAtFixation,jsons/v1_VE250_randls_17.json,http://54.235.29.9/FacialAge/BNav_EC2/DepthDuration/v2_depth_duration_MTurk/v2_DepthDuration_HTML.html#430,430,1366,625,1366,768,8-29-2022,15-52-52,106,depth_duration_stimuli/003292_2014-05-14_21-53-49_094959634447_rgbf000100-resize_2/003292_2014-05-14_21-53-49_094959634447_rgbf000100-resize_2-target.png,250,3.4815,5,3450,256,meters,jsons/v1_VE250_randls_17.json,1014903,1195974,57,Man
106,739896,DepthScenes,duration_manipulation_targetAtFixation,jsons/v1_VE250_randls_17.json,http://54.235.29.9/FacialAge/BNav_EC2/DepthDuration/v2_depth_duration_MTurk/v2_DepthDuration_HTML.html#430,430,1366,625,1366,768,8-29-2022,15-52-52,107,depth_duration_stimuli/002639_2014-06-24_14-51-37_094959634447_rgbf000074-resize_4/002639_2014-06-24_14-51-37_094959634447_rgbf000074-resize_4-target.png,250,4.0375,0,3756,246,meters,jsons/v1_VE250_randls_17.json,1014903,1195974,57,Man
107,739896,DepthScenes,duration_manipulation_targetAtFixation,jsons/v1_VE250_randls_17.json,http://54.235.29.9/FacialAge/BNav_EC2/DepthDuration/v2_depth_duration_MTurk/v2_DepthDuration_HTML.html#430,430,1366,625,1366,768,8-29-2022,15-52-52,108,depth_duration_stimuli/000810_2014-06-08_17-20-01_260595134347_rgbf000105-resize_0/000810_2014-06-08_17-20-01_260595134347_rgbf000105-resize_0-target.png,250,1.4865,2,8327,249,meters,jsons/v1_VE250_randls_17.json,1014903,1195974,57,Man
108,739896,DepthScenes,duration_manipulation_targetAtFixation,jsons/v1_VE250_randls_17.json,http://54.235.29.9/FacialAge/BNav_EC2/DepthDuration/v2_depth_duration_MTurk/v2_DepthDuration_HTML.html#430,430,1366,625,1366,768,8-29-2022,15-52-52,109,depth_duration_stimuli/001214_2014-06-17_16-13-55_260595134347_rgbf000111-resize_0/001214_2014-06-17_16-13-55_260595134347_rgbf000111-resize_0-target.png,250,2.6505,3,4462,242,meters,jsons/v1_VE250_randls_17.json,1014903,1195974,57,Man
109,739896,DepthScenes,duration_manipulation_targetAtFixation,jsons/v1_VE250_randls_17.json,http://54.235.29.9/FacialAge/BNav_EC2/DepthDuration/v2_depth_duration_MTurk/v2_DepthDuration_HTML.html#430,430,1366,625,1366,768,8-29-2022,15-52-52,110,depth_duration_stimuli/000878_2014-06-08_22-52-45_260595134347_rgbf000045-resize_2/000878_2014-06-08_22-52-45_260595134347_rgbf000045-resize_2-target.png,250,2.092,5,7378,264,meters,jsons/v1_VE250_randls_17.json,1014903,1195974,57,Man
110,739896,DepthScenes,duration_manipulation_targetAtFixation,jsons/v1_VE250_randls_17.json,http://54.235.29.9/FacialAge/BNav_EC2/DepthDuration/v2_depth_duration_MTurk/v2_DepthDuration_HTML.html#430,430,1366,625,1366,768,8-29-2022,15-52-52,111,depth_duration_stimuli/002953_2014-06-08_17-32-18_094959634447_rgbf000059-resize_5/002953_2014-06-08_17-32-18_094959634447_rgbf000059-resize_5-target.png,250,1.551,6,3601,256,meters,jsons/v1_VE250_randls_17.json,1014903,1195974,57,Man
111,739896,DepthScenes,duration_manipulation_targetAtFixation,jsons/v1_VE250_randls_17.json,http://54.235.29.9/FacialAge/BNav_EC2/DepthDuration/v2_depth_duration_MTurk/v2_DepthDuration_HTML.html#430,430,1366,625,1366,768,8-29-2022,15-52-52,112,depth_duration_stimuli/001555_2014-06-20_17-12-10_260595134347_rgbf000065-resize_4/001555_2014-06-20_17-12-10_260595134347_rgbf000065-resize_4-target.png,250,1.633,5,3146,254,meters,jsons/v1_VE250_randls_17.json,1014903,1195974,57,Man
112,739896,DepthScenes,duration_manipulation_targetAtFixation,jsons/v1_VE250_randls_17.json,http://54.235.29.9/FacialAge/BNav_EC2/DepthDuration/v2_depth_duration_MTurk/v2_DepthDuration_HTML.html#430,430,1366,625,1366,768,8-29-2022,15-52-52,113,depth_duration_stimuli/000103_2014-05-14_22-01-17_260595134347_rgbf000152-resize_5/000103_2014-05-14_22-01-17_260595134347_rgbf000152-resize_5-target.png,250,1.993,8,3132,258,meters,jsons/v1_VE250_randls_17.json,1014903,1195974,57,Man
113,739896,DepthScenes,duration_manipulation_targetAtFixation,jsons/v1_VE250_randls_17.json,http://54.235.29.9/FacialAge/BNav_EC2/DepthDuration/v2_depth_duration_MTurk/v2_DepthDuration_HTML.html#430,430,1366,625,1366,768,8-29-2022,15-52-52,114,depth_duration_stimuli/000009_2014-05-26_14-32-05_260595134347_rgbf000034-resize_3/000009_2014-05-26_14-32-05_260595134347_rgbf000034-resize_3-target.png,250,3.8715,8,2902,251,meters,jsons/v1_VE250_randls_17.json,1014903,1195974,57,Man
114,739896,DepthScenes,duration_manipulation_targetAtFixation,jsons/v1_VE250_randls_17.json,http://54.235.29.9/FacialAge/BNav_EC2/DepthDuration/v2_depth_duration_MTurk/v2_DepthDuration_HTML.html#430,430,1366,625,1366,768,8-29-2022,15-52-52,115,depth_duration_stimuli/001828_2014-06-26_21-40-03_260595134347_rgbf000024-resize_0/001828_2014-06-26_21-40-03_260595134347_rgbf000024-resize_0-target.png,250,4.8260000000000005,6,2641,249,meters,jsons/v1_VE250_randls_17.json,1014903,1195974,57,Man
115,739896,DepthScenes,duration_manipulation_targetAtFixation,jsons/v1_VE250_randls_17.json,http://54.235.29.9/FacialAge/BNav_EC2/DepthDuration/v2_depth_duration_MTurk/v2_DepthDuration_HTML.html#430,430,1366,625,1366,768,8-29-2022,15-52-52,116,depth_duration_stimuli/001170_2014-06-17_15-43-44_260595134347_rgbf000096-resize_6/001170_2014-06-17_15-43-44_260595134347_rgbf000096-resize-original.jpg,250,1.1909999999999998,3,45470,256,meters,jsons/v1_VE250_randls_17.json,1014903,1195974,57,Man
116,739896,DepthScenes,duration_manipulation_targetAtFixation,jsons/v1_VE250_randls_17.json,http://54.235.29.9/FacialAge/BNav_EC2/DepthDuration/v2_depth_duration_MTurk/v2_DepthDuration_HTML.html#430,430,1366,625,1366,768,8-29-2022,15-52-52,117,depth_duration_stimuli/002509_2014-06-24_13-19-22_094959634447_rgbf000077-resize_0/002509_2014-06-24_13-19-22_094959634447_rgbf000077-resize_0-target.png,250,1.3065,4,2499,253,meters,jsons/v1_VE250_randls_17.json,1014903,1195974,57,Man
117,739896,DepthScenes,duration_manipulation_targetAtFixation,jsons/v1_VE250_randls_17.json,http://54.235.29.9/FacialAge/BNav_EC2/DepthDuration/v2_depth_duration_MTurk/v2_DepthDuration_HTML.html#430,430,1366,625,1366,768,8-29-2022,15-52-52,118,depth_duration_stimuli/003338_2014-05-20_11-01-23_094959634447_rgbf000051-resize_6/003338_2014-05-20_11-01-23_094959634447_rgbf000051-resize_6-target.png,250,1.693,3,2526,239,meters,jsons/v1_VE250_randls_17.json,1014903,1195974,57,Man
118,739896,DepthScenes,duration_manipulation_targetAtFixation,jsons/v1_VE250_randls_17.json,http://54.235.29.9/FacialAge/BNav_EC2/DepthDuration/v2_depth_duration_MTurk/v2_DepthDuration_HTML.html#430,430,1366,625,1366,768,8-29-2022,15-52-52,119,depth_duration_stimuli/000736_2014-06-08_18-24-15_260595134347_rgbf000206-resize_3/000736_2014-06-08_18-24-15_260595134347_rgbf000206-resize_3-target.png,250,3.515,5,2450,241,meters,jsons/v1_VE250_randls_17.json,1014903,1195974,57,Man
119,739896,DepthScenes,duration_manipulation_targetAtFixation,jsons/v1_VE250_randls_17.json,http://54.235.29.9/FacialAge/BNav_EC2/DepthDuration/v2_depth_duration_MTurk/v2_DepthDuration_HTML.html#430,430,1366,625,1366,768,8-29-2022,15-52-52,120,depth_duration_stimuli/000137_2014-05-20_17-04-49_260595134347_rgbf000120-resize_1/000137_2014-05-20_17-04-49_260595134347_rgbf000120-resize_1-target.png,250,3.786,5,2403,253,meters,jsons/v1_VE250_randls_17.json,1014903,1195974,57,Man
120,739896,DepthScenes,duration_manipulation_targetAtFixation,jsons/v1_VE250_randls_17.json,http://54.235.29.9/FacialAge/BNav_EC2/DepthDuration/v2_depth_duration_MTurk/v2_DepthDuration_HTML.html#430,430,1366,625,1366,768,8-29-2022,15-52-52,121,depth_duration_stimuli/000692_2014-06-08_13-09-42_260595134347_rgbf000199-resize_2/000692_2014-06-08_13-09-42_260595134347_rgbf000199-resize_2-target.png,250,3.661,6,3131,246,meters,jsons/v1_VE250_randls_17.json,1014903,1195974,57,Man
121,739896,DepthScenes,duration_manipulation_targetAtFixation,jsons/v1_VE250_randls_17.json,http://54.235.29.9/FacialAge/BNav_EC2/DepthDuration/v2_depth_duration_MTurk/v2_DepthDuration_HTML.html#430,430,1366,625,1366,768,8-29-2022,15-52-52,122,depth_duration_stimuli/001094_2014-06-15_17-36-00_260595134347_rgbf000205-resize_0/001094_2014-06-15_17-36-00_260595134347_rgbf000205-resize_0-target.png,250,4.2175,7,2431,264,meters,jsons/v1_VE250_randls_17.json,1014903,1195974,57,Man
122,739896,DepthScenes,duration_manipulation_targetAtFixation,jsons/v1_VE250_randls_17.json,http://54.235.29.9/FacialAge/BNav_EC2/DepthDuration/v2_depth_duration_MTurk/v2_DepthDuration_HTML.html#430,430,1366,625,1366,768,8-29-2022,15-52-52,123,depth_duration_stimuli/000642_2014-06-08_16-59-25_260595134347_rgbf000098-resize_2/000642_2014-06-08_16-59-25_260595134347_rgbf000098-resize_2-target.png,250,2.8815,5,2288,240,meters,jsons/v1_VE250_randls_17.json,1014903,1195974,57,Man
123,739896,DepthScenes,duration_manipulation_targetAtFixation,jsons/v1_VE250_randls_17.json,http://54.235.29.9/FacialAge/BNav_EC2/DepthDuration/v2_depth_duration_MTurk/v2_DepthDuration_HTML.html#430,430,1366,625,1366,768,8-29-2022,15-52-52,124,depth_duration_stimuli/002425_2014-06-28_20-27-29_260595134347_rgbf000031-resize_8/002425_2014-06-28_20-27-29_260595134347_rgbf000031-resize_8-target.png,250,3.8960000000000004,7,2426,247,meters,jsons/v1_VE250_randls_17.json,1014903,1195974,57,Man
124,739896,DepthScenes,duration_manipulation_targetAtFixation,jsons/v1_VE250_randls_17.json,http://54.235.29.9/FacialAge/BNav_EC2/DepthDuration/v2_depth_duration_MTurk/v2_DepthDuration_HTML.html#430,430,1366,625,1366,768,8-29-2022,15-52-52,125,depth_duration_stimuli/001244_2014-06-17_16-47-45_260595134347_rgbf000030-resize_4/001244_2014-06-17_16-47-45_260595134347_rgbf000030-resize_4-target.png,250,2.0425,7,2744,261,meters,jsons/v1_VE250_randls_17.json,1014903,1195974,57,Man
125,739896,DepthScenes,duration_manipulation_targetAtFixation,jsons/v1_VE250_randls_17.json,http://54.235.29.9/FacialAge/BNav_EC2/DepthDuration/v2_depth_duration_MTurk/v2_DepthDuration_HTML.html#430,430,1366,625,1366,768,8-29-2022,15-52-52,126,depth_duration_stimuli/003495_2014-05-21_16-01-51_094959634447_rgbf000100-resize_3/003495_2014-05-21_16-01-51_094959634447_rgbf000100-resize_3-target.png,250,1.6255,5,2907,263,meters,jsons/v1_VE250_randls_17.json,1014903,1195974,57,Man
126,739896,DepthScenes,duration_manipulation_targetAtFixation,jsons/v1_VE250_randls_17.json,http://54.235.29.9/FacialAge/BNav_EC2/DepthDuration/v2_depth_duration_MTurk/v2_DepthDuration_HTML.html#430,430,1366,625,1366,768,8-29-2022,15-52-52,127,depth_duration_stimuli/002570_2014-06-24_13-59-54_094959634447_rgbf000059-resize_0/002570_2014-06-24_13-59-54_094959634447_rgbf000059-resize_0-target.png,250,4.037,4,2321,266,meters,jsons/v1_VE250_randls_17.json,1014903,1195974,57,Man
127,739896,DepthScenes,duration_manipulation_targetAtFixation,jsons/v1_VE250_randls_17.json,http://54.235.29.9/FacialAge/BNav_EC2/DepthDuration/v2_depth_duration_MTurk/v2_DepthDuration_HTML.html#430,430,1366,625,1366,768,8-29-2022,15-52-52,128,depth_duration_stimuli/002467_2014-06-28_20-38-07_260595134347_rgbf000026-resize_2/002467_2014-06-28_20-38-07_260595134347_rgbf000026-resize_2-target.png,250,4.742,4,2971,260,meters,jsons/v1_VE250_randls_17.json,1014903,1195974,57,Man
128,739896,DepthScenes,duration_manipulation_targetAtFixation,jsons/v1_VE250_randls_17.json,http://54.235.29.9/FacialAge/BNav_EC2/DepthDuration/v2_depth_duration_MTurk/v2_DepthDuration_HTML.html#430,430,1366,625,1366,768,8-29-2022,15-52-52,129,depth_duration_stimuli/000929_2014-06-09_16-33-19_260595134347_rgbf000139-resize_0/000929_2014-06-09_16-33-19_260595134347_rgbf000139-resize_0-target.png,250,2.8680000000000003,3,2362,249,meters,jsons/v1_VE250_randls_17.json,1014903,1195974,57,Man
129,739896,DepthScenes,duration_manipulation_targetAtFixation,jsons/v1_VE250_randls_17.json,http://54.235.29.9/FacialAge/BNav_EC2/DepthDuration/v2_depth_duration_MTurk/v2_DepthDuration_HTML.html#430,430,1366,625,1366,768,8-29-2022,15-52-52,130,depth_duration_stimuli/000457_2014-06-08_16-52-43_260595134347_rgbf000199-resize_1/000457_2014-06-08_16-52-43_260595134347_rgbf000199-resize_1-target.png,250,3.6489999999999996,3,2160,242,meters,jsons/v1_VE250_randls_17.json,1014903,1195974,57,Man
130,739896,DepthScenes,duration_manipulation_targetAtFixation,jsons/v1_VE250_randls_17.json,http://54.235.29.9/FacialAge/BNav_EC2/DepthDuration/v2_depth_duration_MTurk/v2_DepthDuration_HTML.html#430,430,1366,625,1366,768,8-29-2022,15-52-52,131,depth_duration_stimuli/001570_2014-06-20_17-21-09_260595134347_rgbf000135-resize_4/001570_2014-06-20_17-21-09_260595134347_rgbf000135-resize_4-target.png,250,4.467,4,3580,251,meters,jsons/v1_VE250_randls_17.json,1014903,1195974,57,Man
131,739896,DepthScenes,duration_manipulation_targetAtFixation,jsons/v1_VE250_randls_17.json,http://54.235.29.9/FacialAge/BNav_EC2/DepthDuration/v2_depth_duration_MTurk/v2_DepthDuration_HTML.html#430,430,1366,625,1366,768,8-29-2022,15-52-52,132,depth_duration_stimuli/001392_2014-06-19_16-07-59_260595134347_rgbf000046-resize_1/001392_2014-06-19_16-07-59_260595134347_rgbf000046-resize_1-target.png,250,4.135,5,2138,255,meters,jsons/v1_VE250_randls_17.json,1014903,1195974,57,Man
132,739896,DepthScenes,duration_manipulation_targetAtFixation,jsons/v1_VE250_randls_17.json,http://54.235.29.9/FacialAge/BNav_EC2/DepthDuration/v2_depth_duration_MTurk/v2_DepthDuration_HTML.html#430,430,1366,625,1366,768,8-29-2022,15-52-52,133,depth_duration_stimuli/001808_2014-06-26_20-50-58_260595134347_rgbf000029-resize_1/001808_2014-06-26_20-50-58_260595134347_rgbf000029-resize_1-target.png,250,4.249,6,1986,243,meters,jsons/v1_VE250_randls_17.json,1014903,1195974,57,Man
133,739896,DepthScenes,duration_manipulation_targetAtFixation,jsons/v1_VE250_randls_17.json,http://54.235.29.9/FacialAge/BNav_EC2/DepthDuration/v2_depth_duration_MTurk/v2_DepthDuration_HTML.html#430,430,1366,625,1366,768,8-29-2022,15-52-52,134,depth_duration_stimuli/001815_2014-06-26_20-52-55_260595134347_rgbf000020-resize_0/001815_2014-06-26_20-52-55_260595134347_rgbf000020-resize_0-target.png,250,3.3865,6,2378,248,meters,jsons/v1_VE250_randls_17.json,1014903,1195974,57,Man
134,739896,DepthScenes,duration_manipulation_targetAtFixation,jsons/v1_VE250_randls_17.json,http://54.235.29.9/FacialAge/BNav_EC2/DepthDuration/v2_depth_duration_MTurk/v2_DepthDuration_HTML.html#430,430,1366,625,1366,768,8-29-2022,15-52-52,135,depth_duration_stimuli/002072_2014-06-24_21-48-06_260595134347_rgbf000115-resize_0/002072_2014-06-24_21-48-06_260595134347_rgbf000115-resize-original.jpg,250,4.702,0,12917,217,meters,jsons/v1_VE250_randls_17.json,1014903,1195974,57,Man
135,739896,DepthScenes,duration_manipulation_targetAtFixation,jsons/v1_VE250_randls_17.json,http://54.235.29.9/FacialAge/BNav_EC2/DepthDuration/v2_depth_duration_MTurk/v2_DepthDuration_HTML.html#430,430,1366,625,1366,768,8-29-2022,15-52-52,136,depth_duration_stimuli/002763_2014-06-22_19-13-10_094959634447_rgbf000075-resize_4/002763_2014-06-22_19-13-10_094959634447_rgbf000075-resize_4-target.png,250,1.68375,7,8110,239,meters,jsons/v1_VE250_randls_17.json,1014903,1195974,57,Man
136,739896,DepthScenes,duration_manipulation_targetAtFixation,jsons/v1_VE250_randls_17.json,http://54.235.29.9/FacialAge/BNav_EC2/DepthDuration/v2_depth_duration_MTurk/v2_DepthDuration_HTML.html#430,430,1366,625,1366,768,8-29-2022,15-52-52,137,depth_duration_stimuli/002209_2014-06-28_18-36-10_260595134347_rgbf000051-resize_1/002209_2014-06-28_18-36-10_260595134347_rgbf000051-resize_1-target.png,250,2.057,8,3273,251,meters,jsons/v1_VE250_randls_17.json,1014903,1195974,57,Man
137,739896,DepthScenes,duration_manipulation_targetAtFixation,jsons/v1_VE250_randls_17.json,http://54.235.29.9/FacialAge/BNav_EC2/DepthDuration/v2_depth_duration_MTurk/v2_DepthDuration_HTML.html#430,430,1366,625,1366,768,8-29-2022,15-52-52,138,depth_duration_stimuli/000447_2014-06-08_16-15-46_260595134347_rgbf000130-resize_1/000447_2014-06-08_16-15-46_260595134347_rgbf000130-resize_1-target.png,250,4.479,6,2138,232,meters,jsons/v1_VE250_randls_17.json,1014903,1195974,57,Man
138,739896,DepthScenes,duration_manipulation_targetAtFixation,jsons/v1_VE250_randls_17.json,http://54.235.29.9/FacialAge/BNav_EC2/DepthDuration/v2_depth_duration_MTurk/v2_DepthDuration_HTML.html#430,430,1366,625,1366,768,8-29-2022,15-52-52,139,depth_duration_stimuli/001447_2014-06-19_17-00-32_260595134347_rgbf000082-resize_5/001447_2014-06-19_17-00-32_260595134347_rgbf000082-resize_5-target.png,250,4.13775,7,2795,253,meters,jsons/v1_VE250_randls_17.json,1014903,1195974,57,Man
139,739896,DepthScenes,duration_manipulation_targetAtFixation,jsons/v1_VE250_randls_17.json,http://54.235.29.9/FacialAge/BNav_EC2/DepthDuration/v2_depth_duration_MTurk/v2_DepthDuration_HTML.html#430,430,1366,625,1366,768,8-29-2022,15-52-52,140,depth_duration_stimuli/002279_2014-06-28_18-55-32_260595134347_rgbf000040-resize_5/002279_2014-06-28_18-55-32_260595134347_rgbf000040-resize_5-target.png,250,1.5043333333333,5,2866,262,meters,jsons/v1_VE250_randls_17.json,1014903,1195974,57,Man
140,739896,DepthScenes,duration_manipulation_targetAtFixation,jsons/v1_VE250_randls_17.json,http://54.235.29.9/FacialAge/BNav_EC2/DepthDuration/v2_depth_duration_MTurk/v2_DepthDuration_HTML.html#430,430,1366,625,1366,768,8-29-2022,15-52-52,141,depth_duration_stimuli/000635_2014-06-08_16-38-42_260595134347_rgbf000106-resize_1/000635_2014-06-08_16-38-42_260595134347_rgbf000106-resize_1-target.png,250,2.074,4,2964,246,meters,jsons/v1_VE250_randls_17.json,1014903,1195974,57,Man
141,739896,DepthScenes,duration_manipulation_targetAtFixation,jsons/v1_VE250_randls_17.json,http://54.235.29.9/FacialAge/BNav_EC2/DepthDuration/v2_depth_duration_MTurk/v2_DepthDuration_HTML.html#430,430,1366,625,1366,768,8-29-2022,15-52-52,142,depth_duration_stimuli/000469_2014-06-09_19-42-10_260595134347_rgbf000081-resize_1/000469_2014-06-09_19-42-10_260595134347_rgbf000081-resize_1-target.png,250,1.652,4,3150,251,meters,jsons/v1_VE250_randls_17.json,1014903,1195974,57,Man
142,739896,DepthScenes,duration_manipulation_targetAtFixation,jsons/v1_VE250_randls_17.json,http://54.235.29.9/FacialAge/BNav_EC2/DepthDuration/v2_depth_duration_MTurk/v2_DepthDuration_HTML.html#430,430,1366,625,1366,768,8-29-2022,15-52-52,143,depth_duration_stimuli/000483_2014-06-09_20-41-45_260595134347_rgbf000116-resize_4/000483_2014-06-09_20-41-45_260595134347_rgbf000116-resize_4-target.png,250,1.337,3,3343,247,meters,jsons/v1_VE250_randls_17.json,1014903,1195974,57,Man
143,739896,DepthScenes,duration_manipulation_targetAtFixation,jsons/v1_VE250_randls_17.json,http://54.235.29.9/FacialAge/BNav_EC2/DepthDuration/v2_depth_duration_MTurk/v2_DepthDuration_HTML.html#430,430,1366,625,1366,768,8-29-2022,15-52-52,144,depth_duration_stimuli/000773_2014-06-08_22-24-54_260595134347_rgbf000093-resize_1/000773_2014-06-08_22-24-54_260595134347_rgbf000093-resize_1-target.png,250,4.973,2,2345,257,meters,jsons/v1_VE250_randls_17.json,1014903,1195974,57,Man
144,739896,DepthScenes,duration_manipulation_targetAtFixation,jsons/v1_VE250_randls_17.json,http://54.235.29.9/FacialAge/BNav_EC2/DepthDuration/v2_depth_duration_MTurk/v2_DepthDuration_HTML.html#430,430,1366,625,1366,768,8-29-2022,15-52-52,145,depth_duration_stimuli/002414_2014-06-28_20-24-58_260595134347_rgbf000067-resize_4/002414_2014-06-28_20-24-58_260595134347_rgbf000067-resize_4-target.png,250,4.363,7,9476,252,meters,jsons/v1_VE250_randls_17.json,1014903,1195974,57,Man
145,739896,DepthScenes,duration_manipulation_targetAtFixation,jsons/v1_VE250_randls_17.json,http://54.235.29.9/FacialAge/BNav_EC2/DepthDuration/v2_depth_duration_MTurk/v2_DepthDuration_HTML.html#430,430,1366,625,1366,768,8-29-2022,15-52-52,146,depth_duration_stimuli/001498_2014-06-19_17-45-14_260595134347_rgbf000129-resize_4/001498_2014-06-19_17-45-14_260595134347_rgbf000129-resize-original.jpg,250,1.4075,0,8006,256,meters,jsons/v1_VE250_randls_17.json,1014903,1195974,57,Man
146,739896,DepthScenes,duration_manipulation_targetAtFixation,jsons/v1_VE250_randls_17.json,http://54.235.29.9/FacialAge/BNav_EC2/DepthDuration/v2_depth_duration_MTurk/v2_DepthDuration_HTML.html#430,430,1366,625,1366,768,8-29-2022,15-52-52,147,depth_duration_stimuli/001810_2014-06-26_20-51-35_260595134347_rgbf000040-resize_3/001810_2014-06-26_20-51-35_260595134347_rgbf000040-resize_3-target.png,250,2.2525,5,6837,263,meters,jsons/v1_VE250_randls_17.json,1014903,1195974,57,Man
147,739896,DepthScenes,duration_manipulation_targetAtFixation,jsons/v1_VE250_randls_17.json,http://54.235.29.9/FacialAge/BNav_EC2/DepthDuration/v2_depth_duration_MTurk/v2_DepthDuration_HTML.html#430,430,1366,625,1366,768,8-29-2022,15-52-52,148,depth_duration_stimuli/003010_2014-06-15_12-54-35_094959634447_rgbf000112-resize_0/003010_2014-06-15_12-54-35_094959634447_rgbf000112-resize_0-target.png,250,3.1185,5,3200,237,meters,jsons/v1_VE250_randls_17.json,1014903,1195974,57,Man
148,739896,DepthScenes,duration_manipulation_targetAtFixation,jsons/v1_VE250_randls_17.json,http://54.235.29.9/FacialAge/BNav_EC2/DepthDuration/v2_depth_duration_MTurk/v2_DepthDuration_HTML.html#430,430,1366,625,1366,768,8-29-2022,15-52-52,149,depth_duration_stimuli/000436_2014-06-09_22-25-11_260595134347_rgbf000137-resize_1/000436_2014-06-09_22-25-11_260595134347_rgbf000137-resize_1-target.png,250,4.0705,6,2750,248,meters,jsons/v1_VE250_randls_17.json,1014903,1195974,57,Man
149,739896,DepthScenes,duration_manipulation_targetAtFixation,jsons/v1_VE250_randls_17.json,http://54.235.29.9/FacialAge/BNav_EC2/DepthDuration/v2_depth_duration_MTurk/v2_DepthDuration_HTML.html#430,430,1366,625,1366,768,8-29-2022,15-52-52,150,depth_duration_stimuli/002444_2014-06-28_20-32-08_260595134347_rgbf000027-resize_0/002444_2014-06-28_20-32-08_260595134347_rgbf000027-resize_0-target.png,250,4.388999999999999,6,2733,235,meters,jsons/v1_VE250_randls_17.json,1014903,1195974,57,Man
150,739896,DepthScenes,duration_manipulation_targetAtFixation,jsons/v1_VE250_randls_17.json,http://54.235.29.9/FacialAge/BNav_EC2/DepthDuration/v2_depth_duration_MTurk/v2_DepthDuration_HTML.html#430,430,1366,625,1366,768,8-29-2022,15-52-52,151,depth_duration_stimuli/002213_2014-06-28_18-37-58_260595134347_rgbf000055-resize_1/002213_2014-06-28_18-37-58_260595134347_rgbf000055-resize_1-target.png,250,3.62,8,2778,257,meters,jsons/v1_VE250_randls_17.json,1014903,1195974,57,Man
151,739896,DepthScenes,duration_manipulation_targetAtFixation,jsons/v1_VE250_randls_17.json,http://54.235.29.9/FacialAge/BNav_EC2/DepthDuration/v2_depth_duration_MTurk/v2_DepthDuration_HTML.html#430,430,1366,625,1366,768,8-29-2022,15-52-52,152,depth_duration_stimuli/000691_2014-06-08_13-08-50_260595134347_rgbf000132-resize_3/000691_2014-06-08_13-08-50_260595134347_rgbf000132-resize_3-target.png,250,4.1530000000000005,5,3099,242,meters,jsons/v1_VE250_randls_17.json,1014903,1195974,57,Man
152,739896,DepthScenes,duration_manipulation_targetAtFixation,jsons/v1_VE250_randls_17.json,http://54.235.29.9/FacialAge/BNav_EC2/DepthDuration/v2_depth_duration_MTurk/v2_DepthDuration_HTML.html#430,430,1366,625,1366,768,8-29-2022,15-52-52,153,depth_duration_stimuli/001417_2014-06-19_16-25-36_260595134347_rgbf000115-resize_5/001417_2014-06-19_16-25-36_260595134347_rgbf000115-resize_5-target.png,250,4.6255,6,2391,250,meters,jsons/v1_VE250_randls_17.json,1014903,1195974,57,Man
153,739896,DepthScenes,duration_manipulation_targetAtFixation,jsons/v1_VE250_randls_17.json,http://54.235.29.9/FacialAge/BNav_EC2/DepthDuration/v2_depth_duration_MTurk/v2_DepthDuration_HTML.html#430,430,1366,625,1366,768,8-29-2022,15-52-52,154,depth_duration_stimuli/003081_2014-06-15_15-19-16_094959634447_rgbf000150-resize_1/003081_2014-06-15_15-19-16_094959634447_rgbf000150-resize_1-target.png,250,3.9125,3,2332,251,meters,jsons/v1_VE250_randls_17.json,1014903,1195974,57,Man
154,739896,DepthScenes,duration_manipulation_targetAtFixation,jsons/v1_VE250_randls_17.json,http://54.235.29.9/FacialAge/BNav_EC2/DepthDuration/v2_depth_duration_MTurk/v2_DepthDuration_HTML.html#430,430,1366,625,1366,768,8-29-2022,15-52-52,155,depth_duration_stimuli/003492_2014-05-21_15-50-55_094959634447_rgbf000828-resize_1/003492_2014-05-21_15-50-55_094959634447_rgbf000828-resize_1-target.png,250,4.06875,3,2517,252,meters,jsons/v1_VE250_randls_17.json,1014903,1195974,57,Man
155,739896,DepthScenes,duration_manipulation_targetAtFixation,jsons/v1_VE250_randls_17.json,http://54.235.29.9/FacialAge/BNav_EC2/DepthDuration/v2_depth_duration_MTurk/v2_DepthDuration_HTML.html#430,430,1366,625,1366,768,8-29-2022,15-52-52,156,depth_duration_stimuli/002568_2014-06-24_13-59-21_094959634447_rgbf000062-resize_4/002568_2014-06-24_13-59-21_094959634447_rgbf000062-resize_4-target.png,250,3.015,5,3017,243,meters,jsons/v1_VE250_randls_17.json,1014903,1195974,57,Man
156,739896,DepthScenes,duration_manipulation_targetAtFixation,jsons/v1_VE250_randls_17.json,http://54.235.29.9/FacialAge/BNav_EC2/DepthDuration/v2_depth_duration_MTurk/v2_DepthDuration_HTML.html#430,430,1366,625,1366,768,8-29-2022,15-52-52,157,depth_duration_stimuli/000739_2014-06-08_18-45-58_260595134347_rgbf000068-resize_1/000739_2014-06-08_18-45-58_260595134347_rgbf000068-resize_1-target.png,250,3.534,6,2790,261,meters,jsons/v1_VE250_randls_17.json,1014903,1195974,57,Man
157,739896,DepthScenes,duration_manipulation_targetAtFixation,jsons/v1_VE250_randls_17.json,http://54.235.29.9/FacialAge/BNav_EC2/DepthDuration/v2_depth_duration_MTurk/v2_DepthDuration_HTML.html#430,430,1366,625,1366,768,8-29-2022,15-52-52,158,depth_duration_stimuli/000734_2014-06-08_17-39-11_260595134347_rgbf000128-resize_2/000734_2014-06-08_17-39-11_260595134347_rgbf000128-resize_2-target.png,250,4.098,4,3539,246,meters,jsons/v1_VE250_randls_17.json,1014903,1195974,57,Man
158,739896,DepthScenes,duration_manipulation_targetAtFixation,jsons/v1_VE250_randls_17.json,http://54.235.29.9/FacialAge/BNav_EC2/DepthDuration/v2_depth_duration_MTurk/v2_DepthDuration_HTML.html#430,430,1366,625,1366,768,8-29-2022,15-52-52,159,depth_duration_stimuli/003070_2014-06-15_14-58-27_094959634447_rgbf000150-resize_3/003070_2014-06-15_14-58-27_094959634447_rgbf000150-resize_3-target.png,250,2.9415,5,3912,249,meters,jsons/v1_VE250_randls_17.json,1014903,1195974,57,Man
159,739896,DepthScenes,duration_manipulation_targetAtFixation,jsons/v1_VE250_randls_17.json,http://54.235.29.9/FacialAge/BNav_EC2/DepthDuration/v2_depth_duration_MTurk/v2_DepthDuration_HTML.html#430,430,1366,625,1366,768,8-29-2022,15-52-52,160,depth_duration_stimuli/000943_2014-06-09_19-31-07_260595134347_rgbf000128-resize_1/000943_2014-06-09_19-31-07_260595134347_rgbf000128-resize_1-target.png,250,1.9765,5,4709,237,meters,jsons/v1_VE250_randls_17.json,1014903,1195974,57,Man
160,739896,DepthScenes,duration_manipulation_targetAtFixation,jsons/v1_VE250_randls_17.json,http://54.235.29.9/FacialAge/BNav_EC2/DepthDuration/v2_depth_duration_MTurk/v2_DepthDuration_HTML.html#430,430,1366,625,1366,768,8-29-2022,15-52-52,161,depth_duration_stimuli/002748_2014-06-22_19-07-22_094959634447_rgbf000078-resize_1/002748_2014-06-22_19-07-22_094959634447_rgbf000078-resize_1-target.png,250,4.6705,7,2878,246,meters,jsons/v1_VE250_randls_17.json,1014903,1195974,57,Man
161,739896,DepthScenes,duration_manipulation_targetAtFixation,jsons/v1_VE250_randls_17.json,http://54.235.29.9/FacialAge/BNav_EC2/DepthDuration/v2_depth_duration_MTurk/v2_DepthDuration_HTML.html#430,430,1366,625,1366,768,8-29-2022,15-52-52,162,depth_duration_stimuli/002995_2014-06-15_12-31-26_094959634447_rgbf000150-resize_1/002995_2014-06-15_12-31-26_094959634447_rgbf000150-resize_1-target.png,250,3.8360000000000003,5,3044,244,meters,jsons/v1_VE250_randls_17.json,1014903,1195974,57,Man
162,739896,DepthScenes,duration_manipulation_targetAtFixation,jsons/v1_VE250_randls_17.json,http://54.235.29.9/FacialAge/BNav_EC2/DepthDuration/v2_depth_duration_MTurk/v2_DepthDuration_HTML.html#430,430,1366,625,1366,768,8-29-2022,15-52-52,163,depth_duration_stimuli/001011_2014-06-08_23-18-54_260595134347_rgbf000044-resize_4/001011_2014-06-08_23-18-54_260595134347_rgbf000044-resize_4-target.png,250,2.4730000000000003,6,2316,257,meters,jsons/v1_VE250_randls_17.json,1014903,1195974,57,Man
163,739896,DepthScenes,duration_manipulation_targetAtFixation,jsons/v1_VE250_randls_17.json,http://54.235.29.9/FacialAge/BNav_EC2/DepthDuration/v2_depth_duration_MTurk/v2_DepthDuration_HTML.html#430,430,1366,625,1366,768,8-29-2022,15-52-52,164,depth_duration_stimuli/002875_2014-06-01_15-19-00_094959634447_rgbf000151-resize_1/002875_2014-06-01_15-19-00_094959634447_rgbf000151-resize_1-target.png,250,1.9675,6,2415,244,meters,jsons/v1_VE250_randls_17.json,1014903,1195974,57,Man
